SpectraSuite Data File
++++++++++++++++++++++++++++++++++++
Date: Fri Feb 01 17:32:38 EST 2013
User: group
Dark Spectrum Present: No
Reference Spectrum Present: No
Number of Sampled Component Spectra: 1
Spectrometers: USB2E7196
Integration Time (usec): 35000 (USB2E7196)
Spectra Averaged: 100 (USB2E7196)
Boxcar Smoothing: 10 (USB2E7196)
Correct for Electrical Dark: No (USB2E7196)
Strobe/Lamp Enabled: No (USB2E7196)
Correct for Detector Non-linearity: No (USB2E7196)
Correct for Stray Light: No (USB2E7196)
Number of Pixels in Processed Spectrum: 2048
>>>>>Begin Processed Spectral Data<<<<<
339.09	0.00
339.48	212.79
339.86	213.98
340.24	215.89
340.63	217.21
341.01	220.19
341.39	219.30
341.78	220.81
342.16	222.64
342.54	222.22
342.93	211.09
343.31	221.78
343.69	222.34
344.07	222.83
344.46	223.22
344.84	223.57
345.22	223.77
345.60	224.07
345.99	224.24
346.37	224.31
346.75	224.46
347.13	224.53
347.52	224.61
347.90	224.74
348.28	224.79
348.66	224.86
349.05	224.87
349.43	224.90
349.81	224.94
350.19	224.98
350.57	225.05
350.96	225.12
351.34	225.19
351.72	225.26
352.10	225.33
352.48	225.41
352.87	225.49
353.25	225.57
353.63	225.59
354.01	225.67
354.39	225.79
354.77	225.83
355.15	225.92
355.54	225.98
355.92	225.99
356.30	226.05
356.68	226.19
357.06	226.26
357.44	226.32
357.82	226.37
358.20	226.44
358.58	226.48
358.97	226.56
359.35	226.61
359.73	226.71
360.11	226.77
360.49	226.83
360.87	226.88
361.25	226.94
361.63	227.03
362.01	227.06
362.39	227.10
362.77	227.14
363.15	227.20
363.53	227.22
363.91	227.24
364.29	227.27
364.67	227.17
365.05	227.23
365.43	227.26
365.81	227.29
366.19	227.35
366.57	227.46
366.95	227.46
367.33	227.48
367.71	227.47
368.09	227.45
368.47	227.46
368.85	227.43
369.23	227.44
369.61	227.38
369.99	227.37
370.37	227.35
370.75	227.38
371.13	227.34
371.51	227.29
371.89	227.28
372.27	227.25
372.65	227.23
373.03	227.17
373.41	227.11
373.78	227.04
374.16	226.93
374.54	226.83
374.92	226.74
375.30	226.68
375.68	226.55
376.06	226.52
376.44	226.47
376.82	226.40
377.19	226.29
377.57	226.25
377.95	226.16
378.33	226.10
378.71	225.99
379.09	225.90
379.47	225.84
379.84	225.77
380.22	225.70
380.60	225.61
380.98	225.52
381.36	225.46
381.73	225.44
382.11	225.39
382.49	225.34
382.87	225.28
383.25	225.21
383.62	225.30
384.00	225.21
384.38	225.15
384.76	225.11
385.13	225.13
385.51	225.10
385.89	225.08
386.27	225.00
386.64	224.98
387.02	224.91
387.40	224.87
387.78	224.82
388.15	224.80
388.53	224.74
388.91	224.70
389.29	224.67
389.66	224.65
390.04	224.61
390.42	224.58
390.79	224.58
391.17	224.55
391.55	224.44
391.92	224.44
392.30	224.47
392.68	224.47
393.05	224.43
393.43	224.43
393.81	224.42
394.18	224.45
394.56	224.44
394.94	224.48
395.31	224.49
395.69	224.52
396.06	224.52
396.44	224.56
396.82	224.60
397.19	224.67
397.57	224.68
397.95	224.75
398.32	224.77
398.70	224.80
399.07	224.91
399.45	224.94
399.82	224.99
400.20	225.00
400.58	225.03
400.95	225.08
401.33	225.15
401.70	225.31
402.08	225.39
402.45	225.46
402.83	225.57
403.20	225.65
403.58	225.74
403.95	225.87
404.33	225.97
404.71	226.07
405.08	226.23
405.46	226.35
405.83	226.46
406.21	226.59
406.58	226.76
406.96	226.89
407.33	227.09
407.70	227.29
408.08	227.58
408.45	227.84
408.83	228.05
409.20	228.26
409.58	228.42
409.95	228.69
410.33	228.98
410.70	229.23
411.08	229.57
411.45	229.90
411.82	230.24
412.20	230.63
412.57	231.06
412.95	231.34
413.32	231.78
413.69	232.24
414.07	232.69
414.44	233.15
414.82	233.66
415.19	234.23
415.56	234.79
415.94	235.34
416.31	235.98
416.68	236.64
417.06	237.45
417.43	238.15
417.81	238.94
418.18	239.76
418.55	240.65
418.93	241.56
419.30	242.48
419.67	243.44
420.04	244.45
420.42	245.50
420.79	246.79
421.16	247.99
421.54	249.25
421.91	250.55
422.28	251.88
422.66	253.28
423.03	254.64
423.40	256.04
423.77	257.54
424.15	259.05
424.52	260.63
424.89	262.25
425.26	263.85
425.64	265.36
426.01	267.00
426.38	268.75
426.75	270.48
427.13	272.26
427.50	274.14
427.87	276.08
428.24	278.00
428.61	279.80
428.99	281.84
429.36	284.03
429.73	286.18
430.10	288.29
430.47	290.43
430.85	292.62
431.22	294.98
431.59	297.47
431.96	299.82
432.33	302.39
432.70	304.88
433.08	307.88
433.45	310.63
433.82	313.36
434.19	316.37
434.56	319.29
434.93	322.06
435.30	324.82
435.68	327.80
436.05	330.76
436.42	333.69
436.79	336.30
437.16	339.11
437.53	342.04
437.90	344.96
438.27	347.82
438.64	350.77
439.01	353.45
439.38	355.76
439.75	358.02
440.13	360.61
440.50	363.04
440.87	364.91
441.24	366.96
441.61	369.22
441.98	370.77
442.35	372.70
442.72	374.64
443.09	376.55
443.46	377.65
443.83	378.29
444.20	378.83
444.57	379.72
444.94	380.02
445.31	380.40
445.68	380.77
446.05	380.88
446.42	380.50
446.79	380.08
447.16	379.63
447.53	379.28
447.90	378.11
448.27	376.84
448.64	375.24
449.01	374.05
449.37	372.03
449.74	370.06
450.11	367.69
450.48	365.16
450.85	362.51
451.22	360.29
451.59	358.19
451.96	356.18
452.33	353.46
452.70	351.00
453.07	348.06
453.43	345.08
453.80	342.19
454.17	339.38
454.54	336.75
454.91	333.92
455.28	331.17
455.65	328.59
456.02	326.08
456.38	323.81
456.75	321.03
457.12	318.66
457.49	316.32
457.86	314.02
458.23	312.09
458.59	309.92
458.96	307.72
459.33	305.78
459.70	303.81
460.07	302.22
460.43	300.41
460.80	298.72
461.17	297.20
461.54	295.63
461.91	294.15
462.27	292.64
462.64	291.34
463.01	289.93
463.38	288.60
463.74	287.18
464.11	286.00
464.48	284.92
464.85	283.78
465.21	282.91
465.58	281.99
465.95	280.83
466.32	279.92
466.68	278.99
467.05	278.04
467.42	277.12
467.78	276.18
468.15	275.30
468.52	274.63
468.88	273.74
469.25	272.95
469.62	272.33
469.98	271.61
470.35	270.93
470.72	270.29
471.08	269.60
471.45	269.08
471.82	268.52
472.18	267.91
472.55	267.41
472.92	266.87
473.28	266.40
473.65	265.97
474.02	265.51
474.38	265.10
474.75	264.80
475.11	264.44
475.48	264.21
475.85	263.94
476.21	263.74
476.58	263.52
476.94	263.39
477.31	263.22
477.67	263.09
478.04	262.96
478.41	262.91
478.77	262.94
479.14	262.83
479.50	262.81
479.87	262.88
480.23	262.96
480.60	262.99
480.96	263.07
481.33	263.27
481.69	263.44
482.06	263.67
482.42	263.82
482.79	264.07
483.15	264.34
483.52	264.75
483.88	265.04
484.25	265.43
484.61	265.80
484.98	266.22
485.34	266.74
485.71	267.30
486.07	267.87
486.44	268.39
486.80	269.07
487.17	269.79
487.53	270.60
487.90	271.47
488.26	272.41
488.62	273.38
488.99	274.37
489.35	275.45
489.72	276.57
490.08	277.74
490.44	278.98
490.81	280.31
491.17	281.58
491.54	283.04
491.90	284.52
492.26	286.17
492.63	287.86
492.99	289.61
493.36	291.53
493.72	293.56
494.08	295.62
494.45	297.86
494.81	300.19
495.17	302.56
495.54	305.11
495.90	307.74
496.26	310.52
496.63	313.45
496.99	316.50
497.35	319.70
497.72	323.07
498.08	326.53
498.44	330.15
498.80	334.04
499.17	338.04
499.53	342.17
499.89	346.53
500.26	350.98
500.62	355.60
500.98	360.50
501.34	365.52
501.71	370.83
502.07	376.24
502.43	381.83
502.79	387.67
503.16	393.61
503.52	399.79
503.88	406.11
504.24	412.64
504.60	419.43
504.97	426.43
505.33	433.68
505.69	441.32
506.05	448.95
506.41	456.70
506.78	464.77
507.14	473.11
507.50	481.62
507.86	490.48
508.22	499.57
508.59	508.56
508.95	517.93
509.31	527.52
509.67	537.41
510.03	547.50
510.39	557.79
510.75	568.35
511.12	579.08
511.48	590.12
511.84	601.21
512.20	612.46
512.56	624.19
512.92	636.04
513.28	648.14
513.64	660.32
514.00	672.71
514.37	685.31
514.73	698.02
515.09	710.69
515.45	723.65
515.81	736.83
516.17	750.44
516.53	764.19
516.89	778.01
517.25	791.71
517.61	805.68
517.97	819.74
518.33	833.78
518.69	848.19
519.05	862.73
519.41	877.55
519.77	892.52
520.13	907.47
520.49	922.41
520.85	937.28
521.21	952.58
521.57	968.38
521.93	983.69
522.29	999.58
522.65	1015.42
523.01	1031.09
523.37	1046.62
523.73	1062.37
524.09	1077.98
524.45	1093.78
524.81	1109.93
525.17	1126.13
525.53	1142.51
525.89	1158.90
526.25	1175.16
526.61	1191.11
526.97	1207.32
527.33	1223.51
527.68	1239.73
528.04	1255.72
528.40	1271.73
528.76	1288.34
529.12	1304.48
529.48	1320.94
529.84	1336.48
530.20	1352.58
530.56	1369.05
530.91	1385.88
531.27	1402.17
531.63	1418.20
531.99	1434.38
532.35	1449.99
532.71	1465.67
533.07	1481.56
533.42	1497.12
533.78	1512.81
534.14	1528.63
534.50	1543.55
534.86	1558.96
535.21	1573.61
535.57	1589.14
535.93	1604.27
536.29	1618.63
536.65	1633.37
537.00	1647.62
537.36	1662.69
537.72	1676.80
538.08	1691.04
538.44	1704.62
538.79	1718.26
539.15	1731.66
539.51	1745.11
539.87	1759.08
540.22	1772.56
540.58	1786.01
540.94	1799.00
541.29	1811.70
541.65	1824.21
542.01	1837.30
542.37	1849.44
542.72	1861.77
543.08	1873.53
543.44	1885.86
543.79	1897.17
544.15	1908.00
544.51	1919.67
544.87	1930.54
545.22	1941.57
545.58	1951.70
545.94	1961.58
546.29	1971.43
546.65	1981.45
547.01	1990.87
547.36	1999.76
547.72	2008.23
548.07	2016.21
548.43	2024.51
548.79	2032.41
549.14	2040.22
549.50	2047.70
549.86	2055.38
550.21	2062.89
550.57	2070.27
550.92	2077.16
551.28	2084.30
551.64	2091.59
551.99	2098.29
552.35	2104.72
552.70	2111.08
553.06	2117.44
553.41	2124.05
553.77	2130.29
554.13	2136.49
554.48	2142.77
554.84	2148.68
555.19	2154.23
555.55	2159.76
555.90	2164.53
556.26	2170.08
556.61	2175.00
556.97	2179.82
557.32	2184.49
557.68	2189.06
558.03	2193.53
558.39	2197.56
558.74	2202.53
559.10	2206.77
559.45	2210.62
559.81	2215.15
560.16	2219.24
560.52	2222.95
560.87	2226.70
561.23	2229.80
561.58	2233.02
561.94	2236.00
562.29	2238.57
562.64	2241.77
563.00	2244.71
563.35	2248.72
563.71	2252.22
564.06	2255.80
564.42	2259.06
564.77	2262.05
565.12	2264.82
565.48	2267.21
565.83	2269.61
566.19	2271.47
566.54	2272.85
566.89	2274.73
567.25	2275.94
567.60	2277.75
567.96	2279.97
568.31	2281.28
568.66	2282.91
569.02	2284.02
569.37	2284.77
569.72	2286.19
570.08	2286.87
570.43	2287.25
570.78	2287.12
571.14	2285.92
571.49	2284.94
571.84	2284.96
572.20	2284.26
572.55	2283.55
572.90	2282.35
573.26	2281.31
573.61	2279.82
573.96	2278.61
574.31	2275.92
574.67	2273.37
575.02	2270.16
575.37	2266.92
575.72	2263.63
576.08	2260.64
576.43	2257.62
576.78	2254.44
577.13	2251.44
577.49	2248.45
577.84	2245.43
578.19	2242.14
578.54	2239.04
578.90	2235.41
579.25	2230.16
579.60	2225.53
579.95	2220.86
580.30	2216.31
580.66	2211.55
581.01	2206.99
581.36	2202.32
581.71	2198.58
582.06	2194.55
582.42	2190.51
582.77	2185.70
583.12	2181.42
583.47	2177.09
583.82	2172.64
584.17	2167.75
584.53	2162.70
584.88	2157.50
585.23	2152.24
585.58	2146.90
585.93	2141.55
586.28	2136.94
586.63	2132.26
586.98	2127.47
587.34	2123.01
587.69	2118.26
588.04	2113.34
588.39	2107.99
588.74	2101.68
589.09	2095.73
589.44	2089.21
589.79	2083.21
590.14	2077.81
590.49	2071.53
590.84	2065.13
591.19	2059.30
591.54	2052.96
591.89	2045.99
592.25	2039.54
592.60	2032.45
592.95	2025.26
593.30	2018.17
593.65	2010.70
594.00	2003.77
594.35	1996.80
594.70	1988.88
595.05	1982.12
595.40	1974.83
595.75	1967.46
596.10	1961.56
596.45	1955.09
596.80	1949.01
597.15	1942.68
597.50	1935.88
597.85	1929.40
598.19	1923.08
598.54	1916.22
598.89	1909.71
599.24	1903.75
599.59	1897.32
599.94	1891.18
600.29	1884.94
600.64	1878.45
600.99	1871.33
601.34	1864.72
601.69	1857.74
602.04	1851.06
602.39	1843.75
602.74	1837.23
603.08	1830.67
603.43	1824.04
603.78	1816.68
604.13	1809.42
604.48	1802.26
604.83	1795.32
605.18	1788.62
605.53	1780.71
605.87	1772.70
606.22	1765.60
606.57	1757.72
606.92	1750.12
607.27	1743.08
607.62	1736.14
607.96	1729.04
608.31	1722.57
608.66	1714.94
609.01	1707.42
609.36	1699.99
609.70	1692.04
610.05	1683.94
610.40	1676.34
610.75	1667.98
611.10	1660.32
611.44	1651.97
611.79	1643.82
612.14	1635.12
612.49	1625.82
612.83	1617.25
613.18	1609.05
613.53	1600.73
613.88	1592.19
614.22	1583.95
614.57	1575.03
614.92	1566.94
615.27	1559.37
615.61	1550.87
615.96	1542.68
616.31	1535.00
616.65	1527.50
617.00	1519.77
617.35	1511.97
617.70	1503.52
618.04	1494.98
618.39	1486.56
618.74	1478.87
619.08	1470.49
619.43	1462.98
619.78	1455.95
620.12	1448.88
620.47	1441.29
620.82	1433.08
621.16	1425.57
621.51	1417.83
621.85	1410.24
622.20	1401.60
622.55	1392.91
622.89	1384.95
623.24	1377.23
623.59	1369.64
623.93	1362.01
624.28	1354.61
624.62	1346.99
624.97	1339.68
625.32	1332.61
625.66	1325.61
626.01	1318.46
626.35	1311.12
626.70	1303.13
627.04	1295.44
627.39	1287.49
627.73	1279.96
628.08	1273.05
628.43	1265.66
628.77	1258.35
629.12	1250.73
629.46	1243.49
629.81	1236.02
630.15	1228.73
630.50	1221.29
630.84	1213.08
631.19	1205.07
631.53	1197.52
631.88	1189.81
632.22	1182.06
632.57	1174.74
632.91	1167.12
633.26	1159.59
633.60	1152.00
633.95	1144.85
634.29	1137.52
634.64	1130.70
634.98	1123.30
635.32	1115.94
635.67	1109.14
636.01	1102.34
636.36	1095.60
636.70	1088.92
637.05	1082.30
637.39	1075.67
637.73	1069.19
638.08	1063.15
638.42	1057.04
638.77	1050.56
639.11	1043.94
639.45	1037.53
639.80	1030.90
640.14	1024.40
640.49	1017.87
640.83	1011.53
641.17	1005.25
641.52	998.96
641.86	992.44
642.20	986.52
642.55	980.15
642.89	973.79
643.23	967.16
643.58	961.22
643.92	955.10
644.26	949.08
644.61	942.99
644.95	936.81
645.29	930.34
645.64	923.56
645.98	917.19
646.32	911.25
646.66	905.13
647.01	899.23
647.35	893.51
647.69	887.48
648.04	881.85
648.38	876.03
648.72	870.12
649.06	864.12
649.41	858.18
649.75	852.21
650.09	846.18
650.43	840.38
650.78	834.25
651.12	828.23
651.46	822.36
651.80	816.71
652.14	811.34
652.49	805.98
652.83	800.84
653.17	795.20
653.51	789.59
653.85	784.19
654.20	778.65
654.54	772.61
654.88	766.87
655.22	760.91
655.56	755.16
655.90	749.57
656.25	744.30
656.59	738.85
656.93	733.82
657.27	728.65
657.61	723.09
657.95	718.02
658.29	712.87
658.64	707.56
658.98	702.13
659.32	696.59
659.66	691.31
660.00	686.03
660.34	681.02
660.68	676.04
661.02	670.97
661.36	666.15
661.70	661.64
662.05	657.21
662.39	652.95
662.73	648.48
663.07	644.04
663.41	639.58
663.75	635.19
664.09	630.54
664.43	626.20
664.77	622.17
665.11	617.90
665.45	613.75
665.79	609.75
666.13	605.71
666.47	601.63
666.81	597.46
667.15	593.24
667.49	589.28
667.83	585.39
668.17	581.42
668.51	577.37
668.85	573.33
669.19	569.53
669.53	565.69
669.87	561.87
670.21	558.19
670.55	554.53
670.89	551.05
671.23	547.63
671.57	544.06
671.91	540.58
672.25	537.02
672.58	533.49
672.92	530.04
673.26	526.81
673.60	523.61
673.94	520.49
674.28	517.54
674.62	514.59
674.96	511.47
675.30	508.61
675.64	505.60
675.97	502.77
676.31	499.90
676.65	496.90
676.99	494.11
677.33	491.23
677.67	488.41
678.01	485.39
678.34	482.41
678.68	479.48
679.02	476.59
679.36	473.74
679.70	471.04
680.04	468.28
680.37	465.41
680.71	462.59
681.05	459.92
681.39	457.14
681.73	454.43
682.06	451.88
682.40	449.29
682.74	446.75
683.08	444.21
683.42	441.55
683.75	439.04
684.09	436.41
684.43	433.89
684.77	431.38
685.10	428.95
685.44	426.56
685.78	424.26
686.12	421.96
686.45	419.65
686.79	417.29
687.13	415.05
687.46	412.79
687.80	410.61
688.14	408.36
688.48	406.34
688.81	404.08
689.15	401.89
689.49	399.69
689.82	397.64
690.16	395.47
690.50	393.52
690.83	391.59
691.17	389.57
691.51	387.67
691.84	385.81
692.18	383.93
692.52	381.96
692.85	379.98
693.19	378.05
693.52	376.19
693.86	374.32
694.20	372.51
694.53	370.74
694.87	368.86
695.21	367.03
695.54	365.12
695.88	363.34
696.21	361.61
696.55	359.95
696.88	358.20
697.22	356.55
697.56	354.86
697.89	353.19
698.23	351.62
698.56	350.00
698.90	348.36
699.23	346.66
699.57	345.07
699.90	343.55
700.24	342.01
700.58	340.53
700.91	339.02
701.25	337.56
701.58	336.16
701.92	334.80
702.25	333.46
702.59	332.13
702.92	330.77
703.26	329.43
703.59	328.10
703.93	326.88
704.26	325.62
704.60	324.33
704.93	323.05
705.26	321.75
705.60	320.55
705.93	319.38
706.27	318.30
706.60	317.21
706.94	316.08
707.27	314.92
707.61	313.80
707.94	312.75
708.27	311.66
708.61	310.53
708.94	309.51
709.28	308.48
709.61	307.49
709.94	306.57
710.28	305.52
710.61	304.50
710.95	303.42
711.28	302.45
711.61	301.49
711.95	300.56
712.28	299.63
712.61	298.62
712.95	297.68
713.28	296.81
713.61	295.91
713.95	295.02
714.28	294.19
714.61	293.31
714.95	292.46
715.28	291.56
715.61	290.69
715.95	289.83
716.28	288.93
716.61	288.11
716.95	287.25
717.28	286.49
717.61	285.73
717.94	284.99
718.28	284.19
718.61	283.45
718.94	282.72
719.27	282.07
719.61	281.42
719.94	280.75
720.27	280.02
720.60	279.37
720.94	278.72
721.27	278.12
721.60	277.53
721.93	276.93
722.27	276.39
722.60	275.82
722.93	275.22
723.26	274.65
723.59	274.09
723.93	273.55
724.26	272.99
724.59	272.39
724.92	271.82
725.25	271.32
725.59	270.81
725.92	270.27
726.25	269.69
726.58	269.19
726.91	268.66
727.24	268.14
727.57	267.62
727.91	267.09
728.24	266.59
728.57	266.09
728.90	265.63
729.23	265.11
729.56	264.68
729.89	264.20
730.22	263.72
730.55	263.23
730.89	262.77
731.22	262.31
731.55	261.89
731.88	261.44
732.21	260.97
732.54	260.51
732.87	260.07
733.20	259.68
733.53	259.26
733.86	258.88
734.19	258.50
734.52	258.15
734.85	257.84
735.18	257.41
735.51	257.03
735.84	256.63
736.17	256.28
736.50	255.87
736.83	255.66
737.16	255.34
737.49	254.96
737.82	254.60
738.15	254.25
738.48	253.90
738.81	253.60
739.14	253.29
739.47	252.95
739.80	252.67
740.13	252.35
740.46	252.01
740.79	251.67
741.12	251.36
741.45	251.01
741.78	250.64
742.11	250.34
742.44	250.00
742.77	249.71
743.10	249.39
743.43	249.09
743.75	248.66
744.08	248.48
744.41	248.23
744.74	247.96
745.07	247.68
745.40	247.44
745.73	247.18
746.06	246.91
746.39	246.66
746.71	246.36
747.04	246.07
747.37	245.82
747.70	245.55
748.03	245.29
748.36	245.10
748.68	244.87
749.01	244.61
749.34	244.34
749.67	244.11
750.00	243.90
750.33	243.70
750.65	243.54
750.98	243.21
751.31	243.01
751.64	242.80
751.97	242.62
752.29	242.38
752.62	242.13
752.95	241.91
753.28	241.69
753.60	241.47
753.93	241.30
754.26	241.11
754.59	240.90
754.91	240.68
755.24	240.46
755.57	240.26
755.90	240.11
756.22	239.94
756.55	239.70
756.88	239.51
757.20	239.28
757.53	239.07
757.86	238.91
758.19	238.72
758.51	238.55
758.84	238.33
759.17	238.18
759.49	238.05
759.82	237.91
760.15	237.74
760.47	237.60
760.80	237.44
761.13	237.30
761.45	237.17
761.78	237.03
762.11	236.88
762.43	236.78
762.76	236.58
763.08	236.44
763.41	236.37
763.74	236.27
764.06	236.15
764.39	235.99
764.71	235.83
765.04	235.68
765.37	235.51
765.69	235.39
766.02	235.26
766.34	235.09
766.67	234.94
767.00	234.83
767.32	234.76
767.65	234.70
767.97	234.54
768.30	234.42
768.62	234.33
768.95	234.18
769.27	234.02
769.60	233.92
769.92	233.81
770.25	233.62
770.57	233.47
770.90	233.39
771.22	233.29
771.55	233.17
771.87	233.10
772.20	233.02
772.52	233.03
772.85	233.04
773.17	232.94
773.50	232.82
773.82	232.72
774.15	232.56
774.47	232.39
774.80	232.30
775.12	232.21
775.45	232.09
775.77	232.03
776.09	231.96
776.42	231.90
776.74	231.88
777.07	231.81
777.39	231.73
777.72	231.61
778.04	231.54
778.36	231.47
778.69	231.36
779.01	231.31
779.33	231.13
779.66	230.94
779.98	230.87
780.31	230.81
780.63	230.79
780.95	230.75
781.28	230.69
781.60	230.63
781.92	230.56
782.25	230.52
782.57	230.47
782.89	230.41
783.22	230.35
783.54	230.22
783.86	230.20
784.19	230.17
784.51	230.17
784.83	230.09
785.16	230.05
785.48	230.01
785.80	229.92
786.12	229.92
786.45	229.86
786.77	229.84
787.09	229.81
787.42	229.73
787.74	229.70
788.06	229.66
788.38	229.63
788.71	229.58
789.03	229.53
789.35	229.49
789.67	229.42
789.99	229.38
790.32	229.34
790.64	229.28
790.96	229.28
791.28	229.19
791.61	229.16
791.93	229.12
792.25	229.08
792.57	229.14
792.89	229.05
793.21	229.01
793.54	228.95
793.86	228.89
794.18	228.87
794.50	228.81
794.82	228.76
795.14	228.75
795.47	228.76
795.79	228.72
796.11	228.68
796.43	228.63
796.75	228.61
797.07	228.59
797.39	228.55
797.71	228.47
798.04	228.47
798.36	228.42
798.68	228.37
799.00	228.34
799.32	228.24
799.64	228.22
799.96	228.18
800.28	228.19
800.60	228.17
800.92	228.14
801.24	228.11
801.56	228.09
801.89	228.01
802.21	227.95
802.53	227.92
802.85	227.88
803.17	227.93
803.49	227.88
803.81	227.85
804.13	227.82
804.45	227.77
804.77	227.72
805.09	227.70
805.41	227.67
805.73	227.60
806.05	227.54
806.37	227.51
806.69	227.50
807.01	227.43
807.33	227.40
807.65	227.36
807.97	227.38
808.28	227.35
808.60	227.30
808.92	227.25
809.24	227.28
809.56	227.25
809.88	227.16
810.20	227.13
810.52	227.12
810.84	227.07
811.16	227.03
811.48	226.98
811.80	227.00
812.12	226.99
812.43	226.97
812.75	226.98
813.07	226.94
813.39	226.92
813.71	226.90
814.03	226.87
814.35	226.82
814.67	226.74
814.98	226.70
815.30	226.70
815.62	226.67
815.94	226.57
816.26	226.61
816.58	226.59
816.89	226.59
817.21	226.55
817.53	226.55
817.85	226.54
818.17	226.53
818.48	226.48
818.80	226.47
819.12	226.44
819.44	226.40
819.76	226.39
820.07	226.36
820.39	226.34
820.71	226.35
821.03	226.35
821.34	226.34
821.66	226.37
821.98	226.40
822.30	226.41
822.61	226.47
822.93	226.39
823.25	226.38
823.57	226.37
823.88	226.38
824.20	226.35
824.52	226.38
824.83	226.36
825.15	226.37
825.47	226.36
825.79	226.34
826.10	226.31
826.42	226.30
826.74	226.30
827.05	226.28
827.37	226.26
827.69	226.27
828.00	226.27
828.32	226.22
828.64	226.20
828.95	226.24
829.27	226.22
829.58	226.23
829.90	226.25
830.22	226.21
830.53	226.19
830.85	226.17
831.17	226.11
831.48	226.09
831.80	226.07
832.11	226.07
832.43	226.09
832.75	226.08
833.06	226.13
833.38	226.12
833.69	226.14
834.01	226.11
834.32	226.07
834.64	226.07
834.96	226.04
835.27	226.04
835.59	225.97
835.90	225.92
836.22	225.87
836.53	225.82
836.85	225.80
837.16	225.89
837.48	225.89
837.79	225.94
838.11	225.95
838.42	225.93
838.74	225.91
839.05	225.87
839.37	225.90
839.68	225.84
840.00	225.82
840.31	225.82
840.63	225.79
840.94	225.77
841.26	225.73
841.57	225.74
841.88	225.72
842.20	225.71
842.51	225.70
842.83	225.72
843.14	225.83
843.46	225.82
843.77	225.75
844.08	225.76
844.40	225.72
844.71	225.70
845.03	225.69
845.34	225.69
845.65	225.68
845.97	225.66
846.28	225.62
846.60	225.62
846.91	225.60
847.22	225.60
847.54	225.62
847.85	225.62
848.16	225.60
848.48	225.58
848.79	225.61
849.10	225.62
849.42	225.58
849.73	225.46
850.04	225.46
850.36	225.42
850.67	225.43
850.98	225.43
851.30	225.42
851.61	225.41
851.92	225.37
852.23	225.42
852.55	225.39
852.86	225.42
853.17	225.40
853.49	225.37
853.80	225.40
854.11	225.43
854.42	225.44
854.74	225.45
855.05	225.42
855.36	225.38
855.67	225.38
855.99	225.39
856.30	225.49
856.61	225.48
856.92	225.48
857.23	225.46
857.55	225.43
857.86	225.42
858.17	225.44
858.48	225.45
858.79	225.41
859.11	225.42
859.42	225.41
859.73	225.44
860.04	225.44
860.35	225.39
860.66	225.33
860.98	225.31
861.29	225.34
861.60	225.33
861.91	225.33
862.22	225.31
862.53	225.30
862.84	225.20
863.16	225.22
863.47	225.19
863.78	225.16
864.09	225.18
864.40	225.20
864.71	225.17
865.02	225.16
865.33	225.14
865.64	225.12
865.95	225.12
866.27	225.17
866.58	225.19
866.89	225.22
867.20	225.21
867.51	225.23
867.82	225.17
868.13	225.20
868.44	225.19
868.75	225.22
869.06	225.22
869.37	225.20
869.68	225.17
869.99	225.22
870.30	225.22
870.61	225.24
870.92	225.20
871.23	225.19
871.54	225.21
871.85	225.26
872.16	225.26
872.47	225.25
872.78	225.18
873.09	225.18
873.40	225.15
873.71	225.16
874.02	225.16
874.33	225.17
874.64	225.15
874.95	225.17
875.26	225.14
875.56	225.17
875.87	225.19
876.18	225.19
876.49	225.27
876.80	225.27
877.11	225.25
877.42	225.23
877.73	225.22
878.04	225.20
878.35	225.21
878.66	225.20
878.96	225.20
879.27	225.19
879.58	225.18
879.89	225.18
880.20	225.21
880.51	225.20
880.82	225.22
881.12	225.21
881.43	225.19
881.74	225.19
882.05	225.15
882.36	225.15
882.67	225.16
882.97	225.04
883.28	225.04
883.59	225.04
883.90	225.09
884.21	225.13
884.51	225.13
884.82	225.06
885.13	225.08
885.44	225.07
885.74	225.06
886.05	225.07
886.36	225.05
886.67	225.04
886.98	225.06
887.28	225.03
887.59	225.06
887.90	225.05
888.20	225.06
888.51	225.08
888.82	225.06
889.13	225.04
889.43	225.12
889.74	225.11
890.05	225.08
890.35	225.08
890.66	225.03
890.97	225.01
891.28	225.01
891.58	225.01
891.89	225.02
892.20	225.00
892.50	224.97
892.81	224.96
893.12	224.94
893.42	224.90
893.73	224.91
894.04	224.89
894.34	224.88
894.65	224.88
894.95	224.85
895.26	224.82
895.57	224.86
895.87	224.79
896.18	224.80
896.48	224.80
896.79	224.77
897.10	224.79
897.40	224.79
897.71	224.81
898.01	224.79
898.32	224.79
898.63	224.79
898.93	224.81
899.24	224.79
899.54	224.77
899.85	224.79
900.15	224.76
900.46	224.74
900.76	224.75
901.07	224.74
901.38	224.75
901.68	224.80
901.99	224.75
902.29	224.75
902.60	224.71
902.90	224.74
903.21	224.75
903.51	224.75
903.82	224.79
904.12	224.81
904.43	224.84
904.73	224.84
905.03	224.86
905.34	224.95
905.64	225.00
905.95	225.01
906.25	225.01
906.56	225.06
906.86	225.07
907.17	225.07
907.47	225.05
907.77	225.05
908.08	225.01
908.38	225.04
908.69	225.07
908.99	225.11
909.30	225.10
909.60	225.11
909.90	225.15
910.21	225.07
910.51	225.04
910.81	225.04
911.12	225.09
911.42	225.10
911.73	225.00
912.03	224.99
912.33	225.03
912.64	225.01
912.94	225.01
913.24	225.03
913.55	225.05
913.85	225.07
914.15	225.08
914.46	225.14
914.76	225.14
915.06	225.14
915.37	225.16
915.67	225.17
915.97	225.14
916.27	225.09
916.58	225.13
916.88	225.18
917.18	225.16
917.49	225.16
917.79	225.15
918.09	225.15
918.39	225.19
918.70	225.16
919.00	225.16
919.30	225.17
919.60	225.16
919.91	225.14
920.21	225.16
920.51	225.12
920.81	225.06
921.12	225.08
921.42	225.03
921.72	225.01
922.02	225.03
922.32	225.03
922.63	225.06
922.93	225.09
923.23	225.10
923.53	225.08
923.83	225.02
924.13	225.05
924.44	225.03
924.74	225.03
925.04	225.06
925.34	225.06
925.64	225.01
925.94	224.96
926.24	225.02
926.55	225.00
926.85	225.01
927.15	225.02
927.45	225.01
927.75	225.04
928.05	225.04
928.35	225.02
928.65	225.04
928.95	225.03
929.26	224.97
929.56	224.93
929.86	224.95
930.16	224.92
930.46	224.88
930.76	224.89
931.06	224.82
931.36	224.78
931.66	224.79
931.96	224.80
932.26	224.81
932.56	224.75
932.86	224.77
933.16	224.78
933.46	224.78
933.76	224.75
934.06	224.76
934.36	224.81
934.66	224.81
934.96	224.79
935.26	224.79
935.56	224.83
935.86	224.84
936.16	224.81
936.46	224.82
936.76	224.81
937.06	224.81
937.36	224.80
937.66	224.81
937.96	224.81
938.26	224.78
938.56	224.77
938.86	224.76
939.16	224.76
939.46	224.79
939.76	224.78
940.06	224.78
940.35	224.78
940.65	224.71
940.95	224.70
941.25	224.72
941.55	224.69
941.85	224.68
942.15	224.70
942.45	224.74
942.75	224.73
943.04	224.72
943.34	224.76
943.64	224.73
943.94	224.73
944.24	224.74
944.54	224.75
944.84	224.74
945.13	224.76
945.43	224.71
945.73	224.70
946.03	224.68
946.33	224.66
946.62	224.61
946.92	224.58
947.22	224.58
947.52	224.55
947.82	224.58
948.11	224.57
948.41	224.56
948.71	224.50
949.01	224.57
949.31	224.58
949.60	224.55
949.90	224.61
950.20	224.61
950.50	224.64
950.79	224.64
951.09	224.66
951.39	224.61
951.69	224.64
951.98	224.67
952.28	224.71
952.58	224.75
952.87	224.78
953.17	224.83
953.47	224.83
953.76	224.83
954.06	224.82
954.36	224.79
954.66	224.79
954.95	224.87
955.25	224.84
955.55	224.85
955.84	224.84
956.14	224.83
956.44	224.83
956.73	224.81
957.03	224.82
957.32	224.85
957.62	224.87
957.92	224.88
958.21	224.84
958.51	224.92
958.81	224.93
959.10	224.94
959.40	224.93
959.69	224.93
959.99	224.95
960.29	224.97
960.58	225.00
960.88	225.01
961.17	224.94
961.47	224.95
961.76	224.93
962.06	224.98
962.36	224.98
962.65	224.97
962.95	224.99
963.24	224.96
963.54	224.95
963.83	224.95
964.13	224.96
964.42	224.94
964.72	224.86
965.01	224.84
965.31	224.82
965.60	224.78
965.90	224.84
966.19	224.83
966.49	224.80
966.78	224.79
967.08	224.78
967.37	224.80
967.67	224.79
967.96	224.84
968.26	224.81
968.55	224.82
968.85	224.81
969.14	224.79
969.43	224.82
969.73	224.84
970.02	224.84
970.32	224.83
970.61	224.84
970.91	224.82
971.20	224.83
971.49	224.85
971.79	224.87
972.08	224.81
972.38	224.81
972.67	224.80
972.96	224.81
973.26	224.80
973.55	224.82
973.85	224.81
974.14	224.78
974.43	224.79
974.73	224.80
975.02	224.79
975.31	224.79
975.61	224.77
975.90	224.72
976.19	224.71
976.49	224.72
976.78	224.72
977.07	224.71
977.37	224.66
977.66	224.64
977.95	224.63
978.24	224.63
978.54	224.61
978.83	224.60
979.12	224.59
979.42	224.57
979.71	224.54
980.00	224.53
980.29	224.53
980.59	224.48
980.88	224.46
981.17	224.48
981.46	224.47
981.76	224.47
982.05	224.47
982.34	224.45
982.63	224.44
982.93	224.41
983.22	224.44
983.51	224.50
983.80	224.55
984.09	224.55
984.39	224.52
984.68	224.52
984.97	224.53
985.26	224.52
985.55	224.53
985.85	224.55
986.14	224.55
986.43	224.54
986.72	224.55
987.01	224.53
987.30	224.51
987.59	224.51
987.89	224.54
988.18	224.56
988.47	224.56
988.76	224.58
989.05	224.56
989.34	224.57
989.63	224.57
989.92	224.56
990.22	224.57
990.51	224.58
990.80	224.60
991.09	224.61
991.38	224.62
991.67	224.61
991.96	224.58
992.25	224.58
992.54	224.60
992.83	224.63
993.12	224.66
993.41	224.71
993.70	224.75
993.99	224.72
994.28	224.72
994.58	224.74
994.87	224.72
995.16	224.78
995.45	224.77
995.74	224.73
996.03	224.69
996.32	224.70
996.61	224.75
996.90	224.75
997.19	224.74
997.48	224.76
997.77	224.79
998.06	224.81
998.34	224.83
998.63	224.80
998.92	224.78
999.21	224.79
999.50	224.79
999.79	224.77
1000.08	224.78
1000.37	224.81
1000.66	224.80
1000.95	224.84
1001.24	224.83
1001.53	224.83
1001.82	224.86
1002.11	224.87
1002.40	224.84
1002.68	224.85
1002.97	224.91
1003.26	224.90
1003.55	224.90
1003.84	224.88
1004.13	224.91
1004.42	224.92
1004.71	224.95
1004.99	224.96
1005.28	224.99
1005.57	225.00
1005.86	224.98
1006.15	224.98
1006.44	224.96
1006.72	224.98
1007.01	224.95
1007.30	224.97
1007.59	225.01
1007.88	225.00
1008.17	225.03
1008.45	225.02
1008.74	225.01
1009.03	224.98
1009.32	225.00
1009.60	224.98
1009.89	224.96
1010.18	224.91
1010.47	224.92
1010.76	224.92
1011.04	224.90
1011.33	224.87
1011.62	224.85
1011.91	224.87
1012.19	224.88
1012.48	224.88
1012.77	224.90
1013.05	224.94
1013.34	224.91
1013.63	224.89
1013.92	224.88
1014.20	224.85
1014.49	224.86
1014.78	224.84
1015.06	224.82
1015.35	224.82
1015.64	224.86
1015.92	224.85
1016.21	224.89
1016.50	224.85
1016.78	224.84
1017.07	224.85
1017.36	224.81
1017.64	224.81
1017.93	224.82
1018.22	224.80
1018.50	224.78
1018.79	224.76
1019.08	224.71
1019.36	224.74
1019.65	224.70
1019.93	224.72
1020.22	224.74
1020.51	224.82
1020.79	224.82
1021.08	224.70
1021.36	224.65
1021.65	224.59
1021.94	224.72
1022.22	224.95
1022.51	224.15
1022.79	225.20
1023.08	224.79
1023.36	226.59
1023.65	224.70
>>>>>End Processed Spectral Data<<<<<
