SpectraSuite Data File
++++++++++++++++++++++++++++++++++++
Date: Fri Feb 01 14:55:42 EST 2013
User: group
Dark Spectrum Present: No
Reference Spectrum Present: No
Number of Sampled Component Spectra: 1
Spectrometers: USB2E7196
Integration Time (usec): 35000 (USB2E7196)
Spectra Averaged: 100 (USB2E7196)
Boxcar Smoothing: 10 (USB2E7196)
Correct for Electrical Dark: No (USB2E7196)
Strobe/Lamp Enabled: No (USB2E7196)
Correct for Detector Non-linearity: No (USB2E7196)
Correct for Stray Light: No (USB2E7196)
Number of Pixels in Processed Spectrum: 2048
>>>>>Begin Processed Spectral Data<<<<<
339.09	0.00
339.48	215.32
339.86	217.10
340.24	217.39
340.63	219.00
341.01	222.60
341.39	222.27
341.78	223.57
342.16	224.40
342.54	225.12
342.93	213.53
343.31	224.31
343.69	224.83
344.07	225.28
344.46	225.73
344.84	226.15
345.22	226.37
345.60	226.61
345.99	226.81
346.37	226.96
346.75	227.07
347.13	227.11
347.52	227.18
347.90	227.25
348.28	227.31
348.66	227.38
349.05	227.38
349.43	227.38
349.81	227.44
350.19	227.45
350.57	227.53
350.96	227.61
351.34	227.70
351.72	227.78
352.10	227.87
352.48	227.97
352.87	228.01
353.25	228.10
353.63	228.16
354.01	228.17
354.39	228.24
354.77	228.31
355.15	228.38
355.54	228.43
355.92	228.46
356.30	228.52
356.68	228.65
357.06	228.72
357.44	228.83
357.82	228.86
358.20	228.91
358.58	228.92
358.97	228.98
359.35	229.02
359.73	229.14
360.11	229.17
360.49	229.18
360.87	229.22
361.25	229.23
361.63	229.31
362.01	229.36
362.39	229.41
362.77	229.46
363.15	229.46
363.53	229.52
363.91	229.58
364.29	229.60
364.67	229.52
365.05	229.54
365.43	229.60
365.81	229.62
366.19	229.67
366.57	229.72
366.95	229.71
367.33	229.70
367.71	229.68
368.09	229.68
368.47	229.66
368.85	229.64
369.23	229.66
369.61	229.60
369.99	229.62
370.37	229.58
370.75	229.57
371.13	229.54
371.51	229.46
371.89	229.41
372.27	229.40
372.65	229.35
373.03	229.28
373.41	229.19
373.78	229.14
374.16	229.03
374.54	228.91
374.92	228.85
375.30	228.79
375.68	228.68
376.06	228.61
376.44	228.56
376.82	228.51
377.19	228.41
377.57	228.32
377.95	228.20
378.33	228.13
378.71	228.01
379.09	227.95
379.47	227.89
379.84	227.80
380.22	227.69
380.60	227.61
380.98	227.52
381.36	227.45
381.73	227.39
382.11	227.35
382.49	227.29
382.87	227.21
383.25	227.14
383.62	227.20
384.00	227.12
384.38	227.03
384.76	226.98
385.13	226.94
385.51	226.88
385.89	226.83
386.27	226.78
386.64	226.74
387.02	226.68
387.40	226.60
387.78	226.54
388.15	226.49
388.53	226.44
388.91	226.40
389.29	226.33
389.66	226.31
390.04	226.26
390.42	226.28
390.79	226.28
391.17	226.28
391.55	226.15
391.92	226.17
392.30	226.20
392.68	226.21
393.05	226.23
393.43	226.25
393.81	226.24
394.18	226.24
394.56	226.21
394.94	226.24
395.31	226.27
395.69	226.33
396.06	226.39
396.44	226.42
396.82	226.48
397.19	226.62
397.57	226.67
397.95	226.73
398.32	226.75
398.70	226.77
399.07	226.85
399.45	226.93
399.82	226.98
400.20	227.05
400.58	227.14
400.95	227.18
401.33	227.30
401.70	227.47
402.08	227.56
402.45	227.74
402.83	227.87
403.20	228.01
403.58	228.13
403.95	228.27
404.33	228.45
404.71	228.58
405.08	228.74
405.46	228.88
405.83	229.07
406.21	229.26
406.58	229.44
406.96	229.60
407.33	229.78
407.70	230.01
408.08	230.30
408.45	230.51
408.83	230.77
409.20	230.99
409.58	231.21
409.95	231.48
410.33	231.74
410.70	232.01
411.08	232.33
411.45	232.70
411.82	233.00
412.20	233.33
412.57	233.78
412.95	234.10
413.32	234.50
413.69	234.90
414.07	235.32
414.44	235.81
414.82	236.29
415.19	236.82
415.56	237.38
415.94	237.86
416.31	238.51
416.68	239.10
417.06	239.82
417.43	240.50
417.81	241.31
418.18	242.08
418.55	242.92
418.93	243.77
419.30	244.62
419.67	245.55
420.04	246.50
420.42	247.45
420.79	248.63
421.16	249.76
421.54	250.93
421.91	252.15
422.28	253.42
422.66	254.79
423.03	256.11
423.40	257.44
423.77	258.87
424.15	260.28
424.52	261.77
424.89	263.38
425.26	264.94
425.64	266.36
426.01	267.97
426.38	269.65
426.75	271.33
427.13	273.02
427.50	274.83
427.87	276.75
428.24	278.61
428.61	280.32
428.99	282.28
429.36	284.40
429.73	286.45
430.10	288.44
430.47	290.47
430.85	292.56
431.22	294.81
431.59	297.18
431.96	299.42
432.33	301.96
432.70	304.32
433.08	307.09
433.45	309.72
433.82	312.31
434.19	315.20
434.56	317.98
434.93	320.71
435.30	323.32
435.68	326.20
436.05	329.07
436.42	331.90
436.79	334.40
437.16	337.09
437.53	339.98
437.90	342.77
438.27	345.55
438.64	348.41
439.01	351.00
439.38	353.24
439.75	355.42
440.13	357.91
440.50	360.25
440.87	362.14
441.24	364.15
441.61	366.29
441.98	367.74
442.35	369.54
442.72	371.36
443.09	373.19
443.46	374.18
443.83	374.76
444.20	375.25
444.57	376.12
444.94	376.44
445.31	376.76
445.68	377.13
446.05	377.17
446.42	376.73
446.79	376.31
447.16	375.87
447.53	375.57
447.90	374.37
448.27	373.18
448.64	371.59
449.01	370.42
449.37	368.44
449.74	366.54
450.11	364.30
450.48	361.79
450.85	359.24
451.22	357.06
451.59	355.00
451.96	353.10
452.33	350.51
452.70	348.12
453.07	345.26
453.43	342.36
453.80	339.61
454.17	336.96
454.54	334.39
454.91	331.68
455.28	328.98
455.65	326.51
456.02	324.07
456.38	321.90
456.75	319.21
457.12	316.98
457.49	314.77
457.86	312.62
458.23	310.82
458.59	308.79
458.96	306.74
459.33	304.89
459.70	303.01
460.07	301.49
460.43	299.75
460.80	298.13
461.17	296.69
461.54	295.21
461.91	293.81
462.27	292.36
462.64	291.12
463.01	289.75
463.38	288.46
463.74	287.10
464.11	285.95
464.48	284.94
464.85	283.82
465.21	282.94
465.58	281.99
465.95	280.87
466.32	279.94
466.68	279.00
467.05	278.08
467.42	277.15
467.78	276.20
468.15	275.35
468.52	274.69
468.88	273.79
469.25	272.99
469.62	272.33
469.98	271.68
470.35	271.01
470.72	270.42
471.08	269.74
471.45	269.20
471.82	268.62
472.18	268.01
472.55	267.54
472.92	267.01
473.28	266.54
473.65	266.05
474.02	265.60
474.38	265.24
474.75	264.90
475.11	264.55
475.48	264.29
475.85	263.98
476.21	263.74
476.58	263.55
476.94	263.40
477.31	263.21
477.67	263.02
478.04	262.90
478.41	262.83
478.77	262.85
479.14	262.76
479.50	262.76
479.87	262.80
480.23	262.90
480.60	262.97
480.96	263.04
481.33	263.25
481.69	263.42
482.06	263.61
482.42	263.86
482.79	264.12
483.15	264.42
483.52	264.78
483.88	265.12
484.25	265.49
484.61	265.88
484.98	266.35
485.34	266.92
485.71	267.49
486.07	268.03
486.44	268.61
486.80	269.27
487.17	270.03
487.53	270.84
487.90	271.67
488.26	272.60
488.62	273.57
488.99	274.57
489.35	275.57
489.72	276.71
490.08	277.90
490.44	279.11
490.81	280.44
491.17	281.81
491.54	283.28
491.90	284.81
492.26	286.49
492.63	288.22
492.99	289.98
493.36	291.83
493.72	293.86
494.08	295.98
494.45	298.21
494.81	300.52
495.17	302.97
495.54	305.57
495.90	308.23
496.26	311.06
496.63	314.00
496.99	317.13
497.35	320.33
497.72	323.68
498.08	327.18
498.44	330.84
498.80	334.72
499.17	338.70
499.53	342.86
499.89	347.16
500.26	351.63
500.62	356.32
500.98	361.24
501.34	366.35
501.71	371.64
502.07	377.06
502.43	382.66
502.79	388.41
503.16	394.41
503.52	400.67
503.88	407.04
504.24	413.69
504.60	420.52
504.97	427.60
505.33	434.87
505.69	442.52
506.05	450.24
506.41	458.09
506.78	466.25
507.14	474.60
507.50	483.36
507.86	492.32
508.22	501.49
508.59	510.73
508.95	520.28
509.31	530.03
509.67	540.08
510.03	550.37
510.39	560.91
510.75	571.66
511.12	582.49
511.48	593.74
511.84	605.13
512.20	616.63
512.56	628.64
512.92	640.89
513.28	653.17
513.64	665.66
514.00	678.32
514.37	691.27
514.73	704.40
515.09	717.43
515.45	730.79
515.81	744.36
516.17	758.34
516.53	772.52
516.89	786.67
517.25	801.00
517.61	815.46
517.97	829.87
518.33	844.33
518.69	859.22
519.05	874.25
519.41	889.42
519.77	905.15
520.13	920.52
520.49	935.86
520.85	951.35
521.21	967.15
521.57	983.56
521.93	999.51
522.29	1015.97
522.65	1032.21
523.01	1048.51
523.37	1064.68
523.73	1080.94
524.09	1097.03
524.45	1113.48
524.81	1129.99
525.17	1146.91
525.53	1163.90
525.89	1180.85
526.25	1197.67
526.61	1214.13
526.97	1230.83
527.33	1247.21
527.68	1263.99
528.04	1280.51
528.40	1297.15
528.76	1314.29
529.12	1330.89
529.48	1347.63
529.84	1363.56
530.20	1380.21
530.56	1397.30
530.91	1414.67
531.27	1431.50
531.63	1448.11
531.99	1464.78
532.35	1480.94
532.71	1496.83
533.07	1513.18
533.42	1529.14
533.78	1545.38
534.14	1561.67
534.50	1577.16
534.86	1593.17
535.21	1608.31
535.57	1624.32
535.93	1639.98
536.29	1654.84
536.65	1670.00
537.00	1685.02
537.36	1700.53
537.72	1715.30
538.08	1729.65
538.44	1743.56
538.79	1757.38
539.15	1771.14
539.51	1785.08
539.87	1799.58
540.22	1813.36
540.58	1827.34
540.94	1840.77
541.29	1853.70
541.65	1866.57
542.01	1880.06
542.37	1892.46
542.72	1905.07
543.08	1917.08
543.44	1929.64
543.79	1940.82
544.15	1951.74
544.51	1963.26
544.87	1974.26
545.22	1985.05
545.58	1995.35
545.94	2005.21
546.29	2015.27
546.65	2025.09
547.01	2034.16
547.36	2042.87
547.72	2051.45
548.07	2059.19
548.43	2067.43
548.79	2075.51
549.14	2082.98
549.50	2090.22
549.86	2097.98
550.21	2105.32
550.57	2112.41
550.92	2118.86
551.28	2126.07
551.64	2133.20
551.99	2139.74
552.35	2145.81
552.70	2151.84
553.06	2157.80
553.41	2164.04
553.77	2169.91
554.13	2176.07
554.48	2182.23
554.84	2187.50
555.19	2192.91
555.55	2198.03
555.90	2202.49
556.26	2207.31
556.61	2212.07
556.97	2216.34
557.32	2220.43
557.68	2224.54
558.03	2228.84
558.39	2232.54
558.74	2237.10
559.10	2240.95
559.45	2244.69
559.81	2249.07
560.16	2252.95
560.52	2255.98
560.87	2259.32
561.23	2262.01
561.58	2264.58
561.94	2267.13
562.29	2269.57
562.64	2272.06
563.00	2274.60
563.35	2277.91
563.71	2280.80
564.06	2283.83
564.42	2286.55
564.77	2288.80
565.12	2290.74
565.48	2292.40
565.83	2294.01
566.19	2295.15
566.54	2296.10
566.89	2296.87
567.25	2297.12
567.60	2298.33
567.96	2299.87
568.31	2300.41
568.66	2301.18
569.02	2301.81
569.37	2301.87
569.72	2302.41
570.08	2302.24
570.43	2301.98
570.78	2301.17
571.14	2299.55
571.49	2298.02
571.84	2297.45
572.20	2296.08
572.55	2294.90
572.90	2293.06
573.26	2291.57
573.61	2289.60
573.96	2287.54
574.31	2284.43
574.67	2281.28
575.02	2277.38
575.37	2274.03
575.72	2270.17
576.08	2266.93
576.43	2263.39
576.78	2259.56
577.13	2256.28
577.49	2253.10
577.84	2249.57
578.19	2245.79
578.54	2241.83
578.90	2237.41
579.25	2231.69
579.60	2226.77
579.95	2221.60
580.30	2216.52
580.66	2211.21
581.01	2206.16
581.36	2200.90
581.71	2196.53
582.06	2192.01
582.42	2187.53
582.77	2181.92
583.12	2177.13
583.47	2172.12
583.82	2166.95
584.17	2161.50
584.53	2155.96
584.88	2150.31
585.23	2144.39
585.58	2138.85
585.93	2133.41
586.28	2128.65
586.63	2123.58
586.98	2118.29
587.34	2113.59
587.69	2108.54
588.04	2103.11
588.39	2097.26
588.74	2090.91
589.09	2084.66
589.44	2077.74
589.79	2071.51
590.14	2065.98
590.49	2059.46
590.84	2052.90
591.19	2046.79
591.54	2040.25
591.89	2032.63
592.25	2025.59
592.60	2018.20
592.95	2010.39
593.30	2002.87
593.65	1995.04
594.00	1987.86
594.35	1980.47
594.70	1972.33
595.05	1965.16
595.40	1957.85
595.75	1950.32
596.10	1943.75
596.45	1936.89
596.80	1930.55
597.15	1923.74
597.50	1916.40
597.85	1909.90
598.19	1903.16
598.54	1895.99
598.89	1889.27
599.24	1883.27
599.59	1876.45
599.94	1870.33
600.29	1863.97
600.64	1857.45
600.99	1849.92
601.34	1842.89
601.69	1835.94
602.04	1828.99
602.39	1821.61
602.74	1814.60
603.08	1807.85
603.43	1801.19
603.78	1793.89
604.13	1786.74
604.48	1779.40
604.83	1772.59
605.18	1765.54
605.53	1757.48
605.87	1749.53
606.22	1742.32
606.57	1734.55
606.92	1727.27
607.27	1720.01
607.62	1713.12
607.96	1705.79
608.31	1699.19
608.66	1691.62
609.01	1684.11
609.36	1676.54
609.70	1668.48
610.05	1660.56
610.40	1652.85
610.75	1644.55
611.10	1636.99
611.44	1628.77
611.79	1620.95
612.14	1612.34
612.49	1603.38
612.83	1595.11
613.18	1586.93
613.53	1578.84
613.88	1570.20
614.22	1562.04
614.57	1553.50
614.92	1545.38
615.27	1537.81
615.61	1529.55
615.96	1521.60
616.31	1513.97
616.65	1506.56
617.00	1499.08
617.35	1491.33
617.70	1482.98
618.04	1474.52
618.39	1466.29
618.74	1458.57
619.08	1450.23
619.43	1442.75
619.78	1435.71
620.12	1428.57
620.47	1421.15
620.82	1413.19
621.16	1405.92
621.51	1398.20
621.85	1390.65
622.20	1382.20
622.55	1373.94
622.89	1366.21
623.24	1358.69
623.59	1351.39
623.93	1344.00
624.28	1336.82
624.62	1329.50
624.97	1322.48
625.32	1315.80
625.66	1308.81
626.01	1301.67
626.35	1294.20
626.70	1286.45
627.04	1278.77
627.39	1271.17
627.73	1263.86
628.08	1256.92
628.43	1249.64
628.77	1242.43
629.12	1234.80
629.46	1227.65
629.81	1220.40
630.15	1213.22
630.50	1205.84
630.84	1197.70
631.19	1189.80
631.53	1182.31
631.88	1174.87
632.22	1167.23
632.57	1159.98
632.91	1152.60
633.26	1145.31
633.60	1138.13
633.95	1131.15
634.29	1124.26
634.64	1117.48
634.98	1110.17
635.32	1103.05
635.67	1096.49
636.01	1089.92
636.36	1083.23
636.70	1076.85
637.05	1070.22
637.39	1063.84
637.73	1057.44
638.08	1051.68
638.42	1045.77
638.77	1039.35
639.11	1032.72
639.45	1026.51
639.80	1019.89
640.14	1013.46
640.49	1006.97
640.83	1000.71
641.17	994.53
641.52	988.26
641.86	982.01
642.20	976.22
642.55	970.02
642.89	963.61
643.23	957.12
643.58	951.42
643.92	945.29
644.26	939.25
644.61	933.25
644.95	927.24
645.29	920.56
645.64	913.82
645.98	907.62
646.32	901.91
646.66	895.83
647.01	890.10
647.35	884.40
647.69	878.55
648.04	873.10
648.38	867.21
648.72	861.18
649.06	855.15
649.41	849.29
649.75	843.30
650.09	837.33
650.43	831.54
650.78	825.41
651.12	819.48
651.46	813.84
651.80	808.09
652.14	802.73
652.49	797.42
652.83	792.31
653.17	786.55
653.51	780.78
653.85	775.44
654.20	769.80
654.54	763.78
654.88	758.20
655.22	752.29
655.56	746.73
655.90	741.36
656.25	736.09
656.59	730.76
656.93	725.67
657.27	720.59
657.61	715.19
657.95	710.09
658.29	705.08
658.64	699.81
658.98	694.57
659.32	689.15
659.66	684.00
660.00	678.72
660.34	673.90
660.68	669.01
661.02	664.02
661.36	659.36
661.70	655.10
662.05	650.71
662.39	646.46
662.73	642.01
663.07	637.69
663.41	633.27
663.75	628.75
664.09	624.20
664.43	619.92
664.77	615.83
665.11	611.69
665.45	607.55
665.79	603.58
666.13	599.50
666.47	595.42
666.81	591.28
667.15	587.16
667.49	583.24
667.83	579.49
668.17	575.65
668.51	571.60
668.85	567.55
669.19	563.70
669.53	559.83
669.87	555.96
670.21	552.27
670.55	548.66
670.89	545.27
671.23	541.90
671.57	538.33
671.91	534.84
672.25	531.38
672.58	527.95
672.92	524.60
673.26	521.47
673.60	518.37
673.94	515.30
674.28	512.49
674.62	509.61
674.96	506.55
675.30	503.62
675.64	500.76
675.97	498.04
676.31	495.27
676.65	492.40
676.99	489.77
677.33	486.92
677.67	484.18
678.01	481.23
678.34	478.30
678.68	475.52
679.02	472.76
679.36	470.08
679.70	467.40
680.04	464.64
680.37	461.81
680.71	459.01
681.05	456.41
681.39	453.72
681.73	451.13
682.06	448.65
682.40	446.14
682.74	443.64
683.08	441.11
683.42	438.57
683.75	436.11
684.09	433.61
684.43	431.21
684.77	428.81
685.10	426.48
685.44	424.24
685.78	421.95
686.12	419.75
686.45	417.41
686.79	415.10
687.13	412.91
687.46	410.73
687.80	408.62
688.14	406.46
688.48	404.40
688.81	402.10
689.15	399.94
689.49	397.79
689.82	395.75
690.16	393.65
690.50	391.66
690.83	389.73
691.17	387.75
691.51	385.83
691.84	383.94
692.18	382.01
692.52	380.00
692.85	378.15
693.19	376.22
693.52	374.45
693.86	372.67
694.20	370.90
694.53	369.13
694.87	367.31
695.21	365.53
695.54	363.72
695.88	362.03
696.21	360.30
696.55	358.66
696.88	356.97
697.22	355.30
697.56	353.68
697.89	352.03
698.23	350.44
698.56	348.85
698.90	347.26
699.23	345.62
699.57	344.12
699.90	342.53
700.24	341.00
700.58	339.46
700.91	337.95
701.25	336.51
701.58	335.12
701.92	333.75
702.25	332.40
702.59	331.08
702.92	329.79
703.26	328.50
703.59	327.22
703.93	326.08
704.26	324.85
704.60	323.56
704.93	322.31
705.26	321.11
705.60	319.92
705.93	318.82
706.27	317.77
706.60	316.74
706.94	315.68
707.27	314.55
707.61	313.52
707.94	312.52
708.27	311.47
708.61	310.44
708.94	309.47
709.28	308.52
709.61	307.56
709.94	306.57
710.28	305.61
710.61	304.67
710.95	303.59
711.28	302.71
711.61	301.81
711.95	300.92
712.28	299.97
712.61	299.00
712.95	298.03
713.28	297.18
713.61	296.28
713.95	295.39
714.28	294.58
714.61	293.76
714.95	292.96
715.28	292.12
715.61	291.31
715.95	290.48
716.28	289.63
716.61	288.83
716.95	288.08
717.28	287.36
717.61	286.58
717.94	285.85
718.28	285.04
718.61	284.33
718.94	283.64
719.27	283.01
719.61	282.40
719.94	281.81
720.27	281.10
720.60	280.45
720.94	279.86
721.27	279.26
721.60	278.67
721.93	278.04
722.27	277.49
722.60	276.89
722.93	276.32
723.26	275.78
723.59	275.22
723.93	274.64
724.26	274.07
724.59	273.51
724.92	273.00
725.25	272.55
725.59	272.01
725.92	271.52
726.25	271.00
726.58	270.53
726.91	270.01
727.24	269.56
727.57	269.10
727.91	268.57
728.24	268.11
728.57	267.59
728.90	267.13
729.23	266.63
729.56	266.21
729.89	265.71
730.22	265.20
730.55	264.73
730.89	264.28
731.22	263.81
731.55	263.37
731.88	262.93
732.21	262.50
732.54	262.06
732.87	261.63
733.20	261.26
733.53	260.84
733.86	260.46
734.19	260.06
734.52	259.68
734.85	259.40
735.18	259.01
735.51	258.64
735.84	258.26
736.17	257.94
736.50	257.53
736.83	257.31
737.16	257.00
737.49	256.64
737.82	256.27
738.15	255.94
738.48	255.60
738.81	255.26
739.14	254.90
739.47	254.58
739.80	254.24
740.13	253.89
740.46	253.54
740.79	253.18
741.12	252.84
741.45	252.49
741.78	252.09
742.11	251.76
742.44	251.45
742.77	251.19
743.10	250.88
743.43	250.57
743.75	250.18
744.08	250.03
744.41	249.78
744.74	249.53
745.07	249.25
745.40	248.99
745.73	248.74
746.06	248.51
746.39	248.27
746.71	248.02
747.04	247.74
747.37	247.52
747.70	247.31
748.03	247.06
748.36	246.84
748.68	246.62
749.01	246.38
749.34	246.13
749.67	245.90
750.00	245.67
750.33	245.54
750.65	245.35
750.98	245.00
751.31	244.77
751.64	244.56
751.97	244.44
752.29	244.23
752.62	243.97
752.95	243.74
753.28	243.54
753.60	243.37
753.93	243.23
754.26	243.01
754.59	242.78
754.91	242.61
755.24	242.42
755.57	242.26
755.90	242.09
756.22	241.94
756.55	241.73
756.88	241.56
757.20	241.34
757.53	241.15
757.86	241.04
758.19	240.91
758.51	240.77
758.84	240.55
759.17	240.44
759.49	240.31
759.82	240.21
760.15	240.08
760.47	239.93
760.80	239.76
761.13	239.66
761.45	239.53
761.78	239.41
762.11	239.30
762.43	239.16
762.76	239.05
763.08	238.94
763.41	238.83
763.74	238.71
764.06	238.54
764.39	238.38
764.71	238.23
765.04	238.10
765.37	237.96
765.69	237.87
766.02	237.70
766.34	237.59
766.67	237.43
767.00	237.31
767.32	237.26
767.65	237.20
767.97	237.07
768.30	236.97
768.62	236.83
768.95	236.70
769.27	236.58
769.60	236.45
769.92	236.32
770.25	236.19
770.57	236.03
770.90	235.93
771.22	235.84
771.55	235.71
771.87	235.59
772.20	235.46
772.52	235.39
772.85	235.42
773.17	235.31
773.50	235.19
773.82	235.09
774.15	234.93
774.47	234.76
774.80	234.67
775.12	234.54
775.45	234.47
775.77	234.38
776.09	234.28
776.42	234.18
776.74	234.11
777.07	234.02
777.39	233.93
777.72	233.84
778.04	233.78
778.36	233.70
778.69	233.62
779.01	233.58
779.33	233.41
779.66	233.21
779.98	233.11
780.31	233.04
780.63	232.96
780.95	232.92
781.28	232.84
781.60	232.76
781.92	232.71
782.25	232.65
782.57	232.55
782.89	232.46
783.22	232.41
783.54	232.30
783.86	232.24
784.19	232.20
784.51	232.15
784.83	232.06
785.16	232.00
785.48	231.94
785.80	231.88
786.12	231.86
786.45	231.81
786.77	231.79
787.09	231.74
787.42	231.67
787.74	231.63
788.06	231.58
788.38	231.51
788.71	231.45
789.03	231.41
789.35	231.43
789.67	231.42
789.99	231.38
790.32	231.33
790.64	231.32
790.96	231.36
791.28	231.31
791.61	231.30
791.93	231.28
792.25	231.25
792.57	231.27
792.89	231.26
793.21	231.27
793.54	231.25
793.86	231.20
794.18	231.19
794.50	231.13
794.82	231.11
795.14	231.11
795.47	231.10
795.79	231.03
796.11	230.97
796.43	230.96
796.75	230.95
797.07	230.95
797.39	230.91
797.71	230.80
798.04	230.82
798.36	230.80
798.68	230.76
799.00	230.76
799.32	230.69
799.64	230.71
799.96	230.66
800.28	230.69
800.60	230.69
800.92	230.68
801.24	230.66
801.56	230.66
801.89	230.65
802.21	230.65
802.53	230.62
802.85	230.60
803.17	230.58
803.49	230.53
803.81	230.50
804.13	230.51
804.45	230.50
804.77	230.48
805.09	230.49
805.41	230.49
805.73	230.40
806.05	230.37
806.37	230.30
806.69	230.28
807.01	230.20
807.33	230.18
807.65	230.11
807.97	230.13
808.28	230.08
808.60	230.04
808.92	229.98
809.24	230.04
809.56	230.01
809.88	229.94
810.20	229.92
810.52	229.90
810.84	229.83
811.16	229.77
811.48	229.71
811.80	229.69
812.12	229.64
812.43	229.64
812.75	229.60
813.07	229.55
813.39	229.50
813.71	229.47
814.03	229.41
814.35	229.41
814.67	229.32
814.98	229.28
815.30	229.23
815.62	229.18
815.94	229.09
816.26	229.10
816.58	229.08
816.89	229.07
817.21	229.00
817.53	228.97
817.85	228.96
818.17	228.91
818.48	228.82
818.80	228.80
819.12	228.78
819.44	228.74
819.76	228.73
820.07	228.69
820.39	228.67
820.71	228.65
821.03	228.60
821.34	228.56
821.66	228.57
821.98	228.55
822.30	228.52
822.61	228.55
822.93	228.48
823.25	228.46
823.57	228.40
823.88	228.43
824.20	228.43
824.52	228.44
824.83	228.44
825.15	228.42
825.47	228.38
825.79	228.36
826.10	228.33
826.42	228.28
826.74	228.30
827.05	228.25
827.37	228.25
827.69	228.25
828.00	228.25
828.32	228.20
828.64	228.20
828.95	228.24
829.27	228.21
829.58	228.22
829.90	228.26
830.22	228.30
830.53	228.25
830.85	228.21
831.17	228.17
831.48	228.16
831.80	228.17
832.11	228.15
832.43	228.17
832.75	228.18
833.06	228.26
833.38	228.24
833.69	228.27
834.01	228.25
834.32	228.26
834.64	228.27
834.96	228.28
835.27	228.31
835.59	228.29
835.90	228.30
836.22	228.30
836.53	228.28
836.85	228.24
837.16	228.37
837.48	228.41
837.79	228.44
838.11	228.45
838.42	228.48
838.74	228.50
839.05	228.47
839.37	228.47
839.68	228.43
840.00	228.43
840.31	228.43
840.63	228.43
840.94	228.44
841.26	228.40
841.57	228.43
841.88	228.43
842.20	228.39
842.51	228.37
842.83	228.34
843.14	228.42
843.46	228.43
843.77	228.36
844.08	228.37
844.40	228.35
844.71	228.38
845.03	228.37
845.34	228.39
845.65	228.39
845.97	228.39
846.28	228.40
846.60	228.34
846.91	228.33
847.22	228.36
847.54	228.37
847.85	228.37
848.16	228.36
848.48	228.31
848.79	228.38
849.10	228.37
849.42	228.37
849.73	228.27
850.04	228.25
850.36	228.18
850.67	228.17
850.98	228.15
851.30	228.11
851.61	228.08
851.92	228.06
852.23	228.08
852.55	228.06
852.86	228.04
853.17	228.10
853.49	228.13
853.80	228.10
854.11	228.06
854.42	228.08
854.74	228.05
855.05	228.03
855.36	227.98
855.67	227.94
855.99	227.95
856.30	228.05
856.61	228.06
856.92	228.04
857.23	227.99
857.55	227.98
857.86	227.95
858.17	227.94
858.48	227.91
858.79	227.87
859.11	227.87
859.42	227.86
859.73	227.80
860.04	227.75
860.35	227.70
860.66	227.68
860.98	227.63
861.29	227.63
861.60	227.62
861.91	227.61
862.22	227.60
862.53	227.56
862.84	227.43
863.16	227.41
863.47	227.40
863.78	227.38
864.09	227.39
864.40	227.38
864.71	227.39
865.02	227.36
865.33	227.33
865.64	227.33
865.95	227.29
866.27	227.36
866.58	227.35
866.89	227.41
867.20	227.38
867.51	227.38
867.82	227.34
868.13	227.36
868.44	227.33
868.75	227.38
869.06	227.36
869.37	227.39
869.68	227.37
869.99	227.42
870.30	227.44
870.61	227.44
870.92	227.44
871.23	227.44
871.54	227.47
871.85	227.52
872.16	227.51
872.47	227.54
872.78	227.49
873.09	227.50
873.40	227.48
873.71	227.52
874.02	227.55
874.33	227.61
874.64	227.62
874.95	227.64
875.26	227.65
875.56	227.70
875.87	227.74
876.18	227.74
876.49	227.83
876.80	227.80
877.11	227.85
877.42	227.86
877.73	227.86
878.04	227.88
878.35	227.88
878.66	227.88
878.96	227.90
879.27	227.91
879.58	227.93
879.89	227.93
880.20	227.95
880.51	227.97
880.82	227.95
881.12	227.98
881.43	227.97
881.74	227.93
882.05	227.92
882.36	227.89
882.67	227.95
882.97	227.83
883.28	227.88
883.59	227.83
883.90	227.84
884.21	227.87
884.51	227.84
884.82	227.87
885.13	227.89
885.44	227.89
885.74	227.89
886.05	227.89
886.36	227.89
886.67	227.85
886.98	227.93
887.28	227.96
887.59	227.94
887.90	227.94
888.20	227.96
888.51	227.98
888.82	227.97
889.13	227.94
889.43	228.01
889.74	228.00
890.05	228.05
890.35	228.02
890.66	228.01
890.97	228.01
891.28	227.96
891.58	227.95
891.89	227.93
892.20	227.89
892.50	227.86
892.81	227.84
893.12	227.81
893.42	227.72
893.73	227.69
894.04	227.69
894.34	227.65
894.65	227.62
894.95	227.57
895.26	227.57
895.57	227.58
895.87	227.51
896.18	227.47
896.48	227.44
896.79	227.43
897.10	227.41
897.40	227.39
897.71	227.37
898.01	227.36
898.32	227.36
898.63	227.37
898.93	227.38
899.24	227.37
899.54	227.38
899.85	227.35
900.15	227.33
900.46	227.31
900.76	227.34
901.07	227.29
901.38	227.30
901.68	227.28
901.99	227.23
902.29	227.20
902.60	227.18
902.90	227.15
903.21	227.14
903.51	227.12
903.82	227.15
904.12	227.15
904.43	227.14
904.73	227.14
905.03	227.14
905.34	227.22
905.64	227.25
905.95	227.23
906.25	227.21
906.56	227.20
906.86	227.21
907.17	227.18
907.47	227.24
907.77	227.22
908.08	227.21
908.38	227.21
908.69	227.22
908.99	227.28
909.30	227.29
909.60	227.29
909.90	227.31
910.21	227.30
910.51	227.31
910.81	227.32
911.12	227.31
911.42	227.31
911.73	227.23
912.03	227.18
912.33	227.23
912.64	227.25
912.94	227.29
913.24	227.27
913.55	227.29
913.85	227.28
914.15	227.28
914.46	227.33
914.76	227.34
915.06	227.36
915.37	227.32
915.67	227.33
915.97	227.35
916.27	227.32
916.58	227.33
916.88	227.32
917.18	227.33
917.49	227.43
917.79	227.42
918.09	227.46
918.39	227.54
918.70	227.51
919.00	227.51
919.30	227.53
919.60	227.51
919.91	227.49
920.21	227.49
920.51	227.51
920.81	227.51
921.12	227.55
921.42	227.56
921.72	227.60
922.02	227.62
922.32	227.64
922.63	227.65
922.93	227.68
923.23	227.70
923.53	227.68
923.83	227.62
924.13	227.64
924.44	227.61
924.74	227.60
925.04	227.63
925.34	227.65
925.64	227.64
925.94	227.65
926.24	227.70
926.55	227.70
926.85	227.68
927.15	227.66
927.45	227.64
927.75	227.63
928.05	227.62
928.35	227.58
928.65	227.58
928.95	227.57
929.26	227.55
929.56	227.57
929.86	227.61
930.16	227.60
930.46	227.57
930.76	227.57
931.06	227.49
931.36	227.48
931.66	227.47
931.96	227.46
932.26	227.46
932.56	227.44
932.86	227.43
933.16	227.43
933.46	227.39
933.76	227.37
934.06	227.37
934.36	227.40
934.66	227.39
934.96	227.38
935.26	227.38
935.56	227.35
935.86	227.27
936.16	227.24
936.46	227.20
936.76	227.22
937.06	227.23
937.36	227.24
937.66	227.24
937.96	227.22
938.26	227.20
938.56	227.21
938.86	227.20
939.16	227.22
939.46	227.23
939.76	227.25
940.06	227.25
940.35	227.22
940.65	227.16
940.95	227.19
941.25	227.16
941.55	227.20
941.85	227.21
942.15	227.25
942.45	227.27
942.75	227.29
943.04	227.25
943.34	227.25
943.64	227.28
943.94	227.23
944.24	227.22
944.54	227.21
944.84	227.18
945.13	227.14
945.43	227.12
945.73	227.12
946.03	227.13
946.33	227.10
946.62	227.11
946.92	227.12
947.22	227.14
947.52	227.13
947.82	227.11
948.11	227.09
948.41	227.09
948.71	227.08
949.01	227.07
949.31	227.12
949.60	227.11
949.90	227.12
950.20	227.14
950.50	227.15
950.79	227.16
951.09	227.21
951.39	227.25
951.69	227.26
951.98	227.27
952.28	227.29
952.58	227.29
952.87	227.29
953.17	227.32
953.47	227.28
953.76	227.31
954.06	227.26
954.36	227.29
954.66	227.28
954.95	227.32
955.25	227.32
955.55	227.31
955.84	227.30
956.14	227.31
956.44	227.34
956.73	227.33
957.03	227.35
957.32	227.33
957.62	227.31
957.92	227.30
958.21	227.30
958.51	227.39
958.81	227.40
959.10	227.43
959.40	227.46
959.69	227.45
959.99	227.44
960.29	227.49
960.58	227.46
960.88	227.50
961.17	227.46
961.47	227.47
961.76	227.46
962.06	227.44
962.36	227.44
962.65	227.43
962.95	227.43
963.24	227.41
963.54	227.42
963.83	227.39
964.13	227.37
964.42	227.35
964.72	227.26
965.01	227.27
965.31	227.26
965.60	227.22
965.90	227.27
966.19	227.24
966.49	227.23
966.78	227.24
967.08	227.21
967.37	227.19
967.67	227.16
967.96	227.18
968.26	227.20
968.55	227.17
968.85	227.16
969.14	227.14
969.43	227.13
969.73	227.10
970.02	227.14
970.32	227.18
970.61	227.14
970.91	227.11
971.20	227.09
971.49	227.04
971.79	227.02
972.08	226.97
972.38	226.99
972.67	226.99
972.96	226.98
973.26	226.98
973.55	227.02
973.85	227.03
974.14	227.00
974.43	226.99
974.73	226.99
975.02	226.99
975.31	226.98
975.61	226.99
975.90	226.99
976.19	226.97
976.49	226.92
976.78	226.94
977.07	226.96
977.37	226.96
977.66	226.96
977.95	226.96
978.24	227.00
978.54	227.03
978.83	227.02
979.12	227.02
979.42	226.99
979.71	226.96
980.00	226.96
980.29	226.98
980.59	226.95
980.88	227.00
981.17	227.03
981.46	227.07
981.76	227.06
982.05	227.10
982.34	227.12
982.63	227.15
982.93	227.19
983.22	227.22
983.51	227.25
983.80	227.32
984.09	227.36
984.39	227.35
984.68	227.33
984.97	227.36
985.26	227.36
985.55	227.41
985.85	227.42
986.14	227.43
986.43	227.43
986.72	227.46
987.01	227.42
987.30	227.41
987.59	227.37
987.89	227.39
988.18	227.35
988.47	227.38
988.76	227.38
989.05	227.35
989.34	227.32
989.63	227.33
989.92	227.31
990.22	227.29
990.51	227.27
990.80	227.27
991.09	227.26
991.38	227.29
991.67	227.27
991.96	227.28
992.25	227.30
992.54	227.31
992.83	227.29
993.12	227.32
993.41	227.34
993.70	227.40
993.99	227.41
994.28	227.42
994.58	227.40
994.87	227.37
995.16	227.36
995.45	227.37
995.74	227.35
996.03	227.34
996.32	227.37
996.61	227.39
996.90	227.41
997.19	227.40
997.48	227.40
997.77	227.37
998.06	227.37
998.34	227.33
998.63	227.33
998.92	227.35
999.21	227.32
999.50	227.29
999.79	227.21
1000.08	227.25
1000.37	227.24
1000.66	227.22
1000.95	227.26
1001.24	227.27
1001.53	227.26
1001.82	227.23
1002.11	227.23
1002.40	227.20
1002.68	227.23
1002.97	227.27
1003.26	227.24
1003.55	227.22
1003.84	227.24
1004.13	227.26
1004.42	227.22
1004.71	227.22
1004.99	227.18
1005.28	227.20
1005.57	227.21
1005.86	227.22
1006.15	227.19
1006.44	227.19
1006.72	227.20
1007.01	227.16
1007.30	227.16
1007.59	227.15
1007.88	227.15
1008.17	227.14
1008.45	227.13
1008.74	227.06
1009.03	227.00
1009.32	227.00
1009.60	227.01
1009.89	227.01
1010.18	226.97
1010.47	226.99
1010.76	226.99
1011.04	227.01
1011.33	227.00
1011.62	226.99
1011.91	226.98
1012.19	226.95
1012.48	226.93
1012.77	226.95
1013.05	227.01
1013.34	226.99
1013.63	227.01
1013.92	227.00
1014.20	226.97
1014.49	227.00
1014.78	227.02
1015.06	226.97
1015.35	227.00
1015.64	227.03
1015.92	227.01
1016.21	227.02
1016.50	227.03
1016.78	227.06
1017.07	227.08
1017.36	227.06
1017.64	227.08
1017.93	227.11
1018.22	227.12
1018.50	227.11
1018.79	227.09
1019.08	227.04
1019.36	227.07
1019.65	227.07
1019.93	227.11
1020.22	227.14
1020.51	227.17
1020.79	227.14
1021.08	226.63
1021.36	226.70
1021.65	226.99
1021.94	226.98
1022.22	227.21
1022.51	227.42
1022.79	227.32
1023.08	227.06
1023.36	228.30
1023.65	226.59
>>>>>End Processed Spectral Data<<<<<
