SpectraSuite Data File
++++++++++++++++++++++++++++++++++++
Date: Fri Feb 01 16:07:07 EST 2013
User: group
Dark Spectrum Present: No
Reference Spectrum Present: No
Number of Sampled Component Spectra: 1
Spectrometers: USB2E7196
Integration Time (usec): 35000 (USB2E7196)
Spectra Averaged: 100 (USB2E7196)
Boxcar Smoothing: 10 (USB2E7196)
Correct for Electrical Dark: No (USB2E7196)
Strobe/Lamp Enabled: No (USB2E7196)
Correct for Detector Non-linearity: No (USB2E7196)
Correct for Stray Light: No (USB2E7196)
Number of Pixels in Processed Spectrum: 2048
>>>>>Begin Processed Spectral Data<<<<<
339.09	0.00
339.48	214.76
339.86	215.71
340.24	217.49
340.63	219.52
341.01	221.65
341.39	221.91
341.78	223.19
342.16	224.37
342.54	225.13
342.93	213.03
343.31	223.80
343.69	224.33
344.07	224.82
344.46	225.22
344.84	225.54
345.22	225.76
345.60	225.98
345.99	226.16
346.37	226.28
346.75	226.34
347.13	226.42
347.52	226.48
347.90	226.54
348.28	226.58
348.66	226.65
349.05	226.66
349.43	226.70
349.81	226.74
350.19	226.78
350.57	226.85
350.96	226.89
351.34	226.94
351.72	226.99
352.10	227.06
352.48	227.15
352.87	227.21
353.25	227.28
353.63	227.31
354.01	227.35
354.39	227.40
354.77	227.48
355.15	227.55
355.54	227.60
355.92	227.62
356.30	227.65
356.68	227.79
357.06	227.87
357.44	227.89
357.82	227.91
358.20	227.98
358.58	228.06
358.97	228.14
359.35	228.22
359.73	228.31
360.11	228.38
360.49	228.42
360.87	228.50
361.25	228.55
361.63	228.68
362.01	228.74
362.39	228.79
362.77	228.83
363.15	228.88
363.53	228.92
363.91	228.96
364.29	229.00
364.67	228.91
365.05	228.91
365.43	228.92
365.81	228.93
366.19	228.99
366.57	229.01
366.95	229.03
367.33	229.00
367.71	228.98
368.09	228.99
368.47	228.99
368.85	228.96
369.23	228.98
369.61	228.89
369.99	228.92
370.37	228.89
370.75	228.92
371.13	228.86
371.51	228.79
371.89	228.80
372.27	228.77
372.65	228.71
373.03	228.67
373.41	228.67
373.78	228.65
374.16	228.51
374.54	228.43
374.92	228.37
375.30	228.32
375.68	228.28
376.06	228.19
376.44	228.10
376.82	228.07
377.19	227.99
377.57	227.96
377.95	227.85
378.33	227.75
378.71	227.61
379.09	227.57
379.47	227.53
379.84	227.44
380.22	227.33
380.60	227.27
380.98	227.20
381.36	227.12
381.73	227.03
382.11	227.00
382.49	226.95
382.87	226.88
383.25	226.81
383.62	226.84
384.00	226.78
384.38	226.76
384.76	226.69
385.13	226.69
385.51	226.65
385.89	226.58
386.27	226.56
386.64	226.53
387.02	226.46
387.40	226.38
387.78	226.34
388.15	226.34
388.53	226.32
388.91	226.29
389.29	226.23
389.66	226.22
390.04	226.21
390.42	226.20
390.79	226.17
391.17	226.15
391.55	226.03
391.92	226.04
392.30	226.05
392.68	226.03
393.05	226.00
393.43	225.99
393.81	226.02
394.18	226.03
394.56	226.05
394.94	226.11
395.31	226.18
395.69	226.21
396.06	226.28
396.44	226.30
396.82	226.33
397.19	226.41
397.57	226.44
397.95	226.49
398.32	226.52
398.70	226.59
399.07	226.71
399.45	226.77
399.82	226.85
400.20	226.88
400.58	226.95
400.95	227.02
401.33	227.11
401.70	227.27
402.08	227.36
402.45	227.47
402.83	227.60
403.20	227.67
403.58	227.81
403.95	227.93
404.33	228.08
404.71	228.21
405.08	228.40
405.46	228.59
405.83	228.75
406.21	228.90
406.58	229.09
406.96	229.24
407.33	229.44
407.70	229.61
408.08	229.91
408.45	230.18
408.83	230.43
409.20	230.64
409.58	230.80
409.95	231.06
410.33	231.33
410.70	231.56
411.08	231.89
411.45	232.16
411.82	232.47
412.20	232.81
412.57	233.22
412.95	233.53
413.32	233.90
413.69	234.32
414.07	234.74
414.44	235.15
414.82	235.63
415.19	236.15
415.56	236.72
415.94	237.21
416.31	237.80
416.68	238.38
417.06	239.08
417.43	239.76
417.81	240.53
418.18	241.29
418.55	242.12
418.93	242.95
419.30	243.83
419.67	244.75
420.04	245.71
420.42	246.69
420.79	247.87
421.16	249.02
421.54	250.20
421.91	251.40
422.28	252.70
422.66	254.04
423.03	255.31
423.40	256.62
423.77	258.07
424.15	259.48
424.52	260.95
424.89	262.58
425.26	264.13
425.64	265.53
426.01	267.10
426.38	268.76
426.75	270.42
427.13	272.13
427.50	273.93
427.87	275.80
428.24	277.67
428.61	279.41
428.99	281.34
429.36	283.45
429.73	285.51
430.10	287.50
430.47	289.53
430.85	291.70
431.22	293.94
431.59	296.28
431.96	298.52
432.33	301.01
432.70	303.36
433.08	306.18
433.45	308.82
433.82	311.44
434.19	314.28
434.56	317.12
434.93	319.82
435.30	322.44
435.68	325.32
436.05	328.11
436.42	330.85
436.79	333.35
437.16	336.07
437.53	338.90
437.90	341.71
438.27	344.40
438.64	347.23
439.01	349.77
439.38	352.01
439.75	354.19
440.13	356.66
440.50	359.00
440.87	360.84
441.24	362.78
441.61	364.92
441.98	366.43
442.35	368.21
442.72	370.00
443.09	371.79
443.46	372.79
443.83	373.44
444.20	373.95
444.57	374.78
444.94	375.04
445.31	375.37
445.68	375.74
446.05	375.88
446.42	375.46
446.79	375.08
447.16	374.63
447.53	374.34
447.90	373.19
448.27	372.02
448.64	370.45
449.01	369.30
449.37	367.38
449.74	365.49
450.11	363.24
450.48	360.79
450.85	358.28
451.22	356.14
451.59	354.07
451.96	352.15
452.33	349.58
452.70	347.20
453.07	344.36
453.43	341.43
453.80	338.65
454.17	335.94
454.54	333.39
454.91	330.67
455.28	327.97
455.65	325.51
456.02	323.07
456.38	320.95
456.75	318.32
457.12	316.06
457.49	313.81
457.86	311.65
458.23	309.81
458.59	307.76
458.96	305.65
459.33	303.81
459.70	301.98
460.07	300.48
460.43	298.81
460.80	297.19
461.17	295.74
461.54	294.24
461.91	292.89
462.27	291.44
462.64	290.21
463.01	288.85
463.38	287.56
463.74	286.17
464.11	284.98
464.48	283.96
464.85	282.87
465.21	282.04
465.58	281.14
465.95	280.03
466.32	279.15
466.68	278.28
467.05	277.37
467.42	276.45
467.78	275.49
468.15	274.65
468.52	274.03
468.88	273.19
469.25	272.44
469.62	271.79
469.98	271.13
470.35	270.49
470.72	269.92
471.08	269.25
471.45	268.72
471.82	268.20
472.18	267.62
472.55	267.19
472.92	266.66
473.28	266.19
473.65	265.77
474.02	265.33
474.38	264.94
474.75	264.62
475.11	264.28
475.48	264.06
475.85	263.82
476.21	263.55
476.58	263.40
476.94	263.27
477.31	263.11
477.67	262.91
478.04	262.81
478.41	262.75
478.77	262.78
479.14	262.73
479.50	262.73
479.87	262.79
480.23	262.87
480.60	262.92
480.96	263.01
481.33	263.21
481.69	263.41
482.06	263.58
482.42	263.83
482.79	264.10
483.15	264.40
483.52	264.76
483.88	265.16
484.25	265.49
484.61	265.88
484.98	266.39
485.34	266.99
485.71	267.57
486.07	268.18
486.44	268.75
486.80	269.45
487.17	270.19
487.53	271.00
487.90	271.81
488.26	272.77
488.62	273.78
488.99	274.74
489.35	275.77
489.72	276.93
490.08	278.12
490.44	279.36
490.81	280.71
491.17	282.05
491.54	283.52
491.90	285.14
492.26	286.78
492.63	288.47
492.99	290.26
493.36	292.15
493.72	294.23
494.08	296.32
494.45	298.59
494.81	300.96
495.17	303.39
495.54	305.99
495.90	308.69
496.26	311.52
496.63	314.47
496.99	317.57
497.35	320.83
497.72	324.24
498.08	327.77
498.44	331.43
498.80	335.37
499.17	339.44
499.53	343.57
499.89	347.96
500.26	352.48
500.62	357.17
500.98	362.15
501.34	367.23
501.71	372.56
502.07	378.01
502.43	383.60
502.79	389.46
503.16	395.53
503.52	401.79
503.88	408.20
504.24	414.92
504.60	421.79
504.97	428.95
505.33	436.34
505.69	444.05
506.05	451.79
506.41	459.69
506.78	467.86
507.14	476.35
507.50	485.06
507.86	494.05
508.22	503.26
508.59	512.48
508.95	522.05
509.31	531.95
509.67	542.06
510.03	552.40
510.39	562.91
510.75	573.73
511.12	584.73
511.48	596.04
511.84	607.42
512.20	618.96
512.56	630.90
512.92	643.04
513.28	655.41
513.64	667.88
514.00	680.62
514.37	693.51
514.73	706.53
515.09	719.59
515.45	732.92
515.81	746.49
516.17	760.47
516.53	774.54
516.89	788.61
517.25	802.75
517.61	817.17
517.97	831.63
518.33	846.05
518.69	860.79
519.05	875.71
519.41	890.82
519.77	906.33
520.13	921.84
520.49	937.12
520.85	952.53
521.21	968.25
521.57	984.40
521.93	1000.06
522.29	1016.39
522.65	1032.58
523.01	1048.66
523.37	1064.68
523.73	1080.76
524.09	1096.95
524.45	1113.26
524.81	1129.90
525.17	1146.59
525.53	1163.45
525.89	1180.37
526.25	1197.23
526.61	1213.54
526.97	1230.34
527.33	1246.80
527.68	1263.24
528.04	1279.67
528.40	1296.12
528.76	1313.21
529.12	1329.76
529.48	1346.67
529.84	1362.62
530.20	1379.16
530.56	1396.15
530.91	1413.54
531.27	1430.24
531.63	1446.56
531.99	1463.17
532.35	1479.09
532.71	1495.01
533.07	1511.28
533.42	1527.01
533.78	1542.92
534.14	1559.06
534.50	1574.26
534.86	1590.05
535.21	1605.27
535.57	1621.09
535.93	1636.55
536.29	1651.15
536.65	1666.24
537.00	1681.02
537.36	1696.28
537.72	1710.87
538.08	1725.21
538.44	1738.94
538.79	1752.73
539.15	1766.23
539.51	1779.79
539.87	1794.03
540.22	1807.56
540.58	1821.07
540.94	1834.32
541.29	1847.06
541.65	1859.90
542.01	1873.06
542.37	1885.29
542.72	1897.57
543.08	1909.49
543.44	1921.79
543.79	1933.06
544.15	1943.90
544.51	1955.30
544.87	1966.18
545.22	1976.90
545.58	1987.17
545.94	1996.82
546.29	2006.70
546.65	2016.70
547.01	2026.03
547.36	2034.68
547.72	2043.27
548.07	2051.27
548.43	2059.46
548.79	2067.38
549.14	2074.85
549.50	2082.08
549.86	2089.71
550.21	2097.05
550.57	2104.20
550.92	2110.92
551.28	2118.03
551.64	2125.11
551.99	2131.66
552.35	2137.89
552.70	2144.05
553.06	2150.07
553.41	2156.44
553.77	2162.50
554.13	2168.59
554.48	2174.67
554.84	2180.24
555.19	2185.41
555.55	2190.63
555.90	2195.14
556.26	2200.20
556.61	2204.95
556.97	2209.54
557.32	2213.70
557.68	2217.86
558.03	2222.11
558.39	2225.62
558.74	2230.07
559.10	2233.90
559.45	2237.60
559.81	2241.96
560.16	2245.70
560.52	2248.87
560.87	2252.34
561.23	2254.99
561.58	2257.78
561.94	2260.31
562.29	2262.62
562.64	2265.42
563.00	2267.89
563.35	2271.41
563.71	2274.44
564.06	2277.48
564.42	2280.28
564.77	2282.94
565.12	2285.34
565.48	2287.30
565.83	2289.34
566.19	2290.77
566.54	2291.72
566.89	2292.85
567.25	2293.44
567.60	2294.75
567.96	2296.62
568.31	2297.34
568.66	2298.43
569.02	2299.08
569.37	2299.37
569.72	2300.27
570.08	2300.46
570.43	2300.44
570.78	2299.78
571.14	2298.28
571.49	2296.98
571.84	2296.65
572.20	2295.44
572.55	2294.32
572.90	2292.49
573.26	2291.00
573.61	2289.24
573.96	2287.58
574.31	2284.62
574.67	2281.56
575.02	2277.95
575.37	2274.37
575.72	2270.64
576.08	2267.37
576.43	2263.98
576.78	2260.33
577.13	2257.09
577.49	2253.88
577.84	2250.44
578.19	2246.71
578.54	2243.07
578.90	2238.96
579.25	2233.31
579.60	2228.34
579.95	2223.32
580.30	2218.50
580.66	2213.38
581.01	2208.44
581.36	2203.47
581.71	2199.28
582.06	2194.83
582.42	2190.58
582.77	2185.43
583.12	2180.99
583.47	2176.41
583.82	2171.52
584.17	2166.20
584.53	2160.81
584.88	2155.22
585.23	2149.46
585.58	2144.08
585.93	2138.62
586.28	2133.80
586.63	2128.83
586.98	2123.83
587.34	2119.13
587.69	2114.24
588.04	2109.03
588.39	2103.37
588.74	2096.87
589.09	2090.73
589.44	2084.17
589.79	2077.93
590.14	2072.24
590.49	2065.66
590.84	2059.03
591.19	2053.07
591.54	2046.73
591.89	2039.38
592.25	2032.72
592.60	2025.58
592.95	2018.06
593.30	2010.90
593.65	2003.32
594.00	1996.29
594.35	1989.04
594.70	1980.93
595.05	1973.95
595.40	1966.52
595.75	1959.08
596.10	1953.00
596.45	1946.41
596.80	1940.17
597.15	1933.68
597.50	1926.69
597.85	1920.14
598.19	1913.65
598.54	1906.55
598.89	1899.92
599.24	1894.10
599.59	1887.42
599.94	1881.38
600.29	1874.97
600.64	1868.30
600.99	1860.98
601.34	1854.05
601.69	1847.06
602.04	1840.26
602.39	1832.68
602.74	1826.08
603.08	1819.24
603.43	1812.51
603.78	1805.08
604.13	1797.88
604.48	1790.61
604.83	1783.72
605.18	1776.97
605.53	1769.02
605.87	1760.91
606.22	1753.74
606.57	1745.67
606.92	1738.28
607.27	1730.99
607.62	1724.04
607.96	1716.83
608.31	1710.35
608.66	1702.84
609.01	1695.34
609.36	1687.75
609.70	1679.69
610.05	1671.71
610.40	1664.16
610.75	1655.81
611.10	1648.09
611.44	1639.69
611.79	1631.63
612.14	1622.99
612.49	1613.59
612.83	1605.09
613.18	1597.08
613.53	1588.95
613.88	1580.47
614.22	1572.20
614.57	1563.57
614.92	1555.70
615.27	1548.23
615.61	1539.72
615.96	1531.58
616.31	1523.83
616.65	1516.43
617.00	1508.96
617.35	1501.17
617.70	1492.91
618.04	1484.32
618.39	1476.27
618.74	1468.58
619.08	1460.22
619.43	1452.58
619.78	1445.79
620.12	1438.70
620.47	1431.19
620.82	1423.02
621.16	1415.54
621.51	1407.82
621.85	1400.20
622.20	1391.71
622.55	1383.14
622.89	1375.26
623.24	1367.69
623.59	1360.32
623.93	1352.81
624.28	1345.52
624.62	1338.11
624.97	1330.92
625.32	1324.15
625.66	1317.00
626.01	1309.87
626.35	1302.60
626.70	1294.82
627.04	1287.09
627.39	1279.20
627.73	1271.72
628.08	1264.70
628.43	1257.55
628.77	1250.24
629.12	1242.68
629.46	1235.43
629.81	1228.10
630.15	1220.92
630.50	1213.52
630.84	1205.37
631.19	1197.48
631.53	1190.05
631.88	1182.36
632.22	1174.71
632.57	1167.47
632.91	1160.05
633.26	1152.68
633.60	1145.16
633.95	1138.07
634.29	1131.02
634.64	1124.47
634.98	1117.16
635.32	1110.05
635.67	1103.41
636.01	1096.83
636.36	1089.94
636.70	1083.35
637.05	1076.85
637.39	1070.40
637.73	1063.93
638.08	1058.12
638.42	1052.08
638.77	1045.71
639.11	1039.21
639.45	1032.87
639.80	1026.17
640.14	1019.72
640.49	1013.26
640.83	1007.12
641.17	1000.99
641.52	994.63
641.86	988.12
642.20	982.25
642.55	975.92
642.89	969.40
643.23	962.75
643.58	957.06
643.92	950.92
644.26	944.81
644.61	938.77
644.95	932.71
645.29	926.10
645.64	919.40
645.98	913.07
646.32	907.18
646.66	901.10
647.01	895.44
647.35	889.78
647.69	883.75
648.04	878.11
648.38	872.25
648.72	866.29
649.06	860.25
649.41	854.37
649.75	848.44
650.09	842.57
650.43	836.80
650.78	830.63
651.12	824.69
651.46	818.99
651.80	813.25
652.14	807.92
652.49	802.57
652.83	797.44
653.17	791.71
653.51	785.95
653.85	780.46
654.20	774.71
654.54	768.71
654.88	762.98
655.22	757.03
655.56	751.35
655.90	745.80
656.25	740.54
656.59	735.15
656.93	730.10
657.27	724.93
657.61	719.53
657.95	714.45
658.29	709.28
658.64	703.99
658.98	698.69
659.32	693.15
659.66	687.96
660.00	682.62
660.34	677.71
660.68	672.74
661.02	667.76
661.36	663.07
661.70	658.53
662.05	654.26
662.39	650.02
662.73	645.49
663.07	641.16
663.41	636.70
663.75	632.23
664.09	627.65
664.43	623.22
664.77	619.10
665.11	614.86
665.45	610.77
665.79	606.68
666.13	602.58
666.47	598.55
666.81	594.32
667.15	590.17
667.49	586.27
667.83	582.47
668.17	578.52
668.51	574.45
668.85	570.46
669.19	566.56
669.53	562.72
669.87	558.97
670.21	555.28
670.55	551.66
670.89	548.25
671.23	544.80
671.57	541.31
671.91	537.80
672.25	534.31
672.58	530.81
672.92	527.42
673.26	524.21
673.60	521.02
673.94	517.94
674.28	515.05
674.62	512.11
674.96	509.05
675.30	506.15
675.64	503.19
675.97	500.36
676.31	497.49
676.65	494.55
676.99	491.82
677.33	488.97
677.67	486.16
678.01	483.10
678.34	480.17
678.68	477.33
679.02	474.53
679.36	471.77
679.70	469.07
680.04	466.34
680.37	463.50
680.71	460.69
681.05	458.07
681.39	455.35
681.73	452.64
682.06	450.15
682.40	447.64
682.74	445.11
683.08	442.56
683.42	439.99
683.75	437.48
684.09	434.84
684.43	432.35
684.77	429.88
685.10	427.51
685.44	425.15
685.78	422.83
686.12	420.51
686.45	418.19
686.79	415.89
687.13	413.66
687.46	411.49
687.80	409.35
688.14	407.07
688.48	405.02
688.81	402.76
689.15	400.59
689.49	398.36
689.82	396.32
690.16	394.26
690.50	392.32
690.83	390.43
691.17	388.48
691.51	386.57
691.84	384.72
692.18	382.82
692.52	380.85
692.85	378.87
693.19	377.05
693.52	375.21
693.86	373.32
694.20	371.52
694.53	369.70
694.87	367.87
695.21	366.15
695.54	364.34
695.88	362.64
696.21	360.87
696.55	359.23
696.88	357.48
697.22	355.80
697.56	354.20
697.89	352.49
698.23	350.88
698.56	349.29
698.90	347.69
699.23	346.05
699.57	344.51
699.90	342.96
700.24	341.37
700.58	339.82
700.91	338.39
701.25	336.91
701.58	335.53
701.92	334.12
702.25	332.70
702.59	331.33
702.92	330.00
703.26	328.74
703.59	327.49
703.93	326.29
704.26	325.10
704.60	323.77
704.93	322.52
705.26	321.27
705.60	320.08
705.93	318.92
706.27	317.85
706.60	316.81
706.94	315.81
707.27	314.71
707.61	313.69
707.94	312.65
708.27	311.60
708.61	310.55
708.94	309.59
709.28	308.66
709.61	307.72
709.94	306.75
710.28	305.75
710.61	304.76
710.95	303.69
711.28	302.73
711.61	301.83
711.95	300.91
712.28	299.98
712.61	299.02
712.95	298.12
713.28	297.25
713.61	296.36
713.95	295.43
714.28	294.56
714.61	293.68
714.95	292.82
715.28	291.98
715.61	291.09
715.95	290.27
716.28	289.34
716.61	288.48
716.95	287.68
717.28	286.92
717.61	286.16
717.94	285.45
718.28	284.65
718.61	283.88
718.94	283.20
719.27	282.57
719.61	281.93
719.94	281.26
720.27	280.55
720.60	279.87
720.94	279.22
721.27	278.67
721.60	278.12
721.93	277.56
722.27	276.98
722.60	276.46
722.93	275.83
723.26	275.34
723.59	274.79
723.93	274.25
724.26	273.69
724.59	273.13
724.92	272.59
725.25	272.08
725.59	271.56
725.92	271.07
726.25	270.53
726.58	270.03
726.91	269.54
727.24	269.08
727.57	268.60
727.91	268.11
728.24	267.62
728.57	267.08
728.90	266.60
729.23	266.10
729.56	265.61
729.89	265.14
730.22	264.64
730.55	264.14
730.89	263.68
731.22	263.26
731.55	262.84
731.88	262.40
732.21	261.98
732.54	261.57
732.87	261.09
733.20	260.69
733.53	260.33
733.86	259.93
734.19	259.48
734.52	259.07
734.85	258.78
735.18	258.36
735.51	258.05
735.84	257.66
736.17	257.31
736.50	256.92
736.83	256.74
737.16	256.40
737.49	256.10
737.82	255.74
738.15	255.43
738.48	255.08
738.81	254.75
739.14	254.43
739.47	254.12
739.80	253.84
740.13	253.52
740.46	253.16
740.79	252.82
741.12	252.55
741.45	252.24
741.78	251.88
742.11	251.60
742.44	251.25
742.77	251.00
743.10	250.69
743.43	250.43
743.75	250.00
744.08	249.86
744.41	249.58
744.74	249.33
745.07	249.00
745.40	248.76
745.73	248.54
746.06	248.25
746.39	247.98
746.71	247.69
747.04	247.39
747.37	247.13
747.70	246.92
748.03	246.64
748.36	246.47
748.68	246.21
749.01	245.97
749.34	245.76
749.67	245.53
750.00	245.32
750.33	245.16
750.65	244.95
750.98	244.63
751.31	244.41
751.64	244.18
751.97	243.99
752.29	243.82
752.62	243.56
752.95	243.38
753.28	243.16
753.60	243.00
753.93	242.82
754.26	242.63
754.59	242.41
754.91	242.22
755.24	242.00
755.57	241.81
755.90	241.63
756.22	241.42
756.55	241.21
756.88	241.02
757.20	240.76
757.53	240.57
757.86	240.39
758.19	240.23
758.51	240.10
758.84	239.90
759.17	239.68
759.49	239.52
759.82	239.36
760.15	239.23
760.47	239.08
760.80	238.90
761.13	238.77
761.45	238.62
761.78	238.48
762.11	238.37
762.43	238.23
762.76	238.09
763.08	238.00
763.41	237.89
763.74	237.74
764.06	237.62
764.39	237.46
764.71	237.30
765.04	237.12
765.37	236.97
765.69	236.85
766.02	236.75
766.34	236.59
766.67	236.46
767.00	236.32
767.32	236.23
767.65	236.21
767.97	236.07
768.30	235.93
768.62	235.81
768.95	235.65
769.27	235.59
769.60	235.49
769.92	235.32
770.25	235.21
770.57	235.09
770.90	234.98
771.22	234.89
771.55	234.79
771.87	234.74
772.20	234.65
772.52	234.63
772.85	234.66
773.17	234.58
773.50	234.48
773.82	234.36
774.15	234.22
774.47	234.07
774.80	233.96
775.12	233.89
775.45	233.80
775.77	233.72
776.09	233.62
776.42	233.50
776.74	233.46
777.07	233.36
777.39	233.30
777.72	233.24
778.04	233.18
778.36	233.14
778.69	233.06
779.01	233.00
779.33	232.86
779.66	232.66
779.98	232.58
780.31	232.54
780.63	232.54
780.95	232.49
781.28	232.39
781.60	232.35
781.92	232.28
782.25	232.27
782.57	232.24
782.89	232.18
783.22	232.17
783.54	232.07
783.86	232.02
784.19	231.97
784.51	231.90
784.83	231.87
785.16	231.82
785.48	231.76
785.80	231.71
786.12	231.64
786.45	231.59
786.77	231.57
787.09	231.52
787.42	231.47
787.74	231.41
788.06	231.40
788.38	231.35
788.71	231.33
789.03	231.28
789.35	231.23
789.67	231.18
789.99	231.11
790.32	231.06
790.64	231.07
790.96	231.08
791.28	231.04
791.61	230.94
791.93	230.87
792.25	230.85
792.57	230.86
792.89	230.83
793.21	230.76
793.54	230.69
793.86	230.64
794.18	230.60
794.50	230.56
794.82	230.52
795.14	230.47
795.47	230.45
795.79	230.41
796.11	230.36
796.43	230.29
796.75	230.25
797.07	230.26
797.39	230.19
797.71	230.11
798.04	230.08
798.36	230.05
798.68	230.03
799.00	230.00
799.32	229.92
799.64	229.88
799.96	229.87
800.28	229.92
800.60	229.88
800.92	229.79
801.24	229.76
801.56	229.72
801.89	229.70
802.21	229.65
802.53	229.55
802.85	229.55
803.17	229.58
803.49	229.56
803.81	229.48
804.13	229.44
804.45	229.38
804.77	229.35
805.09	229.34
805.41	229.26
805.73	229.19
806.05	229.14
806.37	229.12
806.69	229.08
807.01	229.02
807.33	228.98
807.65	228.97
807.97	229.00
808.28	229.00
808.60	228.98
808.92	228.95
809.24	229.00
809.56	228.90
809.88	228.84
810.20	228.79
810.52	228.79
810.84	228.75
811.16	228.72
811.48	228.65
811.80	228.67
812.12	228.66
812.43	228.68
812.75	228.69
813.07	228.63
813.39	228.60
813.71	228.56
814.03	228.55
814.35	228.50
814.67	228.43
814.98	228.34
815.30	228.31
815.62	228.27
815.94	228.23
816.26	228.28
816.58	228.25
816.89	228.25
817.21	228.21
817.53	228.21
817.85	228.20
818.17	228.21
818.48	228.17
818.80	228.20
819.12	228.12
819.44	228.07
819.76	228.06
820.07	228.07
820.39	228.06
820.71	228.04
821.03	228.04
821.34	228.03
821.66	228.07
821.98	228.09
822.30	228.08
822.61	228.11
822.93	228.06
823.25	228.10
823.57	228.08
823.88	228.11
824.20	228.10
824.52	228.08
824.83	228.08
825.15	228.07
825.47	228.07
825.79	228.09
826.10	228.05
826.42	228.05
826.74	228.05
827.05	228.04
827.37	228.03
827.69	228.00
828.00	228.01
828.32	228.02
828.64	227.99
828.95	228.03
829.27	228.00
829.58	228.00
829.90	227.94
830.22	227.95
830.53	227.92
830.85	227.87
831.17	227.86
831.48	227.84
831.80	227.84
832.11	227.81
832.43	227.82
832.75	227.85
833.06	227.90
833.38	227.86
833.69	227.86
834.01	227.87
834.32	227.86
834.64	227.83
834.96	227.80
835.27	227.79
835.59	227.74
835.90	227.70
836.22	227.68
836.53	227.67
836.85	227.66
837.16	227.74
837.48	227.76
837.79	227.82
838.11	227.81
838.42	227.81
838.74	227.82
839.05	227.80
839.37	227.81
839.68	227.74
840.00	227.74
840.31	227.75
840.63	227.76
840.94	227.72
841.26	227.71
841.57	227.70
841.88	227.70
842.20	227.68
842.51	227.68
842.83	227.65
843.14	227.73
843.46	227.71
843.77	227.65
844.08	227.61
844.40	227.56
844.71	227.56
845.03	227.55
845.34	227.51
845.65	227.48
845.97	227.44
846.28	227.43
846.60	227.42
846.91	227.38
847.22	227.37
847.54	227.39
847.85	227.38
848.16	227.39
848.48	227.36
848.79	227.39
849.10	227.39
849.42	227.39
849.73	227.31
850.04	227.26
850.36	227.19
850.67	227.23
850.98	227.19
851.30	227.19
851.61	227.18
851.92	227.17
852.23	227.19
852.55	227.20
852.86	227.19
853.17	227.21
853.49	227.24
853.80	227.24
854.11	227.24
854.42	227.24
854.74	227.19
855.05	227.22
855.36	227.17
855.67	227.17
855.99	227.19
856.30	227.27
856.61	227.28
856.92	227.31
857.23	227.32
857.55	227.32
857.86	227.31
858.17	227.32
858.48	227.33
858.79	227.29
859.11	227.29
859.42	227.30
859.73	227.28
860.04	227.27
860.35	227.24
860.66	227.23
860.98	227.24
861.29	227.30
861.60	227.28
861.91	227.33
862.22	227.32
862.53	227.31
862.84	227.23
863.16	227.25
863.47	227.24
863.78	227.22
864.09	227.23
864.40	227.23
864.71	227.22
865.02	227.24
865.33	227.24
865.64	227.23
865.95	227.22
866.27	227.27
866.58	227.24
866.89	227.28
867.20	227.28
867.51	227.28
867.82	227.23
868.13	227.26
868.44	227.22
868.75	227.27
869.06	227.26
869.37	227.26
869.68	227.23
869.99	227.24
870.30	227.26
870.61	227.30
870.92	227.29
871.23	227.27
871.54	227.28
871.85	227.31
872.16	227.35
872.47	227.36
872.78	227.31
873.09	227.33
873.40	227.31
873.71	227.31
874.02	227.32
874.33	227.34
874.64	227.30
874.95	227.29
875.26	227.25
875.56	227.25
875.87	227.28
876.18	227.28
876.49	227.35
876.80	227.31
877.11	227.26
877.42	227.26
877.73	227.28
878.04	227.26
878.35	227.23
878.66	227.22
878.96	227.18
879.27	227.14
879.58	227.14
879.89	227.10
880.20	227.11
880.51	227.08
880.82	227.05
881.12	227.04
881.43	227.02
881.74	227.01
882.05	226.98
882.36	226.93
882.67	226.96
882.97	226.85
883.28	226.85
883.59	226.84
883.90	226.85
884.21	226.83
884.51	226.81
884.82	226.77
885.13	226.77
885.44	226.79
885.74	226.85
886.05	226.80
886.36	226.79
886.67	226.74
886.98	226.78
887.28	226.77
887.59	226.77
887.90	226.78
888.20	226.75
888.51	226.78
888.82	226.78
889.13	226.75
889.43	226.83
889.74	226.80
890.05	226.78
890.35	226.73
890.66	226.69
890.97	226.68
891.28	226.67
891.58	226.63
891.89	226.62
892.20	226.57
892.50	226.59
892.81	226.61
893.12	226.60
893.42	226.57
893.73	226.60
894.04	226.59
894.34	226.58
894.65	226.57
894.95	226.57
895.26	226.54
895.57	226.60
895.87	226.50
896.18	226.54
896.48	226.57
896.79	226.54
897.10	226.62
897.40	226.63
897.71	226.68
898.01	226.69
898.32	226.72
898.63	226.74
898.93	226.73
899.24	226.73
899.54	226.74
899.85	226.71
900.15	226.72
900.46	226.76
900.76	226.78
901.07	226.78
901.38	226.79
901.68	226.83
901.99	226.80
902.29	226.83
902.60	226.81
902.90	226.82
903.21	226.91
903.51	226.90
903.82	226.91
904.12	226.87
904.43	226.89
904.73	226.86
905.03	226.85
905.34	226.94
905.64	226.96
905.95	226.97
906.25	227.01
906.56	227.02
906.86	227.02
907.17	227.02
907.47	227.07
907.77	227.06
908.08	227.07
908.38	227.07
908.69	227.07
908.99	227.09
909.30	227.08
909.60	227.04
909.90	227.06
910.21	227.07
910.51	227.10
910.81	227.13
911.12	227.15
911.42	227.14
911.73	227.03
912.03	227.04
912.33	227.05
912.64	227.03
912.94	227.01
913.24	227.00
913.55	226.99
913.85	226.94
914.15	226.97
914.46	226.97
914.76	226.94
915.06	227.00
915.37	226.96
915.67	226.95
915.97	226.94
916.27	226.91
916.58	226.89
916.88	226.88
917.18	226.86
917.49	226.93
917.79	226.94
918.09	226.99
918.39	226.99
918.70	227.00
919.00	226.98
919.30	227.01
919.60	226.98
919.91	226.96
920.21	226.97
920.51	226.93
920.81	226.90
921.12	226.94
921.42	226.92
921.72	226.94
922.02	226.95
922.32	226.97
922.63	226.95
922.93	227.01
923.23	226.99
923.53	226.97
923.83	226.89
924.13	226.87
924.44	226.84
924.74	226.86
925.04	226.87
925.34	226.89
925.64	226.84
925.94	226.84
926.24	226.89
926.55	226.89
926.85	226.92
927.15	226.92
927.45	226.85
927.75	226.83
928.05	226.83
928.35	226.82
928.65	226.83
928.95	226.83
929.26	226.78
929.56	226.79
929.86	226.80
930.16	226.83
930.46	226.83
930.76	226.83
931.06	226.76
931.36	226.75
931.66	226.78
931.96	226.80
932.26	226.82
932.56	226.77
932.86	226.79
933.16	226.78
933.46	226.79
933.76	226.79
934.06	226.81
934.36	226.81
934.66	226.82
934.96	226.80
935.26	226.81
935.56	226.84
935.86	226.81
936.16	226.79
936.46	226.77
936.76	226.79
937.06	226.77
937.36	226.79
937.66	226.75
937.96	226.74
938.26	226.72
938.56	226.73
938.86	226.73
939.16	226.74
939.46	226.76
939.76	226.74
940.06	226.75
940.35	226.75
940.65	226.75
940.95	226.74
941.25	226.67
941.55	226.68
941.85	226.67
942.15	226.72
942.45	226.73
942.75	226.68
943.04	226.68
943.34	226.72
943.64	226.69
943.94	226.67
944.24	226.64
944.54	226.63
944.84	226.62
945.13	226.61
945.43	226.56
945.73	226.52
946.03	226.53
946.33	226.52
946.62	226.50
946.92	226.47
947.22	226.47
947.52	226.52
947.82	226.52
948.11	226.49
948.41	226.48
948.71	226.46
949.01	226.47
949.31	226.43
949.60	226.43
949.90	226.48
950.20	226.50
950.50	226.51
950.79	226.51
951.09	226.50
951.39	226.49
951.69	226.50
951.98	226.51
952.28	226.52
952.58	226.54
952.87	226.54
953.17	226.55
953.47	226.53
953.76	226.52
954.06	226.50
954.36	226.49
954.66	226.46
954.95	226.50
955.25	226.49
955.55	226.50
955.84	226.49
956.14	226.48
956.44	226.46
956.73	226.43
957.03	226.42
957.32	226.44
957.62	226.43
957.92	226.44
958.21	226.43
958.51	226.53
958.81	226.52
959.10	226.54
959.40	226.57
959.69	226.57
959.99	226.60
960.29	226.57
960.58	226.56
960.88	226.62
961.17	226.62
961.47	226.66
961.76	226.68
962.06	226.66
962.36	226.64
962.65	226.63
962.95	226.66
963.24	226.65
963.54	226.61
963.83	226.62
964.13	226.61
964.42	226.60
964.72	226.50
965.01	226.51
965.31	226.48
965.60	226.45
965.90	226.51
966.19	226.47
966.49	226.50
966.78	226.51
967.08	226.46
967.37	226.46
967.67	226.40
967.96	226.43
968.26	226.45
968.55	226.46
968.85	226.48
969.14	226.48
969.43	226.50
969.73	226.49
970.02	226.53
970.32	226.53
970.61	226.52
970.91	226.50
971.20	226.50
971.49	226.49
971.79	226.51
972.08	226.46
972.38	226.50
972.67	226.48
972.96	226.51
973.26	226.54
973.55	226.57
973.85	226.61
974.14	226.60
974.43	226.58
974.73	226.55
975.02	226.52
975.31	226.52
975.61	226.55
975.90	226.55
976.19	226.54
976.49	226.56
976.78	226.58
977.07	226.60
977.37	226.61
977.66	226.64
977.95	226.64
978.24	226.62
978.54	226.62
978.83	226.61
979.12	226.60
979.42	226.57
979.71	226.52
980.00	226.50
980.29	226.49
980.59	226.51
980.88	226.56
981.17	226.58
981.46	226.59
981.76	226.55
982.05	226.58
982.34	226.55
982.63	226.53
982.93	226.52
983.22	226.53
983.51	226.51
983.80	226.50
984.09	226.52
984.39	226.55
984.68	226.51
984.97	226.54
985.26	226.52
985.55	226.53
985.85	226.58
986.14	226.59
986.43	226.60
986.72	226.58
987.01	226.54
987.30	226.55
987.59	226.52
987.89	226.53
988.18	226.52
988.47	226.53
988.76	226.50
989.05	226.50
989.34	226.51
989.63	226.55
989.92	226.52
990.22	226.49
990.51	226.46
990.80	226.44
991.09	226.44
991.38	226.45
991.67	226.42
991.96	226.36
992.25	226.35
992.54	226.36
992.83	226.35
993.12	226.34
993.41	226.35
993.70	226.39
993.99	226.40
994.28	226.40
994.58	226.43
994.87	226.43
995.16	226.41
995.45	226.40
995.74	226.36
996.03	226.40
996.32	226.41
996.61	226.43
996.90	226.50
997.19	226.45
997.48	226.43
997.77	226.46
998.06	226.47
998.34	226.48
998.63	226.46
998.92	226.46
999.21	226.49
999.50	226.48
999.79	226.45
1000.08	226.42
1000.37	226.42
1000.66	226.39
1000.95	226.42
1001.24	226.42
1001.53	226.45
1001.82	226.43
1002.11	226.40
1002.40	226.43
1002.68	226.47
1002.97	226.46
1003.26	226.50
1003.55	226.52
1003.84	226.52
1004.13	226.55
1004.42	226.56
1004.71	226.53
1004.99	226.54
1005.28	226.55
1005.57	226.55
1005.86	226.53
1006.15	226.56
1006.44	226.57
1006.72	226.57
1007.01	226.53
1007.30	226.53
1007.59	226.49
1007.88	226.52
1008.17	226.54
1008.45	226.50
1008.74	226.45
1009.03	226.43
1009.32	226.45
1009.60	226.44
1009.89	226.43
1010.18	226.37
1010.47	226.36
1010.76	226.39
1011.04	226.37
1011.33	226.39
1011.62	226.42
1011.91	226.46
1012.19	226.44
1012.48	226.42
1012.77	226.44
1013.05	226.51
1013.34	226.52
1013.63	226.51
1013.92	226.50
1014.20	226.47
1014.49	226.47
1014.78	226.46
1015.06	226.46
1015.35	226.46
1015.64	226.46
1015.92	226.50
1016.21	226.57
1016.50	226.57
1016.78	226.58
1017.07	226.59
1017.36	226.57
1017.64	226.53
1017.93	226.52
1018.22	226.51
1018.50	226.54
1018.79	226.52
1019.08	226.48
1019.36	226.48
1019.65	226.48
1019.93	226.54
1020.22	226.55
1020.51	226.59
1020.79	226.60
1021.08	226.09
1021.36	226.49
1021.65	226.30
1021.94	226.33
1022.22	226.30
1022.51	226.49
1022.79	227.59
1023.08	226.34
1023.36	227.48
1023.65	226.15
>>>>>End Processed Spectral Data<<<<<
