SpectraSuite Data File
++++++++++++++++++++++++++++++++++++
Date: Fri Feb 01 15:36:43 EST 2013
User: group
Dark Spectrum Present: No
Reference Spectrum Present: No
Number of Sampled Component Spectra: 1
Spectrometers: USB2E7196
Integration Time (usec): 35000 (USB2E7196)
Spectra Averaged: 100 (USB2E7196)
Boxcar Smoothing: 10 (USB2E7196)
Correct for Electrical Dark: No (USB2E7196)
Strobe/Lamp Enabled: No (USB2E7196)
Correct for Detector Non-linearity: No (USB2E7196)
Correct for Stray Light: No (USB2E7196)
Number of Pixels in Processed Spectrum: 2048
>>>>>Begin Processed Spectral Data<<<<<
339.09	0.00
339.48	214.77
339.86	216.21
340.24	217.83
340.63	218.64
341.01	222.30
341.39	222.17
341.78	222.98
342.16	224.28
342.54	224.95
342.93	213.25
343.31	224.05
343.69	224.58
344.07	225.05
344.46	225.45
344.84	225.86
345.22	226.05
345.60	226.30
345.99	226.50
346.37	226.63
346.75	226.75
347.13	226.85
347.52	226.87
347.90	226.92
348.28	226.97
348.66	227.00
349.05	227.00
349.43	227.04
349.81	227.07
350.19	227.16
350.57	227.21
350.96	227.29
351.34	227.33
351.72	227.44
352.10	227.55
352.48	227.61
352.87	227.68
353.25	227.80
353.63	227.86
354.01	227.90
354.39	228.02
354.77	228.08
355.15	228.14
355.54	228.24
355.92	228.30
356.30	228.35
356.68	228.48
357.06	228.56
357.44	228.61
357.82	228.65
358.20	228.69
358.58	228.73
358.97	228.77
359.35	228.85
359.73	228.94
360.11	228.99
360.49	229.06
360.87	229.08
361.25	229.13
361.63	229.19
362.01	229.25
362.39	229.23
362.77	229.26
363.15	229.33
363.53	229.38
363.91	229.37
364.29	229.40
364.67	229.34
365.05	229.33
365.43	229.38
365.81	229.38
366.19	229.44
366.57	229.48
366.95	229.47
367.33	229.42
367.71	229.39
368.09	229.36
368.47	229.34
368.85	229.29
369.23	229.27
369.61	229.20
369.99	229.19
370.37	229.21
370.75	229.22
371.13	229.14
371.51	229.05
371.89	229.03
372.27	228.97
372.65	228.91
373.03	228.88
373.41	228.79
373.78	228.75
374.16	228.65
374.54	228.54
374.92	228.49
375.30	228.43
375.68	228.36
376.06	228.33
376.44	228.25
376.82	228.22
377.19	228.14
377.57	228.07
377.95	227.97
378.33	227.86
378.71	227.74
379.09	227.69
379.47	227.62
379.84	227.55
380.22	227.51
380.60	227.44
380.98	227.39
381.36	227.32
381.73	227.23
382.11	227.15
382.49	227.11
382.87	227.03
383.25	227.00
383.62	227.02
384.00	226.94
384.38	226.91
384.76	226.86
385.13	226.83
385.51	226.76
385.89	226.71
386.27	226.66
386.64	226.60
387.02	226.55
387.40	226.51
387.78	226.48
388.15	226.40
388.53	226.38
388.91	226.35
389.29	226.30
389.66	226.30
390.04	226.29
390.42	226.29
390.79	226.27
391.17	226.19
391.55	226.06
391.92	226.04
392.30	226.00
392.68	226.00
393.05	226.02
393.43	226.04
393.81	226.05
394.18	226.08
394.56	226.12
394.94	226.15
395.31	226.15
395.69	226.16
396.06	226.23
396.44	226.29
396.82	226.29
397.19	226.37
397.57	226.43
397.95	226.45
398.32	226.47
398.70	226.57
399.07	226.72
399.45	226.82
399.82	226.90
400.20	226.96
400.58	227.04
400.95	227.08
401.33	227.18
401.70	227.33
402.08	227.43
402.45	227.52
402.83	227.63
403.20	227.78
403.58	227.89
403.95	228.00
404.33	228.12
404.71	228.27
405.08	228.47
405.46	228.60
405.83	228.78
406.21	228.96
406.58	229.12
406.96	229.27
407.33	229.47
407.70	229.67
408.08	229.94
408.45	230.16
408.83	230.39
409.20	230.63
409.58	230.82
409.95	231.06
410.33	231.36
410.70	231.62
411.08	231.91
411.45	232.23
411.82	232.55
412.20	232.88
412.57	233.30
412.95	233.56
413.32	234.00
413.69	234.36
414.07	234.78
414.44	235.28
414.82	235.73
415.19	236.26
415.56	236.78
415.94	237.35
416.31	237.96
416.68	238.59
417.06	239.30
417.43	239.99
417.81	240.76
418.18	241.50
418.55	242.34
418.93	243.20
419.30	244.11
419.67	245.05
420.04	246.01
420.42	247.02
420.79	248.19
421.16	249.30
421.54	250.55
421.91	251.76
422.28	253.02
422.66	254.40
423.03	255.70
423.40	257.06
423.77	258.46
424.15	259.94
424.52	261.43
424.89	263.02
425.26	264.56
425.64	266.02
426.01	267.65
426.38	269.32
426.75	270.99
427.13	272.74
427.50	274.56
427.87	276.42
428.24	278.31
428.61	280.08
428.99	282.07
429.36	284.17
429.73	286.22
430.10	288.22
430.47	290.28
430.85	292.40
431.22	294.64
431.59	297.06
431.96	299.25
432.33	301.76
432.70	304.15
433.08	306.99
433.45	309.64
433.82	312.23
434.19	315.13
434.56	317.96
434.93	320.60
435.30	323.23
435.68	326.18
436.05	328.97
436.42	331.76
436.79	334.30
437.16	336.95
437.53	339.80
437.90	342.62
438.27	345.34
438.64	348.18
439.01	350.79
439.38	353.00
439.75	355.21
440.13	357.74
440.50	360.03
440.87	361.82
441.24	363.77
441.61	365.95
441.98	367.46
442.35	369.25
442.72	371.14
443.09	372.93
443.46	373.90
443.83	374.50
444.20	374.98
444.57	375.78
444.94	376.12
445.31	376.46
445.68	376.80
446.05	376.83
446.42	376.47
446.79	376.05
447.16	375.63
447.53	375.24
447.90	374.03
448.27	372.87
448.64	371.32
449.01	370.13
449.37	368.13
449.74	366.18
450.11	363.92
450.48	361.42
450.85	358.90
451.22	356.78
451.59	354.75
451.96	352.85
452.33	350.25
452.70	347.87
453.07	345.06
453.43	342.16
453.80	339.46
454.17	336.73
454.54	334.10
454.91	331.35
455.28	328.71
455.65	326.20
456.02	323.81
456.38	321.65
456.75	318.99
457.12	316.73
457.49	314.50
457.86	312.34
458.23	310.47
458.59	308.40
458.96	306.27
459.33	304.39
459.70	302.52
460.07	300.99
460.43	299.25
460.80	297.63
461.17	296.17
461.54	294.67
461.91	293.27
462.27	291.87
462.64	290.58
463.01	289.21
463.38	287.90
463.74	286.52
464.11	285.39
464.48	284.40
464.85	283.29
465.21	282.44
465.58	281.52
465.95	280.40
466.32	279.46
466.68	278.57
467.05	277.71
467.42	276.79
467.78	275.89
468.15	275.02
468.52	274.30
468.88	273.43
469.25	272.67
469.62	272.04
469.98	271.37
470.35	270.77
470.72	270.21
471.08	269.57
471.45	269.01
471.82	268.43
472.18	267.81
472.55	267.40
472.92	266.87
473.28	266.42
473.65	265.98
474.02	265.54
474.38	265.16
474.75	264.84
475.11	264.46
475.48	264.17
475.85	263.97
476.21	263.78
476.58	263.62
476.94	263.43
477.31	263.25
477.67	263.09
478.04	262.97
478.41	262.91
478.77	262.98
479.14	262.96
479.50	262.98
479.87	263.05
480.23	263.10
480.60	263.18
480.96	263.27
481.33	263.51
481.69	263.70
482.06	263.91
482.42	264.10
482.79	264.41
483.15	264.77
483.52	265.13
483.88	265.46
484.25	265.87
484.61	266.33
484.98	266.80
485.34	267.38
485.71	267.98
486.07	268.55
486.44	269.12
486.80	269.80
487.17	270.51
487.53	271.34
487.90	272.18
488.26	273.14
488.62	274.13
488.99	275.07
489.35	276.15
489.72	277.28
490.08	278.48
490.44	279.69
490.81	280.98
491.17	282.35
491.54	283.87
491.90	285.38
492.26	287.01
492.63	288.73
492.99	290.50
493.36	292.42
493.72	294.46
494.08	296.54
494.45	298.83
494.81	301.20
495.17	303.61
495.54	306.18
495.90	308.82
496.26	311.62
496.63	314.61
496.99	317.69
497.35	320.94
497.72	324.36
498.08	327.89
498.44	331.58
498.80	335.49
499.17	339.48
499.53	343.67
499.89	348.06
500.26	352.58
500.62	357.24
500.98	362.17
501.34	367.26
501.71	372.59
502.07	378.03
502.43	383.67
502.79	389.49
503.16	395.60
503.52	401.90
503.88	408.30
504.24	414.88
504.60	421.82
504.97	428.97
505.33	436.27
505.69	444.00
506.05	451.79
506.41	459.63
506.78	467.86
507.14	476.29
507.50	485.02
507.86	494.08
508.22	503.26
508.59	512.46
508.95	522.09
509.31	531.89
509.67	541.93
510.03	552.23
510.39	562.76
510.75	573.59
511.12	584.56
511.48	595.81
511.84	607.38
512.20	618.83
512.56	630.75
512.92	642.95
513.28	655.28
513.64	667.72
514.00	680.50
514.37	693.35
514.73	706.35
515.09	719.41
515.45	732.73
515.81	746.39
516.17	760.40
516.53	774.37
516.89	788.59
517.25	802.80
517.61	817.20
517.97	831.66
518.33	845.96
518.69	860.76
519.05	875.80
519.41	890.92
519.77	906.51
520.13	922.08
520.49	937.51
520.85	952.94
521.21	968.71
521.57	984.94
521.93	1000.88
522.29	1017.40
522.65	1033.64
523.01	1049.68
523.37	1065.71
523.73	1081.91
524.09	1098.04
524.45	1114.39
524.81	1131.02
525.17	1147.90
525.53	1164.97
525.89	1181.94
526.25	1198.78
526.61	1215.20
526.97	1231.98
527.33	1248.47
527.68	1265.02
528.04	1281.55
528.40	1298.14
528.76	1315.24
529.12	1331.93
529.48	1348.78
529.84	1364.81
530.20	1381.52
530.56	1398.81
530.91	1416.28
531.27	1432.95
531.63	1449.48
531.99	1466.05
532.35	1481.97
532.71	1497.79
533.07	1513.99
533.42	1530.00
533.78	1545.99
534.14	1562.26
534.50	1577.50
534.86	1593.49
535.21	1608.59
535.57	1624.50
535.93	1640.07
536.29	1654.79
536.65	1669.83
537.00	1684.66
537.36	1700.01
537.72	1714.51
538.08	1728.82
538.44	1742.55
538.79	1756.48
539.15	1770.29
539.51	1783.99
539.87	1798.46
540.22	1812.21
540.58	1825.99
540.94	1839.24
541.29	1852.22
541.65	1864.90
542.01	1878.24
542.37	1890.53
542.72	1902.94
543.08	1914.72
543.44	1927.10
543.79	1938.50
544.15	1949.52
544.51	1961.01
544.87	1971.92
545.22	1982.70
545.58	1992.97
545.94	2002.69
546.29	2012.62
546.65	2022.40
547.01	2031.61
547.36	2040.25
547.72	2048.82
548.07	2056.58
548.43	2064.74
548.79	2072.77
549.14	2080.45
549.50	2087.87
549.86	2095.56
550.21	2103.00
550.57	2110.20
550.92	2116.69
551.28	2123.71
551.64	2130.82
551.99	2137.36
552.35	2143.58
552.70	2149.75
553.06	2155.80
553.41	2162.19
553.77	2168.27
554.13	2174.38
554.48	2180.55
554.84	2185.99
555.19	2191.33
555.55	2196.50
555.90	2200.98
556.26	2205.87
556.61	2210.48
556.97	2214.71
557.32	2218.84
557.68	2222.92
558.03	2227.16
558.39	2230.97
558.74	2235.51
559.10	2239.28
559.45	2243.05
559.81	2247.29
560.16	2250.98
560.52	2254.21
560.87	2257.69
561.23	2260.32
561.58	2263.38
561.94	2266.11
562.29	2268.66
562.64	2271.31
563.00	2273.93
563.35	2277.48
563.71	2280.62
564.06	2283.93
564.42	2286.65
564.77	2289.02
565.12	2291.33
565.48	2293.25
565.83	2295.07
566.19	2296.46
566.54	2297.50
566.89	2298.41
567.25	2298.99
567.60	2300.43
567.96	2301.98
568.31	2302.90
568.66	2304.06
569.02	2304.64
569.37	2304.83
569.72	2305.55
570.08	2305.59
570.43	2305.70
570.78	2305.00
571.14	2303.33
571.49	2301.83
571.84	2301.58
572.20	2300.45
572.55	2299.30
572.90	2297.65
573.26	2296.38
573.61	2294.59
573.96	2292.56
574.31	2289.63
574.67	2286.63
575.02	2282.89
575.37	2279.37
575.72	2275.38
576.08	2271.96
576.43	2268.46
576.78	2264.68
577.13	2261.50
577.49	2258.45
577.84	2254.78
578.19	2251.17
578.54	2247.52
578.90	2243.19
579.25	2237.61
579.60	2232.67
579.95	2227.61
580.30	2222.62
580.66	2217.29
581.01	2212.26
581.36	2207.32
581.71	2203.02
582.06	2198.54
582.42	2193.98
582.77	2188.89
583.12	2184.38
583.47	2179.55
583.82	2174.43
584.17	2169.07
584.53	2163.37
584.88	2157.55
585.23	2151.76
585.58	2146.06
585.93	2140.54
586.28	2135.87
586.63	2130.58
586.98	2125.48
587.34	2120.74
587.69	2115.69
588.04	2110.43
588.39	2104.76
588.74	2098.28
589.09	2092.07
589.44	2085.18
589.79	2079.16
590.14	2073.35
590.49	2066.77
590.84	2060.40
591.19	2054.38
591.54	2047.88
591.89	2040.54
592.25	2033.80
592.60	2026.47
592.95	2018.90
593.30	2011.59
593.65	2003.89
594.00	1997.00
594.35	1989.69
594.70	1981.54
595.05	1974.27
595.40	1966.99
595.75	1959.56
596.10	1953.35
596.45	1946.69
596.80	1940.44
597.15	1933.79
597.50	1926.60
597.85	1920.02
598.19	1913.32
598.54	1906.08
598.89	1899.50
599.24	1893.71
599.59	1886.93
599.94	1880.91
600.29	1874.53
600.64	1867.92
600.99	1860.49
601.34	1853.61
601.69	1846.67
602.04	1839.89
602.39	1832.72
602.74	1825.81
603.08	1819.00
603.43	1812.24
603.78	1804.86
604.13	1797.61
604.48	1790.39
604.83	1783.70
605.18	1776.62
605.53	1768.57
605.87	1760.68
606.22	1753.45
606.57	1745.41
606.92	1738.11
607.27	1730.82
607.62	1723.85
607.96	1716.49
608.31	1709.82
608.66	1702.24
609.01	1694.64
609.36	1687.12
609.70	1678.95
610.05	1670.81
610.40	1662.98
610.75	1654.59
611.10	1646.93
611.44	1638.70
611.79	1630.66
612.14	1621.89
612.49	1612.92
612.83	1604.63
613.18	1596.48
613.53	1588.42
613.88	1579.89
614.22	1571.61
614.57	1562.93
614.92	1554.98
615.27	1547.43
615.61	1539.06
615.96	1531.00
616.31	1523.31
616.65	1515.85
617.00	1508.26
617.35	1500.63
617.70	1492.41
618.04	1483.94
618.39	1475.60
618.74	1467.94
619.08	1459.68
619.43	1452.20
619.78	1445.27
620.12	1437.94
620.47	1430.43
620.82	1422.30
621.16	1414.92
621.51	1407.31
621.85	1399.67
622.20	1391.08
622.55	1382.75
622.89	1374.91
623.24	1367.31
623.59	1360.00
623.93	1352.55
624.28	1345.32
624.62	1337.79
624.97	1330.58
625.32	1323.86
625.66	1316.99
626.01	1309.70
626.35	1302.09
626.70	1294.21
627.04	1286.35
627.39	1278.67
627.73	1271.20
628.08	1264.17
628.43	1256.76
628.77	1249.28
629.12	1241.80
629.46	1234.65
629.81	1227.21
630.15	1220.00
630.50	1212.50
630.84	1204.26
631.19	1196.26
631.53	1188.84
631.88	1181.25
632.22	1173.61
632.57	1166.24
632.91	1158.63
633.26	1151.16
633.60	1143.87
633.95	1136.86
634.29	1129.89
634.64	1123.17
634.98	1115.84
635.32	1108.70
635.67	1102.16
636.01	1095.63
636.36	1088.82
636.70	1082.30
637.05	1075.80
637.39	1069.35
637.73	1062.85
638.08	1057.01
638.42	1051.00
638.77	1044.56
639.11	1037.92
639.45	1031.59
639.80	1024.96
640.14	1018.58
640.49	1012.11
640.83	1005.85
641.17	999.55
641.52	993.22
641.86	986.83
642.20	980.95
642.55	974.71
642.89	968.32
643.23	961.78
643.58	956.09
643.92	949.94
644.26	943.83
644.61	937.87
644.95	931.83
645.29	925.20
645.64	918.54
645.98	912.16
646.32	906.42
646.66	900.37
647.01	894.52
647.35	888.78
647.69	883.03
648.04	877.49
648.38	871.68
648.72	865.58
649.06	859.45
649.41	853.59
649.75	847.58
650.09	841.55
650.43	835.73
650.78	829.56
651.12	823.55
651.46	817.82
651.80	811.93
652.14	806.63
652.49	801.30
652.83	796.09
653.17	790.43
653.51	784.63
653.85	779.19
654.20	773.59
654.54	767.64
654.88	761.89
655.22	756.01
655.56	750.38
655.90	745.03
656.25	739.81
656.59	734.47
656.93	729.38
657.27	724.32
657.61	718.93
657.95	713.80
658.29	708.74
658.64	703.52
658.98	698.33
659.32	692.87
659.66	687.64
660.00	682.35
660.34	677.50
660.68	672.63
661.02	667.64
661.36	662.95
661.70	658.41
662.05	653.99
662.39	649.67
662.73	645.28
663.07	640.94
663.41	636.47
663.75	631.97
664.09	627.45
664.43	622.98
664.77	618.85
665.11	614.61
665.45	610.55
665.79	606.47
666.13	602.32
666.47	598.14
666.81	593.99
667.15	589.88
667.49	585.91
667.83	582.13
668.17	578.17
668.51	574.05
668.85	570.07
669.19	566.25
669.53	562.39
669.87	558.43
670.21	554.74
670.55	551.16
670.89	547.74
671.23	544.25
671.57	540.77
671.91	537.22
672.25	533.70
672.58	530.21
672.92	526.77
673.26	523.62
673.60	520.53
673.94	517.40
674.28	514.46
674.62	511.50
674.96	508.36
675.30	505.49
675.64	502.62
675.97	499.91
676.31	497.07
676.65	494.19
676.99	491.54
677.33	488.68
677.67	485.79
678.01	482.77
678.34	479.74
678.68	476.86
679.02	473.99
679.36	471.21
679.70	468.48
680.04	465.72
680.37	462.80
680.71	459.98
681.05	457.38
681.39	454.66
681.73	452.07
682.06	449.54
682.40	446.97
682.74	444.43
683.08	441.86
683.42	439.27
683.75	436.77
684.09	434.25
684.43	431.71
684.77	429.32
685.10	426.98
685.44	424.74
685.78	422.48
686.12	420.35
686.45	418.11
686.79	415.81
687.13	413.69
687.46	411.57
687.80	409.48
688.14	407.31
688.48	405.24
688.81	402.97
689.15	400.84
689.49	398.69
689.82	396.64
690.16	394.52
690.50	392.54
690.83	390.58
691.17	388.55
691.51	386.69
691.84	384.79
692.18	382.86
692.52	380.91
692.85	378.96
693.19	377.05
693.52	375.27
693.86	373.46
694.20	371.64
694.53	369.85
694.87	368.00
695.21	366.21
695.54	364.45
695.88	362.69
696.21	360.98
696.55	359.36
696.88	357.65
697.22	356.05
697.56	354.46
697.89	352.80
698.23	351.24
698.56	349.65
698.90	348.11
699.23	346.48
699.57	344.94
699.90	343.42
700.24	341.88
700.58	340.31
700.91	338.82
701.25	337.43
701.58	336.07
701.92	334.72
702.25	333.32
702.59	331.93
702.92	330.68
703.26	329.40
703.59	328.05
703.93	326.87
704.26	325.61
704.60	324.32
704.93	323.03
705.26	321.77
705.60	320.54
705.93	319.36
706.27	318.37
706.60	317.31
706.94	316.20
707.27	315.07
707.61	313.98
707.94	312.93
708.27	311.81
708.61	310.72
708.94	309.70
709.28	308.71
709.61	307.77
709.94	306.74
710.28	305.68
710.61	304.76
710.95	303.70
711.28	302.77
711.61	301.78
711.95	300.86
712.28	299.85
712.61	298.90
712.95	298.00
713.28	297.10
713.61	296.18
713.95	295.28
714.28	294.44
714.61	293.60
714.95	292.77
715.28	291.90
715.61	290.99
715.95	290.12
716.28	289.28
716.61	288.44
716.95	287.62
717.28	286.90
717.61	286.13
717.94	285.38
718.28	284.53
718.61	283.81
718.94	283.08
719.27	282.44
719.61	281.75
719.94	281.06
720.27	280.32
720.60	279.66
720.94	279.04
721.27	278.43
721.60	277.83
721.93	277.22
722.27	276.65
722.60	276.12
722.93	275.54
723.26	275.06
723.59	274.50
723.93	273.97
724.26	273.40
724.59	272.81
724.92	272.33
725.25	271.89
725.59	271.41
725.92	270.95
726.25	270.46
726.58	270.00
726.91	269.51
727.24	269.04
727.57	268.59
727.91	268.10
728.24	267.64
728.57	267.17
728.90	266.74
729.23	266.28
729.56	265.84
729.89	265.36
730.22	264.84
730.55	264.34
730.89	263.91
731.22	263.47
731.55	263.06
731.88	262.59
732.21	262.13
732.54	261.67
732.87	261.23
733.20	260.83
733.53	260.45
733.86	260.08
734.19	259.69
734.52	259.28
734.85	259.01
735.18	258.60
735.51	258.27
735.84	257.86
736.17	257.54
736.50	257.15
736.83	256.92
737.16	256.59
737.49	256.30
737.82	255.96
738.15	255.62
738.48	255.30
738.81	255.02
739.14	254.72
739.47	254.42
739.80	254.15
740.13	253.84
740.46	253.51
740.79	253.16
741.12	252.83
741.45	252.53
741.78	252.17
742.11	251.89
742.44	251.56
742.77	251.31
743.10	250.96
743.43	250.63
743.75	250.27
744.08	250.15
744.41	249.89
744.74	249.61
745.07	249.31
745.40	249.05
745.73	248.80
746.06	248.50
746.39	248.22
746.71	247.93
747.04	247.65
747.37	247.40
747.70	247.21
748.03	246.96
748.36	246.74
748.68	246.52
749.01	246.27
749.34	246.02
749.67	245.75
750.00	245.54
750.33	245.41
750.65	245.18
750.98	244.82
751.31	244.61
751.64	244.42
751.97	244.28
752.29	244.04
752.62	243.78
752.95	243.61
753.28	243.38
753.60	243.20
753.93	243.06
754.26	242.85
754.59	242.60
754.91	242.41
755.24	242.20
755.57	241.98
755.90	241.75
756.22	241.58
756.55	241.36
756.88	241.20
757.20	240.98
757.53	240.78
757.86	240.58
758.19	240.39
758.51	240.22
758.84	240.01
759.17	239.88
759.49	239.74
759.82	239.60
760.15	239.45
760.47	239.30
760.80	239.08
761.13	238.97
761.45	238.82
761.78	238.69
762.11	238.55
762.43	238.41
762.76	238.29
763.08	238.15
763.41	238.06
763.74	237.92
764.06	237.82
764.39	237.75
764.71	237.63
765.04	237.52
765.37	237.40
765.69	237.27
766.02	237.14
766.34	237.03
766.67	236.88
767.00	236.78
767.32	236.71
767.65	236.70
767.97	236.58
768.30	236.43
768.62	236.31
768.95	236.21
769.27	236.10
769.60	236.02
769.92	235.90
770.25	235.77
770.57	235.66
770.90	235.51
771.22	235.35
771.55	235.27
771.87	235.18
772.20	235.08
772.52	235.06
772.85	235.05
773.17	234.97
773.50	234.86
773.82	234.78
774.15	234.67
774.47	234.51
774.80	234.39
775.12	234.38
775.45	234.31
775.77	234.22
776.09	234.16
776.42	234.06
776.74	234.04
777.07	233.98
777.39	233.88
777.72	233.81
778.04	233.77
778.36	233.66
778.69	233.58
779.01	233.51
779.33	233.36
779.66	233.20
779.98	233.08
780.31	233.03
780.63	233.01
780.95	232.92
781.28	232.84
781.60	232.80
781.92	232.67
782.25	232.58
782.57	232.53
782.89	232.45
783.22	232.38
783.54	232.28
783.86	232.20
784.19	232.15
784.51	232.13
784.83	232.07
785.16	232.01
785.48	231.95
785.80	231.89
786.12	231.84
786.45	231.78
786.77	231.76
787.09	231.71
787.42	231.62
787.74	231.59
788.06	231.56
788.38	231.51
788.71	231.49
789.03	231.48
789.35	231.44
789.67	231.41
789.99	231.35
790.32	231.30
790.64	231.29
790.96	231.35
791.28	231.28
791.61	231.22
791.93	231.18
792.25	231.15
792.57	231.17
792.89	231.11
793.21	231.07
793.54	230.99
793.86	230.92
794.18	230.87
794.50	230.79
794.82	230.74
795.14	230.70
795.47	230.70
795.79	230.63
796.11	230.57
796.43	230.53
796.75	230.50
797.07	230.49
797.39	230.41
797.71	230.29
798.04	230.22
798.36	230.18
798.68	230.16
799.00	230.14
799.32	230.05
799.64	230.08
799.96	230.08
800.28	230.08
800.60	230.08
800.92	230.06
801.24	230.00
801.56	229.99
801.89	229.99
802.21	229.96
802.53	229.91
802.85	229.91
803.17	229.90
803.49	229.86
803.81	229.82
804.13	229.79
804.45	229.75
804.77	229.77
805.09	229.75
805.41	229.72
805.73	229.65
806.05	229.62
806.37	229.58
806.69	229.54
807.01	229.51
807.33	229.49
807.65	229.47
807.97	229.53
808.28	229.47
808.60	229.42
808.92	229.33
809.24	229.42
809.56	229.38
809.88	229.34
810.20	229.34
810.52	229.34
810.84	229.29
811.16	229.27
811.48	229.23
811.80	229.23
812.12	229.17
812.43	229.20
812.75	229.18
813.07	229.15
813.39	229.10
813.71	229.07
814.03	229.03
814.35	228.98
814.67	228.90
814.98	228.87
815.30	228.83
815.62	228.84
815.94	228.71
816.26	228.73
816.58	228.66
816.89	228.66
817.21	228.63
817.53	228.62
817.85	228.57
818.17	228.56
818.48	228.50
818.80	228.50
819.12	228.44
819.44	228.42
819.76	228.35
820.07	228.35
820.39	228.32
820.71	228.31
821.03	228.31
821.34	228.27
821.66	228.29
821.98	228.29
822.30	228.22
822.61	228.28
822.93	228.20
823.25	228.18
823.57	228.12
823.88	228.08
824.20	228.07
824.52	228.12
824.83	228.06
825.15	228.03
825.47	228.05
825.79	228.05
826.10	228.01
826.42	228.01
826.74	228.00
827.05	228.00
827.37	227.95
827.69	227.94
828.00	227.99
828.32	227.96
828.64	227.90
828.95	227.96
829.27	227.93
829.58	227.92
829.90	227.92
830.22	227.90
830.53	227.91
830.85	227.91
831.17	227.85
831.48	227.89
831.80	227.93
832.11	227.92
832.43	227.92
832.75	227.96
833.06	228.02
833.38	227.98
833.69	227.97
834.01	227.99
834.32	227.99
834.64	227.95
834.96	227.98
835.27	227.98
835.59	227.94
835.90	227.90
836.22	227.94
836.53	227.97
836.85	227.99
837.16	228.06
837.48	228.06
837.79	228.07
838.11	228.08
838.42	228.04
838.74	227.99
839.05	227.96
839.37	227.93
839.68	227.87
840.00	227.84
840.31	227.84
840.63	227.81
840.94	227.78
841.26	227.77
841.57	227.75
841.88	227.77
842.20	227.77
842.51	227.79
842.83	227.77
843.14	227.83
843.46	227.84
843.77	227.79
844.08	227.76
844.40	227.73
844.71	227.66
845.03	227.65
845.34	227.67
845.65	227.67
845.97	227.65
846.28	227.68
846.60	227.71
846.91	227.68
847.22	227.69
847.54	227.73
847.85	227.72
848.16	227.71
848.48	227.69
848.79	227.72
849.10	227.71
849.42	227.69
849.73	227.59
850.04	227.56
850.36	227.52
850.67	227.55
850.98	227.56
851.30	227.58
851.61	227.59
851.92	227.57
852.23	227.60
852.55	227.60
852.86	227.56
853.17	227.56
853.49	227.56
853.80	227.59
854.11	227.57
854.42	227.54
854.74	227.52
855.05	227.49
855.36	227.43
855.67	227.42
855.99	227.40
856.30	227.50
856.61	227.50
856.92	227.48
857.23	227.45
857.55	227.43
857.86	227.41
858.17	227.41
858.48	227.40
858.79	227.36
859.11	227.35
859.42	227.34
859.73	227.31
860.04	227.33
860.35	227.28
860.66	227.26
860.98	227.28
861.29	227.27
861.60	227.27
861.91	227.32
862.22	227.28
862.53	227.27
862.84	227.16
863.16	227.17
863.47	227.15
863.78	227.15
864.09	227.19
864.40	227.21
864.71	227.24
865.02	227.24
865.33	227.26
865.64	227.26
865.95	227.27
866.27	227.34
866.58	227.32
866.89	227.35
867.20	227.34
867.51	227.33
867.82	227.34
868.13	227.40
868.44	227.35
868.75	227.39
869.06	227.42
869.37	227.42
869.68	227.41
869.99	227.40
870.30	227.44
870.61	227.42
870.92	227.40
871.23	227.35
871.54	227.36
871.85	227.36
872.16	227.36
872.47	227.39
872.78	227.33
873.09	227.35
873.40	227.32
873.71	227.32
874.02	227.34
874.33	227.33
874.64	227.31
874.95	227.32
875.26	227.30
875.56	227.32
875.87	227.33
876.18	227.34
876.49	227.47
876.80	227.43
877.11	227.42
877.42	227.44
877.73	227.42
878.04	227.41
878.35	227.41
878.66	227.41
878.96	227.38
879.27	227.41
879.58	227.37
879.89	227.32
880.20	227.38
880.51	227.35
880.82	227.32
881.12	227.30
881.43	227.27
881.74	227.26
882.05	227.24
882.36	227.23
882.67	227.24
882.97	227.14
883.28	227.14
883.59	227.15
883.90	227.15
884.21	227.20
884.51	227.22
884.82	227.16
885.13	227.14
885.44	227.12
885.74	227.08
886.05	227.12
886.36	227.19
886.67	227.13
886.98	227.17
887.28	227.20
887.59	227.20
887.90	227.21
888.20	227.20
888.51	227.21
888.82	227.22
889.13	227.21
889.43	227.28
889.74	227.27
890.05	227.23
890.35	227.21
890.66	227.19
890.97	227.18
891.28	227.19
891.58	227.20
891.89	227.19
892.20	227.18
892.50	227.13
892.81	227.08
893.12	227.08
893.42	227.06
893.73	227.06
894.04	227.05
894.34	227.05
894.65	227.08
894.95	227.04
895.26	226.97
895.57	226.97
895.87	226.87
896.18	226.90
896.48	226.90
896.79	226.89
897.10	226.90
897.40	226.87
897.71	226.90
898.01	226.91
898.32	226.92
898.63	226.94
898.93	226.96
899.24	226.94
899.54	226.91
899.85	226.88
900.15	226.88
900.46	226.89
900.76	226.89
901.07	226.87
901.38	226.88
901.68	226.92
901.99	226.91
902.29	226.90
902.60	226.90
902.90	226.89
903.21	226.89
903.51	226.88
903.82	226.89
904.12	226.86
904.43	226.86
904.73	226.84
905.03	226.84
905.34	226.88
905.64	226.89
905.95	226.90
906.25	226.92
906.56	226.90
906.86	226.91
907.17	226.91
907.47	226.92
907.77	226.91
908.08	226.90
908.38	226.93
908.69	226.95
908.99	226.96
909.30	227.00
909.60	227.02
909.90	227.03
910.21	227.02
910.51	227.03
910.81	227.04
911.12	227.07
911.42	227.06
911.73	227.02
912.03	227.04
912.33	227.07
912.64	227.08
912.94	227.06
913.24	227.04
913.55	227.05
913.85	227.07
914.15	227.10
914.46	227.13
914.76	227.11
915.06	227.10
915.37	227.06
915.67	227.05
915.97	227.09
916.27	227.08
916.58	227.10
916.88	227.10
917.18	227.09
917.49	227.18
917.79	227.17
918.09	227.19
918.39	227.22
918.70	227.20
919.00	227.21
919.30	227.25
919.60	227.26
919.91	227.21
920.21	227.21
920.51	227.16
920.81	227.17
921.12	227.20
921.42	227.17
921.72	227.20
922.02	227.17
922.32	227.17
922.63	227.14
922.93	227.17
923.23	227.19
923.53	227.15
923.83	227.04
924.13	227.05
924.44	227.04
924.74	227.02
925.04	227.05
925.34	227.04
925.64	227.02
925.94	227.00
926.24	227.07
926.55	227.05
926.85	227.04
927.15	227.02
927.45	227.01
927.75	227.02
928.05	227.03
928.35	227.03
928.65	227.03
928.95	227.04
929.26	227.03
929.56	227.02
929.86	227.03
930.16	227.06
930.46	227.09
930.76	227.09
931.06	227.09
931.36	227.06
931.66	227.07
931.96	227.08
932.26	227.08
932.56	227.05
932.86	227.07
933.16	227.06
933.46	227.06
933.76	227.02
934.06	227.04
934.36	227.04
934.66	227.04
934.96	227.04
935.26	227.06
935.56	227.04
935.86	227.03
936.16	227.02
936.46	226.97
936.76	226.94
937.06	226.93
937.36	226.92
937.66	226.88
937.96	226.86
938.26	226.83
938.56	226.82
938.86	226.80
939.16	226.79
939.46	226.83
939.76	226.84
940.06	226.84
940.35	226.79
940.65	226.76
940.95	226.78
941.25	226.72
941.55	226.69
941.85	226.65
942.15	226.67
942.45	226.75
942.75	226.76
943.04	226.78
943.34	226.81
943.64	226.82
943.94	226.83
944.24	226.83
944.54	226.82
944.84	226.85
945.13	226.86
945.43	226.86
945.73	226.86
946.03	226.87
946.33	226.87
946.62	226.89
946.92	226.92
947.22	226.89
947.52	226.90
947.82	226.93
948.11	226.95
948.41	226.93
948.71	226.87
949.01	226.90
949.31	226.87
949.60	226.86
949.90	226.87
950.20	226.90
950.50	226.94
950.79	226.95
951.09	226.96
951.39	226.95
951.69	226.94
951.98	226.96
952.28	226.98
952.58	227.01
952.87	227.04
953.17	227.05
953.47	227.06
953.76	227.06
954.06	227.05
954.36	227.07
954.66	227.06
954.95	227.11
955.25	227.14
955.55	227.19
955.84	227.16
956.14	227.16
956.44	227.16
956.73	227.12
957.03	227.12
957.32	227.11
957.62	227.12
957.92	227.16
958.21	227.11
958.51	227.18
958.81	227.15
959.10	227.17
959.40	227.16
959.69	227.19
959.99	227.20
960.29	227.17
960.58	227.15
960.88	227.23
961.17	227.19
961.47	227.18
961.76	227.14
962.06	227.16
962.36	227.17
962.65	227.13
962.95	227.14
963.24	227.14
963.54	227.15
963.83	227.12
964.13	227.11
964.42	227.09
964.72	227.02
965.01	227.00
965.31	226.94
965.60	226.92
965.90	226.95
966.19	226.94
966.49	226.96
966.78	226.93
967.08	226.88
967.37	226.88
967.67	226.86
967.96	226.87
968.26	226.85
968.55	226.83
968.85	226.85
969.14	226.81
969.43	226.85
969.73	226.80
970.02	226.80
970.32	226.76
970.61	226.79
970.91	226.78
971.20	226.75
971.49	226.75
971.79	226.75
972.08	226.70
972.38	226.68
972.67	226.68
972.96	226.70
973.26	226.68
973.55	226.73
973.85	226.68
974.14	226.68
974.43	226.67
974.73	226.64
975.02	226.62
975.31	226.66
975.61	226.62
975.90	226.62
976.19	226.61
976.49	226.64
976.78	226.66
977.07	226.63
977.37	226.66
977.66	226.69
977.95	226.69
978.24	226.69
978.54	226.73
978.83	226.72
979.12	226.68
979.42	226.69
979.71	226.67
980.00	226.69
980.29	226.69
980.59	226.70
980.88	226.73
981.17	226.76
981.46	226.75
981.76	226.74
982.05	226.79
982.34	226.81
982.63	226.82
982.93	226.79
983.22	226.82
983.51	226.81
983.80	226.80
984.09	226.81
984.39	226.78
984.68	226.75
984.97	226.80
985.26	226.82
985.55	226.82
985.85	226.78
986.14	226.80
986.43	226.82
986.72	226.81
987.01	226.80
987.30	226.79
987.59	226.79
987.89	226.81
988.18	226.79
988.47	226.80
988.76	226.80
989.05	226.80
989.34	226.79
989.63	226.81
989.92	226.84
990.22	226.85
990.51	226.87
990.80	226.90
991.09	226.85
991.38	226.88
991.67	226.86
991.96	226.88
992.25	226.89
992.54	226.87
992.83	226.86
993.12	226.83
993.41	226.84
993.70	226.87
993.99	226.88
994.28	226.89
994.58	226.91
994.87	226.88
995.16	226.87
995.45	226.87
995.74	226.83
996.03	226.80
996.32	226.81
996.61	226.84
996.90	226.83
997.19	226.84
997.48	226.87
997.77	226.89
998.06	226.90
998.34	226.87
998.63	226.89
998.92	226.89
999.21	226.89
999.50	226.89
999.79	226.84
1000.08	226.82
1000.37	226.79
1000.66	226.75
1000.95	226.77
1001.24	226.77
1001.53	226.77
1001.82	226.79
1002.11	226.77
1002.40	226.77
1002.68	226.77
1002.97	226.81
1003.26	226.78
1003.55	226.73
1003.84	226.71
1004.13	226.75
1004.42	226.75
1004.71	226.69
1004.99	226.70
1005.28	226.74
1005.57	226.72
1005.86	226.73
1006.15	226.72
1006.44	226.73
1006.72	226.74
1007.01	226.70
1007.30	226.73
1007.59	226.71
1007.88	226.72
1008.17	226.72
1008.45	226.70
1008.74	226.65
1009.03	226.63
1009.32	226.62
1009.60	226.63
1009.89	226.64
1010.18	226.58
1010.47	226.61
1010.76	226.61
1011.04	226.61
1011.33	226.64
1011.62	226.67
1011.91	226.68
1012.19	226.71
1012.48	226.70
1012.77	226.70
1013.05	226.77
1013.34	226.75
1013.63	226.75
1013.92	226.76
1014.20	226.78
1014.49	226.80
1014.78	226.85
1015.06	226.83
1015.35	226.84
1015.64	226.84
1015.92	226.84
1016.21	226.86
1016.50	226.84
1016.78	226.89
1017.07	226.90
1017.36	226.87
1017.64	226.84
1017.93	226.87
1018.22	226.86
1018.50	226.87
1018.79	226.88
1019.08	226.82
1019.36	226.84
1019.65	226.83
1019.93	226.85
1020.22	226.86
1020.51	226.91
1020.79	226.86
1021.08	226.77
1021.36	226.56
1021.65	226.75
1021.94	226.22
1022.22	227.09
1022.51	226.45
1022.79	227.50
1023.08	226.93
1023.36	228.11
1023.65	226.13
>>>>>End Processed Spectral Data<<<<<
