SpectraSuite Data File
++++++++++++++++++++++++++++++++++++
Date: Fri Feb 01 16:16:46 EST 2013
User: group
Dark Spectrum Present: No
Reference Spectrum Present: No
Number of Sampled Component Spectra: 1
Spectrometers: USB2E7196
Integration Time (usec): 35000 (USB2E7196)
Spectra Averaged: 100 (USB2E7196)
Boxcar Smoothing: 10 (USB2E7196)
Correct for Electrical Dark: No (USB2E7196)
Strobe/Lamp Enabled: No (USB2E7196)
Correct for Detector Non-linearity: No (USB2E7196)
Correct for Stray Light: No (USB2E7196)
Number of Pixels in Processed Spectrum: 2048
>>>>>Begin Processed Spectral Data<<<<<
339.09	0.00
339.48	213.97
339.86	215.47
340.24	217.23
340.63	218.63
341.01	221.10
341.39	220.70
341.78	222.02
342.16	223.68
342.54	223.94
342.93	212.45
343.31	223.20
343.69	223.77
344.07	224.25
344.46	224.68
344.84	225.07
345.22	225.31
345.60	225.57
345.99	225.79
346.37	225.92
346.75	226.04
347.13	226.12
347.52	226.17
347.90	226.28
348.28	226.39
348.66	226.46
349.05	226.47
349.43	226.51
349.81	226.57
350.19	226.61
350.57	226.71
350.96	226.74
351.34	226.81
351.72	226.87
352.10	227.00
352.48	227.06
352.87	227.10
353.25	227.20
353.63	227.28
354.01	227.34
354.39	227.42
354.77	227.48
355.15	227.62
355.54	227.68
355.92	227.70
356.30	227.73
356.68	227.88
357.06	227.94
357.44	227.98
357.82	228.03
358.20	228.11
358.58	228.16
358.97	228.23
359.35	228.29
359.73	228.39
360.11	228.39
360.49	228.45
360.87	228.51
361.25	228.54
361.63	228.61
362.01	228.63
362.39	228.64
362.77	228.70
363.15	228.70
363.53	228.71
363.91	228.76
364.29	228.77
364.67	228.68
365.05	228.70
365.43	228.72
365.81	228.73
366.19	228.77
366.57	228.80
366.95	228.79
367.33	228.77
367.71	228.73
368.09	228.76
368.47	228.72
368.85	228.68
369.23	228.67
369.61	228.61
369.99	228.63
370.37	228.62
370.75	228.61
371.13	228.54
371.51	228.48
371.89	228.44
372.27	228.38
372.65	228.36
373.03	228.32
373.41	228.26
373.78	228.22
374.16	228.13
374.54	228.05
374.92	227.97
375.30	227.92
375.68	227.86
376.06	227.79
376.44	227.72
376.82	227.66
377.19	227.59
377.57	227.49
377.95	227.38
378.33	227.30
378.71	227.18
379.09	227.12
379.47	227.07
379.84	226.99
380.22	226.89
380.60	226.79
380.98	226.73
381.36	226.66
381.73	226.55
382.11	226.49
382.49	226.41
382.87	226.37
383.25	226.30
383.62	226.33
384.00	226.23
384.38	226.19
384.76	226.14
385.13	226.13
385.51	226.12
385.89	226.04
386.27	226.02
386.64	226.00
387.02	225.95
387.40	225.87
387.78	225.83
388.15	225.85
388.53	225.81
388.91	225.75
389.29	225.72
389.66	225.73
390.04	225.69
390.42	225.71
390.79	225.68
391.17	225.67
391.55	225.56
391.92	225.57
392.30	225.58
392.68	225.55
393.05	225.50
393.43	225.51
393.81	225.56
394.18	225.55
394.56	225.57
394.94	225.60
395.31	225.66
395.69	225.71
396.06	225.73
396.44	225.79
396.82	225.84
397.19	225.92
397.57	225.98
397.95	226.05
398.32	226.09
398.70	226.17
399.07	226.27
399.45	226.36
399.82	226.41
400.20	226.45
400.58	226.56
400.95	226.64
401.33	226.72
401.70	226.85
402.08	226.91
402.45	227.02
402.83	227.17
403.20	227.26
403.58	227.34
403.95	227.48
404.33	227.60
404.71	227.74
405.08	227.89
405.46	227.99
405.83	228.13
406.21	228.27
406.58	228.44
406.96	228.59
407.33	228.76
407.70	228.96
408.08	229.25
408.45	229.46
408.83	229.67
409.20	229.89
409.58	230.05
409.95	230.33
410.33	230.57
410.70	230.83
411.08	231.16
411.45	231.43
411.82	231.67
412.20	232.02
412.57	232.40
412.95	232.72
413.32	233.14
413.69	233.55
414.07	233.96
414.44	234.39
414.82	234.85
415.19	235.38
415.56	235.93
415.94	236.45
416.31	237.08
416.68	237.68
417.06	238.38
417.43	239.10
417.81	239.87
418.18	240.65
418.55	241.46
418.93	242.30
419.30	243.25
419.67	244.23
420.04	245.18
420.42	246.16
420.79	247.31
421.16	248.42
421.54	249.59
421.91	250.79
422.28	252.03
422.66	253.35
423.03	254.64
423.40	255.95
423.77	257.34
424.15	258.75
424.52	260.26
424.89	261.85
425.26	263.41
425.64	264.86
426.01	266.45
426.38	268.08
426.75	269.76
427.13	271.48
427.50	273.29
427.87	275.18
428.24	277.08
428.61	278.81
428.99	280.80
429.36	282.87
429.73	284.90
430.10	286.94
430.47	289.02
430.85	291.13
431.22	293.38
431.59	295.80
431.96	298.07
432.33	300.57
432.70	302.97
433.08	305.77
433.45	308.43
433.82	311.01
434.19	313.90
434.56	316.73
434.93	319.38
435.30	322.02
435.68	324.85
436.05	327.67
436.42	330.45
436.79	332.98
437.16	335.71
437.53	338.57
437.90	341.37
438.27	344.07
438.64	346.90
439.01	349.48
439.38	351.72
439.75	353.85
440.13	356.33
440.50	358.64
440.87	360.46
441.24	362.41
441.61	364.57
441.98	366.03
442.35	367.79
442.72	369.64
443.09	371.40
443.46	372.39
443.83	372.95
444.20	373.48
444.57	374.27
444.94	374.56
445.31	374.87
445.68	375.22
446.05	375.29
446.42	374.90
446.79	374.46
447.16	373.98
447.53	373.63
447.90	372.46
448.27	371.26
448.64	369.65
449.01	368.47
449.37	366.53
449.74	364.64
450.11	362.38
450.48	359.87
450.85	357.38
451.22	355.27
451.59	353.27
451.96	351.33
452.33	348.72
452.70	346.33
453.07	343.55
453.43	340.67
453.80	337.88
454.17	335.19
454.54	332.66
454.91	329.94
455.28	327.27
455.65	324.77
456.02	322.38
456.38	320.23
456.75	317.54
457.12	315.27
457.49	313.05
457.86	310.86
458.23	308.99
458.59	306.94
458.96	304.86
459.33	303.02
459.70	301.21
460.07	299.72
460.43	298.00
460.80	296.39
461.17	294.94
461.54	293.49
461.91	292.09
462.27	290.64
462.64	289.42
463.01	288.09
463.38	286.82
463.74	285.41
464.11	284.26
464.48	283.31
464.85	282.22
465.21	281.39
465.58	280.53
465.95	279.48
466.32	278.55
466.68	277.63
467.05	276.71
467.42	275.80
467.78	274.92
468.15	274.08
468.52	273.39
468.88	272.55
469.25	271.81
469.62	271.21
469.98	270.57
470.35	269.94
470.72	269.37
471.08	268.74
471.45	268.26
471.82	267.75
472.18	267.14
472.55	266.70
472.92	266.17
473.28	265.68
473.65	265.28
474.02	264.85
474.38	264.50
474.75	264.22
475.11	263.88
475.48	263.60
475.85	263.39
476.21	263.16
476.58	262.94
476.94	262.80
477.31	262.65
477.67	262.52
478.04	262.40
478.41	262.35
478.77	262.38
479.14	262.31
479.50	262.32
479.87	262.42
480.23	262.50
480.60	262.58
480.96	262.69
481.33	262.90
481.69	263.12
482.06	263.31
482.42	263.50
482.79	263.77
483.15	264.09
483.52	264.48
483.88	264.86
484.25	265.28
484.61	265.67
484.98	266.14
485.34	266.70
485.71	267.31
486.07	267.92
486.44	268.49
486.80	269.24
487.17	269.99
487.53	270.82
487.90	271.68
488.26	272.63
488.62	273.66
488.99	274.63
489.35	275.68
489.72	276.84
490.08	278.02
490.44	279.26
490.81	280.61
491.17	281.92
491.54	283.42
491.90	284.97
492.26	286.67
492.63	288.40
492.99	290.20
493.36	292.08
493.72	294.11
494.08	296.25
494.45	298.48
494.81	300.87
495.17	303.28
495.54	305.88
495.90	308.55
496.26	311.36
496.63	314.31
496.99	317.43
497.35	320.64
497.72	324.07
498.08	327.58
498.44	331.24
498.80	335.17
499.17	339.20
499.53	343.40
499.89	347.81
500.26	352.35
500.62	356.99
500.98	362.02
501.34	367.09
501.71	372.42
502.07	377.82
502.43	383.44
502.79	389.29
503.16	395.36
503.52	401.59
503.88	408.00
504.24	414.62
504.60	421.51
504.97	428.69
505.33	436.06
505.69	443.81
506.05	451.61
506.41	459.48
506.78	467.64
507.14	476.06
507.50	484.74
507.86	493.69
508.22	502.91
508.59	512.08
508.95	521.66
509.31	531.47
509.67	541.59
510.03	551.89
510.39	562.43
510.75	573.18
511.12	584.12
511.48	595.41
511.84	606.88
512.20	618.41
512.56	630.36
512.92	642.52
513.28	654.85
513.64	667.23
514.00	680.03
514.37	693.08
514.73	706.19
515.09	719.24
515.45	732.58
515.81	746.19
516.17	760.21
516.53	774.30
516.89	788.46
517.25	802.71
517.61	817.10
517.97	831.58
518.33	845.93
518.69	860.78
519.05	875.74
519.41	890.84
519.77	906.39
520.13	921.82
520.49	937.15
520.85	952.52
521.21	968.37
521.57	984.63
521.93	1000.28
522.29	1016.61
522.65	1032.80
523.01	1048.89
523.37	1064.93
523.73	1081.02
524.09	1097.13
524.45	1113.40
524.81	1129.93
525.17	1146.67
525.53	1163.40
525.89	1180.41
526.25	1197.15
526.61	1213.45
526.97	1230.15
527.33	1246.57
527.68	1263.25
528.04	1279.67
528.40	1296.13
528.76	1313.14
529.12	1329.54
529.48	1346.32
529.84	1362.23
530.20	1378.87
530.56	1395.92
530.91	1413.16
531.27	1429.87
531.63	1446.39
531.99	1462.97
532.35	1478.87
532.71	1494.67
533.07	1510.99
533.42	1526.76
533.78	1542.80
534.14	1559.07
534.50	1574.44
534.86	1590.29
535.21	1605.22
535.57	1621.10
535.93	1636.63
536.29	1651.38
536.65	1666.31
537.00	1681.04
537.36	1696.30
537.72	1710.69
538.08	1725.00
538.44	1738.72
538.79	1752.55
539.15	1766.06
539.51	1779.68
539.87	1794.00
540.22	1807.72
540.58	1821.49
540.94	1834.84
541.29	1847.54
541.65	1860.07
542.01	1873.19
542.37	1885.35
542.72	1897.81
543.08	1909.64
543.44	1921.98
543.79	1933.12
544.15	1944.12
544.51	1955.66
544.87	1966.43
545.22	1977.14
545.58	1987.26
545.94	1997.04
546.29	2006.83
546.65	2016.74
547.01	2025.85
547.36	2034.55
547.72	2042.91
548.07	2050.57
548.43	2058.64
548.79	2066.77
549.14	2074.30
549.50	2081.45
549.86	2089.10
550.21	2096.36
550.57	2103.28
550.92	2109.86
551.28	2116.75
551.64	2123.78
551.99	2130.28
552.35	2136.62
552.70	2142.87
553.06	2148.81
553.41	2155.05
553.77	2160.92
554.13	2166.84
554.48	2172.98
554.84	2178.48
555.19	2183.91
555.55	2189.13
555.90	2193.59
556.26	2198.44
556.61	2203.15
556.97	2207.59
557.32	2211.72
557.68	2215.75
558.03	2220.14
558.39	2223.85
558.74	2228.63
559.10	2232.43
559.45	2236.11
559.81	2240.27
560.16	2244.03
560.52	2247.37
560.87	2250.87
561.23	2253.66
561.58	2256.58
561.94	2259.22
562.29	2261.52
562.64	2264.07
563.00	2266.59
563.35	2270.08
563.71	2272.96
564.06	2276.26
564.42	2279.04
564.77	2281.67
565.12	2284.09
565.48	2285.99
565.83	2287.86
566.19	2289.14
566.54	2290.11
566.89	2291.30
567.25	2292.03
567.60	2293.26
567.96	2294.96
568.31	2295.68
568.66	2296.91
569.02	2297.61
569.37	2297.88
569.72	2298.77
570.08	2298.92
570.43	2298.98
570.78	2298.31
571.14	2296.94
571.49	2295.59
571.84	2295.43
572.20	2294.27
572.55	2293.19
572.90	2291.69
573.26	2290.24
573.61	2288.59
573.96	2287.02
574.31	2284.11
574.67	2281.17
575.02	2277.68
575.37	2274.20
575.72	2270.48
576.08	2267.01
576.43	2263.80
576.78	2260.38
577.13	2257.24
577.49	2254.22
577.84	2250.91
578.19	2247.41
578.54	2243.77
578.90	2239.60
579.25	2234.13
579.60	2229.22
579.95	2224.20
580.30	2219.16
580.66	2214.08
581.01	2209.04
581.36	2204.19
581.71	2200.09
582.06	2195.66
582.42	2191.45
582.77	2186.33
583.12	2182.06
583.47	2177.39
583.82	2172.23
584.17	2166.93
584.53	2161.51
584.88	2156.01
585.23	2150.17
585.58	2144.70
585.93	2139.38
586.28	2134.66
586.63	2129.66
586.98	2124.66
587.34	2120.05
587.69	2115.23
588.04	2110.07
588.39	2104.60
588.74	2098.02
589.09	2091.85
589.44	2085.03
589.79	2078.97
590.14	2073.40
590.49	2066.60
590.84	2060.22
591.19	2054.26
591.54	2047.88
591.89	2040.56
592.25	2033.73
592.60	2026.51
592.95	2018.96
593.30	2011.57
593.65	2004.01
594.00	1996.79
594.35	1989.48
594.70	1981.44
595.05	1974.28
595.40	1967.03
595.75	1959.46
596.10	1953.31
596.45	1946.63
596.80	1940.50
597.15	1933.77
597.50	1926.83
597.85	1920.55
598.19	1914.04
598.54	1907.02
598.89	1900.24
599.24	1894.32
599.59	1887.60
599.94	1881.50
600.29	1875.10
600.64	1868.58
600.99	1861.24
601.34	1854.56
601.69	1847.61
602.04	1840.86
602.39	1833.62
602.74	1826.82
603.08	1820.10
603.43	1813.38
603.78	1806.03
604.13	1798.84
604.48	1791.49
604.83	1784.60
605.18	1777.58
605.53	1769.59
605.87	1761.55
606.22	1754.35
606.57	1746.29
606.92	1739.08
607.27	1731.95
607.62	1725.09
607.96	1717.91
608.31	1711.31
608.66	1703.75
609.01	1696.19
609.36	1688.66
609.70	1680.52
610.05	1672.43
610.40	1664.87
610.75	1656.58
611.10	1648.96
611.44	1640.63
611.79	1632.76
612.14	1624.03
612.49	1614.85
612.83	1606.55
613.18	1598.44
613.53	1590.35
613.88	1581.98
614.22	1573.69
614.57	1565.09
614.92	1557.19
615.27	1549.64
615.61	1541.19
615.96	1533.06
616.31	1525.50
616.65	1518.05
617.00	1510.54
617.35	1502.76
617.70	1494.36
618.04	1485.91
618.39	1477.68
618.74	1469.93
619.08	1461.72
619.43	1454.19
619.78	1447.35
620.12	1440.10
620.47	1432.62
620.82	1424.56
621.16	1417.00
621.51	1409.42
621.85	1401.80
622.20	1393.18
622.55	1384.89
622.89	1377.10
623.24	1369.56
623.59	1362.17
623.93	1354.54
624.28	1347.43
624.62	1340.10
624.97	1332.92
625.32	1326.02
625.66	1318.98
626.01	1311.94
626.35	1304.39
626.70	1296.54
627.04	1288.83
627.39	1281.07
627.73	1273.61
628.08	1266.65
628.43	1259.46
628.77	1252.03
629.12	1244.54
629.46	1237.44
629.81	1229.92
630.15	1222.69
630.50	1215.21
630.84	1206.96
631.19	1199.13
631.53	1191.38
631.88	1183.72
632.22	1176.01
632.57	1168.74
632.91	1161.13
633.26	1153.60
633.60	1146.18
633.95	1139.14
634.29	1132.08
634.64	1125.31
634.98	1118.04
635.32	1110.86
635.67	1104.22
636.01	1097.56
636.36	1090.66
636.70	1084.02
637.05	1077.45
637.39	1070.93
637.73	1064.42
638.08	1058.50
638.42	1052.44
638.77	1046.03
639.11	1039.52
639.45	1033.19
639.80	1026.50
640.14	1020.09
640.49	1013.54
640.83	1007.22
641.17	1001.00
641.52	994.58
641.86	988.15
642.20	982.24
642.55	975.89
642.89	969.44
643.23	962.89
643.58	957.21
643.92	951.08
644.26	944.99
644.61	938.98
644.95	932.95
645.29	926.47
645.64	919.80
645.98	913.58
646.32	907.64
646.66	901.59
647.01	895.82
647.35	890.04
647.69	884.13
648.04	878.62
648.38	872.88
648.72	866.89
649.06	860.87
649.41	854.92
649.75	848.99
650.09	842.99
650.43	837.16
650.78	830.89
651.12	824.90
651.46	819.15
651.80	813.31
652.14	807.97
652.49	802.55
652.83	797.37
653.17	791.62
653.51	785.86
653.85	780.52
654.20	774.88
654.54	768.92
654.88	763.32
655.22	757.38
655.56	751.56
655.90	746.08
656.25	740.78
656.59	735.40
656.93	730.26
657.27	725.11
657.61	719.68
657.95	714.57
658.29	709.48
658.64	704.21
658.98	698.98
659.32	693.45
659.66	688.24
660.00	682.98
660.34	678.12
660.68	673.25
661.02	668.17
661.36	663.44
661.70	658.96
662.05	654.59
662.39	650.30
662.73	645.80
663.07	641.45
663.41	637.04
663.75	632.59
664.09	628.03
664.43	623.62
664.77	619.48
665.11	615.27
665.45	611.08
665.79	607.07
666.13	602.93
666.47	598.83
666.81	594.66
667.15	590.46
667.49	586.50
667.83	582.62
668.17	578.69
668.51	574.61
668.85	570.57
669.19	566.74
669.53	562.90
669.87	559.09
670.21	555.40
670.55	551.74
670.89	548.34
671.23	544.91
671.57	541.33
671.91	537.79
672.25	534.23
672.58	530.71
672.92	527.25
673.26	524.02
673.60	520.83
673.94	517.68
674.28	514.79
674.62	511.86
674.96	508.76
675.30	505.83
675.64	502.87
675.97	500.09
676.31	497.15
676.65	494.22
676.99	491.53
677.33	488.64
677.67	485.82
678.01	482.70
678.34	479.72
678.68	476.89
679.02	474.09
679.36	471.35
679.70	468.60
680.04	465.83
680.37	462.99
680.71	460.20
681.05	457.60
681.39	454.82
681.73	452.11
682.06	449.61
682.40	447.01
682.74	444.51
683.08	441.92
683.42	439.31
683.75	436.80
684.09	434.23
684.43	431.76
684.77	429.28
685.10	426.92
685.44	424.60
685.78	422.28
686.12	420.05
686.45	417.73
686.79	415.47
687.13	413.30
687.46	411.05
687.80	408.89
688.14	406.67
688.48	404.65
688.81	402.41
689.15	400.24
689.49	398.12
689.82	396.00
690.16	393.95
690.50	392.02
690.83	390.03
691.17	388.03
691.51	386.15
691.84	384.32
692.18	382.42
692.52	380.42
692.85	378.46
693.19	376.56
693.52	374.72
693.86	372.92
694.20	371.12
694.53	369.32
694.87	367.45
695.21	365.66
695.54	363.83
695.88	362.12
696.21	360.38
696.55	358.69
696.88	357.03
697.22	355.34
697.56	353.73
697.89	352.09
698.23	350.47
698.56	348.83
698.90	347.25
699.23	345.60
699.57	344.09
699.90	342.60
700.24	341.08
700.58	339.55
700.91	338.04
701.25	336.57
701.58	335.26
701.92	333.98
702.25	332.57
702.59	331.19
702.92	329.86
703.26	328.58
703.59	327.27
703.93	326.06
704.26	324.85
704.60	323.53
704.93	322.28
705.26	321.02
705.60	319.85
705.93	318.64
706.27	317.62
706.60	316.49
706.94	315.42
707.27	314.26
707.61	313.20
707.94	312.18
708.27	311.12
708.61	309.99
708.94	308.97
709.28	308.01
709.61	307.03
709.94	306.03
710.28	305.01
710.61	304.06
710.95	302.99
711.28	302.09
711.61	301.09
711.95	300.17
712.28	299.24
712.61	298.22
712.95	297.30
713.28	296.36
713.61	295.51
713.95	294.59
714.28	293.79
714.61	292.95
714.95	292.04
715.28	291.20
715.61	290.33
715.95	289.42
716.28	288.57
716.61	287.72
716.95	286.95
717.28	286.17
717.61	285.40
717.94	284.70
718.28	283.87
718.61	283.20
718.94	282.50
719.27	281.86
719.61	281.25
719.94	280.58
720.27	279.88
720.60	279.20
720.94	278.58
721.27	277.94
721.60	277.39
721.93	276.80
722.27	276.23
722.60	275.71
722.93	275.19
723.26	274.64
723.59	274.07
723.93	273.49
724.26	272.94
724.59	272.40
724.92	271.82
725.25	271.29
725.59	270.77
725.92	270.26
726.25	269.74
726.58	269.23
726.91	268.75
727.24	268.30
727.57	267.85
727.91	267.36
728.24	266.89
728.57	266.38
728.90	265.94
729.23	265.43
729.56	265.00
729.89	264.48
730.22	263.96
730.55	263.49
730.89	263.05
731.22	262.63
731.55	262.18
731.88	261.76
732.21	261.33
732.54	260.86
732.87	260.43
733.20	260.05
733.53	259.68
733.86	259.30
734.19	258.89
734.52	258.50
734.85	258.19
735.18	257.80
735.51	257.42
735.84	257.06
736.17	256.70
736.50	256.29
736.83	256.06
737.16	255.75
737.49	255.44
737.82	255.09
738.15	254.75
738.48	254.41
738.81	254.12
739.14	253.81
739.47	253.53
739.80	253.23
740.13	252.91
740.46	252.59
740.79	252.25
741.12	251.92
741.45	251.61
741.78	251.26
742.11	250.95
742.44	250.64
742.77	250.37
743.10	250.09
743.43	249.82
743.75	249.48
744.08	249.32
744.41	249.05
744.74	248.82
745.07	248.55
745.40	248.32
745.73	248.03
746.06	247.75
746.39	247.48
746.71	247.22
747.04	246.94
747.37	246.66
747.70	246.44
748.03	246.21
748.36	246.00
748.68	245.75
749.01	245.49
749.34	245.23
749.67	244.99
750.00	244.78
750.33	244.62
750.65	244.40
750.98	244.09
751.31	243.85
751.64	243.67
751.97	243.50
752.29	243.25
752.62	243.00
752.95	242.79
753.28	242.60
753.60	242.37
753.93	242.18
754.26	242.00
754.59	241.76
754.91	241.57
755.24	241.36
755.57	241.18
755.90	241.00
756.22	240.80
756.55	240.59
756.88	240.37
757.20	240.13
757.53	239.93
757.86	239.73
758.19	239.59
758.51	239.39
758.84	239.17
759.17	239.02
759.49	238.90
759.82	238.81
760.15	238.64
760.47	238.51
760.80	238.30
761.13	238.15
761.45	238.00
761.78	237.84
762.11	237.71
762.43	237.52
762.76	237.41
763.08	237.32
763.41	237.20
763.74	237.09
764.06	236.92
764.39	236.75
764.71	236.62
765.04	236.50
765.37	236.35
765.69	236.22
766.02	236.07
766.34	235.95
766.67	235.79
767.00	235.70
767.32	235.62
767.65	235.60
767.97	235.50
768.30	235.42
768.62	235.33
768.95	235.21
769.27	235.13
769.60	235.04
769.92	234.90
770.25	234.77
770.57	234.66
770.90	234.57
771.22	234.48
771.55	234.37
771.87	234.27
772.20	234.16
772.52	234.16
772.85	234.21
773.17	234.13
773.50	234.02
773.82	233.93
774.15	233.80
774.47	233.65
774.80	233.56
775.12	233.47
775.45	233.40
775.77	233.32
776.09	233.24
776.42	233.15
776.74	233.10
777.07	233.02
777.39	232.93
777.72	232.88
778.04	232.83
778.36	232.76
778.69	232.70
779.01	232.66
779.33	232.52
779.66	232.33
779.98	232.26
780.31	232.19
780.63	232.16
780.95	232.08
781.28	232.02
781.60	231.93
781.92	231.91
782.25	231.83
782.57	231.75
782.89	231.69
783.22	231.60
783.54	231.57
783.86	231.55
784.19	231.51
784.51	231.47
784.83	231.39
785.16	231.36
785.48	231.32
785.80	231.26
786.12	231.21
786.45	231.15
786.77	231.10
787.09	231.07
787.42	230.94
787.74	230.92
788.06	230.85
788.38	230.82
788.71	230.74
789.03	230.69
789.35	230.69
789.67	230.63
789.99	230.60
790.32	230.52
790.64	230.47
790.96	230.49
791.28	230.44
791.61	230.43
791.93	230.38
792.25	230.32
792.57	230.36
792.89	230.29
793.21	230.28
793.54	230.24
793.86	230.17
794.18	230.21
794.50	230.19
794.82	230.16
795.14	230.15
795.47	230.13
795.79	230.08
796.11	230.05
796.43	230.04
796.75	230.00
797.07	230.00
797.39	229.96
797.71	229.88
798.04	229.84
798.36	229.80
798.68	229.76
799.00	229.71
799.32	229.60
799.64	229.59
799.96	229.56
800.28	229.53
800.60	229.50
800.92	229.43
801.24	229.40
801.56	229.38
801.89	229.28
802.21	229.23
802.53	229.20
802.85	229.14
803.17	229.14
803.49	229.10
803.81	229.05
804.13	228.99
804.45	228.95
804.77	228.93
805.09	228.91
805.41	228.87
805.73	228.85
806.05	228.82
806.37	228.81
806.69	228.75
807.01	228.72
807.33	228.71
807.65	228.66
807.97	228.68
808.28	228.68
808.60	228.66
808.92	228.63
809.24	228.67
809.56	228.63
809.88	228.58
810.20	228.56
810.52	228.55
810.84	228.56
811.16	228.53
811.48	228.47
811.80	228.45
812.12	228.44
812.43	228.46
812.75	228.42
813.07	228.38
813.39	228.37
813.71	228.33
814.03	228.29
814.35	228.27
814.67	228.14
814.98	228.09
815.30	228.08
815.62	228.04
815.94	227.94
816.26	227.99
816.58	227.95
816.89	227.96
817.21	227.90
817.53	227.85
817.85	227.84
818.17	227.83
818.48	227.76
818.80	227.77
819.12	227.71
819.44	227.70
819.76	227.69
820.07	227.66
820.39	227.65
820.71	227.63
821.03	227.62
821.34	227.63
821.66	227.66
821.98	227.66
822.30	227.65
822.61	227.69
822.93	227.63
823.25	227.58
823.57	227.57
823.88	227.60
824.20	227.59
824.52	227.60
824.83	227.59
825.15	227.59
825.47	227.56
825.79	227.57
826.10	227.54
826.42	227.51
826.74	227.50
827.05	227.47
827.37	227.47
827.69	227.48
828.00	227.49
828.32	227.47
828.64	227.43
828.95	227.48
829.27	227.48
829.58	227.46
829.90	227.52
830.22	227.51
830.53	227.47
830.85	227.46
831.17	227.42
831.48	227.39
831.80	227.38
832.11	227.39
832.43	227.39
832.75	227.36
833.06	227.42
833.38	227.43
833.69	227.44
834.01	227.46
834.32	227.45
834.64	227.44
834.96	227.42
835.27	227.43
835.59	227.41
835.90	227.38
836.22	227.36
836.53	227.30
836.85	227.29
837.16	227.37
837.48	227.38
837.79	227.41
838.11	227.45
838.42	227.47
838.74	227.46
839.05	227.44
839.37	227.43
839.68	227.37
840.00	227.34
840.31	227.35
840.63	227.35
840.94	227.33
841.26	227.32
841.57	227.29
841.88	227.29
842.20	227.27
842.51	227.27
842.83	227.26
843.14	227.36
843.46	227.33
843.77	227.29
844.08	227.26
844.40	227.23
844.71	227.20
845.03	227.17
845.34	227.14
845.65	227.14
845.97	227.17
846.28	227.16
846.60	227.16
846.91	227.12
847.22	227.08
847.54	227.10
847.85	227.09
848.16	227.08
848.48	227.05
848.79	227.04
849.10	227.01
849.42	227.00
849.73	226.87
850.04	226.87
850.36	226.80
850.67	226.80
850.98	226.75
851.30	226.73
851.61	226.72
851.92	226.72
852.23	226.74
852.55	226.73
852.86	226.76
853.17	226.78
853.49	226.78
853.80	226.80
854.11	226.77
854.42	226.79
854.74	226.79
855.05	226.77
855.36	226.73
855.67	226.75
855.99	226.72
856.30	226.84
856.61	226.80
856.92	226.83
857.23	226.87
857.55	226.86
857.86	226.86
858.17	226.88
858.48	226.85
858.79	226.75
859.11	226.75
859.42	226.68
859.73	226.61
860.04	226.62
860.35	226.60
860.66	226.57
860.98	226.54
861.29	226.54
861.60	226.55
861.91	226.55
862.22	226.50
862.53	226.52
862.84	226.41
863.16	226.43
863.47	226.39
863.78	226.36
864.09	226.36
864.40	226.35
864.71	226.32
865.02	226.32
865.33	226.36
865.64	226.33
865.95	226.33
866.27	226.43
866.58	226.43
866.89	226.42
867.20	226.45
867.51	226.42
867.82	226.39
868.13	226.42
868.44	226.38
868.75	226.42
869.06	226.42
869.37	226.43
869.68	226.40
869.99	226.41
870.30	226.41
870.61	226.40
870.92	226.39
871.23	226.42
871.54	226.42
871.85	226.45
872.16	226.45
872.47	226.45
872.78	226.40
873.09	226.38
873.40	226.38
873.71	226.38
874.02	226.39
874.33	226.44
874.64	226.41
874.95	226.47
875.26	226.46
875.56	226.49
875.87	226.46
876.18	226.49
876.49	226.62
876.80	226.61
877.11	226.63
877.42	226.67
877.73	226.65
878.04	226.64
878.35	226.67
878.66	226.70
878.96	226.72
879.27	226.70
879.58	226.70
879.89	226.68
880.20	226.74
880.51	226.73
880.82	226.72
881.12	226.74
881.43	226.70
881.74	226.66
882.05	226.65
882.36	226.67
882.67	226.67
882.97	226.54
883.28	226.55
883.59	226.57
883.90	226.55
884.21	226.54
884.51	226.53
884.82	226.49
885.13	226.47
885.44	226.46
885.74	226.47
886.05	226.49
886.36	226.47
886.67	226.42
886.98	226.44
887.28	226.45
887.59	226.45
887.90	226.47
888.20	226.48
888.51	226.45
888.82	226.42
889.13	226.45
889.43	226.50
889.74	226.49
890.05	226.47
890.35	226.47
890.66	226.47
890.97	226.47
891.28	226.45
891.58	226.50
891.89	226.49
892.20	226.48
892.50	226.44
892.81	226.47
893.12	226.47
893.42	226.45
893.73	226.43
894.04	226.42
894.34	226.39
894.65	226.42
894.95	226.43
895.26	226.45
895.57	226.48
895.87	226.40
896.18	226.42
896.48	226.45
896.79	226.44
897.10	226.45
897.40	226.43
897.71	226.45
898.01	226.43
898.32	226.44
898.63	226.42
898.93	226.43
899.24	226.43
899.54	226.42
899.85	226.43
900.15	226.42
900.46	226.43
900.76	226.44
901.07	226.44
901.38	226.42
901.68	226.44
901.99	226.40
902.29	226.43
902.60	226.42
902.90	226.40
903.21	226.40
903.51	226.40
903.82	226.45
904.12	226.44
904.43	226.47
904.73	226.46
905.03	226.47
905.34	226.57
905.64	226.57
905.95	226.59
906.25	226.58
906.56	226.61
906.86	226.58
907.17	226.58
907.47	226.58
907.77	226.58
908.08	226.53
908.38	226.51
908.69	226.53
908.99	226.53
909.30	226.52
909.60	226.50
909.90	226.50
910.21	226.47
910.51	226.46
910.81	226.44
911.12	226.44
911.42	226.44
911.73	226.33
912.03	226.31
912.33	226.32
912.64	226.32
912.94	226.27
913.24	226.26
913.55	226.24
913.85	226.20
914.15	226.19
914.46	226.23
914.76	226.22
915.06	226.19
915.37	226.16
915.67	226.14
915.97	226.16
916.27	226.13
916.58	226.10
916.88	226.09
917.18	226.04
917.49	226.09
917.79	226.06
918.09	226.07
918.39	226.11
918.70	226.08
919.00	226.07
919.30	226.13
919.60	226.10
919.91	226.09
920.21	226.10
920.51	226.11
920.81	226.07
921.12	226.13
921.42	226.14
921.72	226.15
922.02	226.17
922.32	226.16
922.63	226.19
922.93	226.23
923.23	226.23
923.53	226.24
923.83	226.19
924.13	226.22
924.44	226.22
924.74	226.20
925.04	226.18
925.34	226.19
925.64	226.15
925.94	226.21
926.24	226.27
926.55	226.26
926.85	226.28
927.15	226.29
927.45	226.24
927.75	226.22
928.05	226.24
928.35	226.22
928.65	226.24
928.95	226.23
929.26	226.21
929.56	226.23
929.86	226.24
930.16	226.22
930.46	226.23
930.76	226.20
931.06	226.21
931.36	226.22
931.66	226.21
931.96	226.21
932.26	226.17
932.56	226.16
932.86	226.17
933.16	226.18
933.46	226.19
933.76	226.19
934.06	226.19
934.36	226.21
934.66	226.24
934.96	226.22
935.26	226.19
935.56	226.23
935.86	226.21
936.16	226.22
936.46	226.22
936.76	226.20
937.06	226.23
937.36	226.21
937.66	226.22
937.96	226.23
938.26	226.20
938.56	226.22
938.86	226.23
939.16	226.25
939.46	226.23
939.76	226.20
940.06	226.22
940.35	226.21
940.65	226.15
940.95	226.15
941.25	226.16
941.55	226.15
941.85	226.13
942.15	226.17
942.45	226.15
942.75	226.15
943.04	226.15
943.34	226.16
943.64	226.14
943.94	226.11
944.24	226.12
944.54	226.13
944.84	226.14
945.13	226.09
945.43	226.04
945.73	226.05
946.03	226.06
946.33	225.99
946.62	226.00
946.92	225.99
947.22	225.99
947.52	225.96
947.82	226.01
948.11	225.99
948.41	225.96
948.71	225.96
949.01	225.96
949.31	225.94
949.60	225.94
949.90	225.97
950.20	225.97
950.50	225.97
950.79	225.95
951.09	225.96
951.39	225.97
951.69	226.01
951.98	226.06
952.28	226.08
952.58	226.07
952.87	226.09
953.17	226.08
953.47	226.06
953.76	226.06
954.06	226.04
954.36	226.04
954.66	226.02
954.95	226.02
955.25	226.02
955.55	226.02
955.84	226.01
956.14	226.03
956.44	226.06
956.73	226.04
957.03	226.06
957.32	226.06
957.62	226.06
957.92	226.05
958.21	226.01
958.51	226.07
958.81	226.08
959.10	226.07
959.40	226.12
959.69	226.13
959.99	226.12
960.29	226.14
960.58	226.14
960.88	226.15
961.17	226.15
961.47	226.15
961.76	226.16
962.06	226.13
962.36	226.07
962.65	226.07
962.95	226.09
963.24	226.07
963.54	226.09
963.83	226.06
964.13	226.06
964.42	226.04
964.72	225.97
965.01	226.01
965.31	226.01
965.60	225.96
965.90	226.04
966.19	226.04
966.49	226.05
966.78	226.03
967.08	226.05
967.37	226.07
967.67	226.09
967.96	226.12
968.26	226.17
968.55	226.17
968.85	226.17
969.14	226.18
969.43	226.18
969.73	226.16
970.02	226.16
970.32	226.17
970.61	226.17
970.91	226.16
971.20	226.12
971.49	226.13
971.79	226.15
972.08	226.07
972.38	226.11
972.67	226.07
972.96	226.10
973.26	226.09
973.55	226.11
973.85	226.10
974.14	226.08
974.43	226.08
974.73	226.10
975.02	226.09
975.31	226.11
975.61	226.11
975.90	226.11
976.19	226.12
976.49	226.13
976.78	226.14
977.07	226.14
977.37	226.17
977.66	226.18
977.95	226.18
978.24	226.19
978.54	226.17
978.83	226.22
979.12	226.21
979.42	226.21
979.71	226.20
980.00	226.18
980.29	226.19
980.59	226.20
980.88	226.21
981.17	226.18
981.46	226.16
981.76	226.14
982.05	226.19
982.34	226.22
982.63	226.20
982.93	226.21
983.22	226.22
983.51	226.20
983.80	226.19
984.09	226.20
984.39	226.19
984.68	226.18
984.97	226.16
985.26	226.15
985.55	226.14
985.85	226.13
986.14	226.14
986.43	226.11
986.72	226.10
987.01	226.05
987.30	226.03
987.59	226.04
987.89	226.03
988.18	225.98
988.47	225.93
988.76	225.93
989.05	225.90
989.34	225.92
989.63	225.96
989.92	225.95
990.22	225.91
990.51	225.88
990.80	225.88
991.09	225.87
991.38	225.83
991.67	225.81
991.96	225.75
992.25	225.74
992.54	225.76
992.83	225.72
993.12	225.74
993.41	225.79
993.70	225.79
993.99	225.81
994.28	225.80
994.58	225.81
994.87	225.78
995.16	225.80
995.45	225.75
995.74	225.71
996.03	225.71
996.32	225.75
996.61	225.77
996.90	225.75
997.19	225.74
997.48	225.75
997.77	225.72
998.06	225.74
998.34	225.71
998.63	225.70
998.92	225.72
999.21	225.74
999.50	225.73
999.79	225.69
1000.08	225.66
1000.37	225.69
1000.66	225.69
1000.95	225.75
1001.24	225.71
1001.53	225.72
1001.82	225.73
1002.11	225.70
1002.40	225.72
1002.68	225.72
1002.97	225.81
1003.26	225.83
1003.55	225.81
1003.84	225.83
1004.13	225.89
1004.42	225.93
1004.71	225.93
1004.99	225.92
1005.28	225.95
1005.57	225.96
1005.86	225.98
1006.15	225.99
1006.44	225.97
1006.72	226.01
1007.01	225.98
1007.30	226.02
1007.59	226.06
1007.88	226.06
1008.17	226.09
1008.45	226.06
1008.74	226.08
1009.03	226.05
1009.32	226.04
1009.60	226.09
1009.89	226.09
1010.18	226.06
1010.47	226.06
1010.76	226.06
1011.04	226.07
1011.33	226.07
1011.62	226.08
1011.91	226.09
1012.19	226.10
1012.48	226.10
1012.77	226.06
1013.05	226.11
1013.34	226.11
1013.63	226.09
1013.92	226.11
1014.20	226.07
1014.49	226.11
1014.78	226.08
1015.06	226.03
1015.35	226.04
1015.64	226.06
1015.92	226.08
1016.21	226.11
1016.50	226.09
1016.78	226.12
1017.07	226.13
1017.36	226.11
1017.64	226.10
1017.93	226.12
1018.22	226.14
1018.50	226.15
1018.79	226.15
1019.08	226.09
1019.36	226.12
1019.65	226.08
1019.93	226.08
1020.22	226.11
1020.51	226.13
1020.79	226.15
1021.08	226.28
1021.36	225.91
1021.65	225.70
1021.94	225.86
1022.22	226.51
1022.51	225.46
1022.79	226.09
1023.08	226.29
1023.36	227.14
1023.65	225.89
>>>>>End Processed Spectral Data<<<<<
