SpectraSuite Data File
++++++++++++++++++++++++++++++++++++
Date: Fri Feb 01 15:33:41 EST 2013
User: group
Dark Spectrum Present: No
Reference Spectrum Present: No
Number of Sampled Component Spectra: 1
Spectrometers: USB2E7196
Integration Time (usec): 35000 (USB2E7196)
Spectra Averaged: 100 (USB2E7196)
Boxcar Smoothing: 10 (USB2E7196)
Correct for Electrical Dark: No (USB2E7196)
Strobe/Lamp Enabled: No (USB2E7196)
Correct for Detector Non-linearity: No (USB2E7196)
Correct for Stray Light: No (USB2E7196)
Number of Pixels in Processed Spectrum: 2048
>>>>>Begin Processed Spectral Data<<<<<
339.09	0.00
339.48	214.35
339.86	215.79
340.24	218.04
340.63	218.77
341.01	222.28
341.39	221.59
341.78	223.37
342.16	223.53
342.54	224.78
342.93	213.15
343.31	223.93
343.69	224.51
344.07	225.04
344.46	225.45
344.84	225.85
345.22	226.09
345.60	226.33
345.99	226.49
346.37	226.66
346.75	226.77
347.13	226.86
347.52	226.93
347.90	227.00
348.28	227.04
348.66	227.07
349.05	227.07
349.43	227.14
349.81	227.22
350.19	227.27
350.57	227.35
350.96	227.40
351.34	227.49
351.72	227.58
352.10	227.61
352.48	227.69
352.87	227.76
353.25	227.81
353.63	227.89
354.01	227.96
354.39	228.02
354.77	228.09
355.15	228.18
355.54	228.22
355.92	228.26
356.30	228.34
356.68	228.48
357.06	228.54
357.44	228.56
357.82	228.59
358.20	228.65
358.58	228.73
358.97	228.81
359.35	228.92
359.73	228.97
360.11	229.06
360.49	229.09
360.87	229.15
361.25	229.20
361.63	229.28
362.01	229.37
362.39	229.42
362.77	229.46
363.15	229.46
363.53	229.51
363.91	229.52
364.29	229.54
364.67	229.45
365.05	229.46
365.43	229.50
365.81	229.50
366.19	229.56
366.57	229.57
366.95	229.58
367.33	229.50
367.71	229.47
368.09	229.46
368.47	229.44
368.85	229.38
369.23	229.39
369.61	229.33
369.99	229.29
370.37	229.26
370.75	229.25
371.13	229.21
371.51	229.13
371.89	229.08
372.27	229.01
372.65	228.98
373.03	228.93
373.41	228.86
373.78	228.82
374.16	228.68
374.54	228.59
374.92	228.50
375.30	228.44
375.68	228.38
376.06	228.32
376.44	228.25
376.82	228.20
377.19	228.12
377.57	228.04
377.95	227.93
378.33	227.82
378.71	227.69
379.09	227.60
379.47	227.53
379.84	227.47
380.22	227.40
380.60	227.30
380.98	227.19
381.36	227.13
381.73	227.03
382.11	226.99
382.49	226.91
382.87	226.82
383.25	226.73
383.62	226.75
384.00	226.67
384.38	226.63
384.76	226.60
385.13	226.55
385.51	226.47
385.89	226.43
386.27	226.41
386.64	226.38
387.02	226.33
387.40	226.32
387.78	226.25
388.15	226.24
388.53	226.20
388.91	226.20
389.29	226.14
389.66	226.13
390.04	226.08
390.42	226.12
390.79	226.14
391.17	226.15
391.55	226.04
391.92	226.06
392.30	226.07
392.68	226.04
393.05	226.05
393.43	226.11
393.81	226.13
394.18	226.14
394.56	226.17
394.94	226.22
395.31	226.25
395.69	226.34
396.06	226.39
396.44	226.41
396.82	226.46
397.19	226.57
397.57	226.60
397.95	226.67
398.32	226.68
398.70	226.74
399.07	226.85
399.45	226.91
399.82	226.97
400.20	227.06
400.58	227.18
400.95	227.24
401.33	227.33
401.70	227.52
402.08	227.62
402.45	227.73
402.83	227.89
403.20	228.00
403.58	228.11
403.95	228.25
404.33	228.43
404.71	228.56
405.08	228.75
405.46	228.89
405.83	229.09
406.21	229.26
406.58	229.44
406.96	229.55
407.33	229.73
407.70	229.91
408.08	230.16
408.45	230.36
408.83	230.56
409.20	230.74
409.58	230.91
409.95	231.17
410.33	231.45
410.70	231.68
411.08	231.97
411.45	232.26
411.82	232.54
412.20	232.85
412.57	233.26
412.95	233.52
413.32	233.92
413.69	234.28
414.07	234.71
414.44	235.16
414.82	235.63
415.19	236.18
415.56	236.76
415.94	237.29
416.31	237.93
416.68	238.58
417.06	239.29
417.43	239.96
417.81	240.71
418.18	241.47
418.55	242.32
418.93	243.21
419.30	244.12
419.67	245.04
420.04	246.00
420.42	246.98
420.79	248.20
421.16	249.37
421.54	250.57
421.91	251.75
422.28	253.02
422.66	254.37
423.03	255.64
423.40	256.96
423.77	258.38
424.15	259.79
424.52	261.24
424.89	262.85
425.26	264.38
425.64	265.81
426.01	267.42
426.38	269.04
426.75	270.68
427.13	272.38
427.50	274.20
427.87	276.06
428.24	277.93
428.61	279.67
428.99	281.63
429.36	283.74
429.73	285.81
430.10	287.79
430.47	289.88
430.85	292.00
431.22	294.25
431.59	296.62
431.96	298.84
432.33	301.38
432.70	303.75
433.08	306.59
433.45	309.24
433.82	311.82
434.19	314.74
434.56	317.60
434.93	320.24
435.30	322.88
435.68	325.76
436.05	328.59
436.42	331.37
436.79	333.87
437.16	336.54
437.53	339.44
437.90	342.30
438.27	345.04
438.64	347.91
439.01	350.58
439.38	352.80
439.75	354.94
440.13	357.42
440.50	359.76
440.87	361.58
441.24	363.56
441.61	365.71
441.98	367.18
442.35	368.98
442.72	370.89
443.09	372.71
443.46	373.74
443.83	374.32
444.20	374.87
444.57	375.69
444.94	375.98
445.31	376.26
445.68	376.62
446.05	376.69
446.42	376.30
446.79	375.80
447.16	375.39
447.53	375.12
447.90	373.97
448.27	372.82
448.64	371.25
449.01	370.13
449.37	368.18
449.74	366.29
450.11	363.99
450.48	361.50
450.85	359.00
451.22	356.86
451.59	354.89
451.96	352.93
452.33	350.37
452.70	348.05
453.07	345.25
453.43	342.34
453.80	339.58
454.17	336.92
454.54	334.36
454.91	331.63
455.28	328.97
455.65	326.50
456.02	324.06
456.38	321.94
456.75	319.27
457.12	317.02
457.49	314.80
457.86	312.64
458.23	310.79
458.59	308.69
458.96	306.61
459.33	304.74
459.70	302.89
460.07	301.38
460.43	299.67
460.80	298.07
461.17	296.63
461.54	295.15
461.91	293.68
462.27	292.24
462.64	290.96
463.01	289.59
463.38	288.26
463.74	286.91
464.11	285.70
464.48	284.65
464.85	283.54
465.21	282.68
465.58	281.78
465.95	280.68
466.32	279.79
466.68	278.85
467.05	277.92
467.42	277.00
467.78	276.04
468.15	275.14
468.52	274.44
468.88	273.56
469.25	272.76
469.62	272.14
469.98	271.46
470.35	270.83
470.72	270.23
471.08	269.56
471.45	268.98
471.82	268.43
472.18	267.83
472.55	267.36
472.92	266.80
473.28	266.34
473.65	265.86
474.02	265.40
474.38	265.04
474.75	264.69
475.11	264.31
475.48	264.07
475.85	263.82
476.21	263.56
476.58	263.39
476.94	263.21
477.31	263.02
477.67	262.86
478.04	262.72
478.41	262.65
478.77	262.68
479.14	262.63
479.50	262.67
479.87	262.73
480.23	262.81
480.60	262.88
480.96	262.96
481.33	263.22
481.69	263.42
482.06	263.60
482.42	263.80
482.79	264.08
483.15	264.37
483.52	264.74
483.88	265.09
484.25	265.48
484.61	265.92
484.98	266.37
485.34	266.91
485.71	267.50
486.07	268.11
486.44	268.71
486.80	269.40
487.17	270.14
487.53	270.96
487.90	271.85
488.26	272.78
488.62	273.74
488.99	274.67
489.35	275.68
489.72	276.81
490.08	278.04
490.44	279.31
490.81	280.68
491.17	282.04
491.54	283.54
491.90	285.10
492.26	286.74
492.63	288.49
492.99	290.28
493.36	292.15
493.72	294.20
494.08	296.31
494.45	298.55
494.81	300.91
495.17	303.35
495.54	305.89
495.90	308.60
496.26	311.44
496.63	314.40
496.99	317.51
497.35	320.75
497.72	324.14
498.08	327.68
498.44	331.35
498.80	335.30
499.17	339.34
499.53	343.48
499.89	347.86
500.26	352.33
500.62	357.02
500.98	362.02
501.34	367.08
501.71	372.41
502.07	377.92
502.43	383.51
502.79	389.34
503.16	395.45
503.52	401.68
503.88	408.10
504.24	414.81
504.60	421.72
504.97	428.87
505.33	436.23
505.69	443.85
506.05	451.64
506.41	459.55
506.78	467.69
507.14	476.14
507.50	484.86
507.86	493.93
508.22	503.16
508.59	512.34
508.95	521.94
509.31	531.72
509.67	541.80
510.03	552.11
510.39	562.64
510.75	573.36
511.12	584.34
511.48	595.63
511.84	607.07
512.20	618.68
512.56	630.60
512.92	642.81
513.28	655.12
513.64	667.63
514.00	680.35
514.37	693.30
514.73	706.43
515.09	719.49
515.45	732.75
515.81	746.35
516.17	760.46
516.53	774.65
516.89	788.92
517.25	803.15
517.61	817.61
517.97	832.08
518.33	846.57
518.69	861.33
519.05	876.35
519.41	891.44
519.77	907.01
520.13	922.48
520.49	937.86
520.85	953.48
521.21	969.24
521.57	985.53
521.93	1001.37
522.29	1017.79
522.65	1034.10
523.01	1050.42
523.37	1066.52
523.73	1082.66
524.09	1098.76
524.45	1115.02
524.81	1131.66
525.17	1148.55
525.53	1165.49
525.89	1182.35
526.25	1199.25
526.61	1215.69
526.97	1232.65
527.33	1249.11
527.68	1265.77
528.04	1282.37
528.40	1299.04
528.76	1316.09
529.12	1332.65
529.48	1349.56
529.84	1365.54
530.20	1382.21
530.56	1399.28
530.91	1416.71
531.27	1433.54
531.63	1450.10
531.99	1466.80
532.35	1482.80
532.71	1498.58
533.07	1514.75
533.42	1530.76
533.78	1546.82
534.14	1563.18
534.50	1578.39
534.86	1594.30
535.21	1609.42
535.57	1625.29
535.93	1640.63
536.29	1655.35
536.65	1670.44
537.00	1685.17
537.36	1700.56
537.72	1715.14
538.08	1729.53
538.44	1743.32
538.79	1757.14
539.15	1770.84
539.51	1784.50
539.87	1798.79
540.22	1812.62
540.58	1826.60
540.94	1840.08
541.29	1853.04
541.65	1865.76
542.01	1879.01
542.37	1891.38
542.72	1903.90
543.08	1915.66
543.44	1928.17
543.79	1939.60
544.15	1950.65
544.51	1962.38
544.87	1973.44
545.22	1984.22
545.58	1994.45
545.94	2004.43
546.29	2014.38
546.65	2024.11
547.01	2033.39
547.36	2042.23
547.72	2050.75
548.07	2058.48
548.43	2066.56
548.79	2074.54
549.14	2081.98
549.50	2089.48
549.86	2097.19
550.21	2104.59
550.57	2111.89
550.92	2118.54
551.28	2125.59
551.64	2132.72
551.99	2139.24
552.35	2145.32
552.70	2151.50
553.06	2157.49
553.41	2163.78
553.77	2169.87
554.13	2176.11
554.48	2182.32
554.84	2187.76
555.19	2192.99
555.55	2198.20
555.90	2202.79
556.26	2207.74
556.61	2212.56
556.97	2216.79
557.32	2220.91
557.68	2225.01
558.03	2229.32
558.39	2232.92
558.74	2237.50
559.10	2241.23
559.45	2244.85
559.81	2249.16
560.16	2252.92
560.52	2256.22
560.87	2259.50
561.23	2262.20
561.58	2265.22
561.94	2267.70
562.29	2270.05
562.64	2272.77
563.00	2275.47
563.35	2278.83
563.71	2281.84
564.06	2284.98
564.42	2287.74
564.77	2290.20
565.12	2292.39
565.48	2294.33
565.83	2296.13
566.19	2297.34
566.54	2298.25
566.89	2299.41
567.25	2299.85
567.60	2301.19
567.96	2302.74
568.31	2303.58
568.66	2304.57
569.02	2304.99
569.37	2305.31
569.72	2306.03
570.08	2306.19
570.43	2306.14
570.78	2305.56
571.14	2304.03
571.49	2302.73
571.84	2302.44
572.20	2301.16
572.55	2300.17
572.90	2298.49
573.26	2297.18
573.61	2295.57
573.96	2293.78
574.31	2290.70
574.67	2287.82
575.02	2284.10
575.37	2280.81
575.72	2276.69
576.08	2273.37
576.43	2270.02
576.78	2266.24
577.13	2263.08
577.49	2260.02
577.84	2256.41
578.19	2252.60
578.54	2248.97
578.90	2244.66
579.25	2239.00
579.60	2234.09
579.95	2229.00
580.30	2223.92
580.66	2218.61
581.01	2213.53
581.36	2208.55
581.71	2204.29
582.06	2199.86
582.42	2195.39
582.77	2190.02
583.12	2185.66
583.47	2180.75
583.82	2175.72
584.17	2170.43
584.53	2164.96
584.88	2159.15
585.23	2153.23
585.58	2147.77
585.93	2142.24
586.28	2137.43
586.63	2132.23
586.98	2127.11
587.34	2122.44
587.69	2117.46
588.04	2112.16
588.39	2106.35
588.74	2099.87
589.09	2093.63
589.44	2086.57
589.79	2080.64
590.14	2074.97
590.49	2068.34
590.84	2062.00
591.19	2055.76
591.54	2049.37
591.89	2041.98
592.25	2035.08
592.60	2027.93
592.95	2020.23
593.30	2012.93
593.65	2005.25
594.00	1998.43
594.35	1991.23
594.70	1983.21
595.05	1975.88
595.40	1968.58
595.75	1961.20
596.10	1954.96
596.45	1948.25
596.80	1942.17
597.15	1935.43
597.50	1928.19
597.85	1921.75
598.19	1915.00
598.54	1907.98
598.89	1901.33
599.24	1895.33
599.59	1888.57
599.94	1882.40
600.29	1876.11
600.64	1869.39
600.99	1861.89
601.34	1854.87
601.69	1847.88
602.04	1840.87
602.39	1833.49
602.74	1826.75
603.08	1819.88
603.43	1813.13
603.78	1805.83
604.13	1798.48
604.48	1791.06
604.83	1784.33
605.18	1777.27
605.53	1769.31
605.87	1761.29
606.22	1753.93
606.57	1745.97
606.92	1738.65
607.27	1731.33
607.62	1724.35
607.96	1716.99
608.31	1710.37
608.66	1702.67
609.01	1695.00
609.36	1687.38
609.70	1679.44
610.05	1671.29
610.40	1663.46
610.75	1655.10
611.10	1647.44
611.44	1639.18
611.79	1631.21
612.14	1622.38
612.49	1613.22
612.83	1604.79
613.18	1596.65
613.53	1588.44
613.88	1579.96
614.22	1571.73
614.57	1563.19
614.92	1555.11
615.27	1547.63
615.61	1539.36
615.96	1531.41
616.31	1523.78
616.65	1516.37
617.00	1508.76
617.35	1501.09
617.70	1492.78
618.04	1484.12
618.39	1475.82
618.74	1468.15
619.08	1459.77
619.43	1452.33
619.78	1445.37
620.12	1438.04
620.47	1430.46
620.82	1422.34
621.16	1414.98
621.51	1407.49
621.85	1399.81
622.20	1391.34
622.55	1382.93
622.89	1374.99
623.24	1367.37
623.59	1360.00
623.93	1352.44
624.28	1345.24
624.62	1337.65
624.97	1330.58
625.32	1323.98
625.66	1316.96
626.01	1309.73
626.35	1302.26
626.70	1294.48
627.04	1286.73
627.39	1279.10
627.73	1271.70
628.08	1264.81
628.43	1257.37
628.77	1249.87
629.12	1242.34
629.46	1235.04
629.81	1227.59
630.15	1220.34
630.50	1212.91
630.84	1204.62
631.19	1196.67
631.53	1189.19
631.88	1181.66
632.22	1174.04
632.57	1166.74
632.91	1159.20
633.26	1151.78
633.60	1144.54
633.95	1137.36
634.29	1130.40
634.64	1123.68
634.98	1116.32
635.32	1109.19
635.67	1102.65
636.01	1096.01
636.36	1089.21
636.70	1082.80
637.05	1076.26
637.39	1069.83
637.73	1063.28
638.08	1057.51
638.42	1051.61
638.77	1045.09
639.11	1038.45
639.45	1032.02
639.80	1025.37
640.14	1018.93
640.49	1012.42
640.83	1006.10
641.17	999.95
641.52	993.55
641.86	987.06
642.20	981.24
642.55	974.92
642.89	968.38
643.23	961.86
643.58	956.11
643.92	949.84
644.26	943.78
644.61	937.82
644.95	931.85
645.29	925.18
645.64	918.44
645.98	912.21
646.32	906.45
646.66	900.47
647.01	894.66
647.35	888.92
647.69	883.05
648.04	877.54
648.38	871.66
648.72	865.71
649.06	859.72
649.41	853.82
649.75	847.81
650.09	841.82
650.43	836.02
650.78	829.85
651.12	823.95
651.46	818.26
651.80	812.41
652.14	806.99
652.49	801.66
652.83	796.45
653.17	790.67
653.51	784.89
653.85	779.52
654.20	773.87
654.54	767.92
654.88	762.15
655.22	756.24
655.56	750.60
655.90	745.24
656.25	740.03
656.59	734.65
656.93	729.59
657.27	724.50
657.61	719.11
657.95	714.03
658.29	708.97
658.64	703.79
658.98	698.53
659.32	693.04
659.66	687.87
660.00	682.52
660.34	677.57
660.68	672.69
661.02	667.59
661.36	662.81
661.70	658.28
662.05	653.98
662.39	649.67
662.73	645.25
663.07	640.76
663.41	636.32
663.75	631.82
664.09	627.25
664.43	622.85
664.77	618.69
665.11	614.41
665.45	610.26
665.79	606.11
666.13	601.95
666.47	597.91
666.81	593.70
667.15	589.64
667.49	585.71
667.83	581.91
668.17	578.08
668.51	574.07
668.85	570.11
669.19	566.30
669.53	562.44
669.87	558.52
670.21	554.86
670.55	551.20
670.89	547.76
671.23	544.42
671.57	540.96
671.91	537.41
672.25	533.93
672.58	530.45
672.92	527.08
673.26	523.94
673.60	520.77
673.94	517.71
674.28	514.78
674.62	511.85
674.96	508.68
675.30	505.72
675.64	502.78
675.97	500.02
676.31	497.13
676.65	494.20
676.99	491.52
677.33	488.67
677.67	485.82
678.01	482.82
678.34	479.73
678.68	476.79
679.02	473.97
679.36	471.21
679.70	468.49
680.04	465.70
680.37	462.85
680.71	460.07
681.05	457.43
681.39	454.73
681.73	452.10
682.06	449.58
682.40	447.02
682.74	444.53
683.08	441.93
683.42	439.36
683.75	436.84
684.09	434.24
684.43	431.79
684.77	429.32
685.10	427.01
685.44	424.80
685.78	422.56
686.12	420.35
686.45	418.06
686.79	415.75
687.13	413.57
687.46	411.41
687.80	409.23
688.14	406.98
688.48	404.93
688.81	402.68
689.15	400.59
689.49	398.46
689.82	396.39
690.16	394.34
690.50	392.34
690.83	390.42
691.17	388.47
691.51	386.54
691.84	384.73
692.18	382.79
692.52	380.74
692.85	378.82
693.19	376.92
693.52	375.13
693.86	373.34
694.20	371.58
694.53	369.77
694.87	367.96
695.21	366.21
695.54	364.41
695.88	362.69
696.21	360.98
696.55	359.31
696.88	357.61
697.22	355.94
697.56	354.38
697.89	352.69
698.23	351.14
698.56	349.61
698.90	347.99
699.23	346.34
699.57	344.82
699.90	343.28
700.24	341.77
700.58	340.22
700.91	338.73
701.25	337.28
701.58	335.90
701.92	334.55
702.25	333.21
702.59	331.84
702.92	330.55
703.26	329.24
703.59	327.95
703.93	326.80
704.26	325.55
704.60	324.24
704.93	322.98
705.26	321.69
705.60	320.47
705.93	319.34
706.27	318.29
706.60	317.23
706.94	316.14
707.27	314.96
707.61	313.90
707.94	312.88
708.27	311.81
708.61	310.73
708.94	309.69
709.28	308.69
709.61	307.73
709.94	306.73
710.28	305.70
710.61	304.73
710.95	303.62
711.28	302.71
711.61	301.75
711.95	300.86
712.28	299.92
712.61	298.92
712.95	297.99
713.28	297.10
713.61	296.19
713.95	295.29
714.28	294.44
714.61	293.57
714.95	292.66
715.28	291.80
715.61	290.88
715.95	290.00
716.28	289.16
716.61	288.30
716.95	287.51
717.28	286.77
717.61	285.98
717.94	285.25
718.28	284.43
718.61	283.70
718.94	283.03
719.27	282.36
719.61	281.69
719.94	280.97
720.27	280.30
720.60	279.63
720.94	279.01
721.27	278.45
721.60	277.89
721.93	277.32
722.27	276.76
722.60	276.23
722.93	275.69
723.26	275.13
723.59	274.60
723.93	274.03
724.26	273.44
724.59	272.92
724.92	272.42
725.25	271.93
725.59	271.38
725.92	270.83
726.25	270.31
726.58	269.86
726.91	269.41
727.24	268.95
727.57	268.48
727.91	267.95
728.24	267.46
728.57	266.95
728.90	266.50
729.23	266.02
729.56	265.62
729.89	265.18
730.22	264.65
730.55	264.20
730.89	263.77
731.22	263.33
731.55	262.91
731.88	262.46
732.21	262.03
732.54	261.63
732.87	261.20
733.20	260.80
733.53	260.38
733.86	259.99
734.19	259.57
734.52	259.23
734.85	258.94
735.18	258.56
735.51	258.22
735.84	257.86
736.17	257.51
736.50	257.10
736.83	256.88
737.16	256.60
737.49	256.25
737.82	255.94
738.15	255.67
738.48	255.34
738.81	255.05
739.14	254.76
739.47	254.48
739.80	254.20
740.13	253.92
740.46	253.62
740.79	253.31
741.12	253.01
741.45	252.67
741.78	252.34
742.11	252.02
742.44	251.73
742.77	251.45
743.10	251.15
743.43	250.87
743.75	250.49
744.08	250.36
744.41	250.12
744.74	249.82
745.07	249.51
745.40	249.24
745.73	249.00
746.06	248.72
746.39	248.45
746.71	248.18
747.04	247.89
747.37	247.62
747.70	247.37
748.03	247.11
748.36	246.90
748.68	246.67
749.01	246.45
749.34	246.19
749.67	245.94
750.00	245.71
750.33	245.56
750.65	245.38
750.98	245.04
751.31	244.80
751.64	244.62
751.97	244.48
752.29	244.26
752.62	243.97
752.95	243.75
753.28	243.55
753.60	243.33
753.93	243.17
754.26	243.02
754.59	242.79
754.91	242.61
755.24	242.41
755.57	242.18
755.90	241.98
756.22	241.77
756.55	241.56
756.88	241.38
757.20	241.11
757.53	240.88
757.86	240.68
758.19	240.52
758.51	240.33
758.84	240.10
759.17	239.92
759.49	239.76
759.82	239.64
760.15	239.45
760.47	239.32
760.80	239.12
761.13	238.97
761.45	238.81
761.78	238.65
762.11	238.51
762.43	238.36
762.76	238.23
763.08	238.09
763.41	237.98
763.74	237.84
764.06	237.71
764.39	237.58
764.71	237.44
765.04	237.28
765.37	237.13
765.69	236.98
766.02	236.86
766.34	236.74
766.67	236.60
767.00	236.50
767.32	236.42
767.65	236.37
767.97	236.25
768.30	236.13
768.62	236.01
768.95	235.88
769.27	235.79
769.60	235.69
769.92	235.59
770.25	235.47
770.57	235.34
770.90	235.26
771.22	235.13
771.55	235.05
771.87	234.97
772.20	234.89
772.52	234.89
772.85	234.90
773.17	234.82
773.50	234.71
773.82	234.62
774.15	234.49
774.47	234.35
774.80	234.26
775.12	234.17
775.45	234.11
775.77	234.03
776.09	233.96
776.42	233.89
776.74	233.87
777.07	233.80
777.39	233.76
777.72	233.65
778.04	233.60
778.36	233.54
778.69	233.49
779.01	233.42
779.33	233.25
779.66	233.12
779.98	233.03
780.31	232.99
780.63	232.96
780.95	232.89
781.28	232.83
781.60	232.79
781.92	232.77
782.25	232.71
782.57	232.68
782.89	232.59
783.22	232.53
783.54	232.42
783.86	232.37
784.19	232.31
784.51	232.29
784.83	232.22
785.16	232.14
785.48	232.10
785.80	232.04
786.12	232.03
786.45	231.97
786.77	231.98
787.09	231.91
787.42	231.83
787.74	231.80
788.06	231.75
788.38	231.68
788.71	231.63
789.03	231.58
789.35	231.53
789.67	231.49
789.99	231.44
790.32	231.42
790.64	231.38
790.96	231.39
791.28	231.35
791.61	231.31
791.93	231.29
792.25	231.20
792.57	231.20
792.89	231.14
793.21	231.07
793.54	230.98
793.86	230.90
794.18	230.83
794.50	230.76
794.82	230.71
795.14	230.66
795.47	230.61
795.79	230.55
796.11	230.49
796.43	230.46
796.75	230.43
797.07	230.39
797.39	230.35
797.71	230.24
798.04	230.14
798.36	230.11
798.68	230.04
799.00	230.05
799.32	229.95
799.64	229.88
799.96	229.83
800.28	229.82
800.60	229.80
800.92	229.80
801.24	229.78
801.56	229.72
801.89	229.69
802.21	229.63
802.53	229.57
802.85	229.54
803.17	229.54
803.49	229.48
803.81	229.40
804.13	229.37
804.45	229.31
804.77	229.32
805.09	229.31
805.41	229.28
805.73	229.17
806.05	229.16
806.37	229.15
806.69	229.17
807.01	229.13
807.33	229.11
807.65	229.03
807.97	229.03
808.28	229.03
808.60	229.01
808.92	229.03
809.24	229.10
809.56	229.08
809.88	229.03
810.20	229.00
810.52	228.99
810.84	228.94
811.16	228.92
811.48	228.89
811.80	228.87
812.12	228.83
812.43	228.86
812.75	228.84
813.07	228.80
813.39	228.79
813.71	228.75
814.03	228.72
814.35	228.70
814.67	228.66
814.98	228.65
815.30	228.62
815.62	228.57
815.94	228.48
816.26	228.51
816.58	228.47
816.89	228.50
817.21	228.49
817.53	228.52
817.85	228.53
818.17	228.50
818.48	228.49
818.80	228.51
819.12	228.50
819.44	228.48
819.76	228.48
820.07	228.44
820.39	228.44
820.71	228.44
821.03	228.43
821.34	228.41
821.66	228.38
821.98	228.40
822.30	228.40
822.61	228.46
822.93	228.41
823.25	228.41
823.57	228.38
823.88	228.42
824.20	228.36
824.52	228.36
824.83	228.35
825.15	228.32
825.47	228.33
825.79	228.33
826.10	228.30
826.42	228.30
826.74	228.31
827.05	228.33
827.37	228.36
827.69	228.35
828.00	228.41
828.32	228.40
828.64	228.34
828.95	228.37
829.27	228.33
829.58	228.30
829.90	228.32
830.22	228.32
830.53	228.26
830.85	228.27
831.17	228.23
831.48	228.24
831.80	228.24
832.11	228.21
832.43	228.20
832.75	228.15
833.06	228.16
833.38	228.14
833.69	228.09
834.01	228.08
834.32	228.04
834.64	228.00
834.96	227.99
835.27	228.02
835.59	227.99
835.90	227.94
836.22	227.90
836.53	227.83
836.85	227.79
837.16	227.87
837.48	227.84
837.79	227.90
838.11	227.87
838.42	227.84
838.74	227.85
839.05	227.79
839.37	227.81
839.68	227.77
840.00	227.75
840.31	227.74
840.63	227.69
840.94	227.68
841.26	227.66
841.57	227.62
841.88	227.61
842.20	227.57
842.51	227.53
842.83	227.56
843.14	227.65
843.46	227.67
843.77	227.63
844.08	227.62
844.40	227.54
844.71	227.51
845.03	227.48
845.34	227.46
845.65	227.46
845.97	227.43
846.28	227.42
846.60	227.43
846.91	227.42
847.22	227.44
847.54	227.46
847.85	227.41
848.16	227.43
848.48	227.41
848.79	227.46
849.10	227.49
849.42	227.48
849.73	227.42
850.04	227.40
850.36	227.35
850.67	227.34
850.98	227.35
851.30	227.40
851.61	227.39
851.92	227.41
852.23	227.44
852.55	227.47
852.86	227.49
853.17	227.50
853.49	227.50
853.80	227.51
854.11	227.51
854.42	227.55
854.74	227.53
855.05	227.54
855.36	227.50
855.67	227.49
855.99	227.49
856.30	227.59
856.61	227.57
856.92	227.57
857.23	227.59
857.55	227.58
857.86	227.55
858.17	227.59
858.48	227.57
858.79	227.56
859.11	227.55
859.42	227.53
859.73	227.53
860.04	227.57
860.35	227.55
860.66	227.55
860.98	227.58
861.29	227.58
861.60	227.56
861.91	227.57
862.22	227.56
862.53	227.53
862.84	227.45
863.16	227.48
863.47	227.50
863.78	227.50
864.09	227.49
864.40	227.48
864.71	227.48
865.02	227.49
865.33	227.50
865.64	227.51
865.95	227.54
866.27	227.58
866.58	227.54
866.89	227.54
867.20	227.52
867.51	227.46
867.82	227.41
868.13	227.46
868.44	227.45
868.75	227.47
869.06	227.47
869.37	227.48
869.68	227.46
869.99	227.47
870.30	227.50
870.61	227.52
870.92	227.53
871.23	227.50
871.54	227.47
871.85	227.50
872.16	227.49
872.47	227.44
872.78	227.36
873.09	227.37
873.40	227.36
873.71	227.36
874.02	227.38
874.33	227.41
874.64	227.38
874.95	227.38
875.26	227.38
875.56	227.37
875.87	227.35
876.18	227.32
876.49	227.40
876.80	227.37
877.11	227.36
877.42	227.38
877.73	227.38
878.04	227.40
878.35	227.38
878.66	227.36
878.96	227.38
879.27	227.39
879.58	227.37
879.89	227.35
880.20	227.36
880.51	227.38
880.82	227.35
881.12	227.32
881.43	227.31
881.74	227.27
882.05	227.28
882.36	227.27
882.67	227.26
882.97	227.14
883.28	227.12
883.59	227.07
883.90	227.04
884.21	227.05
884.51	227.00
884.82	226.95
885.13	226.97
885.44	226.94
885.74	226.93
886.05	226.95
886.36	226.94
886.67	226.91
886.98	226.94
887.28	226.94
887.59	226.93
887.90	226.93
888.20	226.90
888.51	226.89
888.82	226.87
889.13	226.88
889.43	226.97
889.74	226.96
890.05	226.95
890.35	226.94
890.66	226.93
890.97	226.93
891.28	226.95
891.58	226.95
891.89	226.97
892.20	226.95
892.50	226.90
892.81	226.92
893.12	226.92
893.42	226.86
893.73	226.85
894.04	226.86
894.34	226.86
894.65	226.88
894.95	226.87
895.26	226.86
895.57	226.89
895.87	226.76
896.18	226.76
896.48	226.79
896.79	226.79
897.10	226.82
897.40	226.82
897.71	226.83
898.01	226.80
898.32	226.81
898.63	226.81
898.93	226.85
899.24	226.83
899.54	226.84
899.85	226.84
900.15	226.85
900.46	226.83
900.76	226.83
901.07	226.86
901.38	226.86
901.68	226.92
901.99	226.91
902.29	226.95
902.60	226.94
902.90	226.95
903.21	226.95
903.51	226.94
903.82	227.01
904.12	227.01
904.43	227.04
904.73	227.04
905.03	227.06
905.34	227.16
905.64	227.16
905.95	227.15
906.25	227.18
906.56	227.19
906.86	227.23
907.17	227.23
907.47	227.24
907.77	227.26
908.08	227.24
908.38	227.26
908.69	227.29
908.99	227.33
909.30	227.33
909.60	227.36
909.90	227.38
910.21	227.34
910.51	227.31
910.81	227.27
911.12	227.28
911.42	227.33
911.73	227.24
912.03	227.29
912.33	227.32
912.64	227.30
912.94	227.32
913.24	227.30
913.55	227.31
913.85	227.28
914.15	227.27
914.46	227.26
914.76	227.20
915.06	227.22
915.37	227.20
915.67	227.24
915.97	227.20
916.27	227.18
916.58	227.17
916.88	227.20
917.18	227.23
917.49	227.28
917.79	227.25
918.09	227.27
918.39	227.27
918.70	227.25
919.00	227.24
919.30	227.28
919.60	227.27
919.91	227.25
920.21	227.26
920.51	227.25
920.81	227.28
921.12	227.30
921.42	227.28
921.72	227.28
922.02	227.25
922.32	227.24
922.63	227.24
922.93	227.27
923.23	227.28
923.53	227.24
923.83	227.16
924.13	227.14
924.44	227.12
924.74	227.12
925.04	227.18
925.34	227.15
925.64	227.08
925.94	227.09
926.24	227.13
926.55	227.12
926.85	227.14
927.15	227.11
927.45	227.10
927.75	227.08
928.05	227.06
928.35	227.03
928.65	227.07
928.95	227.07
929.26	227.04
929.56	227.05
929.86	227.06
930.16	227.06
930.46	227.07
930.76	227.06
931.06	226.99
931.36	226.91
931.66	226.91
931.96	226.90
932.26	226.92
932.56	226.86
932.86	226.87
933.16	226.85
933.46	226.85
933.76	226.82
934.06	226.84
934.36	226.92
934.66	226.93
934.96	226.88
935.26	226.86
935.56	226.88
935.86	226.84
936.16	226.83
936.46	226.84
936.76	226.82
937.06	226.80
937.36	226.86
937.66	226.87
937.96	226.88
938.26	226.87
938.56	226.85
938.86	226.89
939.16	226.91
939.46	226.94
939.76	226.93
940.06	226.98
940.35	226.95
940.65	226.87
940.95	226.86
941.25	226.87
941.55	226.85
941.85	226.83
942.15	226.87
942.45	226.91
942.75	226.89
943.04	226.90
943.34	226.90
943.64	226.88
943.94	226.88
944.24	226.88
944.54	226.89
944.84	226.89
945.13	226.88
945.43	226.87
945.73	226.84
946.03	226.84
946.33	226.81
946.62	226.84
946.92	226.82
947.22	226.84
947.52	226.84
947.82	226.87
948.11	226.86
948.41	226.84
948.71	226.81
949.01	226.84
949.31	226.85
949.60	226.86
949.90	226.85
950.20	226.84
950.50	226.84
950.79	226.84
951.09	226.86
951.39	226.84
951.69	226.80
951.98	226.83
952.28	226.84
952.58	226.86
952.87	226.84
953.17	226.86
953.47	226.84
953.76	226.85
954.06	226.81
954.36	226.77
954.66	226.75
954.95	226.77
955.25	226.73
955.55	226.72
955.84	226.70
956.14	226.73
956.44	226.73
956.73	226.68
957.03	226.70
957.32	226.68
957.62	226.66
957.92	226.70
958.21	226.66
958.51	226.76
958.81	226.74
959.10	226.73
959.40	226.74
959.69	226.74
959.99	226.76
960.29	226.78
960.58	226.78
960.88	226.81
961.17	226.78
961.47	226.81
961.76	226.78
962.06	226.82
962.36	226.79
962.65	226.80
962.95	226.81
963.24	226.78
963.54	226.81
963.83	226.83
964.13	226.82
964.42	226.80
964.72	226.68
965.01	226.71
965.31	226.70
965.60	226.68
965.90	226.77
966.19	226.74
966.49	226.72
966.78	226.73
967.08	226.70
967.37	226.71
967.67	226.70
967.96	226.70
968.26	226.66
968.55	226.67
968.85	226.68
969.14	226.71
969.43	226.70
969.73	226.66
970.02	226.64
970.32	226.65
970.61	226.66
970.91	226.66
971.20	226.62
971.49	226.66
971.79	226.67
972.08	226.57
972.38	226.55
972.67	226.58
972.96	226.61
973.26	226.59
973.55	226.60
973.85	226.60
974.14	226.59
974.43	226.60
974.73	226.60
975.02	226.60
975.31	226.59
975.61	226.57
975.90	226.55
976.19	226.55
976.49	226.57
976.78	226.56
977.07	226.56
977.37	226.56
977.66	226.55
977.95	226.53
978.24	226.58
978.54	226.63
978.83	226.63
979.12	226.62
979.42	226.63
979.71	226.61
980.00	226.59
980.29	226.60
980.59	226.60
980.88	226.63
981.17	226.61
981.46	226.60
981.76	226.62
982.05	226.68
982.34	226.70
982.63	226.67
982.93	226.70
983.22	226.71
983.51	226.73
983.80	226.75
984.09	226.78
984.39	226.75
984.68	226.75
984.97	226.75
985.26	226.76
985.55	226.75
985.85	226.74
986.14	226.77
986.43	226.81
986.72	226.81
987.01	226.76
987.30	226.78
987.59	226.80
987.89	226.82
988.18	226.79
988.47	226.78
988.76	226.72
989.05	226.71
989.34	226.72
989.63	226.75
989.92	226.74
990.22	226.71
990.51	226.69
990.80	226.68
991.09	226.69
991.38	226.73
991.67	226.74
991.96	226.73
992.25	226.72
992.54	226.68
992.83	226.66
993.12	226.65
993.41	226.69
993.70	226.73
993.99	226.74
994.28	226.76
994.58	226.81
994.87	226.83
995.16	226.82
995.45	226.81
995.74	226.74
996.03	226.78
996.32	226.82
996.61	226.83
996.90	226.81
997.19	226.80
997.48	226.76
997.77	226.76
998.06	226.79
998.34	226.77
998.63	226.79
998.92	226.81
999.21	226.83
999.50	226.82
999.79	226.78
1000.08	226.79
1000.37	226.79
1000.66	226.74
1000.95	226.77
1001.24	226.79
1001.53	226.78
1001.82	226.79
1002.11	226.73
1002.40	226.71
1002.68	226.75
1002.97	226.83
1003.26	226.84
1003.55	226.80
1003.84	226.81
1004.13	226.85
1004.42	226.89
1004.71	226.87
1004.99	226.85
1005.28	226.89
1005.57	226.88
1005.86	226.86
1006.15	226.84
1006.44	226.81
1006.72	226.82
1007.01	226.79
1007.30	226.80
1007.59	226.80
1007.88	226.79
1008.17	226.82
1008.45	226.82
1008.74	226.79
1009.03	226.73
1009.32	226.70
1009.60	226.73
1009.89	226.71
1010.18	226.63
1010.47	226.63
1010.76	226.64
1011.04	226.62
1011.33	226.63
1011.62	226.61
1011.91	226.62
1012.19	226.61
1012.48	226.64
1012.77	226.66
1013.05	226.73
1013.34	226.67
1013.63	226.70
1013.92	226.69
1014.20	226.69
1014.49	226.69
1014.78	226.69
1015.06	226.69
1015.35	226.71
1015.64	226.71
1015.92	226.73
1016.21	226.78
1016.50	226.78
1016.78	226.79
1017.07	226.80
1017.36	226.75
1017.64	226.78
1017.93	226.76
1018.22	226.77
1018.50	226.77
1018.79	226.78
1019.08	226.75
1019.36	226.79
1019.65	226.75
1019.93	226.80
1020.22	226.80
1020.51	226.85
1020.79	226.84
1021.08	226.70
1021.36	226.83
1021.65	227.45
1021.94	227.06
1022.22	226.94
1022.51	226.14
1022.79	227.21
1023.08	226.89
1023.36	227.86
1023.65	226.66
>>>>>End Processed Spectral Data<<<<<
