SpectraSuite Data File
++++++++++++++++++++++++++++++++++++
Date: Fri Feb 01 16:43:33 EST 2013
User: group
Dark Spectrum Present: No
Reference Spectrum Present: No
Number of Sampled Component Spectra: 1
Spectrometers: USB2E7196
Integration Time (usec): 35000 (USB2E7196)
Spectra Averaged: 100 (USB2E7196)
Boxcar Smoothing: 10 (USB2E7196)
Correct for Electrical Dark: No (USB2E7196)
Strobe/Lamp Enabled: No (USB2E7196)
Correct for Detector Non-linearity: No (USB2E7196)
Correct for Stray Light: No (USB2E7196)
Number of Pixels in Processed Spectrum: 2048
>>>>>Begin Processed Spectral Data<<<<<
339.09	0.00
339.48	213.85
339.86	214.88
340.24	216.52
340.63	217.45
341.01	220.38
341.39	220.15
341.78	221.94
342.16	222.60
342.54	222.81
342.93	211.81
343.31	222.53
343.69	223.08
344.07	223.55
344.46	223.98
344.84	224.36
345.22	224.61
345.60	224.87
345.99	225.07
346.37	225.22
346.75	225.32
347.13	225.43
347.52	225.49
347.90	225.57
348.28	225.60
348.66	225.64
349.05	225.66
349.43	225.71
349.81	225.73
350.19	225.80
350.57	225.83
350.96	225.92
351.34	226.00
351.72	226.08
352.10	226.18
352.48	226.22
352.87	226.30
353.25	226.37
353.63	226.46
354.01	226.51
354.39	226.59
354.77	226.71
355.15	226.77
355.54	226.86
355.92	226.90
356.30	227.02
356.68	227.15
357.06	227.24
357.44	227.28
357.82	227.36
358.20	227.44
358.58	227.50
358.97	227.57
359.35	227.63
359.73	227.70
360.11	227.73
360.49	227.81
360.87	227.84
361.25	227.89
361.63	227.95
362.01	228.00
362.39	228.01
362.77	228.03
363.15	228.07
363.53	228.08
363.91	228.11
364.29	228.08
364.67	228.02
365.05	228.01
365.43	228.03
365.81	228.06
366.19	228.07
366.57	228.10
366.95	228.08
367.33	228.08
367.71	228.03
368.09	228.06
368.47	228.03
368.85	228.02
369.23	228.00
369.61	227.93
369.99	227.93
370.37	227.92
370.75	227.94
371.13	227.90
371.51	227.87
371.89	227.84
372.27	227.83
372.65	227.80
373.03	227.77
373.41	227.70
373.78	227.66
374.16	227.56
374.54	227.46
374.92	227.39
375.30	227.31
375.68	227.29
376.06	227.18
376.44	227.11
376.82	227.04
377.19	227.00
377.57	226.92
377.95	226.82
378.33	226.72
378.71	226.61
379.09	226.59
379.47	226.52
379.84	226.45
380.22	226.33
380.60	226.25
380.98	226.19
381.36	226.12
381.73	226.03
382.11	226.00
382.49	225.94
382.87	225.84
383.25	225.81
383.62	225.86
384.00	225.81
384.38	225.76
384.76	225.72
385.13	225.69
385.51	225.68
385.89	225.61
386.27	225.56
386.64	225.52
387.02	225.41
387.40	225.34
387.78	225.32
388.15	225.31
388.53	225.27
388.91	225.23
389.29	225.26
389.66	225.25
390.04	225.21
390.42	225.27
390.79	225.29
391.17	225.23
391.55	225.07
391.92	225.09
392.30	225.12
392.68	225.08
393.05	225.09
393.43	225.07
393.81	225.10
394.18	225.11
394.56	225.12
394.94	225.19
395.31	225.23
395.69	225.27
396.06	225.28
396.44	225.34
396.82	225.36
397.19	225.42
397.57	225.46
397.95	225.52
398.32	225.51
398.70	225.58
399.07	225.66
399.45	225.73
399.82	225.80
400.20	225.83
400.58	225.92
400.95	225.95
401.33	226.06
401.70	226.22
402.08	226.31
402.45	226.40
402.83	226.48
403.20	226.54
403.58	226.66
403.95	226.78
404.33	226.88
404.71	226.96
405.08	227.11
405.46	227.24
405.83	227.34
406.21	227.48
406.58	227.60
406.96	227.77
407.33	227.96
407.70	228.11
408.08	228.39
408.45	228.64
408.83	228.85
409.20	229.04
409.58	229.20
409.95	229.41
410.33	229.67
410.70	229.89
411.08	230.21
411.45	230.50
411.82	230.80
412.20	231.14
412.57	231.57
412.95	231.85
413.32	232.25
413.69	232.65
414.07	233.08
414.44	233.54
414.82	234.00
415.19	234.50
415.56	235.06
415.94	235.57
416.31	236.16
416.68	236.75
417.06	237.46
417.43	238.13
417.81	238.92
418.18	239.70
418.55	240.60
418.93	241.45
419.30	242.32
419.67	243.25
420.04	244.19
420.42	245.17
420.79	246.34
421.16	247.48
421.54	248.69
421.91	249.90
422.28	251.13
422.66	252.48
423.03	253.81
423.40	255.11
423.77	256.49
424.15	257.91
424.52	259.42
424.89	261.03
425.26	262.58
425.64	264.03
426.01	265.58
426.38	267.16
426.75	268.81
427.13	270.54
427.50	272.33
427.87	274.21
428.24	276.09
428.61	277.79
428.99	279.71
429.36	281.79
429.73	283.85
430.10	285.88
430.47	287.90
430.85	289.98
431.22	292.24
431.59	294.64
431.96	296.85
432.33	299.28
432.70	301.61
433.08	304.40
433.45	307.01
433.82	309.62
434.19	312.46
434.56	315.23
434.93	317.91
435.30	320.52
435.68	323.38
436.05	326.23
436.42	328.97
436.79	331.47
437.16	334.10
437.53	336.87
437.90	339.68
438.27	342.38
438.64	345.20
439.01	347.73
439.38	349.92
439.75	352.08
440.13	354.62
440.50	356.94
440.87	358.74
441.24	360.65
441.61	362.80
441.98	364.28
442.35	366.09
442.72	367.89
443.09	369.70
443.46	370.71
443.83	371.24
444.20	371.79
444.57	372.65
444.94	372.98
445.31	373.37
445.68	373.71
446.05	373.83
446.42	373.41
446.79	373.02
447.16	372.67
447.53	372.39
447.90	371.24
448.27	370.06
448.64	368.52
449.01	367.38
449.37	365.45
449.74	363.59
450.11	361.38
450.48	358.91
450.85	356.40
451.22	354.26
451.59	352.28
451.96	350.38
452.33	347.80
452.70	345.45
453.07	342.65
453.43	339.77
453.80	337.01
454.17	334.38
454.54	331.89
454.91	329.13
455.28	326.47
455.65	324.00
456.02	321.65
456.38	319.59
456.75	317.03
457.12	314.79
457.49	312.62
457.86	310.49
458.23	308.66
458.59	306.63
458.96	304.59
459.33	302.75
459.70	300.88
460.07	299.38
460.43	297.69
460.80	296.09
461.17	294.67
461.54	293.20
461.91	291.77
462.27	290.30
462.64	289.07
463.01	287.70
463.38	286.40
463.74	285.00
464.11	283.81
464.48	282.77
464.85	281.67
465.21	280.82
465.58	279.87
465.95	278.80
466.32	277.90
466.68	276.97
467.05	276.08
467.42	275.24
467.78	274.30
468.15	273.45
468.52	272.80
468.88	271.98
469.25	271.23
469.62	270.65
469.98	270.00
470.35	269.37
470.72	268.80
471.08	268.19
471.45	267.66
471.82	267.11
472.18	266.54
472.55	266.16
472.92	265.66
473.28	265.21
473.65	264.77
474.02	264.36
474.38	264.01
474.75	263.67
475.11	263.32
475.48	263.11
475.85	262.94
476.21	262.68
476.58	262.49
476.94	262.36
477.31	262.22
477.67	262.10
478.04	262.00
478.41	261.96
478.77	262.01
479.14	261.96
479.50	261.97
479.87	262.03
480.23	262.08
480.60	262.13
480.96	262.25
481.33	262.48
481.69	262.69
482.06	262.90
482.42	263.14
482.79	263.38
483.15	263.70
483.52	264.02
483.88	264.40
484.25	264.77
484.61	265.18
484.98	265.66
485.34	266.24
485.71	266.89
486.07	267.45
486.44	267.99
486.80	268.71
487.17	269.43
487.53	270.26
487.90	271.13
488.26	272.08
488.62	273.08
488.99	274.04
489.35	275.09
489.72	276.23
490.08	277.44
490.44	278.68
490.81	280.00
491.17	281.37
491.54	282.87
491.90	284.42
492.26	286.09
492.63	287.80
492.99	289.54
493.36	291.42
493.72	293.49
494.08	295.59
494.45	297.83
494.81	300.25
495.17	302.67
495.54	305.19
495.90	307.88
496.26	310.69
496.63	313.63
496.99	316.74
497.35	319.94
497.72	323.33
498.08	326.88
498.44	330.61
498.80	334.54
499.17	338.60
499.53	342.75
499.89	347.07
500.26	351.53
500.62	356.19
500.98	361.09
501.34	366.13
501.71	371.45
502.07	376.87
502.43	382.41
502.79	388.21
503.16	394.29
503.52	400.53
503.88	406.87
504.24	413.54
504.60	420.40
504.97	427.54
505.33	434.81
505.69	442.47
506.05	450.19
506.41	458.03
506.78	466.09
507.14	474.55
507.50	483.26
507.86	492.28
508.22	501.44
508.59	510.64
508.95	520.26
509.31	530.06
509.67	540.15
510.03	550.43
510.39	560.96
510.75	571.73
511.12	582.59
511.48	593.89
511.84	605.26
512.20	616.70
512.56	628.59
512.92	640.71
513.28	653.07
513.64	665.44
514.00	678.07
514.37	691.02
514.73	704.04
515.09	717.04
515.45	730.28
515.81	743.82
516.17	757.74
516.53	771.73
516.89	785.83
517.25	799.97
517.61	814.31
517.97	828.75
518.33	843.02
518.69	857.70
519.05	872.62
519.41	887.70
519.77	903.14
520.13	918.55
520.49	933.95
520.85	949.08
521.21	964.71
521.57	980.79
521.93	996.39
522.29	1012.53
522.65	1028.65
523.01	1044.59
523.37	1060.50
523.73	1076.50
524.09	1092.54
524.45	1108.71
524.81	1125.07
525.17	1141.77
525.53	1158.34
525.89	1175.11
526.25	1191.83
526.61	1207.97
526.97	1224.60
527.33	1240.95
527.68	1257.30
528.04	1273.55
528.40	1290.07
528.76	1307.03
529.12	1323.46
529.48	1340.24
529.84	1356.02
530.20	1372.50
530.56	1389.32
530.91	1406.54
531.27	1423.19
531.63	1439.42
531.99	1455.84
532.35	1471.86
532.71	1487.65
533.07	1503.80
533.42	1519.60
533.78	1535.49
534.14	1551.70
534.50	1566.88
534.86	1582.51
535.21	1597.48
535.57	1613.15
535.93	1628.40
536.29	1642.94
536.65	1657.92
537.00	1672.39
537.36	1687.65
537.72	1702.00
538.08	1716.43
538.44	1730.13
538.79	1743.77
539.15	1757.08
539.51	1770.66
539.87	1784.78
540.22	1798.16
540.58	1811.70
540.94	1824.74
541.29	1837.30
541.65	1849.74
542.01	1862.73
542.37	1874.94
542.72	1887.21
543.08	1898.92
543.44	1911.19
543.79	1922.36
544.15	1933.21
544.51	1944.69
544.87	1955.40
545.22	1966.15
545.58	1976.24
545.94	1985.74
546.29	1995.56
546.65	2005.46
547.01	2014.68
547.36	2023.33
547.72	2031.74
548.07	2039.84
548.43	2048.00
548.79	2055.93
549.14	2063.42
549.50	2070.62
549.86	2078.17
550.21	2085.34
550.57	2092.44
550.92	2099.07
551.28	2106.02
551.64	2113.01
551.99	2119.42
552.35	2125.67
552.70	2131.72
553.06	2137.68
553.41	2144.05
553.77	2149.98
554.13	2155.87
554.48	2161.81
554.84	2167.25
555.19	2172.45
555.55	2177.48
555.90	2181.99
556.26	2187.10
556.61	2191.79
556.97	2196.32
557.32	2200.51
557.68	2204.84
558.03	2209.04
558.39	2212.71
558.74	2217.42
559.10	2221.26
559.45	2224.88
559.81	2229.08
560.16	2232.80
560.52	2236.08
560.87	2239.51
561.23	2242.26
561.58	2245.14
561.94	2247.70
562.29	2250.01
562.64	2253.00
563.00	2255.51
563.35	2258.86
563.71	2262.03
564.06	2265.21
564.42	2268.02
564.77	2270.61
565.12	2273.00
565.48	2275.06
565.83	2276.95
566.19	2278.34
566.54	2279.22
566.89	2280.61
567.25	2281.39
567.60	2282.85
567.96	2284.59
568.31	2285.45
568.66	2286.57
569.02	2287.48
569.37	2287.97
569.72	2288.97
570.08	2289.01
570.43	2289.15
570.78	2288.82
571.14	2287.21
571.49	2285.93
571.84	2285.53
572.20	2284.50
572.55	2283.44
572.90	2281.92
573.26	2280.73
573.61	2278.96
573.96	2277.45
574.31	2274.48
574.67	2271.55
575.02	2268.00
575.37	2264.56
575.72	2261.09
576.08	2257.72
576.43	2254.30
576.78	2250.84
577.13	2247.55
577.49	2244.48
577.84	2241.10
578.19	2237.34
578.54	2233.85
578.90	2229.86
579.25	2224.57
579.60	2219.84
579.95	2215.00
580.30	2209.99
580.66	2204.78
581.01	2199.69
581.36	2194.74
581.71	2190.67
582.06	2186.39
582.42	2182.04
582.77	2176.95
583.12	2172.21
583.47	2167.86
583.82	2163.16
584.17	2157.98
584.53	2152.55
584.88	2146.89
585.23	2141.14
585.58	2135.63
585.93	2130.11
586.28	2125.26
586.63	2120.18
586.98	2115.13
587.34	2110.30
587.69	2105.50
588.04	2100.38
588.39	2095.04
588.74	2088.59
589.09	2082.56
589.44	2075.75
589.79	2069.66
590.14	2064.04
590.49	2057.58
590.84	2051.15
591.19	2045.08
591.54	2038.60
591.89	2031.60
592.25	2025.14
592.60	2018.01
592.95	2010.70
593.30	2003.58
593.65	1995.94
594.00	1989.07
594.35	1981.83
594.70	1973.87
595.05	1966.90
595.40	1959.70
595.75	1952.20
596.10	1946.23
596.45	1939.73
596.80	1933.81
597.15	1927.36
597.50	1920.65
597.85	1914.31
598.19	1907.68
598.54	1900.84
598.89	1894.17
599.24	1888.25
599.59	1881.70
599.94	1875.56
600.29	1869.30
600.64	1862.75
600.99	1855.65
601.34	1848.90
601.69	1842.11
602.04	1835.46
602.39	1828.22
602.74	1821.57
603.08	1815.12
603.43	1808.58
603.78	1801.09
604.13	1793.87
604.48	1786.83
604.83	1779.91
605.18	1773.14
605.53	1765.41
605.87	1757.47
606.22	1750.41
606.57	1742.47
606.92	1735.07
607.27	1728.08
607.62	1721.23
607.96	1714.19
608.31	1707.77
608.66	1700.29
609.01	1692.83
609.36	1685.31
609.70	1677.26
610.05	1669.27
610.40	1661.54
610.75	1653.22
611.10	1645.78
611.44	1637.37
611.79	1629.21
612.14	1620.59
612.49	1611.27
612.83	1602.78
613.18	1594.59
613.53	1586.52
613.88	1578.07
614.22	1569.92
614.57	1561.27
614.92	1553.28
615.27	1545.75
615.61	1537.34
615.96	1529.24
616.31	1521.46
616.65	1514.08
617.00	1506.72
617.35	1498.95
617.70	1490.71
618.04	1482.19
618.39	1473.93
618.74	1466.46
619.08	1458.17
619.43	1450.67
619.78	1443.87
620.12	1436.85
620.47	1429.36
620.82	1421.22
621.16	1413.78
621.51	1406.09
621.85	1398.45
622.20	1390.01
622.55	1381.62
622.89	1373.92
623.24	1366.21
623.59	1358.64
623.93	1351.07
624.28	1343.65
624.62	1336.26
624.97	1329.10
625.32	1322.24
625.66	1315.27
626.01	1308.03
626.35	1300.77
626.70	1292.90
627.04	1285.28
627.39	1277.43
627.73	1270.06
628.08	1263.15
628.43	1255.81
628.77	1248.59
629.12	1241.12
629.46	1234.07
629.81	1226.52
630.15	1219.18
630.50	1211.86
630.84	1203.91
631.19	1196.06
631.53	1188.57
631.88	1180.90
632.22	1173.20
632.57	1165.89
632.91	1158.22
633.26	1150.81
633.60	1143.31
633.95	1136.21
634.29	1129.04
634.64	1122.25
634.98	1114.83
635.32	1107.68
635.67	1101.17
636.01	1094.43
636.36	1087.55
636.70	1080.84
637.05	1074.31
637.39	1067.84
637.73	1061.35
638.08	1055.43
638.42	1049.45
638.77	1043.05
639.11	1036.53
639.45	1030.11
639.80	1023.58
640.14	1017.29
640.49	1010.88
640.83	1004.61
641.17	998.39
641.52	992.11
641.86	985.66
642.20	979.83
642.55	973.49
642.89	967.09
643.23	960.56
643.58	954.88
643.92	948.80
644.26	942.95
644.61	936.85
644.95	930.86
645.29	924.33
645.64	917.68
645.98	911.36
646.32	905.49
646.66	899.57
647.01	893.75
647.35	888.09
647.69	882.17
648.04	876.64
648.38	870.90
648.72	864.97
649.06	859.01
649.41	853.14
649.75	847.22
650.09	841.27
650.43	835.48
650.78	829.31
651.12	823.34
651.46	817.55
651.80	811.97
652.14	806.58
652.49	801.23
652.83	795.99
653.17	790.38
653.51	784.70
653.85	779.30
654.20	773.69
654.54	767.65
654.88	761.96
655.22	756.08
655.56	750.44
655.90	744.94
656.25	739.69
656.59	734.32
656.93	729.24
657.27	724.07
657.61	718.63
657.95	713.58
658.29	708.47
658.64	703.22
658.98	697.80
659.32	692.33
659.66	687.08
660.00	681.85
660.34	676.88
660.68	671.99
661.02	666.86
661.36	662.12
661.70	657.59
662.05	653.19
662.39	648.93
662.73	644.43
663.07	640.10
663.41	635.66
663.75	631.25
664.09	626.60
664.43	622.23
664.77	618.19
665.11	613.93
665.45	609.80
665.79	605.68
666.13	601.61
666.47	597.50
666.81	593.36
667.15	589.19
667.49	585.29
667.83	581.41
668.17	577.58
668.51	573.58
668.85	569.54
669.19	565.68
669.53	561.81
669.87	557.97
670.21	554.24
670.55	550.61
670.89	547.18
671.23	543.84
671.57	540.28
671.91	536.76
672.25	533.23
672.58	529.73
672.92	526.28
673.26	522.98
673.60	519.84
673.94	516.74
674.28	513.81
674.62	510.87
674.96	507.80
675.30	504.87
675.64	501.93
675.97	499.19
676.31	496.32
676.65	493.36
676.99	490.64
677.33	487.76
677.67	484.97
678.01	481.92
678.34	478.95
678.68	476.05
679.02	473.21
679.36	470.43
679.70	467.68
680.04	464.98
680.37	462.20
680.71	459.37
681.05	456.71
681.39	454.05
681.73	451.37
682.06	448.86
682.40	446.27
682.74	443.74
683.08	441.19
683.42	438.54
683.75	436.08
684.09	433.49
684.43	431.04
684.77	428.53
685.10	426.15
685.44	423.78
685.78	421.50
686.12	419.19
686.45	416.92
686.79	414.61
687.13	412.39
687.46	410.22
687.80	408.14
688.14	405.91
688.48	403.82
688.81	401.57
689.15	399.39
689.49	397.26
689.82	395.17
690.16	393.07
690.50	391.17
690.83	389.17
691.17	387.20
691.51	385.31
691.84	383.46
692.18	381.61
692.52	379.72
692.85	377.78
693.19	375.90
693.52	374.04
693.86	372.23
694.20	370.41
694.53	368.60
694.87	366.72
695.21	364.99
695.54	363.14
695.88	361.42
696.21	359.71
696.55	358.04
696.88	356.33
697.22	354.65
697.56	352.94
697.89	351.34
698.23	349.73
698.56	348.08
698.90	346.57
699.23	344.87
699.57	343.28
699.90	341.78
700.24	340.24
700.58	338.73
700.91	337.25
701.25	335.81
701.58	334.46
701.92	333.12
702.25	331.76
702.59	330.40
702.92	329.08
703.26	327.79
703.59	326.51
703.93	325.32
704.26	324.09
704.60	322.85
704.93	321.60
705.26	320.42
705.60	319.26
705.93	318.04
706.27	317.04
706.60	316.01
706.94	314.91
707.27	313.81
707.61	312.72
707.94	311.68
708.27	310.64
708.61	309.50
708.94	308.44
709.28	307.44
709.61	306.48
709.94	305.51
710.28	304.46
710.61	303.46
710.95	302.36
711.28	301.45
711.61	300.53
711.95	299.61
712.28	298.64
712.61	297.62
712.95	296.71
713.28	295.80
713.61	294.92
713.95	294.06
714.28	293.23
714.61	292.39
714.95	291.56
715.28	290.70
715.61	289.87
715.95	289.06
716.28	288.17
716.61	287.31
716.95	286.47
717.28	285.71
717.61	284.98
717.94	284.28
718.28	283.47
718.61	282.73
718.94	282.02
719.27	281.32
719.61	280.68
719.94	279.97
720.27	279.23
720.60	278.58
720.94	277.94
721.27	277.31
721.60	276.74
721.93	276.14
722.27	275.59
722.60	275.06
722.93	274.48
723.26	273.97
723.59	273.43
723.93	272.88
724.26	272.35
724.59	271.73
724.92	271.18
725.25	270.66
725.59	270.13
725.92	269.61
726.25	269.11
726.58	268.63
726.91	268.18
727.24	267.69
727.57	267.15
727.91	266.65
728.24	266.23
728.57	265.73
728.90	265.30
729.23	264.79
729.56	264.34
729.89	263.90
730.22	263.34
730.55	262.88
730.89	262.45
731.22	262.04
731.55	261.63
731.88	261.22
732.21	260.81
732.54	260.38
732.87	259.95
733.20	259.55
733.53	259.19
733.86	258.82
734.19	258.46
734.52	258.11
734.85	257.78
735.18	257.37
735.51	257.00
735.84	256.59
736.17	256.25
736.50	255.86
736.83	255.61
737.16	255.36
737.49	255.03
737.82	254.72
738.15	254.34
738.48	254.03
738.81	253.70
739.14	253.38
739.47	253.09
739.80	252.82
740.13	252.51
740.46	252.16
740.79	251.85
741.12	251.55
741.45	251.23
741.78	250.88
742.11	250.62
742.44	250.29
742.77	250.02
743.10	249.72
743.43	249.44
743.75	249.04
744.08	248.85
744.41	248.58
744.74	248.31
745.07	248.07
745.40	247.81
745.73	247.59
746.06	247.33
746.39	247.05
746.71	246.78
747.04	246.49
747.37	246.24
747.70	246.00
748.03	245.75
748.36	245.54
748.68	245.29
749.01	245.02
749.34	244.82
749.67	244.57
750.00	244.34
750.33	244.21
750.65	244.03
750.98	243.68
751.31	243.44
751.64	243.21
751.97	243.04
752.29	242.81
752.62	242.56
752.95	242.32
753.28	242.12
753.60	241.90
753.93	241.78
754.26	241.58
754.59	241.33
754.91	241.11
755.24	240.90
755.57	240.72
755.90	240.50
756.22	240.31
756.55	240.07
756.88	239.87
757.20	239.62
757.53	239.43
757.86	239.27
758.19	239.10
758.51	238.93
758.84	238.71
759.17	238.55
759.49	238.38
759.82	238.28
760.15	238.10
760.47	237.97
760.80	237.78
761.13	237.64
761.45	237.47
761.78	237.35
762.11	237.18
762.43	237.03
762.76	236.91
763.08	236.77
763.41	236.67
763.74	236.59
764.06	236.41
764.39	236.25
764.71	236.10
765.04	235.97
765.37	235.83
765.69	235.67
766.02	235.55
766.34	235.43
766.67	235.27
767.00	235.16
767.32	235.07
767.65	235.00
767.97	234.89
768.30	234.78
768.62	234.68
768.95	234.55
769.27	234.46
769.60	234.37
769.92	234.24
770.25	234.11
770.57	233.98
770.90	233.91
771.22	233.81
771.55	233.74
771.87	233.65
772.20	233.52
772.52	233.52
772.85	233.55
773.17	233.44
773.50	233.35
773.82	233.26
774.15	233.13
774.47	233.01
774.80	232.89
775.12	232.80
775.45	232.70
775.77	232.67
776.09	232.57
776.42	232.50
776.74	232.43
777.07	232.37
777.39	232.28
777.72	232.19
778.04	232.12
778.36	232.05
778.69	231.97
779.01	231.96
779.33	231.83
779.66	231.64
779.98	231.55
780.31	231.50
780.63	231.47
780.95	231.45
781.28	231.36
781.60	231.34
781.92	231.30
782.25	231.24
782.57	231.14
782.89	231.07
783.22	231.01
783.54	230.96
783.86	230.91
784.19	230.86
784.51	230.84
784.83	230.77
785.16	230.71
785.48	230.68
785.80	230.60
786.12	230.54
786.45	230.50
786.77	230.48
787.09	230.44
787.42	230.35
787.74	230.30
788.06	230.27
788.38	230.23
788.71	230.17
789.03	230.12
789.35	230.13
789.67	230.10
789.99	230.04
790.32	229.96
790.64	229.93
790.96	229.95
791.28	229.88
791.61	229.83
791.93	229.78
792.25	229.71
792.57	229.74
792.89	229.67
793.21	229.63
793.54	229.57
793.86	229.53
794.18	229.47
794.50	229.42
794.82	229.37
795.14	229.33
795.47	229.29
795.79	229.27
796.11	229.19
796.43	229.15
796.75	229.10
797.07	229.09
797.39	229.01
797.71	228.93
798.04	228.88
798.36	228.82
798.68	228.78
799.00	228.76
799.32	228.69
799.64	228.69
799.96	228.66
800.28	228.65
800.60	228.60
800.92	228.62
801.24	228.55
801.56	228.55
801.89	228.49
802.21	228.46
802.53	228.39
802.85	228.37
803.17	228.35
803.49	228.30
803.81	228.23
804.13	228.22
804.45	228.17
804.77	228.16
805.09	228.15
805.41	228.13
805.73	228.07
806.05	228.01
806.37	227.96
806.69	227.95
807.01	227.90
807.33	227.85
807.65	227.74
807.97	227.75
808.28	227.68
808.60	227.67
808.92	227.62
809.24	227.62
809.56	227.58
809.88	227.58
810.20	227.59
810.52	227.62
810.84	227.59
811.16	227.55
811.48	227.50
811.80	227.53
812.12	227.53
812.43	227.56
812.75	227.55
813.07	227.54
813.39	227.54
813.71	227.53
814.03	227.55
814.35	227.57
814.67	227.53
814.98	227.50
815.30	227.48
815.62	227.47
815.94	227.44
816.26	227.49
816.58	227.43
816.89	227.41
817.21	227.40
817.53	227.38
817.85	227.39
818.17	227.39
818.48	227.33
818.80	227.31
819.12	227.30
819.44	227.30
819.76	227.24
820.07	227.21
820.39	227.21
820.71	227.18
821.03	227.18
821.34	227.17
821.66	227.20
821.98	227.19
822.30	227.20
822.61	227.27
822.93	227.20
823.25	227.20
823.57	227.18
823.88	227.18
824.20	227.17
824.52	227.20
824.83	227.19
825.15	227.19
825.47	227.16
825.79	227.14
826.10	227.12
826.42	227.11
826.74	227.11
827.05	227.10
827.37	227.10
827.69	227.10
828.00	227.09
828.32	227.08
828.64	227.09
828.95	227.14
829.27	227.08
829.58	227.10
829.90	227.13
830.22	227.15
830.53	227.14
830.85	227.13
831.17	227.09
831.48	227.11
831.80	227.09
832.11	227.10
832.43	227.09
832.75	227.06
833.06	227.15
833.38	227.12
833.69	227.10
834.01	227.12
834.32	227.09
834.64	227.07
834.96	227.07
835.27	227.05
835.59	226.97
835.90	226.94
836.22	226.87
836.53	226.83
836.85	226.78
837.16	226.81
837.48	226.80
837.79	226.79
838.11	226.76
838.42	226.74
838.74	226.75
839.05	226.71
839.37	226.68
839.68	226.56
840.00	226.55
840.31	226.52
840.63	226.48
840.94	226.41
841.26	226.37
841.57	226.31
841.88	226.29
842.20	226.27
842.51	226.25
842.83	226.28
843.14	226.35
843.46	226.35
843.77	226.27
844.08	226.26
844.40	226.22
844.71	226.18
845.03	226.17
845.34	226.11
845.65	226.12
845.97	226.13
846.28	226.16
846.60	226.18
846.91	226.18
847.22	226.17
847.54	226.21
847.85	226.22
848.16	226.20
848.48	226.19
848.79	226.20
849.10	226.21
849.42	226.21
849.73	226.06
850.04	226.05
850.36	226.04
850.67	226.05
850.98	226.02
851.30	226.05
851.61	226.04
851.92	226.05
852.23	226.06
852.55	226.06
852.86	226.03
853.17	226.00
853.49	226.01
853.80	226.02
854.11	226.01
854.42	226.02
854.74	226.02
855.05	225.98
855.36	225.96
855.67	225.96
855.99	225.96
856.30	226.12
856.61	226.11
856.92	226.08
857.23	226.08
857.55	226.09
857.86	226.11
858.17	226.10
858.48	226.04
858.79	226.03
859.11	226.04
859.42	226.04
859.73	226.05
860.04	226.04
860.35	226.06
860.66	226.05
860.98	226.07
861.29	226.08
861.60	226.09
861.91	226.10
862.22	226.08
862.53	226.09
862.84	225.99
863.16	226.01
863.47	226.03
863.78	225.98
864.09	225.98
864.40	225.99
864.71	226.02
865.02	226.07
865.33	226.06
865.64	226.05
865.95	226.04
866.27	226.11
866.58	226.13
866.89	226.10
867.20	226.07
867.51	226.02
867.82	226.01
868.13	226.08
868.44	226.04
868.75	226.04
869.06	226.01
869.37	226.01
869.68	225.98
869.99	226.00
870.30	226.04
870.61	226.05
870.92	226.01
871.23	226.02
871.54	226.03
871.85	226.05
872.16	226.09
872.47	226.09
872.78	225.99
873.09	225.98
873.40	225.98
873.71	226.06
874.02	226.05
874.33	226.09
874.64	226.03
874.95	226.09
875.26	226.08
875.56	226.08
875.87	226.07
876.18	226.07
876.49	226.16
876.80	226.14
877.11	226.12
877.42	226.11
877.73	226.08
878.04	226.05
878.35	226.04
878.66	225.99
878.96	225.98
879.27	225.99
879.58	225.97
879.89	225.94
880.20	225.92
880.51	225.93
880.82	225.87
881.12	225.89
881.43	225.87
881.74	225.85
882.05	225.84
882.36	225.84
882.67	225.83
882.97	225.71
883.28	225.69
883.59	225.68
883.90	225.69
884.21	225.72
884.51	225.73
884.82	225.69
885.13	225.72
885.44	225.71
885.74	225.72
886.05	225.71
886.36	225.73
886.67	225.67
886.98	225.70
887.28	225.72
887.59	225.69
887.90	225.64
888.20	225.62
888.51	225.63
888.82	225.60
889.13	225.59
889.43	225.67
889.74	225.67
890.05	225.66
890.35	225.64
890.66	225.60
890.97	225.57
891.28	225.57
891.58	225.57
891.89	225.56
892.20	225.51
892.50	225.51
892.81	225.47
893.12	225.50
893.42	225.48
893.73	225.48
894.04	225.49
894.34	225.52
894.65	225.53
894.95	225.53
895.26	225.53
895.57	225.60
895.87	225.51
896.18	225.54
896.48	225.54
896.79	225.53
897.10	225.56
897.40	225.60
897.71	225.62
898.01	225.63
898.32	225.65
898.63	225.65
898.93	225.66
899.24	225.70
899.54	225.65
899.85	225.66
900.15	225.68
900.46	225.71
900.76	225.72
901.07	225.71
901.38	225.72
901.68	225.78
901.99	225.73
902.29	225.77
902.60	225.78
902.90	225.80
903.21	225.81
903.51	225.79
903.82	225.80
904.12	225.81
904.43	225.83
904.73	225.85
905.03	225.87
905.34	225.98
905.64	225.97
905.95	226.00
906.25	226.00
906.56	225.98
906.86	225.95
907.17	225.95
907.47	225.98
907.77	225.96
908.08	225.94
908.38	225.96
908.69	225.94
908.99	225.96
909.30	225.93
909.60	225.92
909.90	225.94
910.21	225.92
910.51	225.87
910.81	225.89
911.12	225.88
911.42	225.92
911.73	225.82
912.03	225.82
912.33	225.86
912.64	225.86
912.94	225.86
913.24	225.84
913.55	225.84
913.85	225.81
914.15	225.86
914.46	225.87
914.76	225.84
915.06	225.83
915.37	225.80
915.67	225.81
915.97	225.86
916.27	225.82
916.58	225.82
916.88	225.84
917.18	225.80
917.49	225.83
917.79	225.79
918.09	225.82
918.39	225.84
918.70	225.80
919.00	225.75
919.30	225.77
919.60	225.77
919.91	225.77
920.21	225.79
920.51	225.73
920.81	225.70
921.12	225.69
921.42	225.70
921.72	225.71
922.02	225.72
922.32	225.67
922.63	225.68
922.93	225.69
923.23	225.71
923.53	225.71
923.83	225.67
924.13	225.67
924.44	225.62
924.74	225.65
925.04	225.66
925.34	225.70
925.64	225.70
925.94	225.70
926.24	225.72
926.55	225.71
926.85	225.73
927.15	225.73
927.45	225.76
927.75	225.74
928.05	225.73
928.35	225.71
928.65	225.76
928.95	225.73
929.26	225.70
929.56	225.71
929.86	225.71
930.16	225.67
930.46	225.66
930.76	225.64
931.06	225.60
931.36	225.59
931.66	225.59
931.96	225.57
932.26	225.58
932.56	225.56
932.86	225.55
933.16	225.57
933.46	225.56
933.76	225.54
934.06	225.59
934.36	225.63
934.66	225.63
934.96	225.64
935.26	225.67
935.56	225.68
935.86	225.63
936.16	225.61
936.46	225.62
936.76	225.65
937.06	225.67
937.36	225.68
937.66	225.69
937.96	225.72
938.26	225.72
938.56	225.70
938.86	225.70
939.16	225.74
939.46	225.74
939.76	225.77
940.06	225.76
940.35	225.70
940.65	225.66
940.95	225.67
941.25	225.65
941.55	225.65
941.85	225.69
942.15	225.74
942.45	225.77
942.75	225.78
943.04	225.79
943.34	225.81
943.64	225.78
943.94	225.77
944.24	225.74
944.54	225.74
944.84	225.75
945.13	225.76
945.43	225.75
945.73	225.74
946.03	225.73
946.33	225.73
946.62	225.74
946.92	225.72
947.22	225.75
947.52	225.75
947.82	225.76
948.11	225.71
948.41	225.67
948.71	225.65
949.01	225.66
949.31	225.65
949.60	225.64
949.90	225.70
950.20	225.68
950.50	225.70
950.79	225.69
951.09	225.71
951.39	225.70
951.69	225.70
951.98	225.71
952.28	225.71
952.58	225.69
952.87	225.68
953.17	225.71
953.47	225.70
953.76	225.71
954.06	225.67
954.36	225.65
954.66	225.66
954.95	225.69
955.25	225.69
955.55	225.68
955.84	225.65
956.14	225.62
956.44	225.61
956.73	225.56
957.03	225.51
957.32	225.51
957.62	225.48
957.92	225.48
958.21	225.46
958.51	225.53
958.81	225.54
959.10	225.53
959.40	225.52
959.69	225.51
959.99	225.49
960.29	225.48
960.58	225.48
960.88	225.50
961.17	225.49
961.47	225.52
961.76	225.53
962.06	225.51
962.36	225.46
962.65	225.49
962.95	225.49
963.24	225.51
963.54	225.50
963.83	225.49
964.13	225.51
964.42	225.47
964.72	225.39
965.01	225.43
965.31	225.43
965.60	225.42
965.90	225.45
966.19	225.43
966.49	225.47
966.78	225.46
967.08	225.45
967.37	225.42
967.67	225.38
967.96	225.37
968.26	225.42
968.55	225.46
968.85	225.46
969.14	225.45
969.43	225.45
969.73	225.44
970.02	225.46
970.32	225.43
970.61	225.46
970.91	225.47
971.20	225.41
971.49	225.42
971.79	225.41
972.08	225.36
972.38	225.38
972.67	225.38
972.96	225.42
973.26	225.38
973.55	225.43
973.85	225.42
974.14	225.44
974.43	225.42
974.73	225.43
975.02	225.43
975.31	225.47
975.61	225.49
975.90	225.50
976.19	225.50
976.49	225.49
976.78	225.51
977.07	225.50
977.37	225.52
977.66	225.51
977.95	225.50
978.24	225.49
978.54	225.51
978.83	225.48
979.12	225.49
979.42	225.49
979.71	225.49
980.00	225.49
980.29	225.48
980.59	225.49
980.88	225.50
981.17	225.50
981.46	225.48
981.76	225.46
982.05	225.49
982.34	225.49
982.63	225.47
982.93	225.45
983.22	225.47
983.51	225.48
983.80	225.49
984.09	225.50
984.39	225.52
984.68	225.50
984.97	225.53
985.26	225.52
985.55	225.51
985.85	225.49
986.14	225.50
986.43	225.49
986.72	225.47
987.01	225.45
987.30	225.44
987.59	225.43
987.89	225.44
988.18	225.38
988.47	225.37
988.76	225.40
989.05	225.37
989.34	225.32
989.63	225.31
989.92	225.28
990.22	225.24
990.51	225.22
990.80	225.19
991.09	225.19
991.38	225.18
991.67	225.16
991.96	225.13
992.25	225.13
992.54	225.12
992.83	225.10
993.12	225.09
993.41	225.12
993.70	225.13
993.99	225.11
994.28	225.14
994.58	225.16
994.87	225.12
995.16	225.13
995.45	225.12
995.74	225.10
996.03	225.14
996.32	225.19
996.61	225.22
996.90	225.22
997.19	225.19
997.48	225.18
997.77	225.18
998.06	225.17
998.34	225.15
998.63	225.13
998.92	225.14
999.21	225.15
999.50	225.14
999.79	225.10
1000.08	225.13
1000.37	225.12
1000.66	225.09
1000.95	225.13
1001.24	225.11
1001.53	225.13
1001.82	225.12
1002.11	225.07
1002.40	225.08
1002.68	225.10
1002.97	225.17
1003.26	225.16
1003.55	225.14
1003.84	225.15
1004.13	225.19
1004.42	225.21
1004.71	225.22
1004.99	225.20
1005.28	225.21
1005.57	225.18
1005.86	225.19
1006.15	225.18
1006.44	225.19
1006.72	225.22
1007.01	225.20
1007.30	225.25
1007.59	225.24
1007.88	225.27
1008.17	225.29
1008.45	225.28
1008.74	225.25
1009.03	225.22
1009.32	225.25
1009.60	225.29
1009.89	225.29
1010.18	225.28
1010.47	225.29
1010.76	225.30
1011.04	225.33
1011.33	225.36
1011.62	225.40
1011.91	225.40
1012.19	225.40
1012.48	225.41
1012.77	225.41
1013.05	225.45
1013.34	225.46
1013.63	225.49
1013.92	225.51
1014.20	225.52
1014.49	225.52
1014.78	225.58
1015.06	225.54
1015.35	225.54
1015.64	225.53
1015.92	225.54
1016.21	225.53
1016.50	225.55
1016.78	225.55
1017.07	225.55
1017.36	225.51
1017.64	225.51
1017.93	225.54
1018.22	225.55
1018.50	225.55
1018.79	225.55
1019.08	225.52
1019.36	225.50
1019.65	225.44
1019.93	225.44
1020.22	225.45
1020.51	225.49
1020.79	225.43
1021.08	225.62
1021.36	225.38
1021.65	225.55
1021.94	225.38
1022.22	225.35
1022.51	224.53
1022.79	225.83
1023.08	225.59
1023.36	226.37
1023.65	225.01
>>>>>End Processed Spectral Data<<<<<
