SpectraSuite Data File
++++++++++++++++++++++++++++++++++++
Date: Fri Feb 01 16:34:07 EST 2013
User: group
Dark Spectrum Present: No
Reference Spectrum Present: No
Number of Sampled Component Spectra: 1
Spectrometers: USB2E7196
Integration Time (usec): 35000 (USB2E7196)
Spectra Averaged: 100 (USB2E7196)
Boxcar Smoothing: 10 (USB2E7196)
Correct for Electrical Dark: No (USB2E7196)
Strobe/Lamp Enabled: No (USB2E7196)
Correct for Detector Non-linearity: No (USB2E7196)
Correct for Stray Light: No (USB2E7196)
Number of Pixels in Processed Spectrum: 2048
>>>>>Begin Processed Spectral Data<<<<<
339.09	0.00
339.48	213.46
339.86	215.36
340.24	216.25
340.63	218.31
341.01	220.80
341.39	220.56
341.78	222.30
342.16	223.21
342.54	224.16
342.93	212.29
343.31	223.02
343.69	223.60
344.07	224.06
344.46	224.51
344.84	224.87
345.22	225.11
345.60	225.37
345.99	225.57
346.37	225.71
346.75	225.79
347.13	225.85
347.52	225.91
347.90	225.97
348.28	226.01
348.66	226.07
349.05	226.07
349.43	226.10
349.81	226.14
350.19	226.17
350.57	226.24
350.96	226.31
351.34	226.37
351.72	226.44
352.10	226.54
352.48	226.62
352.87	226.69
353.25	226.77
353.63	226.82
354.01	226.86
354.39	226.93
354.77	227.02
355.15	227.12
355.54	227.19
355.92	227.23
356.30	227.28
356.68	227.40
357.06	227.47
357.44	227.51
357.82	227.58
358.20	227.65
358.58	227.68
358.97	227.73
359.35	227.87
359.73	227.96
360.11	227.96
360.49	228.02
360.87	228.03
361.25	228.08
361.63	228.16
362.01	228.21
362.39	228.22
362.77	228.26
363.15	228.26
363.53	228.30
363.91	228.32
364.29	228.35
364.67	228.29
365.05	228.30
365.43	228.33
365.81	228.32
366.19	228.36
366.57	228.40
366.95	228.38
367.33	228.31
367.71	228.29
368.09	228.32
368.47	228.30
368.85	228.27
369.23	228.28
369.61	228.23
369.99	228.22
370.37	228.24
370.75	228.24
371.13	228.18
371.51	228.12
371.89	228.07
372.27	228.00
372.65	227.94
373.03	227.89
373.41	227.82
373.78	227.81
374.16	227.69
374.54	227.61
374.92	227.56
375.30	227.51
375.68	227.40
376.06	227.32
376.44	227.24
376.82	227.24
377.19	227.12
377.57	227.03
377.95	226.94
378.33	226.85
378.71	226.71
379.09	226.68
379.47	226.60
379.84	226.58
380.22	226.53
380.60	226.47
380.98	226.39
381.36	226.32
381.73	226.22
382.11	226.22
382.49	226.15
382.87	226.08
383.25	225.99
383.62	226.08
384.00	226.04
384.38	225.97
384.76	225.89
385.13	225.90
385.51	225.85
385.89	225.81
386.27	225.81
386.64	225.77
387.02	225.73
387.40	225.70
387.78	225.66
388.15	225.63
388.53	225.63
388.91	225.60
389.29	225.56
389.66	225.54
390.04	225.47
390.42	225.48
390.79	225.46
391.17	225.46
391.55	225.35
391.92	225.33
392.30	225.37
392.68	225.40
393.05	225.38
393.43	225.41
393.81	225.41
394.18	225.39
394.56	225.44
394.94	225.48
395.31	225.50
395.69	225.56
396.06	225.61
396.44	225.64
396.82	225.68
397.19	225.77
397.57	225.81
397.95	225.89
398.32	225.89
398.70	225.97
399.07	226.08
399.45	226.12
399.82	226.15
400.20	226.20
400.58	226.24
400.95	226.27
401.33	226.35
401.70	226.50
402.08	226.58
402.45	226.67
402.83	226.74
403.20	226.83
403.58	226.88
403.95	227.01
404.33	227.08
404.71	227.19
405.08	227.38
405.46	227.49
405.83	227.60
406.21	227.74
406.58	227.86
406.96	227.97
407.33	228.14
407.70	228.34
408.08	228.58
408.45	228.80
408.83	229.05
409.20	229.23
409.58	229.38
409.95	229.63
410.33	229.86
410.70	230.14
411.08	230.45
411.45	230.77
411.82	231.04
412.20	231.41
412.57	231.77
412.95	232.07
413.32	232.50
413.69	232.94
414.07	233.39
414.44	233.86
414.82	234.35
415.19	234.89
415.56	235.44
415.94	235.97
416.31	236.60
416.68	237.22
417.06	237.96
417.43	238.66
417.81	239.45
418.18	240.24
418.55	241.05
418.93	241.90
419.30	242.78
419.67	243.74
420.04	244.68
420.42	245.71
420.79	246.88
421.16	247.99
421.54	249.16
421.91	250.37
422.28	251.63
422.66	252.96
423.03	254.27
423.40	255.61
423.77	257.06
424.15	258.51
424.52	259.98
424.89	261.56
425.26	263.11
425.64	264.54
426.01	266.15
426.38	267.79
426.75	269.52
427.13	271.26
427.50	273.04
427.87	274.93
428.24	276.76
428.61	278.47
428.99	280.42
429.36	282.50
429.73	284.55
430.10	286.58
430.47	288.62
430.85	290.72
431.22	292.94
431.59	295.27
431.96	297.43
432.33	299.89
432.70	302.25
433.08	305.03
433.45	307.62
433.82	310.19
434.19	313.08
434.56	315.86
434.93	318.46
435.30	321.06
435.68	323.93
436.05	326.75
436.42	329.57
436.79	332.12
437.16	334.82
437.53	337.61
437.90	340.43
438.27	343.18
438.64	345.97
439.01	348.57
439.38	350.83
439.75	353.04
440.13	355.53
440.50	357.86
440.87	359.68
441.24	361.66
441.61	363.79
441.98	365.24
442.35	367.02
442.72	368.87
443.09	370.67
443.46	371.66
443.83	372.27
444.20	372.80
444.57	373.58
444.94	373.81
445.31	374.20
445.68	374.53
446.05	374.54
446.42	374.12
446.79	373.69
447.16	373.22
447.53	372.86
447.90	371.69
448.27	370.50
448.64	368.95
449.01	367.83
449.37	365.90
449.74	364.01
450.11	361.73
450.48	359.28
450.85	356.75
451.22	354.59
451.59	352.56
451.96	350.58
452.33	347.97
452.70	345.62
453.07	342.75
453.43	339.84
453.80	337.10
454.17	334.53
454.54	332.03
454.91	329.33
455.28	326.68
455.65	324.24
456.02	321.85
456.38	319.66
456.75	316.97
457.12	314.68
457.49	312.46
457.86	310.33
458.23	308.52
458.59	306.49
458.96	304.43
459.33	302.58
459.70	300.74
460.07	299.28
460.43	297.62
460.80	295.99
461.17	294.60
461.54	293.14
461.91	291.70
462.27	290.24
462.64	289.01
463.01	287.70
463.38	286.42
463.74	285.04
464.11	283.94
464.48	282.96
464.85	281.88
465.21	281.03
465.58	280.11
465.95	279.02
466.32	278.13
466.68	277.26
467.05	276.40
467.42	275.54
467.78	274.61
468.15	273.76
468.52	273.14
468.88	272.27
469.25	271.51
469.62	270.88
469.98	270.23
470.35	269.57
470.72	269.00
471.08	268.36
471.45	267.86
471.82	267.34
472.18	266.72
472.55	266.31
472.92	265.80
473.28	265.33
473.65	264.85
474.02	264.44
474.38	264.09
474.75	263.76
475.11	263.41
475.48	263.15
475.85	262.93
476.21	262.73
476.58	262.59
476.94	262.46
477.31	262.32
477.67	262.16
478.04	262.08
478.41	261.99
478.77	262.02
479.14	261.92
479.50	261.92
479.87	262.03
480.23	262.13
480.60	262.19
480.96	262.32
481.33	262.54
481.69	262.74
482.06	262.91
482.42	263.09
482.79	263.35
483.15	263.66
483.52	264.03
483.88	264.33
484.25	264.67
484.61	265.06
484.98	265.51
485.34	266.07
485.71	266.67
486.07	267.26
486.44	267.81
486.80	268.54
487.17	269.27
487.53	270.07
487.90	270.95
488.26	271.91
488.62	272.91
488.99	273.87
489.35	274.88
489.72	276.01
490.08	277.24
490.44	278.52
490.81	279.89
491.17	281.30
491.54	282.81
491.90	284.41
492.26	286.07
492.63	287.80
492.99	289.60
493.36	291.51
493.72	293.60
494.08	295.72
494.45	297.95
494.81	300.29
495.17	302.75
495.54	305.31
495.90	307.98
496.26	310.77
496.63	313.76
496.99	316.91
497.35	320.17
497.72	323.58
498.08	327.13
498.44	330.77
498.80	334.62
499.17	338.65
499.53	342.84
499.89	347.29
500.26	351.80
500.62	356.48
500.98	361.44
501.34	366.50
501.71	371.83
502.07	377.29
502.43	382.94
502.79	388.79
503.16	394.88
503.52	401.18
503.88	407.60
504.24	414.26
504.60	421.18
504.97	428.36
505.33	435.74
505.69	443.41
506.05	451.23
506.41	459.16
506.78	467.35
507.14	475.80
507.50	484.46
507.86	493.53
508.22	502.70
508.59	511.90
508.95	521.47
509.31	531.35
509.67	541.45
510.03	551.75
510.39	562.24
510.75	573.01
511.12	583.95
511.48	595.27
511.84	606.70
512.20	618.18
512.56	630.11
512.92	642.20
513.28	654.58
513.64	666.99
514.00	679.67
514.37	692.63
514.73	705.71
515.09	718.80
515.45	731.96
515.81	745.54
516.17	759.55
516.53	773.71
516.89	787.82
517.25	801.98
517.61	816.37
517.97	830.82
518.33	845.25
518.69	859.99
519.05	874.91
519.41	890.01
519.77	905.50
520.13	920.86
520.49	936.23
520.85	951.53
521.21	967.19
521.57	983.43
521.93	999.10
522.29	1015.41
522.65	1031.52
523.01	1047.69
523.37	1063.72
523.73	1079.78
524.09	1095.79
524.45	1111.99
524.81	1128.50
525.17	1145.18
525.53	1161.88
525.89	1178.58
526.25	1195.29
526.61	1211.59
526.97	1228.28
527.33	1244.72
527.68	1261.15
528.04	1277.54
528.40	1293.97
528.76	1310.97
529.12	1327.51
529.48	1344.31
529.84	1360.10
530.20	1376.71
530.56	1393.55
530.91	1410.78
531.27	1427.41
531.63	1443.70
531.99	1460.17
532.35	1476.14
532.71	1491.92
533.07	1508.22
533.42	1524.06
533.78	1540.16
534.14	1556.30
534.50	1571.50
534.86	1587.10
535.21	1602.33
535.57	1618.03
535.93	1633.41
536.29	1648.14
536.65	1663.01
537.00	1677.48
537.36	1692.70
537.72	1707.04
538.08	1721.31
538.44	1734.95
538.79	1748.57
539.15	1761.95
539.51	1775.51
539.87	1789.54
540.22	1803.01
540.58	1816.33
540.94	1829.43
541.29	1841.95
541.65	1854.42
542.01	1867.38
542.37	1879.53
542.72	1891.68
543.08	1903.28
543.44	1915.61
543.79	1926.57
544.15	1937.30
544.51	1948.95
544.87	1959.75
545.22	1970.55
545.58	1980.77
545.94	1990.49
546.29	2000.38
546.65	2010.38
547.01	2019.67
547.36	2028.41
547.72	2037.00
548.07	2045.10
548.43	2053.33
548.79	2061.28
549.14	2069.03
549.50	2076.37
549.86	2084.05
550.21	2091.39
550.57	2098.73
550.92	2105.28
551.28	2112.52
551.64	2119.72
551.99	2126.09
552.35	2132.23
552.70	2138.23
553.06	2144.36
553.41	2150.77
553.77	2156.83
554.13	2162.78
554.48	2168.78
554.84	2174.49
555.19	2179.77
555.55	2184.97
555.90	2189.46
556.26	2194.47
556.61	2199.02
556.97	2203.49
557.32	2207.84
557.68	2211.97
558.03	2216.14
558.39	2219.82
558.74	2224.28
559.10	2228.19
559.45	2231.90
559.81	2236.30
560.16	2240.28
560.52	2243.41
560.87	2246.73
561.23	2249.39
561.58	2252.31
561.94	2254.99
562.29	2257.17
562.64	2260.02
563.00	2262.46
563.35	2266.13
563.71	2269.34
564.06	2272.52
564.42	2275.26
564.77	2277.69
565.12	2280.24
565.48	2282.18
565.83	2284.09
566.19	2285.48
566.54	2286.20
566.89	2287.51
567.25	2288.20
567.60	2289.40
567.96	2291.15
568.31	2292.02
568.66	2293.31
569.02	2294.07
569.37	2294.41
569.72	2295.34
570.08	2295.33
570.43	2295.45
570.78	2294.80
571.14	2293.15
571.49	2291.83
571.84	2291.59
572.20	2290.56
572.55	2289.41
572.90	2287.83
573.26	2286.63
573.61	2284.89
573.96	2283.39
574.31	2280.34
574.67	2277.38
575.02	2273.83
575.37	2270.47
575.72	2266.71
576.08	2263.25
576.43	2259.83
576.78	2256.30
577.13	2253.01
577.49	2249.91
577.84	2246.59
578.19	2242.84
578.54	2239.40
578.90	2235.34
579.25	2229.80
579.60	2225.04
579.95	2220.03
580.30	2215.10
580.66	2209.95
581.01	2205.16
581.36	2200.19
581.71	2196.14
582.06	2191.72
582.42	2187.33
582.77	2182.17
583.12	2177.83
583.47	2173.33
583.82	2168.58
584.17	2163.49
584.53	2158.08
584.88	2152.59
585.23	2146.86
585.58	2141.45
585.93	2135.82
586.28	2131.01
586.63	2126.15
586.98	2120.93
587.34	2116.23
587.69	2111.34
588.04	2106.23
588.39	2100.52
588.74	2094.10
589.09	2088.02
589.44	2081.43
589.79	2075.31
590.14	2069.65
590.49	2062.92
590.84	2056.32
591.19	2050.21
591.54	2043.63
591.89	2036.53
592.25	2029.82
592.60	2022.69
592.95	2015.24
593.30	2008.03
593.65	2000.50
594.00	1993.44
594.35	1986.31
594.70	1978.31
595.05	1971.43
595.40	1964.18
595.75	1956.69
596.10	1950.65
596.45	1944.04
596.80	1937.87
597.15	1931.42
597.50	1924.55
597.85	1918.37
598.19	1911.93
598.54	1905.10
598.89	1898.59
599.24	1892.48
599.59	1885.95
599.94	1879.71
600.29	1873.32
600.64	1866.83
600.99	1859.44
601.34	1852.65
601.69	1845.76
602.04	1838.95
602.39	1831.55
602.74	1824.67
603.08	1818.09
603.43	1811.34
603.78	1804.05
604.13	1796.80
604.48	1789.70
604.83	1782.83
605.18	1775.85
605.53	1767.99
605.87	1759.83
606.22	1752.52
606.57	1744.63
606.92	1737.10
607.27	1729.97
607.62	1723.15
607.96	1715.92
608.31	1709.40
608.66	1701.86
609.01	1694.30
609.36	1686.81
609.70	1678.71
610.05	1670.69
610.40	1663.09
610.75	1654.84
611.10	1647.11
611.44	1638.68
611.79	1630.51
612.14	1621.93
612.49	1612.70
612.83	1604.33
613.18	1596.30
613.53	1588.23
613.88	1579.77
614.22	1571.71
614.57	1563.01
614.92	1555.04
615.27	1547.67
615.61	1539.44
615.96	1531.37
616.31	1523.78
616.65	1516.39
617.00	1508.88
617.35	1501.18
617.70	1493.01
618.04	1484.58
618.39	1476.38
618.74	1468.91
619.08	1460.64
619.43	1452.91
619.78	1446.06
620.12	1438.84
620.47	1431.36
620.82	1423.19
621.16	1415.74
621.51	1408.03
621.85	1400.42
622.20	1391.84
622.55	1383.44
622.89	1375.61
623.24	1367.97
623.59	1360.44
623.93	1352.95
624.28	1345.82
624.62	1338.42
624.97	1331.06
625.32	1324.17
625.66	1317.12
626.01	1309.88
626.35	1302.52
626.70	1294.79
627.04	1287.10
627.39	1279.30
627.73	1271.79
628.08	1264.92
628.43	1257.79
628.77	1250.44
629.12	1243.01
629.46	1235.93
629.81	1228.29
630.15	1220.96
630.50	1213.62
630.84	1205.51
631.19	1197.61
631.53	1190.01
631.88	1182.30
632.22	1174.62
632.57	1167.33
632.91	1159.79
633.26	1152.40
633.60	1144.90
633.95	1137.77
634.29	1130.62
634.64	1123.89
634.98	1116.52
635.32	1109.36
635.67	1102.64
636.01	1096.01
636.36	1089.17
636.70	1082.55
637.05	1076.13
637.39	1069.67
637.73	1063.06
638.08	1057.19
638.42	1051.19
638.77	1044.77
639.11	1038.29
639.45	1031.96
639.80	1025.23
640.14	1018.91
640.49	1012.46
640.83	1006.23
641.17	1000.08
641.52	993.81
641.86	987.34
642.20	981.55
642.55	975.16
642.89	968.77
643.23	962.20
643.58	956.54
643.92	950.42
644.26	944.42
644.61	938.34
644.95	932.45
645.29	925.87
645.64	919.10
645.98	912.74
646.32	906.85
646.66	900.74
647.01	894.97
647.35	889.21
647.69	883.29
648.04	877.70
648.38	871.89
648.72	866.00
649.06	860.05
649.41	854.14
649.75	848.26
650.09	842.29
650.43	836.50
650.78	830.23
651.12	824.27
651.46	818.49
651.80	812.87
652.14	807.40
652.49	802.09
652.83	796.95
653.17	791.40
653.51	785.74
653.85	780.38
654.20	774.86
654.54	768.86
654.88	763.10
655.22	757.25
655.56	751.53
655.90	745.96
656.25	740.68
656.59	735.35
656.93	730.22
657.27	725.07
657.61	719.64
657.95	714.48
658.29	709.37
658.64	704.11
658.98	698.70
659.32	693.25
659.66	688.04
660.00	682.76
660.34	677.76
660.68	672.78
661.02	667.72
661.36	662.91
661.70	658.41
662.05	654.06
662.39	649.72
662.73	645.25
663.07	640.90
663.41	636.40
663.75	631.84
664.09	627.29
664.43	622.90
664.77	618.83
665.11	614.66
665.45	610.48
665.79	606.39
666.13	602.30
666.47	598.16
666.81	593.98
667.15	589.80
667.49	585.83
667.83	582.01
668.17	578.12
668.51	574.07
668.85	570.04
669.19	566.15
669.53	562.33
669.87	558.47
670.21	554.75
670.55	551.16
670.89	547.75
671.23	544.37
671.57	540.83
671.91	537.28
672.25	533.79
672.58	530.34
672.92	526.91
673.26	523.71
673.60	520.63
673.94	517.50
674.28	514.56
674.62	511.62
674.96	508.52
675.30	505.62
675.64	502.70
675.97	499.88
676.31	497.05
676.65	494.14
676.99	491.45
677.33	488.53
677.67	485.72
678.01	482.77
678.34	479.74
678.68	476.88
679.02	474.09
679.36	471.27
679.70	468.53
680.04	465.73
680.37	462.90
680.71	460.07
681.05	457.42
681.39	454.73
681.73	452.07
682.06	449.57
682.40	446.97
682.74	444.43
683.08	441.89
683.42	439.24
683.75	436.70
684.09	434.10
684.43	431.69
684.77	429.18
685.10	426.78
685.44	424.44
685.78	422.13
686.12	419.82
686.45	417.52
686.79	415.22
687.13	413.03
687.46	410.86
687.80	408.70
688.14	406.47
688.48	404.40
688.81	402.20
689.15	400.02
689.49	397.86
689.82	395.78
690.16	393.65
690.50	391.74
690.83	389.83
691.17	387.85
691.51	385.91
691.84	384.07
692.18	382.16
692.52	380.23
692.85	378.27
693.19	376.39
693.52	374.58
693.86	372.77
694.20	370.97
694.53	369.15
694.87	367.25
695.21	365.48
695.54	363.67
695.88	361.92
696.21	360.18
696.55	358.58
696.88	356.94
697.22	355.31
697.56	353.63
697.89	352.02
698.23	350.44
698.56	348.85
698.90	347.29
699.23	345.66
699.57	344.11
699.90	342.59
700.24	341.07
700.58	339.58
700.91	338.12
701.25	336.76
701.58	335.36
701.92	334.05
702.25	332.68
702.59	331.33
702.92	330.02
703.26	328.73
703.59	327.41
703.93	326.17
704.26	324.93
704.60	323.64
704.93	322.28
705.26	321.00
705.60	319.80
705.93	318.63
706.27	317.58
706.60	316.50
706.94	315.42
707.27	314.31
707.61	313.20
707.94	312.14
708.27	310.98
708.61	309.90
708.94	308.89
709.28	307.92
709.61	306.96
709.94	306.01
710.28	304.97
710.61	304.00
710.95	302.96
711.28	302.01
711.61	301.05
711.95	300.16
712.28	299.29
712.61	298.31
712.95	297.38
713.28	296.47
713.61	295.58
713.95	294.66
714.28	293.78
714.61	292.93
714.95	292.05
715.28	291.24
715.61	290.37
715.95	289.51
716.28	288.63
716.61	287.75
716.95	286.92
717.28	286.17
717.61	285.41
717.94	284.69
718.28	283.95
718.61	283.26
718.94	282.57
719.27	281.85
719.61	281.19
719.94	280.51
720.27	279.79
720.60	279.14
720.94	278.57
721.27	278.00
721.60	277.41
721.93	276.84
722.27	276.30
722.60	275.76
722.93	275.18
723.26	274.64
723.59	274.12
723.93	273.56
724.26	272.99
724.59	272.34
724.92	271.80
725.25	271.27
725.59	270.76
725.92	270.27
726.25	269.78
726.58	269.32
726.91	268.85
727.24	268.37
727.57	267.90
727.91	267.35
728.24	266.82
728.57	266.32
728.90	265.84
729.23	265.30
729.56	264.90
729.89	264.45
730.22	263.97
730.55	263.49
730.89	263.05
731.22	262.62
731.55	262.28
731.88	261.82
732.21	261.35
732.54	260.88
732.87	260.39
733.20	259.92
733.53	259.50
733.86	259.08
734.19	258.68
734.52	258.30
734.85	257.97
735.18	257.59
735.51	257.23
735.84	256.85
736.17	256.54
736.50	256.09
736.83	255.85
737.16	255.52
737.49	255.18
737.82	254.80
738.15	254.44
738.48	254.06
738.81	253.73
739.14	253.46
739.47	253.17
739.80	252.87
740.13	252.60
740.46	252.26
740.79	251.94
741.12	251.63
741.45	251.30
741.78	250.98
742.11	250.67
742.44	250.33
742.77	250.03
743.10	249.70
743.43	249.42
743.75	249.01
744.08	248.85
744.41	248.55
744.74	248.30
745.07	248.02
745.40	247.79
745.73	247.55
746.06	247.21
746.39	246.96
746.71	246.70
747.04	246.42
747.37	246.16
747.70	245.92
748.03	245.66
748.36	245.44
748.68	245.19
749.01	244.93
749.34	244.70
749.67	244.52
750.00	244.27
750.33	244.12
750.65	243.93
750.98	243.61
751.31	243.41
751.64	243.20
751.97	243.06
752.29	242.84
752.62	242.60
752.95	242.43
753.28	242.21
753.60	242.02
753.93	241.83
754.26	241.68
754.59	241.49
754.91	241.30
755.24	241.11
755.57	240.94
755.90	240.75
756.22	240.58
756.55	240.37
756.88	240.21
757.20	240.00
757.53	239.76
757.86	239.60
758.19	239.47
758.51	239.29
758.84	239.08
759.17	238.91
759.49	238.78
759.82	238.65
760.15	238.49
760.47	238.32
760.80	238.20
761.13	238.03
761.45	237.90
761.78	237.75
762.11	237.60
762.43	237.45
762.76	237.33
763.08	237.23
763.41	237.10
763.74	236.96
764.06	236.80
764.39	236.71
764.71	236.55
765.04	236.36
765.37	236.27
765.69	236.16
766.02	236.02
766.34	235.85
766.67	235.74
767.00	235.65
767.32	235.61
767.65	235.54
767.97	235.44
768.30	235.28
768.62	235.17
768.95	235.02
769.27	234.92
769.60	234.86
769.92	234.71
770.25	234.59
770.57	234.49
770.90	234.38
771.22	234.27
771.55	234.15
771.87	234.07
772.20	233.94
772.52	233.93
772.85	233.98
773.17	233.87
773.50	233.75
773.82	233.64
774.15	233.50
774.47	233.33
774.80	233.24
775.12	233.14
775.45	233.06
775.77	233.00
776.09	232.89
776.42	232.78
776.74	232.73
777.07	232.63
777.39	232.55
777.72	232.48
778.04	232.41
778.36	232.35
778.69	232.30
779.01	232.21
779.33	232.03
779.66	231.83
779.98	231.74
780.31	231.69
780.63	231.67
780.95	231.59
781.28	231.56
781.60	231.47
781.92	231.41
782.25	231.35
782.57	231.31
782.89	231.24
783.22	231.14
783.54	231.05
783.86	231.03
784.19	230.96
784.51	230.94
784.83	230.86
785.16	230.81
785.48	230.76
785.80	230.77
786.12	230.75
786.45	230.72
786.77	230.68
787.09	230.60
787.42	230.53
787.74	230.50
788.06	230.43
788.38	230.39
788.71	230.37
789.03	230.35
789.35	230.28
789.67	230.26
789.99	230.25
790.32	230.22
790.64	230.18
790.96	230.22
791.28	230.15
791.61	230.11
791.93	230.09
792.25	230.05
792.57	230.07
792.89	229.95
793.21	229.89
793.54	229.87
793.86	229.83
794.18	229.76
794.50	229.71
794.82	229.65
795.14	229.64
795.47	229.62
795.79	229.59
796.11	229.54
796.43	229.51
796.75	229.46
797.07	229.46
797.39	229.39
797.71	229.32
798.04	229.29
798.36	229.26
798.68	229.24
799.00	229.19
799.32	229.12
799.64	229.17
799.96	229.15
800.28	229.15
800.60	229.15
800.92	229.14
801.24	229.11
801.56	229.07
801.89	229.00
802.21	228.96
802.53	228.91
802.85	228.93
803.17	228.94
803.49	228.90
803.81	228.86
804.13	228.83
804.45	228.77
804.77	228.76
805.09	228.73
805.41	228.66
805.73	228.60
806.05	228.55
806.37	228.50
806.69	228.46
807.01	228.40
807.33	228.38
807.65	228.31
807.97	228.36
808.28	228.33
808.60	228.31
808.92	228.27
809.24	228.31
809.56	228.26
809.88	228.17
810.20	228.18
810.52	228.16
810.84	228.13
811.16	228.10
811.48	228.06
811.80	228.07
812.12	228.05
812.43	228.10
812.75	228.08
813.07	228.05
813.39	228.04
813.71	228.00
814.03	227.95
814.35	227.95
814.67	227.88
814.98	227.85
815.30	227.83
815.62	227.81
815.94	227.73
816.26	227.75
816.58	227.71
816.89	227.68
817.21	227.61
817.53	227.60
817.85	227.59
818.17	227.55
818.48	227.49
818.80	227.51
819.12	227.46
819.44	227.44
819.76	227.39
820.07	227.34
820.39	227.33
820.71	227.34
821.03	227.34
821.34	227.30
821.66	227.32
821.98	227.33
822.30	227.28
822.61	227.31
822.93	227.23
823.25	227.24
823.57	227.21
823.88	227.23
824.20	227.21
824.52	227.24
824.83	227.23
825.15	227.20
825.47	227.18
825.79	227.18
826.10	227.15
826.42	227.15
826.74	227.16
827.05	227.14
827.37	227.15
827.69	227.11
828.00	227.10
828.32	227.10
828.64	227.06
828.95	227.12
829.27	227.07
829.58	227.08
829.90	227.09
830.22	227.08
830.53	227.04
830.85	227.02
831.17	226.95
831.48	226.95
831.80	226.98
832.11	226.99
832.43	226.96
832.75	226.96
833.06	227.01
833.38	227.00
833.69	227.00
834.01	227.00
834.32	226.99
834.64	227.00
834.96	226.99
835.27	226.99
835.59	226.96
835.90	226.96
836.22	226.96
836.53	226.95
836.85	226.95
837.16	227.05
837.48	227.06
837.79	227.13
838.11	227.13
838.42	227.12
838.74	227.11
839.05	227.11
839.37	227.09
839.68	227.02
840.00	227.02
840.31	227.03
840.63	227.00
840.94	227.00
841.26	226.98
841.57	226.97
841.88	226.99
842.20	226.97
842.51	226.93
842.83	226.94
843.14	227.01
843.46	227.02
843.77	226.93
844.08	226.92
844.40	226.88
844.71	226.87
845.03	226.84
845.34	226.81
845.65	226.79
845.97	226.79
846.28	226.79
846.60	226.78
846.91	226.71
847.22	226.68
847.54	226.69
847.85	226.68
848.16	226.65
848.48	226.63
848.79	226.63
849.10	226.62
849.42	226.61
849.73	226.49
850.04	226.45
850.36	226.44
850.67	226.46
850.98	226.44
851.30	226.43
851.61	226.42
851.92	226.40
852.23	226.41
852.55	226.38
852.86	226.36
853.17	226.36
853.49	226.39
853.80	226.44
854.11	226.40
854.42	226.40
854.74	226.36
855.05	226.34
855.36	226.27
855.67	226.30
855.99	226.24
856.30	226.35
856.61	226.37
856.92	226.36
857.23	226.33
857.55	226.28
857.86	226.27
858.17	226.33
858.48	226.33
858.79	226.31
859.11	226.35
859.42	226.34
859.73	226.31
860.04	226.32
860.35	226.27
860.66	226.26
860.98	226.27
861.29	226.32
861.60	226.30
861.91	226.35
862.22	226.32
862.53	226.34
862.84	226.23
863.16	226.21
863.47	226.19
863.78	226.16
864.09	226.16
864.40	226.14
864.71	226.11
865.02	226.10
865.33	226.08
865.64	226.06
865.95	226.06
866.27	226.12
866.58	226.10
866.89	226.11
867.20	226.10
867.51	226.08
867.82	226.09
868.13	226.11
868.44	226.08
868.75	226.06
869.06	226.09
869.37	226.09
869.68	226.08
869.99	226.10
870.30	226.12
870.61	226.16
870.92	226.17
871.23	226.15
871.54	226.19
871.85	226.20
872.16	226.18
872.47	226.18
872.78	226.14
873.09	226.18
873.40	226.16
873.71	226.15
874.02	226.20
874.33	226.15
874.64	226.16
874.95	226.18
875.26	226.22
875.56	226.19
875.87	226.20
876.18	226.19
876.49	226.29
876.80	226.27
877.11	226.25
877.42	226.25
877.73	226.27
878.04	226.26
878.35	226.27
878.66	226.32
878.96	226.31
879.27	226.30
879.58	226.26
879.89	226.26
880.20	226.32
880.51	226.24
880.82	226.28
881.12	226.30
881.43	226.27
881.74	226.26
882.05	226.26
882.36	226.27
882.67	226.27
882.97	226.12
883.28	226.12
883.59	226.13
883.90	226.09
884.21	226.10
884.51	226.10
884.82	226.09
885.13	226.06
885.44	226.05
885.74	226.04
886.05	226.05
886.36	226.07
886.67	226.01
886.98	226.10
887.28	226.13
887.59	226.13
887.90	226.13
888.20	226.11
888.51	226.13
888.82	226.10
889.13	226.13
889.43	226.27
889.74	226.29
890.05	226.26
890.35	226.27
890.66	226.23
890.97	226.19
891.28	226.18
891.58	226.16
891.89	226.14
892.20	226.15
892.50	226.13
892.81	226.12
893.12	226.12
893.42	226.07
893.73	226.01
894.04	225.95
894.34	225.99
894.65	226.01
894.95	225.98
895.26	225.97
895.57	226.00
895.87	225.89
896.18	225.91
896.48	225.92
896.79	225.95
897.10	225.99
897.40	226.00
897.71	226.00
898.01	226.03
898.32	226.07
898.63	226.05
898.93	226.06
899.24	226.07
899.54	226.05
899.85	226.05
900.15	226.08
900.46	226.10
900.76	226.08
901.07	226.05
901.38	226.05
901.68	226.05
901.99	226.03
902.29	226.05
902.60	225.99
902.90	225.99
903.21	225.98
903.51	225.92
903.82	225.92
904.12	225.90
904.43	225.88
904.73	225.88
905.03	225.86
905.34	225.93
905.64	225.93
905.95	225.96
906.25	225.94
906.56	225.91
906.86	225.91
907.17	225.90
907.47	225.90
907.77	225.85
908.08	225.87
908.38	225.86
908.69	225.85
908.99	225.87
909.30	225.86
909.60	225.82
909.90	225.83
910.21	225.84
910.51	225.84
910.81	225.83
911.12	225.82
911.42	225.85
911.73	225.78
912.03	225.77
912.33	225.74
912.64	225.74
912.94	225.74
913.24	225.71
913.55	225.69
913.85	225.70
914.15	225.75
914.46	225.71
914.76	225.69
915.06	225.66
915.37	225.64
915.67	225.66
915.97	225.71
916.27	225.71
916.58	225.69
916.88	225.72
917.18	225.72
917.49	225.76
917.79	225.76
918.09	225.72
918.39	225.76
918.70	225.78
919.00	225.77
919.30	225.81
919.60	225.83
919.91	225.83
920.21	225.82
920.51	225.81
920.81	225.82
921.12	225.86
921.42	225.87
921.72	225.86
922.02	225.87
922.32	225.88
922.63	225.90
922.93	225.96
923.23	225.94
923.53	225.94
923.83	225.91
924.13	225.92
924.44	225.92
924.74	225.92
925.04	225.94
925.34	225.96
925.64	225.92
925.94	225.93
926.24	225.98
926.55	225.98
926.85	225.98
927.15	226.01
927.45	226.00
927.75	226.02
928.05	226.06
928.35	226.07
928.65	226.07
928.95	226.09
929.26	226.04
929.56	226.08
929.86	226.07
930.16	226.06
930.46	226.06
930.76	226.08
931.06	226.04
931.36	226.02
931.66	226.03
931.96	226.03
932.26	226.01
932.56	225.98
932.86	225.99
933.16	225.99
933.46	225.96
933.76	225.96
934.06	225.96
934.36	226.01
934.66	225.98
934.96	225.95
935.26	225.94
935.56	225.97
935.86	225.92
936.16	225.92
936.46	225.89
936.76	225.90
937.06	225.90
937.36	225.90
937.66	225.88
937.96	225.89
938.26	225.90
938.56	225.92
938.86	225.93
939.16	225.95
939.46	225.98
939.76	225.96
940.06	225.93
940.35	225.93
940.65	225.88
940.95	225.91
941.25	225.93
941.55	225.91
941.85	225.87
942.15	225.92
942.45	225.95
942.75	225.95
943.04	225.95
943.34	225.96
943.64	225.97
943.94	225.95
944.24	225.94
944.54	225.98
944.84	225.94
945.13	225.91
945.43	225.86
945.73	225.85
946.03	225.87
946.33	225.87
946.62	225.82
946.92	225.80
947.22	225.79
947.52	225.77
947.82	225.78
948.11	225.79
948.41	225.75
948.71	225.71
949.01	225.74
949.31	225.72
949.60	225.69
949.90	225.68
950.20	225.70
950.50	225.68
950.79	225.65
951.09	225.66
951.39	225.67
951.69	225.70
951.98	225.69
952.28	225.70
952.58	225.68
952.87	225.68
953.17	225.69
953.47	225.69
953.76	225.68
954.06	225.68
954.36	225.66
954.66	225.69
954.95	225.70
955.25	225.70
955.55	225.72
955.84	225.73
956.14	225.74
956.44	225.75
956.73	225.73
957.03	225.71
957.32	225.73
957.62	225.72
957.92	225.72
958.21	225.74
958.51	225.83
958.81	225.88
959.10	225.93
959.40	225.95
959.69	225.92
959.99	225.95
960.29	225.93
960.58	225.94
960.88	225.96
961.17	225.93
961.47	225.93
961.76	225.90
962.06	225.89
962.36	225.86
962.65	225.85
962.95	225.87
963.24	225.88
963.54	225.88
963.83	225.89
964.13	225.89
964.42	225.87
964.72	225.80
965.01	225.79
965.31	225.78
965.60	225.75
965.90	225.82
966.19	225.76
966.49	225.77
966.78	225.77
967.08	225.77
967.37	225.80
967.67	225.82
967.96	225.86
968.26	225.92
968.55	225.95
968.85	225.97
969.14	225.99
969.43	225.99
969.73	225.98
970.02	226.00
970.32	226.02
970.61	226.01
970.91	225.99
971.20	226.00
971.49	225.97
971.79	225.99
972.08	225.97
972.38	226.00
972.67	226.01
972.96	226.03
973.26	225.99
973.55	226.02
973.85	226.01
974.14	226.00
974.43	225.96
974.73	225.93
975.02	225.91
975.31	225.89
975.61	225.89
975.90	225.91
976.19	225.90
976.49	225.88
976.78	225.89
977.07	225.84
977.37	225.82
977.66	225.87
977.95	225.88
978.24	225.84
978.54	225.84
978.83	225.83
979.12	225.83
979.42	225.84
979.71	225.81
980.00	225.78
980.29	225.79
980.59	225.79
980.88	225.80
981.17	225.77
981.46	225.78
981.76	225.76
982.05	225.76
982.34	225.77
982.63	225.77
982.93	225.77
983.22	225.81
983.51	225.80
983.80	225.78
984.09	225.78
984.39	225.79
984.68	225.80
984.97	225.79
985.26	225.77
985.55	225.78
985.85	225.77
986.14	225.78
986.43	225.80
986.72	225.77
987.01	225.75
987.30	225.75
987.59	225.73
987.89	225.73
988.18	225.73
988.47	225.69
988.76	225.69
989.05	225.66
989.34	225.67
989.63	225.67
989.92	225.64
990.22	225.63
990.51	225.65
990.80	225.64
991.09	225.64
991.38	225.65
991.67	225.66
991.96	225.65
992.25	225.64
992.54	225.62
992.83	225.61
993.12	225.59
993.41	225.63
993.70	225.64
993.99	225.68
994.28	225.65
994.58	225.65
994.87	225.63
995.16	225.62
995.45	225.61
995.74	225.62
996.03	225.62
996.32	225.59
996.61	225.59
996.90	225.59
997.19	225.60
997.48	225.63
997.77	225.60
998.06	225.60
998.34	225.58
998.63	225.60
998.92	225.64
999.21	225.68
999.50	225.68
999.79	225.68
1000.08	225.66
1000.37	225.68
1000.66	225.68
1000.95	225.70
1001.24	225.74
1001.53	225.73
1001.82	225.71
1002.11	225.72
1002.40	225.73
1002.68	225.74
1002.97	225.79
1003.26	225.78
1003.55	225.77
1003.84	225.77
1004.13	225.79
1004.42	225.81
1004.71	225.78
1004.99	225.76
1005.28	225.79
1005.57	225.77
1005.86	225.78
1006.15	225.79
1006.44	225.77
1006.72	225.82
1007.01	225.83
1007.30	225.82
1007.59	225.80
1007.88	225.79
1008.17	225.77
1008.45	225.78
1008.74	225.73
1009.03	225.68
1009.32	225.68
1009.60	225.67
1009.89	225.66
1010.18	225.62
1010.47	225.61
1010.76	225.61
1011.04	225.59
1011.33	225.68
1011.62	225.70
1011.91	225.67
1012.19	225.67
1012.48	225.71
1012.77	225.68
1013.05	225.73
1013.34	225.76
1013.63	225.80
1013.92	225.83
1014.20	225.84
1014.49	225.82
1014.78	225.86
1015.06	225.79
1015.35	225.79
1015.64	225.81
1015.92	225.81
1016.21	225.84
1016.50	225.83
1016.78	225.84
1017.07	225.89
1017.36	225.78
1017.64	225.80
1017.93	225.87
1018.22	225.87
1018.50	225.80
1018.79	225.79
1019.08	225.74
1019.36	225.74
1019.65	225.72
1019.93	225.73
1020.22	225.73
1020.51	225.82
1020.79	225.81
1021.08	225.85
1021.36	224.86
1021.65	225.44
1021.94	226.02
1022.22	226.22
1022.51	225.53
1022.79	226.26
1023.08	225.51
1023.36	227.27
1023.65	225.48
>>>>>End Processed Spectral Data<<<<<
