SpectraSuite Data File
++++++++++++++++++++++++++++++++++++
Date: Fri Feb 01 15:09:31 EST 2013
User: group
Dark Spectrum Present: No
Reference Spectrum Present: No
Number of Sampled Component Spectra: 1
Spectrometers: USB2E7196
Integration Time (usec): 35000 (USB2E7196)
Spectra Averaged: 100 (USB2E7196)
Boxcar Smoothing: 10 (USB2E7196)
Correct for Electrical Dark: No (USB2E7196)
Strobe/Lamp Enabled: No (USB2E7196)
Correct for Detector Non-linearity: No (USB2E7196)
Correct for Stray Light: No (USB2E7196)
Number of Pixels in Processed Spectrum: 2048
>>>>>Begin Processed Spectral Data<<<<<
339.09	0.00
339.48	215.54
339.86	216.29
340.24	217.85
340.63	219.27
341.01	222.16
341.39	222.61
341.78	223.71
342.16	224.45
342.54	225.58
342.93	213.54
343.31	224.30
343.69	224.82
344.07	225.33
344.46	225.77
344.84	226.17
345.22	226.40
345.60	226.62
345.99	226.82
346.37	226.99
346.75	227.10
347.13	227.19
347.52	227.23
347.90	227.34
348.28	227.36
348.66	227.42
349.05	227.41
349.43	227.47
349.81	227.50
350.19	227.54
350.57	227.58
350.96	227.65
351.34	227.76
351.72	227.86
352.10	227.95
352.48	228.01
352.87	228.07
353.25	228.15
353.63	228.22
354.01	228.27
354.39	228.31
354.77	228.37
355.15	228.45
355.54	228.53
355.92	228.54
356.30	228.62
356.68	228.75
357.06	228.81
357.44	228.85
357.82	228.93
358.20	229.02
358.58	229.08
358.97	229.16
359.35	229.22
359.73	229.31
360.11	229.34
360.49	229.40
360.87	229.41
361.25	229.48
361.63	229.52
362.01	229.56
362.39	229.59
362.77	229.62
363.15	229.64
363.53	229.67
363.91	229.71
364.29	229.73
364.67	229.67
365.05	229.69
365.43	229.71
365.81	229.73
366.19	229.77
366.57	229.82
366.95	229.84
367.33	229.82
367.71	229.81
368.09	229.83
368.47	229.80
368.85	229.80
369.23	229.77
369.61	229.73
369.99	229.74
370.37	229.71
370.75	229.73
371.13	229.67
371.51	229.60
371.89	229.57
372.27	229.52
372.65	229.43
373.03	229.40
373.41	229.33
373.78	229.22
374.16	229.11
374.54	229.01
374.92	228.90
375.30	228.83
375.68	228.71
376.06	228.64
376.44	228.56
376.82	228.50
377.19	228.45
377.57	228.36
377.95	228.23
378.33	228.15
378.71	227.99
379.09	227.93
379.47	227.85
379.84	227.75
380.22	227.68
380.60	227.59
380.98	227.52
381.36	227.41
381.73	227.35
382.11	227.30
382.49	227.25
382.87	227.16
383.25	227.11
383.62	227.16
384.00	227.06
384.38	227.03
384.76	226.94
385.13	226.91
385.51	226.85
385.89	226.80
386.27	226.72
386.64	226.71
387.02	226.63
387.40	226.60
387.78	226.57
388.15	226.52
388.53	226.48
388.91	226.41
389.29	226.39
389.66	226.35
390.04	226.32
390.42	226.30
390.79	226.28
391.17	226.24
391.55	226.10
391.92	226.09
392.30	226.06
392.68	226.05
393.05	226.01
393.43	226.01
393.81	226.01
394.18	226.04
394.56	226.05
394.94	226.09
395.31	226.12
395.69	226.18
396.06	226.23
396.44	226.30
396.82	226.33
397.19	226.47
397.57	226.53
397.95	226.59
398.32	226.61
398.70	226.67
399.07	226.80
399.45	226.86
399.82	226.96
400.20	227.05
400.58	227.15
400.95	227.22
401.33	227.37
401.70	227.52
402.08	227.60
402.45	227.71
402.83	227.86
403.20	227.99
403.58	228.08
403.95	228.20
404.33	228.36
404.71	228.51
405.08	228.67
405.46	228.77
405.83	228.95
406.21	229.12
406.58	229.34
406.96	229.51
407.33	229.70
407.70	229.90
408.08	230.20
408.45	230.44
408.83	230.66
409.20	230.86
409.58	231.09
409.95	231.36
410.33	231.66
410.70	231.92
411.08	232.20
411.45	232.53
411.82	232.88
412.20	233.22
412.57	233.62
412.95	233.89
413.32	234.35
413.69	234.73
414.07	235.22
414.44	235.67
414.82	236.12
415.19	236.66
415.56	237.19
415.94	237.67
416.31	238.33
416.68	238.98
417.06	239.71
417.43	240.39
417.81	241.18
418.18	241.96
418.55	242.79
418.93	243.67
419.30	244.55
419.67	245.47
420.04	246.43
420.42	247.46
420.79	248.64
421.16	249.79
421.54	251.00
421.91	252.18
422.28	253.45
422.66	254.81
423.03	256.14
423.40	257.49
423.77	258.91
424.15	260.32
424.52	261.81
424.89	263.39
425.26	264.92
425.64	266.39
426.01	267.96
426.38	269.61
426.75	271.28
427.13	273.01
427.50	274.82
427.87	276.70
428.24	278.57
428.61	280.30
428.99	282.25
429.36	284.33
429.73	286.39
430.10	288.39
430.47	290.43
430.85	292.55
431.22	294.82
431.59	297.22
431.96	299.46
432.33	301.97
432.70	304.39
433.08	307.22
433.45	309.82
433.82	312.44
434.19	315.34
434.56	318.12
434.93	320.76
435.30	323.41
435.68	326.28
436.05	329.08
436.42	331.91
436.79	334.42
437.16	337.11
437.53	339.97
437.90	342.80
438.27	345.56
438.64	348.40
439.01	350.99
439.38	353.21
439.75	355.37
440.13	357.89
440.50	360.18
440.87	362.03
441.24	364.01
441.61	366.15
441.98	367.67
442.35	369.49
442.72	371.37
443.09	373.11
443.46	374.15
443.83	374.75
444.20	375.21
444.57	376.00
444.94	376.30
445.31	376.62
445.68	376.96
446.05	377.04
446.42	376.67
446.79	376.25
447.16	375.79
447.53	375.50
447.90	374.28
448.27	373.14
448.64	371.53
449.01	370.33
449.37	368.37
449.74	366.41
450.11	364.18
450.48	361.69
450.85	359.17
451.22	357.03
451.59	355.02
451.96	353.10
452.33	350.55
452.70	348.18
453.07	345.33
453.43	342.44
453.80	339.65
454.17	336.98
454.54	334.43
454.91	331.72
455.28	329.03
455.65	326.57
456.02	324.10
456.38	321.93
456.75	319.29
457.12	317.06
457.49	314.86
457.86	312.69
458.23	310.84
458.59	308.83
458.96	306.72
459.33	304.84
459.70	302.97
460.07	301.49
460.43	299.81
460.80	298.22
461.17	296.74
461.54	295.24
461.91	293.77
462.27	292.31
462.64	291.08
463.01	289.72
463.38	288.44
463.74	287.11
464.11	285.95
464.48	284.92
464.85	283.83
465.21	282.97
465.58	282.02
465.95	280.92
466.32	279.98
466.68	279.04
467.05	278.14
467.42	277.27
467.78	276.30
468.15	275.38
468.52	274.69
468.88	273.87
469.25	273.10
469.62	272.49
469.98	271.82
470.35	271.15
470.72	270.53
471.08	269.84
471.45	269.26
471.82	268.70
472.18	268.09
472.55	267.63
472.92	267.09
473.28	266.65
473.65	266.20
474.02	265.76
474.38	265.41
474.75	265.10
475.11	264.75
475.48	264.47
475.85	264.26
476.21	264.02
476.58	263.82
476.94	263.68
477.31	263.47
477.67	263.34
478.04	263.20
478.41	263.14
478.77	263.18
479.14	263.08
479.50	263.10
479.87	263.18
480.23	263.25
480.60	263.32
480.96	263.38
481.33	263.58
481.69	263.80
482.06	263.99
482.42	264.18
482.79	264.43
483.15	264.77
483.52	265.12
483.88	265.51
484.25	265.87
484.61	266.25
484.98	266.70
485.34	267.23
485.71	267.81
486.07	268.41
486.44	268.97
486.80	269.67
487.17	270.35
487.53	271.16
487.90	271.98
488.26	272.92
488.62	273.91
488.99	274.87
489.35	275.89
489.72	276.97
490.08	278.16
490.44	279.36
490.81	280.68
491.17	282.04
491.54	283.49
491.90	285.01
492.26	286.65
492.63	288.41
492.99	290.18
493.36	292.08
493.72	294.09
494.08	296.13
494.45	298.39
494.81	300.77
495.17	303.20
495.54	305.76
495.90	308.38
496.26	311.17
496.63	314.09
496.99	317.16
497.35	320.41
497.72	323.78
498.08	327.28
498.44	330.90
498.80	334.77
499.17	338.78
499.53	342.93
499.89	347.30
500.26	351.76
500.62	356.45
500.98	361.41
501.34	366.47
501.71	371.81
502.07	377.23
502.43	382.83
502.79	388.63
503.16	394.73
503.52	400.97
503.88	407.40
504.24	414.03
504.60	420.92
504.97	428.03
505.33	435.34
505.69	442.99
506.05	450.76
506.41	458.67
506.78	466.83
507.14	475.32
507.50	484.09
507.86	493.10
508.22	502.22
508.59	511.40
508.95	521.00
509.31	530.83
509.67	540.98
510.03	551.27
510.39	561.80
510.75	572.59
511.12	583.58
511.48	594.85
511.84	606.34
512.20	617.87
512.56	629.82
512.92	642.10
513.28	654.41
513.64	666.91
514.00	679.62
514.37	692.49
514.73	705.55
515.09	718.45
515.45	731.77
515.81	745.39
516.17	759.41
516.53	773.55
516.89	787.70
517.25	801.89
517.61	816.32
517.97	830.79
518.33	845.22
518.69	860.07
519.05	875.08
519.41	890.25
519.77	905.89
520.13	921.37
520.49	936.67
520.85	952.16
521.21	967.93
521.57	984.26
521.93	1000.24
522.29	1016.70
522.65	1033.07
523.01	1049.32
523.37	1065.55
523.73	1081.70
524.09	1097.87
524.45	1114.29
524.81	1131.01
525.17	1147.96
525.53	1165.03
525.89	1181.96
526.25	1198.75
526.61	1215.18
526.97	1231.99
527.33	1248.50
527.68	1265.26
528.04	1281.87
528.40	1298.60
528.76	1315.73
529.12	1332.40
529.48	1349.21
529.84	1365.21
530.20	1382.00
530.56	1399.15
530.91	1416.52
531.27	1433.55
531.63	1450.02
531.99	1466.72
532.35	1482.66
532.71	1498.53
533.07	1514.72
533.42	1530.75
533.78	1546.91
534.14	1563.35
534.50	1578.78
534.86	1594.76
535.21	1609.96
535.57	1625.97
535.93	1641.53
536.29	1656.32
536.65	1671.48
537.00	1686.38
537.36	1701.77
537.72	1716.31
538.08	1730.69
538.44	1744.49
538.79	1758.43
539.15	1772.31
539.51	1786.10
539.87	1800.52
540.22	1814.45
540.58	1828.40
540.94	1841.86
541.29	1854.82
541.65	1867.54
542.01	1880.84
542.37	1893.13
542.72	1905.68
543.08	1917.59
543.44	1930.00
543.79	1941.36
544.15	1952.26
544.51	1963.92
544.87	1975.11
545.22	1985.99
545.58	1996.31
545.94	2006.23
546.29	2015.98
546.65	2025.68
547.01	2034.92
547.36	2043.80
547.72	2052.41
548.07	2060.25
548.43	2068.37
548.79	2076.52
549.14	2084.08
549.50	2091.52
549.86	2099.32
550.21	2106.59
550.57	2113.73
550.92	2120.35
551.28	2127.31
551.64	2134.39
551.99	2140.83
552.35	2146.89
552.70	2153.00
553.06	2158.87
553.41	2165.21
553.77	2171.25
554.13	2177.51
554.48	2183.60
554.84	2188.83
555.19	2193.95
555.55	2199.07
555.90	2203.49
556.26	2208.22
556.61	2212.79
556.97	2216.89
557.32	2221.00
557.68	2225.12
558.03	2229.43
558.39	2233.19
558.74	2237.92
559.10	2241.80
559.45	2245.45
559.81	2249.70
560.16	2253.42
560.52	2256.74
560.87	2260.14
561.23	2262.72
561.58	2265.61
561.94	2268.14
562.29	2270.59
562.64	2273.26
563.00	2275.97
563.35	2279.43
563.71	2282.62
564.06	2285.90
564.42	2288.77
564.77	2291.02
565.12	2293.12
565.48	2294.76
565.83	2296.42
566.19	2297.62
566.54	2298.54
566.89	2299.64
567.25	2300.20
567.60	2301.54
567.96	2303.06
568.31	2303.82
568.66	2304.82
569.02	2305.29
569.37	2305.51
569.72	2306.28
570.08	2306.25
570.43	2306.01
570.78	2305.17
571.14	2303.41
571.49	2302.00
571.84	2301.50
572.20	2300.36
572.55	2299.29
572.90	2297.73
573.26	2296.36
573.61	2294.66
573.96	2292.79
574.31	2289.69
574.67	2286.45
575.02	2282.75
575.37	2279.41
575.72	2275.40
576.08	2272.14
576.43	2268.86
576.78	2265.06
577.13	2261.99
577.49	2258.79
577.84	2255.24
578.19	2251.62
578.54	2247.81
578.90	2243.23
579.25	2237.75
579.60	2232.59
579.95	2227.44
580.30	2222.28
580.66	2217.03
581.01	2211.95
581.36	2206.83
581.71	2202.52
582.06	2198.00
582.42	2193.41
582.77	2187.92
583.12	2183.23
583.47	2178.30
583.82	2172.92
584.17	2167.52
584.53	2161.68
584.88	2156.04
585.23	2150.03
585.58	2144.52
585.93	2139.11
586.28	2134.46
586.63	2129.16
586.98	2124.11
587.34	2119.28
587.69	2114.29
588.04	2108.83
588.39	2102.93
588.74	2096.38
589.09	2090.12
589.44	2083.22
589.79	2077.19
590.14	2071.51
590.49	2064.88
590.84	2058.39
591.19	2052.36
591.54	2045.86
591.89	2038.26
592.25	2031.15
592.60	2023.97
592.95	2016.10
593.30	2008.64
593.65	2000.91
594.00	1993.84
594.35	1986.44
594.70	1978.40
595.05	1970.99
595.40	1963.70
595.75	1956.20
596.10	1949.91
596.45	1943.05
596.80	1936.75
597.15	1929.99
597.50	1922.69
597.85	1916.24
598.19	1909.51
598.54	1902.30
598.89	1895.62
599.24	1889.88
599.59	1883.17
599.94	1876.88
600.29	1870.43
600.64	1863.82
600.99	1856.27
601.34	1849.28
601.69	1842.36
602.04	1835.38
602.39	1828.07
602.74	1821.06
603.08	1814.36
603.43	1807.49
603.78	1800.34
604.13	1793.10
604.48	1785.66
604.83	1778.90
605.18	1771.79
605.53	1763.71
605.87	1755.60
606.22	1748.36
606.57	1740.32
606.92	1733.03
607.27	1725.82
607.62	1718.95
607.96	1711.51
608.31	1704.85
608.66	1697.13
609.01	1689.55
609.36	1682.14
609.70	1674.16
610.05	1666.15
610.40	1658.34
610.75	1650.03
611.10	1642.29
611.44	1633.99
611.79	1626.04
612.14	1617.37
612.49	1608.31
612.83	1599.96
613.18	1592.02
613.53	1583.86
613.88	1575.43
614.22	1567.15
614.57	1558.67
614.92	1550.64
615.27	1543.25
615.61	1534.87
615.96	1526.98
616.31	1519.44
616.65	1511.97
617.00	1504.47
617.35	1496.87
617.70	1488.55
618.04	1480.05
618.39	1471.81
618.74	1464.21
619.08	1455.99
619.43	1448.48
619.78	1441.62
620.12	1434.49
620.47	1426.90
620.82	1418.79
621.16	1411.31
621.51	1403.79
621.85	1396.10
622.20	1387.58
622.55	1379.21
622.89	1371.61
623.24	1364.08
623.59	1356.66
623.93	1349.16
624.28	1341.97
624.62	1334.42
624.97	1327.31
625.32	1320.70
625.66	1313.68
626.01	1306.45
626.35	1298.98
626.70	1291.22
627.04	1283.41
627.39	1275.64
627.73	1268.20
628.08	1261.29
628.43	1254.05
628.77	1246.70
629.12	1239.13
629.46	1231.99
629.81	1224.55
630.15	1217.39
630.50	1210.01
630.84	1201.86
631.19	1194.06
631.53	1186.53
631.88	1179.05
632.22	1171.48
632.57	1164.17
632.91	1156.68
633.26	1149.30
633.60	1141.96
633.95	1134.96
634.29	1127.99
634.64	1121.40
634.98	1114.10
635.32	1106.99
635.67	1100.48
636.01	1093.85
636.36	1087.04
636.70	1080.61
637.05	1074.07
637.39	1067.55
637.73	1061.05
638.08	1055.23
638.42	1049.08
638.77	1042.66
639.11	1036.02
639.45	1029.70
639.80	1023.09
640.14	1016.64
640.49	1010.17
640.83	1003.98
641.17	997.67
641.52	991.36
641.86	985.06
642.20	979.26
642.55	973.02
642.89	966.41
643.23	959.89
643.58	954.15
643.92	947.87
644.26	941.83
644.61	935.86
644.95	929.84
645.29	923.19
645.64	916.50
645.98	910.24
646.32	904.45
646.66	898.41
647.01	892.54
647.35	886.83
647.69	881.00
648.04	875.41
648.38	869.65
648.72	863.63
649.06	857.44
649.41	851.59
649.75	845.55
650.09	839.63
650.43	833.82
650.78	827.74
651.12	821.92
651.46	816.17
651.80	810.34
652.14	804.92
652.49	799.59
652.83	794.42
653.17	788.61
653.51	782.85
653.85	777.46
654.20	771.86
654.54	765.92
654.88	760.22
655.22	754.44
655.56	748.76
655.90	743.33
656.25	738.07
656.59	732.78
656.93	727.75
657.27	722.61
657.61	717.28
657.95	712.23
658.29	707.10
658.64	701.96
658.98	696.67
659.32	691.26
659.66	686.04
660.00	680.74
660.34	675.88
660.68	670.97
661.02	665.90
661.36	661.26
661.70	656.80
662.05	652.44
662.39	648.10
662.73	643.66
663.07	639.29
663.41	634.92
663.75	630.38
664.09	625.85
664.43	621.52
664.77	617.40
665.11	613.13
665.45	609.02
665.79	604.93
666.13	600.83
666.47	596.73
666.81	592.63
667.15	588.54
667.49	584.68
667.83	580.96
668.17	577.04
668.51	572.95
668.85	568.94
669.19	565.11
669.53	561.25
669.87	557.44
670.21	553.82
670.55	550.16
670.89	546.76
671.23	543.37
671.57	539.91
671.91	536.38
672.25	532.92
672.58	529.50
672.92	526.18
673.26	523.06
673.60	519.99
673.94	516.88
674.28	514.04
674.62	511.13
674.96	508.02
675.30	505.16
675.64	502.26
675.97	499.45
676.31	496.57
676.65	493.64
676.99	490.94
677.33	488.02
677.67	485.22
678.01	482.18
678.34	479.21
678.68	476.34
679.02	473.55
679.36	470.78
679.70	468.10
680.04	465.29
680.37	462.43
680.71	459.58
681.05	456.93
681.39	454.26
681.73	451.61
682.06	449.17
682.40	446.69
682.74	444.19
683.08	441.68
683.42	439.14
683.75	436.67
684.09	434.13
684.43	431.70
684.77	429.27
685.10	426.93
685.44	424.63
685.78	422.36
686.12	420.16
686.45	417.89
686.79	415.56
687.13	413.36
687.46	411.20
687.80	409.12
688.14	406.99
688.48	404.93
688.81	402.62
689.15	400.40
689.49	398.17
689.82	396.09
690.16	394.02
690.50	392.06
690.83	390.12
691.17	388.15
691.51	386.25
691.84	384.37
692.18	382.45
692.52	380.51
692.85	378.58
693.19	376.64
693.52	374.82
693.86	372.99
694.20	371.27
694.53	369.51
694.87	367.64
695.21	365.81
695.54	363.97
695.88	362.31
696.21	360.63
696.55	358.96
696.88	357.26
697.22	355.68
697.56	354.07
697.89	352.43
698.23	350.81
698.56	349.22
698.90	347.64
699.23	346.01
699.57	344.45
699.90	342.93
700.24	341.40
700.58	339.87
700.91	338.43
701.25	336.98
701.58	335.63
701.92	334.25
702.25	332.92
702.59	331.54
702.92	330.23
703.26	328.96
703.59	327.71
703.93	326.54
704.26	325.28
704.60	323.99
704.93	322.78
705.26	321.56
705.60	320.42
705.93	319.27
706.27	318.25
706.60	317.23
706.94	316.12
707.27	314.97
707.61	313.94
707.94	312.90
708.27	311.81
708.61	310.69
708.94	309.75
709.28	308.75
709.61	307.84
709.94	306.88
710.28	305.90
710.61	304.96
710.95	303.89
711.28	302.97
711.61	302.02
711.95	301.08
712.28	300.13
712.61	299.12
712.95	298.22
713.28	297.32
713.61	296.40
713.95	295.53
714.28	294.74
714.61	293.87
714.95	293.04
715.28	292.17
715.61	291.33
715.95	290.48
716.28	289.65
716.61	288.81
716.95	288.02
717.28	287.24
717.61	286.46
717.94	285.77
718.28	284.97
718.61	284.26
718.94	283.59
719.27	282.94
719.61	282.35
719.94	281.70
720.27	281.03
720.60	280.38
720.94	279.77
721.27	279.18
721.60	278.61
721.93	278.05
722.27	277.52
722.60	276.99
722.93	276.42
723.26	275.88
723.59	275.33
723.93	274.80
724.26	274.24
724.59	273.70
724.92	273.14
725.25	272.60
725.59	272.13
725.92	271.61
726.25	271.09
726.58	270.58
726.91	270.09
727.24	269.59
727.57	269.10
727.91	268.57
728.24	268.10
728.57	267.62
728.90	267.12
729.23	266.60
729.56	266.15
729.89	265.67
730.22	265.17
730.55	264.70
730.89	264.25
731.22	263.79
731.55	263.33
731.88	262.88
732.21	262.49
732.54	261.99
732.87	261.54
733.20	261.13
733.53	260.71
733.86	260.30
734.19	259.92
734.52	259.55
734.85	259.23
735.18	258.80
735.51	258.44
735.84	258.07
736.17	257.72
736.50	257.33
736.83	257.09
737.16	256.76
737.49	256.43
737.82	256.07
738.15	255.76
738.48	255.44
738.81	255.15
739.14	254.80
739.47	254.48
739.80	254.21
740.13	253.93
740.46	253.61
740.79	253.26
741.12	252.94
741.45	252.61
741.78	252.29
742.11	252.04
742.44	251.68
742.77	251.40
743.10	251.09
743.43	250.78
743.75	250.38
744.08	250.24
744.41	249.97
744.74	249.68
745.07	249.38
745.40	249.14
745.73	248.88
746.06	248.61
746.39	248.39
746.71	248.08
747.04	247.78
747.37	247.54
747.70	247.31
748.03	247.06
748.36	246.85
748.68	246.59
749.01	246.30
749.34	246.12
749.67	245.90
750.00	245.70
750.33	245.56
750.65	245.38
750.98	245.05
751.31	244.83
751.64	244.63
751.97	244.48
752.29	244.27
752.62	244.04
752.95	243.85
753.28	243.64
753.60	243.46
753.93	243.32
754.26	243.14
754.59	242.92
754.91	242.73
755.24	242.53
755.57	242.34
755.90	242.19
756.22	241.98
756.55	241.80
756.88	241.62
757.20	241.39
757.53	241.21
757.86	241.05
758.19	240.92
758.51	240.75
758.84	240.54
759.17	240.37
759.49	240.21
759.82	240.08
760.15	239.95
760.47	239.79
760.80	239.61
761.13	239.47
761.45	239.36
761.78	239.23
762.11	239.10
762.43	238.96
762.76	238.79
763.08	238.68
763.41	238.53
763.74	238.38
764.06	238.26
764.39	238.14
764.71	238.02
765.04	237.84
765.37	237.70
765.69	237.58
766.02	237.45
766.34	237.35
766.67	237.19
767.00	237.05
767.32	237.00
767.65	236.95
767.97	236.85
768.30	236.70
768.62	236.58
768.95	236.42
769.27	236.33
769.60	236.27
769.92	236.15
770.25	236.03
770.57	235.92
770.90	235.77
771.22	235.60
771.55	235.47
771.87	235.38
772.20	235.29
772.52	235.26
772.85	235.29
773.17	235.18
773.50	235.08
773.82	234.99
774.15	234.84
774.47	234.66
774.80	234.54
775.12	234.47
775.45	234.37
775.77	234.32
776.09	234.22
776.42	234.10
776.74	234.03
777.07	233.94
777.39	233.83
777.72	233.77
778.04	233.71
778.36	233.62
778.69	233.54
779.01	233.46
779.33	233.30
779.66	233.09
779.98	233.03
780.31	232.97
780.63	232.95
780.95	232.89
781.28	232.84
781.60	232.75
781.92	232.68
782.25	232.60
782.57	232.51
782.89	232.44
783.22	232.34
783.54	232.29
783.86	232.24
784.19	232.20
784.51	232.17
784.83	232.15
785.16	232.09
785.48	232.06
785.80	232.00
786.12	231.98
786.45	231.97
786.77	231.93
787.09	231.88
787.42	231.83
787.74	231.77
788.06	231.72
788.38	231.70
788.71	231.65
789.03	231.61
789.35	231.62
789.67	231.59
789.99	231.57
790.32	231.54
790.64	231.52
790.96	231.59
791.28	231.49
791.61	231.45
791.93	231.42
792.25	231.37
792.57	231.40
792.89	231.34
793.21	231.29
793.54	231.23
793.86	231.19
794.18	231.15
794.50	231.10
794.82	231.08
795.14	231.06
795.47	231.03
795.79	231.02
796.11	230.95
796.43	230.96
796.75	230.93
797.07	230.90
797.39	230.87
797.71	230.74
798.04	230.73
798.36	230.70
798.68	230.69
799.00	230.67
799.32	230.60
799.64	230.61
799.96	230.58
800.28	230.57
800.60	230.54
800.92	230.50
801.24	230.45
801.56	230.45
801.89	230.40
802.21	230.41
802.53	230.38
802.85	230.38
803.17	230.37
803.49	230.31
803.81	230.23
804.13	230.18
804.45	230.14
804.77	230.11
805.09	230.10
805.41	230.09
805.73	230.05
806.05	229.99
806.37	229.94
806.69	229.88
807.01	229.88
807.33	229.83
807.65	229.78
807.97	229.82
808.28	229.74
808.60	229.71
808.92	229.64
809.24	229.67
809.56	229.61
809.88	229.52
810.20	229.52
810.52	229.54
810.84	229.51
811.16	229.51
811.48	229.46
811.80	229.46
812.12	229.44
812.43	229.43
812.75	229.41
813.07	229.38
813.39	229.35
813.71	229.28
814.03	229.26
814.35	229.24
814.67	229.19
814.98	229.19
815.30	229.15
815.62	229.12
815.94	229.01
816.26	229.05
816.58	229.02
816.89	229.02
817.21	228.96
817.53	228.95
817.85	228.92
818.17	228.94
818.48	228.86
818.80	228.81
819.12	228.80
819.44	228.75
819.76	228.72
820.07	228.69
820.39	228.68
820.71	228.67
821.03	228.65
821.34	228.61
821.66	228.57
821.98	228.58
822.30	228.60
822.61	228.62
822.93	228.54
823.25	228.54
823.57	228.51
823.88	228.51
824.20	228.49
824.52	228.47
824.83	228.44
825.15	228.45
825.47	228.44
825.79	228.42
826.10	228.41
826.42	228.37
826.74	228.40
827.05	228.40
827.37	228.38
827.69	228.37
828.00	228.37
828.32	228.39
828.64	228.35
828.95	228.37
829.27	228.37
829.58	228.35
829.90	228.34
830.22	228.31
830.53	228.28
830.85	228.29
831.17	228.28
831.48	228.31
831.80	228.29
832.11	228.25
832.43	228.24
832.75	228.26
833.06	228.34
833.38	228.30
833.69	228.28
834.01	228.28
834.32	228.27
834.64	228.23
834.96	228.22
835.27	228.22
835.59	228.19
835.90	228.17
836.22	228.18
836.53	228.18
836.85	228.18
837.16	228.27
837.48	228.22
837.79	228.23
838.11	228.20
838.42	228.17
838.74	228.18
839.05	228.18
839.37	228.15
839.68	228.07
840.00	228.08
840.31	228.05
840.63	228.05
840.94	228.05
841.26	228.05
841.57	228.03
841.88	228.04
842.20	228.00
842.51	227.96
842.83	227.97
843.14	228.02
843.46	228.03
843.77	227.97
844.08	227.97
844.40	227.93
844.71	227.90
845.03	227.89
845.34	227.87
845.65	227.85
845.97	227.86
846.28	227.87
846.60	227.87
846.91	227.87
847.22	227.82
847.54	227.83
847.85	227.81
848.16	227.77
848.48	227.74
848.79	227.78
849.10	227.80
849.42	227.77
849.73	227.67
850.04	227.67
850.36	227.65
850.67	227.67
850.98	227.70
851.30	227.71
851.61	227.74
851.92	227.75
852.23	227.76
852.55	227.78
852.86	227.78
853.17	227.80
853.49	227.85
853.80	227.88
854.11	227.87
854.42	227.87
854.74	227.88
855.05	227.89
855.36	227.83
855.67	227.80
855.99	227.81
856.30	227.91
856.61	227.88
856.92	227.86
857.23	227.84
857.55	227.79
857.86	227.78
858.17	227.78
858.48	227.75
858.79	227.74
859.11	227.73
859.42	227.72
859.73	227.66
860.04	227.63
860.35	227.58
860.66	227.58
860.98	227.57
861.29	227.58
861.60	227.56
861.91	227.56
862.22	227.59
862.53	227.56
862.84	227.46
863.16	227.52
863.47	227.52
863.78	227.53
864.09	227.55
864.40	227.58
864.71	227.56
865.02	227.57
865.33	227.56
865.64	227.56
865.95	227.57
866.27	227.66
866.58	227.65
866.89	227.66
867.20	227.66
867.51	227.66
867.82	227.63
868.13	227.71
868.44	227.73
868.75	227.73
869.06	227.75
869.37	227.75
869.68	227.69
869.99	227.69
870.30	227.67
870.61	227.67
870.92	227.65
871.23	227.64
871.54	227.67
871.85	227.68
872.16	227.69
872.47	227.68
872.78	227.62
873.09	227.63
873.40	227.63
873.71	227.60
874.02	227.62
874.33	227.62
874.64	227.58
874.95	227.59
875.26	227.56
875.56	227.54
875.87	227.54
876.18	227.52
876.49	227.61
876.80	227.60
877.11	227.61
877.42	227.59
877.73	227.61
878.04	227.59
878.35	227.58
878.66	227.56
878.96	227.57
879.27	227.58
879.58	227.55
879.89	227.56
880.20	227.61
880.51	227.58
880.82	227.60
881.12	227.60
881.43	227.56
881.74	227.58
882.05	227.57
882.36	227.61
882.67	227.62
882.97	227.51
883.28	227.49
883.59	227.48
883.90	227.49
884.21	227.52
884.51	227.49
884.82	227.47
885.13	227.45
885.44	227.41
885.74	227.40
886.05	227.39
886.36	227.40
886.67	227.34
886.98	227.42
887.28	227.44
887.59	227.44
887.90	227.45
888.20	227.45
888.51	227.47
888.82	227.43
889.13	227.42
889.43	227.51
889.74	227.52
890.05	227.50
890.35	227.51
890.66	227.47
890.97	227.50
891.28	227.48
891.58	227.49
891.89	227.51
892.20	227.50
892.50	227.49
892.81	227.44
893.12	227.46
893.42	227.38
893.73	227.34
894.04	227.31
894.34	227.31
894.65	227.27
894.95	227.21
895.26	227.19
895.57	227.28
895.87	227.17
896.18	227.18
896.48	227.16
896.79	227.14
897.10	227.13
897.40	227.14
897.71	227.13
898.01	227.13
898.32	227.12
898.63	227.11
898.93	227.12
899.24	227.11
899.54	227.10
899.85	227.11
900.15	227.13
900.46	227.16
900.76	227.15
901.07	227.17
901.38	227.22
901.68	227.24
901.99	227.16
902.29	227.18
902.60	227.19
902.90	227.17
903.21	227.17
903.51	227.18
903.82	227.16
904.12	227.17
904.43	227.16
904.73	227.17
905.03	227.18
905.34	227.26
905.64	227.27
905.95	227.30
906.25	227.28
906.56	227.26
906.86	227.24
907.17	227.24
907.47	227.27
907.77	227.26
908.08	227.25
908.38	227.26
908.69	227.28
908.99	227.30
909.30	227.33
909.60	227.35
909.90	227.37
910.21	227.32
910.51	227.32
910.81	227.34
911.12	227.33
911.42	227.35
911.73	227.27
912.03	227.31
912.33	227.33
912.64	227.37
912.94	227.40
913.24	227.44
913.55	227.43
913.85	227.41
914.15	227.41
914.46	227.42
914.76	227.42
915.06	227.39
915.37	227.40
915.67	227.38
915.97	227.35
916.27	227.33
916.58	227.37
916.88	227.39
917.18	227.39
917.49	227.48
917.79	227.49
918.09	227.54
918.39	227.53
918.70	227.50
919.00	227.46
919.30	227.51
919.60	227.44
919.91	227.44
920.21	227.46
920.51	227.43
920.81	227.45
921.12	227.46
921.42	227.47
921.72	227.44
922.02	227.47
922.32	227.51
922.63	227.52
922.93	227.59
923.23	227.58
923.53	227.57
923.83	227.50
924.13	227.50
924.44	227.47
924.74	227.50
925.04	227.53
925.34	227.55
925.64	227.47
925.94	227.50
926.24	227.56
926.55	227.54
926.85	227.57
927.15	227.53
927.45	227.49
927.75	227.49
928.05	227.52
928.35	227.50
928.65	227.48
928.95	227.50
929.26	227.44
929.56	227.48
929.86	227.51
930.16	227.49
930.46	227.48
930.76	227.45
931.06	227.40
931.36	227.38
931.66	227.36
931.96	227.38
932.26	227.38
932.56	227.31
932.86	227.32
933.16	227.32
933.46	227.31
933.76	227.33
934.06	227.35
934.36	227.37
934.66	227.35
934.96	227.38
935.26	227.35
935.56	227.35
935.86	227.31
936.16	227.25
936.46	227.23
936.76	227.23
937.06	227.23
937.36	227.22
937.66	227.21
937.96	227.24
938.26	227.21
938.56	227.19
938.86	227.18
939.16	227.21
939.46	227.21
939.76	227.24
940.06	227.22
940.35	227.21
940.65	227.13
940.95	227.13
941.25	227.09
941.55	227.09
941.85	227.09
942.15	227.09
942.45	227.12
942.75	227.11
943.04	227.12
943.34	227.11
943.64	227.12
943.94	227.09
944.24	227.06
944.54	227.06
944.84	227.08
945.13	227.07
945.43	227.03
945.73	227.01
946.03	226.99
946.33	227.00
946.62	226.97
946.92	226.97
947.22	226.99
947.52	227.00
947.82	226.99
948.11	226.99
948.41	226.96
948.71	226.96
949.01	226.96
949.31	226.95
949.60	226.98
949.90	227.00
950.20	227.02
950.50	227.03
950.79	227.04
951.09	227.05
951.39	227.06
951.69	227.06
951.98	227.12
952.28	227.12
952.58	227.11
952.87	227.15
953.17	227.17
953.47	227.14
953.76	227.14
954.06	227.15
954.36	227.16
954.66	227.17
954.95	227.21
955.25	227.22
955.55	227.24
955.84	227.20
956.14	227.21
956.44	227.20
956.73	227.18
957.03	227.18
957.32	227.20
957.62	227.20
957.92	227.21
958.21	227.16
958.51	227.29
958.81	227.29
959.10	227.29
959.40	227.31
959.69	227.32
959.99	227.34
960.29	227.33
960.58	227.30
960.88	227.35
961.17	227.34
961.47	227.37
961.76	227.36
962.06	227.41
962.36	227.37
962.65	227.40
962.95	227.44
963.24	227.43
963.54	227.40
963.83	227.44
964.13	227.43
964.42	227.44
964.72	227.35
965.01	227.39
965.31	227.39
965.60	227.36
965.90	227.45
966.19	227.42
966.49	227.41
966.78	227.41
967.08	227.40
967.37	227.40
967.67	227.37
967.96	227.38
968.26	227.40
968.55	227.43
968.85	227.40
969.14	227.39
969.43	227.40
969.73	227.41
970.02	227.37
970.32	227.37
970.61	227.34
970.91	227.30
971.20	227.30
971.49	227.26
971.79	227.27
972.08	227.18
972.38	227.19
972.67	227.18
972.96	227.16
973.26	227.11
973.55	227.12
973.85	227.12
974.14	227.10
974.43	227.08
974.73	227.06
975.02	227.03
975.31	227.03
975.61	227.02
975.90	226.98
976.19	226.99
976.49	226.99
976.78	227.00
977.07	226.99
977.37	226.95
977.66	226.97
977.95	226.96
978.24	226.95
978.54	226.95
978.83	226.95
979.12	226.97
979.42	226.97
979.71	226.96
980.00	226.92
980.29	226.92
980.59	226.88
980.88	226.88
981.17	226.88
981.46	226.90
981.76	226.87
982.05	226.91
982.34	226.93
982.63	226.91
982.93	226.93
983.22	226.96
983.51	226.99
983.80	226.98
984.09	226.97
984.39	226.97
984.68	227.01
984.97	226.99
985.26	226.97
985.55	226.99
985.85	226.97
986.14	227.00
986.43	227.02
986.72	227.04
987.01	227.04
987.30	227.05
987.59	227.04
987.89	227.05
988.18	227.03
988.47	227.00
988.76	227.00
989.05	226.99
989.34	226.97
989.63	226.96
989.92	226.96
990.22	226.95
990.51	226.98
990.80	226.93
991.09	226.98
991.38	227.00
991.67	227.00
991.96	227.02
992.25	226.99
992.54	226.98
992.83	226.97
993.12	226.96
993.41	226.99
993.70	227.01
993.99	227.05
994.28	227.05
994.58	227.08
994.87	227.07
995.16	227.10
995.45	227.13
995.74	227.13
996.03	227.16
996.32	227.18
996.61	227.18
996.90	227.21
997.19	227.19
997.48	227.20
997.77	227.20
998.06	227.19
998.34	227.24
998.63	227.25
998.92	227.26
999.21	227.29
999.50	227.29
999.79	227.27
1000.08	227.21
1000.37	227.24
1000.66	227.23
1000.95	227.26
1001.24	227.25
1001.53	227.26
1001.82	227.24
1002.11	227.22
1002.40	227.23
1002.68	227.26
1002.97	227.30
1003.26	227.30
1003.55	227.30
1003.84	227.30
1004.13	227.33
1004.42	227.31
1004.71	227.28
1004.99	227.26
1005.28	227.25
1005.57	227.27
1005.86	227.24
1006.15	227.27
1006.44	227.27
1006.72	227.26
1007.01	227.22
1007.30	227.20
1007.59	227.18
1007.88	227.19
1008.17	227.17
1008.45	227.16
1008.74	227.13
1009.03	227.08
1009.32	227.05
1009.60	227.03
1009.89	227.02
1010.18	226.98
1010.47	226.98
1010.76	227.00
1011.04	226.99
1011.33	227.01
1011.62	226.99
1011.91	227.02
1012.19	227.01
1012.48	226.96
1012.77	226.95
1013.05	227.02
1013.34	227.02
1013.63	227.02
1013.92	227.00
1014.20	227.00
1014.49	226.97
1014.78	226.98
1015.06	226.94
1015.35	226.97
1015.64	226.98
1015.92	226.96
1016.21	226.95
1016.50	226.95
1016.78	226.96
1017.07	226.97
1017.36	226.94
1017.64	226.89
1017.93	226.89
1018.22	226.86
1018.50	226.87
1018.79	226.86
1019.08	226.80
1019.36	226.80
1019.65	226.79
1019.93	226.84
1020.22	226.84
1020.51	226.92
1020.79	226.88
1021.08	226.56
1021.36	226.51
1021.65	226.54
1021.94	226.83
1022.22	226.76
1022.51	226.76
1022.79	227.62
1023.08	226.78
1023.36	228.37
1023.65	226.30
>>>>>End Processed Spectral Data<<<<<
