SpectraSuite Data File
++++++++++++++++++++++++++++++++++++
Date: Fri Feb 01 16:07:58 EST 2013
User: group
Dark Spectrum Present: No
Reference Spectrum Present: No
Number of Sampled Component Spectra: 1
Spectrometers: USB2E7196
Integration Time (usec): 35000 (USB2E7196)
Spectra Averaged: 100 (USB2E7196)
Boxcar Smoothing: 10 (USB2E7196)
Correct for Electrical Dark: No (USB2E7196)
Strobe/Lamp Enabled: No (USB2E7196)
Correct for Detector Non-linearity: No (USB2E7196)
Correct for Stray Light: No (USB2E7196)
Number of Pixels in Processed Spectrum: 2048
>>>>>Begin Processed Spectral Data<<<<<
339.09	0.00
339.48	215.10
339.86	216.09
340.24	217.81
340.63	219.00
341.01	221.29
341.39	222.28
341.78	223.64
342.16	224.15
342.54	224.64
342.93	213.14
343.31	223.88
343.69	224.36
344.07	224.84
344.46	225.26
344.84	225.65
345.22	225.87
345.60	226.08
345.99	226.24
346.37	226.39
346.75	226.48
347.13	226.57
347.52	226.60
347.90	226.68
348.28	226.68
348.66	226.73
349.05	226.70
349.43	226.75
349.81	226.78
350.19	226.82
350.57	226.86
350.96	226.90
351.34	226.98
351.72	227.10
352.10	227.18
352.48	227.24
352.87	227.26
353.25	227.37
353.63	227.44
354.01	227.50
354.39	227.56
354.77	227.62
355.15	227.70
355.54	227.78
355.92	227.79
356.30	227.86
356.68	227.95
357.06	227.97
357.44	228.02
357.82	228.09
358.20	228.15
358.58	228.22
358.97	228.28
359.35	228.39
359.73	228.42
360.11	228.49
360.49	228.54
360.87	228.57
361.25	228.61
361.63	228.67
362.01	228.72
362.39	228.73
362.77	228.75
363.15	228.75
363.53	228.77
363.91	228.79
364.29	228.84
364.67	228.78
365.05	228.84
365.43	228.87
365.81	228.85
366.19	228.87
366.57	228.90
366.95	228.91
367.33	228.87
367.71	228.88
368.09	228.87
368.47	228.84
368.85	228.84
369.23	228.83
369.61	228.81
369.99	228.81
370.37	228.78
370.75	228.79
371.13	228.74
371.51	228.68
371.89	228.67
372.27	228.59
372.65	228.52
373.03	228.47
373.41	228.40
373.78	228.38
374.16	228.29
374.54	228.21
374.92	228.11
375.30	228.04
375.68	227.95
376.06	227.89
376.44	227.82
376.82	227.75
377.19	227.68
377.57	227.58
377.95	227.48
378.33	227.40
378.71	227.32
379.09	227.29
379.47	227.26
379.84	227.17
380.22	227.13
380.60	227.07
380.98	226.99
381.36	226.91
381.73	226.85
382.11	226.84
382.49	226.77
382.87	226.74
383.25	226.69
383.62	226.75
384.00	226.66
384.38	226.62
384.76	226.59
385.13	226.59
385.51	226.52
385.89	226.46
386.27	226.43
386.64	226.38
387.02	226.29
387.40	226.23
387.78	226.20
388.15	226.17
388.53	226.15
388.91	226.12
389.29	226.12
389.66	226.12
390.04	226.05
390.42	226.07
390.79	226.02
391.17	226.03
391.55	225.93
391.92	225.96
392.30	225.96
392.68	225.94
393.05	225.93
393.43	225.97
393.81	225.97
394.18	225.99
394.56	226.03
394.94	226.05
395.31	226.08
395.69	226.15
396.06	226.18
396.44	226.20
396.82	226.25
397.19	226.33
397.57	226.34
397.95	226.42
398.32	226.43
398.70	226.53
399.07	226.58
399.45	226.63
399.82	226.68
400.20	226.74
400.58	226.82
400.95	226.84
401.33	226.94
401.70	227.09
402.08	227.19
402.45	227.27
402.83	227.44
403.20	227.53
403.58	227.60
403.95	227.72
404.33	227.87
404.71	227.99
405.08	228.15
405.46	228.29
405.83	228.44
406.21	228.58
406.58	228.76
406.96	228.91
407.33	229.12
407.70	229.33
408.08	229.61
408.45	229.79
408.83	230.03
409.20	230.25
409.58	230.39
409.95	230.67
410.33	230.93
410.70	231.14
411.08	231.44
411.45	231.78
411.82	232.10
412.20	232.48
412.57	232.86
412.95	233.20
413.32	233.62
413.69	234.03
414.07	234.48
414.44	234.94
414.82	235.45
415.19	235.98
415.56	236.53
415.94	237.06
416.31	237.72
416.68	238.34
417.06	239.06
417.43	239.80
417.81	240.52
418.18	241.30
418.55	242.17
418.93	243.03
419.30	243.88
419.67	244.83
420.04	245.75
420.42	246.76
420.79	247.93
421.16	249.04
421.54	250.21
421.91	251.42
422.28	252.67
422.66	253.99
423.03	255.28
423.40	256.62
423.77	258.03
424.15	259.42
424.52	260.89
424.89	262.43
425.26	263.95
425.64	265.40
426.01	266.93
426.38	268.56
426.75	270.24
427.13	271.98
427.50	273.77
427.87	275.62
428.24	277.52
428.61	279.24
428.99	281.18
429.36	283.29
429.73	285.35
430.10	287.34
430.47	289.40
430.85	291.52
431.22	293.75
431.59	296.16
431.96	298.41
432.33	300.93
432.70	303.35
433.08	306.17
433.45	308.80
433.82	311.42
434.19	314.32
434.56	317.21
434.93	319.79
435.30	322.39
435.68	325.28
436.05	328.07
436.42	330.83
436.79	333.35
437.16	336.02
437.53	338.80
437.90	341.63
438.27	344.33
438.64	347.12
439.01	349.71
439.38	351.91
439.75	354.11
440.13	356.58
440.50	358.88
440.87	360.70
441.24	362.63
441.61	364.81
441.98	366.24
442.35	367.99
442.72	369.89
443.09	371.73
443.46	372.76
443.83	373.37
444.20	373.93
444.57	374.77
444.94	375.07
445.31	375.43
445.68	375.79
446.05	375.86
446.42	375.52
446.79	375.08
447.16	374.60
447.53	374.29
447.90	373.13
448.27	372.01
448.64	370.47
449.01	369.37
449.37	367.42
449.74	365.60
450.11	363.33
450.48	360.88
450.85	358.31
451.22	356.18
451.59	354.19
451.96	352.24
452.33	349.66
452.70	347.34
453.07	344.50
453.43	341.61
453.80	338.87
454.17	336.17
454.54	333.64
454.91	330.97
455.28	328.27
455.65	325.78
456.02	323.35
456.38	321.21
456.75	318.52
457.12	316.28
457.49	314.03
457.86	311.88
458.23	310.01
458.59	308.00
458.96	305.90
459.33	303.99
459.70	302.14
460.07	300.61
460.43	298.88
460.80	297.31
461.17	295.87
461.54	294.37
461.91	292.99
462.27	291.54
462.64	290.28
463.01	288.95
463.38	287.66
463.74	286.29
464.11	285.08
464.48	284.06
464.85	282.93
465.21	282.08
465.58	281.14
465.95	280.05
466.32	279.16
466.68	278.26
467.05	277.37
467.42	276.46
467.78	275.54
468.15	274.66
468.52	273.98
468.88	273.13
469.25	272.37
469.62	271.71
469.98	271.02
470.35	270.38
470.72	269.78
471.08	269.11
471.45	268.55
471.82	268.07
472.18	267.45
472.55	267.00
472.92	266.46
473.28	266.02
473.65	265.61
474.02	265.15
474.38	264.75
474.75	264.44
475.11	264.06
475.48	263.80
475.85	263.57
476.21	263.37
476.58	263.19
476.94	263.07
477.31	262.87
477.67	262.78
478.04	262.66
478.41	262.60
478.77	262.65
479.14	262.59
479.50	262.58
479.87	262.69
480.23	262.78
480.60	262.87
480.96	262.94
481.33	263.10
481.69	263.32
482.06	263.54
482.42	263.74
482.79	264.03
483.15	264.35
483.52	264.73
483.88	265.06
484.25	265.42
484.61	265.81
484.98	266.27
485.34	266.79
485.71	267.38
486.07	267.95
486.44	268.55
486.80	269.27
487.17	270.02
487.53	270.79
487.90	271.66
488.26	272.60
488.62	273.59
488.99	274.57
489.35	275.59
489.72	276.73
490.08	277.96
490.44	279.22
490.81	280.54
491.17	281.88
491.54	283.37
491.90	284.94
492.26	286.62
492.63	288.41
492.99	290.22
493.36	292.16
493.72	294.24
494.08	296.34
494.45	298.60
494.81	300.98
495.17	303.45
495.54	305.99
495.90	308.72
496.26	311.52
496.63	314.52
496.99	317.63
497.35	320.87
497.72	324.27
498.08	327.75
498.44	331.47
498.80	335.41
499.17	339.44
499.53	343.61
499.89	347.98
500.26	352.42
500.62	357.11
500.98	362.03
501.34	367.13
501.71	372.48
502.07	377.90
502.43	383.51
502.79	389.40
503.16	395.50
503.52	401.76
503.88	408.13
504.24	414.76
504.60	421.69
504.97	428.81
505.33	436.15
505.69	443.93
506.05	451.73
506.41	459.63
506.78	467.81
507.14	476.27
507.50	484.94
507.86	494.00
508.22	503.22
508.59	512.51
508.95	522.08
509.31	531.88
509.67	542.01
510.03	552.35
510.39	562.88
510.75	573.66
511.12	584.56
511.48	595.92
511.84	607.38
512.20	618.82
512.56	630.74
512.92	642.90
513.28	655.22
513.64	667.64
514.00	680.34
514.37	693.30
514.73	706.41
515.09	719.49
515.45	732.76
515.81	746.31
516.17	760.22
516.53	774.33
516.89	788.55
517.25	802.64
517.61	817.00
517.97	831.39
518.33	845.80
518.69	860.57
519.05	875.57
519.41	890.63
519.77	906.17
520.13	921.67
520.49	936.98
520.85	952.36
521.21	968.01
521.57	984.24
521.93	999.95
522.29	1016.22
522.65	1032.47
523.01	1048.67
523.37	1064.67
523.73	1080.82
524.09	1096.93
524.45	1113.18
524.81	1129.82
525.17	1146.58
525.53	1163.37
525.89	1180.21
526.25	1196.94
526.61	1213.21
526.97	1229.97
527.33	1246.42
527.68	1262.90
528.04	1279.41
528.40	1295.88
528.76	1312.95
529.12	1329.48
529.48	1346.36
529.84	1362.26
530.20	1378.82
530.56	1395.76
530.91	1413.15
531.27	1429.84
531.63	1446.07
531.99	1462.60
532.35	1478.50
532.71	1494.27
533.07	1510.54
533.42	1526.39
533.78	1542.49
534.14	1558.66
534.50	1573.97
534.86	1589.79
535.21	1604.92
535.57	1620.62
535.93	1636.02
536.29	1650.73
536.65	1665.70
537.00	1680.23
537.36	1695.61
537.72	1709.98
538.08	1724.38
538.44	1738.13
538.79	1751.86
539.15	1765.51
539.51	1779.20
539.87	1793.51
540.22	1807.10
540.58	1820.73
540.94	1833.96
541.29	1846.49
541.65	1859.18
542.01	1872.38
542.37	1884.61
542.72	1897.02
543.08	1908.90
543.44	1921.22
543.79	1932.35
544.15	1943.25
544.51	1954.91
544.87	1965.76
545.22	1976.51
545.58	1986.58
545.94	1996.24
546.29	2006.14
546.65	2016.02
547.01	2025.11
547.36	2033.73
547.72	2042.27
548.07	2050.16
548.43	2058.19
548.79	2066.32
549.14	2073.94
549.50	2080.98
549.86	2088.60
550.21	2095.85
550.57	2102.90
550.92	2109.57
551.28	2116.66
551.64	2123.63
551.99	2130.14
552.35	2136.21
552.70	2142.39
553.06	2148.39
553.41	2154.69
553.77	2160.73
554.13	2166.74
554.48	2172.91
554.84	2178.34
555.19	2183.49
555.55	2188.70
555.90	2193.18
556.26	2198.03
556.61	2202.59
556.97	2207.16
557.32	2211.29
557.68	2215.32
558.03	2219.57
558.39	2223.22
558.74	2227.83
559.10	2231.67
559.45	2235.31
559.81	2239.46
560.16	2243.33
560.52	2246.51
560.87	2250.01
561.23	2252.67
561.58	2255.69
561.94	2258.11
562.29	2260.48
562.64	2263.37
563.00	2265.94
563.35	2269.49
563.71	2272.65
564.06	2275.75
564.42	2278.58
564.77	2281.16
565.12	2283.75
565.48	2285.68
565.83	2287.66
566.19	2289.02
566.54	2290.05
566.89	2291.19
567.25	2291.94
567.60	2293.28
567.96	2295.07
568.31	2295.79
568.66	2296.96
569.02	2297.56
569.37	2297.99
569.72	2298.92
570.08	2299.11
570.43	2299.17
570.78	2298.72
571.14	2297.13
571.49	2295.98
571.84	2295.60
572.20	2294.43
572.55	2293.14
572.90	2291.49
573.26	2290.04
573.61	2288.39
573.96	2286.67
574.31	2283.76
574.67	2280.75
575.02	2277.12
575.37	2273.71
575.72	2270.05
576.08	2266.55
576.43	2262.98
576.78	2259.42
577.13	2256.39
577.49	2253.24
577.84	2249.83
578.19	2246.07
578.54	2242.70
578.90	2238.61
579.25	2233.08
579.60	2228.28
579.95	2223.40
580.30	2218.65
580.66	2213.50
581.01	2208.61
581.36	2203.61
581.71	2199.42
582.06	2195.29
582.42	2190.91
582.77	2185.64
583.12	2181.22
583.47	2176.68
583.82	2171.99
584.17	2166.78
584.53	2161.20
584.88	2155.50
585.23	2149.79
585.58	2144.29
585.93	2138.63
586.28	2133.80
586.63	2128.72
586.98	2123.59
587.34	2118.94
587.69	2113.92
588.04	2108.80
588.39	2102.94
588.74	2096.47
589.09	2090.38
589.44	2083.57
589.79	2077.43
590.14	2071.92
590.49	2065.20
590.84	2058.76
591.19	2052.77
591.54	2046.29
591.89	2038.99
592.25	2032.14
592.60	2025.02
592.95	2017.40
593.30	2010.21
593.65	2002.48
594.00	1995.46
594.35	1988.12
594.70	1979.96
595.05	1972.94
595.40	1965.71
595.75	1958.21
596.10	1952.14
596.45	1945.35
596.80	1939.10
597.15	1932.57
597.50	1925.52
597.85	1919.00
598.19	1912.37
598.54	1905.23
598.89	1898.63
599.24	1892.70
599.59	1886.23
599.94	1879.95
600.29	1873.68
600.64	1867.05
600.99	1859.67
601.34	1852.91
601.69	1846.04
602.04	1839.24
602.39	1831.84
602.74	1824.93
603.08	1818.24
603.43	1811.48
603.78	1804.24
604.13	1797.02
604.48	1789.87
604.83	1782.97
605.18	1776.20
605.53	1768.23
605.87	1760.23
606.22	1752.94
606.57	1745.02
606.92	1737.66
607.27	1730.55
607.62	1723.75
607.96	1716.52
608.31	1710.04
608.66	1702.40
609.01	1694.93
609.36	1687.52
609.70	1679.47
610.05	1671.46
610.40	1663.89
610.75	1655.70
611.10	1648.06
611.44	1639.58
611.79	1631.50
612.14	1622.85
612.49	1613.62
612.83	1605.18
613.18	1596.93
613.53	1588.92
613.88	1580.36
614.22	1572.03
614.57	1563.25
614.92	1555.20
615.27	1547.73
615.61	1539.32
615.96	1531.31
616.31	1523.70
616.65	1516.20
617.00	1508.69
617.35	1500.99
617.70	1492.61
618.04	1484.10
618.39	1475.89
618.74	1468.35
619.08	1459.94
619.43	1452.37
619.78	1445.41
620.12	1438.40
620.47	1431.04
620.82	1422.89
621.16	1415.48
621.51	1407.84
621.85	1400.31
622.20	1391.88
622.55	1383.37
622.89	1375.60
623.24	1367.91
623.59	1360.49
623.93	1353.03
624.28	1345.90
624.62	1338.40
624.97	1331.23
625.32	1324.45
625.66	1317.49
626.01	1310.40
626.35	1303.02
626.70	1295.25
627.04	1287.59
627.39	1279.66
627.73	1272.24
628.08	1265.30
628.43	1258.05
628.77	1250.73
629.12	1243.24
629.46	1236.00
629.81	1228.65
630.15	1221.38
630.50	1214.10
630.84	1205.87
631.19	1197.90
631.53	1190.22
631.88	1182.57
632.22	1175.00
632.57	1167.71
632.91	1160.17
633.26	1152.64
633.60	1145.30
633.95	1138.09
634.29	1131.07
634.64	1124.41
634.98	1117.03
635.32	1109.78
635.67	1103.18
636.01	1096.55
636.36	1089.68
636.70	1083.05
637.05	1076.52
637.39	1070.15
637.73	1063.64
638.08	1057.75
638.42	1051.75
638.77	1045.37
639.11	1038.92
639.45	1032.48
639.80	1025.74
640.14	1019.24
640.49	1012.76
640.83	1006.43
641.17	1000.33
641.52	994.00
641.86	987.54
642.20	981.67
642.55	975.38
642.89	968.86
643.23	962.31
643.58	956.59
643.92	950.51
644.26	944.43
644.61	938.27
644.95	932.30
645.29	925.74
645.64	918.97
645.98	912.67
646.32	906.78
646.66	900.72
647.01	895.08
647.35	889.35
647.69	883.52
648.04	877.88
648.38	872.06
648.72	866.09
649.06	860.07
649.41	854.17
649.75	848.19
650.09	842.22
650.43	836.43
650.78	830.20
651.12	824.12
651.46	818.44
651.80	812.75
652.14	807.29
652.49	801.95
652.83	796.81
653.17	791.11
653.51	785.33
653.85	779.88
654.20	774.13
654.54	768.17
654.88	762.40
655.22	756.59
655.56	750.91
655.90	745.40
656.25	740.26
656.59	734.93
656.93	729.90
657.27	724.81
657.61	719.37
657.95	714.33
658.29	709.38
658.64	704.17
658.98	698.83
659.32	693.41
659.66	688.20
660.00	682.96
660.34	678.03
660.68	673.14
661.02	668.18
661.36	663.50
661.70	658.98
662.05	654.67
662.39	650.40
662.73	645.87
663.07	641.49
663.41	636.99
663.75	632.52
664.09	627.94
664.43	623.55
664.77	619.51
665.11	615.23
665.45	611.09
665.79	606.96
666.13	602.83
666.47	598.79
666.81	594.61
667.15	590.46
667.49	586.53
667.83	582.73
668.17	578.76
668.51	574.70
668.85	570.70
669.19	566.81
669.53	563.00
669.87	559.17
670.21	555.50
670.55	551.80
670.89	548.42
671.23	544.97
671.57	541.48
671.91	537.93
672.25	534.39
672.58	530.85
672.92	527.45
673.26	524.27
673.60	521.04
673.94	517.95
674.28	515.01
674.62	512.06
674.96	508.95
675.30	506.10
675.64	503.14
675.97	500.34
676.31	497.47
676.65	494.50
676.99	491.82
677.33	488.97
677.67	486.18
678.01	483.14
678.34	480.15
678.68	477.22
679.02	474.40
679.36	471.60
679.70	468.88
680.04	466.10
680.37	463.33
680.71	460.52
681.05	457.86
681.39	455.12
681.73	452.48
682.06	449.98
682.40	447.40
682.74	444.79
683.08	442.27
683.42	439.64
683.75	437.16
684.09	434.57
684.43	432.07
684.77	429.59
685.10	427.19
685.44	424.92
685.78	422.68
686.12	420.39
686.45	418.12
686.79	415.81
687.13	413.62
687.46	411.36
687.80	409.20
688.14	406.97
688.48	404.98
688.81	402.67
689.15	400.48
689.49	398.33
689.82	396.34
690.16	394.23
690.50	392.25
690.83	390.32
691.17	388.32
691.51	386.43
691.84	384.63
692.18	382.69
692.52	380.69
692.85	378.73
693.19	376.85
693.52	375.07
693.86	373.21
694.20	371.39
694.53	369.64
694.87	367.81
695.21	366.03
695.54	364.14
695.88	362.47
696.21	360.76
696.55	359.09
696.88	357.39
697.22	355.73
697.56	354.12
697.89	352.44
698.23	350.82
698.56	349.19
698.90	347.57
699.23	345.95
699.57	344.41
699.90	342.85
700.24	341.31
700.58	339.78
700.91	338.32
701.25	336.86
701.58	335.50
701.92	334.13
702.25	332.76
702.59	331.44
702.92	330.12
703.26	328.79
703.59	327.50
703.93	326.28
704.26	325.04
704.60	323.74
704.93	322.51
705.26	321.27
705.60	320.13
705.93	318.96
706.27	317.92
706.60	316.86
706.94	315.82
707.27	314.72
707.61	313.68
707.94	312.68
708.27	311.60
708.61	310.47
708.94	309.44
709.28	308.46
709.61	307.48
709.94	306.50
710.28	305.48
710.61	304.53
710.95	303.46
711.28	302.55
711.61	301.59
711.95	300.68
712.28	299.76
712.61	298.79
712.95	297.85
713.28	296.96
713.61	296.08
713.95	295.17
714.28	294.29
714.61	293.41
714.95	292.56
715.28	291.71
715.61	290.82
715.95	289.99
716.28	289.15
716.61	288.34
716.95	287.54
717.28	286.81
717.61	286.02
717.94	285.28
718.28	284.47
718.61	283.74
718.94	283.02
719.27	282.34
719.61	281.69
719.94	281.06
720.27	280.35
720.60	279.69
720.94	279.07
721.27	278.48
721.60	277.89
721.93	277.28
722.27	276.70
722.60	276.16
722.93	275.56
723.26	275.00
723.59	274.42
723.93	273.89
724.26	273.37
724.59	272.80
724.92	272.28
725.25	271.79
725.59	271.28
725.92	270.77
726.25	270.30
726.58	269.80
726.91	269.29
727.24	268.80
727.57	268.35
727.91	267.83
728.24	267.34
728.57	266.83
728.90	266.41
729.23	265.94
729.56	265.54
729.89	265.12
730.22	264.62
730.55	264.15
730.89	263.69
731.22	263.27
731.55	262.84
731.88	262.46
732.21	262.03
732.54	261.64
732.87	261.21
733.20	260.80
733.53	260.39
733.86	260.01
734.19	259.62
734.52	259.25
734.85	258.92
735.18	258.53
735.51	258.19
735.84	257.80
736.17	257.47
736.50	257.07
736.83	256.82
737.16	256.52
737.49	256.23
737.82	255.87
738.15	255.51
738.48	255.19
738.81	254.84
739.14	254.51
739.47	254.18
739.80	253.88
740.13	253.59
740.46	253.26
740.79	252.91
741.12	252.62
741.45	252.32
741.78	251.98
742.11	251.73
742.44	251.39
742.77	251.11
743.10	250.81
743.43	250.51
743.75	250.13
744.08	249.97
744.41	249.70
744.74	249.49
745.07	249.19
745.40	248.96
745.73	248.71
746.06	248.47
746.39	248.21
746.71	247.92
747.04	247.59
747.37	247.33
747.70	247.10
748.03	246.85
748.36	246.60
748.68	246.38
749.01	246.11
749.34	245.92
749.67	245.68
750.00	245.48
750.33	245.33
750.65	245.10
750.98	244.77
751.31	244.53
751.64	244.28
751.97	244.13
752.29	243.88
752.62	243.64
752.95	243.42
753.28	243.18
753.60	242.97
753.93	242.84
754.26	242.65
754.59	242.41
754.91	242.19
755.24	241.98
755.57	241.77
755.90	241.60
756.22	241.39
756.55	241.22
756.88	241.01
757.20	240.75
757.53	240.54
757.86	240.35
758.19	240.18
758.51	239.98
758.84	239.75
759.17	239.60
759.49	239.40
759.82	239.26
760.15	239.13
760.47	239.01
760.80	238.83
761.13	238.72
761.45	238.56
761.78	238.41
762.11	238.26
762.43	238.11
762.76	237.91
763.08	237.78
763.41	237.63
763.74	237.48
764.06	237.36
764.39	237.25
764.71	237.10
765.04	236.96
765.37	236.84
765.69	236.72
766.02	236.59
766.34	236.46
766.67	236.32
767.00	236.19
767.32	236.14
767.65	236.07
767.97	235.90
768.30	235.80
768.62	235.67
768.95	235.54
769.27	235.40
769.60	235.33
769.92	235.18
770.25	235.06
770.57	234.93
770.90	234.84
771.22	234.73
771.55	234.64
771.87	234.57
772.20	234.49
772.52	234.49
772.85	234.50
773.17	234.43
773.50	234.33
773.82	234.26
774.15	234.12
774.47	233.99
774.80	233.93
775.12	233.88
775.45	233.83
775.77	233.78
776.09	233.76
776.42	233.65
776.74	233.66
777.07	233.57
777.39	233.53
777.72	233.47
778.04	233.43
778.36	233.34
778.69	233.29
779.01	233.25
779.33	233.07
779.66	232.91
779.98	232.86
780.31	232.85
780.63	232.83
780.95	232.77
781.28	232.70
781.60	232.61
781.92	232.53
782.25	232.51
782.57	232.48
782.89	232.39
783.22	232.36
783.54	232.29
783.86	232.29
784.19	232.23
784.51	232.21
784.83	232.13
785.16	232.10
785.48	232.05
785.80	232.00
786.12	231.97
786.45	231.90
786.77	231.85
787.09	231.78
787.42	231.70
787.74	231.64
788.06	231.60
788.38	231.59
788.71	231.53
789.03	231.45
789.35	231.37
789.67	231.36
789.99	231.33
790.32	231.23
790.64	231.15
790.96	231.19
791.28	231.05
791.61	231.00
791.93	230.96
792.25	230.88
792.57	230.86
792.89	230.78
793.21	230.77
793.54	230.70
793.86	230.64
794.18	230.58
794.50	230.52
794.82	230.50
795.14	230.44
795.47	230.44
795.79	230.43
796.11	230.40
796.43	230.33
796.75	230.28
797.07	230.25
797.39	230.20
797.71	230.08
798.04	230.07
798.36	230.06
798.68	229.99
799.00	229.95
799.32	229.86
799.64	229.88
799.96	229.84
800.28	229.82
800.60	229.76
800.92	229.72
801.24	229.69
801.56	229.64
801.89	229.62
802.21	229.54
802.53	229.45
802.85	229.43
803.17	229.44
803.49	229.39
803.81	229.38
804.13	229.32
804.45	229.27
804.77	229.24
805.09	229.15
805.41	229.16
805.73	229.13
806.05	229.06
806.37	229.01
806.69	228.97
807.01	228.93
807.33	228.89
807.65	228.82
807.97	228.83
808.28	228.79
808.60	228.76
808.92	228.75
809.24	228.80
809.56	228.73
809.88	228.66
810.20	228.64
810.52	228.62
810.84	228.60
811.16	228.57
811.48	228.53
811.80	228.57
812.12	228.54
812.43	228.55
812.75	228.57
813.07	228.55
813.39	228.53
813.71	228.52
814.03	228.50
814.35	228.48
814.67	228.45
814.98	228.44
815.30	228.45
815.62	228.39
815.94	228.32
816.26	228.36
816.58	228.35
816.89	228.34
817.21	228.29
817.53	228.32
817.85	228.29
818.17	228.29
818.48	228.28
818.80	228.26
819.12	228.25
819.44	228.23
819.76	228.24
820.07	228.22
820.39	228.20
820.71	228.23
821.03	228.25
821.34	228.24
821.66	228.25
821.98	228.21
822.30	228.25
822.61	228.29
822.93	228.26
823.25	228.22
823.57	228.21
823.88	228.24
824.20	228.19
824.52	228.22
824.83	228.24
825.15	228.20
825.47	228.19
825.79	228.17
826.10	228.15
826.42	228.12
826.74	228.11
827.05	228.12
827.37	228.14
827.69	228.11
828.00	228.10
828.32	228.05
828.64	228.04
828.95	228.08
829.27	228.02
829.58	228.01
829.90	228.06
830.22	228.08
830.53	228.05
830.85	228.05
831.17	228.03
831.48	228.00
831.80	227.98
832.11	227.95
832.43	227.93
832.75	227.93
833.06	227.99
833.38	227.96
833.69	227.94
834.01	227.89
834.32	227.89
834.64	227.86
834.96	227.86
835.27	227.86
835.59	227.82
835.90	227.81
836.22	227.79
836.53	227.75
836.85	227.70
837.16	227.80
837.48	227.77
837.79	227.82
838.11	227.81
838.42	227.81
838.74	227.80
839.05	227.78
839.37	227.75
839.68	227.65
840.00	227.64
840.31	227.64
840.63	227.62
840.94	227.59
841.26	227.59
841.57	227.60
841.88	227.59
842.20	227.56
842.51	227.53
842.83	227.48
843.14	227.53
843.46	227.51
843.77	227.44
844.08	227.43
844.40	227.36
844.71	227.32
845.03	227.30
845.34	227.31
845.65	227.30
845.97	227.30
846.28	227.30
846.60	227.30
846.91	227.27
847.22	227.27
847.54	227.30
847.85	227.28
848.16	227.27
848.48	227.23
848.79	227.21
849.10	227.23
849.42	227.25
849.73	227.19
850.04	227.17
850.36	227.14
850.67	227.14
850.98	227.15
851.30	227.15
851.61	227.16
851.92	227.17
852.23	227.20
852.55	227.18
852.86	227.23
853.17	227.23
853.49	227.26
853.80	227.27
854.11	227.27
854.42	227.28
854.74	227.24
855.05	227.23
855.36	227.19
855.67	227.18
855.99	227.18
856.30	227.26
856.61	227.29
856.92	227.28
857.23	227.30
857.55	227.28
857.86	227.27
858.17	227.27
858.48	227.26
858.79	227.24
859.11	227.29
859.42	227.25
859.73	227.24
860.04	227.23
860.35	227.20
860.66	227.16
860.98	227.16
861.29	227.17
861.60	227.19
861.91	227.25
862.22	227.25
862.53	227.24
862.84	227.15
863.16	227.16
863.47	227.13
863.78	227.12
864.09	227.13
864.40	227.16
864.71	227.13
865.02	227.14
865.33	227.13
865.64	227.07
865.95	227.08
866.27	227.14
866.58	227.13
866.89	227.15
867.20	227.16
867.51	227.14
867.82	227.13
868.13	227.15
868.44	227.10
868.75	227.10
869.06	227.11
869.37	227.12
869.68	227.07
869.99	227.12
870.30	227.11
870.61	227.12
870.92	227.08
871.23	227.11
871.54	227.12
871.85	227.09
872.16	227.10
872.47	227.08
872.78	226.98
873.09	226.99
873.40	226.99
873.71	226.99
874.02	226.98
874.33	226.99
874.64	227.00
874.95	227.01
875.26	226.97
875.56	226.95
875.87	226.94
876.18	227.00
876.49	227.05
876.80	227.04
877.11	227.01
877.42	226.98
877.73	226.95
878.04	226.92
878.35	226.94
878.66	226.95
878.96	226.98
879.27	227.01
879.58	226.96
879.89	226.92
880.20	226.94
880.51	226.96
880.82	226.96
881.12	226.94
881.43	226.93
881.74	226.93
882.05	226.91
882.36	226.91
882.67	226.88
882.97	226.77
883.28	226.78
883.59	226.78
883.90	226.83
884.21	226.89
884.51	226.88
884.82	226.92
885.13	226.87
885.44	226.84
885.74	226.84
886.05	226.86
886.36	226.86
886.67	226.83
886.98	226.90
887.28	226.90
887.59	226.88
887.90	226.89
888.20	226.90
888.51	226.97
888.82	226.98
889.13	226.96
889.43	227.05
889.74	227.02
890.05	227.03
890.35	227.00
890.66	226.95
890.97	226.94
891.28	226.93
891.58	226.97
891.89	226.97
892.20	226.94
892.50	226.95
892.81	226.96
893.12	226.97
893.42	226.87
893.73	226.86
894.04	226.88
894.34	226.89
894.65	226.87
894.95	226.83
895.26	226.83
895.57	226.90
895.87	226.81
896.18	226.81
896.48	226.80
896.79	226.81
897.10	226.84
897.40	226.85
897.71	226.86
898.01	226.83
898.32	226.85
898.63	226.88
898.93	226.87
899.24	226.87
899.54	226.83
899.85	226.83
900.15	226.82
900.46	226.83
900.76	226.81
901.07	226.80
901.38	226.78
901.68	226.77
901.99	226.70
902.29	226.71
902.60	226.70
902.90	226.70
903.21	226.68
903.51	226.65
903.82	226.68
904.12	226.64
904.43	226.65
904.73	226.63
905.03	226.60
905.34	226.65
905.64	226.66
905.95	226.66
906.25	226.68
906.56	226.67
906.86	226.65
907.17	226.66
907.47	226.71
907.77	226.66
908.08	226.63
908.38	226.63
908.69	226.64
908.99	226.70
909.30	226.67
909.60	226.69
909.90	226.68
910.21	226.63
910.51	226.61
910.81	226.61
911.12	226.60
911.42	226.61
911.73	226.54
912.03	226.53
912.33	226.54
912.64	226.51
912.94	226.51
913.24	226.49
913.55	226.49
913.85	226.46
914.15	226.54
914.46	226.54
914.76	226.54
915.06	226.53
915.37	226.48
915.67	226.48
915.97	226.49
916.27	226.49
916.58	226.51
916.88	226.53
917.18	226.49
917.49	226.58
917.79	226.59
918.09	226.61
918.39	226.63
918.70	226.65
919.00	226.65
919.30	226.70
919.60	226.70
919.91	226.69
920.21	226.67
920.51	226.63
920.81	226.68
921.12	226.73
921.42	226.71
921.72	226.71
922.02	226.74
922.32	226.75
922.63	226.74
922.93	226.79
923.23	226.76
923.53	226.77
923.83	226.72
924.13	226.71
924.44	226.71
924.74	226.74
925.04	226.75
925.34	226.77
925.64	226.73
925.94	226.74
926.24	226.78
926.55	226.80
926.85	226.80
927.15	226.76
927.45	226.72
927.75	226.74
928.05	226.76
928.35	226.72
928.65	226.71
928.95	226.74
929.26	226.70
929.56	226.76
929.86	226.77
930.16	226.75
930.46	226.76
930.76	226.75
931.06	226.70
931.36	226.66
931.66	226.66
931.96	226.68
932.26	226.68
932.56	226.63
932.86	226.66
933.16	226.67
933.46	226.70
933.76	226.70
934.06	226.71
934.36	226.77
934.66	226.80
934.96	226.81
935.26	226.80
935.56	226.83
935.86	226.80
936.16	226.79
936.46	226.79
936.76	226.79
937.06	226.78
937.36	226.81
937.66	226.85
937.96	226.85
938.26	226.82
938.56	226.82
938.86	226.84
939.16	226.87
939.46	226.88
939.76	226.84
940.06	226.84
940.35	226.84
940.65	226.77
940.95	226.76
941.25	226.74
941.55	226.71
941.85	226.69
942.15	226.70
942.45	226.73
942.75	226.72
943.04	226.72
943.34	226.73
943.64	226.71
943.94	226.69
944.24	226.66
944.54	226.68
944.84	226.65
945.13	226.63
945.43	226.57
945.73	226.57
946.03	226.55
946.33	226.51
946.62	226.48
946.92	226.46
947.22	226.47
947.52	226.47
947.82	226.49
948.11	226.49
948.41	226.47
948.71	226.44
949.01	226.43
949.31	226.42
949.60	226.42
949.90	226.43
950.20	226.43
950.50	226.44
950.79	226.41
951.09	226.45
951.39	226.43
951.69	226.44
951.98	226.44
952.28	226.46
952.58	226.50
952.87	226.50
953.17	226.51
953.47	226.50
953.76	226.46
954.06	226.45
954.36	226.43
954.66	226.45
954.95	226.47
955.25	226.52
955.55	226.53
955.84	226.51
956.14	226.51
956.44	226.55
956.73	226.56
957.03	226.56
957.32	226.58
957.62	226.60
957.92	226.60
958.21	226.58
958.51	226.68
958.81	226.67
959.10	226.68
959.40	226.74
959.69	226.76
959.99	226.77
960.29	226.76
960.58	226.72
960.88	226.74
961.17	226.76
961.47	226.72
961.76	226.71
962.06	226.73
962.36	226.71
962.65	226.69
962.95	226.69
963.24	226.72
963.54	226.71
963.83	226.73
964.13	226.72
964.42	226.73
964.72	226.65
965.01	226.68
965.31	226.68
965.60	226.62
965.90	226.68
966.19	226.72
966.49	226.73
966.78	226.76
967.08	226.73
967.37	226.70
967.67	226.71
967.96	226.73
968.26	226.72
968.55	226.72
968.85	226.71
969.14	226.71
969.43	226.70
969.73	226.68
970.02	226.67
970.32	226.68
970.61	226.69
970.91	226.68
971.20	226.69
971.49	226.67
971.79	226.69
972.08	226.62
972.38	226.59
972.67	226.59
972.96	226.65
973.26	226.63
973.55	226.69
973.85	226.68
974.14	226.66
974.43	226.68
974.73	226.66
975.02	226.65
975.31	226.61
975.61	226.58
975.90	226.59
976.19	226.58
976.49	226.59
976.78	226.58
977.07	226.57
977.37	226.56
977.66	226.59
977.95	226.56
978.24	226.57
978.54	226.60
978.83	226.60
979.12	226.52
979.42	226.55
979.71	226.51
980.00	226.50
980.29	226.51
980.59	226.50
980.88	226.52
981.17	226.52
981.46	226.52
981.76	226.54
982.05	226.55
982.34	226.56
982.63	226.54
982.93	226.57
983.22	226.61
983.51	226.59
983.80	226.58
984.09	226.61
984.39	226.59
984.68	226.55
984.97	226.54
985.26	226.57
985.55	226.57
985.85	226.53
986.14	226.57
986.43	226.57
986.72	226.56
987.01	226.55
987.30	226.55
987.59	226.55
987.89	226.53
988.18	226.49
988.47	226.47
988.76	226.46
989.05	226.43
989.34	226.37
989.63	226.39
989.92	226.38
990.22	226.37
990.51	226.37
990.80	226.38
991.09	226.40
991.38	226.42
991.67	226.40
991.96	226.41
992.25	226.38
992.54	226.38
992.83	226.37
993.12	226.37
993.41	226.38
993.70	226.42
993.99	226.45
994.28	226.45
994.58	226.50
994.87	226.48
995.16	226.50
995.45	226.49
995.74	226.45
996.03	226.47
996.32	226.46
996.61	226.50
996.90	226.50
997.19	226.50
997.48	226.47
997.77	226.46
998.06	226.45
998.34	226.43
998.63	226.41
998.92	226.39
999.21	226.41
999.50	226.44
999.79	226.43
1000.08	226.44
1000.37	226.46
1000.66	226.41
1000.95	226.45
1001.24	226.46
1001.53	226.47
1001.82	226.50
1002.11	226.49
1002.40	226.48
1002.68	226.50
1002.97	226.55
1003.26	226.53
1003.55	226.50
1003.84	226.55
1004.13	226.59
1004.42	226.62
1004.71	226.60
1004.99	226.64
1005.28	226.67
1005.57	226.66
1005.86	226.67
1006.15	226.66
1006.44	226.64
1006.72	226.67
1007.01	226.63
1007.30	226.60
1007.59	226.62
1007.88	226.60
1008.17	226.59
1008.45	226.61
1008.74	226.56
1009.03	226.51
1009.32	226.51
1009.60	226.55
1009.89	226.53
1010.18	226.46
1010.47	226.46
1010.76	226.48
1011.04	226.48
1011.33	226.45
1011.62	226.44
1011.91	226.43
1012.19	226.43
1012.48	226.46
1012.77	226.46
1013.05	226.53
1013.34	226.53
1013.63	226.53
1013.92	226.53
1014.20	226.54
1014.49	226.53
1014.78	226.55
1015.06	226.52
1015.35	226.54
1015.64	226.52
1015.92	226.52
1016.21	226.56
1016.50	226.55
1016.78	226.55
1017.07	226.52
1017.36	226.51
1017.64	226.49
1017.93	226.47
1018.22	226.49
1018.50	226.45
1018.79	226.45
1019.08	226.41
1019.36	226.45
1019.65	226.43
1019.93	226.44
1020.22	226.44
1020.51	226.48
1020.79	226.48
1021.08	226.86
1021.36	226.12
1021.65	226.53
1021.94	226.78
1022.22	226.97
1022.51	226.17
1022.79	226.60
1023.08	226.27
1023.36	227.58
1023.65	226.65
>>>>>End Processed Spectral Data<<<<<
