SpectraSuite Data File
++++++++++++++++++++++++++++++++++++
Date: Fri Feb 01 15:49:33 EST 2013
User: group
Dark Spectrum Present: No
Reference Spectrum Present: No
Number of Sampled Component Spectra: 1
Spectrometers: USB2E7196
Integration Time (usec): 35000 (USB2E7196)
Spectra Averaged: 100 (USB2E7196)
Boxcar Smoothing: 10 (USB2E7196)
Correct for Electrical Dark: No (USB2E7196)
Strobe/Lamp Enabled: No (USB2E7196)
Correct for Detector Non-linearity: No (USB2E7196)
Correct for Stray Light: No (USB2E7196)
Number of Pixels in Processed Spectrum: 2048
>>>>>Begin Processed Spectral Data<<<<<
339.09	0.00
339.48	214.70
339.86	216.33
340.24	217.46
340.63	219.08
341.01	222.05
341.39	221.79
341.78	223.03
342.16	223.83
342.54	224.71
342.93	213.06
343.31	223.79
343.69	224.34
344.07	224.80
344.46	225.20
344.84	225.57
345.22	225.78
345.60	226.03
345.99	226.22
346.37	226.37
346.75	226.47
347.13	226.54
347.52	226.62
347.90	226.69
348.28	226.73
348.66	226.78
349.05	226.74
349.43	226.75
349.81	226.79
350.19	226.86
350.57	226.93
350.96	226.98
351.34	227.10
351.72	227.18
352.10	227.27
352.48	227.40
352.87	227.44
353.25	227.53
353.63	227.59
354.01	227.66
354.39	227.73
354.77	227.77
355.15	227.87
355.54	227.90
355.92	227.92
356.30	227.98
356.68	228.10
357.06	228.18
357.44	228.24
357.82	228.31
358.20	228.37
358.58	228.41
358.97	228.50
359.35	228.56
359.73	228.64
360.11	228.70
360.49	228.71
360.87	228.76
361.25	228.83
361.63	228.87
362.01	228.93
362.39	228.93
362.77	228.98
363.15	229.01
363.53	229.06
363.91	229.11
364.29	229.12
364.67	229.05
365.05	229.09
365.43	229.12
365.81	229.11
366.19	229.16
366.57	229.20
366.95	229.17
367.33	229.17
367.71	229.14
368.09	229.14
368.47	229.18
368.85	229.19
369.23	229.17
369.61	229.15
369.99	229.12
370.37	229.14
370.75	229.18
371.13	229.12
371.51	229.10
371.89	229.04
372.27	229.04
372.65	229.02
373.03	228.97
373.41	228.91
373.78	228.89
374.16	228.78
374.54	228.68
374.92	228.61
375.30	228.54
375.68	228.49
376.06	228.41
376.44	228.29
376.82	228.21
377.19	228.11
377.57	228.03
377.95	227.92
378.33	227.81
378.71	227.68
379.09	227.61
379.47	227.53
379.84	227.50
380.22	227.37
380.60	227.26
380.98	227.18
381.36	227.13
381.73	227.02
382.11	226.97
382.49	226.94
382.87	226.86
383.25	226.80
383.62	226.82
384.00	226.76
384.38	226.70
384.76	226.65
385.13	226.65
385.51	226.59
385.89	226.55
386.27	226.53
386.64	226.52
387.02	226.47
387.40	226.45
387.78	226.41
388.15	226.41
388.53	226.40
388.91	226.38
389.29	226.37
389.66	226.37
390.04	226.33
390.42	226.30
390.79	226.30
391.17	226.30
391.55	226.21
391.92	226.19
392.30	226.21
392.68	226.22
393.05	226.21
393.43	226.21
393.81	226.22
394.18	226.20
394.56	226.20
394.94	226.26
395.31	226.25
395.69	226.31
396.06	226.36
396.44	226.39
396.82	226.39
397.19	226.46
397.57	226.50
397.95	226.54
398.32	226.59
398.70	226.66
399.07	226.74
399.45	226.80
399.82	226.88
400.20	226.94
400.58	227.03
400.95	227.07
401.33	227.19
401.70	227.35
402.08	227.46
402.45	227.54
402.83	227.65
403.20	227.78
403.58	227.84
403.95	228.00
404.33	228.15
404.71	228.28
405.08	228.48
405.46	228.63
405.83	228.84
406.21	228.99
406.58	229.16
406.96	229.32
407.33	229.49
407.70	229.68
408.08	229.94
408.45	230.17
408.83	230.42
409.20	230.63
409.58	230.77
409.95	231.02
410.33	231.28
410.70	231.51
411.08	231.80
411.45	232.10
411.82	232.38
412.20	232.73
412.57	233.15
412.95	233.42
413.32	233.81
413.69	234.20
414.07	234.61
414.44	235.08
414.82	235.60
415.19	236.13
415.56	236.68
415.94	237.24
416.31	237.84
416.68	238.48
417.06	239.18
417.43	239.89
417.81	240.67
418.18	241.50
418.55	242.37
418.93	243.25
419.30	244.17
419.67	245.11
420.04	246.06
420.42	247.07
420.79	248.24
421.16	249.40
421.54	250.60
421.91	251.83
422.28	253.07
422.66	254.37
423.03	255.66
423.40	257.01
423.77	258.38
424.15	259.78
424.52	261.26
424.89	262.89
425.26	264.43
425.64	265.86
426.01	267.45
426.38	269.08
426.75	270.74
427.13	272.46
427.50	274.24
427.87	276.12
428.24	278.00
428.61	279.77
428.99	281.72
429.36	283.79
429.73	285.86
430.10	287.91
430.47	290.02
430.85	292.14
431.22	294.38
431.59	296.76
431.96	299.00
432.33	301.49
432.70	303.85
433.08	306.67
433.45	309.32
433.82	311.86
434.19	314.72
434.56	317.53
434.93	320.17
435.30	322.78
435.68	325.65
436.05	328.43
436.42	331.17
436.79	333.66
437.16	336.37
437.53	339.17
437.90	341.94
438.27	344.64
438.64	347.48
439.01	350.06
439.38	352.31
439.75	354.50
440.13	356.99
440.50	359.28
440.87	361.13
441.24	363.06
441.61	365.26
441.98	366.75
442.35	368.52
442.72	370.35
443.09	372.16
443.46	373.16
443.83	373.78
444.20	374.31
444.57	375.12
444.94	375.43
445.31	375.75
445.68	376.09
446.05	376.17
446.42	375.75
446.79	375.36
447.16	374.90
447.53	374.60
447.90	373.44
448.27	372.28
448.64	370.73
449.01	369.62
449.37	367.64
449.74	365.79
450.11	363.58
450.48	361.09
450.85	358.59
451.22	356.43
451.59	354.40
451.96	352.42
452.33	349.86
452.70	347.48
453.07	344.67
453.43	341.77
453.80	339.05
454.17	336.42
454.54	333.84
454.91	331.15
455.28	328.46
455.65	325.99
456.02	323.58
456.38	321.43
456.75	318.82
457.12	316.58
457.49	314.37
457.86	312.17
458.23	310.33
458.59	308.29
458.96	306.24
459.33	304.38
459.70	302.58
460.07	301.09
460.43	299.41
460.80	297.84
461.17	296.40
461.54	294.85
461.91	293.43
462.27	292.01
462.64	290.74
463.01	289.40
463.38	288.09
463.74	286.70
464.11	285.53
464.48	284.45
464.85	283.32
465.21	282.44
465.58	281.53
465.95	280.43
466.32	279.52
466.68	278.64
467.05	277.73
467.42	276.82
467.78	275.88
468.15	274.97
468.52	274.29
468.88	273.45
469.25	272.71
469.62	272.05
469.98	271.33
470.35	270.72
470.72	270.12
471.08	269.43
471.45	268.89
471.82	268.34
472.18	267.75
472.55	267.31
472.92	266.82
473.28	266.37
473.65	265.97
474.02	265.53
474.38	265.16
474.75	264.86
475.11	264.54
475.48	264.28
475.85	264.06
476.21	263.82
476.58	263.65
476.94	263.48
477.31	263.30
477.67	263.15
478.04	263.05
478.41	262.98
478.77	263.06
479.14	263.00
479.50	263.01
479.87	263.09
480.23	263.18
480.60	263.21
480.96	263.32
481.33	263.50
481.69	263.69
482.06	263.90
482.42	264.10
482.79	264.35
483.15	264.64
483.52	265.00
483.88	265.35
484.25	265.70
484.61	266.12
484.98	266.60
485.34	267.19
485.71	267.78
486.07	268.38
486.44	268.92
486.80	269.60
487.17	270.35
487.53	271.17
487.90	272.00
488.26	272.95
488.62	273.89
488.99	274.89
489.35	275.96
489.72	277.08
490.08	278.24
490.44	279.46
490.81	280.76
491.17	282.12
491.54	283.60
491.90	285.13
492.26	286.78
492.63	288.50
492.99	290.27
493.36	292.15
493.72	294.17
494.08	296.25
494.45	298.51
494.81	300.87
495.17	303.27
495.54	305.84
495.90	308.53
496.26	311.37
496.63	314.26
496.99	317.34
497.35	320.58
497.72	324.02
498.08	327.54
498.44	331.26
498.80	335.20
499.17	339.24
499.53	343.43
499.89	347.79
500.26	352.32
500.62	356.96
500.98	361.93
501.34	367.06
501.71	372.38
502.07	377.90
502.43	383.50
502.79	389.37
503.16	395.39
503.52	401.65
503.88	408.09
504.24	414.77
504.60	421.70
504.97	428.85
505.33	436.16
505.69	443.82
506.05	451.59
506.41	459.48
506.78	467.67
507.14	476.12
507.50	484.86
507.86	493.86
508.22	503.09
508.59	512.28
508.95	521.82
509.31	531.66
509.67	541.72
510.03	552.00
510.39	562.51
510.75	573.37
511.12	584.27
511.48	595.54
511.84	606.97
512.20	618.43
512.56	630.35
512.92	642.56
513.28	654.87
513.64	667.34
514.00	680.07
514.37	692.98
514.73	706.06
515.09	719.09
515.45	732.40
515.81	745.92
516.17	759.93
516.53	774.10
516.89	788.31
517.25	802.46
517.61	816.95
517.97	831.41
518.33	845.81
518.69	860.60
519.05	875.58
519.41	890.76
519.77	906.39
520.13	921.94
520.49	937.28
520.85	952.76
521.21	968.55
521.57	984.78
521.93	1000.56
522.29	1016.93
522.65	1033.12
523.01	1049.35
523.37	1065.35
523.73	1081.52
524.09	1097.60
524.45	1113.96
524.81	1130.60
525.17	1147.32
525.53	1164.22
525.89	1181.15
526.25	1197.96
526.61	1214.41
526.97	1231.18
527.33	1247.53
527.68	1264.08
528.04	1280.50
528.40	1297.17
528.76	1314.09
529.12	1330.64
529.48	1347.58
529.84	1363.61
530.20	1380.23
530.56	1397.27
530.91	1414.75
531.27	1431.51
531.63	1448.05
531.99	1464.58
532.35	1480.48
532.71	1496.36
533.07	1512.56
533.42	1528.47
533.78	1544.58
534.14	1560.70
534.50	1575.97
534.86	1591.78
535.21	1606.91
535.57	1622.91
535.93	1638.42
536.29	1653.20
536.65	1668.24
537.00	1683.04
537.36	1698.26
537.72	1712.83
538.08	1727.04
538.44	1740.83
538.79	1754.73
539.15	1768.28
539.51	1781.93
539.87	1796.36
540.22	1810.15
540.58	1823.91
540.94	1837.14
541.29	1849.91
541.65	1862.63
542.01	1875.86
542.37	1888.22
542.72	1900.61
543.08	1912.29
543.44	1924.56
543.79	1935.83
544.15	1946.86
544.51	1958.29
544.87	1969.28
545.22	1980.09
545.58	1990.36
545.94	2000.16
546.29	2009.99
546.65	2019.80
547.01	2029.07
547.36	2037.78
547.72	2046.22
548.07	2054.02
548.43	2062.14
548.79	2070.17
549.14	2077.73
549.50	2085.03
549.86	2092.63
550.21	2099.97
550.57	2107.14
550.92	2113.70
551.28	2120.80
551.64	2127.84
551.99	2134.46
552.35	2140.51
552.70	2146.77
553.06	2152.81
553.41	2159.15
553.77	2165.19
554.13	2171.28
554.48	2177.48
554.84	2182.85
555.19	2188.27
555.55	2193.62
555.90	2198.17
556.26	2203.00
556.61	2207.78
556.97	2212.09
557.32	2216.25
557.68	2220.39
558.03	2224.74
558.39	2228.50
558.74	2233.07
559.10	2236.96
559.45	2240.52
559.81	2244.95
560.16	2248.58
560.52	2251.79
560.87	2255.16
561.23	2257.77
561.58	2260.75
561.94	2263.30
562.29	2265.83
562.64	2268.25
563.00	2270.66
563.35	2274.14
563.71	2277.46
564.06	2280.61
564.42	2283.50
564.77	2286.11
565.12	2288.31
565.48	2290.19
565.83	2291.89
566.19	2293.11
566.54	2294.04
566.89	2295.17
567.25	2295.66
567.60	2297.05
567.96	2298.71
568.31	2299.55
568.66	2300.67
569.02	2301.10
569.37	2301.32
569.72	2302.05
570.08	2302.28
570.43	2302.39
570.78	2301.75
571.14	2300.12
571.49	2298.82
571.84	2298.47
572.20	2297.32
572.55	2296.23
572.90	2294.73
573.26	2293.41
573.61	2291.78
573.96	2289.85
574.31	2286.84
574.67	2283.84
575.02	2280.27
575.37	2276.86
575.72	2273.14
576.08	2269.77
576.43	2266.51
576.78	2262.91
577.13	2259.71
577.49	2256.52
577.84	2252.87
578.19	2249.21
578.54	2245.60
578.90	2241.33
579.25	2235.79
579.60	2230.75
579.95	2225.74
580.30	2220.66
580.66	2215.49
581.01	2210.55
581.36	2205.70
581.71	2201.44
582.06	2197.00
582.42	2192.46
582.77	2187.18
583.12	2182.60
583.47	2177.90
583.82	2172.91
584.17	2167.53
584.53	2162.07
584.88	2156.54
585.23	2150.80
585.58	2145.27
585.93	2139.73
586.28	2134.92
586.63	2129.84
586.98	2124.81
587.34	2120.14
587.69	2115.25
588.04	2109.96
588.39	2104.26
588.74	2097.81
589.09	2091.79
589.44	2085.07
589.79	2079.07
590.14	2073.61
590.49	2066.92
590.84	2060.54
591.19	2054.53
591.54	2048.07
591.89	2040.64
592.25	2033.76
592.60	2026.69
592.95	2019.14
593.30	2011.77
593.65	2004.17
594.00	1997.12
594.35	1989.80
594.70	1981.77
595.05	1974.46
595.40	1967.19
595.75	1959.64
596.10	1953.35
596.45	1946.56
596.80	1940.28
597.15	1933.59
597.50	1926.48
597.85	1920.02
598.19	1913.22
598.54	1905.99
598.89	1899.37
599.24	1893.36
599.59	1886.59
599.94	1880.29
600.29	1873.95
600.64	1867.35
600.99	1860.00
601.34	1853.12
601.69	1846.21
602.04	1839.28
602.39	1831.99
602.74	1825.15
603.08	1818.43
603.43	1811.74
603.78	1804.37
604.13	1797.27
604.48	1790.02
604.83	1783.08
605.18	1776.15
605.53	1768.28
605.87	1760.45
606.22	1753.28
606.57	1745.41
606.92	1738.15
607.27	1731.04
607.62	1724.05
607.96	1716.78
608.31	1710.05
608.66	1702.41
609.01	1694.79
609.36	1687.23
609.70	1679.32
610.05	1671.28
610.40	1663.52
610.75	1655.16
611.10	1647.53
611.44	1639.04
611.79	1631.03
612.14	1622.36
612.49	1613.17
612.83	1604.83
613.18	1596.64
613.53	1588.51
613.88	1579.88
614.22	1571.73
614.57	1563.06
614.92	1555.11
615.27	1547.57
615.61	1539.28
615.96	1531.35
616.31	1523.75
616.65	1516.46
617.00	1508.77
617.35	1501.15
617.70	1492.85
618.04	1484.41
618.39	1476.23
618.74	1468.62
619.08	1460.31
619.43	1452.73
619.78	1445.81
620.12	1438.55
620.47	1431.10
620.82	1422.96
621.16	1415.71
621.51	1408.06
621.85	1400.50
622.20	1391.91
622.55	1383.63
622.89	1375.82
623.24	1368.18
623.59	1360.73
623.93	1353.22
624.28	1346.05
624.62	1338.50
624.97	1331.38
625.32	1324.63
625.66	1317.59
626.01	1310.44
626.35	1302.97
626.70	1295.31
627.04	1287.55
627.39	1279.79
627.73	1272.32
628.08	1265.35
628.43	1258.09
628.77	1250.64
629.12	1243.12
629.46	1236.02
629.81	1228.50
630.15	1221.21
630.50	1213.70
630.84	1205.53
631.19	1197.67
631.53	1190.14
631.88	1182.49
632.22	1174.86
632.57	1167.54
632.91	1160.05
633.26	1152.59
633.60	1145.25
633.95	1138.09
634.29	1131.14
634.64	1124.45
634.98	1116.99
635.32	1109.80
635.67	1103.18
636.01	1096.54
636.36	1089.62
636.70	1083.13
637.05	1076.65
637.39	1070.16
637.73	1063.64
638.08	1057.78
638.42	1051.61
638.77	1045.21
639.11	1038.75
639.45	1032.37
639.80	1025.64
640.14	1019.20
640.49	1012.73
640.83	1006.34
641.17	1000.08
641.52	993.75
641.86	987.35
642.20	981.59
642.55	975.36
642.89	968.81
643.23	962.24
643.58	956.49
643.92	950.28
644.26	944.12
644.61	938.18
644.95	932.18
645.29	925.59
645.64	919.03
645.98	912.66
646.32	906.82
646.66	900.73
647.01	895.02
647.35	889.31
647.69	883.45
648.04	878.03
648.38	872.25
648.72	866.18
649.06	860.03
649.41	854.09
649.75	848.15
650.09	842.32
650.43	836.58
650.78	830.46
651.12	824.41
651.46	818.75
651.80	812.92
652.14	807.61
652.49	802.35
652.83	797.09
653.17	791.34
653.51	785.61
653.85	780.25
654.20	774.57
654.54	768.57
654.88	762.92
655.22	756.97
655.56	751.28
655.90	745.89
656.25	740.71
656.59	735.42
656.93	730.30
657.27	725.04
657.61	719.59
657.95	714.49
658.29	709.46
658.64	704.14
658.98	698.95
659.32	693.43
659.66	688.16
660.00	682.77
660.34	677.89
660.68	672.93
661.02	667.91
661.36	663.22
661.70	658.74
662.05	654.30
662.39	649.94
662.73	645.43
663.07	641.02
663.41	636.53
663.75	632.03
664.09	627.45
664.43	623.07
664.77	619.01
665.11	614.80
665.45	610.70
665.79	606.66
666.13	602.44
666.47	598.35
666.81	594.13
667.15	590.08
667.49	586.18
667.83	582.43
668.17	578.43
668.51	574.35
668.85	570.26
669.19	566.42
669.53	562.63
669.87	558.76
670.21	555.04
670.55	551.44
670.89	547.98
671.23	544.53
671.57	541.03
671.91	537.44
672.25	533.92
672.58	530.36
672.92	526.92
673.26	523.72
673.60	520.57
673.94	517.57
674.28	514.63
674.62	511.68
674.96	508.51
675.30	505.64
675.64	502.72
675.97	499.96
676.31	497.03
676.65	494.13
676.99	491.45
677.33	488.61
677.67	485.82
678.01	482.80
678.34	479.84
678.68	476.97
679.02	474.12
679.36	471.33
679.70	468.69
680.04	465.90
680.37	463.08
680.71	460.36
681.05	457.66
681.39	455.03
681.73	452.35
682.06	449.86
682.40	447.35
682.74	444.83
683.08	442.32
683.42	439.80
683.75	437.29
684.09	434.75
684.43	432.22
684.77	429.72
685.10	427.36
685.44	425.04
685.78	422.74
686.12	420.57
686.45	418.27
686.79	415.87
687.13	413.77
687.46	411.66
687.80	409.46
688.14	407.28
688.48	405.20
688.81	402.93
689.15	400.77
689.49	398.65
689.82	396.55
690.16	394.42
690.50	392.46
690.83	390.49
691.17	388.52
691.51	386.66
691.84	384.83
692.18	382.91
692.52	380.92
692.85	379.03
693.19	377.13
693.52	375.33
693.86	373.58
694.20	371.78
694.53	369.94
694.87	368.10
695.21	366.35
695.54	364.55
695.88	362.82
696.21	361.11
696.55	359.39
696.88	357.73
697.22	356.11
697.56	354.46
697.89	352.83
698.23	351.25
698.56	349.65
698.90	348.06
699.23	346.42
699.57	344.92
699.90	343.38
700.24	341.86
700.58	340.34
700.91	338.80
701.25	337.36
701.58	336.00
701.92	334.65
702.25	333.19
702.59	331.76
702.92	330.46
703.26	329.16
703.59	327.89
703.93	326.69
704.26	325.43
704.60	324.14
704.93	322.82
705.26	321.52
705.60	320.36
705.93	319.16
706.27	318.13
706.60	317.06
706.94	315.93
707.27	314.75
707.61	313.65
707.94	312.68
708.27	311.56
708.61	310.47
708.94	309.48
709.28	308.54
709.61	307.60
709.94	306.62
710.28	305.56
710.61	304.55
710.95	303.43
711.28	302.52
711.61	301.60
711.95	300.69
712.28	299.75
712.61	298.74
712.95	297.83
713.28	296.93
713.61	295.99
713.95	295.13
714.28	294.30
714.61	293.47
714.95	292.62
715.28	291.78
715.61	290.88
715.95	290.03
716.28	289.18
716.61	288.36
716.95	287.55
717.28	286.86
717.61	286.07
717.94	285.37
718.28	284.60
718.61	283.89
718.94	283.24
719.27	282.61
719.61	281.94
719.94	281.27
720.27	280.59
720.60	280.00
720.94	279.34
721.27	278.78
721.60	278.19
721.93	277.56
722.27	277.02
722.60	276.49
722.93	275.89
723.26	275.36
723.59	274.78
723.93	274.24
724.26	273.65
724.59	273.17
724.92	272.65
725.25	272.15
725.59	271.57
725.92	271.03
726.25	270.57
726.58	270.09
726.91	269.61
727.24	269.14
727.57	268.63
727.91	268.15
728.24	267.68
728.57	267.16
728.90	266.73
729.23	266.23
729.56	265.80
729.89	265.33
730.22	264.83
730.55	264.39
730.89	263.94
731.22	263.53
731.55	263.07
731.88	262.66
732.21	262.22
732.54	261.82
732.87	261.41
733.20	260.97
733.53	260.58
733.86	260.21
734.19	259.79
734.52	259.43
734.85	259.13
735.18	258.72
735.51	258.34
735.84	257.94
736.17	257.61
736.50	257.21
736.83	256.98
737.16	256.64
737.49	256.31
737.82	255.95
738.15	255.59
738.48	255.27
738.81	254.95
739.14	254.65
739.47	254.31
739.80	253.99
740.13	253.71
740.46	253.38
740.79	253.07
741.12	252.78
741.45	252.44
741.78	252.09
742.11	251.83
742.44	251.54
742.77	251.26
743.10	250.94
743.43	250.63
743.75	250.24
744.08	250.13
744.41	249.83
744.74	249.57
745.07	249.29
745.40	249.02
745.73	248.77
746.06	248.43
746.39	248.16
746.71	247.89
747.04	247.59
747.37	247.33
747.70	247.05
748.03	246.80
748.36	246.56
748.68	246.28
749.01	246.01
749.34	245.79
749.67	245.55
750.00	245.32
750.33	245.16
750.65	244.93
750.98	244.56
751.31	244.34
751.64	244.11
751.97	243.96
752.29	243.73
752.62	243.46
752.95	243.28
753.28	243.09
753.60	242.89
753.93	242.69
754.26	242.49
754.59	242.24
754.91	242.04
755.24	241.86
755.57	241.68
755.90	241.47
756.22	241.27
756.55	241.07
756.88	240.88
757.20	240.66
757.53	240.44
757.86	240.29
758.19	240.14
758.51	239.99
758.84	239.76
759.17	239.58
759.49	239.44
759.82	239.31
760.15	239.15
760.47	239.02
760.80	238.85
761.13	238.73
761.45	238.60
761.78	238.45
762.11	238.31
762.43	238.14
762.76	238.01
763.08	237.89
763.41	237.77
763.74	237.63
764.06	237.50
764.39	237.41
764.71	237.24
765.04	237.11
765.37	236.99
765.69	236.89
766.02	236.79
766.34	236.67
766.67	236.53
767.00	236.43
767.32	236.36
767.65	236.32
767.97	236.19
768.30	236.10
768.62	235.98
768.95	235.87
769.27	235.79
769.60	235.71
769.92	235.60
770.25	235.46
770.57	235.33
770.90	235.19
771.22	235.06
771.55	234.98
771.87	234.90
772.20	234.82
772.52	234.81
772.85	234.82
773.17	234.71
773.50	234.62
773.82	234.53
774.15	234.36
774.47	234.21
774.80	234.10
775.12	233.98
775.45	233.93
775.77	233.83
776.09	233.76
776.42	233.68
776.74	233.61
777.07	233.54
777.39	233.46
777.72	233.40
778.04	233.37
778.36	233.31
778.69	233.22
779.01	233.13
779.33	232.98
779.66	232.79
779.98	232.72
780.31	232.63
780.63	232.60
780.95	232.56
781.28	232.51
781.60	232.43
781.92	232.37
782.25	232.29
782.57	232.26
782.89	232.19
783.22	232.13
783.54	232.07
783.86	232.01
784.19	231.99
784.51	231.96
784.83	231.89
785.16	231.79
785.48	231.74
785.80	231.69
786.12	231.62
786.45	231.60
786.77	231.56
787.09	231.54
787.42	231.47
787.74	231.45
788.06	231.41
788.38	231.43
788.71	231.41
789.03	231.36
789.35	231.32
789.67	231.30
789.99	231.28
790.32	231.19
790.64	231.16
790.96	231.19
791.28	231.13
791.61	231.10
791.93	231.08
792.25	231.03
792.57	231.04
792.89	231.01
793.21	230.96
793.54	230.92
793.86	230.87
794.18	230.83
794.50	230.73
794.82	230.69
795.14	230.62
795.47	230.58
795.79	230.58
796.11	230.51
796.43	230.47
796.75	230.42
797.07	230.41
797.39	230.39
797.71	230.30
798.04	230.25
798.36	230.22
798.68	230.22
799.00	230.21
799.32	230.15
799.64	230.13
799.96	230.11
800.28	230.08
800.60	230.02
800.92	230.02
801.24	230.02
801.56	229.99
801.89	229.97
802.21	229.96
802.53	229.90
802.85	229.90
803.17	229.91
803.49	229.86
803.81	229.83
804.13	229.80
804.45	229.73
804.77	229.72
805.09	229.69
805.41	229.64
805.73	229.59
806.05	229.52
806.37	229.50
806.69	229.47
807.01	229.47
807.33	229.49
807.65	229.40
807.97	229.39
808.28	229.36
808.60	229.34
808.92	229.33
809.24	229.38
809.56	229.35
809.88	229.27
810.20	229.25
810.52	229.25
810.84	229.20
811.16	229.18
811.48	229.13
811.80	229.12
812.12	229.09
812.43	229.11
812.75	229.08
813.07	229.05
813.39	229.02
813.71	228.97
814.03	228.93
814.35	228.91
814.67	228.85
814.98	228.82
815.30	228.78
815.62	228.74
815.94	228.62
816.26	228.62
816.58	228.58
816.89	228.56
817.21	228.48
817.53	228.45
817.85	228.47
818.17	228.48
818.48	228.44
818.80	228.45
819.12	228.40
819.44	228.36
819.76	228.36
820.07	228.34
820.39	228.32
820.71	228.34
821.03	228.31
821.34	228.32
821.66	228.33
821.98	228.29
822.30	228.24
822.61	228.27
822.93	228.22
823.25	228.19
823.57	228.17
823.88	228.22
824.20	228.22
824.52	228.20
824.83	228.17
825.15	228.13
825.47	228.11
825.79	228.10
826.10	228.11
826.42	228.03
826.74	228.03
827.05	228.00
827.37	227.97
827.69	227.94
828.00	227.91
828.32	227.89
828.64	227.92
828.95	227.98
829.27	227.98
829.58	227.99
829.90	227.99
830.22	228.00
830.53	227.95
830.85	227.95
831.17	227.93
831.48	227.91
831.80	227.90
832.11	227.89
832.43	227.86
832.75	227.85
833.06	227.93
833.38	227.91
833.69	227.91
834.01	227.92
834.32	227.90
834.64	227.90
834.96	227.86
835.27	227.86
835.59	227.81
835.90	227.77
836.22	227.75
836.53	227.74
836.85	227.70
837.16	227.82
837.48	227.81
837.79	227.83
838.11	227.85
838.42	227.84
838.74	227.86
839.05	227.84
839.37	227.85
839.68	227.76
840.00	227.73
840.31	227.74
840.63	227.72
840.94	227.73
841.26	227.69
841.57	227.72
841.88	227.68
842.20	227.69
842.51	227.69
842.83	227.67
843.14	227.77
843.46	227.77
843.77	227.67
844.08	227.66
844.40	227.63
844.71	227.63
845.03	227.62
845.34	227.57
845.65	227.57
845.97	227.57
846.28	227.58
846.60	227.61
846.91	227.58
847.22	227.55
847.54	227.57
847.85	227.58
848.16	227.56
848.48	227.57
848.79	227.54
849.10	227.54
849.42	227.54
849.73	227.42
850.04	227.41
850.36	227.37
850.67	227.36
850.98	227.34
851.30	227.32
851.61	227.32
851.92	227.36
852.23	227.37
852.55	227.37
852.86	227.38
853.17	227.39
853.49	227.41
853.80	227.44
854.11	227.42
854.42	227.41
854.74	227.42
855.05	227.40
855.36	227.40
855.67	227.35
855.99	227.36
856.30	227.46
856.61	227.48
856.92	227.48
857.23	227.48
857.55	227.45
857.86	227.47
858.17	227.47
858.48	227.43
858.79	227.39
859.11	227.38
859.42	227.35
859.73	227.35
860.04	227.30
860.35	227.27
860.66	227.25
860.98	227.25
861.29	227.25
861.60	227.21
861.91	227.22
862.22	227.24
862.53	227.22
862.84	227.13
863.16	227.11
863.47	227.10
863.78	227.10
864.09	227.10
864.40	227.10
864.71	227.07
865.02	227.08
865.33	227.11
865.64	227.10
865.95	227.10
866.27	227.17
866.58	227.18
866.89	227.21
867.20	227.20
867.51	227.19
867.82	227.14
868.13	227.18
868.44	227.19
868.75	227.20
869.06	227.20
869.37	227.21
869.68	227.17
869.99	227.19
870.30	227.19
870.61	227.22
870.92	227.18
871.23	227.25
871.54	227.26
871.85	227.27
872.16	227.25
872.47	227.22
872.78	227.15
873.09	227.16
873.40	227.14
873.71	227.13
874.02	227.10
874.33	227.13
874.64	227.11
874.95	227.07
875.26	227.03
875.56	227.05
875.87	227.06
876.18	227.08
876.49	227.19
876.80	227.18
877.11	227.16
877.42	227.20
877.73	227.18
878.04	227.17
878.35	227.17
878.66	227.19
878.96	227.17
879.27	227.17
879.58	227.16
879.89	227.14
880.20	227.22
880.51	227.28
880.82	227.27
881.12	227.29
881.43	227.26
881.74	227.25
882.05	227.22
882.36	227.20
882.67	227.21
882.97	227.09
883.28	227.07
883.59	227.07
883.90	227.02
884.21	227.00
884.51	226.98
884.82	226.95
885.13	226.94
885.44	226.99
885.74	226.97
886.05	226.98
886.36	227.00
886.67	226.94
886.98	226.96
887.28	226.97
887.59	226.96
887.90	226.99
888.20	227.00
888.51	227.01
888.82	226.99
889.13	226.98
889.43	227.08
889.74	227.08
890.05	227.08
890.35	227.10
890.66	227.11
890.97	227.09
891.28	227.12
891.58	227.10
891.89	227.08
892.20	227.08
892.50	227.05
892.81	227.04
893.12	227.00
893.42	226.94
893.73	226.94
894.04	226.93
894.34	226.94
894.65	226.94
894.95	226.92
895.26	226.92
895.57	226.97
895.87	226.89
896.18	226.89
896.48	226.88
896.79	226.88
897.10	226.87
897.40	226.88
897.71	226.85
898.01	226.86
898.32	226.86
898.63	226.87
898.93	226.88
899.24	226.86
899.54	226.87
899.85	226.84
900.15	226.86
900.46	226.87
900.76	226.87
901.07	226.85
901.38	226.87
901.68	226.90
901.99	226.83
902.29	226.82
902.60	226.81
902.90	226.82
903.21	226.78
903.51	226.77
903.82	226.80
904.12	226.82
904.43	226.81
904.73	226.80
905.03	226.80
905.34	226.90
905.64	226.89
905.95	226.88
906.25	226.87
906.56	226.87
906.86	226.86
907.17	226.83
907.47	226.89
907.77	226.87
908.08	226.83
908.38	226.86
908.69	226.87
908.99	226.91
909.30	226.91
909.60	226.93
909.90	226.95
910.21	226.94
910.51	226.91
910.81	226.94
911.12	226.98
911.42	226.97
911.73	226.88
912.03	226.91
912.33	226.96
912.64	227.01
912.94	226.97
913.24	226.96
913.55	226.97
913.85	226.94
914.15	226.98
914.46	227.01
914.76	226.97
915.06	226.97
915.37	226.93
915.67	226.91
915.97	226.93
916.27	226.91
916.58	226.89
916.88	226.88
917.18	226.84
917.49	226.90
917.79	226.89
918.09	226.90
918.39	226.91
918.70	226.90
919.00	226.88
919.30	226.94
919.60	226.94
919.91	226.94
920.21	226.93
920.51	226.88
920.81	226.85
921.12	226.88
921.42	226.87
921.72	226.88
922.02	226.89
922.32	226.88
922.63	226.89
922.93	226.91
923.23	226.97
923.53	226.98
923.83	226.91
924.13	226.95
924.44	226.96
924.74	226.98
925.04	227.03
925.34	227.02
925.64	226.99
925.94	226.99
926.24	227.04
926.55	227.03
926.85	227.06
927.15	227.07
927.45	227.06
927.75	227.04
928.05	227.03
928.35	227.03
928.65	227.04
928.95	227.05
929.26	227.04
929.56	227.04
929.86	227.01
930.16	227.01
930.46	226.95
930.76	226.92
931.06	226.90
931.36	226.86
931.66	226.89
931.96	226.92
932.26	226.93
932.56	226.90
932.86	226.89
933.16	226.87
933.46	226.86
933.76	226.87
934.06	226.89
934.36	226.92
934.66	226.93
934.96	226.88
935.26	226.83
935.56	226.82
935.86	226.80
936.16	226.83
936.46	226.82
936.76	226.87
937.06	226.87
937.36	226.84
937.66	226.83
937.96	226.83
938.26	226.80
938.56	226.81
938.86	226.79
939.16	226.86
939.46	226.88
939.76	226.89
940.06	226.91
940.35	226.88
940.65	226.82
940.95	226.82
941.25	226.84
941.55	226.85
941.85	226.86
942.15	226.88
942.45	226.88
942.75	226.86
943.04	226.82
943.34	226.82
943.64	226.83
943.94	226.81
944.24	226.82
944.54	226.79
944.84	226.78
945.13	226.79
945.43	226.72
945.73	226.71
946.03	226.72
946.33	226.67
946.62	226.67
946.92	226.68
947.22	226.70
947.52	226.71
947.82	226.74
948.11	226.77
948.41	226.75
948.71	226.71
949.01	226.72
949.31	226.75
949.60	226.77
949.90	226.83
950.20	226.83
950.50	226.82
950.79	226.83
951.09	226.81
951.39	226.82
951.69	226.83
951.98	226.84
952.28	226.84
952.58	226.86
952.87	226.88
953.17	226.93
953.47	226.89
953.76	226.88
954.06	226.85
954.36	226.82
954.66	226.80
954.95	226.82
955.25	226.82
955.55	226.81
955.84	226.79
956.14	226.74
956.44	226.71
956.73	226.69
957.03	226.69
957.32	226.73
957.62	226.70
957.92	226.73
958.21	226.74
958.51	226.82
958.81	226.80
959.10	226.81
959.40	226.80
959.69	226.81
959.99	226.85
960.29	226.85
960.58	226.86
960.88	226.90
961.17	226.91
961.47	226.93
961.76	226.92
962.06	226.93
962.36	226.92
962.65	226.94
962.95	226.95
963.24	226.94
963.54	226.95
963.83	226.97
964.13	226.94
964.42	226.90
964.72	226.85
965.01	226.89
965.31	226.85
965.60	226.84
965.90	226.94
966.19	226.88
966.49	226.88
966.78	226.85
967.08	226.83
967.37	226.81
967.67	226.81
967.96	226.80
968.26	226.79
968.55	226.79
968.85	226.78
969.14	226.77
969.43	226.78
969.73	226.73
970.02	226.72
970.32	226.74
970.61	226.75
970.91	226.69
971.20	226.67
971.49	226.71
971.79	226.73
972.08	226.65
972.38	226.69
972.67	226.69
972.96	226.71
973.26	226.69
973.55	226.73
973.85	226.71
974.14	226.73
974.43	226.74
974.73	226.75
975.02	226.75
975.31	226.73
975.61	226.72
975.90	226.76
976.19	226.72
976.49	226.73
976.78	226.71
977.07	226.73
977.37	226.76
977.66	226.75
977.95	226.72
978.24	226.72
978.54	226.72
978.83	226.74
979.12	226.75
979.42	226.73
979.71	226.73
980.00	226.74
980.29	226.72
980.59	226.69
980.88	226.72
981.17	226.74
981.46	226.75
981.76	226.75
982.05	226.76
982.34	226.80
982.63	226.80
982.93	226.81
983.22	226.84
983.51	226.82
983.80	226.81
984.09	226.82
984.39	226.80
984.68	226.80
984.97	226.77
985.26	226.77
985.55	226.80
985.85	226.76
986.14	226.77
986.43	226.79
986.72	226.80
987.01	226.78
987.30	226.75
987.59	226.75
987.89	226.76
988.18	226.73
988.47	226.72
988.76	226.68
989.05	226.70
989.34	226.68
989.63	226.70
989.92	226.68
990.22	226.69
990.51	226.68
990.80	226.64
991.09	226.63
991.38	226.61
991.67	226.59
991.96	226.61
992.25	226.63
992.54	226.60
992.83	226.59
993.12	226.56
993.41	226.59
993.70	226.62
993.99	226.63
994.28	226.62
994.58	226.64
994.87	226.65
995.16	226.59
995.45	226.61
995.74	226.56
996.03	226.59
996.32	226.59
996.61	226.64
996.90	226.64
997.19	226.65
997.48	226.67
997.77	226.68
998.06	226.67
998.34	226.62
998.63	226.62
998.92	226.67
999.21	226.67
999.50	226.67
999.79	226.64
1000.08	226.64
1000.37	226.66
1000.66	226.63
1000.95	226.64
1001.24	226.67
1001.53	226.63
1001.82	226.66
1002.11	226.61
1002.40	226.63
1002.68	226.64
1002.97	226.72
1003.26	226.72
1003.55	226.68
1003.84	226.68
1004.13	226.70
1004.42	226.70
1004.71	226.72
1004.99	226.70
1005.28	226.74
1005.57	226.72
1005.86	226.71
1006.15	226.69
1006.44	226.68
1006.72	226.67
1007.01	226.67
1007.30	226.68
1007.59	226.71
1007.88	226.70
1008.17	226.73
1008.45	226.69
1008.74	226.66
1009.03	226.64
1009.32	226.66
1009.60	226.67
1009.89	226.65
1010.18	226.62
1010.47	226.63
1010.76	226.65
1011.04	226.66
1011.33	226.67
1011.62	226.70
1011.91	226.70
1012.19	226.74
1012.48	226.73
1012.77	226.75
1013.05	226.81
1013.34	226.80
1013.63	226.81
1013.92	226.81
1014.20	226.82
1014.49	226.83
1014.78	226.81
1015.06	226.77
1015.35	226.74
1015.64	226.77
1015.92	226.79
1016.21	226.78
1016.50	226.79
1016.78	226.78
1017.07	226.76
1017.36	226.75
1017.64	226.74
1017.93	226.73
1018.22	226.69
1018.50	226.71
1018.79	226.71
1019.08	226.64
1019.36	226.66
1019.65	226.62
1019.93	226.63
1020.22	226.63
1020.51	226.67
1020.79	226.69
1021.08	226.50
1021.36	226.85
1021.65	226.68
1021.94	226.38
1022.22	227.07
1022.51	226.22
1022.79	226.87
1023.08	226.77
1023.36	227.64
1023.65	226.81
>>>>>End Processed Spectral Data<<<<<
