SpectraSuite Data File
++++++++++++++++++++++++++++++++++++
Date: Fri Feb 01 16:27:00 EST 2013
User: group
Dark Spectrum Present: No
Reference Spectrum Present: No
Number of Sampled Component Spectra: 1
Spectrometers: USB2E7196
Integration Time (usec): 35000 (USB2E7196)
Spectra Averaged: 100 (USB2E7196)
Boxcar Smoothing: 10 (USB2E7196)
Correct for Electrical Dark: No (USB2E7196)
Strobe/Lamp Enabled: No (USB2E7196)
Correct for Detector Non-linearity: No (USB2E7196)
Correct for Stray Light: No (USB2E7196)
Number of Pixels in Processed Spectrum: 2048
>>>>>Begin Processed Spectral Data<<<<<
339.09	0.00
339.48	214.05
339.86	215.40
340.24	216.88
340.63	218.07
341.01	220.89
341.39	220.85
341.78	222.30
342.16	223.43
342.54	223.80
342.93	212.26
343.31	223.00
343.69	223.53
344.07	223.97
344.46	224.38
344.84	224.75
345.22	224.99
345.60	225.24
345.99	225.42
346.37	225.54
346.75	225.63
347.13	225.72
347.52	225.76
347.90	225.84
348.28	225.90
348.66	225.92
349.05	225.94
349.43	225.97
349.81	226.01
350.19	226.04
350.57	226.09
350.96	226.16
351.34	226.22
351.72	226.30
352.10	226.42
352.48	226.51
352.87	226.59
353.25	226.65
353.63	226.69
354.01	226.76
354.39	226.84
354.77	226.94
355.15	227.07
355.54	227.16
355.92	227.18
356.30	227.22
356.68	227.35
357.06	227.44
357.44	227.51
357.82	227.55
358.20	227.62
358.58	227.68
358.97	227.77
359.35	227.88
359.73	227.95
360.11	228.00
360.49	228.05
360.87	228.10
361.25	228.17
361.63	228.26
362.01	228.31
362.39	228.32
362.77	228.34
363.15	228.36
363.53	228.36
363.91	228.40
364.29	228.45
364.67	228.36
365.05	228.38
365.43	228.41
365.81	228.48
366.19	228.55
366.57	228.58
366.95	228.56
367.33	228.54
367.71	228.54
368.09	228.56
368.47	228.53
368.85	228.50
369.23	228.51
369.61	228.48
369.99	228.49
370.37	228.49
370.75	228.54
371.13	228.52
371.51	228.48
371.89	228.43
372.27	228.40
372.65	228.37
373.03	228.31
373.41	228.27
373.78	228.17
374.16	228.07
374.54	228.01
374.92	227.98
375.30	227.93
375.68	227.83
376.06	227.75
376.44	227.71
376.82	227.64
377.19	227.53
377.57	227.45
377.95	227.34
378.33	227.23
378.71	227.08
379.09	227.02
379.47	226.95
379.84	226.91
380.22	226.81
380.60	226.75
380.98	226.70
381.36	226.63
381.73	226.55
382.11	226.48
382.49	226.45
382.87	226.36
383.25	226.30
383.62	226.36
384.00	226.29
384.38	226.23
384.76	226.23
385.13	226.23
385.51	226.17
385.89	226.14
386.27	226.12
386.64	226.11
387.02	226.04
387.40	226.01
387.78	225.98
388.15	225.97
388.53	225.93
388.91	225.88
389.29	225.80
389.66	225.83
390.04	225.79
390.42	225.76
390.79	225.73
391.17	225.68
391.55	225.55
391.92	225.55
392.30	225.56
392.68	225.49
393.05	225.47
393.43	225.48
393.81	225.49
394.18	225.48
394.56	225.47
394.94	225.49
395.31	225.48
395.69	225.51
396.06	225.50
396.44	225.53
396.82	225.52
397.19	225.60
397.57	225.58
397.95	225.64
398.32	225.62
398.70	225.70
399.07	225.79
399.45	225.87
399.82	225.92
400.20	225.96
400.58	226.03
400.95	226.06
401.33	226.14
401.70	226.27
402.08	226.36
402.45	226.48
402.83	226.56
403.20	226.66
403.58	226.73
403.95	226.89
404.33	227.02
404.71	227.19
405.08	227.39
405.46	227.54
405.83	227.66
406.21	227.82
406.58	227.95
406.96	228.10
407.33	228.22
407.70	228.42
408.08	228.69
408.45	228.90
408.83	229.14
409.20	229.38
409.58	229.56
409.95	229.83
410.33	230.09
410.70	230.35
411.08	230.69
411.45	231.03
411.82	231.31
412.20	231.69
412.57	232.09
412.95	232.38
413.32	232.78
413.69	233.20
414.07	233.63
414.44	234.12
414.82	234.61
415.19	235.19
415.56	235.76
415.94	236.30
416.31	236.93
416.68	237.53
417.06	238.24
417.43	238.91
417.81	239.65
418.18	240.44
418.55	241.29
418.93	242.14
419.30	242.98
419.67	243.95
420.04	244.90
420.42	245.88
420.79	247.05
421.16	248.21
421.54	249.40
421.91	250.62
422.28	251.88
422.66	253.20
423.03	254.50
423.40	255.79
423.77	257.20
424.15	258.66
424.52	260.15
424.89	261.75
425.26	263.30
425.64	264.76
426.01	266.31
426.38	267.96
426.75	269.60
427.13	271.33
427.50	273.11
427.87	274.98
428.24	276.85
428.61	278.54
428.99	280.48
429.36	282.57
429.73	284.60
430.10	286.60
430.47	288.64
430.85	290.75
431.22	292.96
431.59	295.30
431.96	297.52
432.33	299.97
432.70	302.34
433.08	305.12
433.45	307.74
433.82	310.34
434.19	313.18
434.56	315.97
434.93	318.61
435.30	321.18
435.68	324.01
436.05	326.77
436.42	329.60
436.79	332.10
437.16	334.81
437.53	337.60
437.90	340.43
438.27	343.14
438.64	345.93
439.01	348.56
439.38	350.81
439.75	352.98
440.13	355.48
440.50	357.76
440.87	359.61
441.24	361.50
441.61	363.66
441.98	365.14
442.35	366.96
442.72	368.79
443.09	370.63
443.46	371.64
443.83	372.20
444.20	372.69
444.57	373.52
444.94	373.77
445.31	374.12
445.68	374.41
446.05	374.51
446.42	374.16
446.79	373.71
447.16	373.22
447.53	372.89
447.90	371.74
448.27	370.59
448.64	369.03
449.01	367.91
449.37	365.93
449.74	364.03
450.11	361.78
450.48	359.38
450.85	356.86
451.22	354.75
451.59	352.81
451.96	350.88
452.33	348.32
452.70	346.01
453.07	343.21
453.43	340.37
453.80	337.62
454.17	334.95
454.54	332.40
454.91	329.73
455.28	327.06
455.65	324.61
456.02	322.18
456.38	320.04
456.75	317.39
457.12	315.16
457.49	313.01
457.86	310.83
458.23	308.95
458.59	306.94
458.96	304.85
459.33	302.97
459.70	301.10
460.07	299.58
460.43	297.85
460.80	296.24
461.17	294.81
461.54	293.33
461.91	291.92
462.27	290.50
462.64	289.26
463.01	287.92
463.38	286.63
463.74	285.25
464.11	284.12
464.48	283.14
464.85	282.04
465.21	281.21
465.58	280.30
465.95	279.24
466.32	278.30
466.68	277.40
467.05	276.55
467.42	275.70
467.78	274.77
468.15	273.92
468.52	273.25
468.88	272.36
469.25	271.60
469.62	270.95
469.98	270.30
470.35	269.65
470.72	269.07
471.08	268.44
471.45	267.93
471.82	267.36
472.18	266.76
472.55	266.38
472.92	265.83
473.28	265.36
473.65	264.90
474.02	264.46
474.38	264.11
474.75	263.78
475.11	263.41
475.48	263.16
475.85	262.94
476.21	262.72
476.58	262.56
476.94	262.43
477.31	262.31
477.67	262.14
478.04	262.04
478.41	262.00
478.77	262.03
479.14	261.96
479.50	261.93
479.87	262.01
480.23	262.06
480.60	262.09
480.96	262.23
481.33	262.43
481.69	262.68
482.06	262.91
482.42	263.09
482.79	263.38
483.15	263.72
483.52	264.11
483.88	264.46
484.25	264.87
484.61	265.30
484.98	265.71
485.34	266.28
485.71	266.88
486.07	267.47
486.44	268.04
486.80	268.73
487.17	269.50
487.53	270.29
487.90	271.14
488.26	272.10
488.62	273.07
488.99	274.05
489.35	275.11
489.72	276.24
490.08	277.45
490.44	278.68
490.81	280.01
491.17	281.35
491.54	282.87
491.90	284.44
492.26	286.12
492.63	287.90
492.99	289.71
493.36	291.60
493.72	293.68
494.08	295.80
494.45	298.08
494.81	300.46
495.17	302.91
495.54	305.49
495.90	308.20
496.26	311.02
496.63	314.01
496.99	317.14
497.35	320.40
497.72	323.82
498.08	327.38
498.44	331.09
498.80	335.04
499.17	339.08
499.53	343.23
499.89	347.60
500.26	352.12
500.62	356.82
500.98	361.83
501.34	366.92
501.71	372.23
502.07	377.68
502.43	383.36
502.79	389.18
503.16	395.27
503.52	401.57
503.88	407.94
504.24	414.57
504.60	421.47
504.97	428.56
505.33	435.94
505.69	443.61
506.05	451.37
506.41	459.26
506.78	467.40
507.14	475.90
507.50	484.63
507.86	493.63
508.22	502.81
508.59	512.00
508.95	521.58
509.31	531.45
509.67	541.60
510.03	551.82
510.39	562.40
510.75	573.13
511.12	583.98
511.48	595.33
511.84	606.85
512.20	618.27
512.56	630.18
512.92	642.33
513.28	654.65
513.64	667.06
514.00	679.78
514.37	692.77
514.73	705.77
515.09	718.74
515.45	732.00
515.81	745.57
516.17	759.54
516.53	773.61
516.89	787.76
517.25	801.85
517.61	816.30
517.97	830.74
518.33	845.21
518.69	859.96
519.05	874.76
519.41	889.81
519.77	905.37
520.13	920.81
520.49	936.12
520.85	951.50
521.21	967.20
521.57	983.31
521.93	998.93
522.29	1015.21
522.65	1031.44
523.01	1047.55
523.37	1063.47
523.73	1079.52
524.09	1095.50
524.45	1111.67
524.81	1128.29
525.17	1145.03
525.53	1161.79
525.89	1178.62
526.25	1195.39
526.61	1211.79
526.97	1228.56
527.33	1245.00
527.68	1261.41
528.04	1277.85
528.40	1294.42
528.76	1311.44
529.12	1327.93
529.48	1344.71
529.84	1360.72
530.20	1377.28
530.56	1394.33
530.91	1411.69
531.27	1428.44
531.63	1444.89
531.99	1461.40
532.35	1477.24
532.71	1493.03
533.07	1509.20
533.42	1524.90
533.78	1540.95
534.14	1557.17
534.50	1572.33
534.86	1588.09
535.21	1603.28
535.57	1619.15
535.93	1634.60
536.29	1649.25
536.65	1664.25
537.00	1678.95
537.36	1694.19
537.72	1708.63
538.08	1722.88
538.44	1736.60
538.79	1750.43
539.15	1763.98
539.51	1777.69
539.87	1791.84
540.22	1805.55
540.58	1819.32
540.94	1832.71
541.29	1845.40
541.65	1857.93
542.01	1871.12
542.37	1883.38
542.72	1895.76
543.08	1907.40
543.44	1919.63
543.79	1930.72
544.15	1941.61
544.51	1953.15
544.87	1963.99
545.22	1974.64
545.58	1984.85
545.94	1994.42
546.29	2004.16
546.65	2014.03
547.01	2023.24
547.36	2032.10
547.72	2040.45
548.07	2048.14
548.43	2056.20
548.79	2064.20
549.14	2071.84
549.50	2079.03
549.86	2086.55
550.21	2093.82
550.57	2100.86
550.92	2107.35
551.28	2114.46
551.64	2121.62
551.99	2128.04
552.35	2134.05
552.70	2140.28
553.06	2146.14
553.41	2152.56
553.77	2158.54
554.13	2164.53
554.48	2170.58
554.84	2175.93
555.19	2181.21
555.55	2186.47
555.90	2190.87
556.26	2195.85
556.61	2200.55
556.97	2204.94
557.32	2209.03
557.68	2213.12
558.03	2217.44
558.39	2221.21
558.74	2225.91
559.10	2229.65
559.45	2233.38
559.81	2237.71
560.16	2241.57
560.52	2244.81
560.87	2248.27
561.23	2250.89
561.58	2253.94
561.94	2256.46
562.29	2258.75
562.64	2261.39
563.00	2263.85
563.35	2267.44
563.71	2270.41
564.06	2273.63
564.42	2276.48
564.77	2279.04
565.12	2281.29
565.48	2283.34
565.83	2285.32
566.19	2286.54
566.54	2287.53
566.89	2288.66
567.25	2289.27
567.60	2290.56
567.96	2292.33
568.31	2293.21
568.66	2294.47
569.02	2294.92
569.37	2295.33
569.72	2296.30
570.08	2296.28
570.43	2296.54
570.78	2295.94
571.14	2294.41
571.49	2292.99
571.84	2292.80
572.20	2291.87
572.55	2290.88
572.90	2289.23
573.26	2287.74
573.61	2286.10
573.96	2284.41
574.31	2281.47
574.67	2278.74
575.02	2275.10
575.37	2271.75
575.72	2267.91
576.08	2264.42
576.43	2261.15
576.78	2257.58
577.13	2254.41
577.49	2251.44
577.84	2247.83
578.19	2244.23
578.54	2240.78
578.90	2236.64
579.25	2231.00
579.60	2226.00
579.95	2221.09
580.30	2216.39
580.66	2211.32
581.01	2206.44
581.36	2201.55
581.71	2197.54
582.06	2193.01
582.42	2188.71
582.77	2183.56
583.12	2179.20
583.47	2174.78
583.82	2169.96
584.17	2164.68
584.53	2159.35
584.88	2154.00
585.23	2148.44
585.58	2143.06
585.93	2137.62
586.28	2133.08
586.63	2128.09
586.98	2123.10
587.34	2118.52
587.69	2113.54
588.04	2108.41
588.39	2102.95
588.74	2096.49
589.09	2090.38
589.44	2083.79
589.79	2077.89
590.14	2072.27
590.49	2065.62
590.84	2059.24
591.19	2053.17
591.54	2046.84
591.89	2039.52
592.25	2032.67
592.60	2025.39
592.95	2017.90
593.30	2010.53
593.65	2002.89
594.00	1995.96
594.35	1988.80
594.70	1980.80
595.05	1973.65
595.40	1966.37
595.75	1958.87
596.10	1952.74
596.45	1946.01
596.80	1939.81
597.15	1933.06
597.50	1926.04
597.85	1919.73
598.19	1913.10
598.54	1906.00
598.89	1899.31
599.24	1893.49
599.59	1886.87
599.94	1880.84
600.29	1874.53
600.64	1868.20
600.99	1860.90
601.34	1854.05
601.69	1847.18
602.04	1840.32
602.39	1833.04
602.74	1826.26
603.08	1819.41
603.43	1812.71
603.78	1805.45
604.13	1798.17
604.48	1790.95
604.83	1784.13
605.18	1777.11
605.53	1769.10
605.87	1761.17
606.22	1754.06
606.57	1746.18
606.92	1738.85
607.27	1731.63
607.62	1724.66
607.96	1717.24
608.31	1710.54
608.66	1703.01
609.01	1695.37
609.36	1687.77
609.70	1679.74
610.05	1671.63
610.40	1663.92
610.75	1655.61
611.10	1647.93
611.44	1639.51
611.79	1631.46
612.14	1622.85
612.49	1613.83
612.83	1605.52
613.18	1597.50
613.53	1589.32
613.88	1580.66
614.22	1572.39
614.57	1563.73
614.92	1555.74
615.27	1548.26
615.61	1539.98
615.96	1531.81
616.31	1524.22
616.65	1516.93
617.00	1509.36
617.35	1501.69
617.70	1493.43
618.04	1484.90
618.39	1476.73
618.74	1469.14
619.08	1460.85
619.43	1453.17
619.78	1446.22
620.12	1439.18
620.47	1431.55
620.82	1423.50
621.16	1416.13
621.51	1408.61
621.85	1400.94
622.20	1392.40
622.55	1384.04
622.89	1376.16
623.24	1368.57
623.59	1361.13
623.93	1353.57
624.28	1346.29
624.62	1338.84
624.97	1331.63
625.32	1324.89
625.66	1317.84
626.01	1310.76
626.35	1303.46
626.70	1295.74
627.04	1287.91
627.39	1279.98
627.73	1272.65
628.08	1265.68
628.43	1258.34
628.77	1250.90
629.12	1243.37
629.46	1236.15
629.81	1228.73
630.15	1221.50
630.50	1214.07
630.84	1205.92
631.19	1197.98
631.53	1190.46
631.88	1182.84
632.22	1175.41
632.57	1168.10
632.91	1160.52
633.26	1153.02
633.60	1145.53
633.95	1138.39
634.29	1131.34
634.64	1124.67
634.98	1117.26
635.32	1109.96
635.67	1103.45
636.01	1096.73
636.36	1089.97
636.70	1083.46
637.05	1076.86
637.39	1070.33
637.73	1063.92
638.08	1058.01
638.42	1051.92
638.77	1045.51
639.11	1038.88
639.45	1032.38
639.80	1025.76
640.14	1019.36
640.49	1012.83
640.83	1006.60
641.17	1000.35
641.52	993.98
641.86	987.46
642.20	981.56
642.55	975.29
642.89	968.74
643.23	962.26
643.58	956.57
643.92	950.31
644.26	944.24
644.61	938.19
644.95	932.18
645.29	925.58
645.64	918.89
645.98	912.58
646.32	906.81
646.66	900.68
647.01	894.82
647.35	889.09
647.69	883.21
648.04	877.57
648.38	871.82
648.72	865.87
649.06	859.86
649.41	854.05
649.75	848.14
650.09	842.17
650.43	836.36
650.78	830.11
651.12	824.22
651.46	818.54
651.80	812.88
652.14	807.38
652.49	801.98
652.83	796.75
653.17	791.08
653.51	785.34
653.85	779.97
654.20	774.39
654.54	768.35
654.88	762.67
655.22	756.84
655.56	751.14
655.90	745.71
656.25	740.48
656.59	735.03
656.93	729.91
657.27	724.80
657.61	719.41
657.95	714.33
658.29	709.24
658.64	703.95
658.98	698.61
659.32	693.21
659.66	687.97
660.00	682.77
660.34	677.66
660.68	672.76
661.02	667.80
661.36	663.01
661.70	658.58
662.05	654.23
662.39	649.92
662.73	645.44
663.07	641.13
663.41	636.65
663.75	632.20
664.09	627.71
664.43	623.31
664.77	619.16
665.11	614.90
665.45	610.71
665.79	606.64
666.13	602.49
666.47	598.36
666.81	594.28
667.15	590.11
667.49	586.27
667.83	582.47
668.17	578.47
668.51	574.43
668.85	570.38
669.19	566.49
669.53	562.59
669.87	558.74
670.21	554.98
670.55	551.35
670.89	547.89
671.23	544.39
671.57	540.89
671.91	537.38
672.25	533.85
672.58	530.36
672.92	526.90
673.26	523.70
673.60	520.58
673.94	517.46
674.28	514.59
674.62	511.66
674.96	508.50
675.30	505.62
675.64	502.67
675.97	499.85
676.31	496.95
676.65	494.06
676.99	491.41
677.33	488.58
677.67	485.76
678.01	482.76
678.34	479.77
678.68	476.84
679.02	474.02
679.36	471.25
679.70	468.54
680.04	465.83
680.37	463.03
680.71	460.20
681.05	457.57
681.39	454.80
681.73	452.19
682.06	449.68
682.40	447.12
682.74	444.56
683.08	441.99
683.42	439.44
683.75	436.93
684.09	434.30
684.43	431.85
684.77	429.38
685.10	427.01
685.44	424.71
685.78	422.45
686.12	420.19
686.45	417.92
686.79	415.58
687.13	413.38
687.46	411.16
687.80	409.00
688.14	406.73
688.48	404.73
688.81	402.45
689.15	400.30
689.49	398.15
689.82	396.11
690.16	394.08
690.50	392.10
690.83	390.15
691.17	388.15
691.51	386.19
691.84	384.31
692.18	382.38
692.52	380.41
692.85	378.45
693.19	376.56
693.52	374.70
693.86	372.91
694.20	371.08
694.53	369.29
694.87	367.51
695.21	365.75
695.54	363.89
695.88	362.14
696.21	360.41
696.55	358.71
696.88	356.99
697.22	355.32
697.56	353.69
697.89	352.03
698.23	350.42
698.56	348.79
698.90	347.25
699.23	345.57
699.57	344.01
699.90	342.50
700.24	340.95
700.58	339.46
700.91	337.96
701.25	336.50
701.58	335.10
701.92	333.67
702.25	332.24
702.59	330.84
702.92	329.51
703.26	328.18
703.59	326.91
703.93	325.76
704.26	324.51
704.60	323.22
704.93	321.97
705.26	320.74
705.60	319.60
705.93	318.41
706.27	317.40
706.60	316.32
706.94	315.20
707.27	314.04
707.61	312.96
707.94	311.92
708.27	310.86
708.61	309.79
708.94	308.80
709.28	307.86
709.61	306.93
709.94	306.01
710.28	305.02
710.61	304.03
710.95	302.95
711.28	302.07
711.61	301.12
711.95	300.20
712.28	299.23
712.61	298.24
712.95	297.27
713.28	296.41
713.61	295.51
713.95	294.66
714.28	293.85
714.61	292.96
714.95	292.10
715.28	291.25
715.61	290.36
715.95	289.49
716.28	288.64
716.61	287.80
716.95	286.97
717.28	286.20
717.61	285.42
717.94	284.72
718.28	283.86
718.61	283.14
718.94	282.44
719.27	281.81
719.61	281.14
719.94	280.54
720.27	279.79
720.60	279.16
720.94	278.53
721.27	277.93
721.60	277.40
721.93	276.83
722.27	276.28
722.60	275.74
722.93	275.17
723.26	274.63
723.59	274.05
723.93	273.49
724.26	272.97
724.59	272.43
724.92	271.90
725.25	271.40
725.59	270.89
725.92	270.41
726.25	269.87
726.58	269.39
726.91	268.86
727.24	268.43
727.57	267.95
727.91	267.42
728.24	266.92
728.57	266.42
728.90	265.98
729.23	265.47
729.56	265.06
729.89	264.61
730.22	264.12
730.55	263.65
730.89	263.22
731.22	262.76
731.55	262.31
731.88	261.86
732.21	261.43
732.54	260.99
732.87	260.55
733.20	260.18
733.53	259.82
733.86	259.45
734.19	259.04
734.52	258.68
734.85	258.39
735.18	257.98
735.51	257.60
735.84	257.18
736.17	256.86
736.50	256.42
736.83	256.18
737.16	255.87
737.49	255.57
737.82	255.25
738.15	254.93
738.48	254.63
738.81	254.31
739.14	253.97
739.47	253.64
739.80	253.32
740.13	253.01
740.46	252.66
740.79	252.33
741.12	252.00
741.45	251.66
741.78	251.31
742.11	251.04
742.44	250.77
742.77	250.50
743.10	250.20
743.43	249.94
743.75	249.57
744.08	249.40
744.41	249.12
744.74	248.79
745.07	248.50
745.40	248.21
745.73	248.00
746.06	247.75
746.39	247.49
746.71	247.19
747.04	246.89
747.37	246.66
747.70	246.44
748.03	246.21
748.36	246.00
748.68	245.72
749.01	245.48
749.34	245.24
749.67	245.01
750.00	244.75
750.33	244.60
750.65	244.38
750.98	244.04
751.31	243.84
751.64	243.65
751.97	243.49
752.29	243.29
752.62	243.02
752.95	242.82
753.28	242.64
753.60	242.43
753.93	242.29
754.26	242.08
754.59	241.86
754.91	241.69
755.24	241.48
755.57	241.30
755.90	241.11
756.22	240.89
756.55	240.68
756.88	240.53
757.20	240.27
757.53	240.06
757.86	239.89
758.19	239.70
758.51	239.54
758.84	239.35
759.17	239.17
759.49	239.01
759.82	238.87
760.15	238.69
760.47	238.55
760.80	238.36
761.13	238.23
761.45	238.05
761.78	237.83
762.11	237.68
762.43	237.56
762.76	237.41
763.08	237.29
763.41	237.16
763.74	237.02
764.06	236.90
764.39	236.76
764.71	236.63
765.04	236.49
765.37	236.36
765.69	236.23
766.02	236.08
766.34	235.96
766.67	235.81
767.00	235.72
767.32	235.65
767.65	235.60
767.97	235.47
768.30	235.39
768.62	235.30
768.95	235.18
769.27	235.05
769.60	234.94
769.92	234.84
770.25	234.73
770.57	234.59
770.90	234.50
771.22	234.39
771.55	234.24
771.87	234.18
772.20	234.05
772.52	234.01
772.85	234.10
773.17	234.00
773.50	233.92
773.82	233.81
774.15	233.64
774.47	233.46
774.80	233.37
775.12	233.27
775.45	233.20
775.77	233.11
776.09	233.08
776.42	233.00
776.74	232.94
777.07	232.86
777.39	232.82
777.72	232.71
778.04	232.67
778.36	232.65
778.69	232.56
779.01	232.50
779.33	232.32
779.66	232.12
779.98	232.06
780.31	231.99
780.63	231.96
780.95	231.99
781.28	231.93
781.60	231.86
781.92	231.80
782.25	231.73
782.57	231.67
782.89	231.56
783.22	231.49
783.54	231.42
783.86	231.38
784.19	231.34
784.51	231.32
784.83	231.25
785.16	231.16
785.48	231.10
785.80	231.05
786.12	231.02
786.45	230.97
786.77	230.92
787.09	230.88
787.42	230.82
787.74	230.73
788.06	230.69
788.38	230.61
788.71	230.56
789.03	230.51
789.35	230.49
789.67	230.40
789.99	230.37
790.32	230.32
790.64	230.26
790.96	230.27
791.28	230.18
791.61	230.15
791.93	230.12
792.25	230.11
792.57	230.14
792.89	230.10
793.21	230.04
793.54	229.99
793.86	229.94
794.18	229.86
794.50	229.81
794.82	229.81
795.14	229.78
795.47	229.75
795.79	229.73
796.11	229.69
796.43	229.71
796.75	229.66
797.07	229.64
797.39	229.61
797.71	229.48
798.04	229.42
798.36	229.40
798.68	229.36
799.00	229.32
799.32	229.26
799.64	229.23
799.96	229.19
800.28	229.16
800.60	229.12
800.92	229.12
801.24	229.11
801.56	229.08
801.89	229.06
802.21	229.05
802.53	228.95
802.85	228.92
803.17	228.92
803.49	228.85
803.81	228.82
804.13	228.77
804.45	228.75
804.77	228.75
805.09	228.73
805.41	228.70
805.73	228.64
806.05	228.60
806.37	228.57
806.69	228.55
807.01	228.52
807.33	228.49
807.65	228.45
807.97	228.44
808.28	228.38
808.60	228.35
808.92	228.31
809.24	228.39
809.56	228.34
809.88	228.28
810.20	228.31
810.52	228.31
810.84	228.31
811.16	228.26
811.48	228.20
811.80	228.21
812.12	228.23
812.43	228.24
812.75	228.23
813.07	228.21
813.39	228.21
813.71	228.19
814.03	228.18
814.35	228.15
814.67	228.08
814.98	228.09
815.30	228.07
815.62	228.01
815.94	227.96
816.26	228.00
816.58	227.96
816.89	227.93
817.21	227.87
817.53	227.87
817.85	227.88
818.17	227.88
818.48	227.81
818.80	227.79
819.12	227.77
819.44	227.73
819.76	227.67
820.07	227.65
820.39	227.61
820.71	227.60
821.03	227.61
821.34	227.61
821.66	227.56
821.98	227.53
822.30	227.54
822.61	227.57
822.93	227.51
823.25	227.51
823.57	227.49
823.88	227.50
824.20	227.45
824.52	227.47
824.83	227.48
825.15	227.44
825.47	227.44
825.79	227.43
826.10	227.41
826.42	227.42
826.74	227.41
827.05	227.43
827.37	227.44
827.69	227.41
828.00	227.41
828.32	227.44
828.64	227.44
828.95	227.46
829.27	227.41
829.58	227.39
829.90	227.40
830.22	227.40
830.53	227.37
830.85	227.36
831.17	227.31
831.48	227.29
831.80	227.29
832.11	227.27
832.43	227.26
832.75	227.24
833.06	227.31
833.38	227.27
833.69	227.24
834.01	227.21
834.32	227.20
834.64	227.18
834.96	227.15
835.27	227.14
835.59	227.10
835.90	227.07
836.22	227.09
836.53	227.03
836.85	227.01
837.16	227.10
837.48	227.10
837.79	227.13
838.11	227.14
838.42	227.15
838.74	227.14
839.05	227.13
839.37	227.13
839.68	227.02
840.00	227.03
840.31	227.02
840.63	227.01
840.94	226.97
841.26	226.94
841.57	226.91
841.88	226.95
842.20	226.92
842.51	226.89
842.83	226.85
843.14	226.94
843.46	226.93
843.77	226.84
844.08	226.80
844.40	226.76
844.71	226.69
845.03	226.68
845.34	226.64
845.65	226.61
845.97	226.60
846.28	226.62
846.60	226.62
846.91	226.62
847.22	226.60
847.54	226.65
847.85	226.64
848.16	226.64
848.48	226.60
848.79	226.68
849.10	226.69
849.42	226.72
849.73	226.61
850.04	226.60
850.36	226.59
850.67	226.61
850.98	226.60
851.30	226.65
851.61	226.64
851.92	226.63
852.23	226.67
852.55	226.71
852.86	226.71
853.17	226.69
853.49	226.69
853.80	226.70
854.11	226.68
854.42	226.71
854.74	226.67
855.05	226.65
855.36	226.59
855.67	226.59
855.99	226.59
856.30	226.72
856.61	226.71
856.92	226.70
857.23	226.70
857.55	226.68
857.86	226.64
858.17	226.66
858.48	226.66
858.79	226.61
859.11	226.60
859.42	226.59
859.73	226.55
860.04	226.55
860.35	226.54
860.66	226.54
860.98	226.53
861.29	226.58
861.60	226.58
861.91	226.57
862.22	226.57
862.53	226.53
862.84	226.43
863.16	226.47
863.47	226.42
863.78	226.44
864.09	226.47
864.40	226.47
864.71	226.47
865.02	226.50
865.33	226.52
865.64	226.46
865.95	226.44
866.27	226.54
866.58	226.53
866.89	226.54
867.20	226.53
867.51	226.49
867.82	226.46
868.13	226.50
868.44	226.51
868.75	226.53
869.06	226.53
869.37	226.53
869.68	226.51
869.99	226.55
870.30	226.55
870.61	226.55
870.92	226.59
871.23	226.55
871.54	226.55
871.85	226.57
872.16	226.60
872.47	226.62
872.78	226.57
873.09	226.58
873.40	226.57
873.71	226.59
874.02	226.65
874.33	226.64
874.64	226.63
874.95	226.65
875.26	226.60
875.56	226.61
875.87	226.60
876.18	226.60
876.49	226.70
876.80	226.67
877.11	226.66
877.42	226.61
877.73	226.62
878.04	226.61
878.35	226.59
878.66	226.60
878.96	226.60
879.27	226.61
879.58	226.59
879.89	226.59
880.20	226.57
880.51	226.53
880.82	226.57
881.12	226.55
881.43	226.51
881.74	226.50
882.05	226.50
882.36	226.49
882.67	226.47
882.97	226.37
883.28	226.40
883.59	226.40
883.90	226.41
884.21	226.42
884.51	226.41
884.82	226.39
885.13	226.37
885.44	226.36
885.74	226.34
886.05	226.34
886.36	226.34
886.67	226.32
886.98	226.35
887.28	226.33
887.59	226.34
887.90	226.31
888.20	226.33
888.51	226.33
888.82	226.30
889.13	226.30
889.43	226.37
889.74	226.33
890.05	226.31
890.35	226.30
890.66	226.27
890.97	226.26
891.28	226.27
891.58	226.28
891.89	226.27
892.20	226.26
892.50	226.24
892.81	226.24
893.12	226.22
893.42	226.14
893.73	226.16
894.04	226.18
894.34	226.22
894.65	226.18
894.95	226.18
895.26	226.19
895.57	226.22
895.87	226.13
896.18	226.15
896.48	226.16
896.79	226.16
897.10	226.20
897.40	226.19
897.71	226.21
898.01	226.18
898.32	226.20
898.63	226.17
898.93	226.19
899.24	226.17
899.54	226.19
899.85	226.22
900.15	226.22
900.46	226.17
900.76	226.18
901.07	226.20
901.38	226.20
901.68	226.23
901.99	226.17
902.29	226.15
902.60	226.16
902.90	226.15
903.21	226.19
903.51	226.14
903.82	226.15
904.12	226.12
904.43	226.11
904.73	226.09
905.03	226.11
905.34	226.17
905.64	226.16
905.95	226.14
906.25	226.15
906.56	226.13
906.86	226.18
907.17	226.15
907.47	226.16
907.77	226.14
908.08	226.10
908.38	226.15
908.69	226.17
908.99	226.17
909.30	226.15
909.60	226.14
909.90	226.17
910.21	226.14
910.51	226.12
910.81	226.13
911.12	226.13
911.42	226.10
911.73	226.05
912.03	226.07
912.33	226.09
912.64	226.05
912.94	226.02
913.24	225.96
913.55	225.94
913.85	225.92
914.15	225.96
914.46	225.98
914.76	225.95
915.06	225.92
915.37	225.90
915.67	225.93
915.97	225.92
916.27	225.91
916.58	225.93
916.88	225.93
917.18	225.95
917.49	226.01
917.79	226.03
918.09	226.02
918.39	226.03
918.70	226.04
919.00	226.06
919.30	226.12
919.60	226.13
919.91	226.17
920.21	226.19
920.51	226.16
920.81	226.15
921.12	226.15
921.42	226.17
921.72	226.19
922.02	226.18
922.32	226.20
922.63	226.20
922.93	226.25
923.23	226.29
923.53	226.31
923.83	226.25
924.13	226.27
924.44	226.28
924.74	226.30
925.04	226.34
925.34	226.37
925.64	226.33
925.94	226.32
926.24	226.37
926.55	226.32
926.85	226.37
927.15	226.37
927.45	226.39
927.75	226.39
928.05	226.38
928.35	226.37
928.65	226.38
928.95	226.38
929.26	226.37
929.56	226.35
929.86	226.34
930.16	226.34
930.46	226.32
930.76	226.31
931.06	226.28
931.36	226.26
931.66	226.24
931.96	226.26
932.26	226.25
932.56	226.21
932.86	226.22
933.16	226.20
933.46	226.14
933.76	226.12
934.06	226.13
934.36	226.14
934.66	226.15
934.96	226.13
935.26	226.12
935.56	226.09
935.86	226.07
936.16	226.05
936.46	226.06
936.76	226.06
937.06	226.07
937.36	226.05
937.66	226.04
937.96	226.01
938.26	225.98
938.56	226.01
938.86	225.98
939.16	226.04
939.46	226.04
939.76	226.09
940.06	226.09
940.35	226.05
940.65	226.00
940.95	226.03
941.25	226.00
941.55	226.00
941.85	226.02
942.15	226.02
942.45	226.02
942.75	226.01
943.04	226.00
943.34	225.97
943.64	225.96
943.94	225.92
944.24	225.95
944.54	225.98
944.84	225.94
945.13	225.98
945.43	225.94
945.73	225.90
946.03	225.89
946.33	225.90
946.62	225.91
946.92	225.92
947.22	225.86
947.52	225.83
947.82	225.84
948.11	225.81
948.41	225.78
948.71	225.78
949.01	225.76
949.31	225.76
949.60	225.76
949.90	225.78
950.20	225.78
950.50	225.73
950.79	225.71
951.09	225.74
951.39	225.72
951.69	225.72
951.98	225.77
952.28	225.75
952.58	225.75
952.87	225.76
953.17	225.77
953.47	225.78
953.76	225.82
954.06	225.80
954.36	225.77
954.66	225.81
954.95	225.81
955.25	225.84
955.55	225.85
955.84	225.83
956.14	225.83
956.44	225.85
956.73	225.87
957.03	225.91
957.32	225.90
957.62	225.89
957.92	225.95
958.21	225.89
958.51	226.01
958.81	226.03
959.10	226.03
959.40	226.05
959.69	226.08
959.99	226.09
960.29	226.08
960.58	226.13
960.88	226.14
961.17	226.12
961.47	226.13
961.76	226.13
962.06	226.15
962.36	226.15
962.65	226.15
962.95	226.17
963.24	226.11
963.54	226.13
963.83	226.12
964.13	226.08
964.42	226.13
964.72	226.08
965.01	226.07
965.31	226.07
965.60	226.07
965.90	226.15
966.19	226.15
966.49	226.18
966.78	226.15
967.08	226.16
967.37	226.17
967.67	226.14
967.96	226.15
968.26	226.16
968.55	226.16
968.85	226.17
969.14	226.12
969.43	226.15
969.73	226.12
970.02	226.14
970.32	226.15
970.61	226.11
970.91	226.08
971.20	226.03
971.49	226.01
971.79	226.00
972.08	225.91
972.38	225.89
972.67	225.86
972.96	225.89
973.26	225.84
973.55	225.87
973.85	225.88
974.14	225.87
974.43	225.86
974.73	225.85
975.02	225.83
975.31	225.88
975.61	225.87
975.90	225.88
976.19	225.84
976.49	225.83
976.78	225.83
977.07	225.82
977.37	225.84
977.66	225.88
977.95	225.86
978.24	225.84
978.54	225.86
978.83	225.84
979.12	225.83
979.42	225.85
979.71	225.81
980.00	225.80
980.29	225.82
980.59	225.84
980.88	225.85
981.17	225.85
981.46	225.84
981.76	225.81
982.05	225.84
982.34	225.86
982.63	225.85
982.93	225.85
983.22	225.85
983.51	225.88
983.80	225.86
984.09	225.90
984.39	225.89
984.68	225.87
984.97	225.94
985.26	225.90
985.55	225.89
985.85	225.87
986.14	225.91
986.43	225.92
986.72	225.90
987.01	225.87
987.30	225.82
987.59	225.82
987.89	225.84
988.18	225.84
988.47	225.82
988.76	225.86
989.05	225.84
989.34	225.84
989.63	225.86
989.92	225.87
990.22	225.85
990.51	225.82
990.80	225.80
991.09	225.78
991.38	225.82
991.67	225.85
991.96	225.85
992.25	225.84
992.54	225.78
992.83	225.78
993.12	225.78
993.41	225.83
993.70	225.86
993.99	225.86
994.28	225.86
994.58	225.87
994.87	225.86
995.16	225.85
995.45	225.85
995.74	225.80
996.03	225.82
996.32	225.84
996.61	225.93
996.90	225.94
997.19	225.92
997.48	225.89
997.77	225.87
998.06	225.88
998.34	225.89
998.63	225.89
998.92	225.91
999.21	225.93
999.50	225.93
999.79	225.91
1000.08	225.93
1000.37	225.93
1000.66	225.92
1000.95	225.90
1001.24	225.91
1001.53	225.93
1001.82	225.92
1002.11	225.86
1002.40	225.86
1002.68	225.86
1002.97	225.90
1003.26	225.91
1003.55	225.88
1003.84	225.89
1004.13	225.91
1004.42	225.89
1004.71	225.92
1004.99	225.90
1005.28	225.91
1005.57	225.88
1005.86	225.85
1006.15	225.87
1006.44	225.85
1006.72	225.90
1007.01	225.90
1007.30	225.88
1007.59	225.86
1007.88	225.90
1008.17	225.92
1008.45	225.90
1008.74	225.85
1009.03	225.82
1009.32	225.81
1009.60	225.84
1009.89	225.79
1010.18	225.74
1010.47	225.73
1010.76	225.73
1011.04	225.72
1011.33	225.72
1011.62	225.77
1011.91	225.77
1012.19	225.75
1012.48	225.73
1012.77	225.69
1013.05	225.76
1013.34	225.74
1013.63	225.73
1013.92	225.71
1014.20	225.73
1014.49	225.75
1014.78	225.77
1015.06	225.75
1015.35	225.78
1015.64	225.81
1015.92	225.86
1016.21	225.87
1016.50	225.87
1016.78	225.88
1017.07	225.87
1017.36	225.86
1017.64	225.85
1017.93	225.85
1018.22	225.84
1018.50	225.85
1018.79	225.86
1019.08	225.79
1019.36	225.85
1019.65	225.82
1019.93	225.81
1020.22	225.80
1020.51	225.82
1020.79	225.82
1021.08	225.69
1021.36	225.52
1021.65	226.03
1021.94	225.75
1022.22	226.04
1022.51	225.12
1022.79	225.86
1023.08	225.56
1023.36	226.81
1023.65	225.75
>>>>>End Processed Spectral Data<<<<<
