SpectraSuite Data File
++++++++++++++++++++++++++++++++++++
Date: Fri Feb 01 15:54:23 EST 2013
User: group
Dark Spectrum Present: No
Reference Spectrum Present: No
Number of Sampled Component Spectra: 1
Spectrometers: USB2E7196
Integration Time (usec): 35000 (USB2E7196)
Spectra Averaged: 100 (USB2E7196)
Boxcar Smoothing: 10 (USB2E7196)
Correct for Electrical Dark: No (USB2E7196)
Strobe/Lamp Enabled: No (USB2E7196)
Correct for Detector Non-linearity: No (USB2E7196)
Correct for Stray Light: No (USB2E7196)
Number of Pixels in Processed Spectrum: 2048
>>>>>Begin Processed Spectral Data<<<<<
339.09	0.00
339.48	214.85
339.86	216.43
340.24	217.96
340.63	219.54
341.01	222.21
341.39	221.86
341.78	222.91
342.16	224.39
342.54	225.03
342.93	213.31
343.31	224.07
343.69	224.63
344.07	225.11
344.46	225.50
344.84	225.88
345.22	226.10
345.60	226.35
345.99	226.55
346.37	226.66
346.75	226.74
347.13	226.79
347.52	226.84
347.90	226.95
348.28	226.96
348.66	227.05
349.05	227.03
349.43	227.06
349.81	227.11
350.19	227.15
350.57	227.19
350.96	227.26
351.34	227.36
351.72	227.44
352.10	227.51
352.48	227.57
352.87	227.60
353.25	227.67
353.63	227.71
354.01	227.78
354.39	227.88
354.77	227.96
355.15	228.06
355.54	228.13
355.92	228.13
356.30	228.22
356.68	228.32
357.06	228.35
357.44	228.40
357.82	228.42
358.20	228.51
358.58	228.55
358.97	228.59
359.35	228.67
359.73	228.72
360.11	228.80
360.49	228.87
360.87	228.91
361.25	228.97
361.63	229.02
362.01	229.04
362.39	229.05
362.77	229.06
363.15	229.06
363.53	229.04
363.91	229.09
364.29	229.08
364.67	229.01
365.05	229.06
365.43	229.08
365.81	229.12
366.19	229.11
366.57	229.17
366.95	229.18
367.33	229.11
367.71	229.09
368.09	229.07
368.47	229.03
368.85	229.04
369.23	229.02
369.61	228.96
369.99	228.96
370.37	228.93
370.75	228.96
371.13	228.93
371.51	228.91
371.89	228.85
372.27	228.80
372.65	228.74
373.03	228.67
373.41	228.61
373.78	228.53
374.16	228.46
374.54	228.37
374.92	228.31
375.30	228.26
375.68	228.19
376.06	228.10
376.44	228.04
376.82	227.93
377.19	227.87
377.57	227.82
377.95	227.73
378.33	227.68
378.71	227.56
379.09	227.50
379.47	227.43
379.84	227.35
380.22	227.30
380.60	227.21
380.98	227.13
381.36	227.07
381.73	227.04
382.11	226.99
382.49	226.90
382.87	226.79
383.25	226.75
383.62	226.79
384.00	226.74
384.38	226.69
384.76	226.69
385.13	226.66
385.51	226.63
385.89	226.58
386.27	226.53
386.64	226.50
387.02	226.45
387.40	226.42
387.78	226.41
388.15	226.37
388.53	226.37
388.91	226.36
389.29	226.31
389.66	226.27
390.04	226.25
390.42	226.27
390.79	226.28
391.17	226.26
391.55	226.17
391.92	226.16
392.30	226.15
392.68	226.15
393.05	226.18
393.43	226.18
393.81	226.20
394.18	226.20
394.56	226.21
394.94	226.24
395.31	226.25
395.69	226.29
396.06	226.32
396.44	226.34
396.82	226.39
397.19	226.50
397.57	226.52
397.95	226.59
398.32	226.62
398.70	226.69
399.07	226.77
399.45	226.83
399.82	226.87
400.20	226.91
400.58	226.94
400.95	226.95
401.33	227.07
401.70	227.19
402.08	227.27
402.45	227.36
402.83	227.49
403.20	227.60
403.58	227.65
403.95	227.77
404.33	227.92
404.71	228.03
405.08	228.19
405.46	228.35
405.83	228.44
406.21	228.58
406.58	228.75
406.96	228.89
407.33	229.05
407.70	229.26
408.08	229.55
408.45	229.76
408.83	229.99
409.20	230.17
409.58	230.35
409.95	230.65
410.33	230.93
410.70	231.15
411.08	231.41
411.45	231.74
411.82	232.03
412.20	232.39
412.57	232.79
412.95	233.08
413.32	233.50
413.69	233.95
414.07	234.40
414.44	234.84
414.82	235.34
415.19	235.89
415.56	236.43
415.94	236.99
416.31	237.65
416.68	238.25
417.06	238.97
417.43	239.64
417.81	240.38
418.18	241.16
418.55	242.01
418.93	242.88
419.30	243.78
419.67	244.73
420.04	245.67
420.42	246.66
420.79	247.84
421.16	248.93
421.54	250.13
421.91	251.34
422.28	252.62
422.66	253.94
423.03	255.25
423.40	256.59
423.77	258.01
424.15	259.39
424.52	260.90
424.89	262.50
425.26	264.08
425.64	265.55
426.01	267.14
426.38	268.80
426.75	270.49
427.13	272.23
427.50	274.07
427.87	275.96
428.24	277.85
428.61	279.59
428.99	281.55
429.36	283.63
429.73	285.68
430.10	287.71
430.47	289.75
430.85	291.86
431.22	294.10
431.59	296.46
431.96	298.70
432.33	301.23
432.70	303.63
433.08	306.40
433.45	309.04
433.82	311.66
434.19	314.53
434.56	317.33
434.93	319.94
435.30	322.54
435.68	325.44
436.05	328.28
436.42	331.09
436.79	333.61
437.16	336.33
437.53	339.18
437.90	341.97
438.27	344.78
438.64	347.58
439.01	350.18
439.38	352.45
439.75	354.63
440.13	357.08
440.50	359.41
440.87	361.31
441.24	363.25
441.61	365.39
441.98	366.87
442.35	368.68
442.72	370.54
443.09	372.35
443.46	373.30
443.83	373.87
444.20	374.34
444.57	375.15
444.94	375.42
445.31	375.76
445.68	376.14
446.05	376.17
446.42	375.82
446.79	375.35
447.16	374.85
447.53	374.52
447.90	373.35
448.27	372.20
448.64	370.60
449.01	369.43
449.37	367.47
449.74	365.60
450.11	363.38
450.48	360.95
450.85	358.40
451.22	356.27
451.59	354.28
451.96	352.38
452.33	349.81
452.70	347.45
453.07	344.62
453.43	341.72
453.80	338.97
454.17	336.31
454.54	333.83
454.91	331.14
455.28	328.51
455.65	326.02
456.02	323.56
456.38	321.41
456.75	318.74
457.12	316.44
457.49	314.20
457.86	312.02
458.23	310.16
458.59	308.15
458.96	306.10
459.33	304.20
459.70	302.30
460.07	300.78
460.43	299.08
460.80	297.47
461.17	295.99
461.54	294.48
461.91	293.07
462.27	291.64
462.64	290.40
463.01	289.04
463.38	287.78
463.74	286.41
464.11	285.25
464.48	284.25
464.85	283.18
465.21	282.33
465.58	281.41
465.95	280.26
466.32	279.37
466.68	278.48
467.05	277.61
467.42	276.75
467.78	275.86
468.15	274.95
468.52	274.27
468.88	273.45
469.25	272.69
469.62	272.04
469.98	271.33
470.35	270.69
470.72	270.12
471.08	269.43
471.45	268.90
471.82	268.37
472.18	267.79
472.55	267.33
472.92	266.84
473.28	266.37
473.65	265.96
474.02	265.52
474.38	265.13
474.75	264.79
475.11	264.42
475.48	264.13
475.85	263.91
476.21	263.69
476.58	263.52
476.94	263.36
477.31	263.21
477.67	263.06
478.04	262.95
478.41	262.85
478.77	262.90
479.14	262.81
479.50	262.82
479.87	262.90
480.23	263.01
480.60	263.04
480.96	263.17
481.33	263.40
481.69	263.58
482.06	263.78
482.42	263.97
482.79	264.24
483.15	264.54
483.52	264.95
483.88	265.27
484.25	265.64
484.61	266.08
484.98	266.49
485.34	267.09
485.71	267.67
486.07	268.29
486.44	268.85
486.80	269.60
487.17	270.34
487.53	271.12
487.90	271.97
488.26	272.95
488.62	273.91
488.99	274.84
489.35	275.89
489.72	277.02
490.08	278.26
490.44	279.51
490.81	280.83
491.17	282.15
491.54	283.66
491.90	285.18
492.26	286.82
492.63	288.53
492.99	290.31
493.36	292.24
493.72	294.30
494.08	296.42
494.45	298.65
494.81	301.04
495.17	303.48
495.54	306.02
495.90	308.71
496.26	311.54
496.63	314.56
496.99	317.67
497.35	320.88
497.72	324.29
498.08	327.80
498.44	331.55
498.80	335.50
499.17	339.50
499.53	343.74
499.89	348.14
500.26	352.69
500.62	357.37
500.98	362.33
501.34	367.36
501.71	372.69
502.07	378.14
502.43	383.71
502.79	389.53
503.16	395.64
503.52	401.94
503.88	408.35
504.24	414.96
504.60	421.85
504.97	429.08
505.33	436.47
505.69	444.18
506.05	451.89
506.41	459.80
506.78	468.04
507.14	476.47
507.50	485.18
507.86	494.20
508.22	503.41
508.59	512.62
508.95	522.25
509.31	532.10
509.67	542.21
510.03	552.51
510.39	563.12
510.75	573.89
511.12	584.77
511.48	596.07
511.84	607.57
512.20	619.13
512.56	631.00
512.92	643.17
513.28	655.57
513.64	668.04
514.00	680.71
514.37	693.61
514.73	706.66
515.09	719.66
515.45	732.93
515.81	746.49
516.17	760.50
516.53	774.54
516.89	788.70
517.25	802.85
517.61	817.33
517.97	831.86
518.33	846.27
518.69	861.05
519.05	875.96
519.41	891.03
519.77	906.59
520.13	922.01
520.49	937.33
520.85	952.72
521.21	968.47
521.57	984.66
521.93	1000.35
522.29	1016.73
522.65	1033.01
523.01	1049.26
523.37	1065.31
523.73	1081.39
524.09	1097.54
524.45	1113.92
524.81	1130.53
525.17	1147.19
525.53	1163.93
525.89	1180.82
526.25	1197.58
526.61	1213.99
526.97	1230.83
527.33	1247.22
527.68	1263.73
528.04	1280.14
528.40	1296.65
528.76	1313.67
529.12	1330.45
529.48	1347.44
529.84	1363.41
530.20	1380.15
530.56	1397.24
530.91	1414.55
531.27	1431.29
531.63	1447.73
531.99	1464.15
532.35	1479.96
532.71	1495.88
533.07	1512.18
533.42	1528.01
533.78	1544.10
534.14	1560.39
534.50	1575.56
534.86	1591.37
535.21	1606.57
535.57	1622.46
535.93	1637.90
536.29	1652.60
536.65	1667.48
537.00	1682.16
537.36	1697.53
537.72	1711.92
538.08	1726.25
538.44	1740.08
538.79	1753.89
539.15	1767.57
539.51	1781.29
539.87	1795.77
540.22	1809.46
540.58	1823.14
540.94	1836.37
541.29	1849.13
541.65	1861.84
542.01	1874.97
542.37	1887.22
542.72	1899.78
543.08	1911.55
543.44	1924.03
543.79	1935.40
544.15	1946.42
544.51	1957.96
544.87	1968.94
545.22	1979.65
545.58	1989.85
545.94	1999.70
546.29	2009.58
546.65	2019.48
547.01	2028.66
547.36	2037.31
547.72	2045.72
548.07	2053.61
548.43	2061.97
548.79	2070.12
549.14	2077.51
549.50	2084.99
549.86	2092.74
550.21	2099.89
550.57	2107.09
550.92	2113.59
551.28	2120.47
551.64	2127.52
551.99	2134.08
552.35	2140.05
552.70	2146.25
553.06	2152.07
553.41	2158.36
553.77	2164.41
554.13	2170.50
554.48	2176.77
554.84	2182.22
555.19	2187.70
555.55	2192.88
555.90	2197.30
556.26	2202.15
556.61	2206.99
556.97	2211.18
557.32	2215.33
557.68	2219.49
558.03	2223.81
558.39	2227.49
558.74	2232.13
559.10	2235.84
559.45	2239.47
559.81	2243.78
560.16	2247.55
560.52	2250.89
560.87	2254.15
561.23	2256.79
561.58	2259.55
561.94	2262.06
562.29	2264.39
562.64	2266.83
563.00	2269.34
563.35	2272.84
563.71	2275.91
564.06	2278.95
564.42	2281.78
564.77	2284.21
565.12	2286.44
565.48	2288.33
565.83	2290.25
566.19	2291.44
566.54	2292.47
566.89	2293.48
567.25	2293.95
567.60	2295.19
567.96	2296.97
568.31	2297.92
568.66	2298.97
569.02	2299.59
569.37	2299.99
569.72	2300.98
570.08	2301.24
570.43	2301.31
570.78	2300.65
571.14	2299.09
571.49	2297.90
571.84	2297.64
572.20	2296.59
572.55	2295.65
572.90	2294.20
573.26	2292.72
573.61	2291.16
573.96	2289.43
574.31	2286.55
574.67	2283.70
575.02	2280.27
575.37	2276.73
575.72	2272.80
576.08	2269.57
576.43	2266.20
576.78	2262.36
577.13	2259.17
577.49	2256.04
577.84	2252.54
578.19	2248.95
578.54	2245.29
578.90	2240.97
579.25	2235.53
579.60	2230.61
579.95	2225.63
580.30	2220.47
580.66	2215.48
581.01	2210.55
581.36	2205.59
581.71	2201.33
582.06	2196.91
582.42	2192.24
582.77	2186.95
583.12	2182.49
583.47	2177.75
583.82	2172.83
584.17	2167.62
584.53	2162.11
584.88	2156.52
585.23	2150.77
585.58	2145.19
585.93	2139.77
586.28	2135.09
586.63	2129.93
586.98	2124.80
587.34	2120.05
587.69	2115.13
588.04	2109.69
588.39	2104.12
588.74	2097.65
589.09	2091.59
589.44	2084.76
589.79	2078.88
590.14	2073.40
590.49	2066.85
590.84	2060.51
591.19	2054.47
591.54	2048.07
591.89	2040.64
592.25	2033.73
592.60	2026.45
592.95	2018.98
593.30	2011.64
593.65	2004.18
594.00	1997.18
594.35	1989.86
594.70	1981.85
595.05	1974.74
595.40	1967.50
595.75	1960.02
596.10	1953.83
596.45	1947.05
596.80	1940.91
597.15	1934.23
597.50	1927.06
597.85	1920.65
598.19	1913.90
598.54	1906.77
598.89	1900.12
599.24	1894.20
599.59	1887.51
599.94	1881.39
600.29	1874.95
600.64	1868.43
600.99	1860.94
601.34	1854.01
601.69	1847.13
602.04	1840.26
602.39	1832.83
602.74	1826.07
603.08	1819.24
603.43	1812.47
603.78	1805.20
604.13	1798.07
604.48	1790.75
604.83	1784.05
605.18	1776.99
605.53	1768.92
605.87	1760.93
606.22	1753.69
606.57	1745.89
606.92	1738.63
607.27	1731.35
607.62	1724.48
607.96	1717.17
608.31	1710.49
608.66	1702.91
609.01	1695.38
609.36	1687.84
609.70	1679.86
610.05	1671.75
610.40	1663.99
610.75	1655.70
611.10	1648.09
611.44	1639.63
611.79	1631.66
612.14	1622.80
612.49	1613.56
612.83	1605.27
613.18	1597.16
613.53	1589.05
613.88	1580.33
614.22	1572.08
614.57	1563.55
614.92	1555.47
615.27	1547.85
615.61	1539.37
615.96	1531.42
616.31	1523.75
616.65	1516.28
617.00	1508.73
617.35	1501.14
617.70	1492.89
618.04	1484.40
618.39	1476.18
618.74	1468.50
619.08	1460.28
619.43	1452.73
619.78	1445.90
620.12	1438.68
620.47	1431.17
620.82	1423.02
621.16	1415.73
621.51	1408.16
621.85	1400.49
622.20	1391.90
622.55	1383.51
622.89	1375.75
623.24	1368.08
623.59	1360.69
623.93	1353.20
624.28	1346.04
624.62	1338.45
624.97	1331.23
625.32	1324.47
625.66	1317.40
626.01	1310.26
626.35	1302.74
626.70	1294.91
627.04	1287.15
627.39	1279.44
627.73	1272.03
628.08	1265.12
628.43	1257.77
628.77	1250.41
629.12	1242.83
629.46	1235.77
629.81	1228.48
630.15	1221.25
630.50	1213.83
630.84	1205.59
631.19	1197.70
631.53	1190.12
631.88	1182.56
632.22	1174.96
632.57	1167.59
632.91	1159.99
633.26	1152.63
633.60	1145.35
633.95	1138.36
634.29	1131.37
634.64	1124.73
634.98	1117.32
635.32	1110.05
635.67	1103.48
636.01	1096.73
636.36	1089.93
636.70	1083.37
637.05	1076.74
637.39	1070.27
637.73	1063.74
638.08	1057.90
638.42	1051.89
638.77	1045.36
639.11	1038.71
639.45	1032.32
639.80	1025.62
640.14	1019.17
640.49	1012.58
640.83	1006.27
641.17	999.99
641.52	993.60
641.86	987.06
642.20	981.24
642.55	974.98
642.89	968.44
643.23	961.93
643.58	956.14
643.92	949.92
644.26	943.87
644.61	937.88
644.95	931.83
645.29	925.20
645.64	918.50
645.98	912.19
646.32	906.41
646.66	900.30
647.01	894.62
647.35	888.97
647.69	883.04
648.04	877.45
648.38	871.66
648.72	865.74
649.06	859.65
649.41	853.73
649.75	847.81
650.09	841.93
650.43	836.18
650.78	830.07
651.12	824.10
651.46	818.32
651.80	812.49
652.14	807.17
652.49	801.86
652.83	796.67
653.17	790.94
653.51	785.26
653.85	779.88
654.20	774.21
654.54	768.15
654.88	762.47
655.22	756.57
655.56	750.89
655.90	745.44
656.25	740.23
656.59	734.90
656.93	729.81
657.27	724.58
657.61	719.13
657.95	714.05
658.29	709.02
658.64	703.81
658.98	698.54
659.32	693.07
659.66	687.86
660.00	682.51
660.34	677.65
660.68	672.69
661.02	667.72
661.36	663.01
661.70	658.54
662.05	654.23
662.39	649.95
662.73	645.52
663.07	641.16
663.41	636.66
663.75	632.13
664.09	627.55
664.43	623.16
664.77	619.11
665.11	614.88
665.45	610.80
665.79	606.76
666.13	602.62
666.47	598.50
666.81	594.29
667.15	590.15
667.49	586.30
667.83	582.53
668.17	578.58
668.51	574.51
668.85	570.54
669.19	566.69
669.53	562.80
669.87	558.87
670.21	555.16
670.55	551.62
670.89	548.23
671.23	544.81
671.57	541.31
671.91	537.75
672.25	534.25
672.58	530.69
672.92	527.16
673.26	523.98
673.60	520.88
673.94	517.79
674.28	514.93
674.62	511.88
674.96	508.76
675.30	505.90
675.64	502.92
675.97	500.13
676.31	497.19
676.65	494.31
676.99	491.62
677.33	488.77
677.67	485.97
678.01	482.90
678.34	479.92
678.68	477.09
679.02	474.26
679.36	471.52
679.70	468.81
680.04	466.14
680.37	463.28
680.71	460.47
681.05	457.88
681.39	455.14
681.73	452.48
682.06	449.96
682.40	447.34
682.74	444.87
683.08	442.28
683.42	439.74
683.75	437.21
684.09	434.70
684.43	432.19
684.77	429.66
685.10	427.34
685.44	425.04
685.78	422.74
686.12	420.46
686.45	418.19
686.79	415.88
687.13	413.67
687.46	411.53
687.80	409.39
688.14	407.16
688.48	405.11
688.81	402.86
689.15	400.69
689.49	398.57
689.82	396.50
690.16	394.46
690.50	392.51
690.83	390.56
691.17	388.56
691.51	386.66
691.84	384.87
692.18	382.92
692.52	380.90
692.85	378.99
693.19	377.18
693.52	375.28
693.86	373.45
694.20	371.71
694.53	369.93
694.87	368.06
695.21	366.27
695.54	364.46
695.88	362.78
696.21	361.06
696.55	359.36
696.88	357.62
697.22	355.99
697.56	354.41
697.89	352.75
698.23	351.13
698.56	349.51
698.90	347.91
699.23	346.27
699.57	344.75
699.90	343.24
700.24	341.64
700.58	340.09
700.91	338.61
701.25	337.13
701.58	335.78
701.92	334.44
702.25	333.09
702.59	331.72
702.92	330.41
703.26	329.14
703.59	327.86
703.93	326.72
704.26	325.46
704.60	324.12
704.93	322.83
705.26	321.61
705.60	320.48
705.93	319.30
706.27	318.31
706.60	317.26
706.94	316.17
707.27	315.07
707.61	314.07
707.94	313.08
708.27	311.99
708.61	310.90
708.94	309.89
709.28	308.93
709.61	307.96
709.94	307.03
710.28	306.00
710.61	305.05
710.95	303.95
711.28	303.01
711.61	302.11
711.95	301.23
712.28	300.28
712.61	299.25
712.95	298.32
713.28	297.41
713.61	296.51
713.95	295.64
714.28	294.84
714.61	293.92
714.95	293.07
715.28	292.23
715.61	291.31
715.95	290.46
716.28	289.60
716.61	288.75
716.95	287.89
717.28	287.09
717.61	286.32
717.94	285.57
718.28	284.79
718.61	284.03
718.94	283.32
719.27	282.64
719.61	282.03
719.94	281.39
720.27	280.67
720.60	279.99
720.94	279.32
721.27	278.68
721.60	278.11
721.93	277.47
722.27	276.90
722.60	276.37
722.93	275.78
723.26	275.21
723.59	274.64
723.93	274.08
724.26	273.55
724.59	272.98
724.92	272.49
725.25	271.98
725.59	271.47
725.92	270.92
726.25	270.41
726.58	269.90
726.91	269.38
727.24	268.90
727.57	268.45
727.91	267.92
728.24	267.44
728.57	266.96
728.90	266.50
729.23	265.99
729.56	265.52
729.89	265.04
730.22	264.54
730.55	264.09
730.89	263.66
731.22	263.20
731.55	262.76
731.88	262.32
732.21	261.88
732.54	261.49
732.87	261.11
733.20	260.70
733.53	260.33
733.86	259.95
734.19	259.57
734.52	259.16
734.85	258.85
735.18	258.43
735.51	258.06
735.84	257.69
736.17	257.37
736.50	256.99
736.83	256.83
737.16	256.53
737.49	256.21
737.82	255.86
738.15	255.55
738.48	255.24
738.81	254.89
739.14	254.56
739.47	254.23
739.80	253.96
740.13	253.68
740.46	253.34
740.79	253.04
741.12	252.75
741.45	252.44
741.78	252.14
742.11	251.87
742.44	251.57
742.77	251.29
743.10	250.99
743.43	250.71
743.75	250.30
744.08	250.14
744.41	249.86
744.74	249.60
745.07	249.34
745.40	249.09
745.73	248.90
746.06	248.61
746.39	248.37
746.71	248.08
747.04	247.81
747.37	247.55
747.70	247.30
748.03	247.03
748.36	246.82
748.68	246.60
749.01	246.36
749.34	246.14
749.67	245.90
750.00	245.69
750.33	245.55
750.65	245.31
750.98	245.03
751.31	244.76
751.64	244.55
751.97	244.34
752.29	244.12
752.62	243.85
752.95	243.65
753.28	243.43
753.60	243.20
753.93	243.02
754.26	242.84
754.59	242.60
754.91	242.41
755.24	242.22
755.57	242.00
755.90	241.79
756.22	241.56
756.55	241.38
756.88	241.14
757.20	240.90
757.53	240.73
757.86	240.51
758.19	240.40
758.51	240.21
758.84	240.04
759.17	239.84
759.49	239.67
759.82	239.54
760.15	239.36
760.47	239.23
760.80	239.02
761.13	238.86
761.45	238.69
761.78	238.55
762.11	238.39
762.43	238.22
762.76	238.09
763.08	237.98
763.41	237.87
763.74	237.74
764.06	237.56
764.39	237.43
764.71	237.29
765.04	237.12
765.37	236.97
765.69	236.86
766.02	236.76
766.34	236.64
766.67	236.50
767.00	236.40
767.32	236.34
767.65	236.31
767.97	236.17
768.30	236.07
768.62	235.96
768.95	235.83
769.27	235.75
769.60	235.64
769.92	235.49
770.25	235.32
770.57	235.20
770.90	235.12
771.22	234.96
771.55	234.83
771.87	234.73
772.20	234.62
772.52	234.57
772.85	234.58
773.17	234.48
773.50	234.37
773.82	234.28
774.15	234.10
774.47	233.97
774.80	233.92
775.12	233.86
775.45	233.74
775.77	233.68
776.09	233.59
776.42	233.53
776.74	233.49
777.07	233.45
777.39	233.41
777.72	233.32
778.04	233.30
778.36	233.26
778.69	233.18
779.01	233.15
779.33	232.99
779.66	232.82
779.98	232.76
780.31	232.74
780.63	232.69
780.95	232.65
781.28	232.59
781.60	232.50
781.92	232.43
782.25	232.39
782.57	232.34
782.89	232.30
783.22	232.24
783.54	232.20
783.86	232.14
784.19	232.06
784.51	232.04
784.83	231.98
785.16	231.93
785.48	231.93
785.80	231.86
786.12	231.84
786.45	231.77
786.77	231.75
787.09	231.67
787.42	231.63
787.74	231.61
788.06	231.58
788.38	231.56
788.71	231.52
789.03	231.48
789.35	231.45
789.67	231.39
789.99	231.36
790.32	231.31
790.64	231.30
790.96	231.35
791.28	231.29
791.61	231.24
791.93	231.20
792.25	231.16
792.57	231.22
792.89	231.18
793.21	231.18
793.54	231.10
793.86	231.05
794.18	231.03
794.50	230.95
794.82	230.90
795.14	230.89
795.47	230.85
795.79	230.81
796.11	230.74
796.43	230.68
796.75	230.62
797.07	230.56
797.39	230.54
797.71	230.43
798.04	230.41
798.36	230.40
798.68	230.33
799.00	230.29
799.32	230.21
799.64	230.20
799.96	230.17
800.28	230.17
800.60	230.16
800.92	230.09
801.24	230.07
801.56	230.03
801.89	229.95
802.21	229.91
802.53	229.87
802.85	229.87
803.17	229.85
803.49	229.81
803.81	229.79
804.13	229.71
804.45	229.68
804.77	229.64
805.09	229.56
805.41	229.58
805.73	229.51
806.05	229.42
806.37	229.36
806.69	229.32
807.01	229.29
807.33	229.27
807.65	229.23
807.97	229.26
808.28	229.26
808.60	229.26
808.92	229.23
809.24	229.26
809.56	229.21
809.88	229.18
810.20	229.19
810.52	229.17
810.84	229.15
811.16	229.10
811.48	229.07
811.80	229.10
812.12	229.07
812.43	229.09
812.75	229.15
813.07	229.14
813.39	229.12
813.71	229.07
814.03	229.02
814.35	229.01
814.67	228.97
814.98	228.91
815.30	228.90
815.62	228.89
815.94	228.81
816.26	228.84
816.58	228.80
816.89	228.79
817.21	228.77
817.53	228.76
817.85	228.74
818.17	228.72
818.48	228.67
818.80	228.64
819.12	228.60
819.44	228.54
819.76	228.48
820.07	228.47
820.39	228.45
820.71	228.43
821.03	228.41
821.34	228.36
821.66	228.40
821.98	228.36
822.30	228.34
822.61	228.41
822.93	228.34
823.25	228.33
823.57	228.29
823.88	228.30
824.20	228.25
824.52	228.29
824.83	228.27
825.15	228.24
825.47	228.25
825.79	228.27
826.10	228.28
826.42	228.29
826.74	228.28
827.05	228.28
827.37	228.29
827.69	228.31
828.00	228.33
828.32	228.26
828.64	228.24
828.95	228.26
829.27	228.21
829.58	228.19
829.90	228.19
830.22	228.18
830.53	228.13
830.85	228.12
831.17	228.04
831.48	228.07
831.80	228.09
832.11	228.05
832.43	228.02
832.75	228.01
833.06	228.05
833.38	228.04
833.69	228.05
834.01	228.04
834.32	227.98
834.64	227.96
834.96	227.96
835.27	227.96
835.59	227.94
835.90	227.91
836.22	227.91
836.53	227.90
836.85	227.90
837.16	228.00
837.48	227.99
837.79	228.04
838.11	228.02
838.42	227.98
838.74	228.01
839.05	227.98
839.37	227.95
839.68	227.87
840.00	227.84
840.31	227.84
840.63	227.80
840.94	227.79
841.26	227.77
841.57	227.78
841.88	227.77
842.20	227.76
842.51	227.74
842.83	227.73
843.14	227.82
843.46	227.82
843.77	227.75
844.08	227.76
844.40	227.71
844.71	227.69
845.03	227.66
845.34	227.63
845.65	227.62
845.97	227.62
846.28	227.60
846.60	227.60
846.91	227.59
847.22	227.59
847.54	227.58
847.85	227.55
848.16	227.50
848.48	227.51
848.79	227.54
849.10	227.56
849.42	227.55
849.73	227.43
850.04	227.44
850.36	227.41
850.67	227.41
850.98	227.42
851.30	227.40
851.61	227.44
851.92	227.43
852.23	227.49
852.55	227.48
852.86	227.49
853.17	227.49
853.49	227.48
853.80	227.51
854.11	227.56
854.42	227.58
854.74	227.58
855.05	227.54
855.36	227.50
855.67	227.49
855.99	227.52
856.30	227.65
856.61	227.61
856.92	227.61
857.23	227.59
857.55	227.60
857.86	227.62
858.17	227.63
858.48	227.62
858.79	227.59
859.11	227.61
859.42	227.59
859.73	227.60
860.04	227.59
860.35	227.57
860.66	227.54
860.98	227.54
861.29	227.56
861.60	227.56
861.91	227.59
862.22	227.59
862.53	227.55
862.84	227.45
863.16	227.49
863.47	227.48
863.78	227.45
864.09	227.43
864.40	227.44
864.71	227.45
865.02	227.46
865.33	227.43
865.64	227.42
865.95	227.44
866.27	227.52
866.58	227.52
866.89	227.52
867.20	227.48
867.51	227.44
867.82	227.43
868.13	227.47
868.44	227.44
868.75	227.44
869.06	227.43
869.37	227.42
869.68	227.36
869.99	227.37
870.30	227.41
870.61	227.42
870.92	227.39
871.23	227.37
871.54	227.38
871.85	227.41
872.16	227.37
872.47	227.34
872.78	227.28
873.09	227.31
873.40	227.29
873.71	227.33
874.02	227.37
874.33	227.36
874.64	227.33
874.95	227.32
875.26	227.32
875.56	227.30
875.87	227.28
876.18	227.28
876.49	227.38
876.80	227.36
877.11	227.32
877.42	227.33
877.73	227.32
878.04	227.32
878.35	227.30
878.66	227.32
878.96	227.32
879.27	227.29
879.58	227.21
879.89	227.21
880.20	227.21
880.51	227.17
880.82	227.17
881.12	227.14
881.43	227.13
881.74	227.06
882.05	227.03
882.36	227.04
882.67	227.06
882.97	226.96
883.28	226.94
883.59	226.92
883.90	226.91
884.21	226.91
884.51	226.87
884.82	226.86
885.13	226.82
885.44	226.83
885.74	226.83
886.05	226.85
886.36	226.85
886.67	226.82
886.98	226.89
887.28	226.91
887.59	226.91
887.90	226.92
888.20	226.94
888.51	226.97
888.82	226.98
889.13	226.95
889.43	227.02
889.74	226.99
890.05	227.02
890.35	227.01
890.66	226.99
890.97	226.97
891.28	226.95
891.58	226.95
891.89	226.91
892.20	226.92
892.50	226.92
892.81	226.90
893.12	226.90
893.42	226.82
893.73	226.82
894.04	226.82
894.34	226.81
894.65	226.82
894.95	226.79
895.26	226.78
895.57	226.84
895.87	226.75
896.18	226.80
896.48	226.81
896.79	226.79
897.10	226.81
897.40	226.81
897.71	226.85
898.01	226.87
898.32	226.91
898.63	226.91
898.93	226.90
899.24	226.91
899.54	226.90
899.85	226.91
900.15	226.87
900.46	226.87
900.76	226.84
901.07	226.84
901.38	226.86
901.68	226.87
901.99	226.80
902.29	226.81
902.60	226.77
902.90	226.76
903.21	226.78
903.51	226.81
903.82	226.83
904.12	226.83
904.43	226.81
904.73	226.79
905.03	226.77
905.34	226.91
905.64	226.88
905.95	226.89
906.25	226.93
906.56	226.96
906.86	226.95
907.17	226.97
907.47	227.00
907.77	226.97
908.08	226.95
908.38	226.97
908.69	226.99
908.99	227.04
909.30	227.03
909.60	227.03
909.90	227.00
910.21	226.97
910.51	226.95
910.81	226.99
911.12	227.03
911.42	227.00
911.73	226.90
912.03	226.93
912.33	226.92
912.64	226.88
912.94	226.89
913.24	226.89
913.55	226.91
913.85	226.93
914.15	226.97
914.46	226.99
914.76	227.04
915.06	227.02
915.37	226.97
915.67	226.98
915.97	226.99
916.27	226.98
916.58	227.01
916.88	227.01
917.18	226.98
917.49	227.02
917.79	227.03
918.09	227.02
918.39	227.03
918.70	227.03
919.00	227.04
919.30	227.06
919.60	227.05
919.91	227.02
920.21	227.01
920.51	226.97
920.81	226.94
921.12	226.91
921.42	226.88
921.72	226.91
922.02	226.91
922.32	226.91
922.63	226.92
922.93	226.95
923.23	226.92
923.53	226.91
923.83	226.85
924.13	226.87
924.44	226.87
924.74	226.87
925.04	226.90
925.34	226.90
925.64	226.85
925.94	226.86
926.24	226.91
926.55	226.90
926.85	226.91
927.15	226.90
927.45	226.89
927.75	226.90
928.05	226.90
928.35	226.88
928.65	226.90
928.95	226.93
929.26	226.88
929.56	226.90
929.86	226.90
930.16	226.90
930.46	226.87
930.76	226.85
931.06	226.81
931.36	226.76
931.66	226.81
931.96	226.80
932.26	226.79
932.56	226.75
932.86	226.76
933.16	226.74
933.46	226.75
933.76	226.71
934.06	226.74
934.36	226.76
934.66	226.78
934.96	226.76
935.26	226.73
935.56	226.75
935.86	226.75
936.16	226.74
936.46	226.72
936.76	226.75
937.06	226.74
937.36	226.75
937.66	226.76
937.96	226.71
938.26	226.72
938.56	226.71
938.86	226.73
939.16	226.78
939.46	226.80
939.76	226.85
940.06	226.85
940.35	226.82
940.65	226.77
940.95	226.78
941.25	226.75
941.55	226.73
941.85	226.74
942.15	226.78
942.45	226.84
942.75	226.82
943.04	226.84
943.34	226.87
943.64	226.85
943.94	226.85
944.24	226.88
944.54	226.87
944.84	226.87
945.13	226.85
945.43	226.80
945.73	226.79
946.03	226.74
946.33	226.72
946.62	226.72
946.92	226.73
947.22	226.75
947.52	226.75
947.82	226.78
948.11	226.75
948.41	226.69
948.71	226.64
949.01	226.67
949.31	226.63
949.60	226.62
949.90	226.65
950.20	226.64
950.50	226.58
950.79	226.58
951.09	226.58
951.39	226.58
951.69	226.57
951.98	226.61
952.28	226.64
952.58	226.68
952.87	226.69
953.17	226.69
953.47	226.64
953.76	226.67
954.06	226.66
954.36	226.65
954.66	226.65
954.95	226.70
955.25	226.68
955.55	226.71
955.84	226.69
956.14	226.69
956.44	226.71
956.73	226.72
957.03	226.77
957.32	226.76
957.62	226.76
957.92	226.77
958.21	226.75
958.51	226.83
958.81	226.86
959.10	226.84
959.40	226.88
959.69	226.89
959.99	226.90
960.29	226.88
960.58	226.88
960.88	226.94
961.17	226.91
961.47	226.92
961.76	226.88
962.06	226.88
962.36	226.86
962.65	226.85
962.95	226.87
963.24	226.84
963.54	226.84
963.83	226.84
964.13	226.84
964.42	226.82
964.72	226.72
965.01	226.69
965.31	226.70
965.60	226.68
965.90	226.75
966.19	226.70
966.49	226.71
966.78	226.71
967.08	226.69
967.37	226.71
967.67	226.70
967.96	226.75
968.26	226.77
968.55	226.83
968.85	226.82
969.14	226.81
969.43	226.84
969.73	226.84
970.02	226.84
970.32	226.83
970.61	226.85
970.91	226.85
971.20	226.83
971.49	226.82
971.79	226.82
972.08	226.74
972.38	226.75
972.67	226.73
972.96	226.74
973.26	226.74
973.55	226.75
973.85	226.76
974.14	226.75
974.43	226.78
974.73	226.75
975.02	226.77
975.31	226.78
975.61	226.78
975.90	226.80
976.19	226.83
976.49	226.84
976.78	226.81
977.07	226.81
977.37	226.83
977.66	226.86
977.95	226.85
978.24	226.92
978.54	226.96
978.83	226.97
979.12	226.98
979.42	226.97
979.71	226.98
980.00	226.96
980.29	226.97
980.59	226.94
980.88	226.96
981.17	226.95
981.46	226.93
981.76	226.94
982.05	226.96
982.34	226.95
982.63	226.95
982.93	226.99
983.22	227.03
983.51	227.02
983.80	227.00
984.09	227.00
984.39	226.98
984.68	226.96
984.97	226.95
985.26	226.95
985.55	226.97
985.85	226.93
986.14	226.95
986.43	226.93
986.72	226.92
987.01	226.89
987.30	226.89
987.59	226.86
987.89	226.87
988.18	226.80
988.47	226.80
988.76	226.76
989.05	226.71
989.34	226.67
989.63	226.72
989.92	226.70
990.22	226.70
990.51	226.62
990.80	226.60
991.09	226.57
991.38	226.57
991.67	226.56
991.96	226.55
992.25	226.56
992.54	226.54
992.83	226.56
993.12	226.54
993.41	226.53
993.70	226.59
993.99	226.59
994.28	226.62
994.58	226.63
994.87	226.62
995.16	226.65
995.45	226.66
995.74	226.60
996.03	226.62
996.32	226.59
996.61	226.64
996.90	226.64
997.19	226.67
997.48	226.65
997.77	226.63
998.06	226.64
998.34	226.62
998.63	226.60
998.92	226.59
999.21	226.58
999.50	226.61
999.79	226.57
1000.08	226.55
1000.37	226.54
1000.66	226.53
1000.95	226.55
1001.24	226.58
1001.53	226.58
1001.82	226.59
1002.11	226.56
1002.40	226.61
1002.68	226.62
1002.97	226.72
1003.26	226.73
1003.55	226.75
1003.84	226.75
1004.13	226.79
1004.42	226.77
1004.71	226.79
1004.99	226.81
1005.28	226.85
1005.57	226.80
1005.86	226.79
1006.15	226.80
1006.44	226.78
1006.72	226.78
1007.01	226.79
1007.30	226.73
1007.59	226.74
1007.88	226.74
1008.17	226.76
1008.45	226.75
1008.74	226.74
1009.03	226.66
1009.32	226.66
1009.60	226.63
1009.89	226.65
1010.18	226.60
1010.47	226.60
1010.76	226.60
1011.04	226.61
1011.33	226.62
1011.62	226.66
1011.91	226.67
1012.19	226.66
1012.48	226.68
1012.77	226.69
1013.05	226.72
1013.34	226.76
1013.63	226.78
1013.92	226.78
1014.20	226.77
1014.49	226.76
1014.78	226.76
1015.06	226.73
1015.35	226.73
1015.64	226.76
1015.92	226.78
1016.21	226.77
1016.50	226.80
1016.78	226.80
1017.07	226.78
1017.36	226.75
1017.64	226.71
1017.93	226.71
1018.22	226.73
1018.50	226.72
1018.79	226.70
1019.08	226.67
1019.36	226.65
1019.65	226.63
1019.93	226.66
1020.22	226.69
1020.51	226.72
1020.79	226.70
1021.08	226.78
1021.36	226.15
1021.65	226.67
1021.94	227.01
1022.22	226.80
1022.51	226.50
1022.79	227.35
1023.08	226.89
1023.36	227.26
1023.65	226.21
>>>>>End Processed Spectral Data<<<<<
