SpectraSuite Data File
++++++++++++++++++++++++++++++++++++
Date: Fri Feb 01 15:08:07 EST 2013
User: group
Dark Spectrum Present: No
Reference Spectrum Present: No
Number of Sampled Component Spectra: 1
Spectrometers: USB2E7196
Integration Time (usec): 35000 (USB2E7196)
Spectra Averaged: 100 (USB2E7196)
Boxcar Smoothing: 10 (USB2E7196)
Correct for Electrical Dark: No (USB2E7196)
Strobe/Lamp Enabled: No (USB2E7196)
Correct for Detector Non-linearity: No (USB2E7196)
Correct for Stray Light: No (USB2E7196)
Number of Pixels in Processed Spectrum: 2048
>>>>>Begin Processed Spectral Data<<<<<
339.09	0.00
339.48	215.27
339.86	216.88
340.24	218.76
340.63	219.98
341.01	222.88
341.39	222.39
341.78	224.24
342.16	224.75
342.54	225.33
342.93	213.70
343.31	224.49
343.69	225.02
344.07	225.49
344.46	225.90
344.84	226.27
345.22	226.49
345.60	226.73
345.99	226.88
346.37	227.00
346.75	227.08
347.13	227.14
347.52	227.17
347.90	227.26
348.28	227.28
348.66	227.32
349.05	227.30
349.43	227.33
349.81	227.38
350.19	227.44
350.57	227.48
350.96	227.59
351.34	227.66
351.72	227.76
352.10	227.83
352.48	227.86
352.87	227.90
353.25	227.98
353.63	228.04
354.01	228.10
354.39	228.15
354.77	228.25
355.15	228.33
355.54	228.38
355.92	228.38
356.30	228.45
356.68	228.62
357.06	228.68
357.44	228.72
357.82	228.75
358.20	228.83
358.58	228.86
358.97	228.91
359.35	229.02
359.73	229.10
360.11	229.13
360.49	229.21
360.87	229.21
361.25	229.26
361.63	229.32
362.01	229.38
362.39	229.40
362.77	229.45
363.15	229.46
363.53	229.51
363.91	229.56
364.29	229.57
364.67	229.50
365.05	229.55
365.43	229.59
365.81	229.62
366.19	229.63
366.57	229.69
366.95	229.68
367.33	229.60
367.71	229.53
368.09	229.54
368.47	229.50
368.85	229.50
369.23	229.50
369.61	229.41
369.99	229.41
370.37	229.38
370.75	229.35
371.13	229.32
371.51	229.25
371.89	229.16
372.27	229.13
372.65	229.05
373.03	228.96
373.41	228.86
373.78	228.81
374.16	228.69
374.54	228.60
374.92	228.50
375.30	228.43
375.68	228.36
376.06	228.27
376.44	228.22
376.82	228.16
377.19	228.04
377.57	227.98
377.95	227.84
378.33	227.77
378.71	227.64
379.09	227.58
379.47	227.50
379.84	227.42
380.22	227.29
380.60	227.20
380.98	227.12
381.36	227.04
381.73	226.93
382.11	226.91
382.49	226.86
382.87	226.80
383.25	226.78
383.62	226.85
384.00	226.77
384.38	226.70
384.76	226.67
385.13	226.68
385.51	226.62
385.89	226.58
386.27	226.54
386.64	226.52
387.02	226.44
387.40	226.43
387.78	226.44
388.15	226.45
388.53	226.42
388.91	226.38
389.29	226.35
389.66	226.34
390.04	226.28
390.42	226.28
390.79	226.29
391.17	226.23
391.55	226.12
391.92	226.10
392.30	226.11
392.68	226.07
393.05	226.05
393.43	226.09
393.81	226.10
394.18	226.07
394.56	226.12
394.94	226.20
395.31	226.21
395.69	226.27
396.06	226.30
396.44	226.35
396.82	226.42
397.19	226.55
397.57	226.59
397.95	226.63
398.32	226.65
398.70	226.69
399.07	226.80
399.45	226.86
399.82	226.95
400.20	227.04
400.58	227.14
400.95	227.19
401.33	227.31
401.70	227.46
402.08	227.62
402.45	227.72
402.83	227.85
403.20	227.97
403.58	228.06
403.95	228.21
404.33	228.33
404.71	228.46
405.08	228.65
405.46	228.81
405.83	229.02
406.21	229.19
406.58	229.38
406.96	229.57
407.33	229.77
407.70	229.97
408.08	230.24
408.45	230.45
408.83	230.69
409.20	230.90
409.58	231.10
409.95	231.33
410.33	231.60
410.70	231.81
411.08	232.12
411.45	232.41
411.82	232.73
412.20	233.07
412.57	233.50
412.95	233.77
413.32	234.21
413.69	234.63
414.07	235.04
414.44	235.51
414.82	236.01
415.19	236.56
415.56	237.14
415.94	237.69
416.31	238.34
416.68	238.96
417.06	239.65
417.43	240.34
417.81	241.11
418.18	241.89
418.55	242.74
418.93	243.64
419.30	244.55
419.67	245.44
420.04	246.43
420.42	247.41
420.79	248.61
421.16	249.69
421.54	250.89
421.91	252.12
422.28	253.37
422.66	254.70
423.03	256.03
423.40	257.32
423.77	258.71
424.15	260.13
424.52	261.63
424.89	263.24
425.26	264.81
425.64	266.27
426.01	267.84
426.38	269.51
426.75	271.16
427.13	272.90
427.50	274.78
427.87	276.65
428.24	278.53
428.61	280.28
428.99	282.27
429.36	284.37
429.73	286.44
430.10	288.46
430.47	290.51
430.85	292.61
431.22	294.95
431.59	297.33
431.96	299.58
432.33	302.08
432.70	304.48
433.08	307.27
433.45	309.91
433.82	312.55
434.19	315.51
434.56	318.31
434.93	320.96
435.30	323.56
435.68	326.48
436.05	329.26
436.42	332.04
436.79	334.59
437.16	337.28
437.53	340.14
437.90	342.96
438.27	345.73
438.64	348.56
439.01	351.11
439.38	353.37
439.75	355.55
440.13	358.07
440.50	360.35
440.87	362.22
441.24	364.20
441.61	366.36
441.98	367.78
442.35	369.59
442.72	371.48
443.09	373.29
443.46	374.28
443.83	374.95
444.20	375.47
444.57	376.25
444.94	376.52
445.31	376.87
445.68	377.24
446.05	377.29
446.42	376.92
446.79	376.51
447.16	376.10
447.53	375.82
447.90	374.66
448.27	373.56
448.64	371.95
449.01	370.83
449.37	368.84
449.74	366.98
450.11	364.75
450.48	362.28
450.85	359.75
451.22	357.58
451.59	355.51
451.96	353.57
452.33	350.98
452.70	348.66
453.07	345.82
453.43	342.90
453.80	340.12
454.17	337.45
454.54	334.89
454.91	332.16
455.28	329.46
455.65	326.99
456.02	324.53
456.38	322.38
456.75	319.66
457.12	317.42
457.49	315.20
457.86	313.02
458.23	311.11
458.59	309.06
458.96	306.95
459.33	305.13
459.70	303.26
460.07	301.75
460.43	300.01
460.80	298.36
461.17	296.93
461.54	295.43
461.91	293.97
462.27	292.53
462.64	291.27
463.01	289.89
463.38	288.55
463.74	287.16
464.11	285.99
464.48	285.00
464.85	283.89
465.21	282.95
465.58	282.01
465.95	280.90
466.32	279.97
466.68	279.08
467.05	278.14
467.42	277.21
467.78	276.30
468.15	275.43
468.52	274.76
468.88	273.89
469.25	273.11
469.62	272.49
469.98	271.79
470.35	271.14
470.72	270.52
471.08	269.88
471.45	269.33
471.82	268.78
472.18	268.13
472.55	267.66
472.92	267.19
473.28	266.70
473.65	266.22
474.02	265.77
474.38	265.39
474.75	265.04
475.11	264.71
475.48	264.41
475.85	264.10
476.21	263.86
476.58	263.64
476.94	263.46
477.31	263.28
477.67	263.10
478.04	262.94
478.41	262.87
478.77	262.89
479.14	262.83
479.50	262.83
479.87	262.91
480.23	262.97
480.60	262.99
480.96	263.10
481.33	263.29
481.69	263.45
482.06	263.65
482.42	263.86
482.79	264.14
483.15	264.49
483.52	264.90
483.88	265.23
484.25	265.63
484.61	266.05
484.98	266.49
485.34	267.06
485.71	267.66
486.07	268.30
486.44	268.86
486.80	269.55
487.17	270.29
487.53	271.08
487.90	271.95
488.26	272.90
488.62	273.87
488.99	274.87
489.35	275.95
489.72	277.08
490.08	278.33
490.44	279.51
490.81	280.76
491.17	282.10
491.54	283.62
491.90	285.14
492.26	286.75
492.63	288.50
492.99	290.27
493.36	292.14
493.72	294.17
494.08	296.27
494.45	298.53
494.81	300.87
495.17	303.30
495.54	305.86
495.90	308.49
496.26	311.27
496.63	314.25
496.99	317.32
497.35	320.56
497.72	323.96
498.08	327.51
498.44	331.23
498.80	335.12
499.17	339.10
499.53	343.24
499.89	347.66
500.26	352.10
500.62	356.79
500.98	361.77
501.34	366.81
501.71	372.10
502.07	377.53
502.43	383.16
502.79	388.94
503.16	394.97
503.52	401.30
503.88	407.74
504.24	414.31
504.60	421.23
504.97	428.32
505.33	435.68
505.69	443.36
506.05	451.08
506.41	459.03
506.78	467.18
507.14	475.66
507.50	484.38
507.86	493.43
508.22	502.58
508.59	511.81
508.95	521.35
509.31	531.17
509.67	541.26
510.03	551.49
510.39	562.07
510.75	572.91
511.12	583.77
511.48	595.06
511.84	606.56
512.20	618.07
512.56	630.05
512.92	642.23
513.28	654.60
513.64	667.13
514.00	679.81
514.37	692.76
514.73	705.78
515.09	718.79
515.45	732.10
515.81	745.69
516.17	759.61
516.53	773.79
516.89	787.91
517.25	802.12
517.61	816.55
517.97	830.95
518.33	845.35
518.69	860.16
519.05	875.10
519.41	890.28
519.77	905.89
520.13	921.40
520.49	936.76
520.85	952.20
521.21	967.96
521.57	984.22
521.93	1000.06
522.29	1016.51
522.65	1032.81
523.01	1049.12
523.37	1065.26
523.73	1081.50
524.09	1097.70
524.45	1114.07
524.81	1130.66
525.17	1147.70
525.53	1164.76
525.89	1181.74
526.25	1198.53
526.61	1214.98
526.97	1231.73
527.33	1248.20
527.68	1264.78
528.04	1281.30
528.40	1298.00
528.76	1315.05
529.12	1331.72
529.48	1348.57
529.84	1364.67
530.20	1381.38
530.56	1398.39
530.91	1415.70
531.27	1432.57
531.63	1449.06
531.99	1465.83
532.35	1482.01
532.71	1497.83
533.07	1514.16
533.42	1530.03
533.78	1546.23
534.14	1562.57
534.50	1577.99
534.86	1594.05
535.21	1609.33
535.57	1625.34
535.93	1640.94
536.29	1655.93
536.65	1671.09
537.00	1686.11
537.36	1701.56
537.72	1716.24
538.08	1730.83
538.44	1744.77
538.79	1758.76
539.15	1772.52
539.51	1786.28
539.87	1800.59
540.22	1814.53
540.58	1828.39
540.94	1842.07
541.29	1855.13
541.65	1868.02
542.01	1881.51
542.37	1893.79
542.72	1906.33
543.08	1918.19
543.44	1930.68
543.79	1941.93
544.15	1953.02
544.51	1964.62
544.87	1975.70
545.22	1986.57
545.58	1996.78
545.94	2006.60
546.29	2016.48
546.65	2026.30
547.01	2035.64
547.36	2044.48
547.72	2052.83
548.07	2060.79
548.43	2068.82
548.79	2076.89
549.14	2084.36
549.50	2091.74
549.86	2099.53
550.21	2107.02
550.57	2114.27
550.92	2120.75
551.28	2127.82
551.64	2134.99
551.99	2141.47
552.35	2147.45
552.70	2153.58
553.06	2159.49
553.41	2165.84
553.77	2171.86
554.13	2178.16
554.48	2184.17
554.84	2189.57
555.19	2195.00
555.55	2200.00
555.90	2204.52
556.26	2209.28
556.61	2214.10
556.97	2218.08
557.32	2222.20
557.68	2226.07
558.03	2230.27
558.39	2234.11
558.74	2238.80
559.10	2242.47
559.45	2246.04
559.81	2250.49
560.16	2254.14
560.52	2257.37
560.87	2260.85
561.23	2263.51
561.58	2266.32
561.94	2268.92
562.29	2271.27
562.64	2273.75
563.00	2276.30
563.35	2279.74
563.71	2282.85
564.06	2286.00
564.42	2288.92
564.77	2291.28
565.12	2293.55
565.48	2295.41
565.83	2297.05
566.19	2298.17
566.54	2299.15
566.89	2300.32
567.25	2300.69
567.60	2302.05
567.96	2303.72
568.31	2304.56
568.66	2305.49
569.02	2305.83
569.37	2306.00
569.72	2306.77
570.08	2306.84
570.43	2306.77
570.78	2305.97
571.14	2304.38
571.49	2302.93
571.84	2302.50
572.20	2301.24
572.55	2300.08
572.90	2298.42
573.26	2296.75
573.61	2295.07
573.96	2293.15
574.31	2289.92
574.67	2286.80
575.02	2283.09
575.37	2279.54
575.72	2275.43
576.08	2272.06
576.43	2268.68
576.78	2264.86
577.13	2261.51
577.49	2258.36
577.84	2254.76
578.19	2250.96
578.54	2247.07
578.90	2242.59
579.25	2236.93
579.60	2231.81
579.95	2226.63
580.30	2221.42
580.66	2216.34
581.01	2211.15
581.36	2205.93
581.71	2201.66
582.06	2197.11
582.42	2192.46
582.77	2187.07
583.12	2182.40
583.47	2177.50
583.82	2172.38
584.17	2167.03
584.53	2161.47
584.88	2155.67
585.23	2149.82
585.58	2144.26
585.93	2138.94
586.28	2134.21
586.63	2129.02
586.98	2123.92
587.34	2119.18
587.69	2114.25
588.04	2108.86
588.39	2103.11
588.74	2096.68
589.09	2090.42
589.44	2083.54
589.79	2077.56
590.14	2071.85
590.49	2065.22
590.84	2058.83
591.19	2052.72
591.54	2046.15
591.89	2038.58
592.25	2031.59
592.60	2024.19
592.95	2016.56
593.30	2008.99
593.65	2001.21
594.00	1994.07
594.35	1986.74
594.70	1978.59
595.05	1971.28
595.40	1964.03
595.75	1956.46
596.10	1950.03
596.45	1943.30
596.80	1937.01
597.15	1930.14
597.50	1922.87
597.85	1916.41
598.19	1909.50
598.54	1902.38
598.89	1895.64
599.24	1889.76
599.59	1882.99
599.94	1876.84
600.29	1870.49
600.64	1863.91
600.99	1856.40
601.34	1849.44
601.69	1842.53
602.04	1835.56
602.39	1828.08
602.74	1821.09
603.08	1814.35
603.43	1807.64
603.78	1800.29
604.13	1793.04
604.48	1785.75
604.83	1778.93
605.18	1771.82
605.53	1763.78
605.87	1755.54
606.22	1748.34
606.57	1740.38
606.92	1733.20
607.27	1725.83
607.62	1718.87
607.96	1711.53
608.31	1704.86
608.66	1697.35
609.01	1689.67
609.36	1682.03
609.70	1674.06
610.05	1665.86
610.40	1658.05
610.75	1649.74
611.10	1642.05
611.44	1633.72
611.79	1625.71
612.14	1617.04
612.49	1607.99
612.83	1599.81
613.18	1591.93
613.53	1583.87
613.88	1575.37
614.22	1567.13
614.57	1558.68
614.92	1550.61
615.27	1542.98
615.61	1534.68
615.96	1526.69
616.31	1519.19
616.65	1511.95
617.00	1504.42
617.35	1496.85
617.70	1488.48
618.04	1479.95
618.39	1471.67
618.74	1464.05
619.08	1455.80
619.43	1448.30
619.78	1441.31
620.12	1434.02
620.47	1426.43
620.82	1418.42
621.16	1411.09
621.51	1403.53
621.85	1396.00
622.20	1387.53
622.55	1379.24
622.89	1371.44
623.24	1363.84
623.59	1356.49
623.93	1348.98
624.28	1341.81
624.62	1334.26
624.97	1327.18
625.32	1320.58
625.66	1313.62
626.01	1306.44
626.35	1298.99
626.70	1291.14
627.04	1283.44
627.39	1275.77
627.73	1268.46
628.08	1261.38
628.43	1254.00
628.77	1246.47
629.12	1238.87
629.46	1231.73
629.81	1224.43
630.15	1217.25
630.50	1209.78
630.84	1201.63
631.19	1193.76
631.53	1186.31
631.88	1178.88
632.22	1171.33
632.57	1163.95
632.91	1156.42
633.26	1149.03
633.60	1141.73
633.95	1134.77
634.29	1127.87
634.64	1121.27
634.98	1113.84
635.32	1106.70
635.67	1100.21
636.01	1093.70
636.36	1086.86
636.70	1080.31
637.05	1073.73
637.39	1067.31
637.73	1060.91
638.08	1055.04
638.42	1049.07
638.77	1042.58
639.11	1035.93
639.45	1029.61
639.80	1022.97
640.14	1016.59
640.49	1010.01
640.83	1003.71
641.17	997.52
641.52	991.09
641.86	984.67
642.20	978.84
642.55	972.70
642.89	966.25
643.23	959.74
643.58	954.00
643.92	947.83
644.26	941.66
644.61	935.65
644.95	929.61
645.29	922.91
645.64	916.24
645.98	909.93
646.32	904.24
646.66	898.18
647.01	892.38
647.35	886.71
647.69	881.05
648.04	875.64
648.38	869.87
648.72	863.86
649.06	857.81
649.41	851.97
649.75	845.92
650.09	839.92
650.43	834.23
650.78	828.10
651.12	822.14
651.46	816.45
651.80	810.68
652.14	805.24
652.49	799.94
652.83	794.71
653.17	789.06
653.51	783.20
653.85	777.93
654.20	772.25
654.54	766.27
654.88	760.52
655.22	754.58
655.56	748.93
655.90	743.56
656.25	738.28
656.59	732.98
656.93	727.93
657.27	722.81
657.61	717.31
657.95	712.26
658.29	707.19
658.64	702.00
658.98	696.79
659.32	691.35
659.66	686.14
660.00	680.85
660.34	675.90
660.68	671.07
661.02	665.96
661.36	661.32
661.70	656.86
662.05	652.49
662.39	648.16
662.73	643.74
663.07	639.41
663.41	635.02
663.75	630.52
664.09	625.99
664.43	621.62
664.77	617.49
665.11	613.26
665.45	609.19
665.79	605.16
666.13	601.01
666.47	596.96
666.81	592.83
667.15	588.75
667.49	584.92
667.83	581.14
668.17	577.23
668.51	573.23
668.85	569.22
669.19	565.41
669.53	561.57
669.87	557.65
670.21	553.95
670.55	550.32
670.89	546.94
671.23	543.57
671.57	540.06
671.91	536.53
672.25	533.08
672.58	529.62
672.92	526.25
673.26	523.11
673.60	520.02
673.94	516.96
674.28	514.09
674.62	511.09
674.96	507.97
675.30	505.08
675.64	502.14
675.97	499.40
676.31	496.45
676.65	493.57
676.99	490.92
677.33	488.09
677.67	485.23
678.01	482.19
678.34	479.19
678.68	476.37
679.02	473.60
679.36	470.82
679.70	468.16
680.04	465.36
680.37	462.49
680.71	459.72
681.05	457.08
681.39	454.34
681.73	451.73
682.06	449.21
682.40	446.69
682.74	444.19
683.08	441.70
683.42	439.19
683.75	436.68
684.09	434.10
684.43	431.62
684.77	429.20
685.10	426.88
685.44	424.59
685.78	422.32
686.12	420.11
686.45	417.85
686.79	415.48
687.13	413.33
687.46	411.19
687.80	409.04
688.14	406.87
688.48	404.82
688.81	402.62
689.15	400.54
689.49	398.34
689.82	396.26
690.16	394.14
690.50	392.17
690.83	390.23
691.17	388.26
691.51	386.38
691.84	384.54
692.18	382.61
692.52	380.63
692.85	378.71
693.19	376.76
693.52	374.94
693.86	373.14
694.20	371.37
694.53	369.59
694.87	367.76
695.21	365.96
695.54	364.11
695.88	362.35
696.21	360.62
696.55	358.99
696.88	357.27
697.22	355.63
697.56	354.08
697.89	352.45
698.23	350.89
698.56	349.27
698.90	347.70
699.23	346.03
699.57	344.48
699.90	342.93
700.24	341.42
700.58	339.88
700.91	338.42
701.25	336.98
701.58	335.57
701.92	334.21
702.25	332.85
702.59	331.53
702.92	330.25
703.26	328.97
703.59	327.69
703.93	326.55
704.26	325.34
704.60	324.03
704.93	322.78
705.26	321.54
705.60	320.39
705.93	319.20
706.27	318.20
706.60	317.18
706.94	316.10
707.27	314.99
707.61	313.95
707.94	312.91
708.27	311.84
708.61	310.77
708.94	309.77
709.28	308.82
709.61	307.85
709.94	306.88
710.28	305.85
710.61	304.86
710.95	303.83
711.28	302.90
711.61	301.93
711.95	301.02
712.28	300.02
712.61	299.07
712.95	298.20
713.28	297.31
713.61	296.41
713.95	295.52
714.28	294.68
714.61	293.83
714.95	292.99
715.28	292.15
715.61	291.34
715.95	290.50
716.28	289.62
716.61	288.87
716.95	288.11
717.28	287.39
717.61	286.65
717.94	285.91
718.28	285.14
718.61	284.40
718.94	283.74
719.27	283.13
719.61	282.49
719.94	281.81
720.27	281.10
720.60	280.39
720.94	279.78
721.27	279.21
721.60	278.61
721.93	278.02
722.27	277.51
722.60	276.93
722.93	276.36
723.26	275.82
723.59	275.22
723.93	274.61
724.26	274.05
724.59	273.50
724.92	272.97
725.25	272.46
725.59	271.99
725.92	271.47
726.25	270.97
726.58	270.48
726.91	270.00
727.24	269.56
727.57	269.11
727.91	268.60
728.24	268.13
728.57	267.63
728.90	267.23
729.23	266.69
729.56	266.25
729.89	265.81
730.22	265.33
730.55	264.86
730.89	264.45
731.22	263.99
731.55	263.60
731.88	263.15
732.21	262.71
732.54	262.23
732.87	261.82
733.20	261.37
733.53	260.97
733.86	260.60
734.19	260.17
734.52	259.79
734.85	259.45
735.18	259.04
735.51	258.73
735.84	258.30
736.17	257.94
736.50	257.56
736.83	257.30
737.16	256.98
737.49	256.64
737.82	256.28
738.15	255.92
738.48	255.58
738.81	255.24
739.14	254.95
739.47	254.66
739.80	254.34
740.13	254.05
740.46	253.72
740.79	253.38
741.12	253.07
741.45	252.78
741.78	252.44
742.11	252.14
742.44	251.76
742.77	251.49
743.10	251.22
743.43	250.89
743.75	250.47
744.08	250.32
744.41	250.04
744.74	249.78
745.07	249.49
745.40	249.23
745.73	248.99
746.06	248.66
746.39	248.40
746.71	248.13
747.04	247.88
747.37	247.64
747.70	247.36
748.03	247.16
748.36	246.95
748.68	246.75
749.01	246.51
749.34	246.35
749.67	246.12
750.00	245.87
750.33	245.76
750.65	245.56
750.98	245.20
751.31	245.00
751.64	244.81
751.97	244.68
752.29	244.45
752.62	244.21
752.95	244.01
753.28	243.82
753.60	243.62
753.93	243.42
754.26	243.22
754.59	243.01
754.91	242.77
755.24	242.58
755.57	242.35
755.90	242.17
756.22	241.97
756.55	241.76
756.88	241.57
757.20	241.33
757.53	241.15
757.86	241.01
758.19	240.85
758.51	240.68
758.84	240.46
759.17	240.31
759.49	240.20
759.82	240.11
760.15	239.96
760.47	239.80
760.80	239.63
761.13	239.51
761.45	239.39
761.78	239.27
762.11	239.08
762.43	238.94
762.76	238.81
763.08	238.69
763.41	238.58
763.74	238.48
764.06	238.33
764.39	238.19
764.71	238.05
765.04	237.93
765.37	237.78
765.69	237.67
766.02	237.52
766.34	237.39
766.67	237.21
767.00	237.06
767.32	236.99
767.65	236.91
767.97	236.76
768.30	236.63
768.62	236.48
768.95	236.38
769.27	236.28
769.60	236.19
769.92	236.05
770.25	235.92
770.57	235.82
770.90	235.72
771.22	235.60
771.55	235.51
771.87	235.39
772.20	235.27
772.52	235.25
772.85	235.26
773.17	235.16
773.50	235.07
773.82	234.97
774.15	234.81
774.47	234.68
774.80	234.57
775.12	234.47
775.45	234.40
775.77	234.33
776.09	234.25
776.42	234.13
776.74	234.03
777.07	233.91
777.39	233.80
777.72	233.69
778.04	233.66
778.36	233.55
778.69	233.47
779.01	233.42
779.33	233.24
779.66	233.07
779.98	233.00
780.31	232.93
780.63	232.87
780.95	232.83
781.28	232.74
781.60	232.67
781.92	232.62
782.25	232.55
782.57	232.48
782.89	232.40
783.22	232.33
783.54	232.27
783.86	232.23
784.19	232.18
784.51	232.16
784.83	232.06
785.16	232.00
785.48	231.93
785.80	231.87
786.12	231.85
786.45	231.79
786.77	231.72
787.09	231.67
787.42	231.60
787.74	231.58
788.06	231.56
788.38	231.53
788.71	231.47
789.03	231.44
789.35	231.42
789.67	231.37
789.99	231.36
790.32	231.34
790.64	231.34
790.96	231.37
791.28	231.32
791.61	231.29
791.93	231.26
792.25	231.25
792.57	231.29
792.89	231.25
793.21	231.24
793.54	231.23
793.86	231.18
794.18	231.15
794.50	231.09
794.82	231.07
795.14	231.03
795.47	231.03
795.79	231.02
796.11	230.99
796.43	230.97
796.75	230.97
797.07	230.94
797.39	230.89
797.71	230.80
798.04	230.78
798.36	230.78
798.68	230.78
799.00	230.74
799.32	230.71
799.64	230.71
799.96	230.65
800.28	230.64
800.60	230.59
800.92	230.61
801.24	230.58
801.56	230.56
801.89	230.53
802.21	230.52
802.53	230.47
802.85	230.44
803.17	230.43
803.49	230.35
803.81	230.34
804.13	230.32
804.45	230.28
804.77	230.27
805.09	230.22
805.41	230.19
805.73	230.16
806.05	230.09
806.37	230.07
806.69	230.05
807.01	230.00
807.33	230.03
807.65	229.97
807.97	230.00
808.28	229.99
808.60	229.98
808.92	229.94
809.24	230.01
809.56	230.00
809.88	229.95
810.20	229.92
810.52	229.87
810.84	229.83
811.16	229.82
811.48	229.77
811.80	229.77
812.12	229.71
812.43	229.70
812.75	229.66
813.07	229.63
813.39	229.58
813.71	229.54
814.03	229.49
814.35	229.43
814.67	229.36
814.98	229.28
815.30	229.24
815.62	229.18
815.94	229.07
816.26	229.07
816.58	229.00
816.89	228.97
817.21	228.95
817.53	228.93
817.85	228.88
818.17	228.82
818.48	228.75
818.80	228.75
819.12	228.72
819.44	228.68
819.76	228.59
820.07	228.60
820.39	228.57
820.71	228.56
821.03	228.59
821.34	228.51
821.66	228.53
821.98	228.52
822.30	228.49
822.61	228.52
822.93	228.45
823.25	228.45
823.57	228.46
823.88	228.46
824.20	228.44
824.52	228.46
824.83	228.45
825.15	228.44
825.47	228.43
825.79	228.40
826.10	228.38
826.42	228.43
826.74	228.40
827.05	228.40
827.37	228.38
827.69	228.34
828.00	228.38
828.32	228.35
828.64	228.34
828.95	228.42
829.27	228.39
829.58	228.37
829.90	228.39
830.22	228.39
830.53	228.35
830.85	228.31
831.17	228.25
831.48	228.29
831.80	228.30
832.11	228.28
832.43	228.27
832.75	228.29
833.06	228.29
833.38	228.28
833.69	228.29
834.01	228.28
834.32	228.28
834.64	228.28
834.96	228.28
835.27	228.24
835.59	228.16
835.90	228.14
836.22	228.16
836.53	228.13
836.85	228.10
837.16	228.20
837.48	228.22
837.79	228.29
838.11	228.27
838.42	228.28
838.74	228.32
839.05	228.30
839.37	228.31
839.68	228.30
840.00	228.31
840.31	228.30
840.63	228.31
840.94	228.31
841.26	228.30
841.57	228.29
841.88	228.36
842.20	228.40
842.51	228.41
842.83	228.40
843.14	228.50
843.46	228.52
843.77	228.48
844.08	228.48
844.40	228.44
844.71	228.46
845.03	228.43
845.34	228.41
845.65	228.44
845.97	228.42
846.28	228.43
846.60	228.47
846.91	228.46
847.22	228.46
847.54	228.49
847.85	228.49
848.16	228.50
848.48	228.47
848.79	228.47
849.10	228.49
849.42	228.47
849.73	228.38
850.04	228.35
850.36	228.33
850.67	228.35
850.98	228.35
851.30	228.33
851.61	228.35
851.92	228.35
852.23	228.36
852.55	228.34
852.86	228.31
853.17	228.28
853.49	228.31
853.80	228.32
854.11	228.29
854.42	228.30
854.74	228.26
855.05	228.25
855.36	228.19
855.67	228.15
855.99	228.16
856.30	228.26
856.61	228.24
856.92	228.19
857.23	228.14
857.55	228.14
857.86	228.11
858.17	228.10
858.48	228.01
858.79	227.98
859.11	228.01
859.42	228.00
859.73	227.95
860.04	227.90
860.35	227.85
860.66	227.78
860.98	227.74
861.29	227.74
861.60	227.69
861.91	227.67
862.22	227.64
862.53	227.62
862.84	227.51
863.16	227.56
863.47	227.51
863.78	227.51
864.09	227.46
864.40	227.46
864.71	227.44
865.02	227.46
865.33	227.44
865.64	227.40
865.95	227.37
866.27	227.42
866.58	227.41
866.89	227.39
867.20	227.43
867.51	227.44
867.82	227.44
868.13	227.48
868.44	227.48
868.75	227.49
869.06	227.51
869.37	227.49
869.68	227.41
869.99	227.44
870.30	227.45
870.61	227.49
870.92	227.47
871.23	227.47
871.54	227.50
871.85	227.55
872.16	227.53
872.47	227.53
872.78	227.48
873.09	227.51
873.40	227.53
873.71	227.54
874.02	227.53
874.33	227.50
874.64	227.50
874.95	227.49
875.26	227.49
875.56	227.48
875.87	227.49
876.18	227.52
876.49	227.62
876.80	227.61
877.11	227.60
877.42	227.61
877.73	227.63
878.04	227.62
878.35	227.64
878.66	227.67
878.96	227.68
879.27	227.70
879.58	227.71
879.89	227.72
880.20	227.78
880.51	227.76
880.82	227.79
881.12	227.80
881.43	227.82
881.74	227.85
882.05	227.86
882.36	227.93
882.67	227.95
882.97	227.86
883.28	227.88
883.59	227.91
883.90	227.97
884.21	227.97
884.51	227.98
884.82	227.92
885.13	227.96
885.44	227.99
885.74	227.99
886.05	227.97
886.36	227.97
886.67	227.91
886.98	228.00
887.28	228.03
887.59	228.02
887.90	228.02
888.20	227.99
888.51	228.01
888.82	227.96
889.13	227.98
889.43	228.08
889.74	228.06
890.05	228.00
890.35	227.96
890.66	227.94
890.97	227.91
891.28	227.90
891.58	227.85
891.89	227.85
892.20	227.82
892.50	227.83
892.81	227.82
893.12	227.84
893.42	227.77
893.73	227.75
894.04	227.73
894.34	227.71
894.65	227.69
894.95	227.66
895.26	227.66
895.57	227.67
895.87	227.55
896.18	227.55
896.48	227.54
896.79	227.51
897.10	227.51
897.40	227.50
897.71	227.51
898.01	227.47
898.32	227.42
898.63	227.42
898.93	227.38
899.24	227.37
899.54	227.35
899.85	227.34
900.15	227.29
900.46	227.26
900.76	227.28
901.07	227.29
901.38	227.24
901.68	227.24
901.99	227.17
902.29	227.15
902.60	227.11
902.90	227.09
903.21	227.07
903.51	227.08
903.82	227.07
904.12	227.07
904.43	227.11
904.73	227.13
905.03	227.14
905.34	227.24
905.64	227.22
905.95	227.18
906.25	227.17
906.56	227.18
906.86	227.16
907.17	227.12
907.47	227.09
907.77	227.09
908.08	227.03
908.38	227.05
908.69	227.07
908.99	227.08
909.30	227.11
909.60	227.12
909.90	227.11
910.21	227.10
910.51	227.06
910.81	227.01
911.12	227.00
911.42	227.00
911.73	226.88
912.03	226.85
912.33	226.88
912.64	226.90
912.94	226.87
913.24	226.88
913.55	226.88
913.85	226.88
914.15	226.89
914.46	226.90
914.76	226.89
915.06	226.88
915.37	226.88
915.67	226.86
915.97	226.88
916.27	226.83
916.58	226.87
916.88	226.89
917.18	226.91
917.49	226.97
917.79	226.96
918.09	227.01
918.39	227.07
918.70	227.10
919.00	227.08
919.30	227.15
919.60	227.17
919.91	227.21
920.21	227.27
920.51	227.28
920.81	227.32
921.12	227.34
921.42	227.36
921.72	227.37
922.02	227.39
922.32	227.40
922.63	227.48
922.93	227.52
923.23	227.56
923.53	227.59
923.83	227.56
924.13	227.58
924.44	227.57
924.74	227.59
925.04	227.60
925.34	227.63
925.64	227.59
925.94	227.57
926.24	227.63
926.55	227.62
926.85	227.65
927.15	227.65
927.45	227.65
927.75	227.66
928.05	227.67
928.35	227.69
928.65	227.72
928.95	227.72
929.26	227.68
929.56	227.69
929.86	227.69
930.16	227.68
930.46	227.68
930.76	227.68
931.06	227.64
931.36	227.61
931.66	227.62
931.96	227.66
932.26	227.68
932.56	227.62
932.86	227.64
933.16	227.61
933.46	227.63
933.76	227.60
934.06	227.63
934.36	227.64
934.66	227.65
934.96	227.61
935.26	227.60
935.56	227.58
935.86	227.52
936.16	227.51
936.46	227.50
936.76	227.46
937.06	227.45
937.36	227.44
937.66	227.44
937.96	227.43
938.26	227.37
938.56	227.32
938.86	227.30
939.16	227.29
939.46	227.28
939.76	227.23
940.06	227.21
940.35	227.17
940.65	227.13
940.95	227.07
941.25	227.04
941.55	227.01
941.85	227.00
942.15	227.03
942.45	227.04
942.75	227.02
943.04	227.00
943.34	226.95
943.64	226.93
943.94	226.91
944.24	226.92
944.54	226.94
944.84	226.96
945.13	226.92
945.43	226.86
945.73	226.85
946.03	226.82
946.33	226.83
946.62	226.80
946.92	226.78
947.22	226.83
947.52	226.81
947.82	226.80
948.11	226.77
948.41	226.71
948.71	226.69
949.01	226.71
949.31	226.74
949.60	226.74
949.90	226.76
950.20	226.74
950.50	226.72
950.79	226.73
951.09	226.75
951.39	226.77
951.69	226.79
951.98	226.81
952.28	226.86
952.58	226.87
952.87	226.87
953.17	226.90
953.47	226.87
953.76	226.88
954.06	226.88
954.36	226.89
954.66	226.92
954.95	226.92
955.25	226.93
955.55	226.93
955.84	226.94
956.14	226.97
956.44	227.00
956.73	226.98
957.03	226.96
957.32	226.97
957.62	226.98
957.92	227.01
958.21	227.02
958.51	227.11
958.81	227.13
959.10	227.16
959.40	227.21
959.69	227.27
959.99	227.34
960.29	227.39
960.58	227.41
960.88	227.48
961.17	227.50
961.47	227.54
961.76	227.53
962.06	227.59
962.36	227.56
962.65	227.60
962.95	227.62
963.24	227.67
963.54	227.68
963.83	227.68
964.13	227.70
964.42	227.72
964.72	227.69
965.01	227.71
965.31	227.72
965.60	227.71
965.90	227.75
966.19	227.71
966.49	227.71
966.78	227.73
967.08	227.70
967.37	227.71
967.67	227.69
967.96	227.71
968.26	227.71
968.55	227.74
968.85	227.74
969.14	227.77
969.43	227.74
969.73	227.71
970.02	227.73
970.32	227.71
970.61	227.68
970.91	227.61
971.20	227.59
971.49	227.59
971.79	227.57
972.08	227.50
972.38	227.48
972.67	227.46
972.96	227.41
973.26	227.38
973.55	227.41
973.85	227.36
974.14	227.35
974.43	227.34
974.73	227.31
975.02	227.26
975.31	227.21
975.61	227.19
975.90	227.18
976.19	227.13
976.49	227.11
976.78	227.14
977.07	227.14
977.37	227.12
977.66	227.09
977.95	227.08
978.24	227.08
978.54	227.07
978.83	227.05
979.12	227.07
979.42	227.07
979.71	227.02
980.00	227.06
980.29	227.05
980.59	227.00
980.88	226.99
981.17	226.97
981.46	226.99
981.76	226.97
982.05	227.02
982.34	227.01
982.63	227.02
982.93	226.97
983.22	226.98
983.51	226.95
983.80	226.92
984.09	226.92
984.39	226.88
984.68	226.88
984.97	226.87
985.26	226.84
985.55	226.79
985.85	226.76
986.14	226.73
986.43	226.72
986.72	226.74
987.01	226.71
987.30	226.72
987.59	226.73
987.89	226.72
988.18	226.64
988.47	226.63
988.76	226.60
989.05	226.59
989.34	226.57
989.63	226.61
989.92	226.65
990.22	226.62
990.51	226.63
990.80	226.62
991.09	226.64
991.38	226.66
991.67	226.68
991.96	226.71
992.25	226.76
992.54	226.74
992.83	226.73
993.12	226.77
993.41	226.78
993.70	226.81
993.99	226.88
994.28	226.95
994.58	227.01
994.87	227.07
995.16	227.09
995.45	227.09
995.74	227.11
996.03	227.14
996.32	227.20
996.61	227.25
996.90	227.28
997.19	227.28
997.48	227.31
997.77	227.34
998.06	227.37
998.34	227.38
998.63	227.40
998.92	227.44
999.21	227.45
999.50	227.49
999.79	227.47
1000.08	227.46
1000.37	227.46
1000.66	227.45
1000.95	227.45
1001.24	227.49
1001.53	227.52
1001.82	227.52
1002.11	227.50
1002.40	227.51
1002.68	227.55
1002.97	227.63
1003.26	227.63
1003.55	227.63
1003.84	227.65
1004.13	227.68
1004.42	227.67
1004.71	227.69
1004.99	227.67
1005.28	227.69
1005.57	227.68
1005.86	227.64
1006.15	227.66
1006.44	227.62
1006.72	227.64
1007.01	227.59
1007.30	227.60
1007.59	227.59
1007.88	227.58
1008.17	227.59
1008.45	227.54
1008.74	227.51
1009.03	227.43
1009.32	227.41
1009.60	227.37
1009.89	227.36
1010.18	227.30
1010.47	227.26
1010.76	227.23
1011.04	227.23
1011.33	227.21
1011.62	227.20
1011.91	227.23
1012.19	227.20
1012.48	227.20
1012.77	227.19
1013.05	227.21
1013.34	227.18
1013.63	227.16
1013.92	227.10
1014.20	227.08
1014.49	227.04
1014.78	227.02
1015.06	227.01
1015.35	227.02
1015.64	227.04
1015.92	227.04
1016.21	227.02
1016.50	227.02
1016.78	227.00
1017.07	226.98
1017.36	226.97
1017.64	226.92
1017.93	226.92
1018.22	226.90
1018.50	226.90
1018.79	226.88
1019.08	226.82
1019.36	226.80
1019.65	226.77
1019.93	226.81
1020.22	226.79
1020.51	226.85
1020.79	226.80
1021.08	226.91
1021.36	226.79
1021.65	226.53
1021.94	226.53
1022.22	226.43
1022.51	226.66
1022.79	226.96
1023.08	226.49
1023.36	227.64
1023.65	226.17
>>>>>End Processed Spectral Data<<<<<
