SpectraSuite Data File
++++++++++++++++++++++++++++++++++++
Date: Fri Feb 01 15:42:10 EST 2013
User: group
Dark Spectrum Present: No
Reference Spectrum Present: No
Number of Sampled Component Spectra: 1
Spectrometers: USB2E7196
Integration Time (usec): 35000 (USB2E7196)
Spectra Averaged: 100 (USB2E7196)
Boxcar Smoothing: 10 (USB2E7196)
Correct for Electrical Dark: No (USB2E7196)
Strobe/Lamp Enabled: No (USB2E7196)
Correct for Detector Non-linearity: No (USB2E7196)
Correct for Stray Light: No (USB2E7196)
Number of Pixels in Processed Spectrum: 2048
>>>>>Begin Processed Spectral Data<<<<<
339.09	0.00
339.48	214.86
339.86	216.12
340.24	217.53
340.63	219.60
341.01	221.57
341.39	222.41
341.78	222.64
342.16	224.42
342.54	224.94
342.93	213.23
343.31	223.99
343.69	224.54
344.07	225.02
344.46	225.45
344.84	225.81
345.22	226.06
345.60	226.29
345.99	226.48
346.37	226.64
346.75	226.72
347.13	226.78
347.52	226.82
347.90	226.86
348.28	226.90
348.66	226.96
349.05	226.98
349.43	227.05
349.81	227.11
350.19	227.16
350.57	227.22
350.96	227.30
351.34	227.41
351.72	227.48
352.10	227.59
352.48	227.69
352.87	227.73
353.25	227.79
353.63	227.85
354.01	227.93
354.39	227.98
354.77	228.08
355.15	228.15
355.54	228.22
355.92	228.30
356.30	228.40
356.68	228.56
357.06	228.61
357.44	228.63
357.82	228.67
358.20	228.75
358.58	228.84
358.97	228.87
359.35	228.96
359.73	229.01
360.11	229.05
360.49	229.10
360.87	229.16
361.25	229.22
361.63	229.28
362.01	229.33
362.39	229.40
362.77	229.46
363.15	229.51
363.53	229.51
363.91	229.53
364.29	229.54
364.67	229.46
365.05	229.47
365.43	229.53
365.81	229.57
366.19	229.63
366.57	229.66
366.95	229.63
367.33	229.59
367.71	229.59
368.09	229.61
368.47	229.58
368.85	229.57
369.23	229.55
369.61	229.50
369.99	229.46
370.37	229.40
370.75	229.37
371.13	229.33
371.51	229.28
371.89	229.26
372.27	229.19
372.65	229.17
373.03	229.13
373.41	229.06
373.78	228.97
374.16	228.84
374.54	228.71
374.92	228.66
375.30	228.62
375.68	228.54
376.06	228.44
376.44	228.35
376.82	228.29
377.19	228.26
377.57	228.19
377.95	228.12
378.33	228.04
378.71	227.91
379.09	227.83
379.47	227.79
379.84	227.68
380.22	227.61
380.60	227.48
380.98	227.41
381.36	227.32
381.73	227.23
382.11	227.18
382.49	227.13
382.87	227.04
383.25	226.97
383.62	227.03
384.00	226.94
384.38	226.89
384.76	226.84
385.13	226.81
385.51	226.75
385.89	226.68
386.27	226.65
386.64	226.65
387.02	226.59
387.40	226.50
387.78	226.48
388.15	226.48
388.53	226.47
388.91	226.42
389.29	226.39
389.66	226.39
390.04	226.38
390.42	226.41
390.79	226.40
391.17	226.35
391.55	226.24
391.92	226.26
392.30	226.29
392.68	226.28
393.05	226.26
393.43	226.27
393.81	226.31
394.18	226.33
394.56	226.34
394.94	226.40
395.31	226.42
395.69	226.49
396.06	226.50
396.44	226.55
396.82	226.59
397.19	226.67
397.57	226.72
397.95	226.75
398.32	226.79
398.70	226.89
399.07	227.02
399.45	227.07
399.82	227.16
400.20	227.21
400.58	227.30
400.95	227.35
401.33	227.47
401.70	227.60
402.08	227.70
402.45	227.81
402.83	227.92
403.20	228.09
403.58	228.18
403.95	228.33
404.33	228.49
404.71	228.65
405.08	228.84
405.46	229.01
405.83	229.17
406.21	229.32
406.58	229.48
406.96	229.60
407.33	229.80
407.70	229.97
408.08	230.26
408.45	230.48
408.83	230.70
409.20	230.91
409.58	231.11
409.95	231.35
410.33	231.61
410.70	231.88
411.08	232.15
411.45	232.47
411.82	232.73
412.20	233.06
412.57	233.47
412.95	233.75
413.32	234.15
413.69	234.56
414.07	234.96
414.44	235.41
414.82	235.87
415.19	236.42
415.56	236.99
415.94	237.51
416.31	238.15
416.68	238.78
417.06	239.48
417.43	240.20
417.81	240.97
418.18	241.72
418.55	242.56
418.93	243.37
419.30	244.25
419.67	245.22
420.04	246.15
420.42	247.13
420.79	248.34
421.16	249.46
421.54	250.63
421.91	251.87
422.28	253.11
422.66	254.46
423.03	255.72
423.40	257.04
423.77	258.45
424.15	259.87
424.52	261.35
424.89	262.95
425.26	264.44
425.64	265.87
426.01	267.49
426.38	269.09
426.75	270.80
427.13	272.49
427.50	274.27
427.87	276.19
428.24	278.02
428.61	279.73
428.99	281.68
429.36	283.79
429.73	285.86
430.10	287.87
430.47	289.93
430.85	292.07
431.22	294.29
431.59	296.67
431.96	298.88
432.33	301.38
432.70	303.77
433.08	306.58
433.45	309.22
433.82	311.82
434.19	314.73
434.56	317.56
434.93	320.22
435.30	322.88
435.68	325.77
436.05	328.60
436.42	331.38
436.79	333.85
437.16	336.55
437.53	339.41
437.90	342.23
438.27	344.97
438.64	347.78
439.01	350.36
439.38	352.58
439.75	354.79
440.13	357.28
440.50	359.62
440.87	361.50
441.24	363.42
441.61	365.54
441.98	367.03
442.35	368.80
442.72	370.66
443.09	372.42
443.46	373.35
443.83	373.96
444.20	374.47
444.57	375.35
444.94	375.65
445.31	375.98
445.68	376.35
446.05	376.42
446.42	376.10
446.79	375.68
447.16	375.24
447.53	374.87
447.90	373.71
448.27	372.54
448.64	370.94
449.01	369.83
449.37	367.87
449.74	366.03
450.11	363.80
450.48	361.35
450.85	358.83
451.22	356.73
451.59	354.68
451.96	352.78
452.33	350.14
452.70	347.77
453.07	344.93
453.43	342.04
453.80	339.25
454.17	336.56
454.54	334.06
454.91	331.35
455.28	328.68
455.65	326.18
456.02	323.72
456.38	321.58
456.75	318.93
457.12	316.67
457.49	314.39
457.86	312.22
458.23	310.39
458.59	308.34
458.96	306.26
459.33	304.43
459.70	302.53
460.07	300.99
460.43	299.28
460.80	297.62
461.17	296.17
461.54	294.71
461.91	293.26
462.27	291.80
462.64	290.58
463.01	289.26
463.38	287.98
463.74	286.61
464.11	285.46
464.48	284.42
464.85	283.35
465.21	282.53
465.58	281.60
465.95	280.44
466.32	279.53
466.68	278.60
467.05	277.71
467.42	276.85
467.78	275.96
468.15	275.10
468.52	274.43
468.88	273.57
469.25	272.78
469.62	272.19
469.98	271.51
470.35	270.83
470.72	270.24
471.08	269.57
471.45	269.05
471.82	268.51
472.18	267.86
472.55	267.42
472.92	266.87
473.28	266.42
473.65	266.00
474.02	265.58
474.38	265.25
474.75	264.88
475.11	264.52
475.48	264.25
475.85	264.00
476.21	263.77
476.58	263.60
476.94	263.46
477.31	263.25
477.67	263.10
478.04	263.02
478.41	262.94
478.77	262.98
479.14	262.87
479.50	262.84
479.87	262.94
480.23	263.03
480.60	263.11
480.96	263.20
481.33	263.39
481.69	263.59
482.06	263.76
482.42	264.01
482.79	264.27
483.15	264.60
483.52	265.01
483.88	265.36
484.25	265.75
484.61	266.18
484.98	266.65
485.34	267.21
485.71	267.78
486.07	268.40
486.44	268.99
486.80	269.73
487.17	270.48
487.53	271.31
487.90	272.15
488.26	273.08
488.62	274.09
488.99	275.09
489.35	276.16
489.72	277.30
490.08	278.52
490.44	279.75
490.81	281.09
491.17	282.43
491.54	283.93
491.90	285.48
492.26	287.16
492.63	288.89
492.99	290.67
493.36	292.57
493.72	294.61
494.08	296.68
494.45	298.92
494.81	301.30
495.17	303.76
495.54	306.31
495.90	308.96
496.26	311.70
496.63	314.64
496.99	317.75
497.35	321.00
497.72	324.42
498.08	327.97
498.44	331.65
498.80	335.55
499.17	339.60
499.53	343.81
499.89	348.14
500.26	352.63
500.62	357.33
500.98	362.26
501.34	367.34
501.71	372.72
502.07	378.20
502.43	383.82
502.79	389.60
503.16	395.68
503.52	401.99
503.88	408.47
504.24	415.10
504.60	421.93
504.97	429.09
505.33	436.41
505.69	444.12
506.05	451.94
506.41	459.82
506.78	468.00
507.14	476.47
507.50	485.19
507.86	494.19
508.22	503.36
508.59	512.64
508.95	522.21
509.31	532.05
509.67	542.12
510.03	552.43
510.39	563.01
510.75	573.85
511.12	584.77
511.48	596.04
511.84	607.51
512.20	619.04
512.56	630.98
512.92	643.18
513.28	655.43
513.64	667.86
514.00	680.57
514.37	693.47
514.73	706.54
515.09	719.43
515.45	732.77
515.81	746.38
516.17	760.31
516.53	774.45
516.89	788.57
517.25	802.79
517.61	817.17
517.97	831.69
518.33	846.08
518.69	860.90
519.05	875.89
519.41	891.07
519.77	906.64
520.13	922.04
520.49	937.35
520.85	952.77
521.21	968.52
521.57	984.78
521.93	1000.55
522.29	1016.92
522.65	1033.26
523.01	1049.53
523.37	1065.56
523.73	1081.73
524.09	1097.79
524.45	1114.14
524.81	1130.82
525.17	1147.65
525.53	1164.51
525.89	1181.40
526.25	1198.16
526.61	1214.61
526.97	1231.39
527.33	1247.90
527.68	1264.47
528.04	1281.04
528.40	1297.76
528.76	1314.80
529.12	1331.41
529.48	1348.34
529.84	1364.41
530.20	1381.05
530.56	1398.02
530.91	1415.42
531.27	1432.18
531.63	1448.66
531.99	1465.20
532.35	1481.14
532.71	1497.12
533.07	1513.36
533.42	1529.21
533.78	1545.26
534.14	1561.46
534.50	1576.83
534.86	1592.67
535.21	1607.90
535.57	1623.80
535.93	1639.30
536.29	1654.11
536.65	1669.08
537.00	1683.86
537.36	1699.08
537.72	1713.67
538.08	1728.13
538.44	1741.85
538.79	1755.78
539.15	1769.48
539.51	1783.27
539.87	1797.60
540.22	1811.17
540.58	1824.99
540.94	1838.40
541.29	1851.31
541.65	1863.96
542.01	1877.24
542.37	1889.56
542.72	1902.13
543.08	1914.02
543.44	1926.29
543.79	1937.58
544.15	1948.58
544.51	1960.12
544.87	1971.10
545.22	1981.97
545.58	1992.13
545.94	2001.98
546.29	2011.81
546.65	2021.56
547.01	2030.80
547.36	2039.49
547.72	2048.01
548.07	2055.88
548.43	2064.05
548.79	2072.14
549.14	2079.72
549.50	2086.94
549.86	2094.70
550.21	2101.96
550.57	2109.17
550.92	2115.78
551.28	2122.73
551.64	2129.89
551.99	2136.43
552.35	2142.55
552.70	2148.52
553.06	2154.37
553.41	2160.79
553.77	2166.78
554.13	2172.88
554.48	2178.91
554.84	2184.30
555.19	2189.76
555.55	2194.74
555.90	2199.12
556.26	2204.01
556.61	2208.76
556.97	2212.99
557.32	2217.00
557.68	2221.04
558.03	2225.18
558.39	2228.85
558.74	2233.58
559.10	2237.35
559.45	2240.98
559.81	2245.33
560.16	2249.25
560.52	2252.58
560.87	2255.98
561.23	2258.62
561.58	2261.74
561.94	2264.46
562.29	2266.88
562.64	2269.37
563.00	2272.09
563.35	2275.71
563.71	2278.75
564.06	2281.98
564.42	2284.81
564.77	2287.40
565.12	2289.70
565.48	2291.71
565.83	2293.63
566.19	2294.82
566.54	2295.83
566.89	2296.83
567.25	2297.26
567.60	2298.67
567.96	2300.33
568.31	2301.10
568.66	2302.19
569.02	2302.69
569.37	2302.90
569.72	2303.76
570.08	2304.02
570.43	2303.96
570.78	2303.31
571.14	2301.78
571.49	2300.33
571.84	2300.02
572.20	2298.78
572.55	2297.70
572.90	2296.06
573.26	2294.76
573.61	2293.07
573.96	2291.27
574.31	2288.52
574.67	2285.62
575.02	2281.93
575.37	2278.55
575.72	2274.62
576.08	2271.34
576.43	2268.00
576.78	2264.27
577.13	2261.15
577.49	2258.03
577.84	2254.68
578.19	2250.94
578.54	2247.18
578.90	2242.94
579.25	2237.44
579.60	2232.59
579.95	2227.50
580.30	2222.48
580.66	2217.27
581.01	2212.30
581.36	2207.47
581.71	2203.12
582.06	2198.67
582.42	2194.16
582.77	2188.97
583.12	2184.50
583.47	2179.77
583.82	2174.71
584.17	2169.56
584.53	2163.91
584.88	2158.11
585.23	2152.16
585.58	2146.54
585.93	2141.19
586.28	2136.48
586.63	2131.45
586.98	2126.24
587.34	2121.49
587.69	2116.57
588.04	2111.12
588.39	2105.52
588.74	2098.92
589.09	2092.80
589.44	2085.93
589.79	2079.99
590.14	2074.29
590.49	2067.65
590.84	2061.15
591.19	2055.08
591.54	2048.47
591.89	2041.04
592.25	2034.28
592.60	2026.99
592.95	2019.46
593.30	2012.00
593.65	2004.40
594.00	1997.31
594.35	1990.13
594.70	1982.09
595.05	1974.88
595.40	1967.74
595.75	1960.02
596.10	1953.57
596.45	1946.85
596.80	1940.65
597.15	1933.81
597.50	1926.72
597.85	1920.27
598.19	1913.62
598.54	1906.41
598.89	1899.75
599.24	1893.86
599.59	1887.07
599.94	1880.93
600.29	1874.60
600.64	1867.99
600.99	1860.51
601.34	1853.57
601.69	1846.48
602.04	1839.65
602.39	1832.13
602.74	1825.22
603.08	1818.49
603.43	1811.89
603.78	1804.48
604.13	1797.31
604.48	1790.07
604.83	1783.21
605.18	1776.13
605.53	1768.11
605.87	1760.17
606.22	1752.96
606.57	1744.99
606.92	1737.64
607.27	1730.37
607.62	1723.33
607.96	1716.18
608.31	1709.47
608.66	1701.86
609.01	1694.34
609.36	1686.74
609.70	1678.70
610.05	1670.73
610.40	1663.09
610.75	1654.70
611.10	1647.15
611.44	1638.74
611.79	1630.82
612.14	1621.99
612.49	1612.88
612.83	1604.50
613.18	1596.34
613.53	1588.27
613.88	1579.76
614.22	1571.53
614.57	1563.07
614.92	1555.12
615.27	1547.45
615.61	1539.03
615.96	1531.02
616.31	1523.42
616.65	1516.09
617.00	1508.56
617.35	1500.84
617.70	1492.51
618.04	1484.04
618.39	1475.75
618.74	1468.07
619.08	1459.71
619.43	1452.29
619.78	1445.43
620.12	1438.18
620.47	1430.63
620.82	1422.46
621.16	1415.19
621.51	1407.68
621.85	1399.99
622.20	1391.49
622.55	1383.22
622.89	1375.49
623.24	1367.95
623.59	1360.57
623.93	1352.95
624.28	1345.77
624.62	1338.25
624.97	1331.00
625.32	1324.33
625.66	1317.34
626.01	1310.21
626.35	1302.71
626.70	1294.94
627.04	1287.30
627.39	1279.59
627.73	1272.30
628.08	1265.41
628.43	1258.04
628.77	1250.54
629.12	1242.99
629.46	1235.84
629.81	1228.44
630.15	1221.16
630.50	1213.69
630.84	1205.47
631.19	1197.76
631.53	1190.28
631.88	1182.76
632.22	1175.28
632.57	1167.94
632.91	1160.42
633.26	1152.98
633.60	1145.75
633.95	1138.62
634.29	1131.53
634.64	1124.96
634.98	1117.61
635.32	1110.39
635.67	1103.83
636.01	1097.22
636.36	1090.46
636.70	1084.00
637.05	1077.41
637.39	1071.05
637.73	1064.53
638.08	1058.70
638.42	1052.66
638.77	1046.21
639.11	1039.47
639.45	1033.01
639.80	1026.36
640.14	1019.82
640.49	1013.35
640.83	1006.91
641.17	1000.72
641.52	994.38
641.86	987.86
642.20	981.96
642.55	975.71
642.89	969.13
643.23	962.67
643.58	956.89
643.92	950.63
644.26	944.49
644.61	938.50
644.95	932.46
645.29	925.76
645.64	918.92
645.98	912.54
646.32	906.81
646.66	900.79
647.01	894.95
647.35	889.36
647.69	883.52
648.04	878.09
648.38	872.23
648.72	866.18
649.06	860.13
649.41	854.31
649.75	848.28
650.09	842.33
650.43	836.48
650.78	830.30
651.12	824.36
651.46	818.70
651.80	812.87
652.14	807.48
652.49	802.13
652.83	796.97
653.17	791.22
653.51	785.43
653.85	780.02
654.20	774.33
654.54	768.33
654.88	762.62
655.22	756.65
655.56	751.01
655.90	745.65
656.25	740.39
656.59	735.07
656.93	729.99
657.27	724.90
657.61	719.44
657.95	714.34
658.29	709.30
658.64	704.02
658.98	698.76
659.32	693.29
659.66	688.09
660.00	682.79
660.34	677.89
660.68	673.01
661.02	668.03
661.36	663.34
661.70	658.77
662.05	654.42
662.39	650.11
662.73	645.66
663.07	641.24
663.41	636.79
663.75	632.26
664.09	627.69
664.43	623.29
664.77	619.27
665.11	614.93
665.45	610.79
665.79	606.73
666.13	602.57
666.47	598.50
666.81	594.34
667.15	590.20
667.49	586.33
667.83	582.51
668.17	578.57
668.51	574.55
668.85	570.60
669.19	566.73
669.53	562.86
669.87	558.95
670.21	555.22
670.55	551.56
670.89	548.12
671.23	544.74
671.57	541.20
671.91	537.61
672.25	534.19
672.58	530.63
672.92	527.23
673.26	524.08
673.60	520.94
673.94	517.79
674.28	514.92
674.62	511.93
674.96	508.88
675.30	505.94
675.64	502.98
675.97	500.22
676.31	497.32
676.65	494.41
676.99	491.74
677.33	488.98
677.67	486.22
678.01	483.15
678.34	480.13
678.68	477.25
679.02	474.41
679.36	471.66
679.70	468.92
680.04	466.17
680.37	463.28
680.71	460.47
681.05	457.90
681.39	455.19
681.73	452.55
682.06	450.04
682.40	447.48
682.74	444.98
683.08	442.42
683.42	439.83
683.75	437.35
684.09	434.79
684.43	432.25
684.77	429.77
685.10	427.42
685.44	425.14
685.78	422.85
686.12	420.63
686.45	418.34
686.79	416.13
687.13	413.93
687.46	411.80
687.80	409.66
688.14	407.43
688.48	405.41
688.81	403.16
689.15	400.96
689.49	398.85
689.82	396.71
690.16	394.58
690.50	392.59
690.83	390.62
691.17	388.64
691.51	386.77
691.84	384.89
692.18	382.93
692.52	380.94
692.85	379.08
693.19	377.25
693.52	375.43
693.86	373.59
694.20	371.77
694.53	369.94
694.87	368.07
695.21	366.28
695.54	364.37
695.88	362.66
696.21	360.89
696.55	359.19
696.88	357.56
697.22	355.91
697.56	354.27
697.89	352.61
698.23	351.05
698.56	349.39
698.90	347.75
699.23	346.15
699.57	344.61
699.90	343.06
700.24	341.45
700.58	339.90
700.91	338.39
701.25	336.99
701.58	335.62
701.92	334.26
702.25	332.90
702.59	331.55
702.92	330.24
703.26	328.95
703.59	327.71
703.93	326.55
704.26	325.30
704.60	324.01
704.93	322.75
705.26	321.48
705.60	320.30
705.93	319.20
706.27	318.20
706.60	317.17
706.94	316.08
707.27	314.97
707.61	313.93
707.94	312.89
708.27	311.80
708.61	310.72
708.94	309.70
709.28	308.75
709.61	307.84
709.94	306.92
710.28	305.96
710.61	304.95
710.95	303.85
711.28	302.97
711.61	302.10
711.95	301.19
712.28	300.27
712.61	299.31
712.95	298.36
713.28	297.46
713.61	296.58
713.95	295.67
714.28	294.83
714.61	293.96
714.95	293.16
715.28	292.29
715.61	291.44
715.95	290.62
716.28	289.78
716.61	288.95
716.95	288.13
717.28	287.38
717.61	286.61
717.94	285.91
718.28	285.12
718.61	284.41
718.94	283.68
719.27	283.02
719.61	282.40
719.94	281.78
720.27	281.01
720.60	280.34
720.94	279.76
721.27	279.17
721.60	278.62
721.93	277.99
722.27	277.47
722.60	276.92
722.93	276.33
723.26	275.77
723.59	275.16
723.93	274.58
724.26	274.03
724.59	273.51
724.92	272.94
725.25	272.43
725.59	271.88
725.92	271.38
726.25	270.86
726.58	270.35
726.91	269.81
727.24	269.36
727.57	268.90
727.91	268.34
728.24	267.84
728.57	267.34
728.90	266.89
729.23	266.39
729.56	265.95
729.89	265.51
730.22	265.02
730.55	264.57
730.89	264.12
731.22	263.65
731.55	263.18
731.88	262.77
732.21	262.33
732.54	261.84
732.87	261.42
733.20	261.03
733.53	260.64
733.86	260.28
734.19	259.88
734.52	259.47
734.85	259.18
735.18	258.79
735.51	258.46
735.84	258.06
736.17	257.69
736.50	257.27
736.83	257.02
737.16	256.68
737.49	256.35
737.82	255.96
738.15	255.61
738.48	255.31
738.81	254.96
739.14	254.60
739.47	254.27
739.80	253.94
740.13	253.63
740.46	253.26
740.79	252.93
741.12	252.66
741.45	252.29
741.78	251.93
742.11	251.63
742.44	251.27
742.77	250.99
743.10	250.70
743.43	250.41
743.75	250.03
744.08	249.90
744.41	249.60
744.74	249.40
745.07	249.12
745.40	248.82
745.73	248.59
746.06	248.34
746.39	248.13
746.71	247.85
747.04	247.57
747.37	247.33
747.70	247.09
748.03	246.79
748.36	246.62
748.68	246.36
749.01	246.11
749.34	245.89
749.67	245.69
750.00	245.46
750.33	245.32
750.65	245.11
750.98	244.77
751.31	244.57
751.64	244.36
751.97	244.19
752.29	244.03
752.62	243.78
752.95	243.59
753.28	243.36
753.60	243.19
753.93	243.02
754.26	242.83
754.59	242.61
754.91	242.43
755.24	242.24
755.57	242.05
755.90	241.88
756.22	241.68
756.55	241.45
756.88	241.26
757.20	240.98
757.53	240.79
757.86	240.62
758.19	240.45
758.51	240.27
758.84	240.08
759.17	239.90
759.49	239.76
759.82	239.62
760.15	239.51
760.47	239.37
760.80	239.15
761.13	239.03
761.45	238.90
761.78	238.77
762.11	238.63
762.43	238.51
762.76	238.36
763.08	238.27
763.41	238.14
763.74	238.03
764.06	237.93
764.39	237.81
764.71	237.67
765.04	237.54
765.37	237.42
765.69	237.31
766.02	237.17
766.34	237.03
766.67	236.88
767.00	236.77
767.32	236.70
767.65	236.68
767.97	236.56
768.30	236.42
768.62	236.33
768.95	236.22
769.27	236.13
769.60	236.04
769.92	235.91
770.25	235.80
770.57	235.69
770.90	235.58
771.22	235.46
771.55	235.32
771.87	235.21
772.20	235.11
772.52	235.09
772.85	235.12
773.17	235.05
773.50	234.96
773.82	234.84
774.15	234.71
774.47	234.59
774.80	234.49
775.12	234.43
775.45	234.31
775.77	234.19
776.09	234.12
776.42	234.04
776.74	234.00
777.07	233.94
777.39	233.83
777.72	233.75
778.04	233.67
778.36	233.65
778.69	233.60
779.01	233.55
779.33	233.40
779.66	233.22
779.98	233.13
780.31	233.05
780.63	233.00
780.95	232.95
781.28	232.87
781.60	232.82
781.92	232.72
782.25	232.68
782.57	232.63
782.89	232.53
783.22	232.46
783.54	232.37
783.86	232.32
784.19	232.28
784.51	232.22
784.83	232.18
785.16	232.11
785.48	232.05
785.80	231.99
786.12	231.92
786.45	231.87
786.77	231.83
787.09	231.76
787.42	231.71
787.74	231.67
788.06	231.62
788.38	231.56
788.71	231.54
789.03	231.49
789.35	231.44
789.67	231.39
789.99	231.37
790.32	231.29
790.64	231.25
790.96	231.29
791.28	231.24
791.61	231.20
791.93	231.17
792.25	231.13
792.57	231.14
792.89	231.11
793.21	231.09
793.54	231.05
793.86	231.03
794.18	230.95
794.50	230.86
794.82	230.82
795.14	230.82
795.47	230.79
795.79	230.77
796.11	230.75
796.43	230.71
796.75	230.67
797.07	230.67
797.39	230.63
797.71	230.51
798.04	230.51
798.36	230.45
798.68	230.44
799.00	230.40
799.32	230.32
799.64	230.30
799.96	230.25
800.28	230.22
800.60	230.17
800.92	230.23
801.24	230.21
801.56	230.20
801.89	230.15
802.21	230.13
802.53	230.07
802.85	230.03
803.17	230.07
803.49	230.03
803.81	229.96
804.13	229.92
804.45	229.90
804.77	229.89
805.09	229.89
805.41	229.88
805.73	229.84
806.05	229.81
806.37	229.77
806.69	229.75
807.01	229.74
807.33	229.74
807.65	229.65
807.97	229.67
808.28	229.65
808.60	229.63
808.92	229.59
809.24	229.62
809.56	229.62
809.88	229.57
810.20	229.52
810.52	229.53
810.84	229.53
811.16	229.50
811.48	229.45
811.80	229.45
812.12	229.39
812.43	229.38
812.75	229.35
813.07	229.33
813.39	229.34
813.71	229.32
814.03	229.32
814.35	229.28
814.67	229.22
814.98	229.18
815.30	229.15
815.62	229.10
815.94	229.01
816.26	229.03
816.58	228.99
816.89	228.98
817.21	228.95
817.53	228.92
817.85	228.91
818.17	228.89
818.48	228.83
818.80	228.84
819.12	228.83
819.44	228.80
819.76	228.74
820.07	228.71
820.39	228.66
820.71	228.63
821.03	228.62
821.34	228.59
821.66	228.57
821.98	228.55
822.30	228.54
822.61	228.60
822.93	228.51
823.25	228.49
823.57	228.47
823.88	228.45
824.20	228.40
824.52	228.39
824.83	228.36
825.15	228.34
825.47	228.33
825.79	228.32
826.10	228.29
826.42	228.26
826.74	228.26
827.05	228.23
827.37	228.20
827.69	228.19
828.00	228.20
828.32	228.17
828.64	228.13
828.95	228.18
829.27	228.11
829.58	228.10
829.90	228.09
830.22	228.08
830.53	228.06
830.85	228.04
831.17	228.01
831.48	227.99
831.80	227.99
832.11	227.96
832.43	227.95
832.75	227.92
833.06	227.98
833.38	227.92
833.69	227.92
834.01	227.90
834.32	227.88
834.64	227.83
834.96	227.85
835.27	227.87
835.59	227.81
835.90	227.79
836.22	227.77
836.53	227.75
836.85	227.73
837.16	227.81
837.48	227.85
837.79	227.87
838.11	227.91
838.42	227.90
838.74	227.89
839.05	227.86
839.37	227.87
839.68	227.83
840.00	227.82
840.31	227.84
840.63	227.84
840.94	227.84
841.26	227.83
841.57	227.83
841.88	227.83
842.20	227.83
842.51	227.85
842.83	227.88
843.14	227.95
843.46	227.96
843.77	227.95
844.08	227.92
844.40	227.91
844.71	227.87
845.03	227.87
845.34	227.87
845.65	227.88
845.97	227.87
846.28	227.86
846.60	227.89
846.91	227.86
847.22	227.86
847.54	227.87
847.85	227.92
848.16	227.92
848.48	227.89
848.79	227.98
849.10	227.95
849.42	227.97
849.73	227.88
850.04	227.90
850.36	227.85
850.67	227.87
850.98	227.87
851.30	227.88
851.61	227.87
851.92	227.86
852.23	227.88
852.55	227.89
852.86	227.91
853.17	227.92
853.49	227.93
853.80	227.95
854.11	227.95
854.42	227.92
854.74	227.89
855.05	227.89
855.36	227.79
855.67	227.82
855.99	227.80
856.30	227.89
856.61	227.83
856.92	227.81
857.23	227.81
857.55	227.80
857.86	227.78
858.17	227.77
858.48	227.75
858.79	227.68
859.11	227.67
859.42	227.65
859.73	227.66
860.04	227.63
860.35	227.59
860.66	227.54
860.98	227.56
861.29	227.56
861.60	227.54
861.91	227.54
862.22	227.50
862.53	227.47
862.84	227.39
863.16	227.42
863.47	227.40
863.78	227.40
864.09	227.35
864.40	227.34
864.71	227.33
865.02	227.32
865.33	227.33
865.64	227.32
865.95	227.29
866.27	227.30
866.58	227.29
866.89	227.27
867.20	227.25
867.51	227.18
867.82	227.17
868.13	227.16
868.44	227.12
868.75	227.12
869.06	227.12
869.37	227.09
869.68	227.05
869.99	227.07
870.30	227.02
870.61	227.04
870.92	227.04
871.23	227.00
871.54	227.03
871.85	227.01
872.16	227.01
872.47	227.01
872.78	226.94
873.09	226.93
873.40	226.93
873.71	226.94
874.02	226.97
874.33	226.93
874.64	226.93
874.95	226.94
875.26	226.89
875.56	226.88
875.87	226.91
876.18	226.91
876.49	226.98
876.80	227.01
877.11	227.02
877.42	226.99
877.73	227.01
878.04	226.98
878.35	227.03
878.66	227.03
878.96	227.06
879.27	227.08
879.58	227.13
879.89	227.12
880.20	227.14
880.51	227.14
880.82	227.17
881.12	227.20
881.43	227.21
881.74	227.24
882.05	227.26
882.36	227.28
882.67	227.29
882.97	227.19
883.28	227.19
883.59	227.19
883.90	227.25
884.21	227.32
884.51	227.31
884.82	227.31
885.13	227.34
885.44	227.34
885.74	227.32
886.05	227.30
886.36	227.32
886.67	227.30
886.98	227.33
887.28	227.37
887.59	227.34
887.90	227.37
888.20	227.39
888.51	227.39
888.82	227.36
889.13	227.40
889.43	227.52
889.74	227.51
890.05	227.53
890.35	227.49
890.66	227.45
890.97	227.48
891.28	227.46
891.58	227.46
891.89	227.47
892.20	227.48
892.50	227.48
892.81	227.45
893.12	227.45
893.42	227.41
893.73	227.37
894.04	227.39
894.34	227.36
894.65	227.34
894.95	227.31
895.26	227.33
895.57	227.38
895.87	227.24
896.18	227.27
896.48	227.25
896.79	227.27
897.10	227.27
897.40	227.24
897.71	227.25
898.01	227.22
898.32	227.22
898.63	227.21
898.93	227.22
899.24	227.25
899.54	227.25
899.85	227.27
900.15	227.27
900.46	227.25
900.76	227.24
901.07	227.23
901.38	227.23
901.68	227.22
901.99	227.12
902.29	227.12
902.60	227.08
902.90	227.05
903.21	227.02
903.51	226.98
903.82	227.00
904.12	226.97
904.43	226.99
904.73	226.98
905.03	226.96
905.34	227.04
905.64	227.03
905.95	226.99
906.25	226.97
906.56	226.98
906.86	226.97
907.17	226.98
907.47	226.97
907.77	226.96
908.08	226.93
908.38	226.97
908.69	226.97
908.99	226.97
909.30	226.98
909.60	226.99
909.90	227.01
910.21	226.96
910.51	226.98
910.81	226.96
911.12	226.96
911.42	226.99
911.73	226.91
912.03	226.93
912.33	226.97
912.64	226.99
912.94	226.94
913.24	226.93
913.55	226.94
913.85	226.98
914.15	227.00
914.46	226.98
914.76	226.96
915.06	226.99
915.37	226.98
915.67	226.95
915.97	226.94
916.27	226.92
916.58	226.94
916.88	226.93
917.18	226.92
917.49	226.97
917.79	226.94
918.09	226.94
918.39	226.97
918.70	226.97
919.00	226.99
919.30	227.06
919.60	227.06
919.91	227.03
920.21	227.03
920.51	227.03
920.81	227.08
921.12	227.09
921.42	227.08
921.72	227.12
922.02	227.17
922.32	227.22
922.63	227.25
922.93	227.31
923.23	227.30
923.53	227.32
923.83	227.29
924.13	227.33
924.44	227.35
924.74	227.36
925.04	227.40
925.34	227.36
925.64	227.34
925.94	227.35
926.24	227.41
926.55	227.41
926.85	227.44
927.15	227.42
927.45	227.44
927.75	227.43
928.05	227.43
928.35	227.43
928.65	227.42
928.95	227.44
929.26	227.42
929.56	227.45
929.86	227.45
930.16	227.41
930.46	227.39
930.76	227.39
931.06	227.34
931.36	227.28
931.66	227.31
931.96	227.32
932.26	227.32
932.56	227.29
932.86	227.29
933.16	227.27
933.46	227.26
933.76	227.25
934.06	227.26
934.36	227.26
934.66	227.22
934.96	227.19
935.26	227.16
935.56	227.16
935.86	227.11
936.16	227.07
936.46	227.09
936.76	227.08
937.06	227.02
937.36	227.02
937.66	227.05
937.96	227.04
938.26	227.01
938.56	226.99
938.86	226.97
939.16	226.93
939.46	226.94
939.76	226.91
940.06	226.86
940.35	226.82
940.65	226.78
940.95	226.80
941.25	226.76
941.55	226.73
941.85	226.73
942.15	226.75
942.45	226.78
942.75	226.75
943.04	226.74
943.34	226.79
943.64	226.79
943.94	226.76
944.24	226.74
944.54	226.76
944.84	226.76
945.13	226.73
945.43	226.74
945.73	226.69
946.03	226.73
946.33	226.72
946.62	226.72
946.92	226.71
947.22	226.71
947.52	226.74
947.82	226.76
948.11	226.73
948.41	226.71
948.71	226.68
949.01	226.69
949.31	226.68
949.60	226.67
949.90	226.67
950.20	226.67
950.50	226.68
950.79	226.63
951.09	226.69
951.39	226.69
951.69	226.70
951.98	226.74
952.28	226.75
952.58	226.77
952.87	226.77
953.17	226.81
953.47	226.81
953.76	226.81
954.06	226.82
954.36	226.80
954.66	226.80
954.95	226.87
955.25	226.87
955.55	226.91
955.84	226.93
956.14	226.95
956.44	226.96
956.73	226.96
957.03	226.98
957.32	226.95
957.62	226.98
957.92	226.99
958.21	227.00
958.51	227.09
958.81	227.13
959.10	227.17
959.40	227.19
959.69	227.24
959.99	227.26
960.29	227.27
960.58	227.26
960.88	227.30
961.17	227.28
961.47	227.33
961.76	227.32
962.06	227.34
962.36	227.31
962.65	227.35
962.95	227.38
963.24	227.37
963.54	227.40
963.83	227.43
964.13	227.43
964.42	227.42
964.72	227.36
965.01	227.31
965.31	227.28
965.60	227.27
965.90	227.26
966.19	227.23
966.49	227.19
966.78	227.21
967.08	227.22
967.37	227.21
967.67	227.16
967.96	227.16
968.26	227.16
968.55	227.16
968.85	227.12
969.14	227.07
969.43	227.07
969.73	227.00
970.02	226.95
970.32	226.96
970.61	226.92
970.91	226.88
971.20	226.89
971.49	226.88
971.79	226.84
972.08	226.78
972.38	226.81
972.67	226.83
972.96	226.82
973.26	226.79
973.55	226.82
973.85	226.79
974.14	226.75
974.43	226.73
974.73	226.70
975.02	226.68
975.31	226.69
975.61	226.66
975.90	226.65
976.19	226.62
976.49	226.62
976.78	226.65
977.07	226.64
977.37	226.62
977.66	226.61
977.95	226.59
978.24	226.61
978.54	226.60
978.83	226.59
979.12	226.58
979.42	226.56
979.71	226.54
980.00	226.55
980.29	226.58
980.59	226.52
980.88	226.51
981.17	226.50
981.46	226.51
981.76	226.54
982.05	226.56
982.34	226.57
982.63	226.56
982.93	226.54
983.22	226.56
983.51	226.59
983.80	226.61
984.09	226.66
984.39	226.62
984.68	226.61
984.97	226.62
985.26	226.62
985.55	226.63
985.85	226.60
986.14	226.61
986.43	226.60
986.72	226.62
987.01	226.64
987.30	226.65
987.59	226.66
987.89	226.67
988.18	226.66
988.47	226.65
988.76	226.66
989.05	226.63
989.34	226.61
989.63	226.64
989.92	226.67
990.22	226.64
990.51	226.65
990.80	226.63
991.09	226.65
991.38	226.66
991.67	226.66
991.96	226.64
992.25	226.63
992.54	226.61
992.83	226.65
993.12	226.65
993.41	226.71
993.70	226.75
993.99	226.78
994.28	226.82
994.58	226.88
994.87	226.84
995.16	226.86
995.45	226.87
995.74	226.85
996.03	226.84
996.32	226.86
996.61	226.91
996.90	226.92
997.19	226.92
997.48	226.91
997.77	226.91
998.06	226.94
998.34	226.96
998.63	226.99
998.92	226.98
999.21	227.00
999.50	226.99
999.79	226.95
1000.08	226.94
1000.37	226.93
1000.66	226.90
1000.95	226.95
1001.24	226.96
1001.53	226.97
1001.82	226.98
1002.11	226.92
1002.40	226.95
1002.68	226.96
1002.97	227.03
1003.26	227.01
1003.55	227.02
1003.84	227.05
1004.13	227.08
1004.42	227.09
1004.71	227.04
1004.99	227.03
1005.28	227.02
1005.57	226.99
1005.86	227.00
1006.15	226.97
1006.44	226.94
1006.72	226.90
1007.01	226.87
1007.30	226.86
1007.59	226.85
1007.88	226.84
1008.17	226.87
1008.45	226.83
1008.74	226.80
1009.03	226.75
1009.32	226.74
1009.60	226.73
1009.89	226.71
1010.18	226.67
1010.47	226.66
1010.76	226.68
1011.04	226.71
1011.33	226.78
1011.62	226.78
1011.91	226.77
1012.19	226.78
1012.48	226.77
1012.77	226.82
1013.05	226.89
1013.34	226.92
1013.63	226.91
1013.92	226.90
1014.20	226.88
1014.49	226.89
1014.78	226.91
1015.06	226.90
1015.35	226.92
1015.64	226.90
1015.92	226.89
1016.21	226.90
1016.50	226.87
1016.78	226.88
1017.07	226.85
1017.36	226.75
1017.64	226.72
1017.93	226.70
1018.22	226.68
1018.50	226.70
1018.79	226.67
1019.08	226.60
1019.36	226.60
1019.65	226.58
1019.93	226.61
1020.22	226.65
1020.51	226.68
1020.79	226.65
1021.08	226.30
1021.36	226.54
1021.65	226.41
1021.94	226.77
1022.22	226.92
1022.51	226.42
1022.79	227.17
1023.08	227.29
1023.36	227.52
1023.65	226.58
>>>>>End Processed Spectral Data<<<<<
