SpectraSuite Data File
++++++++++++++++++++++++++++++++++++
Date: Fri Feb 01 15:34:25 EST 2013
User: group
Dark Spectrum Present: No
Reference Spectrum Present: No
Number of Sampled Component Spectra: 1
Spectrometers: USB2E7196
Integration Time (usec): 35000 (USB2E7196)
Spectra Averaged: 100 (USB2E7196)
Boxcar Smoothing: 10 (USB2E7196)
Correct for Electrical Dark: No (USB2E7196)
Strobe/Lamp Enabled: No (USB2E7196)
Correct for Detector Non-linearity: No (USB2E7196)
Correct for Stray Light: No (USB2E7196)
Number of Pixels in Processed Spectrum: 2048
>>>>>Begin Processed Spectral Data<<<<<
339.09	0.00
339.48	215.37
339.86	216.37
340.24	218.03
340.63	219.21
341.01	221.72
341.39	221.77
341.78	223.22
342.16	224.25
342.54	224.56
342.93	213.32
343.31	224.12
343.69	224.63
344.07	225.07
344.46	225.48
344.84	225.86
345.22	226.11
345.60	226.38
345.99	226.54
346.37	226.68
346.75	226.79
347.13	226.86
347.52	226.89
347.90	226.95
348.28	226.96
348.66	227.01
349.05	226.97
349.43	227.01
349.81	227.03
350.19	227.08
350.57	227.12
350.96	227.16
351.34	227.21
351.72	227.32
352.10	227.42
352.48	227.49
352.87	227.54
353.25	227.58
353.63	227.63
354.01	227.71
354.39	227.77
354.77	227.84
355.15	227.96
355.54	228.02
355.92	228.05
356.30	228.14
356.68	228.27
357.06	228.37
357.44	228.38
357.82	228.45
358.20	228.51
358.58	228.56
358.97	228.64
359.35	228.73
359.73	228.79
360.11	228.86
360.49	228.92
360.87	228.94
361.25	229.02
361.63	229.08
362.01	229.12
362.39	229.15
362.77	229.19
363.15	229.22
363.53	229.26
363.91	229.29
364.29	229.33
364.67	229.23
365.05	229.26
365.43	229.30
365.81	229.34
366.19	229.42
366.57	229.47
366.95	229.45
367.33	229.39
367.71	229.37
368.09	229.37
368.47	229.35
368.85	229.36
369.23	229.33
369.61	229.29
369.99	229.29
370.37	229.29
370.75	229.32
371.13	229.24
371.51	229.17
371.89	229.14
372.27	229.04
372.65	229.03
373.03	228.99
373.41	228.92
373.78	228.83
374.16	228.72
374.54	228.62
374.92	228.55
375.30	228.49
375.68	228.39
376.06	228.35
376.44	228.27
376.82	228.20
377.19	228.15
377.57	228.06
377.95	227.99
378.33	227.89
378.71	227.72
379.09	227.67
379.47	227.62
379.84	227.55
380.22	227.49
380.60	227.38
380.98	227.31
381.36	227.26
381.73	227.19
382.11	227.12
382.49	227.06
382.87	226.98
383.25	226.93
383.62	226.99
384.00	226.92
384.38	226.85
384.76	226.80
385.13	226.79
385.51	226.74
385.89	226.64
386.27	226.61
386.64	226.60
387.02	226.55
387.40	226.49
387.78	226.47
388.15	226.44
388.53	226.42
388.91	226.37
389.29	226.33
389.66	226.33
390.04	226.29
390.42	226.31
390.79	226.30
391.17	226.30
391.55	226.19
391.92	226.18
392.30	226.21
392.68	226.19
393.05	226.17
393.43	226.18
393.81	226.23
394.18	226.22
394.56	226.25
394.94	226.32
395.31	226.34
395.69	226.36
396.06	226.40
396.44	226.43
396.82	226.46
397.19	226.54
397.57	226.58
397.95	226.65
398.32	226.66
398.70	226.72
399.07	226.78
399.45	226.83
399.82	226.86
400.20	226.91
400.58	226.99
400.95	227.03
401.33	227.13
401.70	227.27
402.08	227.36
402.45	227.45
402.83	227.52
403.20	227.65
403.58	227.72
403.95	227.87
404.33	228.00
404.71	228.11
405.08	228.32
405.46	228.45
405.83	228.59
406.21	228.71
406.58	228.91
406.96	229.08
407.33	229.27
407.70	229.45
408.08	229.70
408.45	229.92
408.83	230.16
409.20	230.36
409.58	230.54
409.95	230.81
410.33	231.06
410.70	231.36
411.08	231.65
411.45	231.98
411.82	232.26
412.20	232.63
412.57	233.09
412.95	233.35
413.32	233.77
413.69	234.16
414.07	234.66
414.44	235.08
414.82	235.55
415.19	236.08
415.56	236.66
415.94	237.21
416.31	237.85
416.68	238.51
417.06	239.23
417.43	239.90
417.81	240.66
418.18	241.42
418.55	242.22
418.93	243.08
419.30	243.99
419.67	244.96
420.04	245.88
420.42	246.83
420.79	248.04
421.16	249.19
421.54	250.40
421.91	251.59
422.28	252.89
422.66	254.22
423.03	255.56
423.40	256.90
423.77	258.34
424.15	259.78
424.52	261.28
424.89	262.86
425.26	264.40
425.64	265.82
426.01	267.47
426.38	269.11
426.75	270.77
427.13	272.50
427.50	274.32
427.87	276.22
428.24	278.10
428.61	279.84
428.99	281.75
429.36	283.91
429.73	285.98
430.10	287.99
430.47	290.05
430.85	292.18
431.22	294.41
431.59	296.78
431.96	298.95
432.33	301.49
432.70	303.90
433.08	306.73
433.45	309.46
433.82	312.02
434.19	314.89
434.56	317.79
434.93	320.47
435.30	323.07
435.68	326.01
436.05	328.82
436.42	331.61
436.79	334.17
437.16	336.84
437.53	339.64
437.90	342.44
438.27	345.20
438.64	348.03
439.01	350.67
439.38	352.89
439.75	355.14
440.13	357.60
440.50	359.96
440.87	361.84
441.24	363.74
441.61	365.96
441.98	367.48
442.35	369.28
442.72	371.12
443.09	372.93
443.46	373.90
443.83	374.49
444.20	375.04
444.57	375.90
444.94	376.15
445.31	376.52
445.68	376.89
446.05	376.95
446.42	376.55
446.79	376.07
447.16	375.64
447.53	375.31
447.90	374.10
448.27	372.94
448.64	371.32
449.01	370.21
449.37	368.21
449.74	366.33
450.11	364.05
450.48	361.56
450.85	359.02
451.22	356.86
451.59	354.84
451.96	352.88
452.33	350.24
452.70	347.86
453.07	345.06
453.43	342.14
453.80	339.40
454.17	336.73
454.54	334.22
454.91	331.51
455.28	328.88
455.65	326.47
456.02	324.00
456.38	321.84
456.75	319.15
457.12	316.90
457.49	314.69
457.86	312.49
458.23	310.65
458.59	308.60
458.96	306.49
459.33	304.63
459.70	302.75
460.07	301.25
460.43	299.58
460.80	297.94
461.17	296.52
461.54	295.00
461.91	293.54
462.27	292.04
462.64	290.80
463.01	289.38
463.38	288.07
463.74	286.72
464.11	285.59
464.48	284.58
464.85	283.48
465.21	282.62
465.58	281.69
465.95	280.58
466.32	279.69
466.68	278.80
467.05	277.90
467.42	276.99
467.78	276.04
468.15	275.14
468.52	274.44
468.88	273.61
469.25	272.86
469.62	272.28
469.98	271.63
470.35	270.97
470.72	270.37
471.08	269.69
471.45	269.14
471.82	268.57
472.18	267.95
472.55	267.49
472.92	266.93
473.28	266.46
473.65	265.99
474.02	265.58
474.38	265.22
474.75	264.89
475.11	264.55
475.48	264.31
475.85	264.04
476.21	263.86
476.58	263.61
476.94	263.42
477.31	263.23
477.67	263.08
478.04	263.01
478.41	262.93
478.77	262.97
479.14	262.90
479.50	262.92
479.87	262.99
480.23	263.08
480.60	263.15
480.96	263.29
481.33	263.52
481.69	263.72
482.06	263.89
482.42	264.13
482.79	264.38
483.15	264.71
483.52	265.12
483.88	265.42
484.25	265.85
484.61	266.29
484.98	266.79
485.34	267.34
485.71	267.92
486.07	268.56
486.44	269.13
486.80	269.80
487.17	270.52
487.53	271.32
487.90	272.15
488.26	273.07
488.62	274.02
488.99	274.98
489.35	275.99
489.72	277.16
490.08	278.36
490.44	279.61
490.81	280.93
491.17	282.28
491.54	283.77
491.90	285.32
492.26	286.97
492.63	288.70
492.99	290.50
493.36	292.39
493.72	294.41
494.08	296.51
494.45	298.81
494.81	301.15
495.17	303.59
495.54	306.18
495.90	308.89
496.26	311.69
496.63	314.63
496.99	317.73
497.35	320.94
497.72	324.32
498.08	327.85
498.44	331.55
498.80	335.44
499.17	339.50
499.53	343.62
499.89	348.01
500.26	352.47
500.62	357.07
500.98	362.01
501.34	367.12
501.71	372.48
502.07	377.96
502.43	383.57
502.79	389.41
503.16	395.51
503.52	401.79
503.88	408.16
504.24	414.78
504.60	421.71
504.97	428.85
505.33	436.19
505.69	443.89
506.05	451.67
506.41	459.60
506.78	467.76
507.14	476.24
507.50	484.96
507.86	494.00
508.22	503.20
508.59	512.42
508.95	521.98
509.31	531.77
509.67	541.81
510.03	552.15
510.39	562.64
510.75	573.44
511.12	584.40
511.48	595.77
511.84	607.22
512.20	618.69
512.56	630.69
512.92	642.86
513.28	655.19
513.64	667.67
514.00	680.31
514.37	693.19
514.73	706.25
515.09	719.25
515.45	732.58
515.81	746.24
516.17	760.28
516.53	774.39
516.89	788.54
517.25	802.69
517.61	817.12
517.97	831.64
518.33	846.07
518.69	860.81
519.05	875.75
519.41	890.96
519.77	906.52
520.13	921.91
520.49	937.36
520.85	952.76
521.21	968.48
521.57	984.80
521.93	1000.58
522.29	1016.94
522.65	1033.35
523.01	1049.62
523.37	1065.70
523.73	1081.82
524.09	1097.84
524.45	1114.26
524.81	1130.93
525.17	1147.88
525.53	1164.89
525.89	1181.79
526.25	1198.66
526.61	1215.07
526.97	1231.89
527.33	1248.46
527.68	1265.20
528.04	1281.78
528.40	1298.49
528.76	1315.52
529.12	1332.23
529.48	1349.21
529.84	1365.38
530.20	1382.04
530.56	1398.98
530.91	1416.43
531.27	1433.28
531.63	1449.98
531.99	1466.65
532.35	1482.64
532.71	1498.43
533.07	1514.69
533.42	1530.67
533.78	1546.81
534.14	1563.13
534.50	1578.55
534.86	1594.51
535.21	1609.67
535.57	1625.60
535.93	1641.08
536.29	1656.10
536.65	1671.12
537.00	1686.04
537.36	1701.29
537.72	1715.79
538.08	1730.22
538.44	1744.18
538.79	1758.06
539.15	1771.72
539.51	1785.40
539.87	1799.93
540.22	1813.75
540.58	1827.49
540.94	1840.82
541.29	1853.69
541.65	1866.47
542.01	1879.69
542.37	1891.91
542.72	1904.45
543.08	1916.17
543.44	1928.66
543.79	1939.70
544.15	1950.67
544.51	1962.19
544.87	1973.30
545.22	1984.14
545.58	1994.38
545.94	2003.99
546.29	2013.92
546.65	2023.76
547.01	2032.97
547.36	2041.55
547.72	2050.02
548.07	2058.05
548.43	2066.24
548.79	2074.40
549.14	2081.94
549.50	2089.40
549.86	2097.37
550.21	2104.66
550.57	2111.86
550.92	2118.45
551.28	2125.65
551.64	2132.83
551.99	2139.40
552.35	2145.43
552.70	2151.69
553.06	2157.69
553.41	2164.10
553.77	2170.18
554.13	2176.30
554.48	2182.47
554.84	2187.92
555.19	2193.14
555.55	2198.23
555.90	2202.68
556.26	2207.56
556.61	2212.25
556.97	2216.35
557.32	2220.23
557.68	2224.23
558.03	2228.48
558.39	2232.20
558.74	2236.93
559.10	2240.81
559.45	2244.40
559.81	2248.90
560.16	2252.64
560.52	2255.92
560.87	2259.31
561.23	2261.99
561.58	2264.87
561.94	2267.37
562.29	2269.87
562.64	2272.64
563.00	2275.18
563.35	2278.75
563.71	2281.83
564.06	2285.16
564.42	2288.06
564.77	2290.53
565.12	2292.84
565.48	2294.69
565.83	2296.53
566.19	2297.69
566.54	2298.50
566.89	2299.69
567.25	2300.23
567.60	2301.46
567.96	2303.29
568.31	2304.09
568.66	2305.17
569.02	2305.79
569.37	2306.19
569.72	2306.98
570.08	2306.97
570.43	2306.98
570.78	2306.32
571.14	2304.72
571.49	2303.12
571.84	2302.71
572.20	2301.57
572.55	2300.52
572.90	2299.07
573.26	2297.57
573.61	2295.79
573.96	2294.04
574.31	2291.05
574.67	2288.02
575.02	2284.40
575.37	2280.87
575.72	2276.99
576.08	2273.60
576.43	2270.12
576.78	2266.36
577.13	2263.10
577.49	2260.01
577.84	2256.37
578.19	2252.56
578.54	2248.83
578.90	2244.65
579.25	2239.07
579.60	2234.05
579.95	2229.07
580.30	2224.04
580.66	2218.78
581.01	2213.84
581.36	2208.74
581.71	2204.45
582.06	2199.81
582.42	2195.25
582.77	2189.90
583.12	2185.23
583.47	2180.38
583.82	2175.36
584.17	2170.01
584.53	2164.52
584.88	2158.82
585.23	2153.08
585.58	2147.60
585.93	2142.06
586.28	2137.33
586.63	2132.15
586.98	2127.03
587.34	2122.21
587.69	2117.12
588.04	2111.88
588.39	2106.11
588.74	2099.64
589.09	2093.46
589.44	2086.73
589.79	2080.78
590.14	2075.19
590.49	2068.64
590.84	2062.24
591.19	2056.15
591.54	2049.72
591.89	2042.20
592.25	2035.39
592.60	2028.09
592.95	2020.44
593.30	2013.20
593.65	2005.48
594.00	1998.49
594.35	1991.36
594.70	1983.25
595.05	1975.95
595.40	1968.64
595.75	1961.02
596.10	1954.77
596.45	1948.01
596.80	1941.69
597.15	1934.89
597.50	1927.67
597.85	1921.16
598.19	1914.53
598.54	1907.37
598.89	1900.74
599.24	1894.99
599.59	1888.19
599.94	1882.02
600.29	1875.68
600.64	1868.96
600.99	1861.58
601.34	1854.68
601.69	1847.58
602.04	1840.61
602.39	1833.32
602.74	1826.40
603.08	1819.86
603.43	1813.11
603.78	1805.78
604.13	1798.57
604.48	1791.25
604.83	1784.37
605.18	1777.38
605.53	1769.38
605.87	1761.45
606.22	1754.11
606.57	1745.97
606.92	1738.69
607.27	1731.39
607.62	1724.46
607.96	1717.16
608.31	1710.45
608.66	1702.82
609.01	1695.24
609.36	1687.73
609.70	1679.72
610.05	1671.71
610.40	1663.90
610.75	1655.48
611.10	1647.80
611.44	1639.33
611.79	1631.32
612.14	1622.59
612.49	1613.44
612.83	1604.99
613.18	1596.78
613.53	1588.63
613.88	1580.18
614.22	1571.89
614.57	1563.37
614.92	1555.29
615.27	1547.74
615.61	1539.34
615.96	1531.33
616.31	1523.73
616.65	1516.32
617.00	1508.68
617.35	1501.06
617.70	1492.69
618.04	1484.21
618.39	1475.96
618.74	1468.38
619.08	1460.12
619.43	1452.61
619.78	1445.74
620.12	1438.57
620.47	1431.13
620.82	1422.96
621.16	1415.45
621.51	1407.85
621.85	1400.23
622.20	1391.57
622.55	1383.26
622.89	1375.41
623.24	1367.80
623.59	1360.45
623.93	1352.99
624.28	1345.71
624.62	1338.11
624.97	1330.99
625.32	1324.32
625.66	1317.18
626.01	1310.04
626.35	1302.50
626.70	1294.71
627.04	1286.85
627.39	1279.07
627.73	1271.63
628.08	1264.73
628.43	1257.45
628.77	1249.97
629.12	1242.30
629.46	1235.31
629.81	1227.87
630.15	1220.67
630.50	1213.26
630.84	1204.93
631.19	1196.96
631.53	1189.57
631.88	1182.05
632.22	1174.38
632.57	1167.02
632.91	1159.60
633.26	1152.15
633.60	1144.87
633.95	1137.78
634.29	1130.83
634.64	1124.14
634.98	1116.81
635.32	1109.68
635.67	1103.09
636.01	1096.53
636.36	1089.83
636.70	1083.33
637.05	1076.76
637.39	1070.34
637.73	1063.79
638.08	1058.06
638.42	1052.10
638.77	1045.62
639.11	1039.01
639.45	1032.67
639.80	1025.98
640.14	1019.40
640.49	1012.84
640.83	1006.54
641.17	1000.28
641.52	993.96
641.86	987.58
642.20	981.70
642.55	975.43
642.89	968.97
643.23	962.51
643.58	956.71
643.92	950.40
644.26	944.33
644.61	938.32
644.95	932.33
645.29	925.61
645.64	918.90
645.98	912.62
646.32	906.81
646.66	900.74
647.01	895.03
647.35	889.40
647.69	883.56
648.04	878.04
648.38	872.22
648.72	866.17
649.06	860.00
649.41	854.17
649.75	848.16
650.09	842.24
650.43	836.33
650.78	830.18
651.12	824.24
651.46	818.43
651.80	812.57
652.14	807.09
652.49	801.74
652.83	796.57
653.17	790.82
653.51	785.11
653.85	779.72
654.20	773.95
654.54	767.96
654.88	762.21
655.22	756.28
655.56	750.69
655.90	745.23
656.25	740.08
656.59	734.68
656.93	729.59
657.27	724.34
657.61	718.97
657.95	713.91
658.29	708.85
658.64	703.67
658.98	698.42
659.32	693.02
659.66	687.80
660.00	682.47
660.34	677.57
660.68	672.64
661.02	667.61
661.36	662.99
661.70	658.50
662.05	654.16
662.39	649.86
662.73	645.35
663.07	641.01
663.41	636.46
663.75	631.98
664.09	627.38
664.43	623.10
664.77	618.97
665.11	614.69
665.45	610.63
665.79	606.56
666.13	602.36
666.47	598.25
666.81	594.13
667.15	589.99
667.49	586.02
667.83	582.16
668.17	578.22
668.51	574.06
668.85	570.06
669.19	566.20
669.53	562.37
669.87	558.43
670.21	554.75
670.55	551.12
670.89	547.67
671.23	544.23
671.57	540.70
671.91	537.14
672.25	533.65
672.58	530.05
672.92	526.67
673.26	523.53
673.60	520.41
673.94	517.29
674.28	514.41
674.62	511.52
674.96	508.39
675.30	505.50
675.64	502.61
675.97	499.89
676.31	497.08
676.65	494.09
676.99	491.47
677.33	488.59
677.67	485.81
678.01	482.76
678.34	479.77
678.68	476.90
679.02	474.15
679.36	471.35
679.70	468.71
680.04	465.93
680.37	463.06
680.71	460.23
681.05	457.62
681.39	454.85
681.73	452.16
682.06	449.64
682.40	447.05
682.74	444.52
683.08	441.93
683.42	439.32
683.75	436.89
684.09	434.29
684.43	431.81
684.77	429.36
685.10	427.03
685.44	424.78
685.78	422.47
686.12	420.20
686.45	417.93
686.79	415.62
687.13	413.43
687.46	411.32
687.80	409.17
688.14	406.98
688.48	404.98
688.81	402.77
689.15	400.64
689.49	398.54
689.82	396.51
690.16	394.44
690.50	392.48
690.83	390.53
691.17	388.58
691.51	386.70
691.84	384.87
692.18	382.94
692.52	380.98
692.85	379.08
693.19	377.22
693.52	375.43
693.86	373.65
694.20	371.87
694.53	370.05
694.87	368.26
695.21	366.50
695.54	364.65
695.88	362.97
696.21	361.30
696.55	359.62
696.88	357.93
697.22	356.29
697.56	354.65
697.89	352.99
698.23	351.42
698.56	349.82
698.90	348.20
699.23	346.57
699.57	345.01
699.90	343.47
700.24	341.92
700.58	340.38
700.91	338.87
701.25	337.42
701.58	336.11
701.92	334.74
702.25	333.32
702.59	331.98
702.92	330.57
703.26	329.25
703.59	327.92
703.93	326.73
704.26	325.50
704.60	324.22
704.93	322.96
705.26	321.70
705.60	320.51
705.93	319.34
706.27	318.30
706.60	317.24
706.94	316.14
707.27	315.00
707.61	313.94
707.94	312.93
708.27	311.81
708.61	310.69
708.94	309.68
709.28	308.76
709.61	307.82
709.94	306.89
710.28	305.84
710.61	304.92
710.95	303.83
711.28	302.85
711.61	301.90
711.95	300.99
712.28	300.01
712.61	299.02
712.95	298.09
713.28	297.22
713.61	296.32
713.95	295.41
714.28	294.57
714.61	293.70
714.95	292.80
715.28	291.95
715.61	291.04
715.95	290.17
716.28	289.28
716.61	288.42
716.95	287.61
717.28	286.88
717.61	286.09
717.94	285.38
718.28	284.58
718.61	283.85
718.94	283.13
719.27	282.47
719.61	281.85
719.94	281.20
720.27	280.47
720.60	279.79
720.94	279.19
721.27	278.57
721.60	277.95
721.93	277.38
722.27	276.83
722.60	276.32
722.93	275.77
723.26	275.24
723.59	274.66
723.93	274.10
724.26	273.51
724.59	272.94
724.92	272.43
725.25	271.95
725.59	271.41
725.92	270.91
726.25	270.39
726.58	269.92
726.91	269.42
727.24	268.95
727.57	268.48
727.91	267.97
728.24	267.52
728.57	267.09
728.90	266.66
729.23	266.16
729.56	265.72
729.89	265.24
730.22	264.74
730.55	264.31
730.89	263.90
731.22	263.49
731.55	263.07
731.88	262.62
732.21	262.18
732.54	261.81
732.87	261.41
733.20	261.07
733.53	260.64
733.86	260.27
734.19	259.88
734.52	259.51
734.85	259.21
735.18	258.82
735.51	258.46
735.84	258.05
736.17	257.75
736.50	257.36
736.83	257.14
737.16	256.83
737.49	256.48
737.82	256.14
738.15	255.84
738.48	255.49
738.81	255.19
739.14	254.89
739.47	254.54
739.80	254.21
740.13	253.87
740.46	253.56
740.79	253.23
741.12	252.91
741.45	252.56
741.78	252.20
742.11	251.87
742.44	251.51
742.77	251.24
743.10	250.91
743.43	250.58
743.75	250.18
744.08	249.99
744.41	249.75
744.74	249.44
745.07	249.11
745.40	248.91
745.73	248.63
746.06	248.32
746.39	248.08
746.71	247.78
747.04	247.49
747.37	247.22
747.70	246.95
748.03	246.72
748.36	246.53
748.68	246.30
749.01	246.05
749.34	245.86
749.67	245.62
750.00	245.36
750.33	245.21
750.65	244.98
750.98	244.66
751.31	244.44
751.64	244.23
751.97	244.06
752.29	243.78
752.62	243.54
752.95	243.34
753.28	243.09
753.60	242.89
753.93	242.73
754.26	242.53
754.59	242.35
754.91	242.07
755.24	241.84
755.57	241.66
755.90	241.46
756.22	241.24
756.55	241.04
756.88	240.87
757.20	240.65
757.53	240.46
757.86	240.29
758.19	240.09
758.51	239.92
758.84	239.74
759.17	239.58
759.49	239.41
759.82	239.25
760.15	239.13
760.47	238.99
760.80	238.82
761.13	238.70
761.45	238.54
761.78	238.43
762.11	238.31
762.43	238.18
762.76	238.08
763.08	237.99
763.41	237.87
763.74	237.74
764.06	237.61
764.39	237.49
764.71	237.33
765.04	237.23
765.37	237.13
765.69	236.98
766.02	236.88
766.34	236.80
766.67	236.68
767.00	236.59
767.32	236.56
767.65	236.50
767.97	236.39
768.30	236.29
768.62	236.23
768.95	236.11
769.27	235.96
769.60	235.86
769.92	235.75
770.25	235.63
770.57	235.53
770.90	235.40
771.22	235.31
771.55	235.28
771.87	235.22
772.20	235.10
772.52	235.11
772.85	235.13
773.17	235.01
773.50	234.93
773.82	234.83
774.15	234.67
774.47	234.53
774.80	234.45
775.12	234.34
775.45	234.22
775.77	234.18
776.09	234.13
776.42	234.03
776.74	233.95
777.07	233.88
777.39	233.82
777.72	233.75
778.04	233.67
778.36	233.58
778.69	233.48
779.01	233.42
779.33	233.27
779.66	233.10
779.98	233.03
780.31	232.98
780.63	232.92
780.95	232.86
781.28	232.82
781.60	232.73
781.92	232.70
782.25	232.62
782.57	232.55
782.89	232.47
783.22	232.41
783.54	232.35
783.86	232.28
784.19	232.19
784.51	232.16
784.83	232.11
785.16	232.02
785.48	231.99
785.80	231.95
786.12	231.89
786.45	231.84
786.77	231.79
787.09	231.73
787.42	231.65
787.74	231.59
788.06	231.53
788.38	231.45
788.71	231.37
789.03	231.34
789.35	231.30
789.67	231.24
789.99	231.22
790.32	231.16
790.64	231.12
790.96	231.14
791.28	231.09
791.61	231.02
791.93	230.99
792.25	230.95
792.57	230.97
792.89	230.92
793.21	230.90
793.54	230.86
793.86	230.80
794.18	230.76
794.50	230.73
794.82	230.67
795.14	230.67
795.47	230.65
795.79	230.62
796.11	230.55
796.43	230.55
796.75	230.48
797.07	230.48
797.39	230.43
797.71	230.34
798.04	230.31
798.36	230.29
798.68	230.28
799.00	230.23
799.32	230.12
799.64	230.10
799.96	230.08
800.28	230.06
800.60	230.03
800.92	230.00
801.24	229.96
801.56	229.97
801.89	229.98
802.21	229.98
802.53	229.92
802.85	229.92
803.17	229.93
803.49	229.89
803.81	229.84
804.13	229.84
804.45	229.82
804.77	229.79
805.09	229.79
805.41	229.77
805.73	229.74
806.05	229.69
806.37	229.67
806.69	229.60
807.01	229.62
807.33	229.60
807.65	229.54
807.97	229.58
808.28	229.53
808.60	229.47
808.92	229.41
809.24	229.48
809.56	229.43
809.88	229.36
810.20	229.35
810.52	229.35
810.84	229.30
811.16	229.27
811.48	229.24
811.80	229.23
812.12	229.18
812.43	229.18
812.75	229.19
813.07	229.17
813.39	229.15
813.71	229.06
814.03	229.07
814.35	229.06
814.67	228.98
814.98	228.95
815.30	228.95
815.62	228.95
815.94	228.84
816.26	228.86
816.58	228.83
816.89	228.79
817.21	228.70
817.53	228.67
817.85	228.63
818.17	228.60
818.48	228.54
818.80	228.57
819.12	228.53
819.44	228.49
819.76	228.47
820.07	228.46
820.39	228.46
820.71	228.42
821.03	228.37
821.34	228.35
821.66	228.35
821.98	228.32
822.30	228.29
822.61	228.36
822.93	228.24
823.25	228.20
823.57	228.18
823.88	228.23
824.20	228.22
824.52	228.25
824.83	228.22
825.15	228.21
825.47	228.14
825.79	228.15
826.10	228.10
826.42	228.08
826.74	228.07
827.05	228.07
827.37	228.05
827.69	228.06
828.00	228.05
828.32	228.02
828.64	227.99
828.95	228.01
829.27	227.98
829.58	228.01
829.90	228.02
830.22	228.03
830.53	227.99
830.85	227.97
831.17	227.88
831.48	227.88
831.80	227.89
832.11	227.89
832.43	227.84
832.75	227.84
833.06	227.85
833.38	227.81
833.69	227.77
834.01	227.78
834.32	227.75
834.64	227.74
834.96	227.73
835.27	227.73
835.59	227.72
835.90	227.68
836.22	227.68
836.53	227.68
836.85	227.69
837.16	227.76
837.48	227.75
837.79	227.80
838.11	227.81
838.42	227.80
838.74	227.83
839.05	227.83
839.37	227.82
839.68	227.76
840.00	227.79
840.31	227.81
840.63	227.80
840.94	227.79
841.26	227.80
841.57	227.80
841.88	227.82
842.20	227.83
842.51	227.83
842.83	227.80
843.14	227.89
843.46	227.90
843.77	227.90
844.08	227.92
844.40	227.91
844.71	227.92
845.03	227.90
845.34	227.88
845.65	227.88
845.97	227.91
846.28	227.89
846.60	227.90
846.91	227.89
847.22	227.90
847.54	227.91
847.85	227.96
848.16	227.95
848.48	227.90
848.79	227.96
849.10	227.96
849.42	228.01
849.73	227.92
850.04	227.90
850.36	227.84
850.67	227.86
850.98	227.84
851.30	227.85
851.61	227.86
851.92	227.91
852.23	227.96
852.55	227.94
852.86	228.01
853.17	227.99
853.49	227.99
853.80	227.99
854.11	228.02
854.42	227.98
854.74	227.98
855.05	227.96
855.36	227.89
855.67	227.93
855.99	227.90
856.30	228.01
856.61	228.01
856.92	228.00
857.23	227.98
857.55	228.00
857.86	227.97
858.17	227.97
858.48	227.92
858.79	227.87
859.11	227.88
859.42	227.83
859.73	227.80
860.04	227.80
860.35	227.81
860.66	227.76
860.98	227.75
861.29	227.76
861.60	227.78
861.91	227.76
862.22	227.68
862.53	227.66
862.84	227.51
863.16	227.49
863.47	227.46
863.78	227.47
864.09	227.47
864.40	227.45
864.71	227.41
865.02	227.41
865.33	227.37
865.64	227.33
865.95	227.30
866.27	227.39
866.58	227.36
866.89	227.35
867.20	227.34
867.51	227.32
867.82	227.30
868.13	227.31
868.44	227.31
868.75	227.34
869.06	227.31
869.37	227.31
869.68	227.26
869.99	227.28
870.30	227.25
870.61	227.22
870.92	227.20
871.23	227.18
871.54	227.19
871.85	227.23
872.16	227.26
872.47	227.26
872.78	227.19
873.09	227.17
873.40	227.16
873.71	227.16
874.02	227.14
874.33	227.10
874.64	227.10
874.95	227.13
875.26	227.13
875.56	227.17
875.87	227.16
876.18	227.15
876.49	227.21
876.80	227.19
877.11	227.17
877.42	227.17
877.73	227.17
878.04	227.13
878.35	227.12
878.66	227.11
878.96	227.12
879.27	227.14
879.58	227.12
879.89	227.11
880.20	227.11
880.51	227.10
880.82	227.15
881.12	227.13
881.43	227.12
881.74	227.06
882.05	227.07
882.36	227.09
882.67	227.12
882.97	227.05
883.28	227.09
883.59	227.11
883.90	227.14
884.21	227.18
884.51	227.20
884.82	227.17
885.13	227.16
885.44	227.14
885.74	227.13
886.05	227.14
886.36	227.13
886.67	227.12
886.98	227.20
887.28	227.18
887.59	227.19
887.90	227.21
888.20	227.25
888.51	227.23
888.82	227.21
889.13	227.22
889.43	227.28
889.74	227.24
890.05	227.24
890.35	227.22
890.66	227.21
890.97	227.17
891.28	227.20
891.58	227.20
891.89	227.22
892.20	227.19
892.50	227.17
892.81	227.19
893.12	227.18
893.42	227.08
893.73	227.09
894.04	227.04
894.34	227.01
894.65	227.01
894.95	227.03
895.26	227.04
895.57	227.08
895.87	227.03
896.18	227.04
896.48	227.03
896.79	227.03
897.10	227.03
897.40	227.07
897.71	227.05
898.01	227.04
898.32	227.05
898.63	227.06
898.93	227.06
899.24	227.07
899.54	227.05
899.85	227.07
900.15	227.06
900.46	227.13
900.76	227.15
901.07	227.14
901.38	227.10
901.68	227.10
901.99	227.05
902.29	227.04
902.60	227.03
902.90	227.03
903.21	227.02
903.51	227.01
903.82	227.02
904.12	227.03
904.43	227.05
904.73	227.05
905.03	227.01
905.34	227.12
905.64	227.12
905.95	227.15
906.25	227.17
906.56	227.16
906.86	227.14
907.17	227.07
907.47	227.04
907.77	227.05
908.08	227.04
908.38	227.03
908.69	227.04
908.99	227.08
909.30	227.08
909.60	227.06
909.90	227.06
910.21	227.02
910.51	227.03
910.81	226.99
911.12	226.99
911.42	227.02
911.73	226.92
912.03	226.92
912.33	226.88
912.64	226.84
912.94	226.80
913.24	226.77
913.55	226.78
913.85	226.80
914.15	226.80
914.46	226.82
914.76	226.82
915.06	226.82
915.37	226.78
915.67	226.79
915.97	226.77
916.27	226.75
916.58	226.76
916.88	226.73
917.18	226.73
917.49	226.78
917.79	226.76
918.09	226.75
918.39	226.77
918.70	226.79
919.00	226.82
919.30	226.93
919.60	226.96
919.91	226.96
920.21	226.96
920.51	226.97
920.81	226.96
921.12	226.95
921.42	226.94
921.72	226.97
922.02	226.97
922.32	227.03
922.63	227.02
922.93	227.07
923.23	227.07
923.53	227.09
923.83	227.03
924.13	227.06
924.44	227.08
924.74	227.10
925.04	227.12
925.34	227.10
925.64	227.04
925.94	227.03
926.24	227.08
926.55	227.08
926.85	227.09
927.15	227.12
927.45	227.13
927.75	227.11
928.05	227.10
928.35	227.09
928.65	227.09
928.95	227.09
929.26	227.05
929.56	227.05
929.86	227.06
930.16	227.05
930.46	227.04
930.76	227.05
931.06	227.01
931.36	226.99
931.66	226.98
931.96	227.01
932.26	227.01
932.56	226.98
932.86	226.98
933.16	226.98
933.46	226.95
933.76	226.95
934.06	226.98
934.36	227.01
934.66	227.02
934.96	226.98
935.26	227.01
935.56	227.02
935.86	227.03
936.16	227.01
936.46	226.99
936.76	226.98
937.06	226.96
937.36	226.96
937.66	226.96
937.96	226.94
938.26	226.89
938.56	226.88
938.86	226.84
939.16	226.87
939.46	226.86
939.76	226.85
940.06	226.83
940.35	226.82
940.65	226.76
940.95	226.75
941.25	226.73
941.55	226.72
941.85	226.68
942.15	226.66
942.45	226.68
942.75	226.68
943.04	226.74
943.34	226.74
943.64	226.70
943.94	226.68
944.24	226.69
944.54	226.70
944.84	226.71
945.13	226.71
945.43	226.67
945.73	226.67
946.03	226.66
946.33	226.65
946.62	226.64
946.92	226.62
947.22	226.60
947.52	226.62
947.82	226.63
948.11	226.65
948.41	226.63
948.71	226.63
949.01	226.61
949.31	226.57
949.60	226.58
949.90	226.62
950.20	226.64
950.50	226.63
950.79	226.62
951.09	226.62
951.39	226.62
951.69	226.61
951.98	226.63
952.28	226.64
952.58	226.63
952.87	226.61
953.17	226.63
953.47	226.65
953.76	226.64
954.06	226.62
954.36	226.61
954.66	226.62
954.95	226.65
955.25	226.67
955.55	226.67
955.84	226.65
956.14	226.69
956.44	226.68
956.73	226.68
957.03	226.72
957.32	226.75
957.62	226.78
957.92	226.80
958.21	226.80
958.51	226.92
958.81	226.92
959.10	227.00
959.40	227.01
959.69	227.01
959.99	227.08
960.29	227.08
960.58	227.11
960.88	227.18
961.17	227.16
961.47	227.19
961.76	227.17
962.06	227.18
962.36	227.17
962.65	227.18
962.95	227.22
963.24	227.19
963.54	227.18
963.83	227.22
964.13	227.22
964.42	227.17
964.72	227.10
965.01	227.13
965.31	227.08
965.60	227.11
965.90	227.19
966.19	227.14
966.49	227.17
966.78	227.15
967.08	227.12
967.37	227.15
967.67	227.15
967.96	227.19
968.26	227.23
968.55	227.26
968.85	227.27
969.14	227.22
969.43	227.24
969.73	227.23
970.02	227.17
970.32	227.16
970.61	227.20
970.91	227.15
971.20	227.14
971.49	227.15
971.79	227.14
972.08	227.02
972.38	227.04
972.67	227.03
972.96	227.01
973.26	227.00
973.55	227.00
973.85	226.97
974.14	226.93
974.43	226.88
974.73	226.83
975.02	226.80
975.31	226.82
975.61	226.82
975.90	226.81
976.19	226.80
976.49	226.81
976.78	226.81
977.07	226.79
977.37	226.80
977.66	226.77
977.95	226.73
978.24	226.75
978.54	226.75
978.83	226.74
979.12	226.74
979.42	226.75
979.71	226.72
980.00	226.69
980.29	226.71
980.59	226.69
980.88	226.69
981.17	226.67
981.46	226.66
981.76	226.65
982.05	226.70
982.34	226.70
982.63	226.68
982.93	226.64
983.22	226.68
983.51	226.68
983.80	226.71
984.09	226.73
984.39	226.73
984.68	226.72
984.97	226.71
985.26	226.68
985.55	226.66
985.85	226.65
986.14	226.67
986.43	226.67
986.72	226.66
987.01	226.66
987.30	226.65
987.59	226.68
987.89	226.68
988.18	226.64
988.47	226.65
988.76	226.62
989.05	226.62
989.34	226.59
989.63	226.62
989.92	226.60
990.22	226.58
990.51	226.57
990.80	226.55
991.09	226.57
991.38	226.63
991.67	226.64
991.96	226.62
992.25	226.62
992.54	226.60
992.83	226.63
993.12	226.62
993.41	226.68
993.70	226.71
993.99	226.74
994.28	226.72
994.58	226.73
994.87	226.77
995.16	226.78
995.45	226.79
995.74	226.74
996.03	226.76
996.32	226.81
996.61	226.85
996.90	226.83
997.19	226.86
997.48	226.85
997.77	226.83
998.06	226.87
998.34	226.89
998.63	226.92
998.92	226.94
999.21	226.99
999.50	226.98
999.79	226.97
1000.08	226.96
1000.37	226.99
1000.66	227.00
1000.95	227.07
1001.24	227.08
1001.53	227.11
1001.82	227.14
1002.11	227.13
1002.40	227.11
1002.68	227.12
1002.97	227.21
1003.26	227.20
1003.55	227.16
1003.84	227.20
1004.13	227.23
1004.42	227.21
1004.71	227.22
1004.99	227.21
1005.28	227.20
1005.57	227.16
1005.86	227.15
1006.15	227.16
1006.44	227.14
1006.72	227.15
1007.01	227.09
1007.30	227.10
1007.59	227.08
1007.88	227.07
1008.17	227.05
1008.45	227.04
1008.74	227.01
1009.03	226.99
1009.32	226.95
1009.60	226.98
1009.89	226.93
1010.18	226.90
1010.47	226.90
1010.76	226.86
1011.04	226.86
1011.33	226.90
1011.62	226.92
1011.91	226.89
1012.19	226.90
1012.48	226.89
1012.77	226.86
1013.05	226.90
1013.34	226.89
1013.63	226.87
1013.92	226.86
1014.20	226.88
1014.49	226.91
1014.78	226.91
1015.06	226.86
1015.35	226.85
1015.64	226.84
1015.92	226.83
1016.21	226.80
1016.50	226.79
1016.78	226.82
1017.07	226.78
1017.36	226.72
1017.64	226.68
1017.93	226.70
1018.22	226.66
1018.50	226.63
1018.79	226.64
1019.08	226.58
1019.36	226.58
1019.65	226.58
1019.93	226.59
1020.22	226.59
1020.51	226.61
1020.79	226.58
1021.08	226.49
1021.36	226.35
1021.65	226.73
1021.94	226.27
1022.22	226.81
1022.51	226.62
1022.79	226.84
1023.08	226.66
1023.36	227.68
1023.65	226.17
>>>>>End Processed Spectral Data<<<<<
