SpectraSuite Data File
++++++++++++++++++++++++++++++++++++
Date: Fri Feb 01 15:45:01 EST 2013
User: group
Dark Spectrum Present: No
Reference Spectrum Present: No
Number of Sampled Component Spectra: 1
Spectrometers: USB2E7196
Integration Time (usec): 35000 (USB2E7196)
Spectra Averaged: 100 (USB2E7196)
Boxcar Smoothing: 10 (USB2E7196)
Correct for Electrical Dark: No (USB2E7196)
Strobe/Lamp Enabled: No (USB2E7196)
Correct for Detector Non-linearity: No (USB2E7196)
Correct for Stray Light: No (USB2E7196)
Number of Pixels in Processed Spectrum: 2048
>>>>>Begin Processed Spectral Data<<<<<
339.09	0.00
339.48	214.91
339.86	216.50
340.24	217.92
340.63	219.62
341.01	221.55
341.39	222.14
341.78	223.35
342.16	223.97
342.54	225.05
342.93	213.27
343.31	224.03
343.69	224.59
344.07	225.03
344.46	225.44
344.84	225.77
345.22	226.04
345.60	226.27
345.99	226.46
346.37	226.60
346.75	226.69
347.13	226.75
347.52	226.80
347.90	226.86
348.28	226.90
348.66	226.94
349.05	226.94
349.43	226.96
349.81	226.99
350.19	227.07
350.57	227.09
350.96	227.15
351.34	227.25
351.72	227.29
352.10	227.40
352.48	227.47
352.87	227.55
353.25	227.59
353.63	227.64
354.01	227.69
354.39	227.78
354.77	227.85
355.15	227.92
355.54	227.95
355.92	227.99
356.30	228.02
356.68	228.16
357.06	228.24
357.44	228.30
357.82	228.38
358.20	228.41
358.58	228.48
358.97	228.53
359.35	228.59
359.73	228.66
360.11	228.72
360.49	228.76
360.87	228.81
361.25	228.88
361.63	228.95
362.01	228.98
362.39	228.99
362.77	229.06
363.15	229.11
363.53	229.17
363.91	229.21
364.29	229.26
364.67	229.18
365.05	229.16
365.43	229.20
365.81	229.21
366.19	229.26
366.57	229.29
366.95	229.31
367.33	229.27
367.71	229.29
368.09	229.27
368.47	229.29
368.85	229.25
369.23	229.24
369.61	229.21
369.99	229.22
370.37	229.20
370.75	229.23
371.13	229.17
371.51	229.09
371.89	229.03
372.27	228.98
372.65	228.96
373.03	228.93
373.41	228.87
373.78	228.78
374.16	228.68
374.54	228.59
374.92	228.55
375.30	228.50
375.68	228.41
376.06	228.38
376.44	228.30
376.82	228.23
377.19	228.16
377.57	228.07
377.95	228.01
378.33	227.96
378.71	227.82
379.09	227.77
379.47	227.73
379.84	227.68
380.22	227.62
380.60	227.54
380.98	227.49
381.36	227.38
381.73	227.33
382.11	227.31
382.49	227.27
382.87	227.18
383.25	227.14
383.62	227.18
384.00	227.10
384.38	227.04
384.76	227.01
385.13	227.00
385.51	226.98
385.89	226.91
386.27	226.86
386.64	226.82
387.02	226.77
387.40	226.73
387.78	226.70
388.15	226.65
388.53	226.63
388.91	226.57
389.29	226.56
389.66	226.52
390.04	226.44
390.42	226.43
390.79	226.39
391.17	226.33
391.55	226.23
391.92	226.20
392.30	226.22
392.68	226.19
393.05	226.14
393.43	226.11
393.81	226.10
394.18	226.07
394.56	226.05
394.94	226.08
395.31	226.11
395.69	226.12
396.06	226.16
396.44	226.14
396.82	226.17
397.19	226.25
397.57	226.31
397.95	226.37
398.32	226.37
398.70	226.41
399.07	226.52
399.45	226.57
399.82	226.62
400.20	226.64
400.58	226.71
400.95	226.74
401.33	226.84
401.70	227.01
402.08	227.13
402.45	227.25
402.83	227.35
403.20	227.45
403.58	227.56
403.95	227.69
404.33	227.87
404.71	227.99
405.08	228.17
405.46	228.29
405.83	228.46
406.21	228.64
406.58	228.85
406.96	229.01
407.33	229.18
407.70	229.39
408.08	229.68
408.45	229.92
408.83	230.19
409.20	230.39
409.58	230.57
409.95	230.81
410.33	231.07
410.70	231.32
411.08	231.65
411.45	231.99
411.82	232.30
412.20	232.65
412.57	233.07
412.95	233.36
413.32	233.77
413.69	234.19
414.07	234.62
414.44	235.10
414.82	235.57
415.19	236.14
415.56	236.73
415.94	237.26
416.31	237.89
416.68	238.53
417.06	239.27
417.43	239.94
417.81	240.76
418.18	241.53
418.55	242.40
418.93	243.26
419.30	244.15
419.67	245.11
420.04	246.05
420.42	247.07
420.79	248.28
421.16	249.45
421.54	250.65
421.91	251.87
422.28	253.12
422.66	254.45
423.03	255.76
423.40	257.06
423.77	258.47
424.15	259.89
424.52	261.39
424.89	262.99
425.26	264.55
425.64	265.98
426.01	267.64
426.38	269.27
426.75	270.93
427.13	272.64
427.50	274.43
427.87	276.33
428.24	278.19
428.61	279.90
428.99	281.88
429.36	283.98
429.73	286.07
430.10	288.09
430.47	290.17
430.85	292.26
431.22	294.51
431.59	296.92
431.96	299.17
432.33	301.68
432.70	304.07
433.08	306.87
433.45	309.50
433.82	312.06
434.19	314.98
434.56	317.81
434.93	320.44
435.30	323.05
435.68	325.91
436.05	328.75
436.42	331.55
436.79	334.05
437.16	336.76
437.53	339.56
437.90	342.36
438.27	345.08
438.64	347.95
439.01	350.53
439.38	352.77
439.75	354.95
440.13	357.39
440.50	359.70
440.87	361.57
441.24	363.57
441.61	365.73
441.98	367.20
442.35	369.00
442.72	370.90
443.09	372.72
443.46	373.77
443.83	374.37
444.20	374.90
444.57	375.71
444.94	375.95
445.31	376.28
445.68	376.66
446.05	376.75
446.42	376.36
446.79	375.95
447.16	375.47
447.53	375.13
447.90	373.96
448.27	372.79
448.64	371.18
449.01	369.97
449.37	368.02
449.74	366.13
450.11	363.87
450.48	361.36
450.85	358.81
451.22	356.60
451.59	354.57
451.96	352.63
452.33	350.05
452.70	347.67
453.07	344.84
453.43	341.91
453.80	339.13
454.17	336.40
454.54	333.88
454.91	331.14
455.28	328.50
455.65	326.07
456.02	323.60
456.38	321.47
456.75	318.82
457.12	316.59
457.49	314.36
457.86	312.20
458.23	310.40
458.59	308.32
458.96	306.27
459.33	304.41
459.70	302.54
460.07	301.01
460.43	299.34
460.80	297.73
461.17	296.29
461.54	294.84
461.91	293.40
462.27	291.95
462.64	290.77
463.01	289.35
463.38	288.03
463.74	286.69
464.11	285.50
464.48	284.48
464.85	283.31
465.21	282.48
465.58	281.54
465.95	280.40
466.32	279.55
466.68	278.64
467.05	277.76
467.42	276.84
467.78	275.94
468.15	275.06
468.52	274.42
468.88	273.53
469.25	272.74
469.62	272.16
469.98	271.46
470.35	270.80
470.72	270.26
471.08	269.59
471.45	269.05
471.82	268.54
472.18	267.93
472.55	267.51
472.92	266.95
473.28	266.50
473.65	266.08
474.02	265.59
474.38	265.23
474.75	264.90
475.11	264.58
475.48	264.31
475.85	264.08
476.21	263.81
476.58	263.69
476.94	263.56
477.31	263.39
477.67	263.24
478.04	263.14
478.41	263.06
478.77	263.11
479.14	263.06
479.50	263.04
479.87	263.10
480.23	263.18
480.60	263.26
480.96	263.35
481.33	263.56
481.69	263.77
482.06	263.95
482.42	264.12
482.79	264.35
483.15	264.66
483.52	265.03
483.88	265.36
484.25	265.71
484.61	266.11
484.98	266.53
485.34	267.10
485.71	267.64
486.07	268.23
486.44	268.80
486.80	269.50
487.17	270.26
487.53	271.07
487.90	271.93
488.26	272.83
488.62	273.79
488.99	274.76
489.35	275.77
489.72	276.90
490.08	278.13
490.44	279.39
490.81	280.66
491.17	281.97
491.54	283.48
491.90	285.02
492.26	286.68
492.63	288.44
492.99	290.23
493.36	292.15
493.72	294.21
494.08	296.30
494.45	298.55
494.81	300.87
495.17	303.34
495.54	305.91
495.90	308.64
496.26	311.46
496.63	314.39
496.99	317.49
497.35	320.75
497.72	324.14
498.08	327.64
498.44	331.37
498.80	335.35
499.17	339.38
499.53	343.56
499.89	347.99
500.26	352.50
500.62	357.17
500.98	362.13
501.34	367.17
501.71	372.48
502.07	377.90
502.43	383.59
502.79	389.36
503.16	395.42
503.52	401.70
503.88	408.13
504.24	414.81
504.60	421.74
504.97	428.89
505.33	436.21
505.69	443.93
506.05	451.70
506.41	459.63
506.78	467.75
507.14	476.19
507.50	484.91
507.86	493.89
508.22	503.05
508.59	512.29
508.95	521.93
509.31	531.80
509.67	541.94
510.03	552.24
510.39	562.85
510.75	573.70
511.12	584.61
511.48	595.92
511.84	607.40
512.20	618.89
512.56	630.86
512.92	643.08
513.28	655.38
513.64	667.86
514.00	680.52
514.37	693.53
514.73	706.56
515.09	719.58
515.45	732.94
515.81	746.58
516.17	760.62
516.53	774.69
516.89	788.87
517.25	803.05
517.61	817.45
517.97	831.86
518.33	846.27
518.69	861.04
519.05	876.07
519.41	891.17
519.77	906.77
520.13	922.23
520.49	937.55
520.85	952.98
521.21	968.73
521.57	985.04
521.93	1000.76
522.29	1017.17
522.65	1033.42
523.01	1049.67
523.37	1065.56
523.73	1081.69
524.09	1097.78
524.45	1114.16
524.81	1130.78
525.17	1147.71
525.53	1164.67
525.89	1181.57
526.25	1198.42
526.61	1214.84
526.97	1231.66
527.33	1248.14
527.68	1264.75
528.04	1281.26
528.40	1298.01
528.76	1315.14
529.12	1331.71
529.48	1348.61
529.84	1364.74
530.20	1381.39
530.56	1398.44
530.91	1415.95
531.27	1432.77
531.63	1449.17
531.99	1465.65
532.35	1481.63
532.71	1497.41
533.07	1513.60
533.42	1529.49
533.78	1545.54
534.14	1561.75
534.50	1577.03
534.86	1592.93
535.21	1608.20
535.57	1624.17
535.93	1639.61
536.29	1654.22
536.65	1669.28
537.00	1684.21
537.36	1699.36
537.72	1713.79
538.08	1728.14
538.44	1741.92
538.79	1755.67
539.15	1769.45
539.51	1783.31
539.87	1797.54
540.22	1811.30
540.58	1825.06
540.94	1838.35
541.29	1851.13
541.65	1863.88
542.01	1877.03
542.37	1889.33
542.72	1901.63
543.08	1913.46
543.44	1925.84
543.79	1937.15
544.15	1948.20
544.51	1959.63
544.87	1970.69
545.22	1981.61
545.58	1991.77
545.94	2001.52
546.29	2011.39
546.65	2021.20
547.01	2030.37
547.36	2039.17
547.72	2047.53
548.07	2055.44
548.43	2063.68
548.79	2071.85
549.14	2079.37
549.50	2086.90
549.86	2094.51
550.21	2101.82
550.57	2109.00
550.92	2115.51
551.28	2122.63
551.64	2129.60
551.99	2136.01
552.35	2142.14
552.70	2148.31
553.06	2154.45
553.41	2160.82
553.77	2166.85
554.13	2172.89
554.48	2178.94
554.84	2184.35
555.19	2189.64
555.55	2194.73
555.90	2199.05
556.26	2203.79
556.61	2208.46
556.97	2212.57
557.32	2216.75
557.68	2220.84
558.03	2225.15
558.39	2228.98
558.74	2233.47
559.10	2237.26
559.45	2241.01
559.81	2245.35
560.16	2249.10
560.52	2252.16
560.87	2255.67
561.23	2258.43
561.58	2261.51
561.94	2264.17
562.29	2266.60
562.64	2269.30
563.00	2271.82
563.35	2275.46
563.71	2278.65
564.06	2281.93
564.42	2284.84
564.77	2287.32
565.12	2289.63
565.48	2291.42
565.83	2293.28
566.19	2294.68
566.54	2295.68
566.89	2296.86
567.25	2297.39
567.60	2298.62
567.96	2300.35
568.31	2301.09
568.66	2302.15
569.02	2302.78
569.37	2302.97
569.72	2303.89
570.08	2304.04
570.43	2304.10
570.78	2303.48
571.14	2301.97
571.49	2300.44
571.84	2300.17
572.20	2298.92
572.55	2297.90
572.90	2296.40
573.26	2294.88
573.61	2293.13
573.96	2291.21
574.31	2288.09
574.67	2285.11
575.02	2281.57
575.37	2278.15
575.72	2274.26
576.08	2270.84
576.43	2267.56
576.78	2263.87
577.13	2260.63
577.49	2257.64
577.84	2254.23
578.19	2250.38
578.54	2246.64
578.90	2242.52
579.25	2236.92
579.60	2232.10
579.95	2226.91
580.30	2221.89
580.66	2216.69
581.01	2211.61
581.36	2206.79
581.71	2202.79
582.06	2198.16
582.42	2193.67
582.77	2188.42
583.12	2183.88
583.47	2179.10
583.82	2173.93
584.17	2168.66
584.53	2163.15
584.88	2157.34
585.23	2151.46
585.58	2146.04
585.93	2140.66
586.28	2135.81
586.63	2130.65
586.98	2125.41
587.34	2120.84
587.69	2115.94
588.04	2110.57
588.39	2105.02
588.74	2098.56
589.09	2092.25
589.44	2085.49
589.79	2079.53
590.14	2073.89
590.49	2067.33
590.84	2060.97
591.19	2054.99
591.54	2048.61
591.89	2041.19
592.25	2034.45
592.60	2027.34
592.95	2019.75
593.30	2012.37
593.65	2004.78
594.00	1997.74
594.35	1990.61
594.70	1982.58
595.05	1975.29
595.40	1968.25
595.75	1960.70
596.10	1954.49
596.45	1947.73
596.80	1941.68
597.15	1934.96
597.50	1927.80
597.85	1921.39
598.19	1914.75
598.54	1907.64
598.89	1900.94
599.24	1895.10
599.59	1888.41
599.94	1882.18
600.29	1875.85
600.64	1869.27
600.99	1861.84
601.34	1855.00
601.69	1847.98
602.04	1841.04
602.39	1833.67
602.74	1826.84
603.08	1820.12
603.43	1813.29
603.78	1806.06
604.13	1798.73
604.48	1791.37
604.83	1784.55
605.18	1777.49
605.53	1769.45
605.87	1761.32
606.22	1754.05
606.57	1745.98
606.92	1738.62
607.27	1731.44
607.62	1724.62
607.96	1717.21
608.31	1710.54
608.66	1702.97
609.01	1695.46
609.36	1687.81
609.70	1679.77
610.05	1671.53
610.40	1663.80
610.75	1655.54
611.10	1647.89
611.44	1639.48
611.79	1631.48
612.14	1622.87
612.49	1613.74
612.83	1605.46
613.18	1597.45
613.53	1589.35
613.88	1580.79
614.22	1572.50
614.57	1563.85
614.92	1555.65
615.27	1548.15
615.61	1539.83
615.96	1531.84
616.31	1524.24
616.65	1516.97
617.00	1509.43
617.35	1501.90
617.70	1493.52
618.04	1484.99
618.39	1476.81
618.74	1469.22
619.08	1460.98
619.43	1453.37
619.78	1446.41
620.12	1439.16
620.47	1431.53
620.82	1423.39
621.16	1416.09
621.51	1408.55
621.85	1400.88
622.20	1392.35
622.55	1384.03
622.89	1376.26
623.24	1368.56
623.59	1361.07
623.93	1353.51
624.28	1346.28
624.62	1338.73
624.97	1331.63
625.32	1324.80
625.66	1317.68
626.01	1310.48
626.35	1302.98
626.70	1295.18
627.04	1287.41
627.39	1279.56
627.73	1272.14
628.08	1265.22
628.43	1257.83
628.77	1250.46
629.12	1242.97
629.46	1235.85
629.81	1228.47
630.15	1221.19
630.50	1213.78
630.84	1205.53
631.19	1197.68
631.53	1190.16
631.88	1182.52
632.22	1174.85
632.57	1167.57
632.91	1160.01
633.26	1152.63
633.60	1145.33
633.95	1138.34
634.29	1131.41
634.64	1124.84
634.98	1117.53
635.32	1110.41
635.67	1103.88
636.01	1097.17
636.36	1090.26
636.70	1083.75
637.05	1077.14
637.39	1070.68
637.73	1064.09
638.08	1058.32
638.42	1052.25
638.77	1045.85
639.11	1039.21
639.45	1032.88
639.80	1026.27
640.14	1019.94
640.49	1013.40
640.83	1007.04
641.17	1000.65
641.52	994.29
641.86	987.80
642.20	981.98
642.55	975.68
642.89	969.13
643.23	962.57
643.58	956.93
643.92	950.75
644.26	944.66
644.61	938.66
644.95	932.66
645.29	926.00
645.64	919.24
645.98	912.82
646.32	907.08
646.66	900.96
647.01	895.16
647.35	889.39
647.69	883.59
648.04	878.06
648.38	872.28
648.72	866.30
649.06	860.34
649.41	854.45
649.75	848.44
650.09	842.50
650.43	836.72
650.78	830.45
651.12	824.48
651.46	818.80
651.80	812.99
652.14	807.67
652.49	802.40
652.83	797.26
653.17	791.50
653.51	785.72
653.85	780.34
654.20	774.71
654.54	768.71
654.88	762.93
655.22	757.02
655.56	751.38
655.90	745.91
656.25	740.64
656.59	735.26
656.93	730.22
657.27	725.07
657.61	719.66
657.95	714.62
658.29	709.55
658.64	704.28
658.98	699.03
659.32	693.51
659.66	688.22
660.00	682.86
660.34	678.00
660.68	673.11
661.02	668.09
661.36	663.40
661.70	658.87
662.05	654.57
662.39	650.33
662.73	645.90
663.07	641.56
663.41	637.02
663.75	632.48
664.09	627.88
664.43	623.51
664.77	619.41
665.11	615.16
665.45	611.01
665.79	606.84
666.13	602.69
666.47	598.63
666.81	594.49
667.15	590.45
667.49	586.62
667.83	582.82
668.17	578.94
668.51	574.80
668.85	570.79
669.19	566.93
669.53	563.04
669.87	559.13
670.21	555.40
670.55	551.81
670.89	548.42
671.23	545.00
671.57	541.44
671.91	537.86
672.25	534.33
672.58	530.80
672.92	527.49
673.26	524.32
673.60	521.18
673.94	518.06
674.28	515.11
674.62	512.08
674.96	508.96
675.30	505.96
675.64	503.09
675.97	500.30
676.31	497.38
676.65	494.46
676.99	491.74
677.33	488.83
677.67	485.93
678.01	482.84
678.34	479.90
678.68	477.04
679.02	474.24
679.36	471.49
679.70	468.82
680.04	466.02
680.37	463.13
680.71	460.29
681.05	457.67
681.39	454.95
681.73	452.29
682.06	449.71
682.40	447.16
682.74	444.61
683.08	442.05
683.42	439.46
683.75	436.96
684.09	434.43
684.43	432.00
684.77	429.62
685.10	427.27
685.44	424.92
685.78	422.63
686.12	420.40
686.45	418.09
686.79	415.77
687.13	413.55
687.46	411.36
687.80	409.23
688.14	407.04
688.48	404.96
688.81	402.76
689.15	400.70
689.49	398.56
689.82	396.48
690.16	394.44
690.50	392.52
690.83	390.51
691.17	388.56
691.51	386.64
691.84	384.77
692.18	382.82
692.52	380.85
692.85	378.94
693.19	377.02
693.52	375.23
693.86	373.40
694.20	371.66
694.53	369.89
694.87	368.10
695.21	366.31
695.54	364.47
695.88	362.70
696.21	360.97
696.55	359.35
696.88	357.67
697.22	355.96
697.56	354.31
697.89	352.71
698.23	351.07
698.56	349.48
698.90	347.86
699.23	346.24
699.57	344.68
699.90	343.14
700.24	341.62
700.58	340.07
700.91	338.60
701.25	337.12
701.58	335.77
701.92	334.40
702.25	333.00
702.59	331.73
702.92	330.45
703.26	329.11
703.59	327.78
703.93	326.62
704.26	325.43
704.60	324.14
704.93	322.88
705.26	321.67
705.60	320.45
705.93	319.37
706.27	318.36
706.60	317.34
706.94	316.31
707.27	315.13
707.61	314.09
707.94	313.05
708.27	311.94
708.61	310.82
708.94	309.79
709.28	308.84
709.61	307.83
709.94	306.87
710.28	305.87
710.61	304.91
710.95	303.83
711.28	302.88
711.61	301.96
711.95	301.04
712.28	300.07
712.61	299.09
712.95	298.12
713.28	297.23
713.61	296.30
713.95	295.38
714.28	294.59
714.61	293.72
714.95	292.85
715.28	292.05
715.61	291.19
715.95	290.34
716.28	289.50
716.61	288.67
716.95	287.84
717.28	287.08
717.61	286.26
717.94	285.49
718.28	284.72
718.61	283.98
718.94	283.28
719.27	282.62
719.61	282.00
719.94	281.33
720.27	280.57
720.60	279.89
720.94	279.26
721.27	278.69
721.60	278.12
721.93	277.53
722.27	276.94
722.60	276.37
722.93	275.77
723.26	275.22
723.59	274.64
723.93	274.08
724.26	273.52
724.59	273.00
724.92	272.49
725.25	271.95
725.59	271.45
725.92	270.93
726.25	270.40
726.58	269.90
726.91	269.39
727.24	268.98
727.57	268.52
727.91	268.01
728.24	267.52
728.57	267.03
728.90	266.58
729.23	266.08
729.56	265.70
729.89	265.25
730.22	264.75
730.55	264.30
730.89	263.86
731.22	263.43
731.55	263.02
731.88	262.59
732.21	262.20
732.54	261.74
732.87	261.29
733.20	260.91
733.53	260.53
733.86	260.17
734.19	259.77
734.52	259.37
734.85	259.04
735.18	258.64
735.51	258.25
735.84	257.90
736.17	257.58
736.50	257.17
736.83	256.93
737.16	256.62
737.49	256.28
737.82	255.92
738.15	255.61
738.48	255.28
738.81	254.97
739.14	254.65
739.47	254.34
739.80	254.05
740.13	253.74
740.46	253.37
740.79	253.04
741.12	252.76
741.45	252.46
741.78	252.14
742.11	251.82
742.44	251.50
742.77	251.21
743.10	250.91
743.43	250.62
743.75	250.23
744.08	250.10
744.41	249.87
744.74	249.63
745.07	249.35
745.40	249.10
745.73	248.86
746.06	248.58
746.39	248.37
746.71	248.12
747.04	247.86
747.37	247.66
747.70	247.44
748.03	247.19
748.36	246.98
748.68	246.73
749.01	246.48
749.34	246.28
749.67	246.02
750.00	245.82
750.33	245.67
750.65	245.48
750.98	245.12
751.31	244.91
751.64	244.70
751.97	244.51
752.29	244.26
752.62	243.99
752.95	243.78
753.28	243.51
753.60	243.32
753.93	243.16
754.26	242.94
754.59	242.72
754.91	242.50
755.24	242.28
755.57	242.12
755.90	241.95
756.22	241.75
756.55	241.60
756.88	241.43
757.20	241.18
757.53	240.96
757.86	240.78
758.19	240.59
758.51	240.43
758.84	240.22
759.17	240.12
759.49	239.99
759.82	239.85
760.15	239.75
760.47	239.56
760.80	239.38
761.13	239.25
761.45	239.07
761.78	238.92
762.11	238.76
762.43	238.58
762.76	238.44
763.08	238.31
763.41	238.16
763.74	237.98
764.06	237.83
764.39	237.69
764.71	237.58
765.04	237.43
765.37	237.26
765.69	237.13
766.02	236.92
766.34	236.79
766.67	236.66
767.00	236.52
767.32	236.43
767.65	236.39
767.97	236.25
768.30	236.13
768.62	235.99
768.95	235.87
769.27	235.79
769.60	235.68
769.92	235.56
770.25	235.43
770.57	235.32
770.90	235.22
771.22	235.09
771.55	234.98
771.87	234.91
772.20	234.84
772.52	234.84
772.85	234.89
773.17	234.78
773.50	234.68
773.82	234.63
774.15	234.50
774.47	234.34
774.80	234.28
775.12	234.20
775.45	234.16
775.77	234.08
776.09	233.99
776.42	233.92
776.74	233.87
777.07	233.79
777.39	233.74
777.72	233.67
778.04	233.64
778.36	233.57
778.69	233.52
779.01	233.42
779.33	233.29
779.66	233.14
779.98	233.08
780.31	232.99
780.63	232.93
780.95	232.94
781.28	232.90
781.60	232.83
781.92	232.77
782.25	232.73
782.57	232.67
782.89	232.63
783.22	232.57
783.54	232.49
783.86	232.46
784.19	232.38
784.51	232.35
784.83	232.29
785.16	232.24
785.48	232.15
785.80	232.12
786.12	232.07
786.45	232.01
786.77	231.99
787.09	231.95
787.42	231.86
787.74	231.78
788.06	231.72
788.38	231.67
788.71	231.62
789.03	231.60
789.35	231.61
789.67	231.53
789.99	231.49
790.32	231.48
790.64	231.45
790.96	231.48
791.28	231.42
791.61	231.38
791.93	231.36
792.25	231.33
792.57	231.38
792.89	231.31
793.21	231.27
793.54	231.19
793.86	231.18
794.18	231.15
794.50	231.13
794.82	231.10
795.14	231.09
795.47	231.09
795.79	231.02
796.11	230.95
796.43	230.89
796.75	230.88
797.07	230.84
797.39	230.80
797.71	230.74
798.04	230.70
798.36	230.65
798.68	230.59
799.00	230.58
799.32	230.50
799.64	230.48
799.96	230.44
800.28	230.43
800.60	230.38
800.92	230.38
801.24	230.30
801.56	230.28
801.89	230.23
802.21	230.19
802.53	230.15
802.85	230.10
803.17	230.18
803.49	230.08
803.81	230.03
804.13	229.98
804.45	229.92
804.77	229.87
805.09	229.87
805.41	229.80
805.73	229.71
806.05	229.65
806.37	229.61
806.69	229.58
807.01	229.56
807.33	229.51
807.65	229.43
807.97	229.45
808.28	229.41
808.60	229.36
808.92	229.33
809.24	229.33
809.56	229.32
809.88	229.22
810.20	229.23
810.52	229.20
810.84	229.15
811.16	229.09
811.48	229.06
811.80	229.05
812.12	229.07
812.43	229.07
812.75	229.06
813.07	229.01
813.39	228.98
813.71	228.94
814.03	228.93
814.35	228.92
814.67	228.84
814.98	228.82
815.30	228.81
815.62	228.74
815.94	228.67
816.26	228.69
816.58	228.66
816.89	228.64
817.21	228.60
817.53	228.62
817.85	228.62
818.17	228.61
818.48	228.57
818.80	228.56
819.12	228.54
819.44	228.50
819.76	228.49
820.07	228.51
820.39	228.48
820.71	228.48
821.03	228.47
821.34	228.45
821.66	228.46
821.98	228.47
822.30	228.48
822.61	228.53
822.93	228.48
823.25	228.49
823.57	228.45
823.88	228.48
824.20	228.45
824.52	228.45
824.83	228.45
825.15	228.44
825.47	228.43
825.79	228.43
826.10	228.43
826.42	228.44
826.74	228.46
827.05	228.49
827.37	228.48
827.69	228.43
828.00	228.44
828.32	228.41
828.64	228.37
828.95	228.43
829.27	228.39
829.58	228.37
829.90	228.38
830.22	228.40
830.53	228.38
830.85	228.37
831.17	228.34
831.48	228.36
831.80	228.38
832.11	228.34
832.43	228.34
832.75	228.35
833.06	228.38
833.38	228.30
833.69	228.29
834.01	228.27
834.32	228.27
834.64	228.23
834.96	228.23
835.27	228.22
835.59	228.16
835.90	228.16
836.22	228.13
836.53	228.12
836.85	228.09
837.16	228.15
837.48	228.14
837.79	228.17
838.11	228.13
838.42	228.09
838.74	228.10
839.05	228.08
839.37	228.07
839.68	227.99
840.00	227.99
840.31	227.98
840.63	227.98
840.94	227.96
841.26	227.94
841.57	227.90
841.88	227.89
842.20	227.83
842.51	227.79
842.83	227.81
843.14	227.83
843.46	227.81
843.77	227.75
844.08	227.75
844.40	227.69
844.71	227.67
845.03	227.66
845.34	227.62
845.65	227.59
845.97	227.52
846.28	227.51
846.60	227.48
846.91	227.44
847.22	227.39
847.54	227.38
847.85	227.40
848.16	227.37
848.48	227.36
848.79	227.40
849.10	227.39
849.42	227.36
849.73	227.29
850.04	227.29
850.36	227.21
850.67	227.21
850.98	227.22
851.30	227.21
851.61	227.19
851.92	227.19
852.23	227.19
852.55	227.21
852.86	227.23
853.17	227.26
853.49	227.27
853.80	227.29
854.11	227.31
854.42	227.31
854.74	227.31
855.05	227.28
855.36	227.22
855.67	227.23
855.99	227.25
856.30	227.35
856.61	227.35
856.92	227.38
857.23	227.38
857.55	227.37
857.86	227.37
858.17	227.38
858.48	227.35
858.79	227.35
859.11	227.36
859.42	227.35
859.73	227.31
860.04	227.32
860.35	227.31
860.66	227.29
860.98	227.29
861.29	227.32
861.60	227.33
861.91	227.36
862.22	227.35
862.53	227.36
862.84	227.29
863.16	227.33
863.47	227.33
863.78	227.30
864.09	227.33
864.40	227.39
864.71	227.38
865.02	227.44
865.33	227.44
865.64	227.43
865.95	227.43
866.27	227.49
866.58	227.49
866.89	227.51
867.20	227.50
867.51	227.50
867.82	227.52
868.13	227.55
868.44	227.57
868.75	227.56
869.06	227.55
869.37	227.50
869.68	227.45
869.99	227.46
870.30	227.48
870.61	227.47
870.92	227.42
871.23	227.45
871.54	227.43
871.85	227.45
872.16	227.47
872.47	227.49
872.78	227.44
873.09	227.43
873.40	227.42
873.71	227.46
874.02	227.45
874.33	227.41
874.64	227.39
874.95	227.38
875.26	227.40
875.56	227.39
875.87	227.39
876.18	227.38
876.49	227.48
876.80	227.48
877.11	227.47
877.42	227.48
877.73	227.46
878.04	227.44
878.35	227.45
878.66	227.41
878.96	227.39
879.27	227.35
879.58	227.33
879.89	227.33
880.20	227.33
880.51	227.31
880.82	227.33
881.12	227.32
881.43	227.31
881.74	227.24
882.05	227.23
882.36	227.23
882.67	227.23
882.97	227.11
883.28	227.09
883.59	227.06
883.90	227.06
884.21	227.08
884.51	227.08
884.82	227.06
885.13	227.06
885.44	227.06
885.74	227.08
886.05	227.06
886.36	227.04
886.67	226.99
886.98	227.04
887.28	227.05
887.59	227.07
887.90	227.09
888.20	227.10
888.51	227.11
888.82	227.13
889.13	227.13
889.43	227.19
889.74	227.18
890.05	227.20
890.35	227.17
890.66	227.11
890.97	227.08
891.28	227.07
891.58	227.06
891.89	227.09
892.20	227.08
892.50	227.10
892.81	227.08
893.12	227.08
893.42	227.02
893.73	226.99
894.04	226.97
894.34	226.94
894.65	226.93
894.95	226.91
895.26	226.92
895.57	226.97
895.87	226.90
896.18	226.91
896.48	226.89
896.79	226.90
897.10	226.93
897.40	226.97
897.71	226.96
898.01	226.96
898.32	226.95
898.63	226.93
898.93	226.94
899.24	226.95
899.54	226.94
899.85	226.96
900.15	226.97
900.46	226.98
900.76	227.01
901.07	226.98
901.38	227.00
901.68	227.00
901.99	226.96
902.29	226.98
902.60	227.00
902.90	227.04
903.21	227.04
903.51	227.04
903.82	227.05
904.12	227.03
904.43	227.03
904.73	227.01
905.03	227.05
905.34	227.13
905.64	227.14
905.95	227.15
906.25	227.10
906.56	227.09
906.86	227.10
907.17	227.10
907.47	227.15
907.77	227.14
908.08	227.12
908.38	227.11
908.69	227.11
908.99	227.12
909.30	227.11
909.60	227.10
909.90	227.09
910.21	227.09
910.51	227.10
910.81	227.12
911.12	227.14
911.42	227.14
911.73	227.06
912.03	227.05
912.33	227.09
912.64	227.10
912.94	227.13
913.24	227.09
913.55	227.09
913.85	227.05
914.15	227.07
914.46	227.08
914.76	227.05
915.06	227.01
915.37	226.99
915.67	226.97
915.97	227.00
916.27	227.00
916.58	226.97
916.88	226.95
917.18	226.92
917.49	227.01
917.79	227.00
918.09	227.03
918.39	227.05
918.70	227.02
919.00	227.03
919.30	227.05
919.60	227.07
919.91	227.04
920.21	227.05
920.51	227.01
920.81	227.02
921.12	227.04
921.42	227.07
921.72	227.06
922.02	227.04
922.32	227.05
922.63	227.04
922.93	227.10
923.23	227.13
923.53	227.10
923.83	227.03
924.13	227.04
924.44	227.03
924.74	227.02
925.04	227.04
925.34	227.03
925.64	227.01
925.94	226.98
926.24	227.04
926.55	227.02
926.85	227.05
927.15	227.05
927.45	227.06
927.75	227.05
928.05	227.05
928.35	227.06
928.65	227.05
928.95	227.03
929.26	226.96
929.56	226.98
929.86	227.02
930.16	226.98
930.46	226.94
930.76	226.94
931.06	226.91
931.36	226.91
931.66	226.95
931.96	226.93
932.26	226.94
932.56	226.87
932.86	226.88
933.16	226.85
933.46	226.85
933.76	226.82
934.06	226.82
934.36	226.86
934.66	226.86
934.96	226.85
935.26	226.89
935.56	226.91
935.86	226.87
936.16	226.82
936.46	226.82
936.76	226.84
937.06	226.84
937.36	226.88
937.66	226.88
937.96	226.87
938.26	226.88
938.56	226.87
938.86	226.87
939.16	226.90
939.46	226.93
939.76	226.93
940.06	226.94
940.35	226.92
940.65	226.88
940.95	226.88
941.25	226.89
941.55	226.85
941.85	226.88
942.15	226.91
942.45	226.95
942.75	226.98
943.04	226.97
943.34	226.96
943.64	226.95
943.94	226.91
944.24	226.89
944.54	226.91
944.84	226.93
945.13	226.95
945.43	226.93
945.73	226.94
946.03	226.95
946.33	226.94
946.62	226.96
946.92	226.93
947.22	226.96
947.52	226.96
947.82	227.01
948.11	226.99
948.41	226.96
948.71	226.96
949.01	226.94
949.31	226.94
949.60	226.96
949.90	226.96
950.20	226.99
950.50	226.99
950.79	226.98
951.09	227.01
951.39	227.01
951.69	227.00
951.98	227.02
952.28	227.03
952.58	227.06
952.87	227.08
953.17	227.10
953.47	227.08
953.76	227.08
954.06	227.04
954.36	227.05
954.66	227.08
954.95	227.09
955.25	227.09
955.55	227.08
955.84	227.05
956.14	227.06
956.44	227.07
956.73	227.07
957.03	227.06
957.32	227.07
957.62	227.06
957.92	227.09
958.21	227.07
958.51	227.15
958.81	227.17
959.10	227.14
959.40	227.17
959.69	227.15
959.99	227.14
960.29	227.15
960.58	227.14
960.88	227.14
961.17	227.12
961.47	227.14
961.76	227.16
962.06	227.21
962.36	227.16
962.65	227.15
962.95	227.12
963.24	227.13
963.54	227.11
963.83	227.10
964.13	227.07
964.42	227.02
964.72	226.95
965.01	226.89
965.31	226.89
965.60	226.85
965.90	226.90
966.19	226.89
966.49	226.88
966.78	226.86
967.08	226.84
967.37	226.85
967.67	226.82
967.96	226.80
968.26	226.77
968.55	226.76
968.85	226.76
969.14	226.76
969.43	226.74
969.73	226.72
970.02	226.72
970.32	226.71
970.61	226.73
970.91	226.68
971.20	226.68
971.49	226.65
971.79	226.65
972.08	226.60
972.38	226.62
972.67	226.61
972.96	226.63
973.26	226.64
973.55	226.64
973.85	226.64
974.14	226.62
974.43	226.63
974.73	226.66
975.02	226.65
975.31	226.67
975.61	226.67
975.90	226.64
976.19	226.62
976.49	226.65
976.78	226.65
977.07	226.65
977.37	226.66
977.66	226.67
977.95	226.66
978.24	226.66
978.54	226.67
978.83	226.65
979.12	226.62
979.42	226.59
979.71	226.61
980.00	226.64
980.29	226.68
980.59	226.62
980.88	226.64
981.17	226.63
981.46	226.63
981.76	226.62
982.05	226.68
982.34	226.71
982.63	226.70
982.93	226.71
983.22	226.76
983.51	226.78
983.80	226.80
984.09	226.81
984.39	226.82
984.68	226.80
984.97	226.81
985.26	226.87
985.55	226.89
985.85	226.84
986.14	226.83
986.43	226.85
986.72	226.90
987.01	226.89
987.30	226.92
987.59	226.94
987.89	226.96
988.18	226.91
988.47	226.90
988.76	226.91
989.05	226.90
989.34	226.89
989.63	226.92
989.92	226.94
990.22	226.92
990.51	226.90
990.80	226.90
991.09	226.94
991.38	226.94
991.67	226.94
991.96	226.95
992.25	226.99
992.54	226.98
992.83	226.97
993.12	226.95
993.41	226.96
993.70	226.99
993.99	227.03
994.28	227.06
994.58	227.12
994.87	227.13
995.16	227.18
995.45	227.17
995.74	227.11
996.03	227.10
996.32	227.14
996.61	227.18
996.90	227.21
997.19	227.16
997.48	227.14
997.77	227.12
998.06	227.14
998.34	227.10
998.63	227.08
998.92	227.08
999.21	227.12
999.50	227.11
999.79	227.06
1000.08	227.01
1000.37	227.02
1000.66	226.96
1000.95	226.99
1001.24	226.94
1001.53	226.94
1001.82	226.96
1002.11	226.94
1002.40	226.93
1002.68	226.96
1002.97	227.00
1003.26	227.00
1003.55	226.98
1003.84	227.02
1004.13	227.02
1004.42	227.01
1004.71	227.01
1004.99	226.99
1005.28	226.96
1005.57	226.95
1005.86	226.95
1006.15	226.96
1006.44	226.94
1006.72	226.97
1007.01	226.91
1007.30	226.92
1007.59	226.91
1007.88	226.90
1008.17	226.90
1008.45	226.89
1008.74	226.83
1009.03	226.79
1009.32	226.79
1009.60	226.80
1009.89	226.77
1010.18	226.76
1010.47	226.78
1010.76	226.76
1011.04	226.75
1011.33	226.78
1011.62	226.78
1011.91	226.79
1012.19	226.80
1012.48	226.77
1012.77	226.73
1013.05	226.79
1013.34	226.77
1013.63	226.80
1013.92	226.79
1014.20	226.80
1014.49	226.81
1014.78	226.85
1015.06	226.85
1015.35	226.85
1015.64	226.88
1015.92	226.88
1016.21	226.83
1016.50	226.82
1016.78	226.86
1017.07	226.86
1017.36	226.86
1017.64	226.83
1017.93	226.83
1018.22	226.84
1018.50	226.87
1018.79	226.88
1019.08	226.81
1019.36	226.82
1019.65	226.83
1019.93	226.86
1020.22	226.87
1020.51	226.91
1020.79	226.89
1021.08	227.21
1021.36	226.78
1021.65	226.46
1021.94	226.51
1022.22	226.95
1022.51	227.49
1022.79	226.94
1023.08	227.09
1023.36	227.90
1023.65	226.89
>>>>>End Processed Spectral Data<<<<<
