SpectraSuite Data File
++++++++++++++++++++++++++++++++++++
Date: Fri Feb 01 15:26:35 EST 2013
User: group
Dark Spectrum Present: No
Reference Spectrum Present: No
Number of Sampled Component Spectra: 1
Spectrometers: USB2E7196
Integration Time (usec): 35000 (USB2E7196)
Spectra Averaged: 100 (USB2E7196)
Boxcar Smoothing: 10 (USB2E7196)
Correct for Electrical Dark: No (USB2E7196)
Strobe/Lamp Enabled: No (USB2E7196)
Correct for Detector Non-linearity: No (USB2E7196)
Correct for Stray Light: No (USB2E7196)
Number of Pixels in Processed Spectrum: 2048
>>>>>Begin Processed Spectral Data<<<<<
339.09	0.00
339.48	214.83
339.86	216.95
340.24	217.83
340.63	218.91
341.01	221.93
341.39	221.73
341.78	223.15
342.16	224.44
342.54	224.83
342.93	213.24
343.31	224.02
343.69	224.57
344.07	224.98
344.46	225.37
344.84	225.77
345.22	226.00
345.60	226.23
345.99	226.44
346.37	226.56
346.75	226.68
347.13	226.71
347.52	226.77
347.90	226.84
348.28	226.92
348.66	226.98
349.05	226.98
349.43	227.04
349.81	227.08
350.19	227.14
350.57	227.20
350.96	227.23
351.34	227.31
351.72	227.37
352.10	227.50
352.48	227.61
352.87	227.67
353.25	227.73
353.63	227.82
354.01	227.87
354.39	227.96
354.77	228.04
355.15	228.16
355.54	228.22
355.92	228.27
356.30	228.31
356.68	228.41
357.06	228.47
357.44	228.51
357.82	228.59
358.20	228.63
358.58	228.72
358.97	228.82
359.35	228.89
359.73	228.98
360.11	229.02
360.49	229.04
360.87	229.07
361.25	229.14
361.63	229.18
362.01	229.25
362.39	229.24
362.77	229.25
363.15	229.30
363.53	229.33
363.91	229.39
364.29	229.42
364.67	229.35
365.05	229.36
365.43	229.40
365.81	229.41
366.19	229.44
366.57	229.47
366.95	229.46
367.33	229.43
367.71	229.43
368.09	229.44
368.47	229.43
368.85	229.42
369.23	229.42
369.61	229.38
369.99	229.36
370.37	229.35
370.75	229.37
371.13	229.30
371.51	229.24
371.89	229.16
372.27	229.10
372.65	229.09
373.03	229.05
373.41	228.98
373.78	228.93
374.16	228.84
374.54	228.77
374.92	228.70
375.30	228.67
375.68	228.58
376.06	228.53
376.44	228.50
376.82	228.47
377.19	228.37
377.57	228.32
377.95	228.19
378.33	228.11
378.71	227.97
379.09	227.93
379.47	227.88
379.84	227.81
380.22	227.75
380.60	227.65
380.98	227.57
381.36	227.51
381.73	227.40
382.11	227.37
382.49	227.28
382.87	227.23
383.25	227.15
383.62	227.20
384.00	227.13
384.38	227.05
384.76	226.97
385.13	226.98
385.51	226.90
385.89	226.88
386.27	226.84
386.64	226.80
387.02	226.73
387.40	226.67
387.78	226.63
388.15	226.59
388.53	226.56
388.91	226.53
389.29	226.50
389.66	226.50
390.04	226.45
390.42	226.45
390.79	226.44
391.17	226.43
391.55	226.32
391.92	226.30
392.30	226.29
392.68	226.28
393.05	226.31
393.43	226.36
393.81	226.38
394.18	226.38
394.56	226.46
394.94	226.50
395.31	226.52
395.69	226.60
396.06	226.67
396.44	226.71
396.82	226.75
397.19	226.87
397.57	226.92
397.95	227.01
398.32	227.04
398.70	227.10
399.07	227.18
399.45	227.25
399.82	227.36
400.20	227.45
400.58	227.53
400.95	227.56
401.33	227.64
401.70	227.78
402.08	227.90
402.45	227.98
402.83	228.10
403.20	228.23
403.58	228.33
403.95	228.40
404.33	228.51
404.71	228.64
405.08	228.80
405.46	228.94
405.83	229.07
406.21	229.21
406.58	229.37
406.96	229.51
407.33	229.71
407.70	229.89
408.08	230.15
408.45	230.39
408.83	230.64
409.20	230.87
409.58	231.07
409.95	231.32
410.33	231.58
410.70	231.83
411.08	232.14
411.45	232.44
411.82	232.75
412.20	233.16
412.57	233.57
412.95	233.88
413.32	234.31
413.69	234.70
414.07	235.16
414.44	235.63
414.82	236.12
415.19	236.67
415.56	237.21
415.94	237.72
416.31	238.36
416.68	238.97
417.06	239.67
417.43	240.37
417.81	241.13
418.18	241.91
418.55	242.75
418.93	243.61
419.30	244.46
419.67	245.43
420.04	246.37
420.42	247.37
420.79	248.53
421.16	249.68
421.54	250.86
421.91	252.05
422.28	253.32
422.66	254.63
423.03	255.96
423.40	257.27
423.77	258.68
424.15	260.10
424.52	261.57
424.89	263.17
425.26	264.71
425.64	266.18
426.01	267.76
426.38	269.41
426.75	271.07
427.13	272.83
427.50	274.61
427.87	276.48
428.24	278.30
428.61	280.04
428.99	281.91
429.36	284.03
429.73	286.13
430.10	288.15
430.47	290.22
430.85	292.29
431.22	294.52
431.59	296.92
431.96	299.17
432.33	301.66
432.70	304.04
433.08	306.83
433.45	309.47
433.82	312.08
434.19	314.97
434.56	317.82
434.93	320.48
435.30	323.14
435.68	326.03
436.05	328.92
436.42	331.77
436.79	334.34
437.16	337.05
437.53	339.86
437.90	342.68
438.27	345.39
438.64	348.23
439.01	350.84
439.38	353.07
439.75	355.22
440.13	357.69
440.50	359.99
440.87	361.86
441.24	363.79
441.61	365.94
441.98	367.43
442.35	369.24
442.72	371.08
443.09	372.90
443.46	373.88
443.83	374.43
444.20	374.92
444.57	375.78
444.94	376.05
445.31	376.42
445.68	376.80
446.05	376.91
446.42	376.56
446.79	376.17
447.16	375.76
447.53	375.49
447.90	374.39
448.27	373.29
448.64	371.74
449.01	370.60
449.37	368.67
449.74	366.80
450.11	364.53
450.48	362.06
450.85	359.54
451.22	357.43
451.59	355.44
451.96	353.48
452.33	350.84
452.70	348.53
453.07	345.67
453.43	342.76
453.80	340.01
454.17	337.33
454.54	334.76
454.91	332.02
455.28	329.37
455.65	326.84
456.02	324.40
456.38	322.21
456.75	319.54
457.12	317.31
457.49	315.09
457.86	312.93
458.23	311.11
458.59	309.04
458.96	306.91
459.33	305.05
459.70	303.21
460.07	301.71
460.43	299.99
460.80	298.37
461.17	296.91
461.54	295.43
461.91	293.99
462.27	292.55
462.64	291.24
463.01	289.84
463.38	288.55
463.74	287.14
464.11	285.99
464.48	284.96
464.85	283.80
465.21	282.88
465.58	281.96
465.95	280.84
466.32	279.92
466.68	279.06
467.05	278.18
467.42	277.24
467.78	276.30
468.15	275.39
468.52	274.75
468.88	273.88
469.25	273.09
469.62	272.45
469.98	271.80
470.35	271.20
470.72	270.61
471.08	269.90
471.45	269.39
471.82	268.86
472.18	268.28
472.55	267.84
472.92	267.31
473.28	266.83
473.65	266.34
474.02	265.90
474.38	265.53
474.75	265.22
475.11	264.84
475.48	264.58
475.85	264.33
476.21	264.06
476.58	263.89
476.94	263.71
477.31	263.53
477.67	263.35
478.04	263.23
478.41	263.15
478.77	263.22
479.14	263.11
479.50	263.12
479.87	263.14
480.23	263.19
480.60	263.26
480.96	263.36
481.33	263.59
481.69	263.78
482.06	263.93
482.42	264.11
482.79	264.41
483.15	264.73
483.52	265.09
483.88	265.46
484.25	265.79
484.61	266.22
484.98	266.66
485.34	267.24
485.71	267.82
486.07	268.41
486.44	268.95
486.80	269.68
487.17	270.37
487.53	271.17
487.90	272.02
488.26	273.00
488.62	273.94
488.99	274.89
489.35	275.93
489.72	277.04
490.08	278.24
490.44	279.49
490.81	280.80
491.17	282.15
491.54	283.64
491.90	285.20
492.26	286.85
492.63	288.62
492.99	290.39
493.36	292.27
493.72	294.34
494.08	296.46
494.45	298.69
494.81	301.08
495.17	303.54
495.54	306.12
495.90	308.75
496.26	311.56
496.63	314.53
496.99	317.61
497.35	320.88
497.72	324.30
498.08	327.76
498.44	331.44
498.80	335.38
499.17	339.39
499.53	343.52
499.89	347.86
500.26	352.29
500.62	356.99
500.98	361.96
501.34	367.00
501.71	372.33
502.07	377.74
502.43	383.35
502.79	389.17
503.16	395.24
503.52	401.52
503.88	408.00
504.24	414.65
504.60	421.57
504.97	428.68
505.33	436.01
505.69	443.72
506.05	451.51
506.41	459.37
506.78	467.56
507.14	476.03
507.50	484.82
507.86	493.91
508.22	503.07
508.59	512.27
508.95	521.83
509.31	531.63
509.67	541.85
510.03	552.15
510.39	562.71
510.75	573.52
511.12	584.51
511.48	595.71
511.84	607.15
512.20	618.66
512.56	630.66
512.92	642.80
513.28	655.14
513.64	667.62
514.00	680.40
514.37	693.33
514.73	706.46
515.09	719.49
515.45	732.87
515.81	746.43
516.17	760.46
516.53	774.58
516.89	788.72
517.25	802.90
517.61	817.36
517.97	831.80
518.33	846.27
518.69	861.05
519.05	876.19
519.41	891.39
519.77	906.99
520.13	922.46
520.49	937.93
520.85	953.37
521.21	969.14
521.57	985.37
521.93	1001.19
522.29	1017.61
522.65	1033.95
523.01	1050.19
523.37	1066.21
523.73	1082.35
524.09	1098.57
524.45	1115.06
524.81	1131.58
525.17	1148.48
525.53	1165.47
525.89	1182.39
526.25	1199.22
526.61	1215.56
526.97	1232.30
527.33	1248.73
527.68	1265.39
528.04	1281.96
528.40	1298.72
528.76	1315.76
529.12	1332.46
529.48	1349.45
529.84	1365.52
530.20	1382.11
530.56	1399.13
530.91	1416.50
531.27	1433.44
531.63	1450.00
531.99	1466.56
532.35	1482.63
532.71	1498.47
533.07	1514.90
533.42	1530.79
533.78	1546.92
534.14	1563.27
534.50	1578.69
534.86	1594.62
535.21	1609.91
535.57	1625.92
535.93	1641.40
536.29	1656.22
536.65	1671.36
537.00	1686.20
537.36	1701.61
537.72	1716.28
538.08	1730.76
538.44	1744.87
538.79	1758.74
539.15	1772.44
539.51	1786.29
539.87	1800.87
540.22	1814.76
540.58	1828.40
540.94	1841.90
541.29	1854.88
541.65	1867.70
542.01	1881.08
542.37	1893.49
542.72	1905.86
543.08	1917.64
543.44	1930.11
543.79	1941.45
544.15	1952.53
544.51	1964.15
544.87	1975.14
545.22	1986.00
545.58	1996.20
545.94	2006.01
546.29	2015.88
546.65	2025.73
547.01	2034.90
547.36	2043.51
547.72	2051.97
548.07	2059.97
548.43	2068.13
548.79	2076.10
549.14	2083.63
549.50	2090.97
549.86	2098.86
550.21	2106.28
550.57	2113.45
550.92	2120.08
551.28	2127.37
551.64	2134.29
551.99	2140.71
552.35	2146.80
552.70	2152.76
553.06	2158.73
553.41	2164.94
553.77	2171.09
554.13	2177.22
554.48	2183.51
554.84	2188.90
555.19	2194.32
555.55	2199.42
555.90	2203.80
556.26	2208.71
556.61	2213.45
556.97	2217.66
557.32	2221.70
557.68	2225.93
558.03	2230.17
558.39	2233.84
558.74	2238.24
559.10	2242.08
559.45	2245.87
559.81	2250.29
560.16	2254.19
560.52	2257.49
560.87	2260.98
561.23	2263.51
561.58	2266.45
561.94	2268.97
562.29	2271.59
562.64	2274.14
563.00	2276.94
563.35	2280.58
563.71	2283.78
564.06	2286.86
564.42	2289.81
564.77	2292.19
565.12	2294.26
565.48	2296.12
565.83	2297.93
566.19	2299.16
566.54	2300.29
566.89	2301.36
567.25	2301.71
567.60	2303.05
567.96	2304.65
568.31	2305.54
568.66	2306.69
569.02	2307.17
569.37	2307.30
569.72	2307.96
570.08	2308.05
570.43	2307.77
570.78	2306.98
571.14	2305.36
571.49	2304.08
571.84	2303.64
572.20	2302.35
572.55	2301.46
572.90	2300.07
573.26	2298.53
573.61	2296.86
573.96	2294.75
574.31	2291.65
574.67	2288.63
575.02	2284.90
575.37	2281.46
575.72	2277.40
576.08	2274.02
576.43	2270.68
576.78	2266.98
577.13	2263.76
577.49	2260.62
577.84	2257.02
578.19	2253.39
578.54	2249.54
578.90	2245.06
579.25	2239.51
579.60	2234.59
579.95	2229.37
580.30	2224.10
580.66	2218.93
581.01	2213.86
581.36	2208.99
581.71	2204.67
582.06	2200.14
582.42	2195.60
582.77	2190.32
583.12	2185.69
583.47	2180.70
583.82	2175.44
584.17	2170.09
584.53	2164.45
584.88	2158.68
585.23	2152.90
585.58	2147.26
585.93	2141.88
586.28	2137.20
586.63	2131.92
586.98	2126.65
587.34	2121.96
587.69	2117.07
588.04	2111.74
588.39	2105.98
588.74	2099.46
589.09	2093.31
589.44	2086.57
589.79	2080.43
590.14	2074.70
590.49	2068.17
590.84	2061.78
591.19	2055.80
591.54	2049.39
591.89	2041.78
592.25	2034.97
592.60	2027.78
592.95	2020.16
593.30	2012.69
593.65	2005.02
594.00	1997.97
594.35	1990.94
594.70	1982.73
595.05	1975.42
595.40	1968.12
595.75	1960.51
596.10	1954.10
596.45	1947.20
596.80	1941.02
597.15	1934.38
597.50	1927.17
597.85	1920.72
598.19	1914.06
598.54	1906.91
598.89	1900.20
599.24	1894.53
599.59	1887.69
599.94	1881.32
600.29	1874.99
600.64	1868.33
600.99	1860.74
601.34	1853.75
601.69	1846.55
602.04	1839.39
602.39	1831.96
602.74	1825.08
603.08	1818.47
603.43	1811.78
603.78	1804.59
604.13	1797.15
604.48	1789.76
604.83	1782.88
605.18	1775.68
605.53	1767.66
605.87	1759.60
606.22	1752.33
606.57	1744.20
606.92	1737.03
607.27	1729.83
607.62	1722.88
607.96	1715.58
608.31	1708.85
608.66	1701.24
609.01	1693.64
609.36	1686.23
609.70	1678.20
610.05	1670.00
610.40	1662.21
610.75	1653.89
611.10	1646.11
611.44	1637.79
611.79	1629.88
612.14	1621.26
612.49	1612.28
612.83	1603.82
613.18	1595.67
613.53	1587.56
613.88	1579.05
614.22	1570.57
614.57	1562.04
614.92	1553.91
615.27	1546.30
615.61	1538.11
615.96	1530.16
616.31	1522.60
616.65	1515.25
617.00	1507.77
617.35	1500.17
617.70	1491.78
618.04	1483.17
618.39	1474.92
618.74	1467.33
619.08	1459.02
619.43	1451.39
619.78	1444.38
620.12	1437.24
620.47	1429.67
620.82	1421.45
621.16	1414.13
621.51	1406.51
621.85	1398.84
622.20	1390.34
622.55	1382.12
622.89	1374.35
623.24	1366.79
623.59	1359.52
623.93	1351.99
624.28	1344.59
624.62	1336.99
624.97	1329.86
625.32	1323.20
625.66	1316.14
626.01	1308.90
626.35	1301.40
626.70	1293.73
627.04	1286.00
627.39	1278.28
627.73	1271.00
628.08	1264.14
628.43	1256.75
628.77	1249.45
629.12	1241.92
629.46	1234.71
629.81	1227.23
630.15	1219.94
630.50	1212.51
630.84	1204.12
631.19	1196.32
631.53	1188.90
631.88	1181.44
632.22	1173.85
632.57	1166.54
632.91	1159.13
633.26	1151.76
633.60	1144.53
633.95	1137.40
634.29	1130.35
634.64	1123.64
634.98	1116.25
635.32	1109.11
635.67	1102.64
636.01	1095.98
636.36	1089.17
636.70	1082.73
637.05	1076.15
637.39	1069.67
637.73	1063.15
638.08	1057.42
638.42	1051.39
638.77	1044.96
639.11	1038.37
639.45	1031.98
639.80	1025.26
640.14	1018.78
640.49	1012.19
640.83	1005.79
641.17	999.57
641.52	993.31
641.86	986.93
642.20	981.09
642.55	974.81
642.89	968.18
643.23	961.65
643.58	955.85
643.92	949.64
644.26	943.49
644.61	937.47
644.95	931.47
645.29	924.75
645.64	917.95
645.98	911.59
646.32	905.74
646.66	899.70
647.01	893.99
647.35	888.31
647.69	882.45
648.04	876.97
648.38	871.15
648.72	865.06
649.06	859.03
649.41	853.17
649.75	847.13
650.09	841.24
650.43	835.52
650.78	829.35
651.12	823.34
651.46	817.72
651.80	811.97
652.14	806.56
652.49	801.30
652.83	796.21
653.17	790.47
653.51	784.70
653.85	779.32
654.20	773.59
654.54	767.55
654.88	761.94
655.22	756.02
655.56	750.29
655.90	744.86
656.25	739.54
656.59	734.16
656.93	729.10
657.27	723.96
657.61	718.46
657.95	713.40
658.29	708.37
658.64	703.07
658.98	697.81
659.32	692.34
659.66	687.08
660.00	681.72
660.34	676.86
660.68	671.98
661.02	666.92
661.36	662.29
661.70	657.86
662.05	653.45
662.39	649.13
662.73	644.77
663.07	640.44
663.41	636.04
663.75	631.53
664.09	627.05
664.43	622.67
664.77	618.54
665.11	614.30
665.45	610.18
665.79	606.18
666.13	602.03
666.47	597.96
666.81	593.78
667.15	589.63
667.49	585.78
667.83	582.02
668.17	578.15
668.51	574.07
668.85	570.01
669.19	566.19
669.53	562.36
669.87	558.45
670.21	554.75
670.55	551.08
670.89	547.65
671.23	544.18
671.57	540.69
671.91	537.19
672.25	533.70
672.58	530.18
672.92	526.77
673.26	523.65
673.60	520.50
673.94	517.39
674.28	514.53
674.62	511.58
674.96	508.44
675.30	505.54
675.64	502.64
675.97	499.89
676.31	497.04
676.65	494.09
676.99	491.42
677.33	488.57
677.67	485.78
678.01	482.76
678.34	479.70
678.68	476.82
679.02	474.03
679.36	471.26
679.70	468.56
680.04	465.81
680.37	462.92
680.71	460.15
681.05	457.54
681.39	454.86
681.73	452.18
682.06	449.69
682.40	447.12
682.74	444.59
683.08	442.08
683.42	439.46
683.75	437.00
684.09	434.42
684.43	431.91
684.77	429.48
685.10	427.15
685.44	424.95
685.78	422.63
686.12	420.38
686.45	418.14
686.79	415.85
687.13	413.63
687.46	411.47
687.80	409.30
688.14	407.09
688.48	404.99
688.81	402.70
689.15	400.55
689.49	398.44
689.82	396.34
690.16	394.28
690.50	392.35
690.83	390.38
691.17	388.41
691.51	386.57
691.84	384.69
692.18	382.73
692.52	380.75
692.85	378.89
693.19	376.98
693.52	375.17
693.86	373.39
694.20	371.63
694.53	369.82
694.87	367.93
695.21	366.21
695.54	364.37
695.88	362.70
696.21	360.98
696.55	359.27
696.88	357.59
697.22	355.92
697.56	354.31
697.89	352.65
698.23	351.05
698.56	349.42
698.90	347.82
699.23	346.18
699.57	344.64
699.90	343.08
700.24	341.56
700.58	339.98
700.91	338.48
701.25	337.03
701.58	335.68
701.92	334.39
702.25	333.00
702.59	331.69
702.92	330.37
703.26	329.08
703.59	327.83
703.93	326.70
704.26	325.44
704.60	324.15
704.93	322.92
705.26	321.70
705.60	320.55
705.93	319.42
706.27	318.43
706.60	317.33
706.94	316.26
707.27	315.11
707.61	314.09
707.94	313.09
708.27	311.98
708.61	310.94
708.94	309.93
709.28	308.95
709.61	308.00
709.94	307.07
710.28	306.07
710.61	305.12
710.95	304.05
711.28	303.17
711.61	302.23
711.95	301.32
712.28	300.39
712.61	299.44
712.95	298.50
713.28	297.62
713.61	296.75
713.95	295.87
714.28	295.06
714.61	294.19
714.95	293.33
715.28	292.50
715.61	291.62
715.95	290.78
716.28	289.96
716.61	289.13
716.95	288.28
717.28	287.53
717.61	286.73
717.94	285.98
718.28	285.14
718.61	284.43
718.94	283.75
719.27	283.07
719.61	282.40
719.94	281.79
720.27	281.06
720.60	280.41
720.94	279.77
721.27	279.18
721.60	278.58
721.93	277.98
722.27	277.41
722.60	276.80
722.93	276.23
723.26	275.68
723.59	275.08
723.93	274.53
724.26	273.94
724.59	273.41
724.92	272.86
725.25	272.40
725.59	271.85
725.92	271.33
726.25	270.80
726.58	270.29
726.91	269.75
727.24	269.30
727.57	268.79
727.91	268.30
728.24	267.84
728.57	267.36
728.90	266.91
729.23	266.44
729.56	266.03
729.89	265.56
730.22	265.08
730.55	264.64
730.89	264.19
731.22	263.75
731.55	263.31
731.88	262.90
732.21	262.43
732.54	262.00
732.87	261.57
733.20	261.17
733.53	260.78
733.86	260.41
734.19	259.97
734.52	259.60
734.85	259.25
735.18	258.82
735.51	258.42
735.84	258.07
736.17	257.72
736.50	257.31
736.83	257.09
737.16	256.73
737.49	256.39
737.82	256.05
738.15	255.71
738.48	255.37
738.81	255.04
739.14	254.72
739.47	254.40
739.80	254.10
740.13	253.77
740.46	253.44
740.79	253.09
741.12	252.81
741.45	252.50
741.78	252.17
742.11	251.87
742.44	251.54
742.77	251.19
743.10	250.87
743.43	250.60
743.75	250.19
744.08	250.05
744.41	249.77
744.74	249.47
745.07	249.23
745.40	248.98
745.73	248.71
746.06	248.48
746.39	248.22
746.71	247.94
747.04	247.70
747.37	247.44
747.70	247.23
748.03	246.96
748.36	246.74
748.68	246.52
749.01	246.29
749.34	246.08
749.67	245.87
750.00	245.68
750.33	245.54
750.65	245.31
750.98	245.03
751.31	244.84
751.64	244.68
751.97	244.53
752.29	244.33
752.62	244.12
752.95	243.89
753.28	243.69
753.60	243.47
753.93	243.31
754.26	243.13
754.59	242.90
754.91	242.69
755.24	242.49
755.57	242.29
755.90	242.11
756.22	241.93
756.55	241.74
756.88	241.55
757.20	241.30
757.53	241.12
757.86	240.90
758.19	240.73
758.51	240.56
758.84	240.32
759.17	240.16
759.49	239.98
759.82	239.88
760.15	239.75
760.47	239.63
760.80	239.44
761.13	239.28
761.45	239.11
761.78	238.98
762.11	238.83
762.43	238.72
762.76	238.59
763.08	238.47
763.41	238.36
763.74	238.22
764.06	238.09
764.39	237.94
764.71	237.78
765.04	237.64
765.37	237.50
765.69	237.40
766.02	237.25
766.34	237.12
766.67	236.97
767.00	236.82
767.32	236.74
767.65	236.71
767.97	236.63
768.30	236.51
768.62	236.39
768.95	236.27
769.27	236.11
769.60	235.99
769.92	235.87
770.25	235.74
770.57	235.59
770.90	235.45
771.22	235.34
771.55	235.26
771.87	235.16
772.20	235.07
772.52	235.03
772.85	235.04
773.17	234.92
773.50	234.78
773.82	234.68
774.15	234.53
774.47	234.37
774.80	234.25
775.12	234.16
775.45	234.08
775.77	233.98
776.09	233.93
776.42	233.84
776.74	233.79
777.07	233.69
777.39	233.64
777.72	233.58
778.04	233.53
778.36	233.45
778.69	233.38
779.01	233.32
779.33	233.13
779.66	232.95
779.98	232.91
780.31	232.87
780.63	232.84
780.95	232.81
781.28	232.72
781.60	232.65
781.92	232.59
782.25	232.53
782.57	232.48
782.89	232.41
783.22	232.35
783.54	232.25
783.86	232.23
784.19	232.15
784.51	232.11
784.83	232.04
785.16	231.98
785.48	231.91
785.80	231.85
786.12	231.84
786.45	231.80
786.77	231.80
787.09	231.75
787.42	231.69
787.74	231.62
788.06	231.60
788.38	231.58
788.71	231.55
789.03	231.52
789.35	231.53
789.67	231.49
789.99	231.49
790.32	231.45
790.64	231.42
790.96	231.50
791.28	231.46
791.61	231.43
791.93	231.41
792.25	231.38
792.57	231.42
792.89	231.38
793.21	231.37
793.54	231.31
793.86	231.22
794.18	231.20
794.50	231.14
794.82	231.14
795.14	231.09
795.47	231.08
795.79	231.03
796.11	230.95
796.43	230.89
796.75	230.86
797.07	230.83
797.39	230.78
797.71	230.64
798.04	230.58
798.36	230.55
798.68	230.55
799.00	230.55
799.32	230.45
799.64	230.46
799.96	230.40
800.28	230.39
800.60	230.38
800.92	230.34
801.24	230.31
801.56	230.26
801.89	230.20
802.21	230.17
802.53	230.14
802.85	230.17
803.17	230.21
803.49	230.16
803.81	230.13
804.13	230.10
804.45	230.08
804.77	230.09
805.09	230.05
805.41	229.98
805.73	229.93
806.05	229.87
806.37	229.80
806.69	229.78
807.01	229.73
807.33	229.72
807.65	229.64
807.97	229.64
808.28	229.62
808.60	229.62
808.92	229.58
809.24	229.63
809.56	229.57
809.88	229.47
810.20	229.41
810.52	229.42
810.84	229.37
811.16	229.31
811.48	229.27
811.80	229.30
812.12	229.27
812.43	229.25
812.75	229.26
813.07	229.22
813.39	229.17
813.71	229.16
814.03	229.12
814.35	229.09
814.67	229.06
814.98	229.01
815.30	229.00
815.62	228.95
815.94	228.86
816.26	228.88
816.58	228.86
816.89	228.87
817.21	228.82
817.53	228.85
817.85	228.85
818.17	228.80
818.48	228.74
818.80	228.75
819.12	228.72
819.44	228.66
819.76	228.67
820.07	228.68
820.39	228.67
820.71	228.66
821.03	228.70
821.34	228.68
821.66	228.70
821.98	228.67
822.30	228.67
822.61	228.73
822.93	228.67
823.25	228.66
823.57	228.62
823.88	228.63
824.20	228.61
824.52	228.61
824.83	228.63
825.15	228.66
825.47	228.65
825.79	228.62
826.10	228.61
826.42	228.60
826.74	228.58
827.05	228.55
827.37	228.56
827.69	228.53
828.00	228.52
828.32	228.50
828.64	228.49
828.95	228.55
829.27	228.49
829.58	228.47
829.90	228.49
830.22	228.50
830.53	228.47
830.85	228.47
831.17	228.47
831.48	228.48
831.80	228.45
832.11	228.44
832.43	228.45
832.75	228.44
833.06	228.49
833.38	228.48
833.69	228.50
834.01	228.48
834.32	228.46
834.64	228.47
834.96	228.49
835.27	228.46
835.59	228.44
835.90	228.40
836.22	228.40
836.53	228.36
836.85	228.33
837.16	228.43
837.48	228.40
837.79	228.39
838.11	228.34
838.42	228.29
838.74	228.27
839.05	228.26
839.37	228.25
839.68	228.17
840.00	228.17
840.31	228.13
840.63	228.11
840.94	228.08
841.26	228.03
841.57	228.01
841.88	228.05
842.20	227.99
842.51	227.99
842.83	227.97
843.14	228.04
843.46	228.07
843.77	227.98
844.08	227.97
844.40	227.94
844.71	227.94
845.03	227.94
845.34	227.93
845.65	227.91
845.97	227.91
846.28	227.90
846.60	227.87
846.91	227.85
847.22	227.85
847.54	227.88
847.85	227.90
848.16	227.85
848.48	227.77
848.79	227.79
849.10	227.76
849.42	227.77
849.73	227.64
850.04	227.57
850.36	227.52
850.67	227.55
850.98	227.56
851.30	227.56
851.61	227.53
851.92	227.50
852.23	227.53
852.55	227.54
852.86	227.52
853.17	227.52
853.49	227.55
853.80	227.56
854.11	227.54
854.42	227.56
854.74	227.55
855.05	227.55
855.36	227.52
855.67	227.53
855.99	227.52
856.30	227.65
856.61	227.67
856.92	227.66
857.23	227.64
857.55	227.65
857.86	227.65
858.17	227.71
858.48	227.73
858.79	227.70
859.11	227.70
859.42	227.72
859.73	227.69
860.04	227.67
860.35	227.63
860.66	227.60
860.98	227.59
861.29	227.58
861.60	227.61
861.91	227.62
862.22	227.62
862.53	227.60
862.84	227.45
863.16	227.49
863.47	227.48
863.78	227.47
864.09	227.47
864.40	227.47
864.71	227.47
865.02	227.48
865.33	227.47
865.64	227.45
865.95	227.45
866.27	227.55
866.58	227.58
866.89	227.61
867.20	227.63
867.51	227.58
867.82	227.61
868.13	227.63
868.44	227.62
868.75	227.65
869.06	227.65
869.37	227.71
869.68	227.69
869.99	227.72
870.30	227.71
870.61	227.71
870.92	227.69
871.23	227.68
871.54	227.67
871.85	227.68
872.16	227.70
872.47	227.70
872.78	227.63
873.09	227.60
873.40	227.59
873.71	227.58
874.02	227.62
874.33	227.58
874.64	227.54
874.95	227.55
875.26	227.53
875.56	227.57
875.87	227.56
876.18	227.56
876.49	227.67
876.80	227.67
877.11	227.65
877.42	227.64
877.73	227.66
878.04	227.65
878.35	227.64
878.66	227.63
878.96	227.60
879.27	227.59
879.58	227.61
879.89	227.60
880.20	227.62
880.51	227.61
880.82	227.60
881.12	227.64
881.43	227.65
881.74	227.62
882.05	227.58
882.36	227.57
882.67	227.57
882.97	227.42
883.28	227.41
883.59	227.40
883.90	227.41
884.21	227.40
884.51	227.38
884.82	227.43
885.13	227.43
885.44	227.42
885.74	227.42
886.05	227.42
886.36	227.41
886.67	227.41
886.98	227.43
887.28	227.45
887.59	227.44
887.90	227.42
888.20	227.42
888.51	227.43
888.82	227.41
889.13	227.41
889.43	227.50
889.74	227.48
890.05	227.46
890.35	227.44
890.66	227.40
890.97	227.38
891.28	227.30
891.58	227.30
891.89	227.31
892.20	227.30
892.50	227.29
892.81	227.31
893.12	227.26
893.42	227.23
893.73	227.23
894.04	227.19
894.34	227.20
894.65	227.17
894.95	227.16
895.26	227.17
895.57	227.19
895.87	227.07
896.18	227.11
896.48	227.12
896.79	227.12
897.10	227.16
897.40	227.19
897.71	227.21
898.01	227.23
898.32	227.21
898.63	227.20
898.93	227.23
899.24	227.18
899.54	227.15
899.85	227.15
900.15	227.17
900.46	227.17
900.76	227.19
901.07	227.22
901.38	227.25
901.68	227.26
901.99	227.21
902.29	227.25
902.60	227.24
902.90	227.24
903.21	227.23
903.51	227.23
903.82	227.21
904.12	227.21
904.43	227.16
904.73	227.19
905.03	227.19
905.34	227.27
905.64	227.29
905.95	227.30
906.25	227.28
906.56	227.27
906.86	227.26
907.17	227.25
907.47	227.23
907.77	227.19
908.08	227.20
908.38	227.21
908.69	227.20
908.99	227.25
909.30	227.25
909.60	227.26
909.90	227.27
910.21	227.26
910.51	227.26
910.81	227.28
911.12	227.32
911.42	227.31
911.73	227.18
912.03	227.20
912.33	227.26
912.64	227.26
912.94	227.24
913.24	227.27
913.55	227.28
913.85	227.29
914.15	227.32
914.46	227.33
914.76	227.32
915.06	227.33
915.37	227.29
915.67	227.30
915.97	227.27
916.27	227.22
916.58	227.24
916.88	227.25
917.18	227.23
917.49	227.26
917.79	227.27
918.09	227.29
918.39	227.31
918.70	227.30
919.00	227.32
919.30	227.37
919.60	227.33
919.91	227.31
920.21	227.31
920.51	227.26
920.81	227.24
921.12	227.27
921.42	227.28
921.72	227.27
922.02	227.28
922.32	227.27
922.63	227.27
922.93	227.33
923.23	227.28
923.53	227.28
923.83	227.21
924.13	227.20
924.44	227.20
924.74	227.19
925.04	227.16
925.34	227.14
925.64	227.10
925.94	227.10
926.24	227.12
926.55	227.13
926.85	227.15
927.15	227.13
927.45	227.13
927.75	227.10
928.05	227.09
928.35	227.06
928.65	227.12
928.95	227.14
929.26	227.09
929.56	227.13
929.86	227.12
930.16	227.12
930.46	227.10
930.76	227.09
931.06	227.05
931.36	227.05
931.66	227.05
931.96	227.07
932.26	227.07
932.56	227.02
932.86	227.00
933.16	227.01
933.46	226.98
933.76	226.94
934.06	227.00
934.36	227.05
934.66	227.05
934.96	227.03
935.26	227.03
935.56	227.02
935.86	227.02
936.16	227.03
936.46	227.03
936.76	227.07
937.06	227.06
937.36	227.08
937.66	227.12
937.96	227.17
938.26	227.15
938.56	227.19
938.86	227.19
939.16	227.27
939.46	227.29
939.76	227.33
940.06	227.32
940.35	227.25
940.65	227.21
940.95	227.23
941.25	227.17
941.55	227.20
941.85	227.22
942.15	227.23
942.45	227.22
942.75	227.20
943.04	227.24
943.34	227.27
943.64	227.25
943.94	227.21
944.24	227.17
944.54	227.17
944.84	227.18
945.13	227.19
945.43	227.14
945.73	227.15
946.03	227.13
946.33	227.13
946.62	227.15
946.92	227.12
947.22	227.14
947.52	227.16
947.82	227.16
948.11	227.15
948.41	227.13
948.71	227.12
949.01	227.14
949.31	227.08
949.60	227.06
949.90	227.11
950.20	227.12
950.50	227.16
950.79	227.14
951.09	227.10
951.39	227.08
951.69	227.09
951.98	227.07
952.28	227.10
952.58	227.11
952.87	227.13
953.17	227.15
953.47	227.14
953.76	227.15
954.06	227.12
954.36	227.09
954.66	227.10
954.95	227.14
955.25	227.14
955.55	227.15
955.84	227.15
956.14	227.12
956.44	227.11
956.73	227.07
957.03	227.07
957.32	227.10
957.62	227.09
957.92	227.08
958.21	227.08
958.51	227.18
958.81	227.18
959.10	227.17
959.40	227.18
959.69	227.18
959.99	227.19
960.29	227.18
960.58	227.18
960.88	227.20
961.17	227.16
961.47	227.16
961.76	227.15
962.06	227.14
962.36	227.13
962.65	227.14
962.95	227.13
963.24	227.15
963.54	227.14
963.83	227.16
964.13	227.17
964.42	227.13
964.72	227.06
965.01	227.06
965.31	227.00
965.60	226.99
965.90	227.07
966.19	227.04
966.49	227.05
966.78	227.06
967.08	227.04
967.37	227.04
967.67	227.02
967.96	227.07
968.26	227.05
968.55	227.07
968.85	227.06
969.14	227.08
969.43	227.06
969.73	227.04
970.02	227.03
970.32	227.04
970.61	227.04
970.91	227.01
971.20	227.00
971.49	227.03
971.79	227.06
972.08	226.98
972.38	227.02
972.67	227.02
972.96	227.04
973.26	227.04
973.55	227.06
973.85	227.07
974.14	227.06
974.43	227.11
974.73	227.08
975.02	227.06
975.31	227.08
975.61	227.09
975.90	227.10
976.19	227.11
976.49	227.09
976.78	227.10
977.07	227.10
977.37	227.10
977.66	227.11
977.95	227.08
978.24	227.10
978.54	227.09
978.83	227.10
979.12	227.08
979.42	227.08
979.71	227.07
980.00	227.04
980.29	227.04
980.59	227.00
980.88	227.03
981.17	227.04
981.46	227.00
981.76	226.99
982.05	227.02
982.34	227.03
982.63	227.04
982.93	227.05
983.22	227.08
983.51	227.10
983.80	227.10
984.09	227.13
984.39	227.14
984.68	227.14
984.97	227.13
985.26	227.14
985.55	227.12
985.85	227.13
986.14	227.15
986.43	227.15
986.72	227.17
987.01	227.13
987.30	227.16
987.59	227.17
987.89	227.16
988.18	227.15
988.47	227.16
988.76	227.13
989.05	227.13
989.34	227.12
989.63	227.14
989.92	227.14
990.22	227.12
990.51	227.09
990.80	227.06
991.09	227.08
991.38	227.08
991.67	227.08
991.96	227.06
992.25	227.08
992.54	227.09
992.83	227.05
993.12	227.02
993.41	226.99
993.70	227.03
993.99	227.05
994.28	227.05
994.58	227.03
994.87	227.00
995.16	226.97
995.45	226.96
995.74	226.92
996.03	226.91
996.32	226.92
996.61	226.95
996.90	226.96
997.19	226.94
997.48	226.96
997.77	226.95
998.06	226.95
998.34	226.94
998.63	226.93
998.92	226.92
999.21	226.98
999.50	227.02
999.79	226.99
1000.08	226.97
1000.37	226.95
1000.66	226.92
1000.95	226.98
1001.24	227.02
1001.53	227.01
1001.82	226.98
1002.11	226.96
1002.40	226.97
1002.68	226.95
1002.97	227.00
1003.26	227.01
1003.55	227.00
1003.84	227.04
1004.13	227.09
1004.42	227.06
1004.71	227.05
1004.99	227.03
1005.28	227.01
1005.57	226.99
1005.86	226.98
1006.15	226.98
1006.44	226.97
1006.72	227.01
1007.01	226.97
1007.30	226.95
1007.59	226.95
1007.88	226.96
1008.17	226.97
1008.45	226.93
1008.74	226.91
1009.03	226.89
1009.32	226.87
1009.60	226.85
1009.89	226.84
1010.18	226.77
1010.47	226.76
1010.76	226.75
1011.04	226.79
1011.33	226.79
1011.62	226.79
1011.91	226.82
1012.19	226.84
1012.48	226.83
1012.77	226.81
1013.05	226.84
1013.34	226.86
1013.63	226.85
1013.92	226.85
1014.20	226.83
1014.49	226.87
1014.78	226.85
1015.06	226.80
1015.35	226.80
1015.64	226.82
1015.92	226.79
1016.21	226.82
1016.50	226.83
1016.78	226.87
1017.07	226.90
1017.36	226.90
1017.64	226.89
1017.93	226.88
1018.22	226.86
1018.50	226.87
1018.79	226.87
1019.08	226.86
1019.36	226.85
1019.65	226.86
1019.93	226.89
1020.22	226.92
1020.51	226.96
1020.79	226.99
1021.08	226.90
1021.36	226.84
1021.65	226.87
1021.94	227.12
1022.22	226.77
1022.51	226.96
1022.79	227.19
1023.08	227.14
1023.36	227.88
1023.65	227.09
>>>>>End Processed Spectral Data<<<<<
