SpectraSuite Data File
++++++++++++++++++++++++++++++++++++
Date: Fri Feb 01 17:43:59 EST 2013
User: group
Dark Spectrum Present: No
Reference Spectrum Present: No
Number of Sampled Component Spectra: 1
Spectrometers: USB2E7196
Integration Time (usec): 35000 (USB2E7196)
Spectra Averaged: 100 (USB2E7196)
Boxcar Smoothing: 10 (USB2E7196)
Correct for Electrical Dark: No (USB2E7196)
Strobe/Lamp Enabled: No (USB2E7196)
Correct for Detector Non-linearity: No (USB2E7196)
Correct for Stray Light: No (USB2E7196)
Number of Pixels in Processed Spectrum: 2048
>>>>>Begin Processed Spectral Data<<<<<
339.09	0.00
339.48	212.79
339.86	214.41
340.24	215.98
340.63	217.55
341.01	219.12
341.39	219.44
341.78	221.13
342.16	222.69
342.54	222.49
342.93	211.17
343.31	221.89
343.69	222.43
344.07	222.91
344.46	223.29
344.84	223.63
345.22	223.90
345.60	224.17
345.99	224.35
346.37	224.44
346.75	224.55
347.13	224.62
347.52	224.69
347.90	224.76
348.28	224.79
348.66	224.83
349.05	224.81
349.43	224.87
349.81	224.90
350.19	224.94
350.57	224.99
350.96	225.05
351.34	225.10
351.72	225.17
352.10	225.24
352.48	225.33
352.87	225.38
353.25	225.45
353.63	225.48
354.01	225.52
354.39	225.59
354.77	225.69
355.15	225.80
355.54	225.85
355.92	225.91
356.30	225.97
356.68	226.08
357.06	226.16
357.44	226.21
357.82	226.26
358.20	226.34
358.58	226.38
358.97	226.42
359.35	226.48
359.73	226.57
360.11	226.60
360.49	226.64
360.87	226.67
361.25	226.72
361.63	226.82
362.01	226.87
362.39	226.89
362.77	226.90
363.15	226.92
363.53	226.95
363.91	226.97
364.29	226.99
364.67	226.91
365.05	226.93
365.43	226.95
365.81	227.00
366.19	227.04
366.57	227.06
366.95	227.07
367.33	227.03
367.71	227.00
368.09	227.03
368.47	227.03
368.85	227.05
369.23	227.04
369.61	226.99
369.99	227.00
370.37	227.01
370.75	227.05
371.13	227.01
371.51	226.98
371.89	226.94
372.27	226.91
372.65	226.91
373.03	226.87
373.41	226.83
373.78	226.81
374.16	226.70
374.54	226.68
374.92	226.65
375.30	226.65
375.68	226.59
376.06	226.55
376.44	226.50
376.82	226.42
377.19	226.37
377.57	226.32
377.95	226.23
378.33	226.20
378.71	226.08
379.09	226.01
379.47	225.95
379.84	225.88
380.22	225.83
380.60	225.74
380.98	225.69
381.36	225.63
381.73	225.54
382.11	225.51
382.49	225.45
382.87	225.39
383.25	225.30
383.62	225.38
384.00	225.29
384.38	225.21
384.76	225.20
385.13	225.17
385.51	225.12
385.89	225.07
386.27	225.02
386.64	224.98
387.02	224.95
387.40	224.91
387.78	224.88
388.15	224.82
388.53	224.80
388.91	224.78
389.29	224.77
389.66	224.74
390.04	224.72
390.42	224.73
390.79	224.71
391.17	224.68
391.55	224.53
391.92	224.53
392.30	224.55
392.68	224.50
393.05	224.53
393.43	224.53
393.81	224.55
394.18	224.54
394.56	224.57
394.94	224.62
395.31	224.65
395.69	224.67
396.06	224.70
396.44	224.73
396.82	224.75
397.19	224.80
397.57	224.79
397.95	224.85
398.32	224.80
398.70	224.90
399.07	225.00
399.45	225.07
399.82	225.14
400.20	225.18
400.58	225.27
400.95	225.31
401.33	225.41
401.70	225.54
402.08	225.65
402.45	225.74
402.83	225.84
403.20	225.92
403.58	226.06
403.95	226.22
404.33	226.32
404.71	226.47
405.08	226.68
405.46	226.85
405.83	226.97
406.21	227.18
406.58	227.30
406.96	227.45
407.33	227.66
407.70	227.87
408.08	228.22
408.45	228.44
408.83	228.69
409.20	228.93
409.58	229.17
409.95	229.43
410.33	229.74
410.70	230.02
411.08	230.40
411.45	230.75
411.82	231.09
412.20	231.53
412.57	231.99
412.95	232.33
413.32	232.78
413.69	233.29
414.07	233.81
414.44	234.38
414.82	234.94
415.19	235.59
415.56	236.24
415.94	236.87
416.31	237.63
416.68	238.37
417.06	239.22
417.43	240.04
417.81	240.99
418.18	241.94
418.55	242.95
418.93	244.01
419.30	245.10
419.67	246.27
420.04	247.42
420.42	248.64
420.79	250.07
421.16	251.52
421.54	252.97
421.91	254.46
422.28	255.99
422.66	257.64
423.03	259.22
423.40	260.88
423.77	262.61
424.15	264.38
424.52	266.22
424.89	268.24
425.26	270.13
425.64	271.91
426.01	273.89
426.38	275.92
426.75	277.96
427.13	280.10
427.50	282.30
427.87	284.62
428.24	286.89
428.61	289.04
428.99	291.39
429.36	293.98
429.73	296.50
430.10	299.02
430.47	301.54
430.85	304.16
431.22	306.88
431.59	309.75
431.96	312.51
432.33	315.54
432.70	318.42
433.08	321.90
433.45	325.12
433.82	328.28
434.19	331.81
434.56	335.27
434.93	338.51
435.30	341.73
435.68	345.28
436.05	348.81
436.42	352.26
436.79	355.33
437.16	358.56
437.53	362.04
437.90	365.49
438.27	368.84
438.64	372.31
439.01	375.51
439.38	378.31
439.75	380.96
440.13	384.04
440.50	386.86
440.87	389.09
441.24	391.47
441.61	394.16
441.98	396.00
442.35	398.19
442.72	400.51
443.09	402.75
443.46	403.95
443.83	404.66
444.20	405.27
444.57	406.37
444.94	406.80
445.31	407.23
445.68	407.64
446.05	407.79
446.42	407.30
446.79	406.79
447.16	406.26
447.53	405.86
447.90	404.45
448.27	403.10
448.64	401.22
449.01	399.85
449.37	397.38
449.74	395.06
450.11	392.28
450.48	389.22
450.85	386.10
451.22	383.57
451.59	381.10
451.96	378.74
452.33	375.52
452.70	372.64
453.07	369.15
453.43	365.64
453.80	362.23
454.17	359.00
454.54	355.91
454.91	352.53
455.28	349.28
455.65	346.25
456.02	343.14
456.38	340.48
456.75	337.19
457.12	334.43
457.49	331.72
457.86	329.10
458.23	326.77
458.59	324.25
458.96	321.60
459.33	319.31
459.70	316.99
460.07	315.15
460.43	313.02
460.80	311.03
461.17	309.25
461.54	307.39
461.91	305.58
462.27	303.78
462.64	302.27
463.01	300.58
463.38	298.95
463.74	297.34
464.11	295.92
464.48	294.65
464.85	293.29
465.21	292.20
465.58	291.04
465.95	289.73
466.32	288.60
466.68	287.47
467.05	286.34
467.42	285.27
467.78	284.09
468.15	283.02
468.52	282.18
468.88	281.10
469.25	280.14
469.62	279.38
469.98	278.53
470.35	277.70
470.72	276.94
471.08	276.12
471.45	275.42
471.82	274.73
472.18	273.98
472.55	273.44
472.92	272.76
473.28	272.20
473.65	271.60
474.02	271.02
474.38	270.60
474.75	270.17
475.11	269.69
475.48	269.33
475.85	269.02
476.21	268.69
476.58	268.42
476.94	268.24
477.31	268.01
477.67	267.80
478.04	267.66
478.41	267.52
478.77	267.53
479.14	267.43
479.50	267.40
479.87	267.46
480.23	267.51
480.60	267.54
480.96	267.57
481.33	267.77
481.69	267.97
482.06	268.11
482.42	268.31
482.79	268.58
483.15	268.91
483.52	269.29
483.88	269.65
484.25	270.03
484.61	270.41
484.98	270.82
485.34	271.34
485.71	271.95
486.07	272.63
486.44	273.17
486.80	273.86
487.17	274.61
487.53	275.43
487.90	276.28
488.26	277.27
488.62	278.31
488.99	279.27
489.35	280.32
489.72	281.47
490.08	282.72
490.44	283.99
490.81	285.30
491.17	286.65
491.54	288.12
491.90	289.71
492.26	291.43
492.63	293.24
492.99	295.08
493.36	297.02
493.72	299.07
494.08	301.25
494.45	303.56
494.81	305.99
495.17	308.47
495.54	311.07
495.90	313.78
496.26	316.63
496.63	319.72
496.99	322.90
497.35	326.28
497.72	329.73
498.08	333.36
498.44	337.17
498.80	341.20
499.17	345.39
499.53	349.65
499.89	354.16
500.26	358.81
500.62	363.66
500.98	368.73
501.34	373.96
501.71	379.44
502.07	385.06
502.43	390.85
502.79	396.84
503.16	403.16
503.52	409.65
503.88	416.26
504.24	423.09
504.60	430.20
504.97	437.54
505.33	445.14
505.69	453.07
506.05	461.14
506.41	469.28
506.78	477.73
507.14	486.51
507.50	495.44
507.86	504.71
508.22	514.21
508.59	523.76
508.95	533.65
509.31	543.78
509.67	554.22
510.03	564.78
510.39	575.75
510.75	586.85
511.12	598.16
511.48	609.88
511.84	621.71
512.20	633.70
512.56	646.03
512.92	658.55
513.28	671.36
513.64	684.26
514.00	697.44
514.37	710.82
514.73	724.32
515.09	737.79
515.45	751.54
515.81	765.64
516.17	780.04
516.53	794.68
516.89	809.46
517.25	824.11
517.61	839.16
517.97	854.16
518.33	869.18
518.69	884.57
519.05	900.14
519.41	915.97
519.77	932.07
520.13	948.28
520.49	964.45
520.85	980.48
521.21	996.84
521.57	1013.74
521.93	1030.31
522.29	1047.41
522.65	1064.54
523.01	1081.50
523.37	1098.34
523.73	1115.30
524.09	1132.22
524.45	1149.18
524.81	1166.77
525.17	1184.39
525.53	1202.14
525.89	1219.85
526.25	1237.57
526.61	1254.85
526.97	1272.47
527.33	1289.90
527.68	1307.35
528.04	1324.79
528.40	1342.27
528.76	1360.31
529.12	1377.92
529.48	1395.78
529.84	1412.81
530.20	1430.42
530.56	1448.50
530.91	1466.92
531.27	1484.78
531.63	1502.30
531.99	1520.05
532.35	1537.15
532.71	1554.24
533.07	1571.68
533.42	1588.83
533.78	1606.13
534.14	1623.61
534.50	1640.13
534.86	1657.21
535.21	1673.52
535.57	1690.52
535.93	1707.25
536.29	1723.17
536.65	1739.44
537.00	1755.29
537.36	1771.93
537.72	1787.64
538.08	1803.40
538.44	1818.39
538.79	1833.67
539.15	1848.56
539.51	1863.55
539.87	1879.07
540.22	1894.00
540.58	1908.99
540.94	1923.42
541.29	1937.36
541.65	1951.26
542.01	1965.72
542.37	1979.28
542.72	1993.03
543.08	2006.16
543.44	2019.98
543.79	2032.74
544.15	2045.05
544.51	2058.03
544.87	2070.18
545.22	2082.50
545.58	2094.04
545.94	2105.27
546.29	2116.54
546.65	2127.88
547.01	2138.67
547.36	2148.82
547.72	2158.72
548.07	2168.01
548.43	2177.55
548.79	2186.83
549.14	2195.82
549.50	2204.51
549.86	2213.46
550.21	2222.14
550.57	2230.73
550.92	2238.51
551.28	2246.85
551.64	2255.25
551.99	2263.05
552.35	2270.67
552.70	2278.06
553.06	2285.33
553.41	2292.93
553.77	2300.02
554.13	2307.19
554.48	2314.33
554.84	2321.15
555.19	2327.59
555.55	2333.97
555.90	2339.68
556.26	2346.07
556.61	2351.79
556.97	2357.38
557.32	2362.71
557.68	2368.00
558.03	2373.42
558.39	2378.24
558.74	2383.81
559.10	2388.83
559.45	2393.54
559.81	2398.81
560.16	2403.67
560.52	2407.98
560.87	2412.40
561.23	2416.00
561.58	2419.79
561.94	2423.52
562.29	2426.54
562.64	2430.25
563.00	2433.62
563.35	2438.17
563.71	2442.19
564.06	2446.28
564.42	2450.09
564.77	2453.60
565.12	2457.07
565.48	2459.70
565.83	2462.56
566.19	2465.04
566.54	2466.62
566.89	2468.90
567.25	2470.40
567.60	2472.40
567.96	2474.98
568.31	2476.55
568.66	2478.55
569.02	2479.99
569.37	2480.88
569.72	2482.60
570.08	2483.38
570.43	2484.07
570.78	2484.09
571.14	2482.91
571.49	2482.01
571.84	2482.09
572.20	2481.42
572.55	2480.56
572.90	2479.35
573.26	2478.44
573.61	2476.93
573.96	2475.79
574.31	2472.91
574.67	2470.01
575.02	2466.61
575.37	2463.22
575.72	2459.77
576.08	2456.50
576.43	2453.30
576.78	2450.07
577.13	2446.98
577.49	2444.04
577.84	2440.78
578.19	2437.01
578.54	2433.68
578.90	2429.79
579.25	2424.28
579.60	2419.47
579.95	2414.52
580.30	2409.65
580.66	2404.39
581.01	2399.24
581.36	2394.10
581.71	2389.92
582.06	2385.64
582.42	2381.22
582.77	2375.94
583.12	2371.23
583.47	2366.55
583.82	2361.53
584.17	2356.06
584.53	2350.36
584.88	2344.44
585.23	2338.64
585.58	2333.11
585.93	2327.39
586.28	2322.29
586.63	2317.10
586.98	2311.80
587.34	2306.81
587.69	2301.64
588.04	2296.30
588.39	2290.48
588.74	2283.58
589.09	2277.04
589.44	2269.90
589.79	2263.33
590.14	2257.19
590.49	2250.24
590.84	2243.35
591.19	2236.91
591.54	2230.01
591.89	2222.39
592.25	2215.52
592.60	2207.69
592.95	2199.64
593.30	2191.70
593.65	2183.57
594.00	2175.93
594.35	2167.98
594.70	2159.36
595.05	2151.88
595.40	2143.90
595.75	2135.91
596.10	2129.39
596.45	2122.17
596.80	2115.45
597.15	2108.58
597.50	2101.41
597.85	2094.35
598.19	2087.32
598.54	2080.00
598.89	2072.96
599.24	2066.46
599.59	2059.23
599.94	2052.45
600.29	2045.45
600.64	2038.35
600.99	2030.35
601.34	2023.01
601.69	2015.35
602.04	2008.09
602.39	1999.92
602.74	1992.48
603.08	1985.16
603.43	1977.74
603.78	1969.89
604.13	1962.00
604.48	1954.09
604.83	1946.51
605.18	1939.11
605.53	1930.34
605.87	1921.41
606.22	1913.22
606.57	1904.35
606.92	1895.96
607.27	1888.14
607.62	1880.62
607.96	1872.67
608.31	1865.65
608.66	1857.24
609.01	1849.16
609.36	1840.65
609.70	1831.94
610.05	1823.01
610.40	1814.56
610.75	1805.50
611.10	1797.04
611.44	1787.70
611.79	1778.67
612.14	1768.91
612.49	1758.62
612.83	1749.29
613.18	1740.13
613.53	1731.16
613.88	1721.97
614.22	1712.86
614.57	1703.18
614.92	1694.25
615.27	1685.92
615.61	1676.53
615.96	1667.66
616.31	1659.00
616.65	1650.77
617.00	1642.27
617.35	1633.77
617.70	1624.47
618.04	1615.02
618.39	1605.78
618.74	1597.25
619.08	1588.09
619.43	1579.72
619.78	1572.00
620.12	1564.10
620.47	1555.77
620.82	1546.62
621.16	1538.08
621.51	1529.54
621.85	1520.99
622.20	1511.44
622.55	1502.08
622.89	1493.34
623.24	1484.82
623.59	1476.62
623.93	1468.28
624.28	1460.14
624.62	1451.79
624.97	1443.70
625.32	1435.97
625.66	1428.04
626.01	1420.26
626.35	1412.21
626.70	1403.47
627.04	1394.96
627.39	1386.26
627.73	1377.94
628.08	1370.28
628.43	1362.34
628.77	1354.29
629.12	1346.07
629.46	1338.20
629.81	1329.77
630.15	1321.71
630.50	1313.40
630.84	1304.37
631.19	1295.45
631.53	1287.00
631.88	1278.66
632.22	1270.30
632.57	1262.18
632.91	1253.88
633.26	1245.53
633.60	1237.14
633.95	1229.17
634.29	1221.19
634.64	1213.68
634.98	1205.56
635.32	1197.64
635.67	1190.20
636.01	1182.78
636.36	1175.26
636.70	1168.03
637.05	1160.94
637.39	1153.80
637.73	1146.65
638.08	1140.14
638.42	1133.54
638.77	1126.50
639.11	1119.19
639.45	1112.18
639.80	1104.86
640.14	1097.85
640.49	1090.62
640.83	1083.65
641.17	1076.91
641.52	1070.01
641.86	1062.97
642.20	1056.63
642.55	1049.57
642.89	1042.60
643.23	1035.22
643.58	1028.86
643.92	1022.05
644.26	1015.44
644.61	1008.68
644.95	1002.04
645.29	994.79
645.64	987.41
645.98	980.45
646.32	973.82
646.66	967.15
647.01	960.86
647.35	954.57
647.69	948.15
648.04	942.06
648.38	935.72
648.72	929.20
649.06	922.59
649.41	915.95
649.75	909.52
650.09	902.84
650.43	896.59
650.78	889.78
651.12	883.17
651.46	876.82
651.80	870.59
652.14	864.61
652.49	858.72
652.83	853.02
653.17	846.88
653.51	840.81
653.85	834.78
654.20	828.48
654.54	821.83
654.88	815.50
655.22	808.99
655.56	802.64
655.90	796.58
656.25	790.77
656.59	784.93
656.93	779.34
657.27	773.71
657.61	767.74
657.95	762.14
658.29	756.61
658.64	750.72
658.98	744.85
659.32	738.89
659.66	733.14
660.00	727.38
660.34	721.85
660.68	716.37
661.02	710.81
661.36	705.78
661.70	700.88
662.05	696.11
662.39	691.40
662.73	686.52
663.07	681.63
663.41	676.82
663.75	671.91
664.09	666.89
664.43	662.11
664.77	657.64
665.11	653.01
665.45	648.41
665.79	643.99
666.13	639.46
666.47	634.97
666.81	630.38
667.15	625.84
667.49	621.53
667.83	617.24
668.17	612.94
668.51	608.36
668.85	603.94
669.19	599.66
669.53	595.45
669.87	591.26
670.21	587.27
670.55	583.23
670.89	579.45
671.23	575.63
671.57	571.76
671.91	567.82
672.25	563.88
672.58	560.04
672.92	556.29
673.26	552.86
673.60	549.36
673.94	546.00
674.28	542.81
674.62	539.62
674.96	536.30
675.30	533.12
675.64	529.94
675.97	526.80
676.31	523.70
676.65	520.50
676.99	517.48
677.33	514.25
677.67	511.09
678.01	507.78
678.34	504.51
678.68	501.33
679.02	498.26
679.36	495.26
679.70	492.25
680.04	489.24
680.37	486.03
680.71	482.94
681.05	480.04
681.39	477.00
681.73	474.09
682.06	471.31
682.40	468.52
682.74	465.74
683.08	463.02
683.42	460.25
683.75	457.50
684.09	454.65
684.43	452.03
684.77	449.32
685.10	446.68
685.44	444.15
685.78	441.64
686.12	439.14
686.45	436.63
686.79	434.15
687.13	431.72
687.46	429.38
687.80	427.03
688.14	424.53
688.48	422.29
688.81	419.84
689.15	417.47
689.49	415.05
689.82	412.78
690.16	410.44
690.50	408.15
690.83	405.98
691.17	403.82
691.51	401.67
691.84	399.66
692.18	397.58
692.52	395.46
692.85	393.26
693.19	391.24
693.52	389.20
693.86	387.15
694.20	385.14
694.53	383.17
694.87	381.11
695.21	379.17
695.54	377.13
695.88	375.19
696.21	373.30
696.55	371.51
696.88	369.60
697.22	367.77
697.56	365.98
697.89	364.16
698.23	362.39
698.56	360.65
698.90	358.89
699.23	357.15
699.57	355.45
699.90	353.79
700.24	352.05
700.58	350.38
700.91	348.76
701.25	347.21
701.58	345.73
701.92	344.23
702.25	342.70
702.59	341.22
702.92	339.76
703.26	338.30
703.59	336.85
703.93	335.57
704.26	334.21
704.60	332.80
704.93	331.40
705.26	330.05
705.60	328.69
705.93	327.42
706.27	326.23
706.60	325.04
706.94	323.85
707.27	322.57
707.61	321.36
707.94	320.20
708.27	318.97
708.61	317.72
708.94	316.57
709.28	315.51
709.61	314.44
709.94	313.36
710.28	312.18
710.61	311.08
710.95	309.85
711.28	308.81
711.61	307.79
711.95	306.77
712.28	305.69
712.61	304.61
712.95	303.58
713.28	302.56
713.61	301.55
713.95	300.56
714.28	299.64
714.61	298.72
714.95	297.75
715.28	296.81
715.61	295.83
715.95	294.90
716.28	293.92
716.61	292.97
716.95	292.07
717.28	291.25
717.61	290.37
717.94	289.55
718.28	288.65
718.61	287.81
718.94	287.03
719.27	286.29
719.61	285.60
719.94	284.82
720.27	284.03
720.60	283.32
720.94	282.64
721.27	281.97
721.60	281.31
721.93	280.65
722.27	280.05
722.60	279.43
722.93	278.79
723.26	278.21
723.59	277.59
723.93	276.98
724.26	276.37
724.59	275.74
724.92	275.19
725.25	274.65
725.59	274.08
725.92	273.52
726.25	272.94
726.58	272.38
726.91	271.86
727.24	271.33
727.57	270.78
727.91	270.20
728.24	269.67
728.57	269.15
728.90	268.66
729.23	268.12
729.56	267.65
729.89	267.13
730.22	266.58
730.55	266.08
730.89	265.59
731.22	265.11
731.55	264.67
731.88	264.17
732.21	263.68
732.54	263.20
732.87	262.70
733.20	262.26
733.53	261.80
733.86	261.36
734.19	260.91
734.52	260.50
734.85	260.14
735.18	259.67
735.51	259.26
735.84	258.85
736.17	258.47
736.50	258.05
736.83	257.77
737.16	257.44
737.49	257.07
737.82	256.72
738.15	256.35
738.48	255.98
738.81	255.62
739.14	255.25
739.47	254.89
739.80	254.61
740.13	254.30
740.46	253.97
740.79	253.63
741.12	253.29
741.45	252.94
741.78	252.57
742.11	252.29
742.44	251.94
742.77	251.61
743.10	251.25
743.43	250.92
743.75	250.51
744.08	250.32
744.41	250.05
744.74	249.74
745.07	249.45
745.40	249.18
745.73	248.92
746.06	248.62
746.39	248.32
746.71	248.00
747.04	247.69
747.37	247.40
747.70	247.13
748.03	246.85
748.36	246.58
748.68	246.34
749.01	246.08
749.34	245.82
749.67	245.58
750.00	245.36
750.33	245.16
750.65	244.92
750.98	244.55
751.31	244.26
751.64	244.02
751.97	243.84
752.29	243.59
752.62	243.29
752.95	243.06
753.28	242.86
753.60	242.59
753.93	242.39
754.26	242.17
754.59	241.94
754.91	241.75
755.24	241.52
755.57	241.26
755.90	241.06
756.22	240.84
756.55	240.62
756.88	240.38
757.20	240.12
757.53	239.90
757.86	239.72
758.19	239.53
758.51	239.33
758.84	239.09
759.17	238.92
759.49	238.75
759.82	238.62
760.15	238.46
760.47	238.33
760.80	238.13
761.13	237.97
761.45	237.77
761.78	237.59
762.11	237.44
762.43	237.28
762.76	237.10
763.08	236.96
763.41	236.78
763.74	236.64
764.06	236.46
764.39	236.31
764.71	236.13
765.04	235.98
765.37	235.82
765.69	235.66
766.02	235.51
766.34	235.37
766.67	235.20
767.00	235.09
767.32	235.00
767.65	234.94
767.97	234.82
768.30	234.71
768.62	234.60
768.95	234.47
769.27	234.35
769.60	234.29
769.92	234.13
770.25	234.02
770.57	233.88
770.90	233.78
771.22	233.64
771.55	233.58
771.87	233.48
772.20	233.39
772.52	233.40
772.85	233.43
773.17	233.33
773.50	233.20
773.82	233.05
774.15	232.91
774.47	232.76
774.80	232.65
775.12	232.56
775.45	232.47
775.77	232.40
776.09	232.32
776.42	232.20
776.74	232.14
777.07	232.08
777.39	232.05
777.72	231.98
778.04	231.95
778.36	231.88
778.69	231.81
779.01	231.76
779.33	231.56
779.66	231.35
779.98	231.27
780.31	231.24
780.63	231.23
780.95	231.16
781.28	231.10
781.60	231.02
781.92	230.97
782.25	230.94
782.57	230.87
782.89	230.81
783.22	230.71
783.54	230.66
783.86	230.60
784.19	230.51
784.51	230.48
784.83	230.41
785.16	230.34
785.48	230.30
785.80	230.23
786.12	230.19
786.45	230.13
786.77	230.12
787.09	230.07
787.42	229.99
787.74	229.96
788.06	229.90
788.38	229.84
788.71	229.80
789.03	229.74
789.35	229.70
789.67	229.66
789.99	229.65
790.32	229.61
790.64	229.58
790.96	229.63
791.28	229.52
791.61	229.47
791.93	229.41
792.25	229.34
792.57	229.34
792.89	229.30
793.21	229.29
793.54	229.21
793.86	229.16
794.18	229.10
794.50	229.07
794.82	229.02
795.14	229.02
795.47	228.98
795.79	228.95
796.11	228.87
796.43	228.81
796.75	228.74
797.07	228.70
797.39	228.63
797.71	228.51
798.04	228.47
798.36	228.44
798.68	228.40
799.00	228.38
799.32	228.30
799.64	228.30
799.96	228.25
800.28	228.22
800.60	228.17
800.92	228.15
801.24	228.09
801.56	228.11
801.89	228.04
802.21	228.02
802.53	227.95
802.85	227.94
803.17	227.96
803.49	227.90
803.81	227.83
804.13	227.83
804.45	227.79
804.77	227.80
805.09	227.79
805.41	227.75
805.73	227.73
806.05	227.69
806.37	227.65
806.69	227.64
807.01	227.62
807.33	227.59
807.65	227.52
807.97	227.54
808.28	227.48
808.60	227.47
808.92	227.43
809.24	227.48
809.56	227.46
809.88	227.39
810.20	227.43
810.52	227.47
810.84	227.43
811.16	227.36
811.48	227.31
811.80	227.32
812.12	227.31
812.43	227.27
812.75	227.27
813.07	227.24
813.39	227.17
813.71	227.12
814.03	227.09
814.35	227.08
814.67	226.99
814.98	226.99
815.30	226.95
815.62	226.88
815.94	226.77
816.26	226.76
816.58	226.71
816.89	226.67
817.21	226.61
817.53	226.59
817.85	226.60
818.17	226.62
818.48	226.55
818.80	226.55
819.12	226.50
819.44	226.45
819.76	226.42
820.07	226.44
820.39	226.44
820.71	226.43
821.03	226.42
821.34	226.41
821.66	226.39
821.98	226.42
822.30	226.41
822.61	226.46
822.93	226.40
823.25	226.39
823.57	226.36
823.88	226.37
824.20	226.35
824.52	226.33
824.83	226.29
825.15	226.27
825.47	226.25
825.79	226.27
826.10	226.26
826.42	226.24
826.74	226.24
827.05	226.21
827.37	226.18
827.69	226.17
828.00	226.16
828.32	226.13
828.64	226.09
828.95	226.13
829.27	226.09
829.58	226.07
829.90	226.07
830.22	226.04
830.53	226.01
830.85	225.99
831.17	225.97
831.48	225.94
831.80	225.92
832.11	225.89
832.43	225.84
832.75	225.79
833.06	225.85
833.38	225.81
833.69	225.79
834.01	225.83
834.32	225.81
834.64	225.80
834.96	225.78
835.27	225.74
835.59	225.70
835.90	225.65
836.22	225.66
836.53	225.63
836.85	225.64
837.16	225.73
837.48	225.75
837.79	225.76
838.11	225.76
838.42	225.78
838.74	225.79
839.05	225.80
839.37	225.80
839.68	225.75
840.00	225.74
840.31	225.74
840.63	225.70
840.94	225.66
841.26	225.66
841.57	225.67
841.88	225.69
842.20	225.65
842.51	225.66
842.83	225.67
843.14	225.77
843.46	225.73
843.77	225.61
844.08	225.58
844.40	225.55
844.71	225.54
845.03	225.52
845.34	225.47
845.65	225.46
845.97	225.45
846.28	225.43
846.60	225.40
846.91	225.38
847.22	225.37
847.54	225.38
847.85	225.34
848.16	225.31
848.48	225.30
848.79	225.34
849.10	225.35
849.42	225.34
849.73	225.24
850.04	225.28
850.36	225.27
850.67	225.27
850.98	225.25
851.30	225.25
851.61	225.24
851.92	225.24
852.23	225.25
852.55	225.26
852.86	225.24
853.17	225.26
853.49	225.28
853.80	225.30
854.11	225.32
854.42	225.32
854.74	225.28
855.05	225.25
855.36	225.20
855.67	225.16
855.99	225.14
856.30	225.23
856.61	225.19
856.92	225.19
857.23	225.19
857.55	225.19
857.86	225.18
858.17	225.19
858.48	225.20
858.79	225.18
859.11	225.17
859.42	225.16
859.73	225.15
860.04	225.15
860.35	225.10
860.66	225.02
860.98	225.03
861.29	225.06
861.60	225.08
861.91	225.12
862.22	225.11
862.53	225.07
862.84	224.95
863.16	224.96
863.47	224.93
863.78	224.90
864.09	224.86
864.40	224.86
864.71	224.83
865.02	224.83
865.33	224.82
865.64	224.78
865.95	224.78
866.27	224.82
866.58	224.79
866.89	224.83
867.20	224.86
867.51	224.83
867.82	224.84
868.13	224.82
868.44	224.78
868.75	224.79
869.06	224.81
869.37	224.81
869.68	224.76
869.99	224.78
870.30	224.82
870.61	224.85
870.92	224.82
871.23	224.81
871.54	224.81
871.85	224.81
872.16	224.84
872.47	224.79
872.78	224.77
873.09	224.82
873.40	224.79
873.71	224.81
874.02	224.81
874.33	224.79
874.64	224.79
874.95	224.80
875.26	224.79
875.56	224.79
875.87	224.81
876.18	224.86
876.49	224.96
876.80	224.92
877.11	224.91
877.42	224.95
877.73	224.98
878.04	224.98
878.35	224.99
878.66	224.99
878.96	225.03
879.27	225.03
879.58	224.99
879.89	225.00
880.20	225.06
880.51	225.06
880.82	225.08
881.12	225.12
881.43	225.11
881.74	225.09
882.05	225.11
882.36	225.11
882.67	225.11
882.97	225.04
883.28	225.05
883.59	225.06
883.90	225.08
884.21	225.10
884.51	225.06
884.82	225.07
885.13	225.08
885.44	225.07
885.74	225.05
886.05	225.04
886.36	225.05
886.67	224.99
886.98	225.05
887.28	225.03
887.59	225.03
887.90	225.04
888.20	225.04
888.51	225.05
888.82	225.03
889.13	225.05
889.43	225.10
889.74	225.13
890.05	225.13
890.35	225.08
890.66	225.07
890.97	225.08
891.28	225.07
891.58	225.05
891.89	225.07
892.20	225.06
892.50	225.04
892.81	225.01
893.12	224.99
893.42	224.94
893.73	224.95
894.04	224.92
894.34	224.91
894.65	224.91
894.95	224.88
895.26	224.90
895.57	224.90
895.87	224.82
896.18	224.81
896.48	224.83
896.79	224.84
897.10	224.84
897.40	224.82
897.71	224.80
898.01	224.81
898.32	224.82
898.63	224.81
898.93	224.82
899.24	224.82
899.54	224.83
899.85	224.82
900.15	224.78
900.46	224.79
900.76	224.79
901.07	224.78
901.38	224.78
901.68	224.79
901.99	224.71
902.29	224.69
902.60	224.65
902.90	224.65
903.21	224.61
903.51	224.58
903.82	224.62
904.12	224.64
904.43	224.64
904.73	224.62
905.03	224.67
905.34	224.77
905.64	224.80
905.95	224.77
906.25	224.75
906.56	224.80
906.86	224.83
907.17	224.82
907.47	224.82
907.77	224.82
908.08	224.78
908.38	224.82
908.69	224.84
908.99	224.86
909.30	224.84
909.60	224.87
909.90	224.88
910.21	224.83
910.51	224.82
910.81	224.85
911.12	224.85
911.42	224.85
911.73	224.74
912.03	224.74
912.33	224.75
912.64	224.79
912.94	224.77
913.24	224.73
913.55	224.76
913.85	224.77
914.15	224.77
914.46	224.81
914.76	224.80
915.06	224.79
915.37	224.77
915.67	224.78
915.97	224.79
916.27	224.78
916.58	224.79
916.88	224.76
917.18	224.73
917.49	224.80
917.79	224.77
918.09	224.79
918.39	224.80
918.70	224.82
919.00	224.82
919.30	224.87
919.60	224.86
919.91	224.80
920.21	224.79
920.51	224.75
920.81	224.75
921.12	224.78
921.42	224.78
921.72	224.82
922.02	224.81
922.32	224.82
922.63	224.85
922.93	224.89
923.23	224.92
923.53	224.91
923.83	224.84
924.13	224.87
924.44	224.85
924.74	224.85
925.04	224.84
925.34	224.80
925.64	224.75
925.94	224.78
926.24	224.85
926.55	224.84
926.85	224.92
927.15	224.91
927.45	224.89
927.75	224.88
928.05	224.83
928.35	224.81
928.65	224.85
928.95	224.84
929.26	224.81
929.56	224.82
929.86	224.82
930.16	224.81
930.46	224.75
930.76	224.78
931.06	224.72
931.36	224.72
931.66	224.75
931.96	224.76
932.26	224.74
932.56	224.70
932.86	224.73
933.16	224.71
933.46	224.67
933.76	224.65
934.06	224.68
934.36	224.72
934.66	224.72
934.96	224.68
935.26	224.66
935.56	224.68
935.86	224.66
936.16	224.63
936.46	224.64
936.76	224.66
937.06	224.64
937.36	224.66
937.66	224.64
937.96	224.62
938.26	224.56
938.56	224.58
938.86	224.59
939.16	224.59
939.46	224.59
939.76	224.59
940.06	224.59
940.35	224.57
940.65	224.54
940.95	224.54
941.25	224.52
941.55	224.53
941.85	224.53
942.15	224.54
942.45	224.58
942.75	224.54
943.04	224.54
943.34	224.56
943.64	224.58
943.94	224.58
944.24	224.59
944.54	224.61
944.84	224.57
945.13	224.57
945.43	224.58
945.73	224.56
946.03	224.55
946.33	224.56
946.62	224.55
946.92	224.55
947.22	224.58
947.52	224.59
947.82	224.59
948.11	224.56
948.41	224.53
948.71	224.53
949.01	224.54
949.31	224.54
949.60	224.53
949.90	224.54
950.20	224.54
950.50	224.54
950.79	224.57
951.09	224.61
951.39	224.58
951.69	224.55
951.98	224.58
952.28	224.62
952.58	224.62
952.87	224.61
953.17	224.63
953.47	224.57
953.76	224.57
954.06	224.56
954.36	224.54
954.66	224.53
954.95	224.54
955.25	224.58
955.55	224.57
955.84	224.54
956.14	224.53
956.44	224.52
956.73	224.53
957.03	224.48
957.32	224.50
957.62	224.50
957.92	224.52
958.21	224.50
958.51	224.61
958.81	224.63
959.10	224.67
959.40	224.72
959.69	224.75
959.99	224.78
960.29	224.77
960.58	224.81
960.88	224.87
961.17	224.87
961.47	224.87
961.76	224.89
962.06	224.93
962.36	224.94
962.65	224.94
962.95	224.94
963.24	224.98
963.54	224.97
963.83	225.00
964.13	224.98
964.42	224.98
964.72	224.87
965.01	224.86
965.31	224.83
965.60	224.77
965.90	224.87
966.19	224.82
966.49	224.84
966.78	224.85
967.08	224.83
967.37	224.80
967.67	224.80
967.96	224.79
968.26	224.76
968.55	224.79
968.85	224.79
969.14	224.81
969.43	224.84
969.73	224.82
970.02	224.79
970.32	224.79
970.61	224.77
970.91	224.78
971.20	224.76
971.49	224.74
971.79	224.77
972.08	224.69
972.38	224.71
972.67	224.68
972.96	224.68
973.26	224.70
973.55	224.75
973.85	224.76
974.14	224.77
974.43	224.79
974.73	224.76
975.02	224.75
975.31	224.71
975.61	224.70
975.90	224.71
976.19	224.73
976.49	224.75
976.78	224.77
977.07	224.74
977.37	224.76
977.66	224.78
977.95	224.76
978.24	224.76
978.54	224.79
978.83	224.81
979.12	224.80
979.42	224.77
979.71	224.74
980.00	224.73
980.29	224.72
980.59	224.70
980.88	224.73
981.17	224.70
981.46	224.71
981.76	224.71
982.05	224.72
982.34	224.71
982.63	224.69
982.93	224.70
983.22	224.74
983.51	224.72
983.80	224.74
984.09	224.74
984.39	224.72
984.68	224.72
984.97	224.69
985.26	224.67
985.55	224.67
985.85	224.63
986.14	224.65
986.43	224.67
986.72	224.70
987.01	224.66
987.30	224.70
987.59	224.68
987.89	224.67
988.18	224.65
988.47	224.64
988.76	224.63
989.05	224.62
989.34	224.62
989.63	224.62
989.92	224.57
990.22	224.56
990.51	224.56
990.80	224.54
991.09	224.52
991.38	224.55
991.67	224.55
991.96	224.55
992.25	224.56
992.54	224.53
992.83	224.46
993.12	224.47
993.41	224.46
993.70	224.52
993.99	224.53
994.28	224.52
994.58	224.50
994.87	224.47
995.16	224.48
995.45	224.46
995.74	224.42
996.03	224.50
996.32	224.54
996.61	224.55
996.90	224.52
997.19	224.55
997.48	224.56
997.77	224.54
998.06	224.57
998.34	224.55
998.63	224.53
998.92	224.59
999.21	224.59
999.50	224.55
999.79	224.53
1000.08	224.53
1000.37	224.57
1000.66	224.57
1000.95	224.61
1001.24	224.59
1001.53	224.59
1001.82	224.62
1002.11	224.56
1002.40	224.53
1002.68	224.55
1002.97	224.65
1003.26	224.65
1003.55	224.61
1003.84	224.64
1004.13	224.64
1004.42	224.62
1004.71	224.65
1004.99	224.63
1005.28	224.65
1005.57	224.67
1005.86	224.65
1006.15	224.64
1006.44	224.62
1006.72	224.64
1007.01	224.63
1007.30	224.64
1007.59	224.64
1007.88	224.66
1008.17	224.64
1008.45	224.66
1008.74	224.62
1009.03	224.59
1009.32	224.57
1009.60	224.59
1009.89	224.57
1010.18	224.54
1010.47	224.54
1010.76	224.54
1011.04	224.54
1011.33	224.56
1011.62	224.57
1011.91	224.58
1012.19	224.59
1012.48	224.59
1012.77	224.59
1013.05	224.66
1013.34	224.69
1013.63	224.67
1013.92	224.69
1014.20	224.70
1014.49	224.69
1014.78	224.73
1015.06	224.67
1015.35	224.67
1015.64	224.68
1015.92	224.70
1016.21	224.70
1016.50	224.69
1016.78	224.71
1017.07	224.69
1017.36	224.68
1017.64	224.63
1017.93	224.61
1018.22	224.57
1018.50	224.55
1018.79	224.54
1019.08	224.49
1019.36	224.45
1019.65	224.46
1019.93	224.46
1020.22	224.48
1020.51	224.52
1020.79	224.48
1021.08	223.96
1021.36	224.17
1021.65	224.37
1021.94	224.66
1022.22	224.37
1022.51	224.51
1022.79	225.16
1023.08	224.71
1023.36	225.37
1023.65	224.37
>>>>>End Processed Spectral Data<<<<<
