SpectraSuite Data File
++++++++++++++++++++++++++++++++++++
Date: Fri Feb 01 15:46:50 EST 2013
User: group
Dark Spectrum Present: No
Reference Spectrum Present: No
Number of Sampled Component Spectra: 1
Spectrometers: USB2E7196
Integration Time (usec): 35000 (USB2E7196)
Spectra Averaged: 100 (USB2E7196)
Boxcar Smoothing: 10 (USB2E7196)
Correct for Electrical Dark: No (USB2E7196)
Strobe/Lamp Enabled: No (USB2E7196)
Correct for Detector Non-linearity: No (USB2E7196)
Correct for Stray Light: No (USB2E7196)
Number of Pixels in Processed Spectrum: 2048
>>>>>Begin Processed Spectral Data<<<<<
339.09	0.00
339.48	214.57
339.86	216.70
340.24	217.83
340.63	218.91
341.01	221.82
341.39	221.81
341.78	222.61
342.16	224.36
342.54	225.47
342.93	213.24
343.31	224.01
343.69	224.56
344.07	225.01
344.46	225.44
344.84	225.83
345.22	226.07
345.60	226.33
345.99	226.55
346.37	226.68
346.75	226.76
347.13	226.83
347.52	226.87
347.90	226.93
348.28	226.96
348.66	227.01
349.05	226.98
349.43	227.00
349.81	227.02
350.19	227.08
350.57	227.11
350.96	227.19
351.34	227.31
351.72	227.38
352.10	227.46
352.48	227.54
352.87	227.58
353.25	227.64
353.63	227.71
354.01	227.75
354.39	227.80
354.77	227.89
355.15	227.98
355.54	228.04
355.92	228.08
356.30	228.16
356.68	228.29
357.06	228.39
357.44	228.43
357.82	228.49
358.20	228.54
358.58	228.62
358.97	228.70
359.35	228.74
359.73	228.82
360.11	228.89
360.49	228.90
360.87	228.97
361.25	229.04
361.63	229.10
362.01	229.16
362.39	229.20
362.77	229.24
363.15	229.28
363.53	229.32
363.91	229.37
364.29	229.36
364.67	229.31
365.05	229.32
365.43	229.36
365.81	229.41
366.19	229.45
366.57	229.50
366.95	229.46
367.33	229.44
367.71	229.43
368.09	229.46
368.47	229.47
368.85	229.45
369.23	229.45
369.61	229.37
369.99	229.39
370.37	229.38
370.75	229.38
371.13	229.30
371.51	229.26
371.89	229.19
372.27	229.16
372.65	229.13
373.03	229.09
373.41	229.02
373.78	228.95
374.16	228.85
374.54	228.78
374.92	228.72
375.30	228.64
375.68	228.56
376.06	228.46
376.44	228.39
376.82	228.34
377.19	228.25
377.57	228.20
377.95	228.09
378.33	228.02
378.71	227.90
379.09	227.84
379.47	227.77
379.84	227.73
380.22	227.64
380.60	227.55
380.98	227.48
381.36	227.41
381.73	227.33
382.11	227.26
382.49	227.18
382.87	227.10
383.25	227.04
383.62	227.06
384.00	227.00
384.38	226.95
384.76	226.89
385.13	226.85
385.51	226.78
385.89	226.69
386.27	226.63
386.64	226.60
387.02	226.55
387.40	226.50
387.78	226.43
388.15	226.40
388.53	226.36
388.91	226.32
389.29	226.30
389.66	226.31
390.04	226.31
390.42	226.29
390.79	226.27
391.17	226.28
391.55	226.18
391.92	226.16
392.30	226.13
392.68	226.12
393.05	226.15
393.43	226.17
393.81	226.20
394.18	226.21
394.56	226.19
394.94	226.22
395.31	226.23
395.69	226.28
396.06	226.32
396.44	226.37
396.82	226.40
397.19	226.50
397.57	226.48
397.95	226.52
398.32	226.56
398.70	226.63
399.07	226.71
399.45	226.78
399.82	226.85
400.20	226.96
400.58	227.02
400.95	227.03
401.33	227.15
401.70	227.30
402.08	227.40
402.45	227.53
402.83	227.65
403.20	227.77
403.58	227.85
403.95	228.00
404.33	228.14
404.71	228.28
405.08	228.45
405.46	228.58
405.83	228.73
406.21	228.90
406.58	229.08
406.96	229.23
407.33	229.41
407.70	229.63
408.08	229.89
408.45	230.09
408.83	230.36
409.20	230.53
409.58	230.74
409.95	231.00
410.33	231.28
410.70	231.53
411.08	231.78
411.45	232.12
411.82	232.41
412.20	232.72
412.57	233.13
412.95	233.41
413.32	233.84
413.69	234.22
414.07	234.67
414.44	235.14
414.82	235.63
415.19	236.18
415.56	236.73
415.94	237.23
416.31	237.87
416.68	238.48
417.06	239.18
417.43	239.85
417.81	240.60
418.18	241.36
418.55	242.22
418.93	243.09
419.30	243.97
419.67	244.89
420.04	245.87
420.42	246.86
420.79	248.03
421.16	249.15
421.54	250.37
421.91	251.54
422.28	252.79
422.66	254.15
423.03	255.44
423.40	256.75
423.77	258.19
424.15	259.62
424.52	261.07
424.89	262.70
425.26	264.22
425.64	265.68
426.01	267.31
426.38	268.96
426.75	270.64
427.13	272.35
427.50	274.16
427.87	276.04
428.24	277.92
428.61	279.70
428.99	281.66
429.36	283.77
429.73	285.86
430.10	287.90
430.47	289.93
430.85	292.03
431.22	294.29
431.59	296.67
431.96	298.92
432.33	301.45
432.70	303.82
433.08	306.68
433.45	309.30
433.82	311.91
434.19	314.81
434.56	317.68
434.93	320.37
435.30	323.01
435.68	325.87
436.05	328.63
436.42	331.37
436.79	333.91
437.16	336.62
437.53	339.40
437.90	342.21
438.27	344.95
438.64	347.82
439.01	350.38
439.38	352.62
439.75	354.78
440.13	357.25
440.50	359.62
440.87	361.43
441.24	363.35
441.61	365.46
441.98	366.93
442.35	368.69
442.72	370.54
443.09	372.32
443.46	373.35
443.83	374.05
444.20	374.58
444.57	375.42
444.94	375.70
445.31	376.08
445.68	376.41
446.05	376.50
446.42	376.08
446.79	375.68
447.16	375.20
447.53	374.92
447.90	373.76
448.27	372.59
448.64	371.03
449.01	369.92
449.37	367.97
449.74	366.04
450.11	363.82
450.48	361.38
450.85	358.87
451.22	356.71
451.59	354.67
451.96	352.74
452.33	350.10
452.70	347.72
453.07	344.89
453.43	341.99
453.80	339.24
454.17	336.56
454.54	334.00
454.91	331.29
455.28	328.61
455.65	326.15
456.02	323.67
456.38	321.50
456.75	318.81
457.12	316.55
457.49	314.35
457.86	312.14
458.23	310.26
458.59	308.22
458.96	306.17
459.33	304.30
459.70	302.44
460.07	300.98
460.43	299.32
460.80	297.71
461.17	296.29
461.54	294.79
461.91	293.38
462.27	291.96
462.64	290.72
463.01	289.37
463.38	288.06
463.74	286.69
464.11	285.55
464.48	284.57
464.85	283.47
465.21	282.59
465.58	281.68
465.95	280.57
466.32	279.67
466.68	278.72
467.05	277.82
467.42	276.91
467.78	275.93
468.15	275.01
468.52	274.32
468.88	273.46
469.25	272.70
469.62	272.08
469.98	271.39
470.35	270.75
470.72	270.12
471.08	269.45
471.45	268.94
471.82	268.37
472.18	267.76
472.55	267.31
472.92	266.78
473.28	266.31
473.65	265.85
474.02	265.38
474.38	265.00
474.75	264.63
475.11	264.28
475.48	264.01
475.85	263.79
476.21	263.55
476.58	263.33
476.94	263.17
477.31	262.98
477.67	262.82
478.04	262.74
478.41	262.68
478.77	262.74
479.14	262.65
479.50	262.70
479.87	262.74
480.23	262.84
480.60	262.93
480.96	263.03
481.33	263.27
481.69	263.49
482.06	263.71
482.42	263.95
482.79	264.22
483.15	264.60
483.52	264.98
483.88	265.33
484.25	265.74
484.61	266.16
484.98	266.60
485.34	267.17
485.71	267.75
486.07	268.37
486.44	268.91
486.80	269.66
487.17	270.37
487.53	271.20
487.90	272.08
488.26	273.00
488.62	274.02
488.99	274.98
489.35	276.04
489.72	277.17
490.08	278.40
490.44	279.63
490.81	280.93
491.17	282.28
491.54	283.79
491.90	285.32
492.26	286.94
492.63	288.76
492.99	290.57
493.36	292.49
493.72	294.55
494.08	296.71
494.45	298.94
494.81	301.30
495.17	303.76
495.54	306.30
495.90	309.00
496.26	311.81
496.63	314.77
496.99	317.89
497.35	321.17
497.72	324.59
498.08	328.12
498.44	331.81
498.80	335.73
499.17	339.73
499.53	343.90
499.89	348.34
500.26	352.81
500.62	357.46
500.98	362.38
501.34	367.47
501.71	372.81
502.07	378.29
502.43	383.89
502.79	389.72
503.16	395.82
503.52	402.11
503.88	408.53
504.24	415.20
504.60	422.12
504.97	429.22
505.33	436.47
505.69	444.22
506.05	452.10
506.41	459.97
506.78	468.21
507.14	476.71
507.50	485.39
507.86	494.44
508.22	503.68
508.59	512.89
508.95	522.46
509.31	532.27
509.67	542.33
510.03	552.67
510.39	563.28
510.75	574.05
511.12	584.97
511.48	596.30
511.84	607.69
512.20	619.22
512.56	631.23
512.92	643.51
513.28	655.77
513.64	668.11
514.00	680.83
514.37	693.78
514.73	706.82
515.09	719.90
515.45	733.10
515.81	746.71
516.17	760.69
516.53	774.82
516.89	788.99
517.25	803.16
517.61	817.54
517.97	831.85
518.33	846.27
518.69	861.03
519.05	875.97
519.41	891.22
519.77	906.69
520.13	922.08
520.49	937.35
520.85	952.79
521.21	968.56
521.57	984.82
521.93	1000.50
522.29	1016.98
522.65	1033.07
523.01	1049.39
523.37	1065.50
523.73	1081.75
524.09	1097.78
524.45	1114.12
524.81	1130.76
525.17	1147.61
525.53	1164.53
525.89	1181.46
526.25	1198.34
526.61	1214.76
526.97	1231.36
527.33	1247.79
527.68	1264.37
528.04	1280.90
528.40	1297.52
528.76	1314.64
529.12	1331.16
529.48	1348.08
529.84	1364.03
530.20	1380.80
530.56	1397.84
530.91	1415.11
531.27	1431.75
531.63	1448.37
531.99	1464.95
532.35	1480.84
532.71	1496.66
533.07	1513.05
533.42	1528.94
533.78	1544.95
534.14	1561.17
534.50	1576.67
534.86	1592.62
535.21	1607.76
535.57	1623.70
535.93	1639.20
536.29	1653.97
536.65	1669.07
537.00	1683.90
537.36	1699.14
537.72	1713.74
538.08	1728.16
538.44	1741.87
538.79	1755.77
539.15	1769.37
539.51	1783.08
539.87	1797.53
540.22	1811.33
540.58	1825.04
540.94	1838.33
541.29	1851.23
541.65	1863.91
542.01	1877.04
542.37	1889.27
542.72	1901.79
543.08	1913.57
543.44	1925.97
543.79	1937.13
544.15	1948.17
544.51	1959.68
544.87	1970.69
545.22	1981.44
545.58	1991.63
545.94	2001.54
546.29	2011.47
546.65	2021.30
547.01	2030.52
547.36	2039.26
547.72	2047.71
548.07	2055.66
548.43	2063.91
548.79	2072.02
549.14	2079.63
549.50	2087.02
549.86	2094.84
550.21	2102.10
550.57	2109.30
550.92	2115.84
551.28	2123.03
551.64	2130.08
551.99	2136.62
552.35	2142.77
552.70	2149.00
553.06	2154.95
553.41	2161.31
553.77	2167.40
554.13	2173.48
554.48	2179.57
554.84	2184.95
555.19	2190.41
555.55	2195.49
555.90	2199.86
556.26	2204.67
556.61	2209.44
556.97	2213.67
557.32	2217.93
557.68	2222.14
558.03	2226.43
558.39	2230.18
558.74	2234.76
559.10	2238.48
559.45	2242.10
559.81	2246.51
560.16	2250.31
560.52	2253.42
560.87	2256.78
561.23	2259.45
561.58	2262.50
561.94	2265.10
562.29	2267.47
562.64	2269.95
563.00	2272.54
563.35	2276.13
563.71	2279.30
564.06	2282.46
564.42	2285.32
564.77	2287.69
565.12	2289.79
565.48	2291.64
565.83	2293.44
566.19	2294.64
566.54	2295.62
566.89	2296.77
567.25	2297.39
567.60	2298.63
567.96	2300.51
568.31	2301.35
568.66	2302.52
569.02	2302.97
569.37	2303.31
569.72	2304.09
570.08	2304.30
570.43	2304.31
570.78	2303.65
571.14	2302.15
571.49	2300.91
571.84	2300.73
572.20	2299.62
572.55	2298.66
572.90	2297.06
573.26	2295.66
573.61	2294.05
573.96	2292.32
574.31	2289.28
574.67	2286.16
575.02	2282.61
575.37	2279.21
575.72	2275.29
576.08	2271.80
576.43	2268.43
576.78	2264.72
577.13	2261.72
577.49	2258.57
577.84	2254.96
578.19	2251.18
578.54	2247.40
578.90	2242.97
579.25	2237.31
579.60	2232.10
579.95	2227.04
580.30	2221.98
580.66	2216.82
581.01	2211.85
581.36	2207.01
581.71	2202.86
582.06	2198.42
582.42	2193.79
582.77	2188.46
583.12	2183.97
583.47	2179.18
583.82	2174.21
584.17	2168.96
584.53	2163.34
584.88	2157.80
585.23	2151.97
585.58	2146.61
585.93	2141.19
586.28	2136.43
586.63	2131.28
586.98	2126.47
587.34	2121.73
587.69	2116.93
588.04	2111.69
588.39	2106.01
588.74	2099.39
589.09	2093.38
589.44	2086.55
589.79	2080.63
590.14	2075.09
590.49	2068.55
590.84	2062.27
591.19	2056.18
591.54	2049.65
591.89	2042.20
592.25	2035.21
592.60	2028.02
592.95	2020.26
593.30	2012.93
593.65	2005.44
594.00	1998.47
594.35	1991.20
594.70	1983.20
595.05	1975.85
595.40	1968.60
595.75	1961.06
596.10	1954.85
596.45	1947.94
596.80	1941.86
597.15	1935.20
597.50	1927.90
597.85	1921.45
598.19	1914.61
598.54	1907.46
598.89	1900.80
599.24	1894.94
599.59	1888.27
599.94	1882.18
600.29	1876.05
600.64	1869.52
600.99	1861.91
601.34	1854.93
601.69	1848.02
602.04	1841.25
602.39	1833.92
602.74	1826.95
603.08	1820.13
603.43	1813.46
603.78	1806.03
604.13	1798.79
604.48	1791.40
604.83	1784.47
605.18	1777.33
605.53	1769.36
605.87	1761.38
606.22	1754.26
606.57	1746.32
606.92	1739.04
607.27	1731.77
607.62	1724.76
607.96	1717.39
608.31	1710.92
608.66	1703.37
609.01	1695.71
609.36	1688.01
609.70	1680.01
610.05	1671.92
610.40	1664.24
610.75	1655.86
611.10	1648.25
611.44	1639.75
611.79	1631.76
612.14	1623.21
612.49	1614.12
612.83	1605.80
613.18	1597.63
613.53	1589.48
613.88	1580.88
614.22	1572.65
614.57	1564.10
614.92	1556.01
615.27	1548.38
615.61	1539.98
615.96	1531.92
616.31	1524.29
616.65	1516.98
617.00	1509.37
617.35	1501.88
617.70	1493.49
618.04	1485.02
618.39	1476.88
618.74	1469.34
619.08	1461.14
619.43	1453.55
619.78	1446.70
620.12	1439.58
620.47	1432.02
620.82	1423.86
621.16	1416.46
621.51	1408.79
621.85	1401.11
622.20	1392.57
622.55	1384.17
622.89	1376.27
623.24	1368.70
623.59	1361.25
623.93	1353.66
624.28	1346.54
624.62	1338.83
624.97	1331.75
625.32	1324.97
625.66	1317.91
626.01	1310.65
626.35	1303.06
626.70	1295.28
627.04	1287.45
627.39	1279.67
627.73	1272.31
628.08	1265.30
628.43	1258.05
628.77	1250.64
629.12	1243.08
629.46	1235.88
629.81	1228.51
630.15	1221.22
630.50	1213.88
630.84	1205.74
631.19	1197.86
631.53	1190.38
631.88	1182.89
632.22	1175.26
632.57	1167.91
632.91	1160.36
633.26	1153.00
633.60	1145.80
633.95	1138.78
634.29	1131.85
634.64	1125.16
634.98	1117.84
635.32	1110.74
635.67	1104.16
636.01	1097.58
636.36	1090.70
636.70	1084.25
637.05	1077.77
637.39	1071.38
637.73	1064.78
638.08	1058.89
638.42	1052.83
638.77	1046.26
639.11	1039.68
639.45	1033.24
639.80	1026.64
640.14	1020.20
640.49	1013.60
640.83	1007.09
641.17	1000.73
641.52	994.25
641.86	987.76
642.20	981.95
642.55	975.72
642.89	969.23
643.23	962.75
643.58	957.02
643.92	950.77
644.26	944.58
644.61	938.49
644.95	932.42
645.29	925.76
645.64	919.07
645.98	912.80
646.32	907.03
646.66	901.03
647.01	895.24
647.35	889.56
647.69	883.74
648.04	878.28
648.38	872.54
648.72	866.61
649.06	860.46
649.41	854.54
649.75	848.48
650.09	842.50
650.43	836.65
650.78	830.47
651.12	824.54
651.46	818.84
651.80	813.18
652.14	807.79
652.49	802.43
652.83	797.22
653.17	791.49
653.51	785.59
653.85	780.21
654.20	774.48
654.54	768.44
654.88	762.71
655.22	756.89
655.56	751.16
655.90	745.69
656.25	740.52
656.59	735.11
656.93	730.08
657.27	724.89
657.61	719.47
657.95	714.40
658.29	709.37
658.64	704.13
658.98	698.76
659.32	693.33
659.66	688.07
660.00	682.71
660.34	677.81
660.68	673.04
661.02	667.94
661.36	663.20
661.70	658.69
662.05	654.31
662.39	649.93
662.73	645.53
663.07	641.21
663.41	636.72
663.75	632.24
664.09	627.63
664.43	623.24
664.77	619.10
665.11	614.82
665.45	610.68
665.79	606.59
666.13	602.51
666.47	598.36
666.81	594.24
667.15	590.17
667.49	586.23
667.83	582.43
668.17	578.51
668.51	574.49
668.85	570.50
669.19	566.68
669.53	562.78
669.87	558.85
670.21	555.11
670.55	551.48
670.89	548.06
671.23	544.61
671.57	541.08
671.91	537.56
672.25	534.12
672.58	530.54
672.92	527.13
673.26	523.98
673.60	520.89
673.94	517.80
674.28	514.88
674.62	511.89
674.96	508.72
675.30	505.80
675.64	502.85
675.97	500.10
676.31	497.20
676.65	494.31
676.99	491.65
677.33	488.76
677.67	485.96
678.01	482.96
678.34	480.05
678.68	477.21
679.02	474.40
679.36	471.63
679.70	468.98
680.04	466.22
680.37	463.32
680.71	460.53
681.05	457.88
681.39	455.20
681.73	452.60
682.06	450.11
682.40	447.60
682.74	445.07
683.08	442.54
683.42	439.90
683.75	437.47
684.09	434.92
684.43	432.50
684.77	430.04
685.10	427.65
685.44	425.28
685.78	423.02
686.12	420.70
686.45	418.40
686.79	416.11
687.13	413.90
687.46	411.79
687.80	409.62
688.14	407.41
688.48	405.37
688.81	403.10
689.15	400.96
689.49	398.79
689.82	396.78
690.16	394.66
690.50	392.76
690.83	390.76
691.17	388.78
691.51	386.90
691.84	385.05
692.18	383.13
692.52	381.16
692.85	379.24
693.19	377.39
693.52	375.56
693.86	373.74
694.20	371.97
694.53	370.14
694.87	368.30
695.21	366.51
695.54	364.66
695.88	362.98
696.21	361.23
696.55	359.54
696.88	357.84
697.22	356.21
697.56	354.58
697.89	352.91
698.23	351.27
698.56	349.63
698.90	348.05
699.23	346.40
699.57	344.83
699.90	343.26
700.24	341.71
700.58	340.17
700.91	338.67
701.25	337.22
701.58	335.85
701.92	334.52
702.25	333.11
702.59	331.75
702.92	330.41
703.26	329.13
703.59	327.86
703.93	326.69
704.26	325.41
704.60	324.11
704.93	322.82
705.26	321.59
705.60	320.45
705.93	319.27
706.27	318.21
706.60	317.14
706.94	316.12
707.27	314.95
707.61	313.93
707.94	312.88
708.27	311.80
708.61	310.72
708.94	309.68
709.28	308.73
709.61	307.78
709.94	306.80
710.28	305.74
710.61	304.80
710.95	303.73
711.28	302.84
711.61	301.92
711.95	301.05
712.28	300.10
712.61	299.09
712.95	298.18
713.28	297.29
713.61	296.42
713.95	295.53
714.28	294.77
714.61	293.88
714.95	293.07
715.28	292.20
715.61	291.33
715.95	290.47
716.28	289.61
716.61	288.76
716.95	287.93
717.28	287.25
717.61	286.44
717.94	285.70
718.28	284.88
718.61	284.15
718.94	283.43
719.27	282.76
719.61	282.14
719.94	281.46
720.27	280.75
720.60	280.09
720.94	279.44
721.27	278.82
721.60	278.24
721.93	277.59
722.27	277.04
722.60	276.46
722.93	275.90
723.26	275.39
723.59	274.80
723.93	274.25
724.26	273.67
724.59	273.10
724.92	272.61
725.25	272.12
725.59	271.64
725.92	271.15
726.25	270.66
726.58	270.15
726.91	269.67
727.24	269.23
727.57	268.75
727.91	268.28
728.24	267.78
728.57	267.27
728.90	266.83
729.23	266.34
729.56	265.90
729.89	265.43
730.22	264.95
730.55	264.49
730.89	264.09
731.22	263.65
731.55	263.23
731.88	262.77
732.21	262.33
732.54	261.85
732.87	261.40
733.20	261.01
733.53	260.61
733.86	260.25
734.19	259.80
734.52	259.44
734.85	259.08
735.18	258.68
735.51	258.34
735.84	257.97
736.17	257.59
736.50	257.22
736.83	256.99
737.16	256.67
737.49	256.36
737.82	255.97
738.15	255.64
738.48	255.29
738.81	254.94
739.14	254.63
739.47	254.31
739.80	253.99
740.13	253.65
740.46	253.34
740.79	252.99
741.12	252.73
741.45	252.36
741.78	252.02
742.11	251.75
742.44	251.44
742.77	251.17
743.10	250.88
743.43	250.57
743.75	250.21
744.08	250.00
744.41	249.71
744.74	249.47
745.07	249.18
745.40	248.95
745.73	248.72
746.06	248.41
746.39	248.16
746.71	247.92
747.04	247.66
747.37	247.41
747.70	247.17
748.03	246.92
748.36	246.74
748.68	246.50
749.01	246.28
749.34	246.04
749.67	245.79
750.00	245.63
750.33	245.46
750.65	245.26
750.98	244.92
751.31	244.71
751.64	244.49
751.97	244.34
752.29	244.13
752.62	243.86
752.95	243.68
753.28	243.46
753.60	243.24
753.93	243.04
754.26	242.82
754.59	242.59
754.91	242.40
755.24	242.18
755.57	242.02
755.90	241.82
756.22	241.65
756.55	241.47
756.88	241.24
757.20	241.03
757.53	240.81
757.86	240.69
758.19	240.53
758.51	240.35
758.84	240.15
759.17	239.96
759.49	239.83
759.82	239.71
760.15	239.57
760.47	239.44
760.80	239.28
761.13	239.18
761.45	239.04
761.78	238.87
762.11	238.70
762.43	238.51
762.76	238.36
763.08	238.20
763.41	238.07
763.74	237.93
764.06	237.79
764.39	237.65
764.71	237.49
765.04	237.34
765.37	237.21
765.69	237.04
766.02	236.90
766.34	236.76
766.67	236.57
767.00	236.45
767.32	236.38
767.65	236.30
767.97	236.17
768.30	236.07
768.62	235.96
768.95	235.85
769.27	235.75
769.60	235.63
769.92	235.50
770.25	235.37
770.57	235.23
770.90	235.11
771.22	235.00
771.55	234.91
771.87	234.82
772.20	234.73
772.52	234.77
772.85	234.81
773.17	234.69
773.50	234.59
773.82	234.51
774.15	234.35
774.47	234.24
774.80	234.15
775.12	234.02
775.45	233.94
775.77	233.88
776.09	233.82
776.42	233.72
776.74	233.72
777.07	233.61
777.39	233.56
777.72	233.49
778.04	233.42
778.36	233.32
778.69	233.26
779.01	233.19
779.33	233.01
779.66	232.84
779.98	232.80
780.31	232.75
780.63	232.73
780.95	232.69
781.28	232.59
781.60	232.52
781.92	232.49
782.25	232.43
782.57	232.40
782.89	232.31
783.22	232.29
783.54	232.20
783.86	232.17
784.19	232.10
784.51	232.05
784.83	231.98
785.16	231.95
785.48	231.93
785.80	231.90
786.12	231.85
786.45	231.75
786.77	231.70
787.09	231.64
787.42	231.54
787.74	231.48
788.06	231.47
788.38	231.44
788.71	231.39
789.03	231.37
789.35	231.30
789.67	231.28
789.99	231.24
790.32	231.20
790.64	231.18
790.96	231.24
791.28	231.19
791.61	231.16
791.93	231.13
792.25	231.10
792.57	231.09
792.89	231.05
793.21	231.04
793.54	231.05
793.86	231.01
794.18	230.98
794.50	230.95
794.82	230.92
795.14	230.90
795.47	230.89
795.79	230.86
796.11	230.81
796.43	230.76
796.75	230.73
797.07	230.70
797.39	230.64
797.71	230.54
798.04	230.51
798.36	230.51
798.68	230.47
799.00	230.42
799.32	230.39
799.64	230.36
799.96	230.35
800.28	230.30
800.60	230.28
800.92	230.27
801.24	230.24
801.56	230.17
801.89	230.12
802.21	230.07
802.53	230.00
802.85	230.01
803.17	230.04
803.49	229.96
803.81	229.91
804.13	229.88
804.45	229.83
804.77	229.85
805.09	229.80
805.41	229.77
805.73	229.74
806.05	229.65
806.37	229.66
806.69	229.60
807.01	229.59
807.33	229.59
807.65	229.52
807.97	229.56
808.28	229.57
808.60	229.54
808.92	229.51
809.24	229.55
809.56	229.48
809.88	229.37
810.20	229.35
810.52	229.38
810.84	229.35
811.16	229.32
811.48	229.22
811.80	229.21
812.12	229.17
812.43	229.15
812.75	229.14
813.07	229.05
813.39	229.06
813.71	229.02
814.03	228.94
814.35	228.93
814.67	228.82
814.98	228.77
815.30	228.73
815.62	228.70
815.94	228.61
816.26	228.64
816.58	228.63
816.89	228.63
817.21	228.58
817.53	228.57
817.85	228.57
818.17	228.59
818.48	228.55
818.80	228.57
819.12	228.52
819.44	228.50
819.76	228.48
820.07	228.43
820.39	228.39
820.71	228.38
821.03	228.37
821.34	228.34
821.66	228.36
821.98	228.34
822.30	228.33
822.61	228.40
822.93	228.35
823.25	228.35
823.57	228.33
823.88	228.33
824.20	228.31
824.52	228.31
824.83	228.27
825.15	228.26
825.47	228.24
825.79	228.27
826.10	228.24
826.42	228.27
826.74	228.29
827.05	228.30
827.37	228.33
827.69	228.31
828.00	228.34
828.32	228.34
828.64	228.35
828.95	228.41
829.27	228.35
829.58	228.34
829.90	228.32
830.22	228.33
830.53	228.31
830.85	228.32
831.17	228.30
831.48	228.29
831.80	228.28
832.11	228.23
832.43	228.18
832.75	228.20
833.06	228.24
833.38	228.19
833.69	228.15
834.01	228.16
834.32	228.15
834.64	228.13
834.96	228.10
835.27	228.10
835.59	228.06
835.90	228.04
836.22	228.05
836.53	228.05
836.85	228.03
837.16	228.12
837.48	228.08
837.79	228.09
838.11	228.08
838.42	228.08
838.74	228.12
839.05	228.14
839.37	228.13
839.68	228.04
840.00	228.00
840.31	228.02
840.63	227.99
840.94	227.95
841.26	227.93
841.57	227.92
841.88	227.93
842.20	227.92
842.51	227.93
842.83	227.92
843.14	227.99
843.46	227.97
843.77	227.88
844.08	227.86
844.40	227.80
844.71	227.78
845.03	227.76
845.34	227.69
845.65	227.67
845.97	227.64
846.28	227.63
846.60	227.64
846.91	227.62
847.22	227.59
847.54	227.61
847.85	227.58
848.16	227.56
848.48	227.49
848.79	227.48
849.10	227.46
849.42	227.45
849.73	227.35
850.04	227.36
850.36	227.35
850.67	227.39
850.98	227.42
851.30	227.45
851.61	227.45
851.92	227.46
852.23	227.49
852.55	227.50
852.86	227.50
853.17	227.52
853.49	227.54
853.80	227.60
854.11	227.61
854.42	227.64
854.74	227.63
855.05	227.63
855.36	227.61
855.67	227.61
855.99	227.59
856.30	227.70
856.61	227.64
856.92	227.65
857.23	227.62
857.55	227.56
857.86	227.54
858.17	227.54
858.48	227.49
858.79	227.44
859.11	227.46
859.42	227.45
859.73	227.45
860.04	227.42
860.35	227.34
860.66	227.28
860.98	227.27
861.29	227.29
861.60	227.27
861.91	227.26
862.22	227.23
862.53	227.21
862.84	227.11
863.16	227.16
863.47	227.12
863.78	227.13
864.09	227.16
864.40	227.16
864.71	227.16
865.02	227.21
865.33	227.20
865.64	227.17
865.95	227.20
866.27	227.28
866.58	227.27
866.89	227.32
867.20	227.33
867.51	227.32
867.82	227.33
868.13	227.39
868.44	227.40
868.75	227.45
869.06	227.47
869.37	227.45
869.68	227.43
869.99	227.46
870.30	227.45
870.61	227.44
870.92	227.44
871.23	227.41
871.54	227.46
871.85	227.48
872.16	227.52
872.47	227.48
872.78	227.40
873.09	227.43
873.40	227.40
873.71	227.45
874.02	227.47
874.33	227.45
874.64	227.41
874.95	227.42
875.26	227.39
875.56	227.39
875.87	227.41
876.18	227.41
876.49	227.49
876.80	227.51
877.11	227.50
877.42	227.50
877.73	227.52
878.04	227.46
878.35	227.48
878.66	227.47
878.96	227.49
879.27	227.49
879.58	227.48
879.89	227.46
880.20	227.47
880.51	227.46
880.82	227.44
881.12	227.46
881.43	227.45
881.74	227.42
882.05	227.41
882.36	227.41
882.67	227.44
882.97	227.34
883.28	227.32
883.59	227.31
883.90	227.34
884.21	227.34
884.51	227.36
884.82	227.33
885.13	227.32
885.44	227.32
885.74	227.32
886.05	227.28
886.36	227.28
886.67	227.24
886.98	227.25
887.28	227.28
887.59	227.27
887.90	227.26
888.20	227.31
888.51	227.30
888.82	227.29
889.13	227.31
889.43	227.38
889.74	227.39
890.05	227.40
890.35	227.38
890.66	227.39
890.97	227.35
891.28	227.37
891.58	227.39
891.89	227.37
892.20	227.32
892.50	227.30
892.81	227.31
893.12	227.27
893.42	227.21
893.73	227.17
894.04	227.15
894.34	227.11
894.65	227.07
894.95	227.05
895.26	227.03
895.57	226.99
895.87	226.89
896.18	226.86
896.48	226.86
896.79	226.85
897.10	226.82
897.40	226.81
897.71	226.79
898.01	226.77
898.32	226.73
898.63	226.75
898.93	226.77
899.24	226.77
899.54	226.75
899.85	226.76
900.15	226.74
900.46	226.74
900.76	226.77
901.07	226.73
901.38	226.75
901.68	226.76
901.99	226.72
902.29	226.72
902.60	226.73
902.90	226.71
903.21	226.68
903.51	226.69
903.82	226.72
904.12	226.73
904.43	226.73
904.73	226.77
905.03	226.78
905.34	226.87
905.64	226.87
905.95	226.92
906.25	226.93
906.56	226.98
906.86	227.01
907.17	226.98
907.47	227.03
907.77	226.99
908.08	226.98
908.38	227.01
908.69	227.03
908.99	227.05
909.30	227.09
909.60	227.13
909.90	227.15
910.21	227.15
910.51	227.14
910.81	227.16
911.12	227.17
911.42	227.22
911.73	227.14
912.03	227.14
912.33	227.16
912.64	227.16
912.94	227.17
913.24	227.14
913.55	227.17
913.85	227.15
914.15	227.20
914.46	227.20
914.76	227.20
915.06	227.19
915.37	227.21
915.67	227.16
915.97	227.16
916.27	227.16
916.58	227.15
916.88	227.18
917.18	227.14
917.49	227.22
917.79	227.19
918.09	227.21
918.39	227.25
918.70	227.24
919.00	227.29
919.30	227.32
919.60	227.32
919.91	227.32
920.21	227.34
920.51	227.33
920.81	227.34
921.12	227.35
921.42	227.38
921.72	227.38
922.02	227.39
922.32	227.39
922.63	227.40
922.93	227.44
923.23	227.38
923.53	227.40
923.83	227.31
924.13	227.29
924.44	227.27
924.74	227.27
925.04	227.28
925.34	227.25
925.64	227.18
925.94	227.15
926.24	227.18
926.55	227.14
926.85	227.13
927.15	227.13
927.45	227.15
927.75	227.11
928.05	227.08
928.35	227.10
928.65	227.10
928.95	227.07
929.26	227.01
929.56	227.00
929.86	227.00
930.16	227.01
930.46	226.99
930.76	226.99
931.06	226.91
931.36	226.87
931.66	226.88
931.96	226.90
932.26	226.90
932.56	226.87
932.86	226.89
933.16	226.90
933.46	226.86
933.76	226.78
934.06	226.83
934.36	226.89
934.66	226.82
934.96	226.80
935.26	226.78
935.56	226.80
935.86	226.79
936.16	226.73
936.46	226.70
936.76	226.72
937.06	226.69
937.36	226.73
937.66	226.70
937.96	226.66
938.26	226.61
938.56	226.61
938.86	226.59
939.16	226.59
939.46	226.58
939.76	226.59
940.06	226.62
940.35	226.57
940.65	226.47
940.95	226.50
941.25	226.48
941.55	226.44
941.85	226.45
942.15	226.48
942.45	226.54
942.75	226.55
943.04	226.54
943.34	226.58
943.64	226.55
943.94	226.56
944.24	226.56
944.54	226.57
944.84	226.56
945.13	226.53
945.43	226.53
945.73	226.53
946.03	226.57
946.33	226.55
946.62	226.54
946.92	226.55
947.22	226.59
947.52	226.61
947.82	226.69
948.11	226.69
948.41	226.68
948.71	226.65
949.01	226.66
949.31	226.62
949.60	226.61
949.90	226.64
950.20	226.67
950.50	226.69
950.79	226.69
951.09	226.74
951.39	226.76
951.69	226.76
951.98	226.81
952.28	226.81
952.58	226.81
952.87	226.81
953.17	226.84
953.47	226.79
953.76	226.78
954.06	226.77
954.36	226.75
954.66	226.74
954.95	226.77
955.25	226.80
955.55	226.83
955.84	226.81
956.14	226.83
956.44	226.80
956.73	226.78
957.03	226.83
957.32	226.84
957.62	226.84
957.92	226.85
958.21	226.81
958.51	226.89
958.81	226.91
959.10	226.91
959.40	226.94
959.69	226.95
959.99	226.97
960.29	226.97
960.58	226.97
960.88	227.00
961.17	226.98
961.47	226.98
961.76	226.98
962.06	227.00
962.36	226.99
962.65	227.00
962.95	227.04
963.24	226.99
963.54	226.98
963.83	226.98
964.13	226.99
964.42	226.96
964.72	226.93
965.01	226.90
965.31	226.88
965.60	226.82
965.90	226.89
966.19	226.86
966.49	226.85
966.78	226.82
967.08	226.80
967.37	226.81
967.67	226.77
967.96	226.76
968.26	226.74
968.55	226.76
968.85	226.77
969.14	226.74
969.43	226.73
969.73	226.70
970.02	226.69
970.32	226.67
970.61	226.66
970.91	226.61
971.20	226.62
971.49	226.63
971.79	226.62
972.08	226.56
972.38	226.56
972.67	226.54
972.96	226.54
973.26	226.51
973.55	226.53
973.85	226.53
974.14	226.51
974.43	226.52
974.73	226.46
975.02	226.45
975.31	226.49
975.61	226.49
975.90	226.49
976.19	226.48
976.49	226.51
976.78	226.54
977.07	226.51
977.37	226.54
977.66	226.56
977.95	226.60
978.24	226.61
978.54	226.62
978.83	226.64
979.12	226.65
979.42	226.68
979.71	226.67
980.00	226.67
980.29	226.70
980.59	226.68
980.88	226.74
981.17	226.73
981.46	226.69
981.76	226.70
982.05	226.74
982.34	226.73
982.63	226.69
982.93	226.70
983.22	226.73
983.51	226.75
983.80	226.78
984.09	226.80
984.39	226.80
984.68	226.77
984.97	226.75
985.26	226.75
985.55	226.78
985.85	226.76
986.14	226.79
986.43	226.81
986.72	226.80
987.01	226.77
987.30	226.80
987.59	226.80
987.89	226.82
988.18	226.79
988.47	226.83
988.76	226.84
989.05	226.82
989.34	226.82
989.63	226.82
989.92	226.81
990.22	226.77
990.51	226.76
990.80	226.79
991.09	226.85
991.38	226.87
991.67	226.89
991.96	226.89
992.25	226.90
992.54	226.88
992.83	226.92
993.12	226.92
993.41	226.91
993.70	226.96
993.99	226.97
994.28	226.96
994.58	226.97
994.87	226.97
995.16	226.99
995.45	226.98
995.74	226.94
996.03	226.96
996.32	226.99
996.61	227.04
996.90	227.04
997.19	226.99
997.48	227.00
997.77	226.94
998.06	226.98
998.34	227.00
998.63	227.01
998.92	226.99
999.21	227.01
999.50	227.02
999.79	227.00
1000.08	227.01
1000.37	227.03
1000.66	226.99
1000.95	227.03
1001.24	227.01
1001.53	227.04
1001.82	227.02
1002.11	226.99
1002.40	226.98
1002.68	226.97
1002.97	227.01
1003.26	227.02
1003.55	227.00
1003.84	227.01
1004.13	227.01
1004.42	226.97
1004.71	226.94
1004.99	226.91
1005.28	226.94
1005.57	226.91
1005.86	226.87
1006.15	226.84
1006.44	226.81
1006.72	226.84
1007.01	226.81
1007.30	226.83
1007.59	226.79
1007.88	226.79
1008.17	226.77
1008.45	226.77
1008.74	226.72
1009.03	226.67
1009.32	226.64
1009.60	226.66
1009.89	226.63
1010.18	226.56
1010.47	226.55
1010.76	226.54
1011.04	226.54
1011.33	226.51
1011.62	226.52
1011.91	226.51
1012.19	226.53
1012.48	226.53
1012.77	226.52
1013.05	226.57
1013.34	226.54
1013.63	226.53
1013.92	226.52
1014.20	226.51
1014.49	226.48
1014.78	226.49
1015.06	226.46
1015.35	226.45
1015.64	226.45
1015.92	226.50
1016.21	226.52
1016.50	226.51
1016.78	226.52
1017.07	226.54
1017.36	226.53
1017.64	226.53
1017.93	226.59
1018.22	226.57
1018.50	226.59
1018.79	226.59
1019.08	226.55
1019.36	226.55
1019.65	226.55
1019.93	226.63
1020.22	226.70
1020.51	226.77
1020.79	226.77
1021.08	226.53
1021.36	226.64
1021.65	226.89
1021.94	226.65
1022.22	226.50
1022.51	226.40
1022.79	227.63
1023.08	227.47
1023.36	228.14
1023.65	226.46
>>>>>End Processed Spectral Data<<<<<
