SpectraSuite Data File
++++++++++++++++++++++++++++++++++++
Date: Fri Feb 01 16:07:43 EST 2013
User: group
Dark Spectrum Present: No
Reference Spectrum Present: No
Number of Sampled Component Spectra: 1
Spectrometers: USB2E7196
Integration Time (usec): 35000 (USB2E7196)
Spectra Averaged: 100 (USB2E7196)
Boxcar Smoothing: 10 (USB2E7196)
Correct for Electrical Dark: No (USB2E7196)
Strobe/Lamp Enabled: No (USB2E7196)
Correct for Detector Non-linearity: No (USB2E7196)
Correct for Stray Light: No (USB2E7196)
Number of Pixels in Processed Spectrum: 2048
>>>>>Begin Processed Spectral Data<<<<<
339.09	0.00
339.48	214.60
339.86	215.54
340.24	217.13
340.63	218.46
341.01	221.67
341.39	221.64
341.78	223.23
342.16	223.33
342.54	224.14
342.93	212.78
343.31	223.51
343.69	224.03
344.07	224.48
344.46	224.91
344.84	225.28
345.22	225.53
345.60	225.79
345.99	225.96
346.37	226.12
346.75	226.25
347.13	226.28
347.52	226.30
347.90	226.38
348.28	226.38
348.66	226.42
349.05	226.43
349.43	226.52
349.81	226.56
350.19	226.62
350.57	226.67
350.96	226.74
351.34	226.85
351.72	226.93
352.10	227.06
352.48	227.11
352.87	227.17
353.25	227.22
353.63	227.27
354.01	227.31
354.39	227.37
354.77	227.45
355.15	227.57
355.54	227.66
355.92	227.72
356.30	227.82
356.68	227.92
357.06	228.00
357.44	228.02
357.82	228.09
358.20	228.18
358.58	228.23
358.97	228.29
359.35	228.38
359.73	228.46
360.11	228.53
360.49	228.61
360.87	228.66
361.25	228.72
361.63	228.78
362.01	228.86
362.39	228.92
362.77	228.96
363.15	228.98
363.53	228.98
363.91	229.02
364.29	229.02
364.67	228.97
365.05	229.01
365.43	229.02
365.81	229.06
366.19	229.12
366.57	229.20
366.95	229.19
367.33	229.20
367.71	229.20
368.09	229.20
368.47	229.18
368.85	229.17
369.23	229.17
369.61	229.13
369.99	229.12
370.37	229.09
370.75	229.09
371.13	229.05
371.51	229.04
371.89	228.98
372.27	228.95
372.65	228.91
373.03	228.83
373.41	228.78
373.78	228.73
374.16	228.59
374.54	228.52
374.92	228.46
375.30	228.36
375.68	228.27
376.06	228.22
376.44	228.15
376.82	228.12
377.19	228.07
377.57	228.01
377.95	227.92
378.33	227.86
378.71	227.76
379.09	227.70
379.47	227.63
379.84	227.58
380.22	227.50
380.60	227.44
380.98	227.41
381.36	227.34
381.73	227.23
382.11	227.22
382.49	227.11
382.87	227.07
383.25	226.99
383.62	227.07
384.00	226.99
384.38	226.94
384.76	226.88
385.13	226.84
385.51	226.79
385.89	226.70
386.27	226.63
386.64	226.56
387.02	226.51
387.40	226.46
387.78	226.43
388.15	226.39
388.53	226.33
388.91	226.29
389.29	226.25
389.66	226.22
390.04	226.17
390.42	226.14
390.79	226.08
391.17	226.10
391.55	225.94
391.92	225.94
392.30	225.91
392.68	225.89
393.05	225.87
393.43	225.87
393.81	225.91
394.18	225.88
394.56	225.91
394.94	225.95
395.31	225.96
395.69	225.98
396.06	226.02
396.44	226.07
396.82	226.10
397.19	226.18
397.57	226.22
397.95	226.30
398.32	226.38
398.70	226.45
399.07	226.54
399.45	226.63
399.82	226.69
400.20	226.77
400.58	226.86
400.95	226.89
401.33	226.99
401.70	227.16
402.08	227.27
402.45	227.39
402.83	227.44
403.20	227.53
403.58	227.62
403.95	227.74
404.33	227.88
404.71	228.00
405.08	228.19
405.46	228.32
405.83	228.48
406.21	228.63
406.58	228.79
406.96	228.93
407.33	229.11
407.70	229.32
408.08	229.60
408.45	229.80
408.83	230.04
409.20	230.23
409.58	230.42
409.95	230.71
410.33	230.96
410.70	231.25
411.08	231.57
411.45	231.87
411.82	232.22
412.20	232.58
412.57	232.99
412.95	233.25
413.32	233.69
413.69	234.08
414.07	234.51
414.44	234.97
414.82	235.49
415.19	236.03
415.56	236.56
415.94	237.10
416.31	237.75
416.68	238.38
417.06	239.16
417.43	239.83
417.81	240.59
418.18	241.40
418.55	242.21
418.93	243.11
419.30	244.05
419.67	244.94
420.04	245.90
420.42	246.90
420.79	248.08
421.16	249.26
421.54	250.46
421.91	251.64
422.28	252.91
422.66	254.21
423.03	255.51
423.40	256.86
423.77	258.28
424.15	259.71
424.52	261.21
424.89	262.80
425.26	264.35
425.64	265.80
426.01	267.41
426.38	269.09
426.75	270.74
427.13	272.48
427.50	274.29
427.87	276.17
428.24	278.02
428.61	279.78
428.99	281.67
429.36	283.76
429.73	285.86
430.10	287.90
430.47	289.93
430.85	292.02
431.22	294.24
431.59	296.61
431.96	298.85
432.33	301.33
432.70	303.67
433.08	306.46
433.45	309.11
433.82	311.69
434.19	314.54
434.56	317.36
434.93	319.96
435.30	322.58
435.68	325.46
436.05	328.28
436.42	331.04
436.79	333.52
437.16	336.22
437.53	339.03
437.90	341.79
438.27	344.51
438.64	347.34
439.01	349.89
439.38	352.10
439.75	354.24
440.13	356.69
440.50	359.03
440.87	360.86
441.24	362.77
441.61	364.87
441.98	366.37
442.35	368.16
442.72	369.99
443.09	371.76
443.46	372.74
443.83	373.32
444.20	373.82
444.57	374.65
444.94	374.90
445.31	375.24
445.68	375.63
446.05	375.68
446.42	375.26
446.79	374.85
447.16	374.37
447.53	374.05
447.90	372.90
448.27	371.72
448.64	370.12
449.01	368.98
449.37	367.04
449.74	365.12
450.11	362.83
450.48	360.34
450.85	357.78
451.22	355.63
451.59	353.62
451.96	351.76
452.33	349.17
452.70	346.84
453.07	344.02
453.43	341.10
453.80	338.37
454.17	335.69
454.54	333.16
454.91	330.47
455.28	327.81
455.65	325.34
456.02	322.92
456.38	320.79
456.75	318.11
457.12	315.86
457.49	313.69
457.86	311.55
458.23	309.74
458.59	307.75
458.96	305.70
459.33	303.83
459.70	301.95
460.07	300.51
460.43	298.80
460.80	297.18
461.17	295.78
461.54	294.35
461.91	292.97
462.27	291.56
462.64	290.32
463.01	288.97
463.38	287.67
463.74	286.30
464.11	285.14
464.48	284.17
464.85	283.05
465.21	282.18
465.58	281.26
465.95	280.18
466.32	279.30
466.68	278.41
467.05	277.55
467.42	276.66
467.78	275.73
468.15	274.86
468.52	274.23
468.88	273.36
469.25	272.58
469.62	271.98
469.98	271.32
470.35	270.71
470.72	270.12
471.08	269.49
471.45	268.92
471.82	268.37
472.18	267.77
472.55	267.35
472.92	266.84
473.28	266.40
473.65	265.93
474.02	265.47
474.38	265.08
474.75	264.75
475.11	264.39
475.48	264.12
475.85	263.88
476.21	263.60
476.58	263.45
476.94	263.27
477.31	263.12
477.67	262.95
478.04	262.83
478.41	262.76
478.77	262.80
479.14	262.78
479.50	262.80
479.87	262.89
480.23	262.98
480.60	263.05
480.96	263.14
481.33	263.35
481.69	263.56
482.06	263.74
482.42	263.94
482.79	264.18
483.15	264.48
483.52	264.82
483.88	265.17
484.25	265.49
484.61	265.95
484.98	266.37
485.34	266.91
485.71	267.49
486.07	268.11
486.44	268.65
486.80	269.32
487.17	270.08
487.53	270.87
487.90	271.71
488.26	272.63
488.62	273.57
488.99	274.58
489.35	275.57
489.72	276.71
490.08	277.93
490.44	279.18
490.81	280.49
491.17	281.93
491.54	283.44
491.90	284.99
492.26	286.58
492.63	288.32
492.99	290.14
493.36	292.06
493.72	294.06
494.08	296.16
494.45	298.46
494.81	300.77
495.17	303.18
495.54	305.72
495.90	308.42
496.26	311.27
496.63	314.22
496.99	317.35
497.35	320.60
497.72	323.99
498.08	327.51
498.44	331.21
498.80	335.11
499.17	339.18
499.53	343.36
499.89	347.76
500.26	352.26
500.62	356.93
500.98	361.92
501.34	366.99
501.71	372.33
502.07	377.72
502.43	383.39
502.79	389.27
503.16	395.34
503.52	401.64
503.88	408.04
504.24	414.69
504.60	421.64
504.97	428.84
505.33	436.16
505.69	443.92
506.05	451.65
506.41	459.53
506.78	467.65
507.14	476.11
507.50	484.86
507.86	493.90
508.22	503.09
508.59	512.28
508.95	521.93
509.31	531.76
509.67	541.95
510.03	552.22
510.39	562.75
510.75	573.60
511.12	584.54
511.48	595.77
511.84	607.25
512.20	618.71
512.56	630.62
512.92	642.79
513.28	655.09
513.64	667.60
514.00	680.36
514.37	693.30
514.73	706.32
515.09	719.38
515.45	732.65
515.81	746.27
516.17	760.28
516.53	774.33
516.89	788.48
517.25	802.60
517.61	816.99
517.97	831.49
518.33	845.89
518.69	860.67
519.05	875.71
519.41	890.80
519.77	906.30
520.13	921.69
520.49	936.98
520.85	952.40
521.21	968.10
521.57	984.31
521.93	1000.04
522.29	1016.46
522.65	1032.60
523.01	1048.73
523.37	1064.72
523.73	1080.93
524.09	1097.07
524.45	1113.42
524.81	1130.05
525.17	1146.78
525.53	1163.58
525.89	1180.35
526.25	1197.01
526.61	1213.40
526.97	1230.11
527.33	1246.61
527.68	1263.14
528.04	1279.63
528.40	1296.19
528.76	1313.20
529.12	1329.68
529.48	1346.55
529.84	1362.46
530.20	1379.00
530.56	1395.94
530.91	1413.26
531.27	1429.86
531.63	1446.28
531.99	1462.74
532.35	1478.60
532.71	1494.46
533.07	1510.66
533.42	1526.52
533.78	1542.64
534.14	1558.84
534.50	1574.11
534.86	1589.84
535.21	1605.02
535.57	1620.87
535.93	1636.16
536.29	1650.94
536.65	1665.92
537.00	1680.60
537.36	1695.76
537.72	1710.22
538.08	1724.60
538.44	1738.27
538.79	1751.98
539.15	1765.54
539.51	1779.20
539.87	1793.59
540.22	1807.31
540.58	1820.92
540.94	1834.10
541.29	1846.89
541.65	1859.41
542.01	1872.53
542.37	1884.80
542.72	1897.15
543.08	1908.92
543.44	1921.26
543.79	1932.33
544.15	1943.26
544.51	1954.82
544.87	1965.67
545.22	1976.57
545.58	1986.80
545.94	1996.59
546.29	2006.50
546.65	2016.34
547.01	2025.55
547.36	2034.00
547.72	2042.42
548.07	2050.33
548.43	2058.57
548.79	2066.41
549.14	2074.08
549.50	2081.34
549.86	2088.91
550.21	2096.22
550.57	2103.41
550.92	2110.07
551.28	2117.20
551.64	2124.20
551.99	2130.64
552.35	2136.94
552.70	2142.95
553.06	2149.02
553.41	2155.30
553.77	2161.32
554.13	2167.27
554.48	2173.47
554.84	2179.11
555.19	2184.32
555.55	2189.49
555.90	2193.95
556.26	2199.04
556.61	2203.69
556.97	2208.07
557.32	2212.30
557.68	2216.49
558.03	2220.65
558.39	2224.24
558.74	2228.79
559.10	2232.58
559.45	2236.24
559.81	2240.57
560.16	2244.45
560.52	2247.57
560.87	2250.99
561.23	2253.53
561.58	2256.43
561.94	2258.93
562.29	2261.20
562.64	2263.89
563.00	2266.49
563.35	2269.89
563.71	2272.99
564.06	2276.14
564.42	2279.03
564.77	2281.67
565.12	2283.92
565.48	2285.78
565.83	2287.70
566.19	2289.02
566.54	2290.05
566.89	2291.23
567.25	2291.87
567.60	2293.11
567.96	2294.82
568.31	2295.55
568.66	2296.86
569.02	2297.60
569.37	2297.90
569.72	2298.90
570.08	2299.12
570.43	2299.05
570.78	2298.54
571.14	2296.96
571.49	2295.59
571.84	2295.35
572.20	2294.16
572.55	2293.09
572.90	2291.49
573.26	2290.11
573.61	2288.43
573.96	2286.75
574.31	2283.96
574.67	2281.04
575.02	2277.40
575.37	2273.90
575.72	2270.44
576.08	2266.97
576.43	2263.51
576.78	2259.91
577.13	2256.53
577.49	2253.35
577.84	2250.10
578.19	2246.38
578.54	2242.88
578.90	2238.81
579.25	2233.22
579.60	2228.29
579.95	2223.32
580.30	2218.45
580.66	2213.32
581.01	2208.38
581.36	2203.37
581.71	2199.13
582.06	2194.61
582.42	2190.33
582.77	2185.24
583.12	2180.63
583.47	2176.09
583.82	2171.28
584.17	2166.07
584.53	2160.74
584.88	2155.19
585.23	2149.41
585.58	2143.89
585.93	2138.38
586.28	2133.58
586.63	2128.61
586.98	2123.51
587.34	2118.89
587.69	2113.86
588.04	2108.69
588.39	2103.00
588.74	2096.64
589.09	2090.45
589.44	2083.66
589.79	2077.49
590.14	2071.82
590.49	2065.08
590.84	2058.61
591.19	2052.48
591.54	2045.99
591.89	2038.79
592.25	2032.16
592.60	2024.98
592.95	2017.66
593.30	2010.31
593.65	2002.67
594.00	1995.56
594.35	1988.24
594.70	1979.95
595.05	1973.08
595.40	1965.91
595.75	1958.53
596.10	1952.42
596.45	1945.78
596.80	1939.79
597.15	1933.29
597.50	1926.38
597.85	1920.07
598.19	1913.49
598.54	1906.66
598.89	1899.88
599.24	1893.88
599.59	1887.22
599.94	1880.90
600.29	1874.41
600.64	1867.82
600.99	1860.49
601.34	1853.71
601.69	1846.85
602.04	1840.18
602.39	1832.74
602.74	1825.85
603.08	1819.08
603.43	1812.22
603.78	1804.81
604.13	1797.39
604.48	1790.26
604.83	1783.35
605.18	1776.41
605.53	1768.31
605.87	1760.20
606.22	1753.13
606.57	1745.19
606.92	1737.75
607.27	1730.72
607.62	1723.92
607.96	1716.74
608.31	1710.22
608.66	1702.67
609.01	1695.14
609.36	1687.70
609.70	1679.67
610.05	1671.70
610.40	1664.16
610.75	1655.83
611.10	1648.25
611.44	1639.90
611.79	1631.73
612.14	1623.04
612.49	1613.85
612.83	1605.55
613.18	1597.39
613.53	1589.34
613.88	1580.86
614.22	1572.69
614.57	1563.92
614.92	1555.83
615.27	1548.46
615.61	1540.16
615.96	1532.01
616.31	1524.31
616.65	1516.83
617.00	1509.25
617.35	1501.50
617.70	1493.14
618.04	1484.71
618.39	1476.43
618.74	1468.91
619.08	1460.65
619.43	1453.03
619.78	1446.14
620.12	1439.01
620.47	1431.56
620.82	1423.31
621.16	1415.81
621.51	1408.04
621.85	1400.44
622.20	1391.98
622.55	1383.54
622.89	1375.56
623.24	1368.04
623.59	1360.69
623.93	1353.29
624.28	1346.13
624.62	1338.65
624.97	1331.51
625.32	1324.69
625.66	1317.73
626.01	1310.52
626.35	1303.13
626.70	1295.30
627.04	1287.66
627.39	1279.82
627.73	1272.34
628.08	1265.40
628.43	1258.17
628.77	1250.92
629.12	1243.52
629.46	1236.32
629.81	1228.71
630.15	1221.52
630.50	1214.07
630.84	1205.87
631.19	1197.89
631.53	1190.31
631.88	1182.76
632.22	1175.02
632.57	1167.76
632.91	1160.10
633.26	1152.65
633.60	1145.18
633.95	1138.12
634.29	1131.00
634.64	1124.40
634.98	1117.00
635.32	1109.90
635.67	1103.22
636.01	1096.54
636.36	1089.63
636.70	1083.13
637.05	1076.59
637.39	1070.16
637.73	1063.70
638.08	1057.82
638.42	1051.76
638.77	1045.32
639.11	1038.77
639.45	1032.47
639.80	1025.79
640.14	1019.51
640.49	1013.04
640.83	1006.81
641.17	1000.63
641.52	994.32
641.86	987.81
642.20	982.02
642.55	975.68
642.89	969.31
643.23	962.63
643.58	956.91
643.92	950.72
644.26	944.75
644.61	938.67
644.95	932.59
645.29	926.02
645.64	919.27
645.98	912.95
646.32	907.02
646.66	900.94
647.01	895.21
647.35	889.45
647.69	883.58
648.04	877.96
648.38	872.17
648.72	866.07
649.06	860.03
649.41	854.12
649.75	848.13
650.09	842.16
650.43	836.44
650.78	830.22
651.12	824.23
651.46	818.36
651.80	812.61
652.14	807.27
652.49	801.88
652.83	796.69
653.17	791.04
653.51	785.33
653.85	779.91
654.20	774.19
654.54	768.13
654.88	762.36
655.22	756.50
655.56	750.78
655.90	745.33
656.25	740.07
656.59	734.70
656.93	729.62
657.27	724.48
657.61	719.10
657.95	714.01
658.29	708.95
658.64	703.78
658.98	698.56
659.32	693.06
659.66	687.87
660.00	682.63
660.34	677.70
660.68	672.77
661.02	667.76
661.36	663.06
661.70	658.62
662.05	654.23
662.39	649.99
662.73	645.56
663.07	641.21
663.41	636.70
663.75	632.26
664.09	627.72
664.43	623.31
664.77	619.20
665.11	614.96
665.45	610.83
665.79	606.72
666.13	602.51
666.47	598.39
666.81	594.24
667.15	590.17
667.49	586.20
667.83	582.37
668.17	578.38
668.51	574.30
668.85	570.23
669.19	566.39
669.53	562.59
669.87	558.67
670.21	554.98
670.55	551.44
670.89	547.96
671.23	544.50
671.57	540.93
671.91	537.37
672.25	533.86
672.58	530.35
672.92	526.92
673.26	523.76
673.60	520.60
673.94	517.50
674.28	514.54
674.62	511.58
674.96	508.51
675.30	505.65
675.64	502.77
675.97	500.01
676.31	497.17
676.65	494.21
676.99	491.48
677.33	488.63
677.67	485.79
678.01	482.79
678.34	479.88
678.68	477.01
679.02	474.23
679.36	471.45
679.70	468.70
680.04	465.96
680.37	463.13
680.71	460.34
681.05	457.65
681.39	454.92
681.73	452.31
682.06	449.79
682.40	447.20
682.74	444.64
683.08	442.11
683.42	439.50
683.75	436.99
684.09	434.42
684.43	431.97
684.77	429.51
685.10	427.16
685.44	424.79
685.78	422.50
686.12	420.21
686.45	417.97
686.79	415.70
687.13	413.51
687.46	411.29
687.80	409.16
688.14	406.94
688.48	404.87
688.81	402.66
689.15	400.48
689.49	398.36
689.82	396.27
690.16	394.15
690.50	392.20
690.83	390.22
691.17	388.29
691.51	386.32
691.84	384.47
692.18	382.56
692.52	380.62
692.85	378.71
693.19	376.86
693.52	374.97
693.86	373.14
694.20	371.34
694.53	369.53
694.87	367.64
695.21	365.89
695.54	364.09
695.88	362.33
696.21	360.58
696.55	358.91
696.88	357.25
697.22	355.58
697.56	353.91
697.89	352.26
698.23	350.68
698.56	349.11
698.90	347.51
699.23	345.86
699.57	344.28
699.90	342.75
700.24	341.19
700.58	339.70
700.91	338.25
701.25	336.84
701.58	335.51
701.92	334.14
702.25	332.77
702.59	331.43
702.92	330.12
703.26	328.84
703.59	327.52
703.93	326.34
704.26	325.14
704.60	323.94
704.93	322.71
705.26	321.45
705.60	320.29
705.93	319.14
706.27	318.08
706.60	317.04
706.94	315.98
707.27	314.89
707.61	313.83
707.94	312.82
708.27	311.71
708.61	310.59
708.94	309.62
709.28	308.69
709.61	307.72
709.94	306.78
710.28	305.78
710.61	304.82
710.95	303.73
711.28	302.82
711.61	301.84
711.95	300.95
712.28	300.02
712.61	299.08
712.95	298.14
713.28	297.28
713.61	296.38
713.95	295.45
714.28	294.61
714.61	293.74
714.95	292.88
715.28	292.04
715.61	291.20
715.95	290.34
716.28	289.46
716.61	288.59
716.95	287.72
717.28	286.97
717.61	286.20
717.94	285.50
718.28	284.67
718.61	283.96
718.94	283.25
719.27	282.63
719.61	281.95
719.94	281.27
720.27	280.56
720.60	279.91
720.94	279.31
721.27	278.73
721.60	278.16
721.93	277.54
722.27	276.99
722.60	276.43
722.93	275.87
723.26	275.30
723.59	274.81
723.93	274.28
724.26	273.75
724.59	273.18
724.92	272.61
725.25	272.13
725.59	271.61
725.92	271.11
726.25	270.55
726.58	270.07
726.91	269.59
727.24	269.13
727.57	268.64
727.91	268.13
728.24	267.64
728.57	267.13
728.90	266.67
729.23	266.18
729.56	265.75
729.89	265.29
730.22	264.84
730.55	264.32
730.89	263.90
731.22	263.41
731.55	262.99
731.88	262.59
732.21	262.14
732.54	261.71
732.87	261.23
733.20	260.81
733.53	260.43
733.86	260.05
734.19	259.66
734.52	259.28
734.85	258.96
735.18	258.53
735.51	258.19
735.84	257.84
736.17	257.49
736.50	257.07
736.83	256.83
737.16	256.50
737.49	256.18
737.82	255.84
738.15	255.51
738.48	255.20
738.81	254.87
739.14	254.52
739.47	254.16
739.80	253.88
740.13	253.58
740.46	253.22
740.79	252.89
741.12	252.55
741.45	252.21
741.78	251.87
742.11	251.58
742.44	251.24
742.77	250.93
743.10	250.60
743.43	250.29
743.75	249.88
744.08	249.71
744.41	249.43
744.74	249.12
745.07	248.86
745.40	248.59
745.73	248.36
746.06	248.13
746.39	247.90
746.71	247.63
747.04	247.34
747.37	247.06
747.70	246.82
748.03	246.59
748.36	246.37
748.68	246.13
749.01	245.87
749.34	245.64
749.67	245.40
750.00	245.21
750.33	245.04
750.65	244.85
750.98	244.51
751.31	244.30
751.64	244.09
751.97	243.94
752.29	243.72
752.62	243.47
752.95	243.28
753.28	243.10
753.60	242.90
753.93	242.72
754.26	242.55
754.59	242.31
754.91	242.07
755.24	241.88
755.57	241.69
755.90	241.53
756.22	241.33
756.55	241.13
756.88	240.90
757.20	240.69
757.53	240.45
757.86	240.29
758.19	240.09
758.51	239.94
758.84	239.69
759.17	239.54
759.49	239.35
759.82	239.21
760.15	239.03
760.47	238.85
760.80	238.68
761.13	238.55
761.45	238.38
761.78	238.25
762.11	238.07
762.43	237.90
762.76	237.75
763.08	237.66
763.41	237.56
763.74	237.41
764.06	237.27
764.39	237.13
764.71	236.95
765.04	236.82
765.37	236.64
765.69	236.52
766.02	236.35
766.34	236.20
766.67	236.03
767.00	235.95
767.32	235.89
767.65	235.86
767.97	235.73
768.30	235.64
768.62	235.53
768.95	235.44
769.27	235.33
769.60	235.19
769.92	235.06
770.25	234.93
770.57	234.84
770.90	234.73
771.22	234.64
771.55	234.59
771.87	234.50
772.20	234.43
772.52	234.43
772.85	234.46
773.17	234.39
773.50	234.34
773.82	234.19
774.15	234.04
774.47	233.85
774.80	233.77
775.12	233.72
775.45	233.64
775.77	233.55
776.09	233.48
776.42	233.44
776.74	233.41
777.07	233.34
777.39	233.28
777.72	233.20
778.04	233.15
778.36	233.04
778.69	232.99
779.01	232.96
779.33	232.82
779.66	232.68
779.98	232.59
780.31	232.53
780.63	232.54
780.95	232.51
781.28	232.48
781.60	232.40
781.92	232.33
782.25	232.27
782.57	232.24
782.89	232.19
783.22	232.14
783.54	232.04
783.86	232.01
784.19	231.93
784.51	231.90
784.83	231.85
785.16	231.82
785.48	231.78
785.80	231.73
786.12	231.68
786.45	231.60
786.77	231.61
787.09	231.58
787.42	231.49
787.74	231.41
788.06	231.39
788.38	231.41
788.71	231.36
789.03	231.32
789.35	231.32
789.67	231.26
789.99	231.23
790.32	231.20
790.64	231.18
790.96	231.24
791.28	231.20
791.61	231.16
791.93	231.14
792.25	231.10
792.57	231.12
792.89	231.07
793.21	231.07
793.54	230.99
793.86	230.94
794.18	230.93
794.50	230.91
794.82	230.84
795.14	230.80
795.47	230.77
795.79	230.73
796.11	230.62
796.43	230.63
796.75	230.61
797.07	230.56
797.39	230.49
797.71	230.38
798.04	230.35
798.36	230.30
798.68	230.26
799.00	230.22
799.32	230.13
799.64	230.08
799.96	230.04
800.28	230.05
800.60	230.02
800.92	229.96
801.24	229.93
801.56	229.92
801.89	229.89
802.21	229.86
802.53	229.82
802.85	229.81
803.17	229.82
803.49	229.76
803.81	229.74
804.13	229.74
804.45	229.73
804.77	229.65
805.09	229.65
805.41	229.61
805.73	229.59
806.05	229.51
806.37	229.50
806.69	229.43
807.01	229.37
807.33	229.32
807.65	229.26
807.97	229.24
808.28	229.23
808.60	229.18
808.92	229.13
809.24	229.17
809.56	229.16
809.88	229.06
810.20	229.03
810.52	229.01
810.84	228.94
811.16	228.86
811.48	228.86
811.80	228.84
812.12	228.79
812.43	228.81
812.75	228.82
813.07	228.79
813.39	228.79
813.71	228.73
814.03	228.72
814.35	228.69
814.67	228.65
814.98	228.59
815.30	228.53
815.62	228.51
815.94	228.38
816.26	228.41
816.58	228.36
816.89	228.34
817.21	228.29
817.53	228.28
817.85	228.28
818.17	228.27
818.48	228.22
818.80	228.24
819.12	228.18
819.44	228.15
819.76	228.10
820.07	228.06
820.39	228.07
820.71	228.04
821.03	228.05
821.34	228.01
821.66	228.03
821.98	228.06
822.30	228.03
822.61	228.11
822.93	228.03
823.25	228.04
823.57	228.03
823.88	228.05
824.20	228.01
824.52	228.01
824.83	227.98
825.15	227.97
825.47	227.92
825.79	227.91
826.10	227.87
826.42	227.88
826.74	227.90
827.05	227.87
827.37	227.87
827.69	227.82
828.00	227.86
828.32	227.82
828.64	227.79
828.95	227.84
829.27	227.77
829.58	227.76
829.90	227.76
830.22	227.77
830.53	227.74
830.85	227.77
831.17	227.73
831.48	227.73
831.80	227.75
832.11	227.76
832.43	227.75
832.75	227.75
833.06	227.82
833.38	227.77
833.69	227.80
834.01	227.79
834.32	227.81
834.64	227.77
834.96	227.79
835.27	227.80
835.59	227.77
835.90	227.79
836.22	227.77
836.53	227.74
836.85	227.71
837.16	227.80
837.48	227.77
837.79	227.81
838.11	227.81
838.42	227.79
838.74	227.79
839.05	227.77
839.37	227.74
839.68	227.65
840.00	227.66
840.31	227.61
840.63	227.60
840.94	227.57
841.26	227.57
841.57	227.54
841.88	227.52
842.20	227.50
842.51	227.46
842.83	227.46
843.14	227.54
843.46	227.55
843.77	227.46
844.08	227.45
844.40	227.43
844.71	227.42
845.03	227.41
845.34	227.39
845.65	227.40
845.97	227.42
846.28	227.42
846.60	227.41
846.91	227.42
847.22	227.42
847.54	227.47
847.85	227.43
848.16	227.42
848.48	227.43
848.79	227.46
849.10	227.48
849.42	227.47
849.73	227.39
850.04	227.37
850.36	227.34
850.67	227.38
850.98	227.36
851.30	227.38
851.61	227.36
851.92	227.35
852.23	227.36
852.55	227.37
852.86	227.38
853.17	227.38
853.49	227.41
853.80	227.39
854.11	227.38
854.42	227.41
854.74	227.41
855.05	227.38
855.36	227.35
855.67	227.33
855.99	227.33
856.30	227.41
856.61	227.37
856.92	227.36
857.23	227.33
857.55	227.31
857.86	227.28
858.17	227.28
858.48	227.30
858.79	227.28
859.11	227.29
859.42	227.28
859.73	227.26
860.04	227.23
860.35	227.23
860.66	227.21
860.98	227.19
861.29	227.18
861.60	227.18
861.91	227.20
862.22	227.20
862.53	227.19
862.84	227.10
863.16	227.18
863.47	227.18
863.78	227.18
864.09	227.19
864.40	227.17
864.71	227.20
865.02	227.19
865.33	227.19
865.64	227.17
865.95	227.17
866.27	227.24
866.58	227.22
866.89	227.23
867.20	227.24
867.51	227.22
867.82	227.23
868.13	227.28
868.44	227.23
868.75	227.25
869.06	227.26
869.37	227.25
869.68	227.22
869.99	227.24
870.30	227.23
870.61	227.25
870.92	227.24
871.23	227.21
871.54	227.23
871.85	227.24
872.16	227.23
872.47	227.20
872.78	227.12
873.09	227.13
873.40	227.14
873.71	227.13
874.02	227.16
874.33	227.15
874.64	227.10
874.95	227.10
875.26	227.06
875.56	227.06
875.87	227.06
876.18	227.00
876.49	227.08
876.80	227.07
877.11	227.06
877.42	227.07
877.73	227.06
878.04	227.02
878.35	227.03
878.66	227.03
878.96	227.01
879.27	227.00
879.58	227.01
879.89	226.95
880.20	226.97
880.51	226.94
880.82	226.92
881.12	226.95
881.43	226.91
881.74	226.90
882.05	226.88
882.36	226.86
882.67	226.88
882.97	226.79
883.28	226.74
883.59	226.69
883.90	226.68
884.21	226.66
884.51	226.67
884.82	226.63
885.13	226.63
885.44	226.65
885.74	226.63
886.05	226.59
886.36	226.61
886.67	226.55
886.98	226.60
887.28	226.59
887.59	226.56
887.90	226.59
888.20	226.58
888.51	226.57
888.82	226.57
889.13	226.57
889.43	226.62
889.74	226.62
890.05	226.61
890.35	226.64
890.66	226.64
890.97	226.61
891.28	226.58
891.58	226.59
891.89	226.56
892.20	226.55
892.50	226.57
892.81	226.56
893.12	226.56
893.42	226.49
893.73	226.50
894.04	226.48
894.34	226.47
894.65	226.48
894.95	226.49
895.26	226.48
895.57	226.52
895.87	226.43
896.18	226.45
896.48	226.49
896.79	226.45
897.10	226.46
897.40	226.48
897.71	226.50
898.01	226.47
898.32	226.52
898.63	226.55
898.93	226.55
899.24	226.54
899.54	226.55
899.85	226.54
900.15	226.53
900.46	226.54
900.76	226.56
901.07	226.56
901.38	226.54
901.68	226.56
901.99	226.54
902.29	226.55
902.60	226.56
902.90	226.54
903.21	226.60
903.51	226.61
903.82	226.61
904.12	226.64
904.43	226.66
904.73	226.64
905.03	226.68
905.34	226.79
905.64	226.81
905.95	226.82
906.25	226.84
906.56	226.88
906.86	226.91
907.17	226.94
907.47	226.97
907.77	226.97
908.08	226.98
908.38	226.99
908.69	227.03
908.99	227.06
909.30	227.10
909.60	227.09
909.90	227.09
910.21	227.09
910.51	227.09
910.81	227.11
911.12	227.13
911.42	227.12
911.73	227.02
912.03	227.06
912.33	227.08
912.64	227.10
912.94	227.08
913.24	227.04
913.55	227.01
913.85	226.97
914.15	227.00
914.46	227.00
914.76	227.00
915.06	226.98
915.37	226.97
915.67	226.95
915.97	226.94
916.27	226.93
916.58	226.92
916.88	226.91
917.18	226.89
917.49	226.95
917.79	226.93
918.09	226.92
918.39	226.94
918.70	226.93
919.00	226.89
919.30	226.92
919.60	226.88
919.91	226.88
920.21	226.89
920.51	226.86
920.81	226.84
921.12	226.82
921.42	226.78
921.72	226.77
922.02	226.75
922.32	226.72
922.63	226.71
922.93	226.74
923.23	226.73
923.53	226.71
923.83	226.62
924.13	226.64
924.44	226.63
924.74	226.62
925.04	226.59
925.34	226.61
925.64	226.55
925.94	226.56
926.24	226.59
926.55	226.59
926.85	226.59
927.15	226.54
927.45	226.54
927.75	226.53
928.05	226.49
928.35	226.50
928.65	226.51
928.95	226.49
929.26	226.46
929.56	226.47
929.86	226.46
930.16	226.48
930.46	226.44
930.76	226.42
931.06	226.36
931.36	226.36
931.66	226.40
931.96	226.44
932.26	226.42
932.56	226.38
932.86	226.39
933.16	226.41
933.46	226.44
933.76	226.43
934.06	226.47
934.36	226.53
934.66	226.51
934.96	226.51
935.26	226.55
935.56	226.53
935.86	226.50
936.16	226.49
936.46	226.46
936.76	226.45
937.06	226.47
937.36	226.52
937.66	226.51
937.96	226.46
938.26	226.43
938.56	226.43
938.86	226.42
939.16	226.44
939.46	226.46
939.76	226.47
940.06	226.46
940.35	226.46
940.65	226.41
940.95	226.42
941.25	226.39
941.55	226.37
941.85	226.41
942.15	226.43
942.45	226.50
942.75	226.50
943.04	226.52
943.34	226.51
943.64	226.48
943.94	226.49
944.24	226.51
944.54	226.51
944.84	226.55
945.13	226.58
945.43	226.58
945.73	226.57
946.03	226.60
946.33	226.60
946.62	226.58
946.92	226.58
947.22	226.64
947.52	226.66
947.82	226.68
948.11	226.66
948.41	226.66
948.71	226.61
949.01	226.66
949.31	226.69
949.60	226.72
949.90	226.72
950.20	226.71
950.50	226.72
950.79	226.74
951.09	226.76
951.39	226.74
951.69	226.70
951.98	226.73
952.28	226.72
952.58	226.76
952.87	226.80
953.17	226.81
953.47	226.75
953.76	226.72
954.06	226.71
954.36	226.71
954.66	226.73
954.95	226.78
955.25	226.74
955.55	226.74
955.84	226.72
956.14	226.76
956.44	226.76
956.73	226.74
957.03	226.74
957.32	226.73
957.62	226.74
957.92	226.78
958.21	226.76
958.51	226.85
958.81	226.82
959.10	226.79
959.40	226.80
959.69	226.81
959.99	226.85
960.29	226.86
960.58	226.86
960.88	226.85
961.17	226.82
961.47	226.82
961.76	226.79
962.06	226.77
962.36	226.74
962.65	226.74
962.95	226.76
963.24	226.73
963.54	226.71
963.83	226.71
964.13	226.68
964.42	226.62
964.72	226.54
965.01	226.58
965.31	226.56
965.60	226.53
965.90	226.56
966.19	226.55
966.49	226.55
966.78	226.51
967.08	226.49
967.37	226.49
967.67	226.48
967.96	226.50
968.26	226.52
968.55	226.51
968.85	226.50
969.14	226.48
969.43	226.49
969.73	226.51
970.02	226.48
970.32	226.45
970.61	226.44
970.91	226.42
971.20	226.33
971.49	226.33
971.79	226.34
972.08	226.29
972.38	226.27
972.67	226.23
972.96	226.25
973.26	226.23
973.55	226.25
973.85	226.24
974.14	226.23
974.43	226.23
974.73	226.21
975.02	226.24
975.31	226.22
975.61	226.20
975.90	226.20
976.19	226.21
976.49	226.22
976.78	226.25
977.07	226.25
977.37	226.30
977.66	226.31
977.95	226.32
978.24	226.31
978.54	226.35
978.83	226.38
979.12	226.39
979.42	226.39
979.71	226.38
980.00	226.38
980.29	226.39
980.59	226.36
980.88	226.37
981.17	226.35
981.46	226.37
981.76	226.37
982.05	226.40
982.34	226.42
982.63	226.45
982.93	226.44
983.22	226.46
983.51	226.50
983.80	226.51
984.09	226.52
984.39	226.55
984.68	226.52
984.97	226.51
985.26	226.51
985.55	226.58
985.85	226.58
986.14	226.60
986.43	226.62
986.72	226.62
987.01	226.62
987.30	226.61
987.59	226.60
987.89	226.60
988.18	226.57
988.47	226.55
988.76	226.54
989.05	226.52
989.34	226.50
989.63	226.47
989.92	226.46
990.22	226.48
990.51	226.47
990.80	226.46
991.09	226.46
991.38	226.47
991.67	226.43
991.96	226.43
992.25	226.43
992.54	226.40
992.83	226.43
993.12	226.43
993.41	226.44
993.70	226.48
993.99	226.47
994.28	226.48
994.58	226.52
994.87	226.50
995.16	226.50
995.45	226.51
995.74	226.49
996.03	226.51
996.32	226.48
996.61	226.48
996.90	226.47
997.19	226.46
997.48	226.48
997.77	226.44
998.06	226.43
998.34	226.43
998.63	226.41
998.92	226.41
999.21	226.42
999.50	226.42
999.79	226.40
1000.08	226.41
1000.37	226.39
1000.66	226.34
1000.95	226.35
1001.24	226.37
1001.53	226.38
1001.82	226.38
1002.11	226.36
1002.40	226.39
1002.68	226.41
1002.97	226.50
1003.26	226.48
1003.55	226.45
1003.84	226.47
1004.13	226.48
1004.42	226.46
1004.71	226.48
1004.99	226.48
1005.28	226.49
1005.57	226.46
1005.86	226.48
1006.15	226.50
1006.44	226.49
1006.72	226.51
1007.01	226.50
1007.30	226.50
1007.59	226.50
1007.88	226.49
1008.17	226.47
1008.45	226.43
1008.74	226.39
1009.03	226.33
1009.32	226.36
1009.60	226.35
1009.89	226.35
1010.18	226.33
1010.47	226.32
1010.76	226.28
1011.04	226.27
1011.33	226.27
1011.62	226.31
1011.91	226.29
1012.19	226.29
1012.48	226.27
1012.77	226.28
1013.05	226.34
1013.34	226.32
1013.63	226.30
1013.92	226.33
1014.20	226.31
1014.49	226.31
1014.78	226.33
1015.06	226.34
1015.35	226.34
1015.64	226.37
1015.92	226.41
1016.21	226.40
1016.50	226.42
1016.78	226.43
1017.07	226.42
1017.36	226.40
1017.64	226.38
1017.93	226.40
1018.22	226.40
1018.50	226.41
1018.79	226.40
1019.08	226.34
1019.36	226.37
1019.65	226.39
1019.93	226.39
1020.22	226.44
1020.51	226.49
1020.79	226.48
1021.08	226.51
1021.36	225.81
1021.65	226.32
1021.94	226.25
1022.22	226.79
1022.51	226.18
1022.79	226.70
1023.08	226.83
1023.36	227.31
1023.65	226.25
>>>>>End Processed Spectral Data<<<<<
