SpectraSuite Data File
++++++++++++++++++++++++++++++++++++
Date: Fri Feb 01 15:12:00 EST 2013
User: group
Dark Spectrum Present: No
Reference Spectrum Present: No
Number of Sampled Component Spectra: 1
Spectrometers: USB2E7196
Integration Time (usec): 35000 (USB2E7196)
Spectra Averaged: 100 (USB2E7196)
Boxcar Smoothing: 10 (USB2E7196)
Correct for Electrical Dark: No (USB2E7196)
Strobe/Lamp Enabled: No (USB2E7196)
Correct for Detector Non-linearity: No (USB2E7196)
Correct for Stray Light: No (USB2E7196)
Number of Pixels in Processed Spectrum: 2048
>>>>>Begin Processed Spectral Data<<<<<
339.09	0.00
339.48	215.26
339.86	216.49
340.24	218.11
340.63	219.60
341.01	222.17
341.39	222.23
341.78	223.79
342.16	224.50
342.54	225.13
342.93	213.58
343.31	224.36
343.69	224.90
344.07	225.38
344.46	225.81
344.84	226.20
345.22	226.46
345.60	226.73
345.99	226.92
346.37	227.06
346.75	227.19
347.13	227.23
347.52	227.27
347.90	227.35
348.28	227.39
348.66	227.42
349.05	227.45
349.43	227.47
349.81	227.50
350.19	227.55
350.57	227.60
350.96	227.69
351.34	227.79
351.72	227.85
352.10	227.93
352.48	228.00
352.87	228.06
353.25	228.10
353.63	228.14
354.01	228.19
354.39	228.27
354.77	228.35
355.15	228.48
355.54	228.56
355.92	228.61
356.30	228.67
356.68	228.80
357.06	228.87
357.44	228.91
357.82	228.99
358.20	229.06
358.58	229.11
358.97	229.14
359.35	229.18
359.73	229.27
360.11	229.35
360.49	229.36
360.87	229.38
361.25	229.43
361.63	229.51
362.01	229.54
362.39	229.53
362.77	229.54
363.15	229.54
363.53	229.54
363.91	229.55
364.29	229.58
364.67	229.50
365.05	229.49
365.43	229.54
365.81	229.56
366.19	229.61
366.57	229.65
366.95	229.63
367.33	229.61
367.71	229.57
368.09	229.57
368.47	229.57
368.85	229.53
369.23	229.54
369.61	229.45
369.99	229.44
370.37	229.45
370.75	229.47
371.13	229.39
371.51	229.37
371.89	229.36
372.27	229.29
372.65	229.26
373.03	229.21
373.41	229.14
373.78	229.03
374.16	228.90
374.54	228.78
374.92	228.72
375.30	228.67
375.68	228.60
376.06	228.49
376.44	228.40
376.82	228.35
377.19	228.27
377.57	228.23
377.95	228.13
378.33	228.02
378.71	227.88
379.09	227.81
379.47	227.73
379.84	227.63
380.22	227.55
380.60	227.46
380.98	227.42
381.36	227.34
381.73	227.29
382.11	227.24
382.49	227.20
382.87	227.10
383.25	227.01
383.62	227.05
384.00	227.01
384.38	226.95
384.76	226.90
385.13	226.87
385.51	226.79
385.89	226.74
386.27	226.70
386.64	226.67
387.02	226.63
387.40	226.59
387.78	226.56
388.15	226.53
388.53	226.51
388.91	226.45
389.29	226.41
389.66	226.42
390.04	226.39
390.42	226.39
390.79	226.40
391.17	226.40
391.55	226.31
391.92	226.33
392.30	226.36
392.68	226.35
393.05	226.34
393.43	226.34
393.81	226.36
394.18	226.36
394.56	226.39
394.94	226.43
395.31	226.45
395.69	226.46
396.06	226.53
396.44	226.55
396.82	226.57
397.19	226.66
397.57	226.68
397.95	226.76
398.32	226.76
398.70	226.85
399.07	226.95
399.45	227.00
399.82	227.04
400.20	227.13
400.58	227.21
400.95	227.28
401.33	227.41
401.70	227.56
402.08	227.67
402.45	227.78
402.83	227.92
403.20	228.06
403.58	228.19
403.95	228.29
404.33	228.46
404.71	228.60
405.08	228.79
405.46	228.93
405.83	229.11
406.21	229.27
406.58	229.43
406.96	229.58
407.33	229.79
407.70	229.99
408.08	230.25
408.45	230.48
408.83	230.73
409.20	230.96
409.58	231.18
409.95	231.43
410.33	231.71
410.70	231.94
411.08	232.18
411.45	232.49
411.82	232.82
412.20	233.20
412.57	233.66
412.95	233.96
413.32	234.39
413.69	234.79
414.07	235.22
414.44	235.72
414.82	236.20
415.19	236.73
415.56	237.30
415.94	237.87
416.31	238.48
416.68	239.09
417.06	239.76
417.43	240.42
417.81	241.21
418.18	241.98
418.55	242.82
418.93	243.73
419.30	244.66
419.67	245.57
420.04	246.49
420.42	247.45
420.79	248.65
421.16	249.79
421.54	251.01
421.91	252.27
422.28	253.48
422.66	254.80
423.03	256.09
423.40	257.39
423.77	258.78
424.15	260.21
424.52	261.68
424.89	263.28
425.26	264.82
425.64	266.24
426.01	267.82
426.38	269.47
426.75	271.16
427.13	272.85
427.50	274.70
427.87	276.60
428.24	278.51
428.61	280.20
428.99	282.15
429.36	284.19
429.73	286.24
430.10	288.29
430.47	290.39
430.85	292.52
431.22	294.78
431.59	297.17
431.96	299.45
432.33	301.99
432.70	304.36
433.08	307.22
433.45	309.89
433.82	312.48
434.19	315.42
434.56	318.22
434.93	320.87
435.30	323.53
435.68	326.45
436.05	329.25
436.42	332.02
436.79	334.53
437.16	337.26
437.53	340.10
437.90	342.90
438.27	345.64
438.64	348.47
439.01	351.05
439.38	353.26
439.75	355.39
440.13	357.91
440.50	360.28
440.87	362.11
441.24	364.13
441.61	366.29
441.98	367.72
442.35	369.53
442.72	371.40
443.09	373.14
443.46	374.13
443.83	374.73
444.20	375.31
444.57	376.16
444.94	376.43
445.31	376.73
445.68	377.07
446.05	377.12
446.42	376.74
446.79	376.39
447.16	375.93
447.53	375.63
447.90	374.43
448.27	373.27
448.64	371.70
449.01	370.51
449.37	368.56
449.74	366.67
450.11	364.41
450.48	361.94
450.85	359.47
451.22	357.31
451.59	355.23
451.96	353.23
452.33	350.63
452.70	348.24
453.07	345.48
453.43	342.61
453.80	339.82
454.17	337.17
454.54	334.58
454.91	331.92
455.28	329.25
455.65	326.78
456.02	324.35
456.38	322.18
456.75	319.51
457.12	317.27
457.49	315.06
457.86	312.90
458.23	311.05
458.59	308.94
458.96	306.85
459.33	305.04
459.70	303.18
460.07	301.67
460.43	300.01
460.80	298.36
461.17	296.91
461.54	295.43
461.91	294.00
462.27	292.54
462.64	291.26
463.01	289.92
463.38	288.58
463.74	287.17
464.11	286.03
464.48	285.00
464.85	283.88
465.21	283.00
465.58	282.06
465.95	281.00
466.32	280.10
466.68	279.18
467.05	278.25
467.42	277.38
467.78	276.43
468.15	275.54
468.52	274.82
468.88	273.93
469.25	273.15
469.62	272.49
469.98	271.79
470.35	271.17
470.72	270.53
471.08	269.86
471.45	269.33
471.82	268.77
472.18	268.15
472.55	267.70
472.92	267.17
473.28	266.67
473.65	266.16
474.02	265.69
474.38	265.29
474.75	264.97
475.11	264.60
475.48	264.36
475.85	264.11
476.21	263.91
476.58	263.77
476.94	263.62
477.31	263.43
477.67	263.28
478.04	263.09
478.41	263.05
478.77	263.11
479.14	263.08
479.50	263.04
479.87	263.11
480.23	263.19
480.60	263.27
480.96	263.37
481.33	263.59
481.69	263.78
482.06	263.99
482.42	264.23
482.79	264.49
483.15	264.78
483.52	265.17
483.88	265.49
484.25	265.87
484.61	266.30
484.98	266.73
485.34	267.30
485.71	267.94
486.07	268.54
486.44	269.07
486.80	269.74
487.17	270.46
487.53	271.23
487.90	272.06
488.26	272.97
488.62	273.95
488.99	274.99
489.35	276.05
489.72	277.15
490.08	278.33
490.44	279.55
490.81	280.87
491.17	282.20
491.54	283.70
491.90	285.24
492.26	286.90
492.63	288.66
492.99	290.43
493.36	292.32
493.72	294.32
494.08	296.39
494.45	298.62
494.81	300.99
495.17	303.44
495.54	305.99
495.90	308.63
496.26	311.38
496.63	314.27
496.99	317.36
497.35	320.58
497.72	323.96
498.08	327.48
498.44	331.15
498.80	335.08
499.17	339.10
499.53	343.24
499.89	347.55
500.26	351.98
500.62	356.68
500.98	361.68
501.34	366.83
501.71	372.19
502.07	377.59
502.43	383.18
502.79	388.99
503.16	395.06
503.52	401.34
503.88	407.76
504.24	414.41
504.60	421.26
504.97	428.39
505.33	435.70
505.69	443.33
506.05	451.10
506.41	458.93
506.78	467.07
507.14	475.48
507.50	484.17
507.86	493.22
508.22	502.37
508.59	511.54
508.95	521.05
509.31	530.83
509.67	540.92
510.03	551.29
510.39	561.87
510.75	572.64
511.12	583.61
511.48	594.94
511.84	606.35
512.20	617.84
512.56	629.81
512.92	642.03
513.28	654.42
513.64	666.94
514.00	679.66
514.37	692.59
514.73	705.69
515.09	718.76
515.45	732.12
515.81	745.68
516.17	759.65
516.53	773.81
516.89	788.01
517.25	802.26
517.61	816.64
517.97	831.11
518.33	845.63
518.69	860.49
519.05	875.48
519.41	890.69
519.77	906.41
520.13	921.96
520.49	937.36
520.85	952.77
521.21	968.57
521.57	984.86
521.93	1000.79
522.29	1017.27
522.65	1033.63
523.01	1050.01
523.37	1066.15
523.73	1082.39
524.09	1098.49
524.45	1114.90
524.81	1131.50
525.17	1148.44
525.53	1165.40
525.89	1182.25
526.25	1199.07
526.61	1215.53
526.97	1232.35
527.33	1248.86
527.68	1265.57
528.04	1282.17
528.40	1298.96
528.76	1316.03
529.12	1332.74
529.48	1349.58
529.84	1365.64
530.20	1382.32
530.56	1399.33
530.91	1416.87
531.27	1433.79
531.63	1450.37
531.99	1467.00
532.35	1483.16
532.71	1499.10
533.07	1515.35
533.42	1531.35
533.78	1547.42
534.14	1563.83
534.50	1579.34
534.86	1595.26
535.21	1610.41
535.57	1626.40
535.93	1641.95
536.29	1656.81
536.65	1671.90
537.00	1686.75
537.36	1702.17
537.72	1716.78
538.08	1731.21
538.44	1744.93
538.79	1758.77
539.15	1772.55
539.51	1786.37
539.87	1800.77
540.22	1814.71
540.58	1828.61
540.94	1842.06
541.29	1855.13
541.65	1867.93
542.01	1881.10
542.37	1893.45
542.72	1906.01
543.08	1917.90
543.44	1930.30
543.79	1941.56
544.15	1952.66
544.51	1964.25
544.87	1975.21
545.22	1986.02
545.58	1996.32
545.94	2006.14
546.29	2016.02
546.65	2025.83
547.01	2035.02
547.36	2043.89
547.72	2052.31
548.07	2060.19
548.43	2068.35
548.79	2076.35
549.14	2083.80
549.50	2091.33
549.86	2099.05
550.21	2106.33
550.57	2113.47
550.92	2120.19
551.28	2127.31
551.64	2134.32
551.99	2140.92
552.35	2147.22
552.70	2153.29
553.06	2159.33
553.41	2165.70
553.77	2171.83
554.13	2178.03
554.48	2184.30
554.84	2189.50
555.19	2194.67
555.55	2199.76
555.90	2204.25
556.26	2209.01
556.61	2213.77
556.97	2217.77
557.32	2221.91
557.68	2225.99
558.03	2230.21
558.39	2233.95
558.74	2238.51
559.10	2242.35
559.45	2245.92
559.81	2250.26
560.16	2254.03
560.52	2257.19
560.87	2260.70
561.23	2263.34
561.58	2266.25
561.94	2268.77
562.29	2271.29
562.64	2274.16
563.00	2276.76
563.35	2280.23
563.71	2283.55
564.06	2286.70
564.42	2289.56
564.77	2292.04
565.12	2294.22
565.48	2296.09
565.83	2297.68
566.19	2298.98
566.54	2300.07
566.89	2301.12
567.25	2301.47
567.60	2302.97
567.96	2304.52
568.31	2305.12
568.66	2306.09
569.02	2306.42
569.37	2306.56
569.72	2307.16
570.08	2306.97
570.43	2307.02
570.78	2306.24
571.14	2304.57
571.49	2303.11
571.84	2302.77
572.20	2301.49
572.55	2300.43
572.90	2298.82
573.26	2297.43
573.61	2295.64
573.96	2293.48
574.31	2290.39
574.67	2287.25
575.02	2283.43
575.37	2279.88
575.72	2276.08
576.08	2272.75
576.43	2269.46
576.78	2265.72
577.13	2262.49
577.49	2259.54
577.84	2255.87
578.19	2252.12
578.54	2248.28
578.90	2243.99
579.25	2238.28
579.60	2233.26
579.95	2228.17
580.30	2222.98
580.66	2217.67
581.01	2212.64
581.36	2207.57
581.71	2203.43
582.06	2199.03
582.42	2194.57
582.77	2189.35
583.12	2184.63
583.47	2179.68
583.82	2174.57
584.17	2169.27
584.53	2163.70
584.88	2157.81
585.23	2151.96
585.58	2146.57
585.93	2140.97
586.28	2136.06
586.63	2130.93
586.98	2125.65
587.34	2120.87
587.69	2116.00
588.04	2110.59
588.39	2104.74
588.74	2098.32
589.09	2091.97
589.44	2084.92
589.79	2078.67
590.14	2072.87
590.49	2066.18
590.84	2059.81
591.19	2053.74
591.54	2046.99
591.89	2039.50
592.25	2032.67
592.60	2025.40
592.95	2017.52
593.30	2010.13
593.65	2002.43
594.00	1995.24
594.35	1987.89
594.70	1979.79
595.05	1972.40
595.40	1965.14
595.75	1957.66
596.10	1951.37
596.45	1944.40
596.80	1938.16
597.15	1931.50
597.50	1924.30
597.85	1917.91
598.19	1911.07
598.54	1903.81
598.89	1897.30
599.24	1891.32
599.59	1884.50
599.94	1878.18
600.29	1871.90
600.64	1865.32
600.99	1857.91
601.34	1851.06
601.69	1844.17
602.04	1837.20
602.39	1829.91
602.74	1823.02
603.08	1816.17
603.43	1809.40
603.78	1802.22
604.13	1795.02
604.48	1787.66
604.83	1780.87
605.18	1773.77
605.53	1765.68
605.87	1757.66
606.22	1750.33
606.57	1742.45
606.92	1735.12
607.27	1727.94
607.62	1720.97
607.96	1713.57
608.31	1706.87
608.66	1699.20
609.01	1691.52
609.36	1683.87
609.70	1675.77
610.05	1667.57
610.40	1659.85
610.75	1651.42
611.10	1643.83
611.44	1635.59
611.79	1627.65
612.14	1618.90
612.49	1609.88
612.83	1601.54
613.18	1593.44
613.53	1585.44
613.88	1576.95
614.22	1568.70
614.57	1560.21
614.92	1552.20
615.27	1544.72
615.61	1536.34
615.96	1528.39
616.31	1520.91
616.65	1513.65
617.00	1506.16
617.35	1498.61
617.70	1490.27
618.04	1481.84
618.39	1473.56
618.74	1465.81
619.08	1457.41
619.43	1449.91
619.78	1442.99
620.12	1435.94
620.47	1428.41
620.82	1420.14
621.16	1412.76
621.51	1405.12
621.85	1397.57
622.20	1388.97
622.55	1380.71
622.89	1372.98
623.24	1365.39
623.59	1358.00
623.93	1350.33
624.28	1343.02
624.62	1335.44
624.97	1328.27
625.32	1321.65
625.66	1314.68
626.01	1307.52
626.35	1300.07
626.70	1292.34
627.04	1284.53
627.39	1276.76
627.73	1269.31
628.08	1262.49
628.43	1255.16
628.77	1247.77
629.12	1240.05
629.46	1232.92
629.81	1225.46
630.15	1218.10
630.50	1210.74
630.84	1202.55
631.19	1194.76
631.53	1187.31
631.88	1179.88
632.22	1172.22
632.57	1164.82
632.91	1157.27
633.26	1149.87
633.60	1142.63
633.95	1135.62
634.29	1128.60
634.64	1121.83
634.98	1114.53
635.32	1107.38
635.67	1100.84
636.01	1094.25
636.36	1087.46
636.70	1081.06
637.05	1074.46
637.39	1068.11
637.73	1061.58
638.08	1055.69
638.42	1049.73
638.77	1043.25
639.11	1036.67
639.45	1030.51
639.80	1023.97
640.14	1017.58
640.49	1011.09
640.83	1004.77
641.17	998.46
641.52	992.24
641.86	985.93
642.20	980.14
642.55	973.89
642.89	967.40
643.23	960.90
643.58	955.14
643.92	948.77
644.26	942.66
644.61	936.72
644.95	930.66
645.29	924.06
645.64	917.34
645.98	911.06
646.32	905.22
646.66	899.06
647.01	893.23
647.35	887.58
647.69	881.72
648.04	876.21
648.38	870.38
648.72	864.34
649.06	858.33
649.41	852.37
649.75	846.32
650.09	840.29
650.43	834.52
650.78	828.37
651.12	822.54
651.46	816.93
651.80	811.11
652.14	805.81
652.49	800.44
652.83	795.23
653.17	789.49
653.51	783.73
653.85	778.41
654.20	772.63
654.54	766.54
654.88	760.86
655.22	755.02
655.56	749.34
655.90	743.90
656.25	738.60
656.59	733.34
656.93	728.34
657.27	723.27
657.61	717.82
657.95	712.74
658.29	707.66
658.64	702.34
658.98	697.10
659.32	691.64
659.66	686.47
660.00	681.21
660.34	676.29
660.68	671.39
661.02	666.32
661.36	661.73
661.70	657.27
662.05	652.90
662.39	648.58
662.73	644.20
663.07	639.81
663.41	635.37
663.75	630.76
664.09	626.19
664.43	621.80
664.77	617.72
665.11	613.48
665.45	609.37
665.79	605.35
666.13	601.20
666.47	597.09
666.81	592.92
667.15	588.83
667.49	585.01
667.83	581.28
668.17	577.41
668.51	573.41
668.85	569.43
669.19	565.56
669.53	561.74
669.87	557.86
670.21	554.14
670.55	550.49
670.89	547.12
671.23	543.66
671.57	540.13
671.91	536.59
672.25	533.11
672.58	529.59
672.92	526.23
673.26	523.12
673.60	519.99
673.94	516.93
674.28	514.02
674.62	511.05
674.96	507.88
675.30	504.93
675.64	501.99
675.97	499.22
676.31	496.43
676.65	493.45
676.99	490.78
677.33	487.97
677.67	485.20
678.01	482.17
678.34	479.25
678.68	476.43
679.02	473.61
679.36	470.95
679.70	468.28
680.04	465.51
680.37	462.63
680.71	459.90
681.05	457.28
681.39	454.58
681.73	451.95
682.06	449.43
682.40	446.92
682.74	444.44
683.08	441.87
683.42	439.23
683.75	436.73
684.09	434.14
684.43	431.67
684.77	429.19
685.10	426.89
685.44	424.62
685.78	422.34
686.12	420.12
686.45	417.79
686.79	415.50
687.13	413.31
687.46	411.20
687.80	409.04
688.14	406.87
688.48	404.80
688.81	402.53
689.15	400.41
689.49	398.35
689.82	396.24
690.16	394.21
690.50	392.26
690.83	390.41
691.17	388.46
691.51	386.58
691.84	384.72
692.18	382.83
692.52	380.84
692.85	378.95
693.19	377.05
693.52	375.24
693.86	373.42
694.20	371.65
694.53	369.83
694.87	367.99
695.21	366.22
695.54	364.40
695.88	362.75
696.21	361.00
696.55	359.29
696.88	357.63
697.22	355.95
697.56	354.37
697.89	352.67
698.23	351.11
698.56	349.51
698.90	347.95
699.23	346.28
699.57	344.72
699.90	343.19
700.24	341.63
700.58	340.07
700.91	338.58
701.25	337.15
701.58	335.77
701.92	334.39
702.25	332.98
702.59	331.60
702.92	330.27
703.26	329.02
703.59	327.71
703.93	326.51
704.26	325.30
704.60	324.00
704.93	322.72
705.26	321.48
705.60	320.36
705.93	319.24
706.27	318.29
706.60	317.25
706.94	316.10
707.27	315.02
707.61	313.99
707.94	312.95
708.27	311.88
708.61	310.80
708.94	309.83
709.28	308.88
709.61	307.91
709.94	307.00
710.28	305.93
710.61	304.99
710.95	303.94
711.28	303.05
711.61	302.09
711.95	301.20
712.28	300.22
712.61	299.18
712.95	298.24
713.28	297.29
713.61	296.39
713.95	295.56
714.28	294.73
714.61	293.88
714.95	293.06
715.28	292.20
715.61	291.33
715.95	290.43
716.28	289.59
716.61	288.81
716.95	287.95
717.28	287.24
717.61	286.42
717.94	285.68
718.28	284.84
718.61	284.15
718.94	283.45
719.27	282.84
719.61	282.20
719.94	281.55
720.27	280.79
720.60	280.14
720.94	279.51
721.27	278.90
721.60	278.34
721.93	277.72
722.27	277.19
722.60	276.63
722.93	276.13
723.26	275.60
723.59	275.04
723.93	274.51
724.26	273.96
724.59	273.44
724.92	272.91
725.25	272.45
725.59	271.93
725.92	271.42
726.25	270.88
726.58	270.42
726.91	269.89
727.24	269.49
727.57	269.03
727.91	268.58
728.24	268.12
728.57	267.62
728.90	267.17
729.23	266.64
729.56	266.24
729.89	265.74
730.22	265.25
730.55	264.78
730.89	264.36
731.22	263.89
731.55	263.45
731.88	262.99
732.21	262.54
732.54	262.11
732.87	261.73
733.20	261.33
733.53	260.94
733.86	260.60
734.19	260.19
734.52	259.78
734.85	259.41
735.18	258.98
735.51	258.61
735.84	258.25
736.17	257.92
736.50	257.51
736.83	257.30
737.16	256.96
737.49	256.61
737.82	256.22
738.15	255.90
738.48	255.56
738.81	255.27
739.14	254.95
739.47	254.64
739.80	254.29
740.13	253.98
740.46	253.62
740.79	253.24
741.12	252.90
741.45	252.60
741.78	252.24
742.11	251.98
742.44	251.64
742.77	251.36
743.10	251.04
743.43	250.74
743.75	250.34
744.08	250.16
744.41	249.90
744.74	249.67
745.07	249.38
745.40	249.13
745.73	248.90
746.06	248.63
746.39	248.39
746.71	248.14
747.04	247.87
747.37	247.61
747.70	247.37
748.03	247.14
748.36	246.94
748.68	246.72
749.01	246.45
749.34	246.24
749.67	246.00
750.00	245.81
750.33	245.65
750.65	245.42
750.98	245.09
751.31	244.89
751.64	244.66
751.97	244.50
752.29	244.28
752.62	244.03
752.95	243.79
753.28	243.54
753.60	243.30
753.93	243.13
754.26	242.97
754.59	242.75
754.91	242.56
755.24	242.35
755.57	242.15
755.90	242.00
756.22	241.79
756.55	241.60
756.88	241.37
757.20	241.17
757.53	240.98
757.86	240.83
758.19	240.67
758.51	240.49
758.84	240.31
759.17	240.17
759.49	239.99
759.82	239.90
760.15	239.77
760.47	239.63
760.80	239.44
761.13	239.29
761.45	239.19
761.78	239.08
762.11	238.92
762.43	238.79
762.76	238.64
763.08	238.53
763.41	238.40
763.74	238.27
764.06	238.12
764.39	237.99
764.71	237.85
765.04	237.69
765.37	237.56
765.69	237.45
766.02	237.30
766.34	237.19
766.67	237.03
767.00	236.93
767.32	236.83
767.65	236.81
767.97	236.68
768.30	236.54
768.62	236.41
768.95	236.33
769.27	236.21
769.60	236.14
769.92	236.02
770.25	235.91
770.57	235.81
770.90	235.70
771.22	235.58
771.55	235.50
771.87	235.40
772.20	235.30
772.52	235.27
772.85	235.30
773.17	235.22
773.50	235.14
773.82	235.05
774.15	234.91
774.47	234.76
774.80	234.68
775.12	234.61
775.45	234.53
775.77	234.43
776.09	234.35
776.42	234.25
776.74	234.18
777.07	234.10
777.39	234.02
777.72	233.94
778.04	233.89
778.36	233.84
778.69	233.78
779.01	233.71
779.33	233.57
779.66	233.39
779.98	233.33
780.31	233.27
780.63	233.25
780.95	233.24
781.28	233.19
781.60	233.12
781.92	233.01
782.25	232.94
782.57	232.89
782.89	232.81
783.22	232.75
783.54	232.68
783.86	232.60
784.19	232.54
784.51	232.50
784.83	232.44
785.16	232.34
785.48	232.29
785.80	232.26
786.12	232.20
786.45	232.15
786.77	232.07
787.09	232.01
787.42	231.91
787.74	231.85
788.06	231.82
788.38	231.79
788.71	231.74
789.03	231.67
789.35	231.64
789.67	231.58
789.99	231.55
790.32	231.49
790.64	231.50
790.96	231.53
791.28	231.47
791.61	231.43
791.93	231.40
792.25	231.36
792.57	231.37
792.89	231.34
793.21	231.31
793.54	231.27
793.86	231.21
794.18	231.17
794.50	231.11
794.82	231.03
795.14	231.01
795.47	231.01
795.79	230.99
796.11	230.92
796.43	230.90
796.75	230.85
797.07	230.80
797.39	230.73
797.71	230.65
798.04	230.61
798.36	230.58
798.68	230.52
799.00	230.48
799.32	230.42
799.64	230.39
799.96	230.36
800.28	230.34
800.60	230.29
800.92	230.28
801.24	230.22
801.56	230.22
801.89	230.17
802.21	230.16
802.53	230.12
802.85	230.13
803.17	230.16
803.49	230.11
803.81	230.08
804.13	230.07
804.45	230.03
804.77	230.00
805.09	229.98
805.41	229.98
805.73	229.92
806.05	229.85
806.37	229.83
806.69	229.81
807.01	229.78
807.33	229.81
807.65	229.77
807.97	229.82
808.28	229.78
808.60	229.73
808.92	229.69
809.24	229.73
809.56	229.70
809.88	229.65
810.20	229.63
810.52	229.62
810.84	229.56
811.16	229.52
811.48	229.50
811.80	229.48
812.12	229.45
812.43	229.47
812.75	229.43
813.07	229.39
813.39	229.36
813.71	229.33
814.03	229.26
814.35	229.22
814.67	229.15
814.98	229.09
815.30	229.08
815.62	229.01
815.94	228.94
816.26	228.92
816.58	228.87
816.89	228.87
817.21	228.86
817.53	228.87
817.85	228.86
818.17	228.87
818.48	228.86
818.80	228.85
819.12	228.83
819.44	228.82
819.76	228.78
820.07	228.75
820.39	228.76
820.71	228.74
821.03	228.71
821.34	228.67
821.66	228.69
821.98	228.69
822.30	228.69
822.61	228.69
822.93	228.68
823.25	228.63
823.57	228.60
823.88	228.60
824.20	228.55
824.52	228.55
824.83	228.50
825.15	228.45
825.47	228.44
825.79	228.42
826.10	228.41
826.42	228.40
826.74	228.37
827.05	228.35
827.37	228.37
827.69	228.35
828.00	228.34
828.32	228.31
828.64	228.29
828.95	228.34
829.27	228.32
829.58	228.27
829.90	228.33
830.22	228.29
830.53	228.29
830.85	228.30
831.17	228.26
831.48	228.26
831.80	228.26
832.11	228.25
832.43	228.19
832.75	228.15
833.06	228.23
833.38	228.24
833.69	228.25
834.01	228.21
834.32	228.25
834.64	228.24
834.96	228.25
835.27	228.23
835.59	228.19
835.90	228.14
836.22	228.14
836.53	228.10
836.85	228.14
837.16	228.18
837.48	228.18
837.79	228.21
838.11	228.20
838.42	228.20
838.74	228.20
839.05	228.25
839.37	228.29
839.68	228.21
840.00	228.20
840.31	228.20
840.63	228.19
840.94	228.19
841.26	228.21
841.57	228.23
841.88	228.27
842.20	228.27
842.51	228.30
842.83	228.30
843.14	228.38
843.46	228.37
843.77	228.32
844.08	228.27
844.40	228.24
844.71	228.25
845.03	228.21
845.34	228.21
845.65	228.18
845.97	228.17
846.28	228.15
846.60	228.15
846.91	228.12
847.22	228.09
847.54	228.08
847.85	228.09
848.16	228.07
848.48	228.01
848.79	228.03
849.10	228.02
849.42	228.03
849.73	227.93
850.04	227.89
850.36	227.86
850.67	227.89
850.98	227.89
851.30	227.91
851.61	227.90
851.92	227.88
852.23	227.93
852.55	227.91
852.86	227.92
853.17	227.92
853.49	227.95
853.80	227.98
854.11	227.98
854.42	227.96
854.74	227.92
855.05	227.93
855.36	227.87
855.67	227.85
855.99	227.87
856.30	227.97
856.61	227.98
856.92	227.97
857.23	227.98
857.55	227.96
857.86	227.90
858.17	227.94
858.48	227.87
858.79	227.82
859.11	227.86
859.42	227.86
859.73	227.82
860.04	227.79
860.35	227.76
860.66	227.73
860.98	227.74
861.29	227.77
861.60	227.76
861.91	227.79
862.22	227.77
862.53	227.74
862.84	227.64
863.16	227.64
863.47	227.63
863.78	227.61
864.09	227.63
864.40	227.67
864.71	227.64
865.02	227.67
865.33	227.66
865.64	227.61
865.95	227.59
866.27	227.64
866.58	227.65
866.89	227.65
867.20	227.62
867.51	227.59
867.82	227.57
868.13	227.58
868.44	227.54
868.75	227.56
869.06	227.57
869.37	227.60
869.68	227.59
869.99	227.59
870.30	227.58
870.61	227.57
870.92	227.55
871.23	227.55
871.54	227.53
871.85	227.56
872.16	227.57
872.47	227.55
872.78	227.48
873.09	227.48
873.40	227.49
873.71	227.53
874.02	227.51
874.33	227.49
874.64	227.48
874.95	227.49
875.26	227.46
875.56	227.44
875.87	227.41
876.18	227.38
876.49	227.49
876.80	227.48
877.11	227.46
877.42	227.47
877.73	227.48
878.04	227.48
878.35	227.47
878.66	227.49
878.96	227.49
879.27	227.52
879.58	227.53
879.89	227.52
880.20	227.54
880.51	227.52
880.82	227.54
881.12	227.53
881.43	227.48
881.74	227.50
882.05	227.48
882.36	227.52
882.67	227.52
882.97	227.41
883.28	227.43
883.59	227.45
883.90	227.46
884.21	227.51
884.51	227.49
884.82	227.50
885.13	227.49
885.44	227.50
885.74	227.50
886.05	227.48
886.36	227.49
886.67	227.46
886.98	227.52
887.28	227.53
887.59	227.56
887.90	227.59
888.20	227.58
888.51	227.60
888.82	227.57
889.13	227.59
889.43	227.63
889.74	227.59
890.05	227.59
890.35	227.58
890.66	227.53
890.97	227.54
891.28	227.53
891.58	227.53
891.89	227.54
892.20	227.52
892.50	227.51
892.81	227.50
893.12	227.50
893.42	227.46
893.73	227.47
894.04	227.43
894.34	227.44
894.65	227.45
894.95	227.44
895.26	227.43
895.57	227.48
895.87	227.42
896.18	227.45
896.48	227.42
896.79	227.39
897.10	227.39
897.40	227.39
897.71	227.35
898.01	227.35
898.32	227.35
898.63	227.35
898.93	227.36
899.24	227.35
899.54	227.33
899.85	227.30
900.15	227.29
900.46	227.28
900.76	227.29
901.07	227.26
901.38	227.25
901.68	227.25
901.99	227.17
902.29	227.18
902.60	227.18
902.90	227.20
903.21	227.20
903.51	227.16
903.82	227.20
904.12	227.19
904.43	227.20
904.73	227.20
905.03	227.18
905.34	227.27
905.64	227.23
905.95	227.25
906.25	227.28
906.56	227.26
906.86	227.23
907.17	227.22
907.47	227.22
907.77	227.22
908.08	227.17
908.38	227.20
908.69	227.19
908.99	227.22
909.30	227.22
909.60	227.23
909.90	227.27
910.21	227.23
910.51	227.21
910.81	227.19
911.12	227.16
911.42	227.18
911.73	227.07
912.03	227.08
912.33	227.08
912.64	227.06
912.94	227.06
913.24	227.08
913.55	227.06
913.85	227.07
914.15	227.10
914.46	227.14
914.76	227.10
915.06	227.10
915.37	227.08
915.67	227.08
915.97	227.07
916.27	227.04
916.58	227.05
916.88	227.10
917.18	227.09
917.49	227.19
917.79	227.20
918.09	227.23
918.39	227.26
918.70	227.27
919.00	227.29
919.30	227.36
919.60	227.36
919.91	227.37
920.21	227.35
920.51	227.35
920.81	227.36
921.12	227.40
921.42	227.39
921.72	227.41
922.02	227.43
922.32	227.45
922.63	227.45
922.93	227.50
923.23	227.53
923.53	227.56
923.83	227.48
924.13	227.50
924.44	227.51
924.74	227.53
925.04	227.56
925.34	227.55
925.64	227.47
925.94	227.48
926.24	227.52
926.55	227.54
926.85	227.55
927.15	227.56
927.45	227.56
927.75	227.55
928.05	227.56
928.35	227.52
928.65	227.53
928.95	227.53
929.26	227.49
929.56	227.45
929.86	227.45
930.16	227.47
930.46	227.44
930.76	227.44
931.06	227.39
931.36	227.35
931.66	227.36
931.96	227.38
932.26	227.40
932.56	227.39
932.86	227.39
933.16	227.37
933.46	227.35
933.76	227.34
934.06	227.38
934.36	227.41
934.66	227.41
934.96	227.42
935.26	227.43
935.56	227.45
935.86	227.44
936.16	227.41
936.46	227.42
936.76	227.40
937.06	227.41
937.36	227.45
937.66	227.44
937.96	227.45
938.26	227.41
938.56	227.38
938.86	227.34
939.16	227.36
939.46	227.39
939.76	227.39
940.06	227.36
940.35	227.35
940.65	227.30
940.95	227.31
941.25	227.25
941.55	227.24
941.85	227.25
942.15	227.26
942.45	227.30
942.75	227.25
943.04	227.28
943.34	227.24
943.64	227.21
943.94	227.23
944.24	227.21
944.54	227.24
944.84	227.26
945.13	227.28
945.43	227.25
945.73	227.25
946.03	227.26
946.33	227.25
946.62	227.21
946.92	227.18
947.22	227.20
947.52	227.21
947.82	227.20
948.11	227.21
948.41	227.20
948.71	227.15
949.01	227.19
949.31	227.16
949.60	227.16
949.90	227.18
950.20	227.16
950.50	227.13
950.79	227.14
951.09	227.12
951.39	227.10
951.69	227.08
951.98	227.05
952.28	227.03
952.58	227.04
952.87	227.06
953.17	227.09
953.47	227.08
953.76	227.09
954.06	227.08
954.36	227.03
954.66	227.01
954.95	227.04
955.25	227.05
955.55	227.09
955.84	227.06
956.14	227.06
956.44	227.06
956.73	227.06
957.03	227.06
957.32	227.10
957.62	227.09
957.92	227.11
958.21	227.10
958.51	227.22
958.81	227.19
959.10	227.18
959.40	227.18
959.69	227.17
959.99	227.21
960.29	227.23
960.58	227.23
960.88	227.27
961.17	227.24
961.47	227.22
961.76	227.18
962.06	227.22
962.36	227.20
962.65	227.19
962.95	227.19
963.24	227.19
963.54	227.18
963.83	227.19
964.13	227.19
964.42	227.17
964.72	227.10
965.01	227.12
965.31	227.13
965.60	227.14
965.90	227.19
966.19	227.15
966.49	227.14
966.78	227.11
967.08	227.11
967.37	227.15
967.67	227.15
967.96	227.18
968.26	227.15
968.55	227.15
968.85	227.17
969.14	227.18
969.43	227.14
969.73	227.12
970.02	227.13
970.32	227.13
970.61	227.12
970.91	227.09
971.20	227.11
971.49	227.13
971.79	227.09
972.08	227.00
972.38	227.00
972.67	227.00
972.96	227.02
973.26	227.00
973.55	226.99
973.85	226.96
974.14	226.96
974.43	226.97
974.73	226.97
975.02	226.96
975.31	226.94
975.61	226.97
975.90	226.95
976.19	226.91
976.49	226.93
976.78	226.96
977.07	226.90
977.37	226.91
977.66	226.84
977.95	226.86
978.24	226.91
978.54	226.93
978.83	226.90
979.12	226.90
979.42	226.88
979.71	226.85
980.00	226.88
980.29	226.85
980.59	226.83
980.88	226.86
981.17	226.85
981.46	226.84
981.76	226.83
982.05	226.89
982.34	226.93
982.63	226.91
982.93	226.90
983.22	226.97
983.51	226.95
983.80	226.97
984.09	226.96
984.39	226.93
984.68	226.92
984.97	226.93
985.26	226.92
985.55	226.95
985.85	226.95
986.14	226.96
986.43	226.99
986.72	227.00
987.01	226.95
987.30	226.97
987.59	226.96
987.89	226.98
988.18	226.91
988.47	226.89
988.76	226.87
989.05	226.87
989.34	226.85
989.63	226.89
989.92	226.88
990.22	226.87
990.51	226.87
990.80	226.88
991.09	226.87
991.38	226.88
991.67	226.85
991.96	226.86
992.25	226.86
992.54	226.83
992.83	226.84
993.12	226.87
993.41	226.89
993.70	226.97
993.99	227.00
994.28	227.05
994.58	227.09
994.87	227.10
995.16	227.08
995.45	227.10
995.74	227.08
996.03	227.13
996.32	227.16
996.61	227.20
996.90	227.21
997.19	227.23
997.48	227.25
997.77	227.28
998.06	227.28
998.34	227.24
998.63	227.24
998.92	227.22
999.21	227.22
999.50	227.19
999.79	227.13
1000.08	227.10
1000.37	227.07
1000.66	227.05
1000.95	227.10
1001.24	227.15
1001.53	227.17
1001.82	227.15
1002.11	227.12
1002.40	227.12
1002.68	227.14
1002.97	227.18
1003.26	227.18
1003.55	227.15
1003.84	227.13
1004.13	227.14
1004.42	227.17
1004.71	227.18
1004.99	227.19
1005.28	227.25
1005.57	227.26
1005.86	227.27
1006.15	227.25
1006.44	227.24
1006.72	227.26
1007.01	227.26
1007.30	227.21
1007.59	227.17
1007.88	227.18
1008.17	227.17
1008.45	227.13
1008.74	227.03
1009.03	227.02
1009.32	227.00
1009.60	226.97
1009.89	226.97
1010.18	226.96
1010.47	226.97
1010.76	226.96
1011.04	226.95
1011.33	226.95
1011.62	226.96
1011.91	226.97
1012.19	226.99
1012.48	226.99
1012.77	227.00
1013.05	227.00
1013.34	227.02
1013.63	227.04
1013.92	227.05
1014.20	227.06
1014.49	227.11
1014.78	227.15
1015.06	227.13
1015.35	227.13
1015.64	227.18
1015.92	227.22
1016.21	227.23
1016.50	227.23
1016.78	227.26
1017.07	227.28
1017.36	227.25
1017.64	227.22
1017.93	227.22
1018.22	227.22
1018.50	227.23
1018.79	227.20
1019.08	227.20
1019.36	227.20
1019.65	227.19
1019.93	227.20
1020.22	227.21
1020.51	227.23
1020.79	227.22
1021.08	227.11
1021.36	227.06
1021.65	226.79
1021.94	227.61
1022.22	227.15
1022.51	227.01
1022.79	227.48
1023.08	227.20
1023.36	227.91
1023.65	226.67
>>>>>End Processed Spectral Data<<<<<
