SpectraSuite Data File
++++++++++++++++++++++++++++++++++++
Date: Fri Feb 01 15:50:24 EST 2013
User: group
Dark Spectrum Present: No
Reference Spectrum Present: No
Number of Sampled Component Spectra: 1
Spectrometers: USB2E7196
Integration Time (usec): 35000 (USB2E7196)
Spectra Averaged: 100 (USB2E7196)
Boxcar Smoothing: 10 (USB2E7196)
Correct for Electrical Dark: No (USB2E7196)
Strobe/Lamp Enabled: No (USB2E7196)
Correct for Detector Non-linearity: No (USB2E7196)
Correct for Stray Light: No (USB2E7196)
Number of Pixels in Processed Spectrum: 2048
>>>>>Begin Processed Spectral Data<<<<<
339.09	0.00
339.48	215.34
339.86	216.57
340.24	218.20
340.63	219.75
341.01	222.18
341.39	221.87
341.78	223.68
342.16	224.49
342.54	225.22
342.93	213.39
343.31	224.16
343.69	224.69
344.07	225.13
344.46	225.56
344.84	225.91
345.22	226.14
345.60	226.41
345.99	226.57
346.37	226.71
346.75	226.79
347.13	226.86
347.52	226.91
347.90	226.96
348.28	227.02
348.66	227.13
349.05	227.12
349.43	227.18
349.81	227.22
350.19	227.28
350.57	227.35
350.96	227.41
351.34	227.49
351.72	227.56
352.10	227.63
352.48	227.67
352.87	227.71
353.25	227.78
353.63	227.83
354.01	227.88
354.39	227.91
354.77	228.01
355.15	228.10
355.54	228.16
355.92	228.20
356.30	228.26
356.68	228.36
357.06	228.43
357.44	228.46
357.82	228.50
358.20	228.54
358.58	228.55
358.97	228.62
359.35	228.69
359.73	228.75
360.11	228.81
360.49	228.86
360.87	228.91
361.25	228.96
361.63	229.02
362.01	229.07
362.39	229.12
362.77	229.10
363.15	229.13
363.53	229.14
363.91	229.19
364.29	229.20
364.67	229.11
365.05	229.10
365.43	229.09
365.81	229.10
366.19	229.16
366.57	229.20
366.95	229.19
367.33	229.15
367.71	229.17
368.09	229.19
368.47	229.19
368.85	229.15
369.23	229.16
369.61	229.08
369.99	229.10
370.37	229.10
370.75	229.13
371.13	229.06
371.51	229.01
371.89	228.94
372.27	228.89
372.65	228.87
373.03	228.83
373.41	228.82
373.78	228.76
374.16	228.62
374.54	228.53
374.92	228.44
375.30	228.39
375.68	228.27
376.06	228.20
376.44	228.10
376.82	228.06
377.19	227.98
377.57	227.94
377.95	227.82
378.33	227.70
378.71	227.57
379.09	227.55
379.47	227.51
379.84	227.44
380.22	227.38
380.60	227.29
380.98	227.21
381.36	227.11
381.73	227.04
382.11	227.03
382.49	226.98
382.87	226.93
383.25	226.85
383.62	226.92
384.00	226.87
384.38	226.84
384.76	226.78
385.13	226.74
385.51	226.66
385.89	226.59
386.27	226.60
386.64	226.56
387.02	226.47
387.40	226.41
387.78	226.39
388.15	226.35
388.53	226.35
388.91	226.30
389.29	226.30
389.66	226.31
390.04	226.27
390.42	226.29
390.79	226.26
391.17	226.27
391.55	226.14
391.92	226.13
392.30	226.12
392.68	226.11
393.05	226.11
393.43	226.10
393.81	226.15
394.18	226.13
394.56	226.15
394.94	226.18
395.31	226.19
395.69	226.25
396.06	226.30
396.44	226.30
396.82	226.36
397.19	226.43
397.57	226.44
397.95	226.49
398.32	226.50
398.70	226.56
399.07	226.64
399.45	226.72
399.82	226.79
400.20	226.84
400.58	226.94
400.95	227.00
401.33	227.13
401.70	227.27
402.08	227.36
402.45	227.44
402.83	227.57
403.20	227.68
403.58	227.76
403.95	227.86
404.33	228.02
404.71	228.12
405.08	228.31
405.46	228.44
405.83	228.59
406.21	228.73
406.58	228.88
406.96	229.02
407.33	229.18
407.70	229.36
408.08	229.64
408.45	229.82
408.83	230.04
409.20	230.22
409.58	230.39
409.95	230.64
410.33	230.90
410.70	231.17
411.08	231.48
411.45	231.81
411.82	232.15
412.20	232.50
412.57	232.91
412.95	233.19
413.32	233.61
413.69	234.01
414.07	234.46
414.44	234.94
414.82	235.42
415.19	235.95
415.56	236.49
415.94	237.06
416.31	237.69
416.68	238.32
417.06	239.08
417.43	239.79
417.81	240.55
418.18	241.36
418.55	242.20
418.93	243.06
419.30	243.96
419.67	244.87
420.04	245.81
420.42	246.78
420.79	247.95
421.16	249.11
421.54	250.36
421.91	251.60
422.28	252.84
422.66	254.21
423.03	255.54
423.40	256.87
423.77	258.27
424.15	259.74
424.52	261.22
424.89	262.79
425.26	264.32
425.64	265.80
426.01	267.41
426.38	269.05
426.75	270.76
427.13	272.46
427.50	274.28
427.87	276.17
428.24	278.10
428.61	279.85
428.99	281.83
429.36	283.90
429.73	285.96
430.10	288.02
430.47	290.02
430.85	292.15
431.22	294.43
431.59	296.77
431.96	298.96
432.33	301.46
432.70	303.85
433.08	306.67
433.45	309.29
433.82	311.90
434.19	314.82
434.56	317.61
434.93	320.29
435.30	322.91
435.68	325.83
436.05	328.62
436.42	331.43
436.79	333.91
437.16	336.61
437.53	339.42
437.90	342.17
438.27	344.99
438.64	347.80
439.01	350.42
439.38	352.68
439.75	354.92
440.13	357.42
440.50	359.76
440.87	361.60
441.24	363.58
441.61	365.67
441.98	367.18
442.35	368.93
442.72	370.76
443.09	372.56
443.46	373.54
443.83	374.16
444.20	374.67
444.57	375.49
444.94	375.77
445.31	376.09
445.68	376.48
446.05	376.52
446.42	376.13
446.79	375.68
447.16	375.24
447.53	374.88
447.90	373.73
448.27	372.58
448.64	370.99
449.01	369.82
449.37	367.91
449.74	365.92
450.11	363.68
450.48	361.21
450.85	358.65
451.22	356.47
451.59	354.42
451.96	352.43
452.33	349.85
452.70	347.49
453.07	344.65
453.43	341.72
453.80	338.93
454.17	336.24
454.54	333.71
454.91	330.96
455.28	328.27
455.65	325.75
456.02	323.25
456.38	321.11
456.75	318.46
457.12	316.18
457.49	313.98
457.86	311.82
458.23	309.96
458.59	307.94
458.96	305.87
459.33	304.02
459.70	302.19
460.07	300.66
460.43	298.92
460.80	297.30
461.17	295.88
461.54	294.41
461.91	293.00
462.27	291.53
462.64	290.23
463.01	288.92
463.38	287.61
463.74	286.25
464.11	285.07
464.48	284.03
464.85	282.94
465.21	282.06
465.58	281.16
465.95	280.09
466.32	279.20
466.68	278.29
467.05	277.37
467.42	276.49
467.78	275.58
468.15	274.69
468.52	274.05
468.88	273.21
469.25	272.45
469.62	271.83
469.98	271.17
470.35	270.61
470.72	269.99
471.08	269.36
471.45	268.82
471.82	268.28
472.18	267.71
472.55	267.25
472.92	266.74
473.28	266.24
473.65	265.78
474.02	265.32
474.38	264.96
474.75	264.63
475.11	264.28
475.48	264.03
475.85	263.82
476.21	263.60
476.58	263.41
476.94	263.25
477.31	263.10
477.67	262.95
478.04	262.84
478.41	262.78
478.77	262.82
479.14	262.79
479.50	262.86
479.87	262.95
480.23	263.04
480.60	263.15
480.96	263.30
481.33	263.51
481.69	263.71
482.06	263.88
482.42	264.10
482.79	264.36
483.15	264.66
483.52	265.03
483.88	265.35
484.25	265.72
484.61	266.11
484.98	266.58
485.34	267.18
485.71	267.75
486.07	268.35
486.44	268.91
486.80	269.64
487.17	270.35
487.53	271.12
487.90	272.00
488.26	272.90
488.62	273.89
488.99	274.86
489.35	275.92
489.72	277.07
490.08	278.24
490.44	279.46
490.81	280.77
491.17	282.15
491.54	283.62
491.90	285.15
492.26	286.82
492.63	288.50
492.99	290.24
493.36	292.14
493.72	294.17
494.08	296.26
494.45	298.50
494.81	300.84
495.17	303.29
495.54	305.82
495.90	308.54
496.26	311.34
496.63	314.34
496.99	317.48
497.35	320.71
497.72	324.17
498.08	327.69
498.44	331.36
498.80	335.28
499.17	339.30
499.53	343.55
499.89	347.93
500.26	352.45
500.62	357.15
500.98	362.14
501.34	367.21
501.71	372.56
502.07	377.97
502.43	383.64
502.79	389.45
503.16	395.52
503.52	401.80
503.88	408.17
504.24	414.81
504.60	421.66
504.97	428.87
505.33	436.19
505.69	443.93
506.05	451.73
506.41	459.53
506.78	467.76
507.14	476.16
507.50	484.84
507.86	493.90
508.22	503.07
508.59	512.29
508.95	521.97
509.31	531.74
509.67	541.87
510.03	552.05
510.39	562.64
510.75	573.47
511.12	584.41
511.48	595.71
511.84	607.10
512.20	618.62
512.56	630.59
512.92	642.74
513.28	655.09
513.64	667.68
514.00	680.51
514.37	693.48
514.73	706.57
515.09	719.61
515.45	732.91
515.81	746.57
516.17	760.57
516.53	774.65
516.89	788.85
517.25	803.00
517.61	817.55
517.97	831.96
518.33	846.40
518.69	861.24
519.05	876.16
519.41	891.39
519.77	906.96
520.13	922.41
520.49	937.85
520.85	953.32
521.21	968.98
521.57	985.18
521.93	1000.83
522.29	1017.24
522.65	1033.55
523.01	1049.80
523.37	1065.73
523.73	1081.81
524.09	1097.85
524.45	1114.19
524.81	1130.79
525.17	1147.62
525.53	1164.62
525.89	1181.39
526.25	1198.24
526.61	1214.74
526.97	1231.46
527.33	1247.95
527.68	1264.48
528.04	1280.92
528.40	1297.57
528.76	1314.61
529.12	1331.19
529.48	1348.08
529.84	1364.06
530.20	1380.64
530.56	1397.59
530.91	1415.05
531.27	1431.93
531.63	1448.37
531.99	1464.86
532.35	1480.76
532.71	1496.54
533.07	1512.74
533.42	1528.75
533.78	1544.77
534.14	1561.01
534.50	1576.35
534.86	1592.19
535.21	1607.36
535.57	1623.17
535.93	1638.43
536.29	1653.14
536.65	1668.17
537.00	1682.95
537.36	1698.33
537.72	1712.75
538.08	1727.08
538.44	1740.81
538.79	1754.62
539.15	1768.25
539.51	1782.03
539.87	1796.43
540.22	1810.26
540.58	1823.96
540.94	1837.14
541.29	1849.87
541.65	1862.54
542.01	1875.74
542.37	1887.97
542.72	1900.39
543.08	1912.27
543.44	1924.79
543.79	1936.08
544.15	1947.06
544.51	1958.57
544.87	1969.45
545.22	1980.28
545.58	1990.46
545.94	2000.28
546.29	2010.11
546.65	2020.06
547.01	2029.25
547.36	2038.01
547.72	2046.23
548.07	2054.08
548.43	2062.26
548.79	2070.37
549.14	2077.87
549.50	2085.07
549.86	2092.83
550.21	2100.08
550.57	2107.21
550.92	2113.63
551.28	2120.62
551.64	2127.57
551.99	2134.12
552.35	2140.27
552.70	2146.45
553.06	2152.54
553.41	2158.85
553.77	2164.98
554.13	2170.98
554.48	2177.19
554.84	2182.50
555.19	2187.96
555.55	2193.17
555.90	2197.81
556.26	2202.67
556.61	2207.37
556.97	2211.79
557.32	2215.86
557.68	2220.10
558.03	2224.44
558.39	2228.28
558.74	2232.87
559.10	2236.87
559.45	2240.57
559.81	2244.89
560.16	2248.69
560.52	2251.88
560.87	2255.17
561.23	2257.73
561.58	2260.86
561.94	2263.39
562.29	2265.97
562.64	2268.55
563.00	2271.14
563.35	2274.56
563.71	2277.66
564.06	2280.82
564.42	2283.52
564.77	2286.01
565.12	2288.18
565.48	2290.03
565.83	2291.82
566.19	2293.20
566.54	2294.08
566.89	2295.13
567.25	2295.57
567.60	2296.97
567.96	2298.71
568.31	2299.73
568.66	2300.82
569.02	2301.18
569.37	2301.51
569.72	2302.27
570.08	2302.58
570.43	2302.60
570.78	2302.03
571.14	2300.40
571.49	2299.13
571.84	2299.03
572.20	2297.86
572.55	2296.88
572.90	2295.42
573.26	2294.17
573.61	2292.54
573.96	2290.74
574.31	2287.93
574.67	2285.07
575.02	2281.47
575.37	2278.11
575.72	2274.19
576.08	2271.03
576.43	2267.75
576.78	2263.99
577.13	2260.83
577.49	2257.61
577.84	2254.11
578.19	2250.34
578.54	2246.78
578.90	2242.50
579.25	2236.77
579.60	2231.74
579.95	2226.66
580.30	2221.47
580.66	2216.13
581.01	2211.15
581.36	2206.25
581.71	2201.93
582.06	2197.33
582.42	2192.83
582.77	2187.51
583.12	2183.02
583.47	2178.03
583.82	2173.08
584.17	2167.88
584.53	2162.44
584.88	2156.83
585.23	2150.99
585.58	2145.50
585.93	2140.16
586.28	2135.44
586.63	2130.35
586.98	2125.32
587.34	2120.68
587.69	2115.82
588.04	2110.59
588.39	2104.93
588.74	2098.57
589.09	2092.52
589.44	2085.92
589.79	2079.90
590.14	2074.35
590.49	2067.75
590.84	2061.49
591.19	2055.48
591.54	2048.98
591.89	2041.46
592.25	2034.60
592.60	2027.40
592.95	2019.63
593.30	2012.20
593.65	2004.59
594.00	1997.62
594.35	1990.29
594.70	1982.30
595.05	1975.12
595.40	1967.81
595.75	1960.28
596.10	1953.92
596.45	1947.01
596.80	1940.75
597.15	1934.05
597.50	1926.74
597.85	1920.32
598.19	1913.66
598.54	1906.50
598.89	1899.86
599.24	1894.04
599.59	1887.25
599.94	1881.07
600.29	1874.80
600.64	1868.27
600.99	1860.78
601.34	1854.01
601.69	1847.13
602.04	1840.15
602.39	1832.79
602.74	1825.97
603.08	1819.22
603.43	1812.52
603.78	1805.22
604.13	1798.05
604.48	1790.75
604.83	1784.02
605.18	1776.98
605.53	1768.89
605.87	1760.88
606.22	1753.60
606.57	1745.59
606.92	1738.46
607.27	1731.16
607.62	1724.32
607.96	1716.94
608.31	1710.45
608.66	1702.66
609.01	1695.04
609.36	1687.44
609.70	1679.49
610.05	1671.46
610.40	1663.74
610.75	1655.32
611.10	1647.73
611.44	1639.31
611.79	1631.35
612.14	1622.64
612.49	1613.46
612.83	1605.20
613.18	1597.05
613.53	1588.95
613.88	1580.44
614.22	1572.09
614.57	1563.55
614.92	1555.48
615.27	1547.87
615.61	1539.43
615.96	1531.43
616.31	1523.94
616.65	1516.60
617.00	1508.97
617.35	1501.31
617.70	1492.92
618.04	1484.46
618.39	1476.18
618.74	1468.52
619.08	1460.19
619.43	1452.58
619.78	1445.79
620.12	1438.47
620.47	1430.94
620.82	1422.87
621.16	1415.48
621.51	1407.90
621.85	1400.30
622.20	1391.73
622.55	1383.42
622.89	1375.54
623.24	1368.05
623.59	1360.62
623.93	1353.17
624.28	1345.97
624.62	1338.41
624.97	1331.19
625.32	1324.44
625.66	1317.43
626.01	1310.28
626.35	1302.80
626.70	1295.03
627.04	1287.25
627.39	1279.52
627.73	1272.00
628.08	1265.03
628.43	1257.63
628.77	1250.24
629.12	1242.71
629.46	1235.63
629.81	1228.22
630.15	1221.03
630.50	1213.60
630.84	1205.44
631.19	1197.46
631.53	1189.93
631.88	1182.33
632.22	1174.87
632.57	1167.58
632.91	1160.13
633.26	1152.71
633.60	1145.40
633.95	1138.31
634.29	1131.31
634.64	1124.58
634.98	1117.28
635.32	1110.08
635.67	1103.55
636.01	1096.94
636.36	1090.08
636.70	1083.50
637.05	1076.88
637.39	1070.35
637.73	1063.75
638.08	1057.84
638.42	1051.83
638.77	1045.36
639.11	1038.81
639.45	1032.34
639.80	1025.68
640.14	1019.20
640.49	1012.61
640.83	1006.30
641.17	1000.10
641.52	993.75
641.86	987.32
642.20	981.49
642.55	975.27
642.89	968.72
643.23	962.18
643.58	956.42
643.92	950.30
644.26	944.31
644.61	938.38
644.95	932.40
645.29	925.75
645.64	919.03
645.98	912.63
646.32	906.75
646.66	900.73
647.01	894.95
647.35	889.20
647.69	883.34
648.04	877.79
648.38	871.90
648.72	865.87
649.06	859.92
649.41	854.02
649.75	847.99
650.09	842.08
650.43	836.28
650.78	830.12
651.12	824.16
651.46	818.44
651.80	812.64
652.14	807.22
652.49	801.93
652.83	796.76
653.17	791.11
653.51	785.40
653.85	780.03
654.20	774.34
654.54	768.33
654.88	762.62
655.22	756.78
655.56	751.18
655.90	745.71
656.25	740.39
656.59	735.07
656.93	729.99
657.27	724.85
657.61	719.43
657.95	714.33
658.29	709.17
658.64	703.92
658.98	698.59
659.32	693.17
659.66	687.97
660.00	682.60
660.34	677.76
660.68	672.95
661.02	667.90
661.36	663.22
661.70	658.76
662.05	654.38
662.39	650.00
662.73	645.50
663.07	641.13
663.41	636.66
663.75	632.16
664.09	627.62
664.43	623.19
664.77	619.01
665.11	614.81
665.45	610.76
665.79	606.71
666.13	602.57
666.47	598.53
666.81	594.35
667.15	590.27
667.49	586.30
667.83	582.42
668.17	578.49
668.51	574.42
668.85	570.44
669.19	566.63
669.53	562.81
669.87	558.96
670.21	555.29
670.55	551.68
670.89	548.26
671.23	544.82
671.57	541.35
671.91	537.79
672.25	534.23
672.58	530.72
672.92	527.24
673.26	524.08
673.60	520.89
673.94	517.75
674.28	514.91
674.62	511.93
674.96	508.83
675.30	505.86
675.64	502.91
675.97	500.14
676.31	497.28
676.65	494.33
676.99	491.59
677.33	488.66
677.67	485.84
678.01	482.77
678.34	479.81
678.68	476.96
679.02	474.18
679.36	471.44
679.70	468.66
680.04	465.93
680.37	463.06
680.71	460.22
681.05	457.58
681.39	454.80
681.73	452.16
682.06	449.67
682.40	447.11
682.74	444.68
683.08	442.08
683.42	439.46
683.75	436.89
684.09	434.38
684.43	431.92
684.77	429.47
685.10	427.15
685.44	424.85
685.78	422.51
686.12	420.25
686.45	417.97
686.79	415.70
687.13	413.46
687.46	411.31
687.80	409.15
688.14	406.97
688.48	404.96
688.81	402.67
689.15	400.47
689.49	398.33
689.82	396.20
690.16	394.18
690.50	392.24
690.83	390.37
691.17	388.37
691.51	386.51
691.84	384.63
692.18	382.68
692.52	380.67
692.85	378.78
693.19	376.93
693.52	375.12
693.86	373.33
694.20	371.60
694.53	369.81
694.87	367.98
695.21	366.20
695.54	364.34
695.88	362.66
696.21	360.99
696.55	359.34
696.88	357.66
697.22	355.98
697.56	354.39
697.89	352.70
698.23	351.15
698.56	349.54
698.90	347.98
699.23	346.35
699.57	344.82
699.90	343.28
700.24	341.70
700.58	340.18
700.91	338.68
701.25	337.22
701.58	335.85
701.92	334.50
702.25	333.16
702.59	331.82
702.92	330.49
703.26	329.15
703.59	327.90
703.93	326.70
704.26	325.44
704.60	324.16
704.93	322.93
705.26	321.68
705.60	320.50
705.93	319.33
706.27	318.30
706.60	317.23
706.94	316.16
707.27	315.09
707.61	314.03
707.94	313.02
708.27	311.91
708.61	310.85
708.94	309.86
709.28	308.90
709.61	307.91
709.94	306.94
710.28	305.95
710.61	304.96
710.95	303.92
711.28	303.01
711.61	302.03
711.95	301.10
712.28	300.16
712.61	299.16
712.95	298.21
713.28	297.34
713.61	296.47
713.95	295.57
714.28	294.74
714.61	293.88
714.95	293.00
715.28	292.14
715.61	291.26
715.95	290.41
716.28	289.54
716.61	288.71
716.95	287.93
717.28	287.16
717.61	286.42
717.94	285.70
718.28	284.89
718.61	284.17
718.94	283.48
719.27	282.82
719.61	282.18
719.94	281.54
720.27	280.80
720.60	280.10
720.94	279.47
721.27	278.85
721.60	278.24
721.93	277.68
722.27	277.16
722.60	276.61
722.93	276.01
723.26	275.45
723.59	274.89
723.93	274.33
724.26	273.79
724.59	273.22
724.92	272.66
725.25	272.15
725.59	271.62
725.92	271.10
726.25	270.54
726.58	270.07
726.91	269.57
727.24	269.11
727.57	268.64
727.91	268.15
728.24	267.67
728.57	267.18
728.90	266.68
729.23	266.18
729.56	265.72
729.89	265.30
730.22	264.81
730.55	264.37
730.89	263.89
731.22	263.40
731.55	262.92
731.88	262.48
732.21	262.06
732.54	261.64
732.87	261.19
733.20	260.84
733.53	260.44
733.86	260.08
734.19	259.66
734.52	259.27
734.85	258.95
735.18	258.56
735.51	258.20
735.84	257.84
736.17	257.48
736.50	257.07
736.83	256.82
737.16	256.51
737.49	256.15
737.82	255.84
738.15	255.53
738.48	255.24
738.81	254.92
739.14	254.59
739.47	254.26
739.80	253.97
740.13	253.67
740.46	253.36
740.79	253.01
741.12	252.71
741.45	252.41
741.78	252.09
742.11	251.78
742.44	251.43
742.77	251.15
743.10	250.85
743.43	250.56
743.75	250.18
744.08	250.00
744.41	249.74
744.74	249.47
745.07	249.19
745.40	248.94
745.73	248.72
746.06	248.46
746.39	248.21
746.71	247.92
747.04	247.64
747.37	247.34
747.70	247.11
748.03	246.85
748.36	246.61
748.68	246.37
749.01	246.12
749.34	245.95
749.67	245.71
750.00	245.49
750.33	245.37
750.65	245.16
750.98	244.84
751.31	244.62
751.64	244.42
751.97	244.23
752.29	243.97
752.62	243.72
752.95	243.48
753.28	243.28
753.60	243.09
753.93	242.93
754.26	242.74
754.59	242.49
754.91	242.31
755.24	242.11
755.57	241.93
755.90	241.75
756.22	241.53
756.55	241.35
756.88	241.17
757.20	240.92
757.53	240.71
757.86	240.55
758.19	240.39
758.51	240.18
758.84	240.00
759.17	239.86
759.49	239.71
759.82	239.61
760.15	239.49
760.47	239.37
760.80	239.18
761.13	239.05
761.45	238.89
761.78	238.75
762.11	238.62
762.43	238.44
762.76	238.31
763.08	238.18
763.41	238.04
763.74	237.92
764.06	237.78
764.39	237.64
764.71	237.49
765.04	237.35
765.37	237.22
765.69	237.07
766.02	236.95
766.34	236.82
766.67	236.64
767.00	236.51
767.32	236.43
767.65	236.37
767.97	236.24
768.30	236.16
768.62	236.05
768.95	235.96
769.27	235.86
769.60	235.73
769.92	235.63
770.25	235.50
770.57	235.35
770.90	235.28
771.22	235.25
771.55	235.16
771.87	235.08
772.20	235.00
772.52	234.99
772.85	235.03
773.17	234.93
773.50	234.87
773.82	234.78
774.15	234.64
774.47	234.50
774.80	234.41
775.12	234.32
775.45	234.25
775.77	234.16
776.09	234.08
776.42	234.02
776.74	234.00
777.07	233.95
777.39	233.90
777.72	233.79
778.04	233.67
778.36	233.58
778.69	233.49
779.01	233.39
779.33	233.26
779.66	233.11
779.98	233.02
780.31	232.95
780.63	232.91
780.95	232.83
781.28	232.78
781.60	232.71
781.92	232.63
782.25	232.57
782.57	232.48
782.89	232.41
783.22	232.32
783.54	232.20
783.86	232.12
784.19	232.06
784.51	232.02
784.83	231.97
785.16	231.91
785.48	231.85
785.80	231.83
786.12	231.75
786.45	231.67
786.77	231.62
787.09	231.55
787.42	231.47
787.74	231.45
788.06	231.39
788.38	231.35
788.71	231.31
789.03	231.27
789.35	231.23
789.67	231.19
789.99	231.17
790.32	231.09
790.64	231.08
790.96	231.12
791.28	231.07
791.61	231.01
791.93	231.00
792.25	230.95
792.57	230.99
792.89	230.92
793.21	230.89
793.54	230.84
793.86	230.80
794.18	230.76
794.50	230.70
794.82	230.67
795.14	230.65
795.47	230.62
795.79	230.58
796.11	230.57
796.43	230.55
796.75	230.54
797.07	230.52
797.39	230.46
797.71	230.35
798.04	230.32
798.36	230.25
798.68	230.17
799.00	230.15
799.32	230.06
799.64	230.05
799.96	230.00
800.28	230.00
800.60	229.98
800.92	229.97
801.24	229.96
801.56	229.93
801.89	229.88
802.21	229.85
802.53	229.79
802.85	229.73
803.17	229.71
803.49	229.66
803.81	229.64
804.13	229.61
804.45	229.57
804.77	229.56
805.09	229.55
805.41	229.54
805.73	229.51
806.05	229.46
806.37	229.43
806.69	229.39
807.01	229.37
807.33	229.35
807.65	229.29
807.97	229.30
808.28	229.28
808.60	229.26
808.92	229.22
809.24	229.26
809.56	229.24
809.88	229.23
810.20	229.17
810.52	229.15
810.84	229.11
811.16	229.09
811.48	229.06
811.80	229.08
812.12	229.03
812.43	229.01
812.75	228.99
813.07	228.96
813.39	228.97
813.71	228.91
814.03	228.87
814.35	228.83
814.67	228.74
814.98	228.67
815.30	228.64
815.62	228.60
815.94	228.53
816.26	228.53
816.58	228.46
816.89	228.48
817.21	228.43
817.53	228.43
817.85	228.40
818.17	228.38
818.48	228.33
818.80	228.35
819.12	228.34
819.44	228.33
819.76	228.30
820.07	228.29
820.39	228.26
820.71	228.24
821.03	228.26
821.34	228.29
821.66	228.31
821.98	228.30
822.30	228.28
822.61	228.27
822.93	228.22
823.25	228.24
823.57	228.20
823.88	228.23
824.20	228.23
824.52	228.25
824.83	228.23
825.15	228.20
825.47	228.18
825.79	228.16
826.10	228.14
826.42	228.10
826.74	228.08
827.05	228.10
827.37	228.09
827.69	228.05
828.00	228.02
828.32	228.04
828.64	228.04
828.95	228.08
829.27	228.10
829.58	228.09
829.90	228.07
830.22	228.06
830.53	228.02
830.85	227.99
831.17	227.96
831.48	227.92
831.80	227.95
832.11	227.94
832.43	227.92
832.75	227.93
833.06	228.00
833.38	227.98
833.69	227.97
834.01	227.99
834.32	227.99
834.64	227.95
834.96	227.93
835.27	227.92
835.59	227.86
835.90	227.80
836.22	227.80
836.53	227.81
836.85	227.79
837.16	227.90
837.48	227.88
837.79	227.90
838.11	227.91
838.42	227.89
838.74	227.89
839.05	227.86
839.37	227.83
839.68	227.79
840.00	227.75
840.31	227.73
840.63	227.71
840.94	227.67
841.26	227.67
841.57	227.65
841.88	227.64
842.20	227.64
842.51	227.67
842.83	227.67
843.14	227.73
843.46	227.72
843.77	227.65
844.08	227.67
844.40	227.62
844.71	227.60
845.03	227.56
845.34	227.57
845.65	227.58
845.97	227.56
846.28	227.56
846.60	227.57
846.91	227.55
847.22	227.56
847.54	227.60
847.85	227.59
848.16	227.59
848.48	227.58
848.79	227.62
849.10	227.58
849.42	227.60
849.73	227.51
850.04	227.55
850.36	227.52
850.67	227.53
850.98	227.53
851.30	227.54
851.61	227.54
851.92	227.52
852.23	227.55
852.55	227.56
852.86	227.59
853.17	227.58
853.49	227.59
853.80	227.60
854.11	227.62
854.42	227.64
854.74	227.63
855.05	227.65
855.36	227.57
855.67	227.58
855.99	227.57
856.30	227.66
856.61	227.63
856.92	227.62
857.23	227.61
857.55	227.60
857.86	227.61
858.17	227.63
858.48	227.59
858.79	227.56
859.11	227.55
859.42	227.52
859.73	227.52
860.04	227.50
860.35	227.48
860.66	227.41
860.98	227.41
861.29	227.39
861.60	227.36
861.91	227.41
862.22	227.39
862.53	227.38
862.84	227.26
863.16	227.27
863.47	227.24
863.78	227.25
864.09	227.31
864.40	227.29
864.71	227.30
865.02	227.31
865.33	227.33
865.64	227.31
865.95	227.27
866.27	227.31
866.58	227.30
866.89	227.30
867.20	227.32
867.51	227.30
867.82	227.30
868.13	227.36
868.44	227.32
868.75	227.36
869.06	227.35
869.37	227.38
869.68	227.35
869.99	227.41
870.30	227.39
870.61	227.36
870.92	227.34
871.23	227.32
871.54	227.35
871.85	227.37
872.16	227.37
872.47	227.37
872.78	227.32
873.09	227.34
873.40	227.30
873.71	227.29
874.02	227.24
874.33	227.22
874.64	227.15
874.95	227.18
875.26	227.15
875.56	227.16
875.87	227.11
876.18	227.09
876.49	227.13
876.80	227.12
877.11	227.08
877.42	227.08
877.73	227.05
878.04	227.02
878.35	226.98
878.66	227.01
878.96	227.02
879.27	227.02
879.58	227.02
879.89	227.02
880.20	227.05
880.51	227.07
880.82	227.06
881.12	227.09
881.43	227.06
881.74	227.04
882.05	227.02
882.36	227.07
882.67	227.09
882.97	227.00
883.28	227.00
883.59	226.99
883.90	227.01
884.21	227.03
884.51	227.01
884.82	227.00
885.13	226.95
885.44	226.95
885.74	226.95
886.05	226.95
886.36	226.92
886.67	226.90
886.98	226.96
887.28	226.97
887.59	226.95
887.90	226.94
888.20	226.94
888.51	226.93
888.82	226.91
889.13	226.91
889.43	226.95
889.74	226.94
890.05	226.97
890.35	226.95
890.66	226.94
890.97	226.93
891.28	226.92
891.58	226.95
891.89	226.94
892.20	226.95
892.50	226.92
892.81	226.94
893.12	226.91
893.42	226.87
893.73	226.88
894.04	226.88
894.34	226.88
894.65	226.85
894.95	226.85
895.26	226.82
895.57	226.86
895.87	226.78
896.18	226.81
896.48	226.77
896.79	226.79
897.10	226.80
897.40	226.77
897.71	226.82
898.01	226.80
898.32	226.81
898.63	226.81
898.93	226.83
899.24	226.82
899.54	226.84
899.85	226.83
900.15	226.81
900.46	226.81
900.76	226.82
901.07	226.83
901.38	226.83
901.68	226.84
901.99	226.79
902.29	226.79
902.60	226.78
902.90	226.79
903.21	226.80
903.51	226.78
903.82	226.84
904.12	226.81
904.43	226.85
904.73	226.85
905.03	226.85
905.34	226.92
905.64	226.94
905.95	226.94
906.25	226.94
906.56	226.98
906.86	226.97
907.17	226.96
907.47	226.99
907.77	226.96
908.08	226.97
908.38	226.99
908.69	227.00
908.99	227.02
909.30	227.00
909.60	227.02
909.90	227.04
910.21	227.01
910.51	226.97
910.81	226.95
911.12	226.97
911.42	226.96
911.73	226.89
912.03	226.89
912.33	226.94
912.64	226.94
912.94	226.91
913.24	226.92
913.55	226.91
913.85	226.90
914.15	226.97
914.46	226.98
914.76	226.93
915.06	226.93
915.37	226.90
915.67	226.91
915.97	226.91
916.27	226.89
916.58	226.93
916.88	226.99
917.18	226.99
917.49	227.06
917.79	227.05
918.09	227.04
918.39	227.08
918.70	227.03
919.00	227.03
919.30	227.07
919.60	227.07
919.91	227.05
920.21	227.09
920.51	227.03
920.81	227.00
921.12	227.07
921.42	227.08
921.72	227.10
922.02	227.07
922.32	227.08
922.63	227.10
922.93	227.10
923.23	227.09
923.53	227.05
923.83	226.97
924.13	226.98
924.44	226.96
924.74	226.96
925.04	226.99
925.34	227.01
925.64	226.96
925.94	226.94
926.24	227.01
926.55	226.98
926.85	227.00
927.15	227.01
927.45	226.99
927.75	227.01
928.05	227.01
928.35	227.03
928.65	227.02
928.95	227.02
929.26	227.00
929.56	227.04
929.86	227.06
930.16	227.06
930.46	227.02
930.76	227.02
931.06	226.96
931.36	226.92
931.66	226.90
931.96	226.93
932.26	226.98
932.56	226.94
932.86	226.95
933.16	226.97
933.46	226.95
933.76	226.94
934.06	226.94
934.36	226.95
934.66	226.97
934.96	226.96
935.26	226.94
935.56	226.96
935.86	226.90
936.16	226.90
936.46	226.86
936.76	226.89
937.06	226.90
937.36	226.91
937.66	226.92
937.96	226.92
938.26	226.89
938.56	226.85
938.86	226.88
939.16	226.88
939.46	226.88
939.76	226.93
940.06	226.91
940.35	226.90
940.65	226.85
940.95	226.84
941.25	226.83
941.55	226.83
941.85	226.81
942.15	226.85
942.45	226.84
942.75	226.86
943.04	226.85
943.34	226.83
943.64	226.83
943.94	226.84
944.24	226.85
944.54	226.86
944.84	226.85
945.13	226.81
945.43	226.78
945.73	226.77
946.03	226.72
946.33	226.71
946.62	226.68
946.92	226.70
947.22	226.70
947.52	226.69
947.82	226.69
948.11	226.68
948.41	226.63
948.71	226.63
949.01	226.62
949.31	226.62
949.60	226.64
949.90	226.66
950.20	226.64
950.50	226.61
950.79	226.61
951.09	226.62
951.39	226.63
951.69	226.62
951.98	226.61
952.28	226.63
952.58	226.61
952.87	226.65
953.17	226.66
953.47	226.64
953.76	226.64
954.06	226.63
954.36	226.63
954.66	226.65
954.95	226.67
955.25	226.67
955.55	226.67
955.84	226.66
956.14	226.66
956.44	226.69
956.73	226.68
957.03	226.68
957.32	226.68
957.62	226.67
957.92	226.68
958.21	226.68
958.51	226.77
958.81	226.79
959.10	226.75
959.40	226.77
959.69	226.80
959.99	226.82
960.29	226.81
960.58	226.79
960.88	226.82
961.17	226.81
961.47	226.85
961.76	226.85
962.06	226.85
962.36	226.83
962.65	226.81
962.95	226.83
963.24	226.83
963.54	226.83
963.83	226.86
964.13	226.87
964.42	226.87
964.72	226.79
965.01	226.82
965.31	226.81
965.60	226.78
965.90	226.80
966.19	226.78
966.49	226.80
966.78	226.80
967.08	226.78
967.37	226.77
967.67	226.75
967.96	226.76
968.26	226.78
968.55	226.81
968.85	226.84
969.14	226.81
969.43	226.82
969.73	226.82
970.02	226.83
970.32	226.80
970.61	226.80
970.91	226.78
971.20	226.74
971.49	226.72
971.79	226.73
972.08	226.66
972.38	226.66
972.67	226.65
972.96	226.68
973.26	226.66
973.55	226.70
973.85	226.68
974.14	226.66
974.43	226.68
974.73	226.63
975.02	226.61
975.31	226.62
975.61	226.60
975.90	226.60
976.19	226.58
976.49	226.61
976.78	226.58
977.07	226.58
977.37	226.62
977.66	226.64
977.95	226.66
978.24	226.65
978.54	226.68
978.83	226.66
979.12	226.66
979.42	226.66
979.71	226.63
980.00	226.62
980.29	226.63
980.59	226.57
980.88	226.62
981.17	226.63
981.46	226.65
981.76	226.63
982.05	226.65
982.34	226.64
982.63	226.66
982.93	226.69
983.22	226.74
983.51	226.75
983.80	226.77
984.09	226.76
984.39	226.80
984.68	226.79
984.97	226.79
985.26	226.79
985.55	226.79
985.85	226.77
986.14	226.81
986.43	226.80
986.72	226.82
987.01	226.78
987.30	226.76
987.59	226.74
987.89	226.74
988.18	226.68
988.47	226.66
988.76	226.63
989.05	226.62
989.34	226.58
989.63	226.57
989.92	226.55
990.22	226.51
990.51	226.50
990.80	226.49
991.09	226.50
991.38	226.50
991.67	226.49
991.96	226.50
992.25	226.50
992.54	226.49
992.83	226.47
993.12	226.48
993.41	226.51
993.70	226.54
993.99	226.56
994.28	226.59
994.58	226.62
994.87	226.60
995.16	226.59
995.45	226.59
995.74	226.58
996.03	226.57
996.32	226.60
996.61	226.60
996.90	226.63
997.19	226.64
997.48	226.65
997.77	226.71
998.06	226.73
998.34	226.67
998.63	226.68
998.92	226.73
999.21	226.74
999.50	226.75
999.79	226.73
1000.08	226.72
1000.37	226.72
1000.66	226.74
1000.95	226.74
1001.24	226.74
1001.53	226.74
1001.82	226.75
1002.11	226.75
1002.40	226.78
1002.68	226.79
1002.97	226.83
1003.26	226.82
1003.55	226.82
1003.84	226.78
1004.13	226.76
1004.42	226.80
1004.71	226.78
1004.99	226.76
1005.28	226.80
1005.57	226.79
1005.86	226.79
1006.15	226.80
1006.44	226.79
1006.72	226.78
1007.01	226.80
1007.30	226.82
1007.59	226.86
1007.88	226.86
1008.17	226.87
1008.45	226.83
1008.74	226.79
1009.03	226.74
1009.32	226.75
1009.60	226.70
1009.89	226.70
1010.18	226.69
1010.47	226.68
1010.76	226.72
1011.04	226.69
1011.33	226.66
1011.62	226.65
1011.91	226.68
1012.19	226.70
1012.48	226.70
1012.77	226.70
1013.05	226.72
1013.34	226.74
1013.63	226.69
1013.92	226.70
1014.20	226.72
1014.49	226.72
1014.78	226.73
1015.06	226.71
1015.35	226.70
1015.64	226.73
1015.92	226.77
1016.21	226.73
1016.50	226.73
1016.78	226.69
1017.07	226.68
1017.36	226.68
1017.64	226.65
1017.93	226.62
1018.22	226.60
1018.50	226.60
1018.79	226.60
1019.08	226.56
1019.36	226.52
1019.65	226.53
1019.93	226.57
1020.22	226.56
1020.51	226.64
1020.79	226.62
1021.08	226.35
1021.36	226.60
1021.65	226.70
1021.94	226.62
1022.22	226.28
1022.51	226.78
1022.79	227.37
1023.08	226.86
1023.36	228.29
1023.65	225.89
>>>>>End Processed Spectral Data<<<<<
