SpectraSuite Data File
++++++++++++++++++++++++++++++++++++
Date: Fri Feb 01 15:41:45 EST 2013
User: group
Dark Spectrum Present: No
Reference Spectrum Present: No
Number of Sampled Component Spectra: 1
Spectrometers: USB2E7196
Integration Time (usec): 35000 (USB2E7196)
Spectra Averaged: 100 (USB2E7196)
Boxcar Smoothing: 10 (USB2E7196)
Correct for Electrical Dark: No (USB2E7196)
Strobe/Lamp Enabled: No (USB2E7196)
Correct for Detector Non-linearity: No (USB2E7196)
Correct for Stray Light: No (USB2E7196)
Number of Pixels in Processed Spectrum: 2048
>>>>>Begin Processed Spectral Data<<<<<
339.09	0.00
339.48	214.75
339.86	216.58
340.24	218.29
340.63	218.80
341.01	222.20
341.39	222.13
341.78	223.16
342.16	224.16
342.54	224.15
342.93	213.22
343.31	224.01
343.69	224.55
344.07	225.00
344.46	225.40
344.84	225.78
345.22	226.00
345.60	226.24
345.99	226.43
346.37	226.57
346.75	226.70
347.13	226.77
347.52	226.86
347.90	226.91
348.28	226.93
348.66	227.00
349.05	226.98
349.43	227.01
349.81	227.09
350.19	227.18
350.57	227.23
350.96	227.29
351.34	227.38
351.72	227.48
352.10	227.58
352.48	227.65
352.87	227.71
353.25	227.80
353.63	227.89
354.01	227.96
354.39	228.03
354.77	228.12
355.15	228.23
355.54	228.31
355.92	228.33
356.30	228.39
356.68	228.55
357.06	228.64
357.44	228.70
357.82	228.72
358.20	228.78
358.58	228.84
358.97	228.89
359.35	228.95
359.73	229.00
360.11	229.08
360.49	229.15
360.87	229.20
361.25	229.21
361.63	229.28
362.01	229.34
362.39	229.38
362.77	229.42
363.15	229.43
363.53	229.47
363.91	229.50
364.29	229.51
364.67	229.41
365.05	229.41
365.43	229.43
365.81	229.47
366.19	229.51
366.57	229.54
366.95	229.54
367.33	229.50
367.71	229.49
368.09	229.47
368.47	229.45
368.85	229.45
369.23	229.47
369.61	229.38
369.99	229.34
370.37	229.29
370.75	229.30
371.13	229.24
371.51	229.18
371.89	229.18
372.27	229.14
372.65	229.11
373.03	229.05
373.41	229.01
373.78	228.91
374.16	228.81
374.54	228.71
374.92	228.63
375.30	228.58
375.68	228.50
376.06	228.43
376.44	228.37
376.82	228.30
377.19	228.21
377.57	228.12
377.95	228.05
378.33	227.98
378.71	227.83
379.09	227.80
379.47	227.74
379.84	227.61
380.22	227.53
380.60	227.42
380.98	227.36
381.36	227.26
381.73	227.23
382.11	227.17
382.49	227.09
382.87	227.04
383.25	226.97
383.62	227.02
384.00	226.89
384.38	226.80
384.76	226.78
385.13	226.78
385.51	226.76
385.89	226.73
386.27	226.71
386.64	226.68
387.02	226.64
387.40	226.60
387.78	226.59
388.15	226.56
388.53	226.57
388.91	226.50
389.29	226.47
389.66	226.46
390.04	226.43
390.42	226.45
390.79	226.43
391.17	226.43
391.55	226.33
391.92	226.35
392.30	226.39
392.68	226.35
393.05	226.33
393.43	226.36
393.81	226.33
394.18	226.32
394.56	226.35
394.94	226.35
395.31	226.34
395.69	226.40
396.06	226.44
396.44	226.45
396.82	226.52
397.19	226.64
397.57	226.68
397.95	226.72
398.32	226.76
398.70	226.83
399.07	226.90
399.45	226.99
399.82	227.06
400.20	227.12
400.58	227.22
400.95	227.25
401.33	227.34
401.70	227.51
402.08	227.64
402.45	227.73
402.83	227.85
403.20	228.01
403.58	228.09
403.95	228.25
404.33	228.37
404.71	228.48
405.08	228.64
405.46	228.77
405.83	228.94
406.21	229.10
406.58	229.27
406.96	229.47
407.33	229.63
407.70	229.87
408.08	230.16
408.45	230.38
408.83	230.66
409.20	230.83
409.58	230.99
409.95	231.26
410.33	231.54
410.70	231.81
411.08	232.07
411.45	232.36
411.82	232.67
412.20	233.04
412.57	233.47
412.95	233.77
413.32	234.20
413.69	234.63
414.07	235.03
414.44	235.51
414.82	235.97
415.19	236.52
415.56	237.03
415.94	237.53
416.31	238.17
416.68	238.80
417.06	239.60
417.43	240.32
417.81	241.09
418.18	241.87
418.55	242.71
418.93	243.56
419.30	244.47
419.67	245.45
420.04	246.39
420.42	247.34
420.79	248.55
421.16	249.68
421.54	250.86
421.91	252.09
422.28	253.31
422.66	254.61
423.03	255.91
423.40	257.24
423.77	258.66
424.15	260.07
424.52	261.51
424.89	263.09
425.26	264.61
425.64	266.03
426.01	267.61
426.38	269.22
426.75	270.95
427.13	272.65
427.50	274.40
427.87	276.28
428.24	278.15
428.61	279.87
428.99	281.80
429.36	283.85
429.73	285.91
430.10	287.93
430.47	290.00
430.85	292.11
431.22	294.34
431.59	296.71
431.96	298.91
432.33	301.40
432.70	303.76
433.08	306.58
433.45	309.25
433.82	311.85
434.19	314.77
434.56	317.57
434.93	320.22
435.30	322.86
435.68	325.77
436.05	328.56
436.42	331.34
436.79	333.85
437.16	336.60
437.53	339.43
437.90	342.29
438.27	345.05
438.64	347.88
439.01	350.46
439.38	352.73
439.75	354.92
440.13	357.45
440.50	359.80
440.87	361.63
441.24	363.51
441.61	365.70
441.98	367.21
442.35	368.98
442.72	370.85
443.09	372.69
443.46	373.66
443.83	374.27
444.20	374.76
444.57	375.60
444.94	375.89
445.31	376.25
445.68	376.62
446.05	376.64
446.42	376.27
446.79	375.88
447.16	375.43
447.53	375.11
447.90	373.88
448.27	372.74
448.64	371.17
449.01	370.04
449.37	368.06
449.74	366.13
450.11	363.90
450.48	361.43
450.85	358.88
451.22	356.77
451.59	354.78
451.96	352.86
452.33	350.28
452.70	347.93
453.07	345.10
453.43	342.21
453.80	339.48
454.17	336.84
454.54	334.33
454.91	331.65
455.28	329.02
455.65	326.59
456.02	324.10
456.38	321.96
456.75	319.33
457.12	317.06
457.49	314.86
457.86	312.68
458.23	310.83
458.59	308.81
458.96	306.72
459.33	304.86
459.70	303.05
460.07	301.55
460.43	299.82
460.80	298.19
461.17	296.70
461.54	295.21
461.91	293.78
462.27	292.33
462.64	291.05
463.01	289.64
463.38	288.37
463.74	287.01
464.11	285.84
464.48	284.80
464.85	283.68
465.21	282.85
465.58	281.95
465.95	280.83
466.32	279.90
466.68	279.01
467.05	278.11
467.42	277.19
467.78	276.25
468.15	275.37
468.52	274.69
468.88	273.85
469.25	273.11
469.62	272.46
469.98	271.77
470.35	271.13
470.72	270.53
471.08	269.83
471.45	269.31
471.82	268.75
472.18	268.13
472.55	267.72
472.92	267.16
473.28	266.68
473.65	266.24
474.02	265.80
474.38	265.40
474.75	265.06
475.11	264.72
475.48	264.39
475.85	264.13
476.21	263.88
476.58	263.64
476.94	263.45
477.31	263.27
477.67	263.12
478.04	262.99
478.41	262.93
478.77	262.99
479.14	262.87
479.50	262.89
479.87	262.96
480.23	263.03
480.60	263.05
480.96	263.13
481.33	263.31
481.69	263.49
482.06	263.67
482.42	263.86
482.79	264.10
483.15	264.44
483.52	264.86
483.88	265.21
484.25	265.63
484.61	266.04
484.98	266.48
485.34	267.03
485.71	267.60
486.07	268.22
486.44	268.78
486.80	269.51
487.17	270.20
487.53	271.01
487.90	271.89
488.26	272.84
488.62	273.81
488.99	274.80
489.35	275.85
489.72	277.00
490.08	278.24
490.44	279.46
490.81	280.80
491.17	282.12
491.54	283.60
491.90	285.15
492.26	286.76
492.63	288.52
492.99	290.31
493.36	292.20
493.72	294.20
494.08	296.30
494.45	298.57
494.81	300.98
495.17	303.40
495.54	305.94
495.90	308.65
496.26	311.47
496.63	314.46
496.99	317.58
497.35	320.81
497.72	324.22
498.08	327.77
498.44	331.41
498.80	335.35
499.17	339.43
499.53	343.60
499.89	348.06
500.26	352.54
500.62	357.19
500.98	362.21
501.34	367.30
501.71	372.61
502.07	378.04
502.43	383.65
502.79	389.44
503.16	395.51
503.52	401.83
503.88	408.28
504.24	414.92
504.60	421.79
504.97	428.92
505.33	436.19
505.69	443.93
506.05	451.72
506.41	459.63
506.78	467.81
507.14	476.25
507.50	484.94
507.86	494.02
508.22	503.17
508.59	512.30
508.95	521.92
509.31	531.83
509.67	541.98
510.03	552.21
510.39	562.84
510.75	573.69
511.12	584.61
511.48	595.87
511.84	607.26
512.20	618.82
512.56	630.77
512.92	642.98
513.28	655.24
513.64	667.74
514.00	680.47
514.37	693.40
514.73	706.49
515.09	719.51
515.45	732.74
515.81	746.39
516.17	760.39
516.53	774.47
516.89	788.55
517.25	802.73
517.61	817.19
517.97	831.65
518.33	846.06
518.69	860.86
519.05	875.86
519.41	891.06
519.77	906.59
520.13	922.16
520.49	937.57
520.85	953.04
521.21	968.77
521.57	984.96
521.93	1000.75
522.29	1017.09
522.65	1033.37
523.01	1049.58
523.37	1065.61
523.73	1081.73
524.09	1097.83
524.45	1114.16
524.81	1130.66
525.17	1147.67
525.53	1164.61
525.89	1181.50
526.25	1198.32
526.61	1214.68
526.97	1231.48
527.33	1247.87
527.68	1264.38
528.04	1280.91
528.40	1297.51
528.76	1314.54
529.12	1331.12
529.48	1348.00
529.84	1364.07
530.20	1380.75
530.56	1397.94
530.91	1415.41
531.27	1432.23
531.63	1448.81
531.99	1465.46
532.35	1481.50
532.71	1497.17
533.07	1513.46
533.42	1529.40
533.78	1545.48
534.14	1561.76
534.50	1577.01
534.86	1592.86
535.21	1608.06
535.57	1623.93
535.93	1639.41
536.29	1654.14
536.65	1669.23
537.00	1684.00
537.36	1699.35
537.72	1713.76
538.08	1728.06
538.44	1741.79
538.79	1755.74
539.15	1769.40
539.51	1783.19
539.87	1797.54
540.22	1811.35
540.58	1825.04
540.94	1838.35
541.29	1851.25
541.65	1863.97
542.01	1877.24
542.37	1889.66
542.72	1902.13
543.08	1913.98
543.44	1926.50
543.79	1937.91
544.15	1948.94
544.51	1960.48
544.87	1971.56
545.22	1982.41
545.58	1992.57
545.94	2002.38
546.29	2012.21
546.65	2021.96
547.01	2031.08
547.36	2039.79
547.72	2048.25
548.07	2056.08
548.43	2064.28
548.79	2072.37
549.14	2079.96
549.50	2087.42
549.86	2095.19
550.21	2102.42
550.57	2109.48
550.92	2116.00
551.28	2123.00
551.64	2130.21
551.99	2136.77
552.35	2142.78
552.70	2149.03
553.06	2155.07
553.41	2161.34
553.77	2167.41
554.13	2173.56
554.48	2179.81
554.84	2185.31
555.19	2190.60
555.55	2195.76
555.90	2200.16
556.26	2204.95
556.61	2209.65
556.97	2213.89
557.32	2217.97
557.68	2222.18
558.03	2226.49
558.39	2230.32
558.74	2234.92
559.10	2238.64
559.45	2242.33
559.81	2246.76
560.16	2250.51
560.52	2253.82
560.87	2257.27
561.23	2259.87
561.58	2262.89
561.94	2265.39
562.29	2267.74
562.64	2270.57
563.00	2273.18
563.35	2276.77
563.71	2279.87
564.06	2283.10
564.42	2285.85
564.77	2288.28
565.12	2290.53
565.48	2292.47
565.83	2294.19
566.19	2295.39
566.54	2296.24
566.89	2297.28
567.25	2297.72
567.60	2299.11
567.96	2300.78
568.31	2301.49
568.66	2302.56
569.02	2302.98
569.37	2303.20
569.72	2304.12
570.08	2304.07
570.43	2304.23
570.78	2303.59
571.14	2302.11
571.49	2300.73
571.84	2300.51
572.20	2299.41
572.55	2298.35
572.90	2296.75
573.26	2295.25
573.61	2293.56
573.96	2291.82
574.31	2288.69
574.67	2285.61
575.02	2281.90
575.37	2278.32
575.72	2274.66
576.08	2271.45
576.43	2268.07
576.78	2264.25
577.13	2261.09
577.49	2257.98
577.84	2254.21
578.19	2250.37
578.54	2246.64
578.90	2242.40
579.25	2236.66
579.60	2231.66
579.95	2226.64
580.30	2221.57
580.66	2216.55
581.01	2211.74
581.36	2206.65
581.71	2202.61
582.06	2198.13
582.42	2193.62
582.77	2188.48
583.12	2183.79
583.47	2178.96
583.82	2173.95
584.17	2168.71
584.53	2163.07
584.88	2157.44
585.23	2151.76
585.58	2146.29
585.93	2140.79
586.28	2135.92
586.63	2130.69
586.98	2125.65
587.34	2120.94
587.69	2116.07
588.04	2110.67
588.39	2104.74
588.74	2098.44
589.09	2092.29
589.44	2085.54
589.79	2079.50
590.14	2074.03
590.49	2067.46
590.84	2061.06
591.19	2055.02
591.54	2048.63
591.89	2041.26
592.25	2034.45
592.60	2027.15
592.95	2019.55
593.30	2012.12
593.65	2004.54
594.00	1997.76
594.35	1990.49
594.70	1982.42
595.05	1975.14
595.40	1967.92
595.75	1960.45
596.10	1954.33
596.45	1947.54
596.80	1941.39
597.15	1934.77
597.50	1927.37
597.85	1920.89
598.19	1914.23
598.54	1907.03
598.89	1900.47
599.24	1894.60
599.59	1887.84
599.94	1881.74
600.29	1875.43
600.64	1868.84
600.99	1861.40
601.34	1854.39
601.69	1847.41
602.04	1840.42
602.39	1833.11
602.74	1826.32
603.08	1819.69
603.43	1812.74
603.78	1805.42
604.13	1798.10
604.48	1790.74
604.83	1783.88
605.18	1776.74
605.53	1768.67
605.87	1760.78
606.22	1753.45
606.57	1745.53
606.92	1738.25
607.27	1730.87
607.62	1723.96
607.96	1716.74
608.31	1710.06
608.66	1702.51
609.01	1694.86
609.36	1687.27
609.70	1679.22
610.05	1671.06
610.40	1663.28
610.75	1655.04
611.10	1647.45
611.44	1639.21
611.79	1631.31
612.14	1622.66
612.49	1613.70
612.83	1605.39
613.18	1597.23
613.53	1589.12
613.88	1580.51
614.22	1572.17
614.57	1563.63
614.92	1555.65
615.27	1548.08
615.61	1539.83
615.96	1531.87
616.31	1524.24
616.65	1516.95
617.00	1509.37
617.35	1501.70
617.70	1493.31
618.04	1484.77
618.39	1476.43
618.74	1468.76
619.08	1460.45
619.43	1453.03
619.78	1446.20
620.12	1438.96
620.47	1431.45
620.82	1423.24
621.16	1415.83
621.51	1408.28
621.85	1400.71
622.20	1392.13
622.55	1383.61
622.89	1375.74
623.24	1368.09
623.59	1360.73
623.93	1353.20
624.28	1346.05
624.62	1338.44
624.97	1331.33
625.32	1324.59
625.66	1317.64
626.01	1310.44
626.35	1302.86
626.70	1294.95
627.04	1287.10
627.39	1279.31
627.73	1271.89
628.08	1265.03
628.43	1257.72
628.77	1250.30
629.12	1242.85
629.46	1235.62
629.81	1228.35
630.15	1221.06
630.50	1213.65
630.84	1205.38
631.19	1197.50
631.53	1189.97
631.88	1182.49
632.22	1174.80
632.57	1167.49
632.91	1159.93
633.26	1152.53
633.60	1145.27
633.95	1138.21
634.29	1131.21
634.64	1124.57
634.98	1117.20
635.32	1110.06
635.67	1103.53
636.01	1096.92
636.36	1090.06
636.70	1083.57
637.05	1077.00
637.39	1070.58
637.73	1064.02
638.08	1058.23
638.42	1052.25
638.77	1045.77
639.11	1039.12
639.45	1032.86
639.80	1026.13
640.14	1019.66
640.49	1013.05
640.83	1006.66
641.17	1000.39
641.52	994.00
641.86	987.59
642.20	981.84
642.55	975.60
642.89	969.02
643.23	962.46
643.58	956.64
643.92	950.45
644.26	944.38
644.61	938.40
644.95	932.33
645.29	925.73
645.64	918.98
645.98	912.68
646.32	906.89
646.66	900.74
647.01	894.99
647.35	889.30
647.69	883.46
648.04	877.95
648.38	872.10
648.72	866.21
649.06	860.08
649.41	854.15
649.75	848.16
650.09	842.25
650.43	836.45
650.78	830.28
651.12	824.33
651.46	818.56
651.80	812.77
652.14	807.43
652.49	802.11
652.83	796.91
653.17	791.12
653.51	785.34
653.85	780.01
654.20	774.34
654.54	768.28
654.88	762.59
655.22	756.71
655.56	751.18
655.90	745.73
656.25	740.55
656.59	735.15
656.93	730.03
657.27	724.88
657.61	719.45
657.95	714.39
658.29	709.33
658.64	704.12
658.98	698.88
659.32	693.36
659.66	688.12
660.00	682.79
660.34	677.92
660.68	673.03
661.02	667.99
661.36	663.32
661.70	658.88
662.05	654.52
662.39	650.24
662.73	645.75
663.07	641.32
663.41	636.81
663.75	632.35
664.09	627.79
664.43	623.44
664.77	619.33
665.11	615.05
665.45	610.89
665.79	606.78
666.13	602.63
666.47	598.52
666.81	594.38
667.15	590.25
667.49	586.36
667.83	582.62
668.17	578.66
668.51	574.55
668.85	570.48
669.19	566.69
669.53	562.71
669.87	558.77
670.21	555.06
670.55	551.45
670.89	548.06
671.23	544.64
671.57	541.06
671.91	537.49
672.25	534.01
672.58	530.58
672.92	527.17
673.26	523.94
673.60	520.87
673.94	517.73
674.28	514.80
674.62	511.79
674.96	508.59
675.30	505.68
675.64	502.78
675.97	500.06
676.31	497.18
676.65	494.36
676.99	491.69
677.33	488.82
677.67	486.08
678.01	482.98
678.34	479.93
678.68	477.11
679.02	474.33
679.36	471.58
679.70	468.82
680.04	466.07
680.37	463.19
680.71	460.40
681.05	457.84
681.39	455.16
681.73	452.55
682.06	450.06
682.40	447.53
682.74	444.99
683.08	442.39
683.42	439.75
683.75	437.27
684.09	434.72
684.43	432.27
684.77	429.71
685.10	427.41
685.44	425.18
685.78	422.89
686.12	420.68
686.45	418.42
686.79	416.11
687.13	413.92
687.46	411.77
687.80	409.66
688.14	407.41
688.48	405.40
688.81	403.14
689.15	401.00
689.49	398.85
689.82	396.76
690.16	394.66
690.50	392.69
690.83	390.69
691.17	388.69
691.51	386.78
691.84	384.92
692.18	382.97
692.52	380.97
692.85	379.05
693.19	377.17
693.52	375.34
693.86	373.56
694.20	371.77
694.53	370.01
694.87	368.15
695.21	366.34
695.54	364.45
695.88	362.78
696.21	361.08
696.55	359.44
696.88	357.75
697.22	356.15
697.56	354.57
697.89	352.91
698.23	351.32
698.56	349.73
698.90	348.18
699.23	346.54
699.57	344.99
699.90	343.45
700.24	341.91
700.58	340.35
700.91	338.80
701.25	337.39
701.58	336.03
701.92	334.64
702.25	333.23
702.59	331.87
702.92	330.54
703.26	329.20
703.59	327.90
703.93	326.76
704.26	325.52
704.60	324.21
704.93	322.94
705.26	321.68
705.60	320.53
705.93	319.34
706.27	318.31
706.60	317.24
706.94	316.18
707.27	314.99
707.61	313.90
707.94	312.93
708.27	311.79
708.61	310.66
708.94	309.67
709.28	308.71
709.61	307.78
709.94	306.82
710.28	305.83
710.61	304.86
710.95	303.82
711.28	302.91
711.61	301.96
711.95	301.07
712.28	300.15
712.61	299.10
712.95	298.20
713.28	297.27
713.61	296.35
713.95	295.42
714.28	294.59
714.61	293.71
714.95	292.83
715.28	292.02
715.61	291.14
715.95	290.28
716.28	289.44
716.61	288.60
716.95	287.78
717.28	287.04
717.61	286.24
717.94	285.47
718.28	284.67
718.61	283.92
718.94	283.24
719.27	282.60
719.61	281.97
719.94	281.30
720.27	280.57
720.60	279.92
720.94	279.30
721.27	278.69
721.60	278.14
721.93	277.53
722.27	276.97
722.60	276.40
722.93	275.85
723.26	275.30
723.59	274.74
723.93	274.16
724.26	273.60
724.59	273.06
724.92	272.53
725.25	272.02
725.59	271.52
725.92	270.98
726.25	270.41
726.58	269.93
726.91	269.44
727.24	269.02
727.57	268.57
727.91	268.05
728.24	267.60
728.57	267.09
728.90	266.62
729.23	266.12
729.56	265.72
729.89	265.21
730.22	264.75
730.55	264.30
730.89	263.87
731.22	263.43
731.55	263.00
731.88	262.59
732.21	262.18
732.54	261.72
732.87	261.34
733.20	260.98
733.53	260.56
733.86	260.19
734.19	259.78
734.52	259.37
734.85	259.10
735.18	258.70
735.51	258.36
735.84	258.02
736.17	257.66
736.50	257.26
736.83	257.09
737.16	256.74
737.49	256.38
737.82	256.04
738.15	255.71
738.48	255.39
738.81	255.06
739.14	254.73
739.47	254.43
739.80	254.11
740.13	253.81
740.46	253.51
740.79	253.19
741.12	252.90
741.45	252.61
741.78	252.26
742.11	251.98
742.44	251.68
742.77	251.42
743.10	251.14
743.43	250.83
743.75	250.41
744.08	250.29
744.41	250.03
744.74	249.75
745.07	249.48
745.40	249.23
745.73	248.98
746.06	248.70
746.39	248.45
746.71	248.18
747.04	247.93
747.37	247.70
747.70	247.43
748.03	247.18
748.36	246.94
748.68	246.70
749.01	246.46
749.34	246.24
749.67	246.00
750.00	245.79
750.33	245.67
750.65	245.48
750.98	245.11
751.31	244.87
751.64	244.69
751.97	244.53
752.29	244.29
752.62	244.03
752.95	243.81
753.28	243.59
753.60	243.41
753.93	243.19
754.26	242.95
754.59	242.73
754.91	242.50
755.24	242.29
755.57	242.10
755.90	241.90
756.22	241.67
756.55	241.46
756.88	241.24
757.20	240.94
757.53	240.69
757.86	240.51
758.19	240.37
758.51	240.16
758.84	239.94
759.17	239.76
759.49	239.63
759.82	239.52
760.15	239.36
760.47	239.17
760.80	239.00
761.13	238.89
761.45	238.73
761.78	238.59
762.11	238.47
762.43	238.30
762.76	238.15
763.08	238.01
763.41	237.86
763.74	237.70
764.06	237.58
764.39	237.48
764.71	237.33
765.04	237.16
765.37	237.03
765.69	236.90
766.02	236.78
766.34	236.62
766.67	236.47
767.00	236.34
767.32	236.30
767.65	236.23
767.97	236.07
768.30	235.95
768.62	235.83
768.95	235.71
769.27	235.61
769.60	235.52
769.92	235.43
770.25	235.32
770.57	235.25
770.90	235.13
771.22	235.02
771.55	234.97
771.87	234.92
772.20	234.85
772.52	234.82
772.85	234.87
773.17	234.77
773.50	234.67
773.82	234.59
774.15	234.48
774.47	234.37
774.80	234.31
775.12	234.24
775.45	234.18
775.77	234.13
776.09	234.04
776.42	233.98
776.74	233.94
777.07	233.89
777.39	233.85
777.72	233.81
778.04	233.76
778.36	233.69
778.69	233.63
779.01	233.58
779.33	233.46
779.66	233.30
779.98	233.27
780.31	233.22
780.63	233.20
780.95	233.13
781.28	233.09
781.60	233.05
781.92	232.97
782.25	232.93
782.57	232.85
782.89	232.81
783.22	232.76
783.54	232.71
783.86	232.65
784.19	232.57
784.51	232.51
784.83	232.44
785.16	232.35
785.48	232.29
785.80	232.22
786.12	232.20
786.45	232.14
786.77	232.08
787.09	232.04
787.42	231.96
787.74	231.86
788.06	231.79
788.38	231.74
788.71	231.72
789.03	231.65
789.35	231.63
789.67	231.55
789.99	231.53
790.32	231.44
790.64	231.40
790.96	231.44
791.28	231.40
791.61	231.36
791.93	231.33
792.25	231.27
792.57	231.31
792.89	231.20
793.21	231.21
793.54	231.15
793.86	231.10
794.18	231.04
794.50	230.96
794.82	230.93
795.14	230.90
795.47	230.86
795.79	230.79
796.11	230.72
796.43	230.71
796.75	230.65
797.07	230.59
797.39	230.54
797.71	230.44
798.04	230.39
798.36	230.34
798.68	230.29
799.00	230.28
799.32	230.18
799.64	230.20
799.96	230.09
800.28	230.09
800.60	230.03
800.92	230.03
801.24	230.02
801.56	229.99
801.89	229.93
802.21	229.92
802.53	229.87
802.85	229.83
803.17	229.79
803.49	229.71
803.81	229.69
804.13	229.65
804.45	229.58
804.77	229.54
805.09	229.52
805.41	229.49
805.73	229.44
806.05	229.37
806.37	229.31
806.69	229.27
807.01	229.22
807.33	229.20
807.65	229.14
807.97	229.17
808.28	229.14
808.60	229.12
808.92	229.08
809.24	229.12
809.56	229.10
809.88	229.05
810.20	229.03
810.52	229.04
810.84	228.99
811.16	228.99
811.48	228.98
811.80	228.96
812.12	228.96
812.43	228.91
812.75	228.92
813.07	228.92
813.39	228.92
813.71	228.89
814.03	228.86
814.35	228.85
814.67	228.79
814.98	228.76
815.30	228.73
815.62	228.69
815.94	228.62
816.26	228.67
816.58	228.68
816.89	228.68
817.21	228.64
817.53	228.67
817.85	228.67
818.17	228.65
818.48	228.63
818.80	228.64
819.12	228.65
819.44	228.60
819.76	228.58
820.07	228.59
820.39	228.58
820.71	228.61
821.03	228.63
821.34	228.61
821.66	228.61
821.98	228.63
822.30	228.66
822.61	228.71
822.93	228.68
823.25	228.65
823.57	228.63
823.88	228.62
824.20	228.60
824.52	228.62
824.83	228.65
825.15	228.65
825.47	228.62
825.79	228.61
826.10	228.61
826.42	228.61
826.74	228.58
827.05	228.58
827.37	228.57
827.69	228.55
828.00	228.60
828.32	228.58
828.64	228.57
828.95	228.58
829.27	228.54
829.58	228.51
829.90	228.56
830.22	228.58
830.53	228.57
830.85	228.52
831.17	228.47
831.48	228.40
831.80	228.39
832.11	228.36
832.43	228.36
832.75	228.34
833.06	228.38
833.38	228.35
833.69	228.32
834.01	228.30
834.32	228.26
834.64	228.20
834.96	228.19
835.27	228.19
835.59	228.14
835.90	228.08
836.22	228.07
836.53	228.00
836.85	227.97
837.16	228.03
837.48	228.05
837.79	228.04
838.11	228.09
838.42	228.08
838.74	228.05
839.05	228.02
839.37	227.99
839.68	227.92
840.00	227.93
840.31	227.96
840.63	227.90
840.94	227.88
841.26	227.86
841.57	227.84
841.88	227.81
842.20	227.77
842.51	227.76
842.83	227.74
843.14	227.83
843.46	227.80
843.77	227.73
844.08	227.66
844.40	227.63
844.71	227.58
845.03	227.55
845.34	227.54
845.65	227.52
845.97	227.50
846.28	227.46
846.60	227.42
846.91	227.36
847.22	227.39
847.54	227.44
847.85	227.44
848.16	227.43
848.48	227.42
848.79	227.47
849.10	227.47
849.42	227.45
849.73	227.35
850.04	227.33
850.36	227.30
850.67	227.35
850.98	227.34
851.30	227.35
851.61	227.37
851.92	227.38
852.23	227.41
852.55	227.41
852.86	227.44
853.17	227.45
853.49	227.51
853.80	227.53
854.11	227.50
854.42	227.53
854.74	227.52
855.05	227.51
855.36	227.48
855.67	227.50
855.99	227.51
856.30	227.61
856.61	227.64
856.92	227.63
857.23	227.64
857.55	227.63
857.86	227.61
858.17	227.62
858.48	227.63
858.79	227.64
859.11	227.70
859.42	227.72
859.73	227.73
860.04	227.70
860.35	227.67
860.66	227.64
860.98	227.65
861.29	227.69
861.60	227.70
861.91	227.72
862.22	227.71
862.53	227.71
862.84	227.62
863.16	227.64
863.47	227.63
863.78	227.63
864.09	227.66
864.40	227.70
864.71	227.71
865.02	227.70
865.33	227.64
865.64	227.62
865.95	227.63
866.27	227.70
866.58	227.71
866.89	227.73
867.20	227.76
867.51	227.73
867.82	227.71
868.13	227.74
868.44	227.72
868.75	227.73
869.06	227.72
869.37	227.73
869.68	227.72
869.99	227.71
870.30	227.70
870.61	227.71
870.92	227.67
871.23	227.63
871.54	227.63
871.85	227.68
872.16	227.66
872.47	227.59
872.78	227.50
873.09	227.47
873.40	227.43
873.71	227.43
874.02	227.43
874.33	227.41
874.64	227.36
874.95	227.36
875.26	227.31
875.56	227.29
875.87	227.27
876.18	227.29
876.49	227.41
876.80	227.41
877.11	227.38
877.42	227.38
877.73	227.38
878.04	227.36
878.35	227.33
878.66	227.31
878.96	227.32
879.27	227.29
879.58	227.28
879.89	227.25
880.20	227.24
880.51	227.20
880.82	227.15
881.12	227.14
881.43	227.08
881.74	227.03
882.05	227.02
882.36	226.99
882.67	226.97
882.97	226.85
883.28	226.83
883.59	226.81
883.90	226.82
884.21	226.81
884.51	226.77
884.82	226.76
885.13	226.77
885.44	226.80
885.74	226.85
886.05	226.85
886.36	226.86
886.67	226.80
886.98	226.83
887.28	226.88
887.59	226.90
887.90	226.91
888.20	226.95
888.51	226.97
888.82	226.97
889.13	226.97
889.43	227.03
889.74	227.05
890.05	227.04
890.35	227.05
890.66	227.04
890.97	227.05
891.28	227.05
891.58	227.05
891.89	227.03
892.20	227.02
892.50	227.02
892.81	227.03
893.12	227.06
893.42	227.07
893.73	227.09
894.04	227.08
894.34	227.12
894.65	227.13
894.95	227.15
895.26	227.19
895.57	227.28
895.87	227.20
896.18	227.17
896.48	227.19
896.79	227.18
897.10	227.21
897.40	227.20
897.71	227.25
898.01	227.24
898.32	227.23
898.63	227.23
898.93	227.27
899.24	227.29
899.54	227.29
899.85	227.28
900.15	227.28
900.46	227.29
900.76	227.28
901.07	227.29
901.38	227.30
901.68	227.26
901.99	227.16
902.29	227.16
902.60	227.20
902.90	227.21
903.21	227.19
903.51	227.18
903.82	227.24
904.12	227.22
904.43	227.20
904.73	227.24
905.03	227.27
905.34	227.36
905.64	227.31
905.95	227.30
906.25	227.31
906.56	227.33
906.86	227.33
907.17	227.33
907.47	227.32
907.77	227.29
908.08	227.28
908.38	227.33
908.69	227.36
908.99	227.32
909.30	227.29
909.60	227.32
909.90	227.31
910.21	227.27
910.51	227.27
910.81	227.29
911.12	227.28
911.42	227.23
911.73	227.11
912.03	227.12
912.33	227.14
912.64	227.14
912.94	227.09
913.24	227.08
913.55	227.02
913.85	227.02
914.15	227.05
914.46	227.05
914.76	227.00
915.06	226.98
915.37	226.94
915.67	226.95
915.97	226.93
916.27	226.90
916.58	226.91
916.88	226.88
917.18	226.86
917.49	226.94
917.79	226.96
918.09	226.97
918.39	227.03
918.70	227.02
919.00	226.98
919.30	227.02
919.60	227.03
919.91	227.06
920.21	227.05
920.51	227.05
920.81	227.04
921.12	227.06
921.42	227.05
921.72	227.08
922.02	227.05
922.32	227.12
922.63	227.12
922.93	227.18
923.23	227.18
923.53	227.17
923.83	227.08
924.13	227.06
924.44	227.05
924.74	227.03
925.04	227.05
925.34	227.04
925.64	227.01
925.94	226.99
926.24	227.02
926.55	227.01
926.85	227.00
927.15	226.98
927.45	226.97
927.75	227.00
928.05	227.04
928.35	227.07
928.65	227.03
928.95	227.06
929.26	227.01
929.56	227.05
929.86	227.09
930.16	227.09
930.46	227.11
930.76	227.12
931.06	227.09
931.36	227.10
931.66	227.12
931.96	227.13
932.26	227.13
932.56	227.11
932.86	227.16
933.16	227.15
933.46	227.17
933.76	227.19
934.06	227.20
934.36	227.21
934.66	227.21
934.96	227.22
935.26	227.25
935.56	227.27
935.86	227.22
936.16	227.22
936.46	227.21
936.76	227.19
937.06	227.17
937.36	227.16
937.66	227.18
937.96	227.19
938.26	227.18
938.56	227.17
938.86	227.18
939.16	227.18
939.46	227.18
939.76	227.16
940.06	227.16
940.35	227.14
940.65	227.10
940.95	227.10
941.25	227.06
941.55	227.04
941.85	227.02
942.15	227.05
942.45	227.09
942.75	227.09
943.04	227.10
943.34	227.13
943.64	227.12
943.94	227.05
944.24	227.05
944.54	227.03
944.84	227.03
945.13	227.01
945.43	227.02
945.73	227.01
946.03	227.00
946.33	226.96
946.62	226.97
946.92	226.94
947.22	226.94
947.52	226.95
947.82	226.94
948.11	226.95
948.41	226.91
948.71	226.88
949.01	226.86
949.31	226.87
949.60	226.86
949.90	226.89
950.20	226.91
950.50	226.89
950.79	226.86
951.09	226.89
951.39	226.88
951.69	226.83
951.98	226.86
952.28	226.90
952.58	226.89
952.87	226.88
953.17	226.91
953.47	226.90
953.76	226.86
954.06	226.84
954.36	226.84
954.66	226.86
954.95	226.85
955.25	226.86
955.55	226.83
955.84	226.82
956.14	226.83
956.44	226.84
956.73	226.83
957.03	226.86
957.32	226.85
957.62	226.83
957.92	226.86
958.21	226.86
958.51	226.93
958.81	226.99
959.10	227.02
959.40	227.05
959.69	227.05
959.99	227.10
960.29	227.09
960.58	227.06
960.88	227.08
961.17	227.09
961.47	227.11
961.76	227.13
962.06	227.13
962.36	227.09
962.65	227.08
962.95	227.11
963.24	227.10
963.54	227.09
963.83	227.10
964.13	227.11
964.42	227.09
964.72	227.03
965.01	227.03
965.31	226.99
965.60	226.96
965.90	227.03
966.19	227.01
966.49	227.05
966.78	227.05
967.08	227.04
967.37	227.05
967.67	227.01
967.96	227.01
968.26	227.04
968.55	227.08
968.85	227.09
969.14	227.10
969.43	227.12
969.73	227.12
970.02	227.13
970.32	227.11
970.61	227.11
970.91	227.06
971.20	227.01
971.49	227.03
971.79	227.04
972.08	226.94
972.38	226.94
972.67	226.94
972.96	226.94
973.26	226.93
973.55	226.94
973.85	226.93
974.14	226.91
974.43	226.90
974.73	226.90
975.02	226.88
975.31	226.87
975.61	226.85
975.90	226.83
976.19	226.81
976.49	226.80
976.78	226.80
977.07	226.79
977.37	226.79
977.66	226.81
977.95	226.77
978.24	226.84
978.54	226.86
978.83	226.83
979.12	226.80
979.42	226.78
979.71	226.75
980.00	226.77
980.29	226.79
980.59	226.76
980.88	226.75
981.17	226.77
981.46	226.75
981.76	226.76
982.05	226.82
982.34	226.82
982.63	226.83
982.93	226.83
983.22	226.88
983.51	226.90
983.80	226.90
984.09	226.92
984.39	226.88
984.68	226.89
984.97	226.93
985.26	226.95
985.55	227.00
985.85	227.01
986.14	227.01
986.43	227.04
986.72	227.04
987.01	227.02
987.30	226.98
987.59	226.98
987.89	226.98
988.18	226.95
988.47	226.91
988.76	226.90
989.05	226.92
989.34	226.90
989.63	226.95
989.92	226.88
990.22	226.87
990.51	226.85
990.80	226.83
991.09	226.81
991.38	226.81
991.67	226.79
991.96	226.74
992.25	226.76
992.54	226.73
992.83	226.70
993.12	226.70
993.41	226.74
993.70	226.79
993.99	226.84
994.28	226.83
994.58	226.86
994.87	226.86
995.16	226.85
995.45	226.84
995.74	226.78
996.03	226.81
996.32	226.84
996.61	226.89
996.90	226.86
997.19	226.85
997.48	226.84
997.77	226.82
998.06	226.85
998.34	226.83
998.63	226.86
998.92	226.88
999.21	226.90
999.50	226.91
999.79	226.87
1000.08	226.84
1000.37	226.87
1000.66	226.86
1000.95	226.88
1001.24	226.88
1001.53	226.90
1001.82	226.91
1002.11	226.88
1002.40	226.89
1002.68	226.89
1002.97	226.97
1003.26	226.98
1003.55	227.00
1003.84	227.03
1004.13	227.07
1004.42	227.04
1004.71	227.02
1004.99	227.00
1005.28	227.02
1005.57	227.02
1005.86	227.00
1006.15	226.99
1006.44	226.94
1006.72	226.98
1007.01	226.94
1007.30	226.98
1007.59	226.94
1007.88	226.93
1008.17	226.95
1008.45	226.95
1008.74	226.92
1009.03	226.88
1009.32	226.90
1009.60	226.89
1009.89	226.85
1010.18	226.81
1010.47	226.82
1010.76	226.81
1011.04	226.84
1011.33	226.83
1011.62	226.81
1011.91	226.82
1012.19	226.82
1012.48	226.83
1012.77	226.81
1013.05	226.88
1013.34	226.88
1013.63	226.89
1013.92	226.92
1014.20	226.90
1014.49	226.86
1014.78	226.87
1015.06	226.83
1015.35	226.81
1015.64	226.81
1015.92	226.80
1016.21	226.80
1016.50	226.79
1016.78	226.79
1017.07	226.76
1017.36	226.73
1017.64	226.77
1017.93	226.80
1018.22	226.78
1018.50	226.78
1018.79	226.77
1019.08	226.70
1019.36	226.66
1019.65	226.66
1019.93	226.67
1020.22	226.67
1020.51	226.77
1020.79	226.76
1021.08	226.56
1021.36	226.53
1021.65	226.81
1021.94	226.25
1022.22	226.45
1022.51	226.64
1022.79	227.26
1023.08	226.56
1023.36	228.26
1023.65	226.99
>>>>>End Processed Spectral Data<<<<<
