SpectraSuite Data File
++++++++++++++++++++++++++++++++++++
Date: Fri Feb 01 16:11:37 EST 2013
User: group
Dark Spectrum Present: No
Reference Spectrum Present: No
Number of Sampled Component Spectra: 1
Spectrometers: USB2E7196
Integration Time (usec): 35000 (USB2E7196)
Spectra Averaged: 100 (USB2E7196)
Boxcar Smoothing: 10 (USB2E7196)
Correct for Electrical Dark: No (USB2E7196)
Strobe/Lamp Enabled: No (USB2E7196)
Correct for Detector Non-linearity: No (USB2E7196)
Correct for Stray Light: No (USB2E7196)
Number of Pixels in Processed Spectrum: 2048
>>>>>Begin Processed Spectral Data<<<<<
339.09	0.00
339.48	213.33
339.86	216.20
340.24	217.07
340.63	218.80
341.01	221.57
341.39	221.69
341.78	223.10
342.16	223.90
342.54	224.70
342.93	212.86
343.31	223.63
343.69	224.22
344.07	224.69
344.46	225.14
344.84	225.54
345.22	225.78
345.60	226.02
345.99	226.21
346.37	226.35
346.75	226.49
347.13	226.56
347.52	226.62
347.90	226.70
348.28	226.75
348.66	226.83
349.05	226.82
349.43	226.85
349.81	226.91
350.19	226.99
350.57	227.02
350.96	227.07
351.34	227.14
351.72	227.26
352.10	227.38
352.48	227.46
352.87	227.48
353.25	227.56
353.63	227.64
354.01	227.71
354.39	227.80
354.77	227.86
355.15	227.96
355.54	227.98
355.92	227.99
356.30	228.05
356.68	228.16
357.06	228.23
357.44	228.28
357.82	228.33
358.20	228.42
358.58	228.49
358.97	228.57
359.35	228.63
359.73	228.66
360.11	228.64
360.49	228.68
360.87	228.73
361.25	228.76
361.63	228.81
362.01	228.85
362.39	228.83
362.77	228.84
363.15	228.84
363.53	228.90
363.91	228.93
364.29	228.93
364.67	228.82
365.05	228.86
365.43	228.88
365.81	228.85
366.19	228.84
366.57	228.85
366.95	228.82
367.33	228.81
367.71	228.83
368.09	228.84
368.47	228.79
368.85	228.77
369.23	228.72
369.61	228.64
369.99	228.60
370.37	228.59
370.75	228.61
371.13	228.55
371.51	228.46
371.89	228.39
372.27	228.36
372.65	228.33
373.03	228.22
373.41	228.12
373.78	228.08
374.16	227.97
374.54	227.91
374.92	227.85
375.30	227.76
375.68	227.64
376.06	227.58
376.44	227.53
376.82	227.44
377.19	227.38
377.57	227.31
377.95	227.21
378.33	227.14
378.71	227.00
379.09	226.94
379.47	226.88
379.84	226.82
380.22	226.72
380.60	226.67
380.98	226.66
381.36	226.64
381.73	226.56
382.11	226.54
382.49	226.46
382.87	226.40
383.25	226.37
383.62	226.45
384.00	226.37
384.38	226.30
384.76	226.30
385.13	226.31
385.51	226.27
385.89	226.25
386.27	226.19
386.64	226.19
387.02	226.17
387.40	226.16
387.78	226.15
388.15	226.16
388.53	226.12
388.91	226.08
389.29	226.04
389.66	226.04
390.04	226.02
390.42	226.06
390.79	226.06
391.17	226.00
391.55	225.89
391.92	225.93
392.30	225.92
392.68	225.89
393.05	225.87
393.43	225.90
393.81	225.93
394.18	225.92
394.56	225.91
394.94	225.93
395.31	225.93
395.69	225.99
396.06	226.02
396.44	226.05
396.82	226.07
397.19	226.18
397.57	226.21
397.95	226.26
398.32	226.31
398.70	226.35
399.07	226.45
399.45	226.50
399.82	226.55
400.20	226.64
400.58	226.73
400.95	226.79
401.33	226.87
401.70	227.02
402.08	227.10
402.45	227.22
402.83	227.34
403.20	227.43
403.58	227.50
403.95	227.66
404.33	227.79
404.71	227.90
405.08	228.07
405.46	228.21
405.83	228.34
406.21	228.44
406.58	228.61
406.96	228.75
407.33	228.97
407.70	229.18
408.08	229.45
408.45	229.63
408.83	229.86
409.20	230.08
409.58	230.21
409.95	230.53
410.33	230.80
410.70	231.04
411.08	231.38
411.45	231.65
411.82	231.90
412.20	232.27
412.57	232.69
412.95	232.98
413.32	233.39
413.69	233.80
414.07	234.26
414.44	234.72
414.82	235.19
415.19	235.70
415.56	236.22
415.94	236.77
416.31	237.44
416.68	238.06
417.06	238.76
417.43	239.44
417.81	240.20
418.18	240.95
418.55	241.82
418.93	242.68
419.30	243.60
419.67	244.55
420.04	245.48
420.42	246.43
420.79	247.64
421.16	248.78
421.54	250.02
421.91	251.17
422.28	252.45
422.66	253.79
423.03	255.11
423.40	256.45
423.77	257.85
424.15	259.25
424.52	260.73
424.89	262.35
425.26	263.92
425.64	265.37
426.01	266.96
426.38	268.56
426.75	270.22
427.13	271.97
427.50	273.77
427.87	275.65
428.24	277.54
428.61	279.24
428.99	281.16
429.36	283.21
429.73	285.31
430.10	287.29
430.47	289.38
430.85	291.47
431.22	293.66
431.59	296.00
431.96	298.25
432.33	300.74
432.70	303.08
433.08	305.88
433.45	308.51
433.82	311.16
434.19	314.07
434.56	316.88
434.93	319.54
435.30	322.16
435.68	325.04
436.05	327.91
436.42	330.73
436.79	333.29
437.16	336.02
437.53	338.84
437.90	341.64
438.27	344.33
438.64	347.16
439.01	349.77
439.38	352.03
439.75	354.14
440.13	356.60
440.50	358.91
440.87	360.76
441.24	362.69
441.61	364.76
441.98	366.25
442.35	368.07
442.72	369.93
443.09	371.72
443.46	372.74
443.83	373.30
444.20	373.76
444.57	374.57
444.94	374.87
445.31	375.24
445.68	375.64
446.05	375.74
446.42	375.35
446.79	374.99
447.16	374.53
447.53	374.28
447.90	373.16
448.27	372.03
448.64	370.46
449.01	369.31
449.37	367.39
449.74	365.46
450.11	363.25
450.48	360.78
450.85	358.27
451.22	356.09
451.59	354.06
451.96	352.15
452.33	349.55
452.70	347.16
453.07	344.30
453.43	341.37
453.80	338.63
454.17	336.00
454.54	333.42
454.91	330.71
455.28	328.03
455.65	325.56
456.02	323.11
456.38	320.93
456.75	318.28
457.12	316.06
457.49	313.86
457.86	311.65
458.23	309.79
458.59	307.72
458.96	305.68
459.33	303.83
459.70	301.97
460.07	300.49
460.43	298.79
460.80	297.16
461.17	295.75
461.54	294.28
461.91	292.82
462.27	291.38
462.64	290.11
463.01	288.80
463.38	287.51
463.74	286.16
464.11	284.99
464.48	284.00
464.85	282.88
465.21	282.01
465.58	281.08
465.95	280.01
466.32	279.09
466.68	278.14
467.05	277.25
467.42	276.36
467.78	275.38
468.15	274.48
468.52	273.85
468.88	272.97
469.25	272.16
469.62	271.57
469.98	270.83
470.35	270.24
470.72	269.59
471.08	268.95
471.45	268.39
471.82	267.89
472.18	267.29
472.55	266.84
472.92	266.29
473.28	265.83
473.65	265.33
474.02	264.94
474.38	264.61
474.75	264.29
475.11	263.92
475.48	263.68
475.85	263.45
476.21	263.19
476.58	262.99
476.94	262.86
477.31	262.67
477.67	262.60
478.04	262.48
478.41	262.47
478.77	262.49
479.14	262.47
479.50	262.45
479.87	262.52
480.23	262.59
480.60	262.69
480.96	262.81
481.33	263.04
481.69	263.21
482.06	263.40
482.42	263.61
482.79	263.93
483.15	264.27
483.52	264.67
483.88	265.03
484.25	265.42
484.61	265.84
484.98	266.29
485.34	266.85
485.71	267.47
486.07	268.06
486.44	268.62
486.80	269.32
487.17	270.04
487.53	270.83
487.90	271.70
488.26	272.63
488.62	273.61
488.99	274.59
489.35	275.63
489.72	276.74
490.08	277.95
490.44	279.18
490.81	280.49
491.17	281.82
491.54	283.32
491.90	284.92
492.26	286.60
492.63	288.37
492.99	290.12
493.36	292.06
493.72	294.07
494.08	296.21
494.45	298.44
494.81	300.84
495.17	303.30
495.54	305.88
495.90	308.57
496.26	311.39
496.63	314.38
496.99	317.51
497.35	320.80
497.72	324.22
498.08	327.74
498.44	331.44
498.80	335.36
499.17	339.39
499.53	343.55
499.89	347.93
500.26	352.40
500.62	357.08
500.98	362.03
501.34	367.12
501.71	372.42
502.07	377.89
502.43	383.50
502.79	389.29
503.16	395.34
503.52	401.67
503.88	408.03
504.24	414.70
504.60	421.60
504.97	428.72
505.33	435.94
505.69	443.63
506.05	451.40
506.41	459.31
506.78	467.44
507.14	475.92
507.50	484.54
507.86	493.57
508.22	502.79
508.59	511.97
508.95	521.57
509.31	531.37
509.67	541.42
510.03	551.69
510.39	562.31
510.75	573.14
511.12	584.02
511.48	595.29
511.84	606.72
512.20	618.19
512.56	630.15
512.92	642.41
513.28	654.72
513.64	667.20
514.00	679.90
514.37	692.91
514.73	705.92
515.09	718.96
515.45	732.35
515.81	745.90
516.17	759.84
516.53	773.92
516.89	788.12
517.25	802.34
517.61	816.76
517.97	831.09
518.33	845.37
518.69	860.15
519.05	875.14
519.41	890.29
519.77	905.87
520.13	921.27
520.49	936.65
520.85	952.13
521.21	967.75
521.57	984.01
521.93	999.68
522.29	1015.98
522.65	1032.26
523.01	1048.35
523.37	1064.36
523.73	1080.52
524.09	1096.61
524.45	1112.91
524.81	1129.55
525.17	1146.31
525.53	1163.19
525.89	1180.14
526.25	1196.91
526.61	1213.23
526.97	1229.94
527.33	1246.36
527.68	1262.93
528.04	1279.30
528.40	1295.75
528.76	1312.84
529.12	1329.31
529.48	1346.29
529.84	1362.25
530.20	1378.79
530.56	1395.73
530.91	1413.10
531.27	1429.76
531.63	1446.17
531.99	1462.72
532.35	1478.58
532.71	1494.49
533.07	1510.84
533.42	1526.76
533.78	1542.87
534.14	1559.19
534.50	1574.36
534.86	1590.20
535.21	1605.24
535.57	1621.07
535.93	1636.46
536.29	1651.22
536.65	1666.22
537.00	1680.85
537.36	1696.11
537.72	1710.53
538.08	1724.83
538.44	1738.60
538.79	1752.54
539.15	1766.11
539.51	1779.62
539.87	1793.89
540.22	1807.47
540.58	1820.93
540.94	1834.00
541.29	1846.65
541.65	1859.33
542.01	1872.61
542.37	1884.84
542.72	1897.42
543.08	1909.26
543.44	1921.60
543.79	1932.78
544.15	1943.78
544.51	1955.28
544.87	1966.24
545.22	1977.09
545.58	1987.30
545.94	1997.02
546.29	2006.67
546.65	2016.52
547.01	2025.87
547.36	2034.58
547.72	2043.13
548.07	2051.18
548.43	2059.47
548.79	2067.40
549.14	2074.91
549.50	2082.18
549.86	2089.82
550.21	2096.99
550.57	2104.02
550.92	2110.60
551.28	2117.65
551.64	2124.75
551.99	2131.26
552.35	2137.35
552.70	2143.45
553.06	2149.55
553.41	2155.86
553.77	2161.89
554.13	2167.95
554.48	2173.92
554.84	2179.48
555.19	2184.65
555.55	2189.70
555.90	2194.06
556.26	2199.13
556.61	2203.62
556.97	2208.02
557.32	2212.06
557.68	2216.11
558.03	2220.45
558.39	2224.21
558.74	2228.68
559.10	2232.37
559.45	2236.03
559.81	2240.34
560.16	2244.18
560.52	2247.43
560.87	2250.79
561.23	2253.54
561.58	2256.45
561.94	2259.07
562.29	2261.21
562.64	2263.90
563.00	2266.37
563.35	2269.84
563.71	2272.93
564.06	2276.28
564.42	2279.13
564.77	2281.65
565.12	2284.11
565.48	2286.03
565.83	2287.98
566.19	2289.44
566.54	2290.25
566.89	2291.47
567.25	2292.08
567.60	2293.33
567.96	2295.08
568.31	2295.94
568.66	2297.15
569.02	2297.73
569.37	2298.11
569.72	2299.20
570.08	2299.34
570.43	2299.63
570.78	2299.23
571.14	2297.68
571.49	2296.35
571.84	2295.95
572.20	2294.93
572.55	2293.77
572.90	2292.26
573.26	2290.86
573.61	2289.15
573.96	2287.74
574.31	2284.81
574.67	2281.94
575.02	2278.43
575.37	2274.94
575.72	2271.33
576.08	2267.82
576.43	2264.61
576.78	2260.95
577.13	2257.68
577.49	2254.59
577.84	2251.19
578.19	2247.28
578.54	2243.71
578.90	2239.57
579.25	2234.03
579.60	2229.10
579.95	2224.27
580.30	2219.23
580.66	2213.97
581.01	2208.95
581.36	2203.97
581.71	2199.82
582.06	2195.38
582.42	2190.92
582.77	2185.64
583.12	2181.05
583.47	2176.51
583.82	2171.47
584.17	2166.30
584.53	2160.89
584.88	2155.29
585.23	2149.45
585.58	2144.07
585.93	2138.67
586.28	2133.76
586.63	2128.81
586.98	2123.84
587.34	2119.07
587.69	2114.16
588.04	2109.13
588.39	2103.57
588.74	2096.96
589.09	2090.66
589.44	2083.86
589.79	2077.82
590.14	2072.19
590.49	2065.65
590.84	2059.20
591.19	2053.18
591.54	2046.71
591.89	2039.39
592.25	2032.71
592.60	2025.54
592.95	2018.02
593.30	2010.61
593.65	2003.11
594.00	1996.08
594.35	1988.67
594.70	1980.53
595.05	1973.46
595.40	1966.05
595.75	1958.57
596.10	1952.64
596.45	1945.91
596.80	1939.85
597.15	1933.24
597.50	1926.36
597.85	1919.76
598.19	1913.06
598.54	1906.11
598.89	1899.48
599.24	1893.61
599.59	1887.05
599.94	1880.75
600.29	1874.48
600.64	1867.88
600.99	1860.49
601.34	1853.68
601.69	1846.92
602.04	1840.21
602.39	1832.78
602.74	1826.04
603.08	1819.29
603.43	1812.49
603.78	1805.30
604.13	1797.99
604.48	1790.85
604.83	1783.93
605.18	1777.22
605.53	1769.30
605.87	1761.17
606.22	1753.94
606.57	1745.77
606.92	1738.34
607.27	1731.31
607.62	1724.34
607.96	1717.15
608.31	1710.51
608.66	1703.00
609.01	1695.50
609.36	1687.97
609.70	1680.05
610.05	1672.01
610.40	1664.40
610.75	1656.08
611.10	1648.49
611.44	1640.08
611.79	1631.99
612.14	1623.32
612.49	1614.04
612.83	1605.68
613.18	1597.65
613.53	1589.57
613.88	1581.08
614.22	1572.84
614.57	1564.06
614.92	1556.10
615.27	1548.68
615.61	1540.43
615.96	1532.33
616.31	1524.55
616.65	1517.20
617.00	1509.54
617.35	1501.75
617.70	1493.52
618.04	1484.99
618.39	1476.64
618.74	1469.06
619.08	1460.77
619.43	1453.18
619.78	1446.32
620.12	1439.23
620.47	1431.66
620.82	1423.44
621.16	1416.08
621.51	1408.46
621.85	1400.92
622.20	1392.37
622.55	1383.86
622.89	1375.90
623.24	1368.29
623.59	1360.76
623.93	1353.15
624.28	1346.01
624.62	1338.58
624.97	1331.25
625.32	1324.46
625.66	1317.41
626.01	1310.36
626.35	1303.00
626.70	1295.26
627.04	1287.57
627.39	1279.66
627.73	1272.23
628.08	1265.38
628.43	1258.14
628.77	1250.73
629.12	1243.14
629.46	1236.03
629.81	1228.60
630.15	1221.42
630.50	1214.02
630.84	1205.95
631.19	1198.02
631.53	1190.44
631.88	1182.90
632.22	1175.37
632.57	1168.06
632.91	1160.62
633.26	1153.16
633.60	1145.74
633.95	1138.61
634.29	1131.42
634.64	1124.83
634.98	1117.66
635.32	1110.50
635.67	1103.85
636.01	1097.22
636.36	1090.48
636.70	1083.85
637.05	1077.32
637.39	1070.94
637.73	1064.46
638.08	1058.55
638.42	1052.54
638.77	1046.12
639.11	1039.51
639.45	1033.10
639.80	1026.44
640.14	1020.06
640.49	1013.53
640.83	1007.28
641.17	1001.09
641.52	994.76
641.86	988.24
642.20	982.31
642.55	975.96
642.89	969.56
643.23	962.98
643.58	957.14
643.92	951.05
644.26	944.98
644.61	938.85
644.95	932.85
645.29	926.35
645.64	919.62
645.98	913.31
646.32	907.48
646.66	901.42
647.01	895.59
647.35	889.80
647.69	883.88
648.04	878.12
648.38	872.28
648.72	866.37
649.06	860.36
649.41	854.38
649.75	848.44
650.09	842.42
650.43	836.66
650.78	830.54
651.12	824.46
651.46	818.75
651.80	813.06
652.14	807.60
652.49	802.17
652.83	796.95
653.17	791.29
653.51	785.60
653.85	780.14
654.20	774.49
654.54	768.49
654.88	762.71
655.22	756.87
655.56	751.19
655.90	745.71
656.25	740.43
656.59	735.09
656.93	730.01
657.27	724.88
657.61	719.44
657.95	714.31
658.29	709.25
658.64	703.99
658.98	698.58
659.32	693.09
659.66	687.89
660.00	682.67
660.34	677.69
660.68	672.75
661.02	667.79
661.36	663.11
661.70	658.64
662.05	654.28
662.39	650.02
662.73	645.51
663.07	641.10
663.41	636.66
663.75	632.18
664.09	627.61
664.43	623.22
664.77	619.10
665.11	614.90
665.45	610.77
665.79	606.67
666.13	602.62
666.47	598.56
666.81	594.45
667.15	590.31
667.49	586.40
667.83	582.55
668.17	578.56
668.51	574.54
668.85	570.47
669.19	566.63
669.53	562.80
669.87	558.98
670.21	555.31
670.55	551.64
670.89	548.13
671.23	544.69
671.57	541.17
671.91	537.65
672.25	534.15
672.58	530.63
672.92	527.22
673.26	524.05
673.60	520.87
673.94	517.71
674.28	514.71
674.62	511.72
674.96	508.61
675.30	505.73
675.64	502.84
675.97	500.08
676.31	497.27
676.65	494.36
676.99	491.64
677.33	488.73
677.67	485.94
678.01	482.97
678.34	479.97
678.68	477.14
679.02	474.33
679.36	471.52
679.70	468.85
680.04	466.11
680.37	463.25
680.71	460.44
681.05	457.86
681.39	455.19
681.73	452.56
682.06	450.13
682.40	447.57
682.74	444.92
683.08	442.36
683.42	439.71
683.75	437.22
684.09	434.61
684.43	432.20
684.77	429.71
685.10	427.37
685.44	425.07
685.78	422.75
686.12	420.46
686.45	418.19
686.79	415.89
687.13	413.68
687.46	411.47
687.80	409.32
688.14	407.11
688.48	405.05
688.81	402.82
689.15	400.59
689.49	398.46
689.82	396.43
690.16	394.35
690.50	392.35
690.83	390.39
691.17	388.46
691.51	386.54
691.84	384.72
692.18	382.78
692.52	380.82
692.85	378.87
693.19	377.01
693.52	375.15
693.86	373.32
694.20	371.53
694.53	369.74
694.87	367.91
695.21	366.06
695.54	364.26
695.88	362.53
696.21	360.84
696.55	359.16
696.88	357.44
697.22	355.76
697.56	354.17
697.89	352.51
698.23	350.94
698.56	349.27
698.90	347.66
699.23	346.00
699.57	344.43
699.90	342.88
700.24	341.32
700.58	339.84
700.91	338.36
701.25	336.91
701.58	335.57
701.92	334.17
702.25	332.83
702.59	331.48
702.92	330.18
703.26	328.86
703.59	327.63
703.93	326.47
704.26	325.25
704.60	323.98
704.93	322.71
705.26	321.43
705.60	320.27
705.93	319.13
706.27	318.11
706.60	317.10
706.94	316.02
707.27	314.93
707.61	313.84
707.94	312.80
708.27	311.70
708.61	310.59
708.94	309.62
709.28	308.63
709.61	307.68
709.94	306.71
710.28	305.71
710.61	304.64
710.95	303.56
711.28	302.65
711.61	301.69
711.95	300.80
712.28	299.88
712.61	298.92
712.95	298.01
713.28	297.12
713.61	296.19
713.95	295.29
714.28	294.45
714.61	293.61
714.95	292.76
715.28	291.91
715.61	291.01
715.95	290.13
716.28	289.25
716.61	288.39
716.95	287.54
717.28	286.75
717.61	286.00
717.94	285.25
718.28	284.42
718.61	283.67
718.94	282.93
719.27	282.26
719.61	281.56
719.94	280.88
720.27	280.17
720.60	279.50
720.94	278.90
721.27	278.28
721.60	277.69
721.93	277.08
722.27	276.52
722.60	276.03
722.93	275.47
723.26	274.91
723.59	274.33
723.93	273.81
724.26	273.26
724.59	272.68
724.92	272.13
725.25	271.63
725.59	271.13
725.92	270.63
726.25	270.09
726.58	269.63
726.91	269.14
727.24	268.65
727.57	268.16
727.91	267.64
728.24	267.19
728.57	266.71
728.90	266.27
729.23	265.81
729.56	265.37
729.89	264.91
730.22	264.47
730.55	264.00
730.89	263.53
731.22	263.10
731.55	262.72
731.88	262.28
732.21	261.89
732.54	261.47
732.87	261.06
733.20	260.68
733.53	260.27
733.86	259.88
734.19	259.49
734.52	259.16
734.85	258.84
735.18	258.43
735.51	258.06
735.84	257.66
736.17	257.29
736.50	256.90
736.83	256.63
737.16	256.30
737.49	256.01
737.82	255.70
738.15	255.39
738.48	255.06
738.81	254.78
739.14	254.46
739.47	254.16
739.80	253.82
740.13	253.54
740.46	253.25
740.79	252.93
741.12	252.65
741.45	252.32
741.78	252.00
742.11	251.70
742.44	251.37
742.77	251.13
743.10	250.85
743.43	250.55
743.75	250.20
744.08	250.00
744.41	249.69
744.74	249.40
745.07	249.12
745.40	248.84
745.73	248.60
746.06	248.30
746.39	248.02
746.71	247.79
747.04	247.49
747.37	247.21
747.70	246.94
748.03	246.63
748.36	246.38
748.68	246.12
749.01	245.85
749.34	245.64
749.67	245.39
750.00	245.16
750.33	244.99
750.65	244.77
750.98	244.46
751.31	244.23
751.64	244.02
751.97	243.88
752.29	243.67
752.62	243.40
752.95	243.18
753.28	242.98
753.60	242.73
753.93	242.58
754.26	242.41
754.59	242.20
754.91	242.02
755.24	241.82
755.57	241.67
755.90	241.52
756.22	241.32
756.55	241.10
756.88	240.89
757.20	240.64
757.53	240.41
757.86	240.24
758.19	240.09
758.51	239.90
758.84	239.66
759.17	239.51
759.49	239.34
759.82	239.23
760.15	239.05
760.47	238.93
760.80	238.74
761.13	238.60
761.45	238.43
761.78	238.29
762.11	238.13
762.43	237.94
762.76	237.77
763.08	237.63
763.41	237.50
763.74	237.38
764.06	237.23
764.39	237.09
764.71	236.94
765.04	236.81
765.37	236.69
765.69	236.56
766.02	236.41
766.34	236.28
766.67	236.14
767.00	236.03
767.32	235.98
767.65	235.93
767.97	235.82
768.30	235.73
768.62	235.62
768.95	235.50
769.27	235.43
769.60	235.33
769.92	235.20
770.25	235.06
770.57	234.91
770.90	234.81
771.22	234.73
771.55	234.63
771.87	234.53
772.20	234.43
772.52	234.41
772.85	234.41
773.17	234.32
773.50	234.23
773.82	234.12
774.15	233.96
774.47	233.80
774.80	233.70
775.12	233.61
775.45	233.54
775.77	233.49
776.09	233.42
776.42	233.36
776.74	233.33
777.07	233.28
777.39	233.23
777.72	233.16
778.04	233.13
778.36	233.05
778.69	232.99
779.01	232.94
779.33	232.79
779.66	232.61
779.98	232.54
780.31	232.44
780.63	232.44
780.95	232.39
781.28	232.33
781.60	232.24
781.92	232.16
782.25	232.09
782.57	232.03
782.89	231.94
783.22	231.87
783.54	231.75
783.86	231.73
784.19	231.70
784.51	231.70
784.83	231.62
785.16	231.56
785.48	231.50
785.80	231.46
786.12	231.43
786.45	231.41
786.77	231.40
787.09	231.38
787.42	231.28
787.74	231.24
788.06	231.18
788.38	231.12
788.71	231.09
789.03	231.06
789.35	231.01
789.67	230.97
789.99	230.90
790.32	230.87
790.64	230.83
790.96	230.80
791.28	230.72
791.61	230.66
791.93	230.66
792.25	230.60
792.57	230.62
792.89	230.57
793.21	230.54
793.54	230.46
793.86	230.39
794.18	230.36
794.50	230.32
794.82	230.30
795.14	230.29
795.47	230.31
795.79	230.29
796.11	230.23
796.43	230.20
796.75	230.18
797.07	230.15
797.39	230.13
797.71	230.05
798.04	230.01
798.36	229.97
798.68	229.93
799.00	229.93
799.32	229.85
799.64	229.83
799.96	229.77
800.28	229.73
800.60	229.73
800.92	229.71
801.24	229.68
801.56	229.63
801.89	229.58
802.21	229.54
802.53	229.44
802.85	229.45
803.17	229.44
803.49	229.38
803.81	229.33
804.13	229.28
804.45	229.23
804.77	229.19
805.09	229.18
805.41	229.12
805.73	229.06
806.05	229.00
806.37	228.98
806.69	228.95
807.01	228.93
807.33	228.90
807.65	228.86
807.97	228.87
808.28	228.84
808.60	228.84
808.92	228.76
809.24	228.82
809.56	228.75
809.88	228.72
810.20	228.69
810.52	228.69
810.84	228.64
811.16	228.60
811.48	228.57
811.80	228.57
812.12	228.55
812.43	228.51
812.75	228.48
813.07	228.43
813.39	228.40
813.71	228.37
814.03	228.34
814.35	228.31
814.67	228.23
814.98	228.18
815.30	228.16
815.62	228.14
815.94	228.06
816.26	228.09
816.58	227.99
816.89	227.99
817.21	227.97
817.53	227.97
817.85	227.99
818.17	227.98
818.48	227.92
818.80	227.91
819.12	227.91
819.44	227.90
819.76	227.90
820.07	227.90
820.39	227.90
820.71	227.91
821.03	227.90
821.34	227.88
821.66	227.91
821.98	227.90
822.30	227.89
822.61	227.93
822.93	227.89
823.25	227.95
823.57	227.95
823.88	227.98
824.20	227.94
824.52	227.91
824.83	227.91
825.15	227.96
825.47	227.97
825.79	227.97
826.10	227.94
826.42	227.91
826.74	227.92
827.05	227.92
827.37	227.88
827.69	227.86
828.00	227.85
828.32	227.85
828.64	227.84
828.95	227.88
829.27	227.87
829.58	227.85
829.90	227.83
830.22	227.83
830.53	227.80
830.85	227.80
831.17	227.79
831.48	227.77
831.80	227.74
832.11	227.71
832.43	227.70
832.75	227.71
833.06	227.75
833.38	227.69
833.69	227.69
834.01	227.69
834.32	227.67
834.64	227.66
834.96	227.64
835.27	227.62
835.59	227.57
835.90	227.51
836.22	227.52
836.53	227.51
836.85	227.46
837.16	227.55
837.48	227.57
837.79	227.59
838.11	227.58
838.42	227.58
838.74	227.61
839.05	227.58
839.37	227.56
839.68	227.52
840.00	227.48
840.31	227.44
840.63	227.45
840.94	227.44
841.26	227.41
841.57	227.40
841.88	227.39
842.20	227.39
842.51	227.38
842.83	227.34
843.14	227.39
843.46	227.39
843.77	227.28
844.08	227.26
844.40	227.21
844.71	227.18
845.03	227.16
845.34	227.09
845.65	227.05
845.97	227.07
846.28	227.02
846.60	227.06
846.91	227.06
847.22	227.01
847.54	227.04
847.85	227.03
848.16	227.00
848.48	226.97
848.79	226.99
849.10	227.00
849.42	227.00
849.73	226.91
850.04	226.89
850.36	226.86
850.67	226.87
850.98	226.87
851.30	226.86
851.61	226.84
851.92	226.84
852.23	226.89
852.55	226.85
852.86	226.87
853.17	226.84
853.49	226.86
853.80	226.90
854.11	226.88
854.42	226.90
854.74	226.88
855.05	226.91
855.36	226.86
855.67	226.86
855.99	226.86
856.30	227.01
856.61	227.01
856.92	227.03
857.23	227.02
857.55	227.00
857.86	227.01
858.17	227.04
858.48	227.07
858.79	227.09
859.11	227.10
859.42	227.10
859.73	227.13
860.04	227.09
860.35	227.04
860.66	227.05
860.98	227.02
861.29	227.04
861.60	227.03
861.91	227.07
862.22	227.03
862.53	227.04
862.84	226.88
863.16	226.91
863.47	226.88
863.78	226.88
864.09	226.91
864.40	226.95
864.71	226.93
865.02	226.90
865.33	226.84
865.64	226.84
865.95	226.86
866.27	226.92
866.58	226.95
866.89	226.96
867.20	226.94
867.51	226.96
867.82	226.96
868.13	226.99
868.44	226.97
868.75	227.03
869.06	227.06
869.37	227.10
869.68	227.07
869.99	227.09
870.30	227.10
870.61	227.10
870.92	227.07
871.23	227.09
871.54	227.12
871.85	227.18
872.16	227.17
872.47	227.16
872.78	227.10
873.09	227.10
873.40	227.09
873.71	227.10
874.02	227.06
874.33	227.07
874.64	227.04
874.95	227.04
875.26	226.99
875.56	226.95
875.87	226.97
876.18	226.97
876.49	227.10
876.80	227.08
877.11	227.07
877.42	227.05
877.73	227.08
878.04	227.07
878.35	227.09
878.66	227.10
878.96	227.09
879.27	227.09
879.58	227.08
879.89	227.07
880.20	227.11
880.51	227.15
880.82	227.14
881.12	227.12
881.43	227.12
881.74	227.12
882.05	227.12
882.36	227.08
882.67	227.06
882.97	226.89
883.28	226.89
883.59	226.88
883.90	226.89
884.21	226.84
884.51	226.82
884.82	226.77
885.13	226.76
885.44	226.72
885.74	226.68
886.05	226.64
886.36	226.64
886.67	226.57
886.98	226.62
887.28	226.64
887.59	226.65
887.90	226.61
888.20	226.60
888.51	226.61
888.82	226.59
889.13	226.58
889.43	226.69
889.74	226.68
890.05	226.68
890.35	226.68
890.66	226.68
890.97	226.67
891.28	226.61
891.58	226.61
891.89	226.62
892.20	226.64
892.50	226.64
892.81	226.60
893.12	226.65
893.42	226.60
893.73	226.59
894.04	226.57
894.34	226.59
894.65	226.60
894.95	226.58
895.26	226.59
895.57	226.66
895.87	226.55
896.18	226.54
896.48	226.50
896.79	226.46
897.10	226.48
897.40	226.48
897.71	226.54
898.01	226.54
898.32	226.58
898.63	226.58
898.93	226.61
899.24	226.64
899.54	226.58
899.85	226.58
900.15	226.58
900.46	226.59
900.76	226.59
901.07	226.56
901.38	226.55
901.68	226.57
901.99	226.54
902.29	226.57
902.60	226.56
902.90	226.60
903.21	226.61
903.51	226.61
903.82	226.61
904.12	226.61
904.43	226.60
904.73	226.55
905.03	226.53
905.34	226.62
905.64	226.61
905.95	226.66
906.25	226.62
906.56	226.63
906.86	226.62
907.17	226.60
907.47	226.64
907.77	226.63
908.08	226.59
908.38	226.60
908.69	226.59
908.99	226.63
909.30	226.63
909.60	226.65
909.90	226.67
910.21	226.66
910.51	226.61
910.81	226.64
911.12	226.67
911.42	226.66
911.73	226.55
912.03	226.56
912.33	226.54
912.64	226.55
912.94	226.52
913.24	226.49
913.55	226.50
913.85	226.48
914.15	226.55
914.46	226.58
914.76	226.58
915.06	226.56
915.37	226.54
915.67	226.54
915.97	226.52
916.27	226.46
916.58	226.46
916.88	226.47
917.18	226.49
917.49	226.52
917.79	226.52
918.09	226.52
918.39	226.53
918.70	226.53
919.00	226.57
919.30	226.60
919.60	226.61
919.91	226.60
920.21	226.60
920.51	226.55
920.81	226.53
921.12	226.53
921.42	226.55
921.72	226.53
922.02	226.54
922.32	226.56
922.63	226.57
922.93	226.62
923.23	226.65
923.53	226.62
923.83	226.60
924.13	226.62
924.44	226.63
924.74	226.60
925.04	226.63
925.34	226.59
925.64	226.56
925.94	226.55
926.24	226.56
926.55	226.55
926.85	226.55
927.15	226.55
927.45	226.54
927.75	226.53
928.05	226.56
928.35	226.52
928.65	226.49
928.95	226.50
929.26	226.46
929.56	226.45
929.86	226.47
930.16	226.48
930.46	226.47
930.76	226.45
931.06	226.44
931.36	226.41
931.66	226.42
931.96	226.45
932.26	226.47
932.56	226.44
932.86	226.44
933.16	226.47
933.46	226.44
933.76	226.39
934.06	226.43
934.36	226.43
934.66	226.44
934.96	226.45
935.26	226.41
935.56	226.42
935.86	226.37
936.16	226.37
936.46	226.33
936.76	226.32
937.06	226.33
937.36	226.38
937.66	226.37
937.96	226.37
938.26	226.38
938.56	226.34
938.86	226.39
939.16	226.44
939.46	226.41
939.76	226.41
940.06	226.42
940.35	226.39
940.65	226.36
940.95	226.34
941.25	226.34
941.55	226.37
941.85	226.35
942.15	226.41
942.45	226.39
942.75	226.41
943.04	226.45
943.34	226.46
943.64	226.44
943.94	226.43
944.24	226.45
944.54	226.41
944.84	226.44
945.13	226.39
945.43	226.34
945.73	226.33
946.03	226.34
946.33	226.36
946.62	226.35
946.92	226.34
947.22	226.39
947.52	226.43
947.82	226.44
948.11	226.48
948.41	226.42
948.71	226.41
949.01	226.38
949.31	226.36
949.60	226.35
949.90	226.36
950.20	226.38
950.50	226.37
950.79	226.37
951.09	226.38
951.39	226.40
951.69	226.39
951.98	226.43
952.28	226.44
952.58	226.42
952.87	226.42
953.17	226.48
953.47	226.42
953.76	226.41
954.06	226.41
954.36	226.36
954.66	226.40
954.95	226.44
955.25	226.48
955.55	226.47
955.84	226.44
956.14	226.47
956.44	226.46
956.73	226.45
957.03	226.47
957.32	226.49
957.62	226.47
957.92	226.52
958.21	226.53
958.51	226.64
958.81	226.63
959.10	226.66
959.40	226.67
959.69	226.68
959.99	226.66
960.29	226.66
960.58	226.66
960.88	226.68
961.17	226.66
961.47	226.69
961.76	226.67
962.06	226.70
962.36	226.66
962.65	226.67
962.95	226.66
963.24	226.65
963.54	226.61
963.83	226.63
964.13	226.61
964.42	226.58
964.72	226.51
965.01	226.51
965.31	226.50
965.60	226.47
965.90	226.52
966.19	226.51
966.49	226.53
966.78	226.52
967.08	226.52
967.37	226.51
967.67	226.46
967.96	226.47
968.26	226.45
968.55	226.48
968.85	226.47
969.14	226.47
969.43	226.46
969.73	226.42
970.02	226.40
970.32	226.37
970.61	226.35
970.91	226.29
971.20	226.29
971.49	226.26
971.79	226.25
972.08	226.19
972.38	226.20
972.67	226.17
972.96	226.17
973.26	226.16
973.55	226.19
973.85	226.17
974.14	226.16
974.43	226.17
974.73	226.11
975.02	226.12
975.31	226.13
975.61	226.11
975.90	226.14
976.19	226.12
976.49	226.14
976.78	226.15
977.07	226.16
977.37	226.14
977.66	226.13
977.95	226.13
978.24	226.15
978.54	226.21
978.83	226.18
979.12	226.18
979.42	226.17
979.71	226.13
980.00	226.14
980.29	226.13
980.59	226.13
980.88	226.18
981.17	226.14
981.46	226.16
981.76	226.19
982.05	226.23
982.34	226.25
982.63	226.24
982.93	226.26
983.22	226.29
983.51	226.31
983.80	226.33
984.09	226.33
984.39	226.32
984.68	226.25
984.97	226.26
985.26	226.27
985.55	226.26
985.85	226.27
986.14	226.30
986.43	226.32
986.72	226.30
987.01	226.25
987.30	226.27
987.59	226.27
987.89	226.27
988.18	226.23
988.47	226.21
988.76	226.22
989.05	226.21
989.34	226.18
989.63	226.24
989.92	226.27
990.22	226.23
990.51	226.23
990.80	226.23
991.09	226.24
991.38	226.25
991.67	226.22
991.96	226.23
992.25	226.24
992.54	226.21
992.83	226.26
993.12	226.27
993.41	226.30
993.70	226.32
993.99	226.33
994.28	226.38
994.58	226.38
994.87	226.37
995.16	226.38
995.45	226.40
995.74	226.33
996.03	226.33
996.32	226.39
996.61	226.43
996.90	226.42
997.19	226.43
997.48	226.43
997.77	226.42
998.06	226.42
998.34	226.41
998.63	226.43
998.92	226.39
999.21	226.39
999.50	226.39
999.79	226.36
1000.08	226.35
1000.37	226.32
1000.66	226.32
1000.95	226.35
1001.24	226.34
1001.53	226.34
1001.82	226.33
1002.11	226.30
1002.40	226.25
1002.68	226.30
1002.97	226.35
1003.26	226.32
1003.55	226.28
1003.84	226.29
1004.13	226.31
1004.42	226.31
1004.71	226.32
1004.99	226.32
1005.28	226.36
1005.57	226.32
1005.86	226.29
1006.15	226.30
1006.44	226.28
1006.72	226.28
1007.01	226.25
1007.30	226.24
1007.59	226.25
1007.88	226.26
1008.17	226.27
1008.45	226.28
1008.74	226.23
1009.03	226.22
1009.32	226.24
1009.60	226.20
1009.89	226.21
1010.18	226.15
1010.47	226.12
1010.76	226.11
1011.04	226.13
1011.33	226.10
1011.62	226.12
1011.91	226.15
1012.19	226.18
1012.48	226.23
1012.77	226.21
1013.05	226.30
1013.34	226.30
1013.63	226.26
1013.92	226.27
1014.20	226.26
1014.49	226.27
1014.78	226.23
1015.06	226.18
1015.35	226.22
1015.64	226.27
1015.92	226.28
1016.21	226.29
1016.50	226.29
1016.78	226.30
1017.07	226.29
1017.36	226.29
1017.64	226.26
1017.93	226.25
1018.22	226.22
1018.50	226.18
1018.79	226.19
1019.08	226.12
1019.36	226.15
1019.65	226.14
1019.93	226.15
1020.22	226.14
1020.51	226.19
1020.79	226.21
1021.08	226.39
1021.36	225.91
1021.65	226.01
1021.94	226.18
1022.22	226.53
1022.51	225.81
1022.79	226.47
1023.08	225.98
1023.36	227.38
1023.65	226.11
>>>>>End Processed Spectral Data<<<<<
