SpectraSuite Data File
++++++++++++++++++++++++++++++++++++
Date: Fri Feb 01 14:56:11 EST 2013
User: group
Dark Spectrum Present: No
Reference Spectrum Present: No
Number of Sampled Component Spectra: 1
Spectrometers: USB2E7196
Integration Time (usec): 35000 (USB2E7196)
Spectra Averaged: 100 (USB2E7196)
Boxcar Smoothing: 10 (USB2E7196)
Correct for Electrical Dark: No (USB2E7196)
Strobe/Lamp Enabled: No (USB2E7196)
Correct for Detector Non-linearity: No (USB2E7196)
Correct for Stray Light: No (USB2E7196)
Number of Pixels in Processed Spectrum: 2048
>>>>>Begin Processed Spectral Data<<<<<
339.09	0.00
339.48	215.35
339.86	217.73
340.24	218.59
340.63	219.54
341.01	222.20
341.39	222.31
341.78	224.03
342.16	225.14
342.54	225.77
342.93	213.75
343.31	224.53
343.69	225.07
344.07	225.50
344.46	225.92
344.84	226.33
345.22	226.58
345.60	226.82
345.99	226.98
346.37	227.11
346.75	227.20
347.13	227.30
347.52	227.33
347.90	227.40
348.28	227.43
348.66	227.43
349.05	227.42
349.43	227.48
349.81	227.53
350.19	227.59
350.57	227.66
350.96	227.75
351.34	227.87
351.72	227.94
352.10	227.99
352.48	228.05
352.87	228.07
353.25	228.14
353.63	228.20
354.01	228.25
354.39	228.32
354.77	228.38
355.15	228.47
355.54	228.53
355.92	228.58
356.30	228.64
356.68	228.79
357.06	228.88
357.44	228.92
357.82	228.99
358.20	229.07
358.58	229.13
358.97	229.18
359.35	229.24
359.73	229.31
360.11	229.38
360.49	229.43
360.87	229.53
361.25	229.57
361.63	229.66
362.01	229.72
362.39	229.72
362.77	229.76
363.15	229.77
363.53	229.79
363.91	229.79
364.29	229.81
364.67	229.71
365.05	229.72
365.43	229.75
365.81	229.80
366.19	229.82
366.57	229.80
366.95	229.84
367.33	229.80
367.71	229.77
368.09	229.77
368.47	229.75
368.85	229.68
369.23	229.64
369.61	229.57
369.99	229.55
370.37	229.52
370.75	229.52
371.13	229.45
371.51	229.37
371.89	229.33
372.27	229.27
372.65	229.27
373.03	229.20
373.41	229.11
373.78	229.01
374.16	228.90
374.54	228.86
374.92	228.74
375.30	228.67
375.68	228.58
376.06	228.52
376.44	228.41
376.82	228.32
377.19	228.28
377.57	228.16
377.95	228.05
378.33	227.96
378.71	227.83
379.09	227.75
379.47	227.68
379.84	227.61
380.22	227.49
380.60	227.34
380.98	227.26
381.36	227.18
381.73	227.09
382.11	227.02
382.49	226.93
382.87	226.87
383.25	226.83
383.62	226.88
384.00	226.77
384.38	226.71
384.76	226.68
385.13	226.61
385.51	226.61
385.89	226.58
386.27	226.53
386.64	226.48
387.02	226.42
387.40	226.40
387.78	226.34
388.15	226.31
388.53	226.31
388.91	226.29
389.29	226.26
389.66	226.26
390.04	226.21
390.42	226.19
390.79	226.17
391.17	226.13
391.55	226.01
391.92	226.05
392.30	226.07
392.68	226.07
393.05	226.09
393.43	226.05
393.81	226.04
394.18	226.05
394.56	226.08
394.94	226.16
395.31	226.16
395.69	226.23
396.06	226.28
396.44	226.34
396.82	226.37
397.19	226.48
397.57	226.51
397.95	226.57
398.32	226.64
398.70	226.67
399.07	226.77
399.45	226.83
399.82	226.90
400.20	226.96
400.58	227.05
400.95	227.12
401.33	227.25
401.70	227.44
402.08	227.58
402.45	227.71
402.83	227.85
403.20	228.00
403.58	228.09
403.95	228.23
404.33	228.37
404.71	228.54
405.08	228.73
405.46	228.91
405.83	229.08
406.21	229.24
406.58	229.45
406.96	229.64
407.33	229.87
407.70	230.05
408.08	230.37
408.45	230.63
408.83	230.91
409.20	231.13
409.58	231.31
409.95	231.56
410.33	231.83
410.70	232.07
411.08	232.39
411.45	232.71
411.82	233.05
412.20	233.43
412.57	233.85
412.95	234.11
413.32	234.51
413.69	234.97
414.07	235.43
414.44	235.90
414.82	236.35
415.19	236.91
415.56	237.49
415.94	237.99
416.31	238.60
416.68	239.19
417.06	239.92
417.43	240.59
417.81	241.37
418.18	242.13
418.55	242.95
418.93	243.81
419.30	244.73
419.67	245.66
420.04	246.60
420.42	247.58
420.79	248.79
421.16	249.96
421.54	251.12
421.91	252.32
422.28	253.60
422.66	254.96
423.03	256.23
423.40	257.52
423.77	258.94
424.15	260.33
424.52	261.82
424.89	263.39
425.26	264.96
425.64	266.40
426.01	268.00
426.38	269.69
426.75	271.33
427.13	273.07
427.50	274.88
427.87	276.77
428.24	278.58
428.61	280.31
428.99	282.21
429.36	284.27
429.73	286.34
430.10	288.32
430.47	290.35
430.85	292.45
431.22	294.72
431.59	297.10
431.96	299.38
432.33	301.88
432.70	304.29
433.08	307.08
433.45	309.72
433.82	312.37
434.19	315.21
434.56	318.03
434.93	320.66
435.30	323.26
435.68	326.15
436.05	329.04
436.42	331.86
436.79	334.34
437.16	337.08
437.53	339.92
437.90	342.79
438.27	345.52
438.64	348.40
439.01	350.96
439.38	353.17
439.75	355.34
440.13	357.80
440.50	360.12
440.87	361.99
441.24	363.91
441.61	366.00
441.98	367.51
442.35	369.31
442.72	371.20
443.09	372.99
443.46	373.99
443.83	374.56
444.20	375.07
444.57	375.92
444.94	376.20
445.31	376.49
445.68	376.84
446.05	376.96
446.42	376.58
446.79	376.16
447.16	375.75
447.53	375.39
447.90	374.23
448.27	373.07
448.64	371.47
449.01	370.33
449.37	368.40
449.74	366.50
450.11	364.20
450.48	361.73
450.85	359.21
451.22	357.05
451.59	355.03
451.96	353.07
452.33	350.49
452.70	348.15
453.07	345.34
453.43	342.40
453.80	339.64
454.17	336.91
454.54	334.38
454.91	331.65
455.28	328.98
455.65	326.55
456.02	324.09
456.38	321.95
456.75	319.28
457.12	317.03
457.49	314.82
457.86	312.67
458.23	310.81
458.59	308.78
458.96	306.65
459.33	304.75
459.70	302.89
460.07	301.39
460.43	299.64
460.80	298.02
461.17	296.57
461.54	295.06
461.91	293.64
462.27	292.19
462.64	290.94
463.01	289.62
463.38	288.26
463.74	286.89
464.11	285.71
464.48	284.71
464.85	283.59
465.21	282.70
465.58	281.77
465.95	280.65
466.32	279.77
466.68	278.91
467.05	278.02
467.42	277.11
467.78	276.16
468.15	275.29
468.52	274.61
468.88	273.77
469.25	272.97
469.62	272.38
469.98	271.68
470.35	271.03
470.72	270.38
471.08	269.73
471.45	269.19
471.82	268.64
472.18	268.06
472.55	267.61
472.92	267.07
473.28	266.62
473.65	266.17
474.02	265.67
474.38	265.28
474.75	264.98
475.11	264.64
475.48	264.36
475.85	264.07
476.21	263.81
476.58	263.60
476.94	263.46
477.31	263.24
477.67	263.10
478.04	262.96
478.41	262.87
478.77	262.87
479.14	262.80
479.50	262.80
479.87	262.80
480.23	262.83
480.60	262.91
480.96	262.99
481.33	263.19
481.69	263.37
482.06	263.54
482.42	263.71
482.79	263.96
483.15	264.27
483.52	264.67
483.88	265.04
484.25	265.44
484.61	265.86
484.98	266.32
485.34	266.87
485.71	267.46
486.07	268.11
486.44	268.67
486.80	269.37
487.17	270.11
487.53	270.95
487.90	271.85
488.26	272.79
488.62	273.79
488.99	274.74
489.35	275.79
489.72	276.91
490.08	278.12
490.44	279.35
490.81	280.66
491.17	282.00
491.54	283.45
491.90	284.95
492.26	286.56
492.63	288.29
492.99	290.08
493.36	291.93
493.72	293.95
494.08	296.04
494.45	298.22
494.81	300.55
495.17	302.95
495.54	305.50
495.90	308.17
496.26	310.95
496.63	313.91
496.99	317.01
497.35	320.23
497.72	323.57
498.08	327.10
498.44	330.72
498.80	334.62
499.17	338.61
499.53	342.81
499.89	347.20
500.26	351.64
500.62	356.26
500.98	361.22
501.34	366.22
501.71	371.51
502.07	376.96
502.43	382.58
502.79	388.37
503.16	394.44
503.52	400.61
503.88	406.97
504.24	413.49
504.60	420.34
504.97	427.46
505.33	434.76
505.69	442.35
506.05	450.12
506.41	457.96
506.78	466.11
507.14	474.45
507.50	483.10
507.86	492.09
508.22	501.23
508.59	510.38
508.95	520.01
509.31	529.78
509.67	539.84
510.03	550.11
510.39	560.61
510.75	571.34
511.12	582.24
511.48	593.51
511.84	605.02
512.20	616.51
512.56	628.43
512.92	640.58
513.28	652.91
513.64	665.38
514.00	678.12
514.37	691.11
514.73	704.19
515.09	717.18
515.45	730.46
515.81	744.04
516.17	758.04
516.53	772.13
516.89	786.32
517.25	800.54
517.61	814.93
517.97	829.42
518.33	843.79
518.69	858.67
519.05	873.72
519.41	888.89
519.77	904.49
520.13	920.00
520.49	935.43
520.85	950.89
521.21	966.65
521.57	982.99
521.93	998.75
522.29	1015.20
522.65	1031.45
523.01	1047.75
523.37	1063.87
523.73	1080.08
524.09	1096.28
524.45	1112.68
524.81	1129.40
525.17	1146.28
525.53	1163.33
525.89	1180.44
526.25	1197.34
526.61	1213.79
526.97	1230.58
527.33	1247.15
527.68	1263.87
528.04	1280.44
528.40	1297.30
528.76	1314.50
529.12	1331.14
529.48	1348.19
529.84	1364.33
530.20	1381.17
530.56	1398.39
530.91	1415.82
531.27	1432.69
531.63	1449.15
531.99	1465.90
532.35	1481.93
532.71	1497.92
533.07	1514.22
533.42	1530.15
533.78	1546.22
534.14	1562.48
534.50	1578.01
534.86	1593.93
535.21	1609.15
535.57	1625.26
535.93	1640.67
536.29	1655.52
536.65	1670.63
537.00	1685.42
537.36	1700.80
537.72	1715.38
538.08	1729.78
538.44	1743.85
538.79	1757.92
539.15	1771.92
539.51	1785.74
539.87	1800.24
540.22	1814.11
540.58	1827.98
540.94	1841.37
541.29	1854.40
541.65	1867.32
542.01	1880.59
542.37	1892.94
542.72	1905.41
543.08	1917.14
543.44	1929.70
543.79	1941.02
544.15	1952.05
544.51	1963.60
544.87	1974.57
545.22	1985.46
545.58	1995.56
545.94	2005.25
546.29	2015.12
546.65	2024.70
547.01	2033.88
547.36	2042.57
547.72	2051.05
548.07	2058.89
548.43	2067.08
548.79	2075.10
549.14	2082.56
549.50	2090.08
549.86	2097.94
550.21	2105.33
550.57	2112.61
550.92	2119.08
551.28	2126.16
551.64	2133.30
551.99	2139.96
552.35	2146.17
552.70	2152.27
553.06	2158.27
553.41	2164.51
553.77	2170.51
554.13	2176.83
554.48	2182.94
554.84	2188.24
555.19	2193.55
555.55	2198.67
555.90	2203.13
556.26	2208.00
556.61	2212.73
556.97	2216.66
557.32	2220.67
557.68	2224.76
558.03	2228.90
558.39	2232.69
558.74	2237.16
559.10	2240.93
559.45	2244.47
559.81	2248.79
560.16	2252.65
560.52	2255.91
560.87	2259.35
561.23	2261.97
561.58	2264.75
561.94	2267.16
562.29	2269.67
562.64	2272.34
563.00	2274.97
563.35	2278.32
563.71	2281.41
564.06	2284.46
564.42	2287.38
564.77	2289.67
565.12	2291.78
565.48	2293.56
565.83	2295.12
566.19	2296.21
566.54	2297.02
566.89	2298.07
567.25	2298.28
567.60	2299.42
567.96	2300.85
568.31	2301.61
568.66	2302.45
569.02	2302.80
569.37	2302.92
569.72	2303.40
570.08	2303.14
570.43	2302.75
570.78	2301.89
571.14	2300.00
571.49	2298.51
571.84	2297.99
572.20	2296.69
572.55	2295.52
572.90	2293.80
573.26	2292.26
573.61	2290.51
573.96	2288.64
574.31	2285.34
574.67	2282.28
575.02	2278.42
575.37	2274.80
575.72	2270.63
576.08	2267.14
576.43	2263.79
576.78	2260.01
577.13	2256.80
577.49	2253.75
577.84	2250.24
578.19	2246.55
578.54	2242.87
578.90	2238.43
579.25	2232.81
579.60	2227.79
579.95	2222.46
580.30	2217.37
580.66	2212.18
581.01	2207.12
581.36	2202.01
581.71	2197.75
582.06	2193.13
582.42	2188.36
582.77	2183.07
583.12	2178.38
583.47	2173.52
583.82	2168.22
584.17	2162.83
584.53	2157.18
584.88	2151.32
585.23	2145.31
585.58	2139.64
585.93	2134.10
586.28	2129.28
586.63	2123.97
586.98	2118.77
587.34	2114.16
587.69	2109.11
588.04	2103.74
588.39	2097.81
588.74	2091.31
589.09	2084.99
589.44	2078.06
589.79	2072.11
590.14	2066.49
590.49	2059.84
590.84	2053.34
591.19	2047.18
591.54	2040.60
591.89	2032.92
592.25	2025.92
592.60	2018.58
592.95	2010.99
593.30	2003.40
593.65	1995.72
594.00	1988.52
594.35	1981.07
594.70	1972.81
595.05	1965.38
595.40	1957.90
595.75	1950.49
596.10	1943.96
596.45	1937.02
596.80	1930.87
597.15	1924.01
597.50	1916.75
597.85	1910.29
598.19	1903.45
598.54	1896.32
598.89	1889.60
599.24	1883.76
599.59	1877.06
599.94	1870.98
600.29	1864.47
600.64	1857.89
600.99	1850.32
601.34	1843.44
601.69	1836.53
602.04	1829.60
602.39	1822.28
602.74	1815.52
603.08	1808.65
603.43	1801.96
603.78	1794.81
604.13	1787.47
604.48	1780.19
604.83	1773.30
605.18	1766.18
605.53	1758.28
605.87	1750.32
606.22	1743.09
606.57	1735.21
606.92	1727.91
607.27	1720.56
607.62	1713.66
607.96	1706.36
608.31	1699.74
608.66	1692.15
609.01	1684.64
609.36	1677.20
609.70	1669.20
610.05	1661.09
610.40	1653.37
610.75	1645.03
611.10	1637.37
611.44	1629.11
611.79	1621.29
612.14	1612.81
612.49	1603.87
612.83	1595.63
613.18	1587.49
613.53	1579.51
613.88	1570.95
614.22	1562.71
614.57	1554.23
614.92	1546.24
615.27	1538.76
615.61	1530.51
615.96	1522.55
616.31	1514.91
616.65	1507.49
617.00	1500.00
617.35	1492.38
617.70	1484.16
618.04	1475.72
618.39	1467.61
618.74	1459.96
619.08	1451.66
619.43	1444.03
619.78	1437.16
620.12	1429.95
620.47	1422.51
620.82	1414.34
621.16	1407.08
621.51	1399.61
621.85	1392.02
622.20	1383.61
622.55	1375.39
622.89	1367.59
623.24	1360.04
623.59	1352.73
623.93	1345.20
624.28	1338.00
624.62	1330.49
624.97	1323.39
625.32	1316.68
625.66	1309.62
626.01	1302.44
626.35	1294.97
626.70	1287.39
627.04	1279.63
627.39	1271.90
627.73	1264.52
628.08	1257.59
628.43	1250.24
628.77	1242.78
629.12	1235.20
629.46	1227.94
629.81	1220.54
630.15	1213.34
630.50	1205.95
630.84	1197.71
631.19	1189.95
631.53	1182.53
631.88	1175.04
632.22	1167.41
632.57	1160.19
632.91	1152.75
633.26	1145.46
633.60	1138.29
633.95	1131.15
634.29	1124.23
634.64	1117.65
634.98	1110.36
635.32	1103.45
635.67	1097.03
636.01	1090.51
636.36	1083.84
636.70	1077.47
637.05	1070.96
637.39	1064.61
637.73	1058.12
638.08	1052.43
638.42	1046.46
638.77	1040.03
639.11	1033.45
639.45	1027.12
639.80	1020.48
640.14	1014.07
640.49	1007.58
640.83	1001.23
641.17	994.97
641.52	988.62
641.86	982.29
642.20	976.52
642.55	970.23
642.89	963.75
643.23	957.19
643.58	951.34
643.92	945.20
644.26	939.06
644.61	933.09
644.95	927.16
645.29	920.56
645.64	913.83
645.98	907.54
646.32	901.85
646.66	895.81
647.01	890.10
647.35	884.43
647.69	878.68
648.04	873.21
648.38	867.52
648.72	861.57
649.06	855.41
649.41	849.54
649.75	843.47
650.09	837.48
650.43	831.70
650.78	825.62
651.12	819.72
651.46	814.04
651.80	808.26
652.14	802.84
652.49	797.55
652.83	792.37
653.17	786.69
653.51	780.94
653.85	775.65
654.20	769.95
654.54	764.07
654.88	758.36
655.22	752.51
655.56	746.84
655.90	741.46
656.25	736.28
656.59	730.89
656.93	725.81
657.27	720.75
657.61	715.43
657.95	710.44
658.29	705.36
658.64	700.21
658.98	695.00
659.32	689.58
659.66	684.34
660.00	679.08
660.34	674.14
660.68	669.24
661.02	664.25
661.36	659.55
661.70	655.02
662.05	650.63
662.39	646.32
662.73	641.92
663.07	637.50
663.41	633.13
663.75	628.77
664.09	624.34
664.43	619.94
664.77	615.84
665.11	611.60
665.45	607.54
665.79	603.48
666.13	599.39
666.47	595.37
666.81	591.25
667.15	587.20
667.49	583.40
667.83	579.67
668.17	575.72
668.51	571.75
668.85	567.79
669.19	563.97
669.53	560.17
669.87	556.31
670.21	552.69
670.55	549.09
670.89	545.64
671.23	542.20
671.57	538.75
671.91	535.24
672.25	531.84
672.58	528.35
672.92	524.99
673.26	521.84
673.60	518.65
673.94	515.56
674.28	512.72
674.62	509.78
674.96	506.67
675.30	503.78
675.64	500.87
675.97	498.15
676.31	495.36
676.65	492.47
676.99	489.78
677.33	486.87
677.67	484.07
678.01	481.07
678.34	478.12
678.68	475.33
679.02	472.55
679.36	469.73
679.70	467.03
680.04	464.30
680.37	461.42
680.71	458.69
681.05	456.12
681.39	453.35
681.73	450.74
682.06	448.26
682.40	445.78
682.74	443.30
683.08	440.73
683.42	438.15
683.75	435.66
684.09	433.20
684.43	430.83
684.77	428.36
685.10	426.07
685.44	423.81
685.78	421.50
686.12	419.29
686.45	417.05
686.79	414.76
687.13	412.59
687.46	410.49
687.80	408.34
688.14	406.16
688.48	404.15
688.81	401.89
689.15	399.78
689.49	397.65
689.82	395.56
690.16	393.53
690.50	391.59
690.83	389.65
691.17	387.65
691.51	385.74
691.84	383.89
692.18	381.93
692.52	379.97
692.85	378.11
693.19	376.20
693.52	374.44
693.86	372.66
694.20	370.91
694.53	369.08
694.87	367.25
695.21	365.53
695.54	363.74
695.88	362.09
696.21	360.33
696.55	358.67
696.88	357.01
697.22	355.33
697.56	353.73
697.89	352.09
698.23	350.52
698.56	348.92
698.90	347.37
699.23	345.77
699.57	344.27
699.90	342.72
700.24	341.23
700.58	339.66
700.91	338.18
701.25	336.72
701.58	335.37
701.92	334.06
702.25	332.68
702.59	331.32
702.92	329.99
703.26	328.74
703.59	327.46
703.93	326.30
704.26	325.12
704.60	323.82
704.93	322.57
705.26	321.31
705.60	320.15
705.93	318.99
706.27	317.98
706.60	316.89
706.94	315.81
707.27	314.65
707.61	313.65
707.94	312.63
708.27	311.56
708.61	310.52
708.94	309.52
709.28	308.53
709.61	307.56
709.94	306.59
710.28	305.61
710.61	304.66
710.95	303.57
711.28	302.67
711.61	301.74
711.95	300.82
712.28	299.88
712.61	298.89
712.95	297.94
713.28	297.03
713.61	296.14
713.95	295.23
714.28	294.43
714.61	293.54
714.95	292.70
715.28	291.83
715.61	290.96
715.95	290.11
716.28	289.28
716.61	288.42
716.95	287.63
717.28	286.90
717.61	286.12
717.94	285.37
718.28	284.51
718.61	283.80
718.94	283.16
719.27	282.53
719.61	281.93
719.94	281.32
720.27	280.63
720.60	279.98
720.94	279.40
721.27	278.77
721.60	278.20
721.93	277.58
722.27	277.04
722.60	276.48
722.93	275.91
723.26	275.35
723.59	274.82
723.93	274.30
724.26	273.72
724.59	273.17
724.92	272.67
725.25	272.23
725.59	271.70
725.92	271.18
726.25	270.66
726.58	270.13
726.91	269.65
727.24	269.17
727.57	268.71
727.91	268.18
728.24	267.70
728.57	267.21
728.90	266.81
729.23	266.33
729.56	265.90
729.89	265.44
730.22	264.98
730.55	264.50
730.89	264.04
731.22	263.59
731.55	263.17
731.88	262.75
732.21	262.32
732.54	261.89
732.87	261.44
733.20	261.04
733.53	260.69
733.86	260.29
734.19	259.91
734.52	259.51
734.85	259.27
735.18	258.86
735.51	258.51
735.84	258.12
736.17	257.76
736.50	257.36
736.83	257.12
737.16	256.78
737.49	256.49
737.82	256.15
738.15	255.81
738.48	255.47
738.81	255.15
739.14	254.80
739.47	254.47
739.80	254.21
740.13	253.93
740.46	253.61
740.79	253.31
741.12	253.01
741.45	252.71
741.78	252.31
742.11	252.06
742.44	251.73
742.77	251.46
743.10	251.18
743.43	250.89
743.75	250.52
744.08	250.38
744.41	250.09
744.74	249.81
745.07	249.56
745.40	249.34
745.73	249.13
746.06	248.89
746.39	248.64
746.71	248.34
747.04	248.05
747.37	247.78
747.70	247.47
748.03	247.19
748.36	246.96
748.68	246.74
749.01	246.48
749.34	246.28
749.67	246.03
750.00	245.81
750.33	245.65
750.65	245.41
750.98	245.10
751.31	244.90
751.64	244.67
751.97	244.49
752.29	244.26
752.62	243.97
752.95	243.76
753.28	243.57
753.60	243.38
753.93	243.18
754.26	242.98
754.59	242.76
754.91	242.56
755.24	242.36
755.57	242.14
755.90	241.98
756.22	241.76
756.55	241.56
756.88	241.34
757.20	241.11
757.53	240.93
757.86	240.75
758.19	240.56
758.51	240.41
758.84	240.21
759.17	240.03
759.49	239.88
759.82	239.74
760.15	239.59
760.47	239.40
760.80	239.23
761.13	239.08
761.45	238.93
761.78	238.78
762.11	238.61
762.43	238.44
762.76	238.27
763.08	238.15
763.41	238.02
763.74	237.92
764.06	237.77
764.39	237.62
764.71	237.45
765.04	237.30
765.37	237.16
765.69	237.02
766.02	236.88
766.34	236.77
766.67	236.61
767.00	236.47
767.32	236.43
767.65	236.40
767.97	236.28
768.30	236.19
768.62	236.10
768.95	236.00
769.27	235.91
769.60	235.82
769.92	235.74
770.25	235.58
770.57	235.47
770.90	235.42
771.22	235.33
771.55	235.25
771.87	235.21
772.20	235.14
772.52	235.13
772.85	235.16
773.17	235.06
773.50	235.00
773.82	234.93
774.15	234.81
774.47	234.66
774.80	234.60
775.12	234.55
775.45	234.48
775.77	234.42
776.09	234.38
776.42	234.33
776.74	234.27
777.07	234.23
777.39	234.17
777.72	234.06
778.04	233.98
778.36	233.90
778.69	233.81
779.01	233.75
779.33	233.60
779.66	233.41
779.98	233.35
780.31	233.32
780.63	233.28
780.95	233.23
781.28	233.14
781.60	233.07
781.92	232.98
782.25	232.91
782.57	232.83
782.89	232.77
783.22	232.65
783.54	232.59
783.86	232.54
784.19	232.46
784.51	232.46
784.83	232.40
785.16	232.36
785.48	232.31
785.80	232.26
786.12	232.27
786.45	232.24
786.77	232.21
787.09	232.14
787.42	232.10
787.74	232.06
788.06	232.06
788.38	232.00
788.71	231.98
789.03	231.93
789.35	231.95
789.67	231.88
789.99	231.87
790.32	231.79
790.64	231.76
790.96	231.81
791.28	231.70
791.61	231.69
791.93	231.67
792.25	231.62
792.57	231.63
792.89	231.54
793.21	231.48
793.54	231.41
793.86	231.35
794.18	231.32
794.50	231.28
794.82	231.23
795.14	231.22
795.47	231.18
795.79	231.14
796.11	231.03
796.43	231.01
796.75	230.97
797.07	230.93
797.39	230.91
797.71	230.81
798.04	230.80
798.36	230.73
798.68	230.64
799.00	230.61
799.32	230.54
799.64	230.54
799.96	230.49
800.28	230.50
800.60	230.41
800.92	230.37
801.24	230.31
801.56	230.32
801.89	230.26
802.21	230.23
802.53	230.20
802.85	230.22
803.17	230.22
803.49	230.16
803.81	230.14
804.13	230.10
804.45	230.01
804.77	229.98
805.09	229.96
805.41	229.98
805.73	229.92
806.05	229.87
806.37	229.84
806.69	229.82
807.01	229.78
807.33	229.81
807.65	229.76
807.97	229.77
808.28	229.71
808.60	229.71
808.92	229.66
809.24	229.70
809.56	229.65
809.88	229.59
810.20	229.61
810.52	229.62
810.84	229.57
811.16	229.58
811.48	229.54
811.80	229.57
812.12	229.54
812.43	229.56
812.75	229.54
813.07	229.48
813.39	229.48
813.71	229.45
814.03	229.40
814.35	229.40
814.67	229.35
814.98	229.32
815.30	229.29
815.62	229.27
815.94	229.19
816.26	229.22
816.58	229.20
816.89	229.15
817.21	229.10
817.53	229.09
817.85	229.07
818.17	229.08
818.48	229.03
818.80	229.02
819.12	229.00
819.44	228.97
819.76	228.96
820.07	228.95
820.39	228.93
820.71	228.94
821.03	228.93
821.34	228.92
821.66	228.87
821.98	228.84
822.30	228.83
822.61	228.84
822.93	228.79
823.25	228.77
823.57	228.75
823.88	228.76
824.20	228.74
824.52	228.73
824.83	228.70
825.15	228.68
825.47	228.66
825.79	228.64
826.10	228.64
826.42	228.63
826.74	228.61
827.05	228.59
827.37	228.57
827.69	228.52
828.00	228.52
828.32	228.56
828.64	228.55
828.95	228.57
829.27	228.54
829.58	228.52
829.90	228.55
830.22	228.54
830.53	228.50
830.85	228.50
831.17	228.45
831.48	228.44
831.80	228.45
832.11	228.44
832.43	228.43
832.75	228.42
833.06	228.48
833.38	228.44
833.69	228.44
834.01	228.45
834.32	228.43
834.64	228.44
834.96	228.42
835.27	228.39
835.59	228.36
835.90	228.34
836.22	228.34
836.53	228.33
836.85	228.32
837.16	228.39
837.48	228.39
837.79	228.41
838.11	228.40
838.42	228.37
838.74	228.38
839.05	228.37
839.37	228.35
839.68	228.25
840.00	228.24
840.31	228.23
840.63	228.17
840.94	228.14
841.26	228.11
841.57	228.07
841.88	228.08
842.20	228.05
842.51	228.03
842.83	228.00
843.14	228.02
843.46	228.00
843.77	227.93
844.08	227.89
844.40	227.87
844.71	227.84
845.03	227.82
845.34	227.78
845.65	227.73
845.97	227.71
846.28	227.72
846.60	227.74
846.91	227.70
847.22	227.73
847.54	227.74
847.85	227.71
848.16	227.72
848.48	227.70
848.79	227.72
849.10	227.74
849.42	227.73
849.73	227.68
850.04	227.71
850.36	227.68
850.67	227.71
850.98	227.69
851.30	227.71
851.61	227.71
851.92	227.72
852.23	227.79
852.55	227.80
852.86	227.80
853.17	227.79
853.49	227.80
853.80	227.79
854.11	227.81
854.42	227.83
854.74	227.81
855.05	227.82
855.36	227.80
855.67	227.80
855.99	227.81
856.30	227.92
856.61	227.89
856.92	227.86
857.23	227.89
857.55	227.94
857.86	227.94
858.17	227.95
858.48	227.94
858.79	227.92
859.11	227.93
859.42	227.93
859.73	227.91
860.04	227.89
860.35	227.87
860.66	227.87
860.98	227.90
861.29	227.90
861.60	227.89
861.91	227.90
862.22	227.89
862.53	227.89
862.84	227.75
863.16	227.79
863.47	227.80
863.78	227.76
864.09	227.72
864.40	227.71
864.71	227.73
865.02	227.73
865.33	227.74
865.64	227.69
865.95	227.68
866.27	227.76
866.58	227.80
866.89	227.82
867.20	227.83
867.51	227.81
867.82	227.80
868.13	227.81
868.44	227.80
868.75	227.80
869.06	227.81
869.37	227.83
869.68	227.78
869.99	227.79
870.30	227.77
870.61	227.80
870.92	227.80
871.23	227.75
871.54	227.74
871.85	227.71
872.16	227.74
872.47	227.71
872.78	227.66
873.09	227.67
873.40	227.66
873.71	227.66
874.02	227.66
874.33	227.68
874.64	227.64
874.95	227.63
875.26	227.59
875.56	227.55
875.87	227.54
876.18	227.56
876.49	227.64
876.80	227.64
877.11	227.59
877.42	227.60
877.73	227.61
878.04	227.60
878.35	227.61
878.66	227.59
878.96	227.59
879.27	227.54
879.58	227.49
879.89	227.46
880.20	227.45
880.51	227.45
880.82	227.43
881.12	227.44
881.43	227.41
881.74	227.42
882.05	227.42
882.36	227.40
882.67	227.36
882.97	227.26
883.28	227.24
883.59	227.27
883.90	227.25
884.21	227.24
884.51	227.21
884.82	227.17
885.13	227.15
885.44	227.15
885.74	227.19
886.05	227.17
886.36	227.18
886.67	227.13
886.98	227.15
887.28	227.16
887.59	227.17
887.90	227.20
888.20	227.19
888.51	227.18
888.82	227.15
889.13	227.21
889.43	227.27
889.74	227.25
890.05	227.21
890.35	227.22
890.66	227.19
890.97	227.18
891.28	227.20
891.58	227.21
891.89	227.23
892.20	227.23
892.50	227.22
892.81	227.22
893.12	227.24
893.42	227.22
893.73	227.25
894.04	227.24
894.34	227.24
894.65	227.25
894.95	227.27
895.26	227.30
895.57	227.31
895.87	227.25
896.18	227.30
896.48	227.31
896.79	227.32
897.10	227.36
897.40	227.39
897.71	227.39
898.01	227.40
898.32	227.44
898.63	227.45
898.93	227.46
899.24	227.49
899.54	227.48
899.85	227.48
900.15	227.45
900.46	227.46
900.76	227.51
901.07	227.50
901.38	227.48
901.68	227.52
901.99	227.51
902.29	227.53
902.60	227.53
902.90	227.52
903.21	227.56
903.51	227.56
903.82	227.59
904.12	227.62
904.43	227.63
904.73	227.61
905.03	227.63
905.34	227.73
905.64	227.71
905.95	227.74
906.25	227.76
906.56	227.79
906.86	227.78
907.17	227.76
907.47	227.77
907.77	227.78
908.08	227.77
908.38	227.78
908.69	227.81
908.99	227.83
909.30	227.86
909.60	227.85
909.90	227.88
910.21	227.86
910.51	227.82
910.81	227.79
911.12	227.78
911.42	227.73
911.73	227.64
912.03	227.64
912.33	227.64
912.64	227.61
912.94	227.57
913.24	227.55
913.55	227.54
913.85	227.52
914.15	227.55
914.46	227.52
914.76	227.46
915.06	227.44
915.37	227.38
915.67	227.35
915.97	227.31
916.27	227.26
916.58	227.22
916.88	227.21
917.18	227.20
917.49	227.26
917.79	227.28
918.09	227.27
918.39	227.27
918.70	227.23
919.00	227.22
919.30	227.24
919.60	227.23
919.91	227.22
920.21	227.21
920.51	227.18
920.81	227.14
921.12	227.17
921.42	227.13
921.72	227.13
922.02	227.13
922.32	227.15
922.63	227.12
922.93	227.19
923.23	227.20
923.53	227.18
923.83	227.09
924.13	227.09
924.44	227.05
924.74	227.05
925.04	227.10
925.34	227.09
925.64	227.03
925.94	227.05
926.24	227.09
926.55	227.07
926.85	227.06
927.15	227.08
927.45	227.05
927.75	227.06
928.05	227.06
928.35	227.05
928.65	227.04
928.95	227.05
929.26	226.99
929.56	227.01
929.86	227.02
930.16	227.03
930.46	227.01
930.76	227.05
931.06	227.02
931.36	226.96
931.66	226.99
931.96	227.02
932.26	227.01
932.56	226.96
932.86	226.96
933.16	226.96
933.46	226.97
933.76	226.99
934.06	227.00
934.36	227.04
934.66	227.09
934.96	227.08
935.26	227.09
935.56	227.13
935.86	227.12
936.16	227.14
936.46	227.16
936.76	227.18
937.06	227.16
937.36	227.20
937.66	227.23
937.96	227.23
938.26	227.23
938.56	227.22
938.86	227.24
939.16	227.29
939.46	227.30
939.76	227.33
940.06	227.32
940.35	227.32
940.65	227.27
940.95	227.27
941.25	227.30
941.55	227.32
941.85	227.35
942.15	227.37
942.45	227.41
942.75	227.40
943.04	227.41
943.34	227.48
943.64	227.45
943.94	227.47
944.24	227.49
944.54	227.51
944.84	227.53
945.13	227.52
945.43	227.50
945.73	227.52
946.03	227.53
946.33	227.53
946.62	227.55
946.92	227.57
947.22	227.57
947.52	227.55
947.82	227.57
948.11	227.54
948.41	227.53
948.71	227.49
949.01	227.51
949.31	227.51
949.60	227.46
949.90	227.46
950.20	227.43
950.50	227.41
950.79	227.39
951.09	227.43
951.39	227.41
951.69	227.40
951.98	227.40
952.28	227.39
952.58	227.40
952.87	227.39
953.17	227.41
953.47	227.41
953.76	227.40
954.06	227.40
954.36	227.36
954.66	227.36
954.95	227.37
955.25	227.36
955.55	227.33
955.84	227.35
956.14	227.37
956.44	227.35
956.73	227.33
957.03	227.33
957.32	227.26
957.62	227.26
957.92	227.26
958.21	227.25
958.51	227.34
958.81	227.33
959.10	227.32
959.40	227.33
959.69	227.32
959.99	227.32
960.29	227.32
960.58	227.32
960.88	227.31
961.17	227.28
961.47	227.30
961.76	227.29
962.06	227.26
962.36	227.21
962.65	227.23
962.95	227.25
963.24	227.22
963.54	227.23
963.83	227.24
964.13	227.22
964.42	227.18
964.72	227.10
965.01	227.08
965.31	227.05
965.60	227.01
965.90	227.05
966.19	227.02
966.49	226.99
966.78	226.97
967.08	227.00
967.37	227.02
967.67	226.99
967.96	226.99
968.26	227.00
968.55	227.04
968.85	227.04
969.14	227.02
969.43	227.05
969.73	227.05
970.02	227.03
970.32	227.02
970.61	227.04
970.91	227.02
971.20	226.99
971.49	227.01
971.79	227.02
972.08	226.97
972.38	226.98
972.67	227.00
972.96	227.00
973.26	226.99
973.55	226.99
973.85	227.01
974.14	227.00
974.43	227.00
974.73	227.00
975.02	226.99
975.31	226.99
975.61	226.97
975.90	226.99
976.19	226.99
976.49	227.02
976.78	227.04
977.07	227.03
977.37	227.05
977.66	227.07
977.95	227.07
978.24	227.07
978.54	227.09
978.83	227.07
979.12	227.08
979.42	227.06
979.71	227.06
980.00	227.06
980.29	227.06
980.59	227.04
980.88	227.05
981.17	227.05
981.46	227.09
981.76	227.12
982.05	227.13
982.34	227.15
982.63	227.17
982.93	227.15
983.22	227.19
983.51	227.20
983.80	227.21
984.09	227.21
984.39	227.23
984.68	227.25
984.97	227.29
985.26	227.32
985.55	227.33
985.85	227.31
986.14	227.33
986.43	227.36
986.72	227.36
987.01	227.35
987.30	227.35
987.59	227.34
987.89	227.33
988.18	227.31
988.47	227.33
988.76	227.29
989.05	227.31
989.34	227.29
989.63	227.32
989.92	227.31
990.22	227.31
990.51	227.29
990.80	227.27
991.09	227.25
991.38	227.25
991.67	227.23
991.96	227.21
992.25	227.19
992.54	227.16
992.83	227.17
993.12	227.13
993.41	227.16
993.70	227.17
993.99	227.19
994.28	227.20
994.58	227.17
994.87	227.13
995.16	227.07
995.45	227.06
995.74	227.02
996.03	227.03
996.32	227.02
996.61	227.07
996.90	227.04
997.19	227.05
997.48	227.02
997.77	227.01
998.06	227.03
998.34	227.05
998.63	227.06
998.92	227.05
999.21	227.07
999.50	227.04
999.79	226.97
1000.08	226.95
1000.37	226.92
1000.66	226.93
1000.95	226.99
1001.24	227.00
1001.53	227.02
1001.82	227.03
1002.11	226.99
1002.40	226.98
1002.68	226.98
1002.97	227.07
1003.26	227.02
1003.55	227.03
1003.84	227.05
1004.13	227.08
1004.42	227.05
1004.71	227.05
1004.99	227.02
1005.28	227.05
1005.57	227.07
1005.86	227.05
1006.15	227.04
1006.44	227.06
1006.72	227.07
1007.01	227.04
1007.30	227.08
1007.59	227.07
1007.88	227.07
1008.17	227.11
1008.45	227.11
1008.74	227.05
1009.03	226.99
1009.32	227.02
1009.60	226.99
1009.89	226.97
1010.18	226.92
1010.47	226.91
1010.76	226.92
1011.04	226.98
1011.33	226.99
1011.62	227.03
1011.91	227.07
1012.19	227.10
1012.48	227.10
1012.77	227.10
1013.05	227.18
1013.34	227.17
1013.63	227.15
1013.92	227.14
1014.20	227.12
1014.49	227.18
1014.78	227.21
1015.06	227.21
1015.35	227.19
1015.64	227.22
1015.92	227.28
1016.21	227.29
1016.50	227.31
1016.78	227.33
1017.07	227.30
1017.36	227.27
1017.64	227.23
1017.93	227.26
1018.22	227.25
1018.50	227.24
1018.79	227.26
1019.08	227.22
1019.36	227.20
1019.65	227.21
1019.93	227.28
1020.22	227.30
1020.51	227.30
1020.79	227.28
1021.08	227.29
1021.36	226.71
1021.65	227.59
1021.94	227.63
1022.22	226.94
1022.51	227.12
1022.79	228.18
1023.08	227.19
1023.36	228.22
1023.65	226.85
>>>>>End Processed Spectral Data<<<<<
