SpectraSuite Data File
++++++++++++++++++++++++++++++++++++
Date: Fri Feb 01 16:16:17 EST 2013
User: group
Dark Spectrum Present: No
Reference Spectrum Present: No
Number of Sampled Component Spectra: 1
Spectrometers: USB2E7196
Integration Time (usec): 35000 (USB2E7196)
Spectra Averaged: 100 (USB2E7196)
Boxcar Smoothing: 10 (USB2E7196)
Correct for Electrical Dark: No (USB2E7196)
Strobe/Lamp Enabled: No (USB2E7196)
Correct for Detector Non-linearity: No (USB2E7196)
Correct for Stray Light: No (USB2E7196)
Number of Pixels in Processed Spectrum: 2048
>>>>>Begin Processed Spectral Data<<<<<
339.09	0.00
339.48	213.67
339.86	215.87
340.24	216.53
340.63	218.15
341.01	220.65
341.39	220.64
341.78	222.47
342.16	223.37
342.54	224.50
342.93	212.29
343.31	223.01
343.69	223.56
344.07	224.00
344.46	224.44
344.84	224.82
345.22	225.09
345.60	225.35
345.99	225.54
346.37	225.64
346.75	225.71
347.13	225.81
347.52	225.86
347.90	225.96
348.28	225.98
348.66	226.01
349.05	226.05
349.43	226.09
349.81	226.17
350.19	226.23
350.57	226.26
350.96	226.36
351.34	226.47
351.72	226.57
352.10	226.64
352.48	226.72
352.87	226.76
353.25	226.81
353.63	226.90
354.01	226.93
354.39	227.04
354.77	227.13
355.15	227.24
355.54	227.31
355.92	227.33
356.30	227.40
356.68	227.52
357.06	227.57
357.44	227.62
357.82	227.66
358.20	227.73
358.58	227.83
358.97	227.92
359.35	228.00
359.73	228.08
360.11	228.17
360.49	228.24
360.87	228.32
361.25	228.40
361.63	228.46
362.01	228.54
362.39	228.60
362.77	228.62
363.15	228.65
363.53	228.69
363.91	228.72
364.29	228.77
364.67	228.71
365.05	228.76
365.43	228.81
365.81	228.85
366.19	228.90
366.57	228.93
366.95	228.90
367.33	228.85
367.71	228.82
368.09	228.84
368.47	228.82
368.85	228.82
369.23	228.81
369.61	228.78
369.99	228.79
370.37	228.79
370.75	228.80
371.13	228.75
371.51	228.71
371.89	228.72
372.27	228.67
372.65	228.62
373.03	228.57
373.41	228.51
373.78	228.45
374.16	228.34
374.54	228.25
374.92	228.20
375.30	228.15
375.68	228.06
376.06	228.01
376.44	227.92
376.82	227.85
377.19	227.77
377.57	227.68
377.95	227.55
378.33	227.43
378.71	227.31
379.09	227.26
379.47	227.18
379.84	227.08
380.22	227.01
380.60	226.93
380.98	226.87
381.36	226.78
381.73	226.72
382.11	226.68
382.49	226.62
382.87	226.56
383.25	226.49
383.62	226.54
384.00	226.43
384.38	226.39
384.76	226.36
385.13	226.35
385.51	226.31
385.89	226.26
386.27	226.25
386.64	226.24
387.02	226.16
387.40	226.13
387.78	226.07
388.15	226.02
388.53	225.99
388.91	225.95
389.29	225.89
389.66	225.86
390.04	225.78
390.42	225.77
390.79	225.72
391.17	225.71
391.55	225.58
391.92	225.57
392.30	225.58
392.68	225.55
393.05	225.54
393.43	225.54
393.81	225.51
394.18	225.49
394.56	225.47
394.94	225.50
395.31	225.50
395.69	225.57
396.06	225.63
396.44	225.63
396.82	225.65
397.19	225.73
397.57	225.74
397.95	225.84
398.32	225.85
398.70	225.93
399.07	226.02
399.45	226.10
399.82	226.17
400.20	226.19
400.58	226.23
400.95	226.24
401.33	226.34
401.70	226.53
402.08	226.63
402.45	226.74
402.83	226.90
403.20	227.02
403.58	227.11
403.95	227.20
404.33	227.35
404.71	227.50
405.08	227.71
405.46	227.86
405.83	227.99
406.21	228.15
406.58	228.29
406.96	228.47
407.33	228.66
407.70	228.87
408.08	229.20
408.45	229.47
408.83	229.69
409.20	229.90
409.58	230.07
409.95	230.33
410.33	230.58
410.70	230.82
411.08	231.15
411.45	231.48
411.82	231.80
412.20	232.17
412.57	232.56
412.95	232.84
413.32	233.25
413.69	233.65
414.07	234.07
414.44	234.56
414.82	235.03
415.19	235.60
415.56	236.15
415.94	236.68
416.31	237.30
416.68	237.94
417.06	238.62
417.43	239.28
417.81	240.03
418.18	240.84
418.55	241.68
418.93	242.51
419.30	243.39
419.67	244.29
420.04	245.23
420.42	246.26
420.79	247.45
421.16	248.60
421.54	249.83
421.91	251.06
422.28	252.34
422.66	253.68
423.03	254.92
423.40	256.25
423.77	257.66
424.15	259.07
424.52	260.58
424.89	262.22
425.26	263.81
425.64	265.28
426.01	266.85
426.38	268.48
426.75	270.13
427.13	271.82
427.50	273.65
427.87	275.52
428.24	277.33
428.61	279.05
428.99	281.02
429.36	283.08
429.73	285.10
430.10	287.10
430.47	289.15
430.85	291.26
431.22	293.52
431.59	295.88
431.96	298.07
432.33	300.53
432.70	302.88
433.08	305.66
433.45	308.25
433.82	310.87
434.19	313.71
434.56	316.53
434.93	319.21
435.30	321.83
435.68	324.74
436.05	327.52
436.42	330.31
436.79	332.77
437.16	335.45
437.53	338.35
437.90	341.14
438.27	343.83
438.64	346.65
439.01	349.20
439.38	351.36
439.75	353.55
440.13	356.07
440.50	358.43
440.87	360.27
441.24	362.23
441.61	364.32
441.98	365.84
442.35	367.65
442.72	369.49
443.09	371.27
443.46	372.23
443.83	372.85
444.20	373.34
444.57	374.16
444.94	374.45
445.31	374.75
445.68	375.09
446.05	375.20
446.42	374.82
446.79	374.38
447.16	373.96
447.53	373.67
447.90	372.49
448.27	371.28
448.64	369.72
449.01	368.60
449.37	366.64
449.74	364.74
450.11	362.48
450.48	359.97
450.85	357.45
451.22	355.32
451.59	353.31
451.96	351.37
452.33	348.77
452.70	346.42
453.07	343.59
453.43	340.68
453.80	337.91
454.17	335.22
454.54	332.68
454.91	330.01
455.28	327.33
455.65	324.86
456.02	322.46
456.38	320.28
456.75	317.61
457.12	315.40
457.49	313.19
457.86	311.02
458.23	309.24
458.59	307.18
458.96	305.09
459.33	303.24
459.70	301.39
460.07	299.92
460.43	298.22
460.80	296.58
461.17	295.17
461.54	293.67
461.91	292.27
462.27	290.88
462.64	289.64
463.01	288.26
463.38	286.95
463.74	285.60
464.11	284.40
464.48	283.39
464.85	282.28
465.21	281.41
465.58	280.50
465.95	279.40
466.32	278.48
466.68	277.59
467.05	276.71
467.42	275.87
467.78	274.90
468.15	273.98
468.52	273.34
468.88	272.48
469.25	271.70
469.62	271.09
469.98	270.41
470.35	269.75
470.72	269.18
471.08	268.51
471.45	267.98
471.82	267.46
472.18	266.85
472.55	266.44
472.92	265.96
473.28	265.50
473.65	265.03
474.02	264.63
474.38	264.28
474.75	263.93
475.11	263.56
475.48	263.31
475.85	263.13
476.21	262.88
476.58	262.73
476.94	262.56
477.31	262.36
477.67	262.22
478.04	262.10
478.41	262.04
478.77	262.10
479.14	262.02
479.50	262.01
479.87	262.10
480.23	262.17
480.60	262.20
480.96	262.26
481.33	262.51
481.69	262.67
482.06	262.84
482.42	263.06
482.79	263.33
483.15	263.61
483.52	264.00
483.88	264.37
484.25	264.74
484.61	265.22
484.98	265.68
485.34	266.23
485.71	266.82
486.07	267.42
486.44	267.99
486.80	268.69
487.17	269.48
487.53	270.30
487.90	271.19
488.26	272.16
488.62	273.15
488.99	274.10
489.35	275.18
489.72	276.29
490.08	277.51
490.44	278.75
490.81	280.09
491.17	281.41
491.54	282.90
491.90	284.41
492.26	286.03
492.63	287.82
492.99	289.62
493.36	291.54
493.72	293.57
494.08	295.68
494.45	297.93
494.81	300.30
495.17	302.74
495.54	305.26
495.90	307.91
496.26	310.78
496.63	313.77
496.99	316.91
497.35	320.19
497.72	323.60
498.08	327.09
498.44	330.80
498.80	334.79
499.17	338.83
499.53	343.08
499.89	347.47
500.26	351.96
500.62	356.62
500.98	361.56
501.34	366.69
501.71	372.09
502.07	377.56
502.43	383.17
502.79	388.99
503.16	395.06
503.52	401.40
503.88	407.80
504.24	414.47
504.60	421.39
504.97	428.56
505.33	435.87
505.69	443.63
506.05	451.46
506.41	459.37
506.78	467.61
507.14	476.06
507.50	484.84
507.86	493.90
508.22	503.16
508.59	512.41
508.95	521.97
509.31	531.75
509.67	541.84
510.03	552.18
510.39	562.74
510.75	573.60
511.12	584.54
511.48	595.85
511.84	607.27
512.20	618.71
512.56	630.65
512.92	642.82
513.28	655.20
513.64	667.56
514.00	680.26
514.37	693.09
514.73	706.17
515.09	719.17
515.45	732.51
515.81	746.09
516.17	760.14
516.53	774.27
516.89	788.49
517.25	802.65
517.61	816.98
517.97	831.42
518.33	845.79
518.69	860.49
519.05	875.48
519.41	890.62
519.77	906.22
520.13	921.71
520.49	937.07
520.85	952.36
521.21	968.14
521.57	984.32
521.93	1000.12
522.29	1016.47
522.65	1032.71
523.01	1048.75
523.37	1064.67
523.73	1080.70
524.09	1096.71
524.45	1112.93
524.81	1129.52
525.17	1146.25
525.53	1163.05
525.89	1179.77
526.25	1196.67
526.61	1213.05
526.97	1229.75
527.33	1246.05
527.68	1262.59
528.04	1278.95
528.40	1295.48
528.76	1312.48
529.12	1328.97
529.48	1345.76
529.84	1361.70
530.20	1378.22
530.56	1395.16
530.91	1412.56
531.27	1429.28
531.63	1445.74
531.99	1462.15
532.35	1478.02
532.71	1493.84
533.07	1510.09
533.42	1525.97
533.78	1541.79
534.14	1557.84
534.50	1573.06
534.86	1588.96
535.21	1603.98
535.57	1619.86
535.93	1635.34
536.29	1650.05
536.65	1664.96
537.00	1679.63
537.36	1694.85
537.72	1709.38
538.08	1723.82
538.44	1737.52
538.79	1751.24
539.15	1764.73
539.51	1778.51
539.87	1792.86
540.22	1806.66
540.58	1820.26
540.94	1833.63
541.29	1846.50
541.65	1859.20
542.01	1872.47
542.37	1884.72
542.72	1897.17
543.08	1909.02
543.44	1921.34
543.79	1932.58
544.15	1943.64
544.51	1955.16
544.87	1966.12
545.22	1976.80
545.58	1986.90
545.94	1996.62
546.29	2006.58
546.65	2016.51
547.01	2025.70
547.36	2034.26
547.72	2042.66
548.07	2050.66
548.43	2058.67
548.79	2066.78
549.14	2074.25
549.50	2081.42
549.86	2089.02
550.21	2096.27
550.57	2103.27
550.92	2109.82
551.28	2116.92
551.64	2123.96
551.99	2130.56
552.35	2136.72
552.70	2142.88
553.06	2148.94
553.41	2155.24
553.77	2161.23
554.13	2167.23
554.48	2173.47
554.84	2179.05
555.19	2184.28
555.55	2189.27
555.90	2193.84
556.26	2198.60
556.61	2203.32
556.97	2207.71
557.32	2211.91
557.68	2216.07
558.03	2220.38
558.39	2224.14
558.74	2228.76
559.10	2232.66
559.45	2236.33
559.81	2240.67
560.16	2244.55
560.52	2247.71
560.87	2251.19
561.23	2253.92
561.58	2256.81
561.94	2259.17
562.29	2261.49
562.64	2264.16
563.00	2266.77
563.35	2270.25
563.71	2273.31
564.06	2276.57
564.42	2279.43
564.77	2281.93
565.12	2284.16
565.48	2286.12
565.83	2287.96
566.19	2289.17
566.54	2290.06
566.89	2291.23
567.25	2291.70
567.60	2292.89
567.96	2294.63
568.31	2295.43
568.66	2296.45
569.02	2297.03
569.37	2297.43
569.72	2298.37
570.08	2298.54
570.43	2298.71
570.78	2298.15
571.14	2296.66
571.49	2295.38
571.84	2295.07
572.20	2294.03
572.55	2293.23
572.90	2291.62
573.26	2290.34
573.61	2288.78
573.96	2286.95
574.31	2283.91
574.67	2281.10
575.02	2277.53
575.37	2274.26
575.72	2270.54
576.08	2267.25
576.43	2264.16
576.78	2260.53
577.13	2257.37
577.49	2254.40
577.84	2250.88
578.19	2247.27
578.54	2243.84
578.90	2239.70
579.25	2234.22
579.60	2229.11
579.95	2223.91
580.30	2219.02
580.66	2213.76
581.01	2208.82
581.36	2203.99
581.71	2199.89
582.06	2195.36
582.42	2190.98
582.77	2185.80
583.12	2181.30
583.47	2176.71
583.82	2171.66
584.17	2166.36
584.53	2160.95
584.88	2155.28
585.23	2149.58
585.58	2144.07
585.93	2138.57
586.28	2133.86
586.63	2128.79
586.98	2123.91
587.34	2119.32
587.69	2114.43
588.04	2109.17
588.39	2103.46
588.74	2097.14
589.09	2091.05
589.44	2084.23
589.79	2078.28
590.14	2072.58
590.49	2065.98
590.84	2059.59
591.19	2053.63
591.54	2047.16
591.89	2039.90
592.25	2033.17
592.60	2025.94
592.95	2018.47
593.30	2011.12
593.65	2003.59
594.00	1996.70
594.35	1989.51
594.70	1981.53
595.05	1974.31
595.40	1967.23
595.75	1959.77
596.10	1953.50
596.45	1946.84
596.80	1940.84
597.15	1934.25
597.50	1927.22
597.85	1920.87
598.19	1914.26
598.54	1907.06
598.89	1900.49
599.24	1894.56
599.59	1887.97
599.94	1881.87
600.29	1875.41
600.64	1868.93
600.99	1861.42
601.34	1854.51
601.69	1847.59
602.04	1840.67
602.39	1833.56
602.74	1826.76
603.08	1819.99
603.43	1813.32
603.78	1806.02
604.13	1798.79
604.48	1791.48
604.83	1784.61
605.18	1777.72
605.53	1769.76
605.87	1761.88
606.22	1754.73
606.57	1746.75
606.92	1739.36
607.27	1732.11
607.62	1725.27
607.96	1717.96
608.31	1711.40
608.66	1703.79
609.01	1696.24
609.36	1688.73
609.70	1680.62
610.05	1672.65
610.40	1664.97
610.75	1656.55
611.10	1648.81
611.44	1640.36
611.79	1632.45
612.14	1623.76
612.49	1614.51
612.83	1606.06
613.18	1597.94
613.53	1589.90
613.88	1581.31
614.22	1572.94
614.57	1564.38
614.92	1556.38
615.27	1548.77
615.61	1540.34
615.96	1532.27
616.31	1524.58
616.65	1517.15
617.00	1509.64
617.35	1501.81
617.70	1493.58
618.04	1485.13
618.39	1476.92
618.74	1469.32
619.08	1460.99
619.43	1453.38
619.78	1446.49
620.12	1439.31
620.47	1431.69
620.82	1423.47
621.16	1416.18
621.51	1408.66
621.85	1400.96
622.20	1392.45
622.55	1384.14
622.89	1376.34
623.24	1368.70
623.59	1361.25
623.93	1353.72
624.28	1346.47
624.62	1338.91
624.97	1331.69
625.32	1324.86
625.66	1317.88
626.01	1310.71
626.35	1303.17
626.70	1295.56
627.04	1287.76
627.39	1279.87
627.73	1272.51
628.08	1265.66
628.43	1258.39
628.77	1251.04
629.12	1243.61
629.46	1236.41
629.81	1228.88
630.15	1221.64
630.50	1214.22
630.84	1206.05
631.19	1198.10
631.53	1190.59
631.88	1183.02
632.22	1175.41
632.57	1168.23
632.91	1160.65
633.26	1153.20
633.60	1145.80
633.95	1138.54
634.29	1131.54
634.64	1125.08
634.98	1117.71
635.32	1110.38
635.67	1103.59
636.01	1096.99
636.36	1090.12
636.70	1083.54
637.05	1077.08
637.39	1070.62
637.73	1064.12
638.08	1058.31
638.42	1052.32
638.77	1045.85
639.11	1039.27
639.45	1032.83
639.80	1026.13
640.14	1019.69
640.49	1013.24
640.83	1006.98
641.17	1000.74
641.52	994.40
641.86	987.82
642.20	981.93
642.55	975.70
642.89	969.23
643.23	962.63
643.58	956.90
643.92	950.79
644.26	944.74
644.61	938.80
644.95	932.85
645.29	926.12
645.64	919.40
645.98	913.06
646.32	907.26
646.66	901.27
647.01	895.46
647.35	889.74
647.69	883.82
648.04	878.24
648.38	872.47
648.72	866.43
649.06	860.45
649.41	854.66
649.75	848.76
650.09	842.89
650.43	837.15
650.78	830.94
651.12	824.98
651.46	819.20
651.80	813.41
652.14	808.01
652.49	802.72
652.83	797.50
653.17	791.83
653.51	786.07
653.85	780.64
654.20	775.00
654.54	769.01
654.88	763.30
655.22	757.41
655.56	751.74
655.90	746.32
656.25	741.02
656.59	735.61
656.93	730.47
657.27	725.22
657.61	719.70
657.95	714.60
658.29	709.45
658.64	704.13
658.98	698.78
659.32	693.27
659.66	688.05
660.00	682.79
660.34	677.78
660.68	672.91
661.02	667.88
661.36	663.09
661.70	658.59
662.05	654.16
662.39	649.90
662.73	645.42
663.07	641.04
663.41	636.57
663.75	632.03
664.09	627.46
664.43	623.07
664.77	618.98
665.11	614.69
665.45	610.55
665.79	606.48
666.13	602.34
666.47	598.17
666.81	593.97
667.15	589.80
667.49	585.88
667.83	582.00
668.17	578.06
668.51	574.03
668.85	569.99
669.19	566.12
669.53	562.23
669.87	558.39
670.21	554.69
670.55	551.03
670.89	547.65
671.23	544.17
671.57	540.65
671.91	537.13
672.25	533.61
672.58	530.12
672.92	526.74
673.26	523.52
673.60	520.44
673.94	517.30
674.28	514.39
674.62	511.47
674.96	508.35
675.30	505.41
675.64	502.48
675.97	499.72
676.31	496.87
676.65	494.00
676.99	491.27
677.33	488.39
677.67	485.55
678.01	482.54
678.34	479.55
678.68	476.76
679.02	473.91
679.36	471.16
679.70	468.41
680.04	465.67
680.37	462.87
680.71	460.05
681.05	457.47
681.39	454.76
681.73	452.13
682.06	449.67
682.40	447.17
682.74	444.69
683.08	442.17
683.42	439.59
683.75	437.06
684.09	434.54
684.43	432.07
684.77	429.68
685.10	427.29
685.44	425.06
685.78	422.72
686.12	420.50
686.45	418.27
686.79	416.00
687.13	413.79
687.46	411.64
687.80	409.57
688.14	407.41
688.48	405.34
688.81	403.10
689.15	400.95
689.49	398.81
689.82	396.73
690.16	394.61
690.50	392.69
690.83	390.78
691.17	388.75
691.51	386.85
691.84	384.95
692.18	383.02
692.52	381.01
692.85	379.08
693.19	377.22
693.52	375.34
693.86	373.53
694.20	371.74
694.53	369.89
694.87	367.98
695.21	366.18
695.54	364.40
695.88	362.64
696.21	360.88
696.55	359.16
696.88	357.42
697.22	355.80
697.56	354.14
697.89	352.43
698.23	350.84
698.56	349.24
698.90	347.64
699.23	345.97
699.57	344.42
699.90	342.88
700.24	341.31
700.58	339.80
700.91	338.29
701.25	336.83
701.58	335.48
701.92	334.10
702.25	332.73
702.59	331.32
702.92	329.98
703.26	328.71
703.59	327.37
703.93	326.18
704.26	324.91
704.60	323.58
704.93	322.34
705.26	321.10
705.60	319.85
705.93	318.68
706.27	317.68
706.60	316.60
706.94	315.49
707.27	314.37
707.61	313.26
707.94	312.23
708.27	311.12
708.61	310.01
708.94	309.03
709.28	307.98
709.61	307.00
709.94	306.02
710.28	304.96
710.61	304.03
710.95	302.97
711.28	302.02
711.61	301.09
711.95	300.11
712.28	299.16
712.61	298.20
712.95	297.26
713.28	296.35
713.61	295.48
713.95	294.62
714.28	293.76
714.61	292.95
714.95	292.10
715.28	291.27
715.61	290.41
715.95	289.54
716.28	288.69
716.61	287.89
716.95	287.12
717.28	286.39
717.61	285.57
717.94	284.85
718.28	284.06
718.61	283.33
718.94	282.69
719.27	282.07
719.61	281.46
719.94	280.82
720.27	280.11
720.60	279.44
720.94	278.79
721.27	278.20
721.60	277.58
721.93	276.95
722.27	276.36
722.60	275.80
722.93	275.24
723.26	274.69
723.59	274.12
723.93	273.54
724.26	272.98
724.59	272.46
724.92	271.96
725.25	271.45
725.59	270.94
725.92	270.43
726.25	269.89
726.58	269.36
726.91	268.90
727.24	268.42
727.57	267.97
727.91	267.45
728.24	267.01
728.57	266.54
728.90	266.09
729.23	265.63
729.56	265.19
729.89	264.72
730.22	264.26
730.55	263.82
730.89	263.40
731.22	262.97
731.55	262.57
731.88	262.11
732.21	261.68
732.54	261.24
732.87	260.83
733.20	260.45
733.53	260.07
733.86	259.70
734.19	259.31
734.52	258.95
734.85	258.68
735.18	258.24
735.51	257.90
735.84	257.54
736.17	257.21
736.50	256.83
736.83	256.61
737.16	256.30
737.49	255.96
737.82	255.60
738.15	255.29
738.48	254.95
738.81	254.62
739.14	254.29
739.47	253.97
739.80	253.66
740.13	253.38
740.46	253.06
740.79	252.71
741.12	252.39
741.45	252.03
741.78	251.66
742.11	251.38
742.44	251.03
742.77	250.78
743.10	250.49
743.43	250.20
743.75	249.82
744.08	249.64
744.41	249.34
744.74	249.06
745.07	248.76
745.40	248.48
745.73	248.21
746.06	247.93
746.39	247.65
746.71	247.34
747.04	247.04
747.37	246.76
747.70	246.50
748.03	246.21
748.36	246.01
748.68	245.79
749.01	245.55
749.34	245.30
749.67	245.02
750.00	244.75
750.33	244.59
750.65	244.36
750.98	244.01
751.31	243.81
751.64	243.62
751.97	243.46
752.29	243.26
752.62	243.02
752.95	242.83
753.28	242.62
753.60	242.40
753.93	242.21
754.26	242.05
754.59	241.80
754.91	241.59
755.24	241.38
755.57	241.17
755.90	240.95
756.22	240.76
756.55	240.58
756.88	240.39
757.20	240.14
757.53	239.94
757.86	239.76
758.19	239.60
758.51	239.39
758.84	239.14
759.17	238.92
759.49	238.77
759.82	238.64
760.15	238.49
760.47	238.37
760.80	238.18
761.13	238.01
761.45	237.90
761.78	237.77
762.11	237.65
762.43	237.48
762.76	237.34
763.08	237.19
763.41	237.07
763.74	236.94
764.06	236.80
764.39	236.68
764.71	236.54
765.04	236.39
765.37	236.25
765.69	236.16
766.02	236.03
766.34	235.89
766.67	235.79
767.00	235.65
767.32	235.59
767.65	235.59
767.97	235.50
768.30	235.39
768.62	235.28
768.95	235.15
769.27	235.04
769.60	234.97
769.92	234.86
770.25	234.76
770.57	234.63
770.90	234.52
771.22	234.41
771.55	234.35
771.87	234.25
772.20	234.18
772.52	234.16
772.85	234.24
773.17	234.18
773.50	234.04
773.82	233.96
774.15	233.82
774.47	233.65
774.80	233.52
775.12	233.44
775.45	233.38
775.77	233.31
776.09	233.22
776.42	233.12
776.74	233.08
777.07	233.00
777.39	232.93
777.72	232.85
778.04	232.77
778.36	232.66
778.69	232.60
779.01	232.54
779.33	232.40
779.66	232.19
779.98	232.11
780.31	232.04
780.63	232.02
780.95	231.96
781.28	231.87
781.60	231.84
781.92	231.76
782.25	231.67
782.57	231.59
782.89	231.55
783.22	231.50
783.54	231.40
783.86	231.32
784.19	231.26
784.51	231.25
784.83	231.19
785.16	231.15
785.48	231.12
785.80	231.07
786.12	231.01
786.45	230.97
786.77	230.92
787.09	230.87
787.42	230.79
787.74	230.76
788.06	230.74
788.38	230.68
788.71	230.62
789.03	230.60
789.35	230.58
789.67	230.50
789.99	230.49
790.32	230.44
790.64	230.44
790.96	230.47
791.28	230.39
791.61	230.39
791.93	230.36
792.25	230.29
792.57	230.34
792.89	230.29
793.21	230.26
793.54	230.25
793.86	230.22
794.18	230.17
794.50	230.08
794.82	230.06
795.14	230.02
795.47	230.02
795.79	229.98
796.11	229.93
796.43	229.90
796.75	229.87
797.07	229.87
797.39	229.82
797.71	229.76
798.04	229.72
798.36	229.67
798.68	229.66
799.00	229.65
799.32	229.52
799.64	229.48
799.96	229.43
800.28	229.39
800.60	229.37
800.92	229.41
801.24	229.39
801.56	229.37
801.89	229.33
802.21	229.32
802.53	229.30
802.85	229.29
803.17	229.32
803.49	229.25
803.81	229.20
804.13	229.15
804.45	229.11
804.77	229.11
805.09	229.09
805.41	229.01
805.73	228.95
806.05	228.95
806.37	228.95
806.69	228.93
807.01	228.89
807.33	228.87
807.65	228.81
807.97	228.84
808.28	228.78
808.60	228.78
808.92	228.74
809.24	228.73
809.56	228.67
809.88	228.61
810.20	228.63
810.52	228.64
810.84	228.59
811.16	228.52
811.48	228.48
811.80	228.50
812.12	228.53
812.43	228.54
812.75	228.50
813.07	228.48
813.39	228.48
813.71	228.45
814.03	228.39
814.35	228.33
814.67	228.26
814.98	228.25
815.30	228.23
815.62	228.18
815.94	228.12
816.26	228.16
816.58	228.14
816.89	228.08
817.21	228.04
817.53	228.02
817.85	228.03
818.17	228.02
818.48	227.93
818.80	227.91
819.12	227.87
819.44	227.85
819.76	227.81
820.07	227.75
820.39	227.70
820.71	227.70
821.03	227.70
821.34	227.69
821.66	227.68
821.98	227.67
822.30	227.65
822.61	227.70
822.93	227.62
823.25	227.58
823.57	227.57
823.88	227.60
824.20	227.60
824.52	227.59
824.83	227.56
825.15	227.51
825.47	227.48
825.79	227.46
826.10	227.43
826.42	227.38
826.74	227.37
827.05	227.37
827.37	227.37
827.69	227.31
828.00	227.30
828.32	227.29
828.64	227.25
828.95	227.27
829.27	227.23
829.58	227.23
829.90	227.23
830.22	227.22
830.53	227.17
830.85	227.15
831.17	227.14
831.48	227.15
831.80	227.16
832.11	227.14
832.43	227.10
832.75	227.08
833.06	227.17
833.38	227.14
833.69	227.12
834.01	227.11
834.32	227.14
834.64	227.10
834.96	227.07
835.27	227.03
835.59	227.01
835.90	226.98
836.22	226.96
836.53	226.93
836.85	226.92
837.16	227.00
837.48	227.01
837.79	227.01
838.11	227.00
838.42	227.01
838.74	227.02
839.05	227.02
839.37	227.01
839.68	226.92
840.00	226.91
840.31	226.95
840.63	226.91
840.94	226.91
841.26	226.89
841.57	226.91
841.88	226.95
842.20	226.96
842.51	226.95
842.83	226.95
843.14	227.07
843.46	227.05
843.77	227.01
844.08	226.99
844.40	226.95
844.71	226.95
845.03	226.95
845.34	226.95
845.65	226.93
845.97	226.96
846.28	226.98
846.60	227.00
846.91	227.00
847.22	227.01
847.54	227.02
847.85	227.04
848.16	227.02
848.48	227.00
848.79	226.99
849.10	227.00
849.42	226.98
849.73	226.87
850.04	226.86
850.36	226.82
850.67	226.80
850.98	226.81
851.30	226.80
851.61	226.77
851.92	226.76
852.23	226.78
852.55	226.78
852.86	226.80
853.17	226.79
853.49	226.79
853.80	226.80
854.11	226.77
854.42	226.78
854.74	226.77
855.05	226.74
855.36	226.68
855.67	226.65
855.99	226.66
856.30	226.77
856.61	226.75
856.92	226.72
857.23	226.71
857.55	226.70
857.86	226.70
858.17	226.71
858.48	226.69
858.79	226.68
859.11	226.66
859.42	226.63
859.73	226.62
860.04	226.63
860.35	226.58
860.66	226.57
860.98	226.55
861.29	226.55
861.60	226.56
861.91	226.60
862.22	226.62
862.53	226.61
862.84	226.49
863.16	226.57
863.47	226.54
863.78	226.56
864.09	226.54
864.40	226.55
864.71	226.55
865.02	226.56
865.33	226.55
865.64	226.54
865.95	226.54
866.27	226.58
866.58	226.52
866.89	226.54
867.20	226.53
867.51	226.50
867.82	226.52
868.13	226.54
868.44	226.53
868.75	226.51
869.06	226.49
869.37	226.49
869.68	226.46
869.99	226.49
870.30	226.47
870.61	226.47
870.92	226.46
871.23	226.45
871.54	226.46
871.85	226.46
872.16	226.51
872.47	226.48
872.78	226.43
873.09	226.46
873.40	226.44
873.71	226.45
874.02	226.45
874.33	226.42
874.64	226.42
874.95	226.44
875.26	226.43
875.56	226.45
875.87	226.47
876.18	226.45
876.49	226.55
876.80	226.54
877.11	226.55
877.42	226.52
877.73	226.52
878.04	226.50
878.35	226.51
878.66	226.50
878.96	226.52
879.27	226.53
879.58	226.56
879.89	226.59
880.20	226.60
880.51	226.64
880.82	226.64
881.12	226.65
881.43	226.61
881.74	226.61
882.05	226.59
882.36	226.57
882.67	226.55
882.97	226.44
883.28	226.46
883.59	226.44
883.90	226.47
884.21	226.48
884.51	226.49
884.82	226.49
885.13	226.48
885.44	226.50
885.74	226.49
886.05	226.47
886.36	226.42
886.67	226.41
886.98	226.43
887.28	226.46
887.59	226.43
887.90	226.46
888.20	226.47
888.51	226.48
888.82	226.50
889.13	226.51
889.43	226.59
889.74	226.59
890.05	226.57
890.35	226.55
890.66	226.54
890.97	226.53
891.28	226.48
891.58	226.46
891.89	226.42
892.20	226.42
892.50	226.40
892.81	226.42
893.12	226.43
893.42	226.35
893.73	226.32
894.04	226.30
894.34	226.26
894.65	226.25
894.95	226.22
895.26	226.22
895.57	226.26
895.87	226.20
896.18	226.17
896.48	226.20
896.79	226.20
897.10	226.20
897.40	226.18
897.71	226.20
898.01	226.17
898.32	226.17
898.63	226.15
898.93	226.15
899.24	226.13
899.54	226.09
899.85	226.10
900.15	226.10
900.46	226.10
900.76	226.16
901.07	226.12
901.38	226.15
901.68	226.16
901.99	226.11
902.29	226.11
902.60	226.10
902.90	226.08
903.21	226.09
903.51	226.08
903.82	226.11
904.12	226.12
904.43	226.16
904.73	226.19
905.03	226.21
905.34	226.32
905.64	226.30
905.95	226.35
906.25	226.34
906.56	226.37
906.86	226.38
907.17	226.36
907.47	226.39
907.77	226.38
908.08	226.36
908.38	226.36
908.69	226.35
908.99	226.41
909.30	226.43
909.60	226.41
909.90	226.42
910.21	226.41
910.51	226.40
910.81	226.42
911.12	226.41
911.42	226.39
911.73	226.31
912.03	226.33
912.33	226.35
912.64	226.38
912.94	226.36
913.24	226.38
913.55	226.37
913.85	226.38
914.15	226.41
914.46	226.45
914.76	226.46
915.06	226.47
915.37	226.47
915.67	226.47
915.97	226.48
916.27	226.50
916.58	226.49
916.88	226.48
917.18	226.46
917.49	226.54
917.79	226.53
918.09	226.53
918.39	226.58
918.70	226.53
919.00	226.53
919.30	226.60
919.60	226.58
919.91	226.58
920.21	226.58
920.51	226.53
920.81	226.52
921.12	226.50
921.42	226.49
921.72	226.51
922.02	226.50
922.32	226.50
922.63	226.46
922.93	226.53
923.23	226.56
923.53	226.55
923.83	226.48
924.13	226.50
924.44	226.49
924.74	226.51
925.04	226.53
925.34	226.53
925.64	226.47
925.94	226.49
926.24	226.52
926.55	226.52
926.85	226.52
927.15	226.49
927.45	226.49
927.75	226.47
928.05	226.44
928.35	226.43
928.65	226.45
928.95	226.48
929.26	226.44
929.56	226.41
929.86	226.43
930.16	226.43
930.46	226.39
930.76	226.37
931.06	226.29
931.36	226.24
931.66	226.24
931.96	226.24
932.26	226.23
932.56	226.18
932.86	226.18
933.16	226.20
933.46	226.18
933.76	226.18
934.06	226.19
934.36	226.22
934.66	226.19
934.96	226.17
935.26	226.14
935.56	226.13
935.86	226.14
936.16	226.11
936.46	226.06
936.76	226.08
937.06	226.08
937.36	226.09
937.66	226.12
937.96	226.10
938.26	226.07
938.56	226.06
938.86	226.07
939.16	226.06
939.46	226.07
939.76	226.10
940.06	226.07
940.35	226.05
940.65	225.97
940.95	226.02
941.25	225.99
941.55	225.99
941.85	225.99
942.15	226.00
942.45	226.03
942.75	226.05
943.04	226.06
943.34	226.07
943.64	226.10
943.94	226.08
944.24	226.11
944.54	226.13
944.84	226.12
945.13	226.11
945.43	226.10
945.73	226.09
946.03	226.06
946.33	226.04
946.62	226.06
946.92	226.07
947.22	226.06
947.52	226.09
947.82	226.12
948.11	226.09
948.41	226.07
948.71	226.05
949.01	226.08
949.31	226.04
949.60	226.04
949.90	226.02
950.20	226.03
950.50	226.01
950.79	225.99
951.09	226.03
951.39	226.01
951.69	225.99
951.98	226.01
952.28	226.03
952.58	226.05
952.87	226.05
953.17	226.11
953.47	226.10
953.76	226.08
954.06	226.05
954.36	226.08
954.66	226.04
954.95	226.08
955.25	226.06
955.55	226.12
955.84	226.09
956.14	226.08
956.44	226.09
956.73	226.07
957.03	226.09
957.32	226.10
957.62	226.11
957.92	226.13
958.21	226.12
958.51	226.24
958.81	226.26
959.10	226.30
959.40	226.31
959.69	226.29
959.99	226.32
960.29	226.34
960.58	226.31
960.88	226.38
961.17	226.34
961.47	226.37
961.76	226.34
962.06	226.37
962.36	226.41
962.65	226.40
962.95	226.38
963.24	226.37
963.54	226.36
963.83	226.34
964.13	226.34
964.42	226.35
964.72	226.26
965.01	226.26
965.31	226.22
965.60	226.20
965.90	226.29
966.19	226.28
966.49	226.30
966.78	226.27
967.08	226.27
967.37	226.28
967.67	226.24
967.96	226.27
968.26	226.25
968.55	226.22
968.85	226.22
969.14	226.23
969.43	226.21
969.73	226.17
970.02	226.19
970.32	226.18
970.61	226.13
970.91	226.07
971.20	226.05
971.49	226.03
971.79	226.00
972.08	225.92
972.38	225.90
972.67	225.86
972.96	225.90
973.26	225.89
973.55	225.93
973.85	225.91
974.14	225.89
974.43	225.92
974.73	225.89
975.02	225.89
975.31	225.88
975.61	225.91
975.90	225.91
976.19	225.90
976.49	225.92
976.78	225.95
977.07	225.95
977.37	225.96
977.66	225.98
977.95	225.96
978.24	225.96
978.54	226.00
978.83	226.01
979.12	225.97
979.42	225.94
979.71	225.89
980.00	225.91
980.29	225.91
980.59	225.85
980.88	225.90
981.17	225.91
981.46	225.92
981.76	225.89
982.05	225.92
982.34	225.96
982.63	225.95
982.93	225.92
983.22	225.96
983.51	225.94
983.80	225.97
984.09	225.99
984.39	226.00
984.68	225.96
984.97	225.94
985.26	225.95
985.55	225.95
985.85	225.97
986.14	225.98
986.43	226.00
986.72	226.00
987.01	225.96
987.30	225.96
987.59	225.97
987.89	225.99
988.18	225.95
988.47	225.92
988.76	225.92
989.05	225.92
989.34	225.91
989.63	225.98
989.92	225.96
990.22	225.93
990.51	225.92
990.80	225.94
991.09	225.98
991.38	226.02
991.67	226.02
991.96	226.00
992.25	226.02
992.54	226.00
992.83	226.03
993.12	226.02
993.41	226.02
993.70	226.05
993.99	226.07
994.28	226.08
994.58	226.09
994.87	226.06
995.16	226.05
995.45	226.07
995.74	226.02
996.03	226.02
996.32	226.04
996.61	226.06
996.90	226.06
997.19	226.04
997.48	226.01
997.77	226.02
998.06	226.00
998.34	226.02
998.63	226.03
998.92	226.04
999.21	226.06
999.50	226.04
999.79	226.01
1000.08	226.05
1000.37	226.06
1000.66	226.06
1000.95	226.09
1001.24	226.12
1001.53	226.11
1001.82	226.11
1002.11	226.11
1002.40	226.17
1002.68	226.17
1002.97	226.25
1003.26	226.24
1003.55	226.24
1003.84	226.23
1004.13	226.27
1004.42	226.24
1004.71	226.20
1004.99	226.16
1005.28	226.18
1005.57	226.18
1005.86	226.19
1006.15	226.13
1006.44	226.10
1006.72	226.10
1007.01	226.11
1007.30	226.10
1007.59	226.08
1007.88	226.07
1008.17	226.05
1008.45	225.98
1008.74	225.96
1009.03	225.91
1009.32	225.92
1009.60	225.92
1009.89	225.90
1010.18	225.89
1010.47	225.89
1010.76	225.89
1011.04	225.89
1011.33	225.90
1011.62	225.93
1011.91	225.95
1012.19	225.96
1012.48	225.97
1012.77	225.97
1013.05	226.02
1013.34	226.02
1013.63	226.03
1013.92	226.03
1014.20	226.05
1014.49	226.06
1014.78	226.05
1015.06	226.02
1015.35	226.02
1015.64	226.01
1015.92	226.05
1016.21	226.02
1016.50	225.98
1016.78	226.01
1017.07	226.03
1017.36	226.01
1017.64	225.98
1017.93	225.94
1018.22	225.92
1018.50	225.94
1018.79	225.94
1019.08	225.88
1019.36	225.86
1019.65	225.84
1019.93	225.87
1020.22	225.84
1020.51	225.89
1020.79	225.89
1021.08	225.64
1021.36	225.83
1021.65	226.03
1021.94	225.77
1022.22	225.73
1022.51	225.75
1022.79	226.34
1023.08	225.65
1023.36	226.88
1023.65	225.90
>>>>>End Processed Spectral Data<<<<<
