SpectraSuite Data File
++++++++++++++++++++++++++++++++++++
Date: Fri Feb 01 17:06:54 EST 2013
User: group
Dark Spectrum Present: No
Reference Spectrum Present: No
Number of Sampled Component Spectra: 1
Spectrometers: USB2E7196
Integration Time (usec): 35000 (USB2E7196)
Spectra Averaged: 100 (USB2E7196)
Boxcar Smoothing: 10 (USB2E7196)
Correct for Electrical Dark: No (USB2E7196)
Strobe/Lamp Enabled: No (USB2E7196)
Correct for Detector Non-linearity: No (USB2E7196)
Correct for Stray Light: No (USB2E7196)
Number of Pixels in Processed Spectrum: 2048
>>>>>Begin Processed Spectral Data<<<<<
339.09	0.00
339.48	213.26
339.86	214.69
340.24	216.21
340.63	217.48
341.01	220.07
341.39	220.31
341.78	221.42
342.16	223.12
342.54	223.45
342.93	211.71
343.31	222.41
343.69	222.93
344.07	223.40
344.46	223.83
344.84	224.20
345.22	224.44
345.60	224.67
345.99	224.85
346.37	224.95
346.75	225.01
347.13	225.06
347.52	225.10
347.90	225.19
348.28	225.17
348.66	225.24
349.05	225.23
349.43	225.28
349.81	225.31
350.19	225.34
350.57	225.39
350.96	225.43
351.34	225.48
351.72	225.58
352.10	225.66
352.48	225.72
352.87	225.76
353.25	225.82
353.63	225.90
354.01	225.96
354.39	226.04
354.77	226.15
355.15	226.28
355.54	226.35
355.92	226.36
356.30	226.48
356.68	226.64
357.06	226.70
357.44	226.78
357.82	226.86
358.20	226.93
358.58	226.99
358.97	227.08
359.35	227.19
359.73	227.29
360.11	227.35
360.49	227.42
360.87	227.48
361.25	227.61
361.63	227.67
362.01	227.75
362.39	227.77
362.77	227.83
363.15	227.83
363.53	227.86
363.91	227.92
364.29	227.96
364.67	227.87
365.05	227.91
365.43	227.90
365.81	227.93
366.19	227.99
366.57	228.04
366.95	228.01
367.33	228.00
367.71	227.97
368.09	227.97
368.47	227.96
368.85	227.94
369.23	227.91
369.61	227.90
369.99	227.89
370.37	227.91
370.75	227.92
371.13	227.89
371.51	227.83
371.89	227.77
372.27	227.73
372.65	227.70
373.03	227.65
373.41	227.59
373.78	227.53
374.16	227.43
374.54	227.34
374.92	227.30
375.30	227.21
375.68	227.14
376.06	227.09
376.44	227.03
376.82	227.01
377.19	226.90
377.57	226.81
377.95	226.71
378.33	226.62
378.71	226.49
379.09	226.43
379.47	226.38
379.84	226.30
380.22	226.22
380.60	226.12
380.98	226.07
381.36	226.00
381.73	225.92
382.11	225.88
382.49	225.81
382.87	225.74
383.25	225.71
383.62	225.75
384.00	225.68
384.38	225.64
384.76	225.57
385.13	225.57
385.51	225.48
385.89	225.42
386.27	225.37
386.64	225.37
387.02	225.32
387.40	225.28
387.78	225.28
388.15	225.23
388.53	225.20
388.91	225.15
389.29	225.10
389.66	225.08
390.04	225.03
390.42	225.00
390.79	224.95
391.17	224.89
391.55	224.79
391.92	224.80
392.30	224.78
392.68	224.74
393.05	224.70
393.43	224.74
393.81	224.75
394.18	224.73
394.56	224.75
394.94	224.79
395.31	224.78
395.69	224.83
396.06	224.87
396.44	224.91
396.82	224.92
397.19	225.02
397.57	225.03
397.95	225.07
398.32	225.10
398.70	225.16
399.07	225.25
399.45	225.28
399.82	225.30
400.20	225.36
400.58	225.41
400.95	225.45
401.33	225.52
401.70	225.66
402.08	225.75
402.45	225.83
402.83	225.92
403.20	226.04
403.58	226.12
403.95	226.26
404.33	226.38
404.71	226.51
405.08	226.68
405.46	226.82
405.83	226.98
406.21	227.16
406.58	227.32
406.96	227.45
407.33	227.65
407.70	227.84
408.08	228.12
408.45	228.32
408.83	228.58
409.20	228.76
409.58	228.93
409.95	229.21
410.33	229.44
410.70	229.67
411.08	229.98
411.45	230.28
411.82	230.56
412.20	230.89
412.57	231.30
412.95	231.61
413.32	232.00
413.69	232.40
414.07	232.85
414.44	233.32
414.82	233.81
415.19	234.37
415.56	234.92
415.94	235.44
416.31	236.12
416.68	236.76
417.06	237.50
417.43	238.16
417.81	238.89
418.18	239.69
418.55	240.53
418.93	241.37
419.30	242.25
419.67	243.21
420.04	244.17
420.42	245.15
420.79	246.31
421.16	247.48
421.54	248.69
421.91	249.88
422.28	251.15
422.66	252.49
423.03	253.78
423.40	255.06
423.77	256.47
424.15	257.90
424.52	259.31
424.89	260.89
425.26	262.46
425.64	263.93
426.01	265.51
426.38	267.12
426.75	268.79
427.13	270.48
427.50	272.22
427.87	274.06
428.24	275.92
428.61	277.67
428.99	279.61
429.36	281.69
429.73	283.73
430.10	285.67
430.47	287.71
430.85	289.80
431.22	292.04
431.59	294.38
431.96	296.56
432.33	299.03
432.70	301.39
433.08	304.13
433.45	306.71
433.82	309.24
434.19	312.16
434.56	314.96
434.93	317.58
435.30	320.18
435.68	323.03
436.05	325.79
436.42	328.46
436.79	330.93
437.16	333.58
437.53	336.40
437.90	339.23
438.27	341.91
438.64	344.69
439.01	347.25
439.38	349.49
439.75	351.66
440.13	354.14
440.50	356.47
440.87	358.32
441.24	360.33
441.61	362.52
441.98	363.99
442.35	365.72
442.72	367.61
443.09	369.39
443.46	370.40
443.83	371.02
444.20	371.59
444.57	372.41
444.94	372.75
445.31	373.07
445.68	373.42
446.05	373.52
446.42	373.17
446.79	372.84
447.16	372.39
447.53	372.09
447.90	371.02
448.27	369.86
448.64	368.34
449.01	367.21
449.37	365.27
449.74	363.42
450.11	361.24
450.48	358.84
450.85	356.39
451.22	354.30
451.59	352.32
451.96	350.43
452.33	347.88
452.70	345.50
453.07	342.70
453.43	339.82
453.80	337.08
454.17	334.42
454.54	331.88
454.91	329.18
455.28	326.49
455.65	323.98
456.02	321.58
456.38	319.45
456.75	316.76
457.12	314.51
457.49	312.29
457.86	310.15
458.23	308.26
458.59	306.27
458.96	304.16
459.33	302.31
459.70	300.43
460.07	298.94
460.43	297.27
460.80	295.67
461.17	294.24
461.54	292.79
461.91	291.40
462.27	289.98
462.64	288.74
463.01	287.46
463.38	286.16
463.74	284.78
464.11	283.62
464.48	282.65
464.85	281.55
465.21	280.63
465.58	279.72
465.95	278.66
466.32	277.75
466.68	276.93
467.05	276.05
467.42	275.18
467.78	274.27
468.15	273.40
468.52	272.75
468.88	271.92
469.25	271.13
469.62	270.52
469.98	269.87
470.35	269.24
470.72	268.64
471.08	268.02
471.45	267.55
471.82	267.02
472.18	266.44
472.55	266.07
472.92	265.59
473.28	265.12
473.65	264.59
474.02	264.15
474.38	263.74
474.75	263.41
475.11	263.06
475.48	262.82
475.85	262.57
476.21	262.34
476.58	262.19
476.94	262.08
477.31	261.93
477.67	261.73
478.04	261.63
478.41	261.55
478.77	261.60
479.14	261.50
479.50	261.55
479.87	261.60
480.23	261.64
480.60	261.71
480.96	261.84
481.33	262.13
481.69	262.36
482.06	262.57
482.42	262.79
482.79	263.06
483.15	263.36
483.52	263.75
483.88	264.10
484.25	264.45
484.61	264.88
484.98	265.31
485.34	265.91
485.71	266.52
486.07	267.15
486.44	267.69
486.80	268.39
487.17	269.11
487.53	269.94
487.90	270.79
488.26	271.74
488.62	272.75
488.99	273.71
489.35	274.72
489.72	275.85
490.08	277.04
490.44	278.26
490.81	279.59
491.17	280.95
491.54	282.43
491.90	283.98
492.26	285.63
492.63	287.36
492.99	289.14
493.36	291.03
493.72	293.07
494.08	295.17
494.45	297.42
494.81	299.74
495.17	302.15
495.54	304.72
495.90	307.38
496.26	310.15
496.63	313.12
496.99	316.24
497.35	319.48
497.72	322.89
498.08	326.42
498.44	330.07
498.80	333.97
499.17	338.00
499.53	342.16
499.89	346.52
500.26	350.98
500.62	355.62
500.98	360.53
501.34	365.58
501.71	370.87
502.07	376.24
502.43	381.79
502.79	387.58
503.16	393.59
503.52	399.84
503.88	406.16
504.24	412.72
504.60	419.51
504.97	426.57
505.33	433.82
505.69	441.45
506.05	449.18
506.41	457.00
506.78	465.05
507.14	473.37
507.50	481.89
507.86	490.79
508.22	499.85
508.59	508.91
508.95	518.30
509.31	528.00
509.67	538.02
510.03	548.20
510.39	558.56
510.75	569.18
511.12	579.95
511.48	591.09
511.84	602.37
512.20	613.72
512.56	625.53
512.92	637.46
513.28	649.58
513.64	661.81
514.00	674.28
514.37	687.03
514.73	699.86
515.09	712.74
515.45	725.87
515.81	739.22
516.17	752.93
516.53	766.84
516.89	780.76
517.25	794.62
517.61	808.83
517.97	823.00
518.33	837.22
518.69	851.72
519.05	866.38
519.41	881.19
519.77	896.45
520.13	911.53
520.49	926.67
520.85	941.72
521.21	957.14
521.57	973.14
521.93	988.57
522.29	1004.52
522.65	1020.49
523.01	1036.26
523.37	1051.98
523.73	1067.92
524.09	1083.67
524.45	1099.56
524.81	1115.80
525.17	1132.07
525.53	1148.60
525.89	1165.02
526.25	1181.45
526.61	1197.54
526.97	1213.90
527.33	1230.00
527.68	1246.28
528.04	1262.39
528.40	1278.56
528.76	1295.18
529.12	1311.35
529.48	1327.80
529.84	1343.53
530.20	1359.67
530.56	1376.16
530.91	1393.06
531.27	1409.28
531.63	1425.35
531.99	1441.54
532.35	1457.20
532.71	1472.76
533.07	1488.49
533.42	1504.08
533.78	1519.84
534.14	1535.55
534.50	1550.61
534.86	1566.05
535.21	1580.78
535.57	1596.25
535.93	1611.36
536.29	1625.82
536.65	1640.30
537.00	1654.56
537.36	1669.54
537.72	1683.73
538.08	1697.94
538.44	1711.35
538.79	1725.03
539.15	1738.29
539.51	1751.57
539.87	1765.60
540.22	1779.00
540.58	1792.52
540.94	1805.46
541.29	1817.92
541.65	1830.37
542.01	1843.21
542.37	1855.22
542.72	1867.21
543.08	1878.72
543.44	1890.85
543.79	1901.84
544.15	1912.60
544.51	1923.89
544.87	1934.61
545.22	1945.14
545.58	1955.25
545.94	1964.92
546.29	1974.57
546.65	1984.33
547.01	1993.55
547.36	2001.96
547.72	2010.23
548.07	2017.98
548.43	2025.92
548.79	2033.63
549.14	2041.17
549.50	2048.27
549.86	2055.83
550.21	2063.17
550.57	2070.29
550.92	2076.79
551.28	2083.65
551.64	2090.76
551.99	2097.30
552.35	2103.40
552.70	2109.48
553.06	2115.38
553.41	2121.68
553.77	2127.65
554.13	2133.60
554.48	2139.66
554.84	2145.31
555.19	2150.56
555.55	2155.77
555.90	2160.34
556.26	2165.34
556.61	2169.98
556.97	2174.52
557.32	2178.76
557.68	2182.90
558.03	2186.97
558.39	2190.60
558.74	2195.38
559.10	2199.27
559.45	2203.08
559.81	2207.44
560.16	2211.41
560.52	2214.77
560.87	2218.21
561.23	2220.97
561.58	2223.89
561.94	2226.49
562.29	2228.69
562.64	2231.57
563.00	2234.20
563.35	2237.64
563.71	2240.82
564.06	2244.15
564.42	2247.12
564.77	2249.81
565.12	2252.44
565.48	2254.70
565.83	2256.88
566.19	2258.41
566.54	2259.41
566.89	2260.74
567.25	2261.45
567.60	2262.85
567.96	2264.67
568.31	2265.54
568.66	2266.85
569.02	2267.68
569.37	2268.35
569.72	2269.59
570.08	2270.00
570.43	2270.13
570.78	2270.08
571.14	2268.90
571.49	2267.67
571.84	2267.41
572.20	2266.38
572.55	2265.35
572.90	2263.88
573.26	2262.70
573.61	2261.01
573.96	2259.63
574.31	2256.86
574.67	2254.01
575.02	2250.60
575.37	2247.43
575.72	2244.16
576.08	2240.86
576.43	2237.75
576.78	2234.29
577.13	2231.10
577.49	2227.87
577.84	2224.73
578.19	2220.92
578.54	2217.52
578.90	2213.65
579.25	2208.41
579.60	2203.81
579.95	2198.99
580.30	2194.31
580.66	2189.32
581.01	2184.59
581.36	2179.85
581.71	2175.85
582.06	2171.84
582.42	2167.68
582.77	2162.68
583.12	2158.30
583.47	2153.94
583.82	2149.35
584.17	2144.30
584.53	2139.16
584.88	2134.04
585.23	2128.59
585.58	2123.36
585.93	2118.04
586.28	2113.41
586.63	2108.62
586.98	2103.59
587.34	2099.14
587.69	2094.33
588.04	2089.35
588.39	2083.95
588.74	2077.58
589.09	2071.64
589.44	2065.04
589.79	2059.05
590.14	2053.60
590.49	2047.14
590.84	2040.84
591.19	2034.86
591.54	2028.61
591.89	2021.59
592.25	2015.10
592.60	2008.11
592.95	2000.88
593.30	1993.75
593.65	1986.39
594.00	1979.44
594.35	1972.48
594.70	1964.72
595.05	1957.99
595.40	1950.98
595.75	1943.71
596.10	1937.83
596.45	1931.52
596.80	1925.41
597.15	1919.11
597.50	1912.35
597.85	1906.10
598.19	1899.74
598.54	1893.01
598.89	1886.58
599.24	1880.82
599.59	1874.30
599.94	1868.06
600.29	1861.76
600.64	1855.35
600.99	1848.08
601.34	1841.46
601.69	1834.64
602.04	1827.86
602.39	1820.55
602.74	1813.84
603.08	1807.20
603.43	1800.51
603.78	1793.13
604.13	1786.08
604.48	1778.95
604.83	1772.19
605.18	1765.41
605.53	1757.60
605.87	1749.63
606.22	1742.48
606.57	1734.60
606.92	1727.32
607.27	1720.54
607.62	1713.95
607.96	1706.97
608.31	1700.56
608.66	1693.21
609.01	1685.77
609.36	1678.40
609.70	1670.44
610.05	1662.39
610.40	1654.91
610.75	1646.70
611.10	1639.25
611.44	1630.87
611.79	1622.96
612.14	1614.31
612.49	1605.27
612.83	1596.86
613.18	1588.66
613.53	1580.60
613.88	1572.12
614.22	1563.90
614.57	1555.18
614.92	1547.14
615.27	1539.58
615.61	1531.33
615.96	1523.27
616.31	1515.74
616.65	1508.48
617.00	1501.03
617.35	1493.39
617.70	1485.20
618.04	1476.92
618.39	1468.64
618.74	1461.18
619.08	1452.99
619.43	1445.41
619.78	1438.43
620.12	1431.42
620.47	1424.07
620.82	1416.01
621.16	1408.67
621.51	1401.00
621.85	1393.42
622.20	1384.92
622.55	1376.49
622.89	1368.62
623.24	1360.86
623.59	1353.43
623.93	1345.82
624.28	1338.67
624.62	1331.39
624.97	1324.17
625.32	1317.31
625.66	1310.35
626.01	1303.36
626.35	1295.99
626.70	1288.20
627.04	1280.56
627.39	1272.84
627.73	1265.48
628.08	1258.56
628.43	1251.35
628.77	1244.13
629.12	1236.71
629.46	1229.65
629.81	1222.22
630.15	1215.05
630.50	1207.82
630.84	1199.73
631.19	1191.87
631.53	1184.30
631.88	1176.70
632.22	1169.09
632.57	1161.81
632.91	1154.34
633.26	1146.88
633.60	1139.44
633.95	1132.34
634.29	1125.27
634.64	1118.59
634.98	1111.26
635.32	1104.18
635.67	1097.55
636.01	1090.90
636.36	1084.08
636.70	1077.63
637.05	1071.18
637.39	1064.76
637.73	1058.34
638.08	1052.47
638.42	1046.50
638.77	1040.19
639.11	1033.71
639.45	1027.38
639.80	1020.81
640.14	1014.51
640.49	1008.02
640.83	1001.67
641.17	995.58
641.52	989.34
641.86	982.88
642.20	977.04
642.55	970.68
642.89	964.33
643.23	957.86
643.58	952.18
643.92	946.15
644.26	940.22
644.61	934.15
644.95	928.19
645.29	921.73
645.64	915.10
645.98	908.76
646.32	902.93
646.66	896.90
647.01	891.08
647.35	885.33
647.69	879.53
648.04	874.14
648.38	868.46
648.72	862.52
649.06	856.50
649.41	850.64
649.75	844.75
650.09	838.82
650.43	833.05
650.78	826.88
651.12	820.78
651.46	815.04
651.80	809.38
652.14	803.95
652.49	798.53
652.83	793.39
653.17	787.80
653.51	782.19
653.85	776.78
654.20	771.23
654.54	765.27
654.88	759.50
655.22	753.55
655.56	747.84
655.90	742.36
656.25	737.20
656.59	731.95
656.93	726.85
657.27	721.72
657.61	716.30
657.95	711.29
658.29	706.27
658.64	701.01
658.98	695.67
659.32	690.23
659.66	685.10
660.00	679.79
660.34	674.82
660.68	669.92
661.02	664.97
661.36	660.35
661.70	655.93
662.05	651.69
662.39	647.49
662.73	643.06
663.07	638.78
663.41	634.36
663.75	629.84
664.09	625.40
664.43	621.07
664.77	617.04
665.11	612.76
665.45	608.61
665.79	604.57
666.13	600.55
666.47	596.53
666.81	592.37
667.15	588.30
667.49	584.41
667.83	580.50
668.17	576.59
668.51	572.54
668.85	568.51
669.19	564.57
669.53	560.79
669.87	556.95
670.21	553.27
670.55	549.64
670.89	546.29
671.23	542.84
671.57	539.34
671.91	535.83
672.25	532.34
672.58	528.87
672.92	525.51
673.26	522.29
673.60	519.10
673.94	516.02
674.28	513.09
674.62	510.15
674.96	507.08
675.30	504.20
675.64	501.29
675.97	498.51
676.31	495.69
676.65	492.75
676.99	490.05
677.33	487.19
677.67	484.38
678.01	481.38
678.34	478.43
678.68	475.50
679.02	472.66
679.36	469.91
679.70	467.19
680.04	464.44
680.37	461.65
680.71	458.84
681.05	456.20
681.39	453.44
681.73	450.79
682.06	448.34
682.40	445.78
682.74	443.22
683.08	440.63
683.42	438.05
683.75	435.58
684.09	432.99
684.43	430.52
684.77	428.06
685.10	425.63
685.44	423.31
685.78	421.01
686.12	418.77
686.45	416.50
686.79	414.21
687.13	411.97
687.46	409.76
687.80	407.64
688.14	405.41
688.48	403.40
688.81	401.23
689.15	399.08
689.49	396.91
689.82	394.80
690.16	392.75
690.50	390.76
690.83	388.81
691.17	386.87
691.51	384.97
691.84	383.11
692.18	381.27
692.52	379.31
692.85	377.43
693.19	375.54
693.52	373.66
693.86	371.83
694.20	370.08
694.53	368.33
694.87	366.48
695.21	364.77
695.54	362.91
695.88	361.15
696.21	359.37
696.55	357.72
696.88	356.07
697.22	354.41
697.56	352.79
697.89	351.13
698.23	349.52
698.56	347.93
698.90	346.36
699.23	344.68
699.57	343.13
699.90	341.59
700.24	340.07
700.58	338.59
700.91	337.14
701.25	335.70
701.58	334.33
701.92	332.96
702.25	331.58
702.59	330.25
702.92	328.93
703.26	327.63
703.59	326.38
703.93	325.20
704.26	323.97
704.60	322.70
704.93	321.42
705.26	320.14
705.60	318.93
705.93	317.77
706.27	316.74
706.60	315.68
706.94	314.61
707.27	313.51
707.61	312.44
707.94	311.44
708.27	310.32
708.61	309.24
708.94	308.28
709.28	307.28
709.61	306.32
709.94	305.39
710.28	304.42
710.61	303.41
710.95	302.31
711.28	301.40
711.61	300.45
711.95	299.57
712.28	298.64
712.61	297.66
712.95	296.73
713.28	295.84
713.61	294.96
713.95	294.08
714.28	293.20
714.61	292.35
714.95	291.48
715.28	290.63
715.61	289.72
715.95	288.87
716.28	288.02
716.61	287.20
716.95	286.35
717.28	285.55
717.61	284.79
717.94	284.07
718.28	283.25
718.61	282.52
718.94	281.82
719.27	281.20
719.61	280.58
719.94	279.95
720.27	279.27
720.60	278.58
720.94	277.95
721.27	277.37
721.60	276.77
721.93	276.15
722.27	275.60
722.60	275.03
722.93	274.43
723.26	273.87
723.59	273.28
723.93	272.72
724.26	272.21
724.59	271.65
724.92	271.12
725.25	270.63
725.59	270.12
725.92	269.58
726.25	269.03
726.58	268.52
726.91	267.98
727.24	267.48
727.57	266.99
727.91	266.44
728.24	265.93
728.57	265.44
728.90	264.95
729.23	264.46
729.56	264.07
729.89	263.60
730.22	263.13
730.55	262.67
730.89	262.18
731.22	261.68
731.55	261.23
731.88	260.76
732.21	260.34
732.54	259.87
732.87	259.44
733.20	259.04
733.53	258.62
733.86	258.26
734.19	257.86
734.52	257.51
734.85	257.25
735.18	256.85
735.51	256.49
735.84	256.13
736.17	255.77
736.50	255.38
736.83	255.14
737.16	254.80
737.49	254.46
737.82	254.15
738.15	253.86
738.48	253.56
738.81	253.31
739.14	252.97
739.47	252.70
739.80	252.43
740.13	252.14
740.46	251.84
740.79	251.51
741.12	251.21
741.45	250.92
741.78	250.55
742.11	250.32
742.44	250.01
742.77	249.74
743.10	249.45
743.43	249.15
743.75	248.76
744.08	248.65
744.41	248.40
744.74	248.16
745.07	247.90
745.40	247.66
745.73	247.39
746.06	247.11
746.39	246.84
746.71	246.55
747.04	246.32
747.37	246.04
747.70	245.81
748.03	245.58
748.36	245.32
748.68	245.12
749.01	244.86
749.34	244.68
749.67	244.47
750.00	244.28
750.33	244.13
750.65	243.94
750.98	243.55
751.31	243.29
751.64	243.07
751.97	242.91
752.29	242.71
752.62	242.47
752.95	242.26
753.28	242.03
753.60	241.82
753.93	241.62
754.26	241.46
754.59	241.25
754.91	241.04
755.24	240.86
755.57	240.65
755.90	240.47
756.22	240.24
756.55	240.05
756.88	239.85
757.20	239.61
757.53	239.41
757.86	239.26
758.19	239.16
758.51	239.00
758.84	238.79
759.17	238.57
759.49	238.40
759.82	238.28
760.15	238.13
760.47	237.95
760.80	237.76
761.13	237.65
761.45	237.45
761.78	237.28
762.11	237.13
762.43	236.99
762.76	236.84
763.08	236.73
763.41	236.57
763.74	236.39
764.06	236.24
764.39	236.13
764.71	235.94
765.04	235.75
765.37	235.59
765.69	235.41
766.02	235.30
766.34	235.15
766.67	235.01
767.00	234.92
767.32	234.89
767.65	234.82
767.97	234.63
768.30	234.52
768.62	234.38
768.95	234.23
769.27	234.07
769.60	233.95
769.92	233.78
770.25	233.65
770.57	233.53
770.90	233.40
771.22	233.26
771.55	233.16
771.87	233.05
772.20	232.94
772.52	232.93
772.85	232.97
773.17	232.87
773.50	232.76
773.82	232.63
774.15	232.48
774.47	232.33
774.80	232.27
775.12	232.20
775.45	232.12
775.77	232.05
776.09	231.99
776.42	231.90
776.74	231.85
777.07	231.78
777.39	231.72
777.72	231.64
778.04	231.58
778.36	231.54
778.69	231.49
779.01	231.45
779.33	231.31
779.66	231.08
779.98	231.04
780.31	230.98
780.63	230.95
780.95	230.88
781.28	230.84
781.60	230.77
781.92	230.71
782.25	230.68
782.57	230.63
782.89	230.57
783.22	230.52
783.54	230.46
783.86	230.42
784.19	230.35
784.51	230.34
784.83	230.28
785.16	230.23
785.48	230.20
785.80	230.17
786.12	230.14
786.45	230.13
786.77	230.08
787.09	230.04
787.42	229.99
787.74	229.96
788.06	229.91
788.38	229.86
788.71	229.81
789.03	229.79
789.35	229.76
789.67	229.73
789.99	229.72
790.32	229.66
790.64	229.64
790.96	229.70
791.28	229.63
791.61	229.63
791.93	229.61
792.25	229.58
792.57	229.59
792.89	229.55
793.21	229.52
793.54	229.49
793.86	229.44
794.18	229.40
794.50	229.37
794.82	229.37
795.14	229.37
795.47	229.37
795.79	229.32
796.11	229.27
796.43	229.28
796.75	229.27
797.07	229.25
797.39	229.24
797.71	229.15
798.04	229.12
798.36	229.08
798.68	229.04
799.00	229.00
799.32	228.94
799.64	228.91
799.96	228.90
800.28	228.86
800.60	228.85
800.92	228.79
801.24	228.75
801.56	228.74
801.89	228.68
802.21	228.65
802.53	228.60
802.85	228.58
803.17	228.56
803.49	228.48
803.81	228.43
804.13	228.38
804.45	228.32
804.77	228.30
805.09	228.28
805.41	228.22
805.73	228.19
806.05	228.11
806.37	228.09
806.69	228.00
807.01	228.00
807.33	227.98
807.65	227.94
807.97	227.95
808.28	227.85
808.60	227.79
808.92	227.72
809.24	227.76
809.56	227.70
809.88	227.64
810.20	227.60
810.52	227.60
810.84	227.56
811.16	227.51
811.48	227.42
811.80	227.43
812.12	227.35
812.43	227.33
812.75	227.30
813.07	227.26
813.39	227.27
813.71	227.19
814.03	227.11
814.35	227.08
814.67	227.01
814.98	227.00
815.30	227.01
815.62	227.00
815.94	226.91
816.26	226.94
816.58	226.90
816.89	226.91
817.21	226.87
817.53	226.84
817.85	226.85
818.17	226.87
818.48	226.78
818.80	226.83
819.12	226.78
819.44	226.77
819.76	226.70
820.07	226.70
820.39	226.70
820.71	226.73
821.03	226.70
821.34	226.66
821.66	226.70
821.98	226.68
822.30	226.61
822.61	226.63
822.93	226.56
823.25	226.55
823.57	226.52
823.88	226.52
824.20	226.50
824.52	226.48
824.83	226.44
825.15	226.41
825.47	226.38
825.79	226.38
826.10	226.33
826.42	226.33
826.74	226.31
827.05	226.29
827.37	226.28
827.69	226.24
828.00	226.26
828.32	226.22
828.64	226.21
828.95	226.30
829.27	226.28
829.58	226.29
829.90	226.31
830.22	226.32
830.53	226.30
830.85	226.27
831.17	226.25
831.48	226.25
831.80	226.28
832.11	226.25
832.43	226.23
832.75	226.23
833.06	226.30
833.38	226.26
833.69	226.27
834.01	226.27
834.32	226.31
834.64	226.29
834.96	226.28
835.27	226.25
835.59	226.18
835.90	226.16
836.22	226.17
836.53	226.13
836.85	226.11
837.16	226.21
837.48	226.21
837.79	226.23
838.11	226.26
838.42	226.25
838.74	226.28
839.05	226.28
839.37	226.27
839.68	226.21
840.00	226.24
840.31	226.20
840.63	226.18
840.94	226.18
841.26	226.16
841.57	226.18
841.88	226.21
842.20	226.22
842.51	226.18
842.83	226.17
843.14	226.24
843.46	226.25
843.77	226.18
844.08	226.20
844.40	226.21
844.71	226.20
845.03	226.17
845.34	226.17
845.65	226.18
845.97	226.18
846.28	226.18
846.60	226.19
846.91	226.21
847.22	226.21
847.54	226.20
847.85	226.23
848.16	226.21
848.48	226.19
848.79	226.19
849.10	226.21
849.42	226.18
849.73	226.07
850.04	226.07
850.36	226.03
850.67	226.03
850.98	226.01
851.30	226.02
851.61	226.03
851.92	226.02
852.23	226.03
852.55	226.05
852.86	226.06
853.17	226.04
853.49	226.04
853.80	226.06
854.11	226.06
854.42	226.04
854.74	226.02
855.05	226.00
855.36	225.96
855.67	225.96
855.99	225.96
856.30	226.07
856.61	226.02
856.92	226.02
857.23	226.02
857.55	225.97
857.86	225.93
858.17	225.94
858.48	225.91
858.79	225.91
859.11	225.91
859.42	225.89
859.73	225.86
860.04	225.88
860.35	225.81
860.66	225.79
860.98	225.78
861.29	225.78
861.60	225.75
861.91	225.78
862.22	225.76
862.53	225.74
862.84	225.63
863.16	225.66
863.47	225.65
863.78	225.62
864.09	225.62
864.40	225.64
864.71	225.61
865.02	225.62
865.33	225.59
865.64	225.54
865.95	225.56
866.27	225.64
866.58	225.59
866.89	225.62
867.20	225.61
867.51	225.59
867.82	225.59
868.13	225.61
868.44	225.57
868.75	225.57
869.06	225.60
869.37	225.60
869.68	225.59
869.99	225.59
870.30	225.61
870.61	225.65
870.92	225.63
871.23	225.63
871.54	225.64
871.85	225.67
872.16	225.70
872.47	225.68
872.78	225.61
873.09	225.64
873.40	225.63
873.71	225.65
874.02	225.68
874.33	225.66
874.64	225.66
874.95	225.71
875.26	225.72
875.56	225.72
875.87	225.74
876.18	225.73
876.49	225.83
876.80	225.80
877.11	225.80
877.42	225.80
877.73	225.84
878.04	225.83
878.35	225.77
878.66	225.76
878.96	225.78
879.27	225.82
879.58	225.82
879.89	225.77
880.20	225.79
880.51	225.76
880.82	225.79
881.12	225.79
881.43	225.81
881.74	225.78
882.05	225.79
882.36	225.80
882.67	225.81
882.97	225.71
883.28	225.73
883.59	225.71
883.90	225.69
884.21	225.67
884.51	225.67
884.82	225.68
885.13	225.68
885.44	225.67
885.74	225.65
886.05	225.64
886.36	225.70
886.67	225.69
886.98	225.72
887.28	225.70
887.59	225.69
887.90	225.68
888.20	225.67
888.51	225.67
888.82	225.64
889.13	225.66
889.43	225.73
889.74	225.72
890.05	225.74
890.35	225.76
890.66	225.76
890.97	225.74
891.28	225.75
891.58	225.77
891.89	225.74
892.20	225.70
892.50	225.72
892.81	225.69
893.12	225.64
893.42	225.60
893.73	225.61
894.04	225.61
894.34	225.57
894.65	225.59
894.95	225.55
895.26	225.55
895.57	225.57
895.87	225.48
896.18	225.47
896.48	225.48
896.79	225.43
897.10	225.45
897.40	225.47
897.71	225.48
898.01	225.46
898.32	225.49
898.63	225.52
898.93	225.49
899.24	225.49
899.54	225.50
899.85	225.51
900.15	225.54
900.46	225.53
900.76	225.56
901.07	225.53
901.38	225.51
901.68	225.51
901.99	225.46
902.29	225.46
902.60	225.43
902.90	225.38
903.21	225.39
903.51	225.34
903.82	225.32
904.12	225.33
904.43	225.32
904.73	225.29
905.03	225.30
905.34	225.39
905.64	225.40
905.95	225.40
906.25	225.36
906.56	225.33
906.86	225.30
907.17	225.30
907.47	225.30
907.77	225.32
908.08	225.32
908.38	225.35
908.69	225.34
908.99	225.39
909.30	225.40
909.60	225.40
909.90	225.42
910.21	225.41
910.51	225.36
910.81	225.36
911.12	225.37
911.42	225.35
911.73	225.24
912.03	225.23
912.33	225.26
912.64	225.31
912.94	225.32
913.24	225.34
913.55	225.32
913.85	225.32
914.15	225.35
914.46	225.35
914.76	225.34
915.06	225.37
915.37	225.32
915.67	225.34
915.97	225.37
916.27	225.35
916.58	225.35
916.88	225.38
917.18	225.35
917.49	225.44
917.79	225.40
918.09	225.41
918.39	225.43
918.70	225.41
919.00	225.40
919.30	225.44
919.60	225.41
919.91	225.42
920.21	225.45
920.51	225.40
920.81	225.41
921.12	225.40
921.42	225.40
921.72	225.43
922.02	225.39
922.32	225.39
922.63	225.43
922.93	225.49
923.23	225.46
923.53	225.46
923.83	225.38
924.13	225.47
924.44	225.47
924.74	225.49
925.04	225.52
925.34	225.50
925.64	225.43
925.94	225.43
926.24	225.49
926.55	225.50
926.85	225.53
927.15	225.54
927.45	225.54
927.75	225.53
928.05	225.52
928.35	225.55
928.65	225.58
928.95	225.57
929.26	225.52
929.56	225.56
929.86	225.57
930.16	225.56
930.46	225.49
930.76	225.51
931.06	225.49
931.36	225.44
931.66	225.46
931.96	225.51
932.26	225.50
932.56	225.44
932.86	225.42
933.16	225.42
933.46	225.38
933.76	225.38
934.06	225.42
934.36	225.44
934.66	225.45
934.96	225.41
935.26	225.39
935.56	225.38
935.86	225.35
936.16	225.35
936.46	225.34
936.76	225.35
937.06	225.34
937.36	225.32
937.66	225.34
937.96	225.32
938.26	225.30
938.56	225.30
938.86	225.29
939.16	225.32
939.46	225.32
939.76	225.33
940.06	225.32
940.35	225.29
940.65	225.24
940.95	225.21
941.25	225.19
941.55	225.18
941.85	225.21
942.15	225.24
942.45	225.26
942.75	225.25
943.04	225.24
943.34	225.26
943.64	225.26
943.94	225.25
944.24	225.24
944.54	225.22
944.84	225.21
945.13	225.19
945.43	225.12
945.73	225.09
946.03	225.12
946.33	225.11
946.62	225.08
946.92	225.08
947.22	225.10
947.52	225.14
947.82	225.16
948.11	225.14
948.41	225.12
948.71	225.11
949.01	225.09
949.31	225.07
949.60	225.06
949.90	225.07
950.20	225.06
950.50	225.07
950.79	225.08
951.09	225.12
951.39	225.15
951.69	225.19
951.98	225.22
952.28	225.25
952.58	225.26
952.87	225.28
953.17	225.32
953.47	225.32
953.76	225.28
954.06	225.27
954.36	225.26
954.66	225.24
954.95	225.28
955.25	225.32
955.55	225.36
955.84	225.36
956.14	225.39
956.44	225.38
956.73	225.39
957.03	225.41
957.32	225.41
957.62	225.41
957.92	225.44
958.21	225.43
958.51	225.51
958.81	225.51
959.10	225.53
959.40	225.56
959.69	225.55
959.99	225.59
960.29	225.57
960.58	225.55
960.88	225.59
961.17	225.55
961.47	225.54
961.76	225.52
962.06	225.52
962.36	225.47
962.65	225.49
962.95	225.46
963.24	225.42
963.54	225.43
963.83	225.42
964.13	225.42
964.42	225.40
964.72	225.31
965.01	225.30
965.31	225.26
965.60	225.22
965.90	225.26
966.19	225.24
966.49	225.24
966.78	225.26
967.08	225.26
967.37	225.29
967.67	225.29
967.96	225.30
968.26	225.32
968.55	225.35
968.85	225.35
969.14	225.39
969.43	225.39
969.73	225.40
970.02	225.42
970.32	225.38
970.61	225.38
970.91	225.36
971.20	225.34
971.49	225.35
971.79	225.36
972.08	225.31
972.38	225.37
972.67	225.39
972.96	225.40
973.26	225.37
973.55	225.38
973.85	225.33
974.14	225.34
974.43	225.33
974.73	225.30
975.02	225.31
975.31	225.31
975.61	225.32
975.90	225.28
976.19	225.25
976.49	225.26
976.78	225.27
977.07	225.30
977.37	225.33
977.66	225.32
977.95	225.32
978.24	225.36
978.54	225.34
978.83	225.31
979.12	225.31
979.42	225.34
979.71	225.32
980.00	225.34
980.29	225.33
980.59	225.31
980.88	225.34
981.17	225.32
981.46	225.34
981.76	225.35
982.05	225.39
982.34	225.40
982.63	225.36
982.93	225.35
983.22	225.37
983.51	225.32
983.80	225.36
984.09	225.38
984.39	225.33
984.68	225.30
984.97	225.31
985.26	225.29
985.55	225.30
985.85	225.28
986.14	225.28
986.43	225.29
986.72	225.30
987.01	225.25
987.30	225.26
987.59	225.20
987.89	225.18
988.18	225.15
988.47	225.13
988.76	225.17
989.05	225.14
989.34	225.08
989.63	225.11
989.92	225.07
990.22	225.04
990.51	225.04
990.80	225.03
991.09	225.03
991.38	225.01
991.67	225.00
991.96	224.99
992.25	225.01
992.54	225.01
992.83	224.99
993.12	225.01
993.41	225.01
993.70	225.07
993.99	225.08
994.28	225.07
994.58	225.08
994.87	225.06
995.16	225.06
995.45	225.07
995.74	225.06
996.03	225.08
996.32	225.08
996.61	225.10
996.90	225.10
997.19	225.10
997.48	225.11
997.77	225.08
998.06	225.09
998.34	225.06
998.63	225.03
998.92	225.02
999.21	225.00
999.50	224.99
999.79	224.94
1000.08	224.93
1000.37	224.96
1000.66	224.94
1000.95	224.97
1001.24	225.01
1001.53	225.03
1001.82	225.00
1002.11	224.98
1002.40	224.99
1002.68	225.01
1002.97	225.08
1003.26	225.10
1003.55	225.12
1003.84	225.13
1004.13	225.16
1004.42	225.17
1004.71	225.20
1004.99	225.21
1005.28	225.27
1005.57	225.30
1005.86	225.30
1006.15	225.32
1006.44	225.30
1006.72	225.32
1007.01	225.31
1007.30	225.32
1007.59	225.32
1007.88	225.36
1008.17	225.35
1008.45	225.37
1008.74	225.33
1009.03	225.30
1009.32	225.28
1009.60	225.26
1009.89	225.26
1010.18	225.23
1010.47	225.24
1010.76	225.22
1011.04	225.22
1011.33	225.22
1011.62	225.22
1011.91	225.23
1012.19	225.25
1012.48	225.28
1012.77	225.28
1013.05	225.36
1013.34	225.35
1013.63	225.37
1013.92	225.40
1014.20	225.40
1014.49	225.38
1014.78	225.41
1015.06	225.36
1015.35	225.38
1015.64	225.42
1015.92	225.43
1016.21	225.44
1016.50	225.46
1016.78	225.50
1017.07	225.53
1017.36	225.53
1017.64	225.51
1017.93	225.50
1018.22	225.50
1018.50	225.50
1018.79	225.50
1019.08	225.44
1019.36	225.43
1019.65	225.42
1019.93	225.44
1020.22	225.47
1020.51	225.52
1020.79	225.50
1021.08	225.44
1021.36	225.90
1021.65	224.98
1021.94	225.88
1022.22	225.05
1022.51	225.49
1022.79	226.16
1023.08	225.62
1023.36	226.38
1023.65	225.15
>>>>>End Processed Spectral Data<<<<<
