SpectraSuite Data File
++++++++++++++++++++++++++++++++++++
Date: Fri Feb 01 16:29:14 EST 2013
User: group
Dark Spectrum Present: No
Reference Spectrum Present: No
Number of Sampled Component Spectra: 1
Spectrometers: USB2E7196
Integration Time (usec): 35000 (USB2E7196)
Spectra Averaged: 100 (USB2E7196)
Boxcar Smoothing: 10 (USB2E7196)
Correct for Electrical Dark: No (USB2E7196)
Strobe/Lamp Enabled: No (USB2E7196)
Correct for Detector Non-linearity: No (USB2E7196)
Correct for Stray Light: No (USB2E7196)
Number of Pixels in Processed Spectrum: 2048
>>>>>Begin Processed Spectral Data<<<<<
339.09	0.00
339.48	214.25
339.86	215.78
340.24	216.95
340.63	218.86
341.01	221.03
341.39	221.20
341.78	222.08
342.16	223.60
342.54	224.05
342.93	212.55
343.31	223.30
343.69	223.81
344.07	224.29
344.46	224.72
344.84	225.08
345.22	225.34
345.60	225.57
345.99	225.76
346.37	225.87
346.75	225.95
347.13	226.02
347.52	226.08
347.90	226.12
348.28	226.12
348.66	226.16
349.05	226.17
349.43	226.19
349.81	226.23
350.19	226.27
350.57	226.30
350.96	226.35
351.34	226.40
351.72	226.49
352.10	226.59
352.48	226.65
352.87	226.69
353.25	226.73
353.63	226.80
354.01	226.86
354.39	226.94
354.77	227.03
355.15	227.11
355.54	227.17
355.92	227.20
356.30	227.30
356.68	227.39
357.06	227.44
357.44	227.48
357.82	227.55
358.20	227.64
358.58	227.77
358.97	227.84
359.35	227.92
359.73	228.02
360.11	228.04
360.49	228.12
360.87	228.17
361.25	228.22
361.63	228.31
362.01	228.36
362.39	228.38
362.77	228.42
363.15	228.44
363.53	228.47
363.91	228.51
364.29	228.53
364.67	228.48
365.05	228.50
365.43	228.54
365.81	228.57
366.19	228.61
366.57	228.62
366.95	228.64
367.33	228.60
367.71	228.58
368.09	228.61
368.47	228.58
368.85	228.57
369.23	228.56
369.61	228.50
369.99	228.49
370.37	228.49
370.75	228.53
371.13	228.43
371.51	228.39
371.89	228.36
372.27	228.33
372.65	228.28
373.03	228.22
373.41	228.17
373.78	228.12
374.16	228.01
374.54	227.94
374.92	227.89
375.30	227.84
375.68	227.75
376.06	227.68
376.44	227.61
376.82	227.53
377.19	227.47
377.57	227.39
377.95	227.34
378.33	227.23
378.71	227.12
379.09	227.12
379.47	227.06
379.84	227.00
380.22	226.91
380.60	226.85
380.98	226.79
381.36	226.74
381.73	226.66
382.11	226.65
382.49	226.59
382.87	226.49
383.25	226.44
383.62	226.51
384.00	226.45
384.38	226.41
384.76	226.38
385.13	226.37
385.51	226.32
385.89	226.26
386.27	226.25
386.64	226.22
387.02	226.15
387.40	226.10
387.78	226.09
388.15	226.06
388.53	226.02
388.91	225.97
389.29	225.92
389.66	225.94
390.04	225.87
390.42	225.84
390.79	225.84
391.17	225.79
391.55	225.64
391.92	225.60
392.30	225.59
392.68	225.56
393.05	225.54
393.43	225.53
393.81	225.52
394.18	225.52
394.56	225.52
394.94	225.57
395.31	225.58
395.69	225.57
396.06	225.58
396.44	225.61
396.82	225.63
397.19	225.69
397.57	225.66
397.95	225.66
398.32	225.69
398.70	225.73
399.07	225.83
399.45	225.89
399.82	225.96
400.20	226.00
400.58	226.08
400.95	226.12
401.33	226.20
401.70	226.35
402.08	226.43
402.45	226.49
402.83	226.60
403.20	226.69
403.58	226.80
403.95	226.94
404.33	227.06
404.71	227.18
405.08	227.38
405.46	227.54
405.83	227.71
406.21	227.84
406.58	228.02
406.96	228.14
407.33	228.34
407.70	228.52
408.08	228.79
408.45	229.00
408.83	229.24
409.20	229.44
409.58	229.59
409.95	229.83
410.33	230.10
410.70	230.32
411.08	230.61
411.45	230.90
411.82	231.19
412.20	231.55
412.57	231.99
412.95	232.24
413.32	232.60
413.69	233.01
414.07	233.44
414.44	233.87
414.82	234.39
415.19	234.92
415.56	235.46
415.94	236.00
416.31	236.64
416.68	237.27
417.06	238.00
417.43	238.67
417.81	239.42
418.18	240.22
418.55	241.10
418.93	241.98
419.30	242.91
419.67	243.86
420.04	244.82
420.42	245.81
420.79	247.02
421.16	248.18
421.54	249.39
421.91	250.63
422.28	251.93
422.66	253.22
423.03	254.49
423.40	255.82
423.77	257.25
424.15	258.63
424.52	260.09
424.89	261.71
425.26	263.30
425.64	264.77
426.01	266.31
426.38	267.97
426.75	269.64
427.13	271.33
427.50	273.17
427.87	275.02
428.24	276.85
428.61	278.59
428.99	280.56
429.36	282.64
429.73	284.67
430.10	286.68
430.47	288.73
430.85	290.87
431.22	293.09
431.59	295.41
431.96	297.67
432.33	300.18
432.70	302.53
433.08	305.31
433.45	307.94
433.82	310.61
434.19	313.45
434.56	316.26
434.93	318.91
435.30	321.46
435.68	324.35
436.05	327.15
436.42	329.94
436.79	332.43
437.16	335.13
437.53	337.96
437.90	340.76
438.27	343.49
438.64	346.31
439.01	348.95
439.38	351.17
439.75	353.32
440.13	355.76
440.50	358.08
440.87	359.90
441.24	361.86
441.61	363.97
441.98	365.42
442.35	367.21
442.72	369.04
443.09	370.85
443.46	371.84
443.83	372.46
444.20	372.92
444.57	373.76
444.94	374.04
445.31	374.38
445.68	374.68
446.05	374.76
446.42	374.40
446.79	373.90
447.16	373.45
447.53	373.14
447.90	372.00
448.27	370.82
448.64	369.29
449.01	368.12
449.37	366.15
449.74	364.24
450.11	361.99
450.48	359.49
450.85	356.99
451.22	354.82
451.59	352.79
451.96	350.89
452.33	348.30
452.70	345.94
453.07	343.12
453.43	340.26
453.80	337.51
454.17	334.82
454.54	332.33
454.91	329.66
455.28	327.00
455.65	324.56
456.02	322.15
456.38	319.96
456.75	317.34
457.12	315.08
457.49	312.93
457.86	310.78
458.23	308.98
458.59	306.96
458.96	304.93
459.33	303.12
459.70	301.30
460.07	299.78
460.43	298.10
460.80	296.50
461.17	295.06
461.54	293.58
461.91	292.14
462.27	290.74
462.64	289.51
463.01	288.14
463.38	286.83
463.74	285.48
464.11	284.36
464.48	283.30
464.85	282.20
465.21	281.31
465.58	280.41
465.95	279.30
466.32	278.40
466.68	277.48
467.05	276.60
467.42	275.69
467.78	274.78
468.15	273.89
468.52	273.24
468.88	272.42
469.25	271.64
469.62	271.06
469.98	270.37
470.35	269.74
470.72	269.16
471.08	268.54
471.45	268.03
471.82	267.49
472.18	266.95
472.55	266.50
472.92	266.00
473.28	265.52
473.65	265.10
474.02	264.68
474.38	264.35
474.75	263.99
475.11	263.67
475.48	263.37
475.85	263.16
476.21	262.94
476.58	262.75
476.94	262.60
477.31	262.45
477.67	262.31
478.04	262.20
478.41	262.19
478.77	262.21
479.14	262.13
479.50	262.13
479.87	262.20
480.23	262.31
480.60	262.39
480.96	262.52
481.33	262.74
481.69	262.94
482.06	263.13
482.42	263.34
482.79	263.60
483.15	263.96
483.52	264.33
483.88	264.69
484.25	265.08
484.61	265.54
484.98	266.01
485.34	266.56
485.71	267.16
486.07	267.76
486.44	268.31
486.80	269.03
487.17	269.77
487.53	270.60
487.90	271.43
488.26	272.40
488.62	273.39
488.99	274.36
489.35	275.42
489.72	276.57
490.08	277.78
490.44	279.02
490.81	280.38
491.17	281.77
491.54	283.24
491.90	284.78
492.26	286.42
492.63	288.13
492.99	289.95
493.36	291.84
493.72	293.86
494.08	296.00
494.45	298.26
494.81	300.65
495.17	303.10
495.54	305.68
495.90	308.35
496.26	311.14
496.63	314.12
496.99	317.21
497.35	320.45
497.72	323.80
498.08	327.33
498.44	331.02
498.80	334.94
499.17	338.99
499.53	343.21
499.89	347.57
500.26	352.11
500.62	356.81
500.98	361.78
501.34	366.89
501.71	372.21
502.07	377.66
502.43	383.29
502.79	389.09
503.16	395.16
503.52	401.42
503.88	407.84
504.24	414.50
504.60	421.43
504.97	428.54
505.33	435.89
505.69	443.54
506.05	451.31
506.41	459.21
506.78	467.40
507.14	475.84
507.50	484.59
507.86	493.59
508.22	502.70
508.59	511.88
508.95	521.41
509.31	531.23
509.67	541.34
510.03	551.59
510.39	562.16
510.75	573.00
511.12	583.94
511.48	595.21
511.84	606.56
512.20	618.01
512.56	629.90
512.92	642.13
513.28	654.52
513.64	667.00
514.00	679.68
514.37	692.52
514.73	705.55
515.09	718.57
515.45	731.81
515.81	745.40
516.17	759.40
516.53	773.49
516.89	787.61
517.25	801.72
517.61	816.11
517.97	830.49
518.33	844.83
518.69	859.54
519.05	874.52
519.41	889.74
519.77	905.33
520.13	920.81
520.49	935.97
520.85	951.28
521.21	966.80
521.57	982.96
521.93	998.71
522.29	1015.07
522.65	1031.25
523.01	1047.40
523.37	1063.46
523.73	1079.52
524.09	1095.58
524.45	1111.78
524.81	1128.34
525.17	1145.06
525.53	1161.93
525.89	1178.75
526.25	1195.53
526.61	1211.77
526.97	1228.35
527.33	1244.66
527.68	1261.15
528.04	1277.65
528.40	1294.13
528.76	1311.23
529.12	1327.72
529.48	1344.51
529.84	1360.35
530.20	1376.90
530.56	1393.80
530.91	1411.09
531.27	1427.81
531.63	1444.20
531.99	1460.69
532.35	1476.54
532.71	1492.39
533.07	1508.51
533.42	1524.35
533.78	1540.26
534.14	1556.62
534.50	1571.92
534.86	1587.65
535.21	1602.61
535.57	1618.47
535.93	1633.92
536.29	1648.60
536.65	1663.48
537.00	1678.13
537.36	1693.37
537.72	1707.81
538.08	1722.35
538.44	1736.01
538.79	1749.84
539.15	1763.41
539.51	1777.10
539.87	1791.40
540.22	1804.85
540.58	1818.57
540.94	1831.81
541.29	1844.63
541.65	1857.21
542.01	1870.32
542.37	1882.68
542.72	1895.21
543.08	1906.81
543.44	1919.08
543.79	1930.29
544.15	1941.24
544.51	1952.75
544.87	1963.60
545.22	1974.33
545.58	1984.28
545.94	1993.92
546.29	2003.54
546.65	2013.31
547.01	2022.44
547.36	2031.12
547.72	2039.77
548.07	2047.51
548.43	2055.52
548.79	2063.46
549.14	2070.85
549.50	2078.14
549.86	2085.72
550.21	2093.03
550.57	2100.16
550.92	2106.74
551.28	2113.73
551.64	2120.78
551.99	2127.27
552.35	2133.43
552.70	2139.55
553.06	2145.48
553.41	2151.91
553.77	2157.93
554.13	2164.01
554.48	2170.31
554.84	2175.75
555.19	2180.80
555.55	2185.96
555.90	2190.46
556.26	2195.30
556.61	2200.17
556.97	2204.29
557.32	2208.28
557.68	2212.25
558.03	2216.65
558.39	2220.37
558.74	2224.87
559.10	2228.72
559.45	2232.42
559.81	2236.73
560.16	2240.50
560.52	2243.83
560.87	2247.16
561.23	2249.95
561.58	2252.94
561.94	2255.36
562.29	2257.78
562.64	2260.49
563.00	2263.09
563.35	2266.64
563.71	2269.74
564.06	2272.85
564.42	2275.89
564.77	2278.49
565.12	2280.87
565.48	2282.79
565.83	2284.74
566.19	2286.14
566.54	2287.07
566.89	2288.26
567.25	2288.83
567.60	2290.21
567.96	2291.88
568.31	2292.80
568.66	2293.79
569.02	2294.25
569.37	2294.50
569.72	2295.40
570.08	2295.74
570.43	2295.93
570.78	2295.45
571.14	2294.11
571.49	2292.73
571.84	2292.47
572.20	2291.45
572.55	2290.43
572.90	2289.01
573.26	2287.67
573.61	2286.11
573.96	2284.40
574.31	2281.35
574.67	2278.57
575.02	2274.93
575.37	2271.53
575.72	2267.83
576.08	2264.63
576.43	2261.47
576.78	2257.93
577.13	2254.72
577.49	2251.77
577.84	2248.24
578.19	2244.60
578.54	2241.11
578.90	2237.05
579.25	2231.66
579.60	2226.79
579.95	2221.89
580.30	2216.79
580.66	2211.59
581.01	2206.75
581.36	2201.98
581.71	2198.01
582.06	2193.62
582.42	2189.31
582.77	2184.25
583.12	2179.78
583.47	2175.23
583.82	2170.27
584.17	2165.06
584.53	2159.72
584.88	2153.99
585.23	2148.41
585.58	2142.86
585.93	2137.45
586.28	2132.75
586.63	2127.68
586.98	2122.72
587.34	2117.98
587.69	2113.20
588.04	2108.05
588.39	2102.30
588.74	2095.98
589.09	2089.82
589.44	2082.95
589.79	2077.04
590.14	2071.44
590.49	2064.92
590.84	2058.64
591.19	2052.72
591.54	2046.49
591.89	2039.20
592.25	2032.47
592.60	2025.02
592.95	2017.62
593.30	2010.30
593.65	2002.76
594.00	1995.79
594.35	1988.53
594.70	1980.68
595.05	1973.50
595.40	1966.38
595.75	1959.01
596.10	1952.80
596.45	1946.19
596.80	1940.12
597.15	1933.56
597.50	1926.53
597.85	1920.10
598.19	1913.30
598.54	1906.10
598.89	1899.41
599.24	1893.58
599.59	1886.98
599.94	1881.04
600.29	1874.63
600.64	1867.93
600.99	1860.50
601.34	1853.60
601.69	1846.73
602.04	1839.91
602.39	1832.60
602.74	1825.72
603.08	1818.94
603.43	1812.15
603.78	1804.85
604.13	1797.74
604.48	1790.30
604.83	1783.47
605.18	1776.42
605.53	1768.52
605.87	1760.70
606.22	1753.46
606.57	1745.47
606.92	1738.22
607.27	1730.98
607.62	1724.21
607.96	1717.02
608.31	1710.45
608.66	1702.94
609.01	1695.38
609.36	1687.73
609.70	1679.72
610.05	1671.71
610.40	1663.95
610.75	1655.69
611.10	1648.01
611.44	1639.53
611.79	1631.65
612.14	1623.06
612.49	1613.98
612.83	1605.70
613.18	1597.57
613.53	1589.50
613.88	1580.92
614.22	1572.58
614.57	1563.97
614.92	1555.82
615.27	1548.34
615.61	1539.97
615.96	1531.97
616.31	1524.38
616.65	1516.97
617.00	1509.43
617.35	1501.75
617.70	1493.51
618.04	1484.96
618.39	1476.80
618.74	1469.22
619.08	1460.98
619.43	1453.29
619.78	1446.46
620.12	1439.19
620.47	1431.65
620.82	1423.53
621.16	1416.13
621.51	1408.58
621.85	1401.05
622.20	1392.59
622.55	1384.25
622.89	1376.46
623.24	1368.76
623.59	1361.22
623.93	1353.75
624.28	1346.55
624.62	1339.00
624.97	1331.85
625.32	1325.22
625.66	1318.19
626.01	1311.03
626.35	1303.47
626.70	1295.79
627.04	1287.95
627.39	1280.22
627.73	1272.79
628.08	1265.80
628.43	1258.46
628.77	1251.02
629.12	1243.49
629.46	1236.33
629.81	1228.82
630.15	1221.54
630.50	1214.14
630.84	1206.05
631.19	1198.17
631.53	1190.67
631.88	1183.09
632.22	1175.50
632.57	1168.06
632.91	1160.43
633.26	1153.00
633.60	1145.60
633.95	1138.40
634.29	1131.46
634.64	1124.87
634.98	1117.53
635.32	1110.37
635.67	1103.79
636.01	1097.17
636.36	1090.26
636.70	1083.70
637.05	1077.08
637.39	1070.57
637.73	1064.02
638.08	1058.07
638.42	1052.00
638.77	1045.55
639.11	1039.05
639.45	1032.53
639.80	1025.93
640.14	1019.57
640.49	1013.00
640.83	1006.68
641.17	1000.53
641.52	994.13
641.86	987.52
642.20	981.63
642.55	975.33
642.89	968.78
643.23	962.25
643.58	956.52
643.92	950.33
644.26	944.21
644.61	938.23
644.95	932.29
645.29	925.67
645.64	918.96
645.98	912.52
646.32	906.63
646.66	900.57
647.01	894.80
647.35	889.05
647.69	883.16
648.04	877.67
648.38	871.83
648.72	865.80
649.06	859.78
649.41	853.91
649.75	847.93
650.09	842.09
650.43	836.29
650.78	830.18
651.12	824.18
651.46	818.56
651.80	812.82
652.14	807.44
652.49	802.15
652.83	796.99
653.17	791.32
653.51	785.55
653.85	780.20
654.20	774.54
654.54	768.59
654.88	762.87
655.22	756.95
655.56	751.35
655.90	745.96
656.25	740.73
656.59	735.35
656.93	730.31
657.27	725.12
657.61	719.71
657.95	714.61
658.29	709.67
658.64	704.49
658.98	699.16
659.32	693.66
659.66	688.39
660.00	683.05
660.34	678.10
660.68	673.18
661.02	668.20
661.36	663.46
661.70	658.94
662.05	654.60
662.39	650.34
662.73	645.74
663.07	641.35
663.41	636.89
663.75	632.43
664.09	627.85
664.43	623.42
664.77	619.21
665.11	614.92
665.45	610.72
665.79	606.54
666.13	602.39
666.47	598.30
666.81	594.17
667.15	590.10
667.49	586.24
667.83	582.42
668.17	578.50
668.51	574.38
668.85	570.33
669.19	566.48
669.53	562.62
669.87	558.76
670.21	555.01
670.55	551.33
670.89	547.86
671.23	544.39
671.57	540.87
671.91	537.35
672.25	533.88
672.58	530.27
672.92	526.86
673.26	523.69
673.60	520.57
673.94	517.48
674.28	514.53
674.62	511.61
674.96	508.50
675.30	505.57
675.64	502.68
675.97	499.93
676.31	497.07
676.65	494.14
676.99	491.45
677.33	488.61
677.67	485.82
678.01	482.81
678.34	479.81
678.68	476.99
679.02	474.15
679.36	471.41
679.70	468.78
680.04	466.02
680.37	463.17
680.71	460.30
681.05	457.65
681.39	454.93
681.73	452.21
682.06	449.71
682.40	447.11
682.74	444.55
683.08	441.97
683.42	439.41
683.75	436.89
684.09	434.29
684.43	431.80
684.77	429.32
685.10	426.96
685.44	424.67
685.78	422.39
686.12	420.16
686.45	417.81
686.79	415.43
687.13	413.25
687.46	411.10
687.80	408.94
688.14	406.72
688.48	404.63
688.81	402.40
689.15	400.26
689.49	398.16
689.82	396.07
690.16	393.98
690.50	392.02
690.83	390.06
691.17	388.11
691.51	386.24
691.84	384.39
692.18	382.48
692.52	380.52
692.85	378.58
693.19	376.74
693.52	374.87
693.86	373.11
694.20	371.31
694.53	369.46
694.87	367.64
695.21	365.85
695.54	364.05
695.88	362.32
696.21	360.57
696.55	358.87
696.88	357.23
697.22	355.56
697.56	353.91
697.89	352.22
698.23	350.64
698.56	349.04
698.90	347.44
699.23	345.82
699.57	344.27
699.90	342.70
700.24	341.14
700.58	339.66
700.91	338.15
701.25	336.71
701.58	335.36
701.92	333.96
702.25	332.60
702.59	331.19
702.92	329.83
703.26	328.54
703.59	327.27
703.93	326.07
704.26	324.84
704.60	323.54
704.93	322.33
705.26	320.99
705.60	319.77
705.93	318.57
706.27	317.49
706.60	316.39
706.94	315.33
707.27	314.20
707.61	313.15
707.94	312.11
708.27	311.00
708.61	309.90
708.94	308.92
709.28	307.91
709.61	306.96
709.94	306.03
710.28	304.99
710.61	304.03
710.95	302.93
711.28	302.04
711.61	301.08
711.95	300.14
712.28	299.22
712.61	298.22
712.95	297.32
713.28	296.43
713.61	295.54
713.95	294.64
714.28	293.78
714.61	292.89
714.95	292.02
715.28	291.20
715.61	290.31
715.95	289.42
716.28	288.55
716.61	287.67
716.95	286.83
717.28	286.08
717.61	285.27
717.94	284.56
718.28	283.72
718.61	282.97
718.94	282.26
719.27	281.60
719.61	280.93
719.94	280.23
720.27	279.51
720.60	278.82
720.94	278.21
721.27	277.62
721.60	277.03
721.93	276.42
722.27	275.86
722.60	275.33
722.93	274.78
723.26	274.27
723.59	273.74
723.93	273.20
724.26	272.64
724.59	272.09
724.92	271.53
725.25	271.01
725.59	270.53
725.92	270.04
726.25	269.54
726.58	269.10
726.91	268.60
727.24	268.16
727.57	267.68
727.91	267.14
728.24	266.67
728.57	266.17
728.90	265.75
729.23	265.24
729.56	264.80
729.89	264.31
730.22	263.82
730.55	263.34
730.89	262.93
731.22	262.50
731.55	262.08
731.88	261.65
732.21	261.24
732.54	260.80
732.87	260.40
733.20	260.02
733.53	259.64
733.86	259.32
734.19	258.94
734.52	258.56
734.85	258.28
735.18	257.89
735.51	257.54
735.84	257.16
736.17	256.82
736.50	256.43
736.83	256.21
737.16	255.91
737.49	255.60
737.82	255.23
738.15	254.90
738.48	254.60
738.81	254.30
739.14	253.99
739.47	253.66
739.80	253.33
740.13	253.03
740.46	252.68
740.79	252.32
741.12	252.02
741.45	251.74
741.78	251.37
742.11	251.12
742.44	250.79
742.77	250.51
743.10	250.20
743.43	249.94
743.75	249.54
744.08	249.39
744.41	249.10
744.74	248.80
745.07	248.51
745.40	248.25
745.73	248.03
746.06	247.75
746.39	247.51
746.71	247.25
747.04	246.96
747.37	246.70
747.70	246.49
748.03	246.22
748.36	245.99
748.68	245.76
749.01	245.47
749.34	245.26
749.67	245.03
750.00	244.84
750.33	244.68
750.65	244.49
750.98	244.13
751.31	243.92
751.64	243.72
751.97	243.55
752.29	243.33
752.62	243.05
752.95	242.82
753.28	242.57
753.60	242.37
753.93	242.22
754.26	242.04
754.59	241.81
754.91	241.60
755.24	241.41
755.57	241.24
755.90	241.04
756.22	240.85
756.55	240.65
756.88	240.42
757.20	240.17
757.53	239.97
757.86	239.77
758.19	239.67
758.51	239.50
758.84	239.27
759.17	239.09
759.49	238.93
759.82	238.82
760.15	238.69
760.47	238.54
760.80	238.33
761.13	238.19
761.45	237.99
761.78	237.84
762.11	237.66
762.43	237.50
762.76	237.37
763.08	237.20
763.41	237.03
763.74	236.89
764.06	236.75
764.39	236.60
764.71	236.46
765.04	236.29
765.37	236.14
765.69	236.06
766.02	235.92
766.34	235.78
766.67	235.59
767.00	235.51
767.32	235.42
767.65	235.40
767.97	235.28
768.30	235.24
768.62	235.12
768.95	235.01
769.27	234.89
769.60	234.81
769.92	234.71
770.25	234.64
770.57	234.54
770.90	234.42
771.22	234.33
771.55	234.25
771.87	234.14
772.20	234.04
772.52	234.01
772.85	234.05
773.17	233.97
773.50	233.88
773.82	233.74
774.15	233.62
774.47	233.48
774.80	233.36
775.12	233.26
775.45	233.18
775.77	233.12
776.09	233.02
776.42	232.91
776.74	232.91
777.07	232.82
777.39	232.75
777.72	232.67
778.04	232.60
778.36	232.52
778.69	232.45
779.01	232.40
779.33	232.25
779.66	232.07
779.98	231.98
780.31	231.93
780.63	231.93
780.95	231.86
781.28	231.79
781.60	231.74
781.92	231.67
782.25	231.60
782.57	231.51
782.89	231.50
783.22	231.44
783.54	231.33
783.86	231.28
784.19	231.23
784.51	231.20
784.83	231.13
785.16	231.10
785.48	231.07
785.80	231.01
786.12	230.97
786.45	230.92
786.77	230.93
787.09	230.88
787.42	230.79
787.74	230.78
788.06	230.74
788.38	230.68
788.71	230.62
789.03	230.60
789.35	230.59
789.67	230.52
789.99	230.50
790.32	230.44
790.64	230.43
790.96	230.45
791.28	230.39
791.61	230.37
791.93	230.34
792.25	230.28
792.57	230.28
792.89	230.23
793.21	230.20
793.54	230.12
793.86	230.12
794.18	230.09
794.50	230.03
794.82	229.98
795.14	229.93
795.47	229.90
795.79	229.86
796.11	229.79
796.43	229.75
796.75	229.71
797.07	229.69
797.39	229.63
797.71	229.50
798.04	229.47
798.36	229.41
798.68	229.35
799.00	229.29
799.32	229.24
799.64	229.21
799.96	229.18
800.28	229.15
800.60	229.08
800.92	229.07
801.24	228.99
801.56	228.99
801.89	228.97
802.21	228.93
802.53	228.90
802.85	228.87
803.17	228.89
803.49	228.84
803.81	228.82
804.13	228.74
804.45	228.68
804.77	228.69
805.09	228.65
805.41	228.64
805.73	228.63
806.05	228.61
806.37	228.59
806.69	228.56
807.01	228.53
807.33	228.54
807.65	228.45
807.97	228.47
808.28	228.45
808.60	228.43
808.92	228.41
809.24	228.42
809.56	228.40
809.88	228.34
810.20	228.35
810.52	228.35
810.84	228.36
811.16	228.33
811.48	228.27
811.80	228.30
812.12	228.25
812.43	228.23
812.75	228.20
813.07	228.18
813.39	228.16
813.71	228.15
814.03	228.10
814.35	228.11
814.67	228.07
814.98	227.99
815.30	227.92
815.62	227.92
815.94	227.85
816.26	227.88
816.58	227.85
816.89	227.78
817.21	227.72
817.53	227.71
817.85	227.73
818.17	227.72
818.48	227.66
818.80	227.67
819.12	227.65
819.44	227.62
819.76	227.60
820.07	227.61
820.39	227.58
820.71	227.57
821.03	227.56
821.34	227.53
821.66	227.58
821.98	227.60
822.30	227.59
822.61	227.66
822.93	227.57
823.25	227.55
823.57	227.56
823.88	227.60
824.20	227.56
824.52	227.57
824.83	227.55
825.15	227.52
825.47	227.51
825.79	227.50
826.10	227.47
826.42	227.44
826.74	227.39
827.05	227.39
827.37	227.39
827.69	227.40
828.00	227.41
828.32	227.38
828.64	227.38
828.95	227.39
829.27	227.33
829.58	227.37
829.90	227.38
830.22	227.40
830.53	227.37
830.85	227.37
831.17	227.34
831.48	227.35
831.80	227.37
832.11	227.37
832.43	227.34
832.75	227.34
833.06	227.40
833.38	227.37
833.69	227.34
834.01	227.34
834.32	227.32
834.64	227.30
834.96	227.27
835.27	227.25
835.59	227.25
835.90	227.21
836.22	227.17
836.53	227.13
836.85	227.09
837.16	227.16
837.48	227.15
837.79	227.16
838.11	227.13
838.42	227.09
838.74	227.08
839.05	227.06
839.37	227.08
839.68	227.02
840.00	227.02
840.31	227.03
840.63	227.03
840.94	226.98
841.26	226.94
841.57	226.98
841.88	226.98
842.20	226.92
842.51	226.91
842.83	226.92
843.14	227.00
843.46	227.01
843.77	226.97
844.08	226.98
844.40	226.94
844.71	226.94
845.03	226.95
845.34	226.95
845.65	226.98
845.97	226.96
846.28	226.96
846.60	226.97
846.91	226.94
847.22	226.90
847.54	226.94
847.85	226.97
848.16	226.93
848.48	226.89
848.79	226.93
849.10	226.93
849.42	226.92
849.73	226.82
850.04	226.83
850.36	226.77
850.67	226.76
850.98	226.79
851.30	226.79
851.61	226.77
851.92	226.73
852.23	226.72
852.55	226.71
852.86	226.67
853.17	226.64
853.49	226.67
853.80	226.69
854.11	226.69
854.42	226.66
854.74	226.64
855.05	226.65
855.36	226.60
855.67	226.61
855.99	226.62
856.30	226.70
856.61	226.66
856.92	226.65
857.23	226.61
857.55	226.59
857.86	226.58
858.17	226.58
858.48	226.56
858.79	226.57
859.11	226.59
859.42	226.61
859.73	226.57
860.04	226.58
860.35	226.53
860.66	226.49
860.98	226.50
861.29	226.50
861.60	226.47
861.91	226.48
862.22	226.45
862.53	226.40
862.84	226.30
863.16	226.34
863.47	226.33
863.78	226.33
864.09	226.34
864.40	226.33
864.71	226.34
865.02	226.38
865.33	226.34
865.64	226.32
865.95	226.30
866.27	226.41
866.58	226.38
866.89	226.42
867.20	226.43
867.51	226.42
867.82	226.43
868.13	226.47
868.44	226.44
868.75	226.47
869.06	226.52
869.37	226.54
869.68	226.51
869.99	226.52
870.30	226.54
870.61	226.57
870.92	226.57
871.23	226.54
871.54	226.56
871.85	226.59
872.16	226.59
872.47	226.61
872.78	226.49
873.09	226.50
873.40	226.48
873.71	226.51
874.02	226.51
874.33	226.50
874.64	226.48
874.95	226.56
875.26	226.52
875.56	226.50
875.87	226.50
876.18	226.50
876.49	226.57
876.80	226.56
877.11	226.54
877.42	226.52
877.73	226.55
878.04	226.53
878.35	226.52
878.66	226.55
878.96	226.54
879.27	226.58
879.58	226.57
879.89	226.54
880.20	226.56
880.51	226.57
880.82	226.56
881.12	226.56
881.43	226.49
881.74	226.46
882.05	226.46
882.36	226.45
882.67	226.42
882.97	226.32
883.28	226.33
883.59	226.30
883.90	226.31
884.21	226.29
884.51	226.26
884.82	226.26
885.13	226.23
885.44	226.21
885.74	226.20
886.05	226.20
886.36	226.20
886.67	226.13
886.98	226.14
887.28	226.13
887.59	226.10
887.90	226.12
888.20	226.14
888.51	226.11
888.82	226.10
889.13	226.13
889.43	226.23
889.74	226.22
890.05	226.23
890.35	226.24
890.66	226.20
890.97	226.21
891.28	226.18
891.58	226.18
891.89	226.18
892.20	226.16
892.50	226.14
892.81	226.17
893.12	226.20
893.42	226.15
893.73	226.16
894.04	226.17
894.34	226.18
894.65	226.15
894.95	226.18
895.26	226.13
895.57	226.19
895.87	226.08
896.18	226.08
896.48	226.07
896.79	226.11
897.10	226.16
897.40	226.13
897.71	226.16
898.01	226.15
898.32	226.14
898.63	226.13
898.93	226.10
899.24	226.06
899.54	226.02
899.85	226.04
900.15	226.02
900.46	226.01
900.76	226.00
901.07	225.98
901.38	225.97
901.68	226.00
901.99	225.92
902.29	225.91
902.60	225.92
902.90	225.90
903.21	225.87
903.51	225.84
903.82	225.91
904.12	225.89
904.43	225.88
904.73	225.88
905.03	225.88
905.34	226.02
905.64	226.01
905.95	226.07
906.25	226.05
906.56	226.07
906.86	226.09
907.17	226.09
907.47	226.13
907.77	226.12
908.08	226.11
908.38	226.12
908.69	226.14
908.99	226.16
909.30	226.18
909.60	226.18
909.90	226.18
910.21	226.12
910.51	226.15
910.81	226.16
911.12	226.16
911.42	226.20
911.73	226.11
912.03	226.12
912.33	226.09
912.64	226.11
912.94	226.09
913.24	226.09
913.55	226.08
913.85	226.07
914.15	226.08
914.46	226.07
914.76	226.04
915.06	226.04
915.37	226.01
915.67	225.98
915.97	226.00
916.27	225.98
916.58	225.99
916.88	225.94
917.18	225.96
917.49	226.07
917.79	226.05
918.09	226.06
918.39	226.12
918.70	226.13
919.00	226.12
919.30	226.17
919.60	226.17
919.91	226.18
920.21	226.20
920.51	226.17
920.81	226.19
921.12	226.24
921.42	226.24
921.72	226.25
922.02	226.25
922.32	226.23
922.63	226.21
922.93	226.25
923.23	226.26
923.53	226.24
923.83	226.15
924.13	226.15
924.44	226.16
924.74	226.13
925.04	226.14
925.34	226.13
925.64	226.06
925.94	226.03
926.24	226.09
926.55	226.06
926.85	226.09
927.15	226.05
927.45	226.03
927.75	226.02
928.05	226.01
928.35	225.96
928.65	225.98
928.95	226.02
929.26	225.96
929.56	226.00
929.86	225.99
930.16	225.96
930.46	225.95
930.76	225.92
931.06	225.90
931.36	225.89
931.66	225.90
931.96	225.93
932.26	225.95
932.56	225.87
932.86	225.89
933.16	225.89
933.46	225.91
933.76	225.91
934.06	225.94
934.36	225.96
934.66	226.00
934.96	225.99
935.26	225.96
935.56	225.98
935.86	225.96
936.16	225.94
936.46	225.95
936.76	225.94
937.06	225.96
937.36	225.96
937.66	225.96
937.96	225.96
938.26	225.94
938.56	225.94
938.86	225.96
939.16	225.97
939.46	226.00
939.76	226.01
940.06	226.00
940.35	225.97
940.65	225.93
940.95	225.93
941.25	225.92
941.55	225.93
941.85	225.94
942.15	225.98
942.45	226.03
942.75	226.04
943.04	226.04
943.34	226.03
943.64	226.02
943.94	226.00
944.24	226.00
944.54	226.02
944.84	225.99
945.13	226.00
945.43	226.00
945.73	225.98
946.03	225.96
946.33	225.95
946.62	225.95
946.92	225.96
947.22	225.98
947.52	225.98
947.82	226.01
948.11	225.96
948.41	225.93
948.71	225.90
949.01	225.91
949.31	225.91
949.60	225.93
949.90	225.96
950.20	225.96
950.50	225.98
950.79	225.97
951.09	225.99
951.39	226.00
951.69	225.99
951.98	225.99
952.28	226.01
952.58	226.02
952.87	226.03
953.17	226.03
953.47	226.03
953.76	226.04
954.06	226.02
954.36	226.05
954.66	226.05
954.95	226.10
955.25	226.13
955.55	226.10
955.84	226.09
956.14	226.08
956.44	226.10
956.73	226.09
957.03	226.09
957.32	226.11
957.62	226.10
957.92	226.13
958.21	226.15
958.51	226.24
958.81	226.26
959.10	226.25
959.40	226.26
959.69	226.23
959.99	226.22
960.29	226.21
960.58	226.22
960.88	226.22
961.17	226.22
961.47	226.21
961.76	226.21
962.06	226.18
962.36	226.17
962.65	226.17
962.95	226.16
963.24	226.15
963.54	226.16
963.83	226.16
964.13	226.14
964.42	226.11
964.72	226.05
965.01	226.04
965.31	226.03
965.60	226.04
965.90	226.13
966.19	226.11
966.49	226.11
966.78	226.08
967.08	226.09
967.37	226.10
967.67	226.04
967.96	226.06
968.26	226.09
968.55	226.10
968.85	226.09
969.14	226.10
969.43	226.09
969.73	226.08
970.02	226.05
970.32	226.04
970.61	226.02
970.91	225.98
971.20	225.98
971.49	225.97
971.79	225.99
972.08	225.90
972.38	225.93
972.67	225.92
972.96	225.94
973.26	225.93
973.55	225.94
973.85	225.96
974.14	225.95
974.43	225.97
974.73	225.98
975.02	225.97
975.31	225.96
975.61	225.95
975.90	225.95
976.19	225.93
976.49	226.00
976.78	226.03
977.07	226.05
977.37	226.04
977.66	226.08
977.95	226.05
978.24	226.06
978.54	226.08
978.83	226.10
979.12	226.09
979.42	226.08
979.71	226.08
980.00	226.08
980.29	226.11
980.59	226.05
980.88	226.07
981.17	226.09
981.46	226.08
981.76	226.08
982.05	226.10
982.34	226.13
982.63	226.06
982.93	226.08
983.22	226.09
983.51	226.11
983.80	226.11
984.09	226.12
984.39	226.12
984.68	226.14
984.97	226.14
985.26	226.13
985.55	226.15
985.85	226.12
986.14	226.14
986.43	226.13
986.72	226.15
987.01	226.10
987.30	226.13
987.59	226.09
987.89	226.12
988.18	226.08
988.47	226.08
988.76	226.11
989.05	226.08
989.34	226.09
989.63	226.12
989.92	226.11
990.22	226.08
990.51	226.08
990.80	226.04
991.09	226.04
991.38	226.06
991.67	226.05
991.96	225.99
992.25	225.96
992.54	225.94
992.83	225.94
993.12	225.94
993.41	225.92
993.70	225.97
993.99	225.97
994.28	226.00
994.58	226.00
994.87	225.97
995.16	225.94
995.45	225.92
995.74	225.88
996.03	225.88
996.32	225.89
996.61	225.89
996.90	225.87
997.19	225.86
997.48	225.86
997.77	225.82
998.06	225.85
998.34	225.88
998.63	225.90
998.92	225.89
999.21	225.90
999.50	225.91
999.79	225.90
1000.08	225.91
1000.37	225.91
1000.66	225.90
1000.95	225.93
1001.24	225.94
1001.53	225.93
1001.82	225.91
1002.11	225.90
1002.40	225.90
1002.68	225.91
1002.97	225.96
1003.26	225.94
1003.55	225.89
1003.84	225.92
1004.13	225.95
1004.42	225.92
1004.71	225.89
1004.99	225.88
1005.28	225.92
1005.57	225.92
1005.86	225.89
1006.15	225.88
1006.44	225.85
1006.72	225.90
1007.01	225.87
1007.30	225.85
1007.59	225.87
1007.88	225.85
1008.17	225.84
1008.45	225.84
1008.74	225.82
1009.03	225.81
1009.32	225.80
1009.60	225.83
1009.89	225.83
1010.18	225.78
1010.47	225.76
1010.76	225.79
1011.04	225.79
1011.33	225.80
1011.62	225.79
1011.91	225.81
1012.19	225.79
1012.48	225.83
1012.77	225.82
1013.05	225.87
1013.34	225.88
1013.63	225.89
1013.92	225.92
1014.20	225.93
1014.49	225.97
1014.78	225.98
1015.06	225.98
1015.35	226.02
1015.64	226.05
1015.92	226.08
1016.21	226.12
1016.50	226.14
1016.78	226.14
1017.07	226.16
1017.36	226.12
1017.64	226.12
1017.93	226.12
1018.22	226.13
1018.50	226.09
1018.79	226.06
1019.08	226.00
1019.36	226.02
1019.65	225.99
1019.93	226.03
1020.22	226.04
1020.51	226.06
1020.79	226.05
1021.08	225.82
1021.36	225.60
1021.65	225.85
1021.94	225.25
1022.22	226.06
1022.51	225.93
1022.79	226.51
1023.08	226.06
1023.36	226.90
1023.65	225.99
>>>>>End Processed Spectral Data<<<<<
