SpectraSuite Data File
++++++++++++++++++++++++++++++++++++
Date: Fri Feb 01 15:06:58 EST 2013
User: group
Dark Spectrum Present: No
Reference Spectrum Present: No
Number of Sampled Component Spectra: 1
Spectrometers: USB2E7196
Integration Time (usec): 35000 (USB2E7196)
Spectra Averaged: 100 (USB2E7196)
Boxcar Smoothing: 10 (USB2E7196)
Correct for Electrical Dark: No (USB2E7196)
Strobe/Lamp Enabled: No (USB2E7196)
Correct for Detector Non-linearity: No (USB2E7196)
Correct for Stray Light: No (USB2E7196)
Number of Pixels in Processed Spectrum: 2048
>>>>>Begin Processed Spectral Data<<<<<
339.09	0.00
339.48	214.94
339.86	216.94
340.24	217.89
340.63	220.47
341.01	222.59
341.39	222.49
341.78	224.20
342.16	224.84
342.54	225.08
342.93	213.63
343.31	224.41
343.69	225.00
344.07	225.45
344.46	225.89
344.84	226.22
345.22	226.43
345.60	226.68
345.99	226.85
346.37	226.95
346.75	227.08
347.13	227.16
347.52	227.22
347.90	227.28
348.28	227.31
348.66	227.37
349.05	227.35
349.43	227.40
349.81	227.43
350.19	227.45
350.57	227.51
350.96	227.61
351.34	227.70
351.72	227.76
352.10	227.85
352.48	227.93
352.87	228.03
353.25	228.13
353.63	228.20
354.01	228.25
354.39	228.37
354.77	228.44
355.15	228.52
355.54	228.60
355.92	228.64
356.30	228.72
356.68	228.84
357.06	228.95
357.44	229.01
357.82	229.05
358.20	229.16
358.58	229.20
358.97	229.26
359.35	229.32
359.73	229.39
360.11	229.44
360.49	229.49
360.87	229.51
361.25	229.58
361.63	229.65
362.01	229.69
362.39	229.72
362.77	229.74
363.15	229.77
363.53	229.80
363.91	229.80
364.29	229.83
364.67	229.76
365.05	229.74
365.43	229.74
365.81	229.78
366.19	229.81
366.57	229.82
366.95	229.78
367.33	229.74
367.71	229.71
368.09	229.69
368.47	229.64
368.85	229.57
369.23	229.52
369.61	229.44
369.99	229.43
370.37	229.38
370.75	229.41
371.13	229.33
371.51	229.26
371.89	229.22
372.27	229.17
372.65	229.11
373.03	229.04
373.41	228.97
373.78	228.90
374.16	228.74
374.54	228.64
374.92	228.61
375.30	228.55
375.68	228.46
376.06	228.40
376.44	228.33
376.82	228.26
377.19	228.19
377.57	228.07
377.95	227.95
378.33	227.86
378.71	227.71
379.09	227.65
379.47	227.56
379.84	227.50
380.22	227.40
380.60	227.34
380.98	227.31
381.36	227.26
381.73	227.18
382.11	227.18
382.49	227.12
382.87	227.00
383.25	226.91
383.62	226.94
384.00	226.83
384.38	226.75
384.76	226.72
385.13	226.68
385.51	226.63
385.89	226.59
386.27	226.54
386.64	226.50
387.02	226.44
387.40	226.42
387.78	226.37
388.15	226.33
388.53	226.28
388.91	226.20
389.29	226.16
389.66	226.16
390.04	226.10
390.42	226.12
390.79	226.08
391.17	226.06
391.55	225.95
391.92	225.98
392.30	226.00
392.68	225.97
393.05	225.95
393.43	225.99
393.81	225.98
394.18	225.97
394.56	225.98
394.94	226.04
395.31	226.04
395.69	226.09
396.06	226.16
396.44	226.19
396.82	226.22
397.19	226.32
397.57	226.34
397.95	226.43
398.32	226.45
398.70	226.54
399.07	226.65
399.45	226.69
399.82	226.77
400.20	226.83
400.58	226.94
400.95	227.01
401.33	227.13
401.70	227.28
402.08	227.40
402.45	227.49
402.83	227.59
403.20	227.73
403.58	227.84
403.95	227.95
404.33	228.11
404.71	228.29
405.08	228.49
405.46	228.65
405.83	228.78
406.21	228.95
406.58	229.15
406.96	229.30
407.33	229.51
407.70	229.74
408.08	230.04
408.45	230.27
408.83	230.54
409.20	230.73
409.58	230.95
409.95	231.22
410.33	231.53
410.70	231.78
411.08	232.08
411.45	232.36
411.82	232.69
412.20	233.07
412.57	233.46
412.95	233.77
413.32	234.20
413.69	234.62
414.07	235.08
414.44	235.53
414.82	236.03
415.19	236.60
415.56	237.17
415.94	237.71
416.31	238.33
416.68	238.95
417.06	239.68
417.43	240.37
417.81	241.18
418.18	241.93
418.55	242.81
418.93	243.68
419.30	244.61
419.67	245.54
420.04	246.48
420.42	247.48
420.79	248.64
421.16	249.75
421.54	250.94
421.91	252.13
422.28	253.39
422.66	254.74
423.03	256.08
423.40	257.36
423.77	258.81
424.15	260.22
424.52	261.69
424.89	263.29
425.26	264.82
425.64	266.24
426.01	267.82
426.38	269.46
426.75	271.13
427.13	272.86
427.50	274.69
427.87	276.58
428.24	278.46
428.61	280.20
428.99	282.17
429.36	284.28
429.73	286.40
430.10	288.39
430.47	290.46
430.85	292.54
431.22	294.80
431.59	297.17
431.96	299.43
432.33	301.95
432.70	304.33
433.08	307.16
433.45	309.82
433.82	312.43
434.19	315.34
434.56	318.21
434.93	320.89
435.30	323.55
435.68	326.38
436.05	329.16
436.42	331.96
436.79	334.50
437.16	337.13
437.53	339.91
437.90	342.74
438.27	345.46
438.64	348.30
439.01	350.88
439.38	353.13
439.75	355.31
440.13	357.76
440.50	360.07
440.87	361.86
441.24	363.82
441.61	366.03
441.98	367.47
442.35	369.21
442.72	371.09
443.09	372.87
443.46	373.90
443.83	374.52
444.20	375.02
444.57	375.87
444.94	376.26
445.31	376.57
445.68	376.92
446.05	377.02
446.42	376.63
446.79	376.26
447.16	375.83
447.53	375.50
447.90	374.38
448.27	373.21
448.64	371.70
449.01	370.55
449.37	368.56
449.74	366.69
450.11	364.45
450.48	361.92
450.85	359.38
451.22	357.23
451.59	355.22
451.96	353.30
452.33	350.63
452.70	348.24
453.07	345.45
453.43	342.58
453.80	339.79
454.17	337.10
454.54	334.54
454.91	331.78
455.28	329.14
455.65	326.63
456.02	324.20
456.38	322.01
456.75	319.36
457.12	317.09
457.49	314.89
457.86	312.76
458.23	310.91
458.59	308.84
458.96	306.72
459.33	304.83
459.70	302.94
460.07	301.47
460.43	299.73
460.80	298.13
461.17	296.67
461.54	295.21
461.91	293.82
462.27	292.35
462.64	291.12
463.01	289.76
463.38	288.50
463.74	287.17
464.11	286.00
464.48	284.97
464.85	283.88
465.21	283.03
465.58	282.09
465.95	280.99
466.32	280.09
466.68	279.22
467.05	278.34
467.42	277.45
467.78	276.53
468.15	275.67
468.52	275.00
468.88	274.15
469.25	273.35
469.62	272.70
469.98	272.00
470.35	271.32
470.72	270.74
471.08	270.00
471.45	269.41
471.82	268.84
472.18	268.18
472.55	267.73
472.92	267.17
473.28	266.70
473.65	266.23
474.02	265.78
474.38	265.41
474.75	265.07
475.11	264.72
475.48	264.43
475.85	264.16
476.21	263.92
476.58	263.71
476.94	263.55
477.31	263.33
477.67	263.18
478.04	263.07
478.41	262.95
478.77	263.00
479.14	262.93
479.50	262.95
479.87	263.01
480.23	263.07
480.60	263.11
480.96	263.18
481.33	263.40
481.69	263.59
482.06	263.75
482.42	263.92
482.79	264.16
483.15	264.48
483.52	264.88
483.88	265.20
484.25	265.57
484.61	265.97
484.98	266.45
485.34	266.98
485.71	267.53
486.07	268.12
486.44	268.66
486.80	269.37
487.17	270.05
487.53	270.87
487.90	271.70
488.26	272.62
488.62	273.56
488.99	274.50
489.35	275.54
489.72	276.68
490.08	277.87
490.44	279.11
490.81	280.42
491.17	281.75
491.54	283.21
491.90	284.73
492.26	286.38
492.63	288.07
492.99	289.84
493.36	291.77
493.72	293.81
494.08	295.90
494.45	298.16
494.81	300.54
495.17	302.94
495.54	305.51
495.90	308.18
496.26	310.95
496.63	313.90
496.99	316.96
497.35	320.18
497.72	323.61
498.08	327.15
498.44	330.80
498.80	334.68
499.17	338.73
499.53	342.92
499.89	347.27
500.26	351.75
500.62	356.39
500.98	361.34
501.34	366.43
501.71	371.77
502.07	377.15
502.43	382.76
502.79	388.60
503.16	394.63
503.52	400.90
503.88	407.36
504.24	413.98
504.60	420.89
504.97	428.00
505.33	435.32
505.69	443.01
506.05	450.75
506.41	458.66
506.78	466.80
507.14	475.18
507.50	483.89
507.86	492.93
508.22	502.13
508.59	511.36
508.95	520.89
509.31	530.71
509.67	540.84
510.03	551.13
510.39	561.67
510.75	572.47
511.12	583.40
511.48	594.65
511.84	606.08
512.20	617.62
512.56	629.61
512.92	641.71
513.28	654.06
513.64	666.61
514.00	679.28
514.37	692.14
514.73	705.20
515.09	718.18
515.45	731.55
515.81	745.15
516.17	759.07
516.53	773.25
516.89	787.37
517.25	801.56
517.61	815.96
517.97	830.48
518.33	844.86
518.69	859.74
519.05	874.82
519.41	890.09
519.77	905.68
520.13	921.13
520.49	936.59
520.85	952.00
521.21	967.73
521.57	984.16
521.93	1000.12
522.29	1016.57
522.65	1033.05
523.01	1049.26
523.37	1065.41
523.73	1081.64
524.09	1097.79
524.45	1114.22
524.81	1130.89
525.17	1147.86
525.53	1164.81
525.89	1181.89
526.25	1198.68
526.61	1215.07
526.97	1231.78
527.33	1248.29
527.68	1265.04
528.04	1281.59
528.40	1298.22
528.76	1315.36
529.12	1331.83
529.48	1348.72
529.84	1364.74
530.20	1381.34
530.56	1398.57
530.91	1415.97
531.27	1432.73
531.63	1449.27
531.99	1465.85
532.35	1481.88
532.71	1497.83
533.07	1514.08
533.42	1530.01
533.78	1546.13
534.14	1562.52
534.50	1578.05
534.86	1594.02
535.21	1609.09
535.57	1625.20
535.93	1640.87
536.29	1655.70
536.65	1670.92
537.00	1685.87
537.36	1701.26
537.72	1715.82
538.08	1730.25
538.44	1744.14
538.79	1758.24
539.15	1772.14
539.51	1786.10
539.87	1800.57
540.22	1814.33
540.58	1828.30
540.94	1841.80
541.29	1854.79
541.65	1867.57
542.01	1880.88
542.37	1893.17
542.72	1905.83
543.08	1917.57
543.44	1930.00
543.79	1941.38
544.15	1952.36
544.51	1963.93
544.87	1975.06
545.22	1985.93
545.58	1996.17
545.94	2005.97
546.29	2015.81
546.65	2025.56
547.01	2034.83
547.36	2043.71
547.72	2052.22
548.07	2060.05
548.43	2068.15
548.79	2076.23
549.14	2083.76
549.50	2091.11
549.86	2098.96
550.21	2106.33
550.57	2113.63
550.92	2120.20
551.28	2127.30
551.64	2134.44
551.99	2140.89
552.35	2146.97
552.70	2153.17
553.06	2159.16
553.41	2165.38
553.77	2171.39
554.13	2177.48
554.48	2183.52
554.84	2188.70
555.19	2194.11
555.55	2199.22
555.90	2203.77
556.26	2208.51
556.61	2213.24
556.97	2217.32
557.32	2221.40
557.68	2225.44
558.03	2229.61
558.39	2233.42
558.74	2237.87
559.10	2241.65
559.45	2245.23
559.81	2249.58
560.16	2253.40
560.52	2256.59
560.87	2260.22
561.23	2262.98
561.58	2265.76
561.94	2268.16
562.29	2270.65
562.64	2273.24
563.00	2275.83
563.35	2279.26
563.71	2282.48
564.06	2285.60
564.42	2288.47
564.77	2290.79
565.12	2293.00
565.48	2294.79
565.83	2296.46
566.19	2297.61
566.54	2298.67
566.89	2299.76
567.25	2300.26
567.60	2301.52
567.96	2302.96
568.31	2303.59
568.66	2304.42
569.02	2305.04
569.37	2305.43
569.72	2306.06
570.08	2305.99
570.43	2305.91
570.78	2305.01
571.14	2303.30
571.49	2301.93
571.84	2301.57
572.20	2300.26
572.55	2299.17
572.90	2297.55
573.26	2295.97
573.61	2294.28
573.96	2292.02
574.31	2288.88
574.67	2285.68
575.02	2281.78
575.37	2278.31
575.72	2274.26
576.08	2270.88
576.43	2267.34
576.78	2263.46
577.13	2260.32
577.49	2257.18
577.84	2253.45
578.19	2249.80
578.54	2246.01
578.90	2241.54
579.25	2235.82
579.60	2230.77
579.95	2225.40
580.30	2220.23
580.66	2215.03
581.01	2209.91
581.36	2205.00
581.71	2200.71
582.06	2196.15
582.42	2191.59
582.77	2186.31
583.12	2181.68
583.47	2176.71
583.82	2171.61
584.17	2166.18
584.53	2160.58
584.88	2154.73
585.23	2148.97
585.58	2143.34
585.93	2137.91
586.28	2133.15
586.63	2128.00
586.98	2122.87
587.34	2118.16
587.69	2113.21
588.04	2107.63
588.39	2101.92
588.74	2095.47
589.09	2089.32
589.44	2082.41
589.79	2076.43
590.14	2070.80
590.49	2064.16
590.84	2057.90
591.19	2051.77
591.54	2045.25
591.89	2037.53
592.25	2030.76
592.60	2023.38
592.95	2015.59
593.30	2008.10
593.65	2000.44
594.00	1993.32
594.35	1985.98
594.70	1977.88
595.05	1970.42
595.40	1963.24
595.75	1955.72
596.10	1949.36
596.45	1942.30
596.80	1936.09
597.15	1929.29
597.50	1922.02
597.85	1915.59
598.19	1908.64
598.54	1901.61
598.89	1895.00
599.24	1889.20
599.59	1882.18
599.94	1875.97
600.29	1869.79
600.64	1863.12
600.99	1855.49
601.34	1848.55
601.69	1841.55
602.04	1834.57
602.39	1827.23
602.74	1820.37
603.08	1813.60
603.43	1806.88
603.78	1799.79
604.13	1792.60
604.48	1785.16
604.83	1778.33
605.18	1771.10
605.53	1763.21
605.87	1755.16
606.22	1747.99
606.57	1740.03
606.92	1732.87
607.27	1725.58
607.62	1718.53
607.96	1711.22
608.31	1704.54
608.66	1696.86
609.01	1689.33
609.36	1681.80
609.70	1673.89
610.05	1665.70
610.40	1657.85
610.75	1649.48
611.10	1641.76
611.44	1633.42
611.79	1625.62
612.14	1616.90
612.49	1607.96
612.83	1599.65
613.18	1591.49
613.53	1583.28
613.88	1574.69
614.22	1566.42
614.57	1557.94
614.92	1549.91
615.27	1542.37
615.61	1534.07
615.96	1526.23
616.31	1518.65
616.65	1511.33
617.00	1503.67
617.35	1496.25
617.70	1488.01
618.04	1479.46
618.39	1471.15
618.74	1463.57
619.08	1455.15
619.43	1447.54
619.78	1440.64
620.12	1433.32
620.47	1425.79
620.82	1417.70
621.16	1410.43
621.51	1402.93
621.85	1395.29
622.20	1386.76
622.55	1378.52
622.89	1370.84
623.24	1363.33
623.59	1355.97
623.93	1348.47
624.28	1341.30
624.62	1333.66
624.97	1326.42
625.32	1319.79
625.66	1312.82
626.01	1305.46
626.35	1298.02
626.70	1290.29
627.04	1282.47
627.39	1274.89
627.73	1267.46
628.08	1260.52
628.43	1253.16
628.77	1245.74
629.12	1238.29
629.46	1231.18
629.81	1223.77
630.15	1216.50
630.50	1209.02
630.84	1200.81
631.19	1192.92
631.53	1185.50
631.88	1178.00
632.22	1170.49
632.57	1163.22
632.91	1155.86
633.26	1148.53
633.60	1141.29
633.95	1134.33
634.29	1127.51
634.64	1120.78
634.98	1113.45
635.32	1106.44
635.67	1099.99
636.01	1093.30
636.36	1086.46
636.70	1080.03
637.05	1073.47
637.39	1067.05
637.73	1060.54
638.08	1054.72
638.42	1048.72
638.77	1042.30
639.11	1035.66
639.45	1029.34
639.80	1022.69
640.14	1016.17
640.49	1009.70
640.83	1003.40
641.17	997.21
641.52	990.82
641.86	984.49
642.20	978.79
642.55	972.47
642.89	965.94
643.23	959.63
643.58	953.87
643.92	947.63
644.26	941.63
644.61	935.70
644.95	929.72
645.29	923.12
645.64	916.46
645.98	910.19
646.32	904.47
646.66	898.45
647.01	892.64
647.35	887.05
647.69	881.30
648.04	875.86
648.38	870.08
648.72	864.09
649.06	858.06
649.41	852.12
649.75	846.11
650.09	840.11
650.43	834.25
650.78	828.08
651.12	822.18
651.46	816.37
651.80	810.51
652.14	805.02
652.49	799.70
652.83	794.54
653.17	788.81
653.51	783.09
653.85	777.74
654.20	772.10
654.54	766.08
654.88	760.30
655.22	754.42
655.56	748.75
655.90	743.34
656.25	738.04
656.59	732.71
656.93	727.62
657.27	722.50
657.61	717.04
657.95	711.98
658.29	706.82
658.64	701.65
658.98	696.46
659.32	691.03
659.66	685.82
660.00	680.46
660.34	675.51
660.68	670.64
661.02	665.60
661.36	660.91
661.70	656.47
662.05	652.14
662.39	647.77
662.73	643.36
663.07	638.98
663.41	634.50
663.75	630.03
664.09	625.49
664.43	621.13
664.77	617.08
665.11	612.87
665.45	608.83
665.79	604.75
666.13	600.58
666.47	596.50
666.81	592.36
667.15	588.29
667.49	584.47
667.83	580.72
668.17	576.76
668.51	572.68
668.85	568.68
669.19	564.80
669.53	560.97
669.87	556.97
670.21	553.25
670.55	549.68
670.89	546.27
671.23	542.82
671.57	539.34
671.91	535.75
672.25	532.26
672.58	528.78
672.92	525.43
673.26	522.31
673.60	519.23
673.94	516.14
674.28	513.27
674.62	510.34
674.96	507.24
675.30	504.41
675.64	501.49
675.97	498.75
676.31	495.91
676.65	493.02
676.99	490.39
677.33	487.55
677.67	484.72
678.01	481.66
678.34	478.78
678.68	475.92
679.02	473.17
679.36	470.48
679.70	467.75
680.04	464.95
680.37	462.08
680.71	459.28
681.05	456.72
681.39	454.05
681.73	451.41
682.06	448.83
682.40	446.25
682.74	443.77
683.08	441.22
683.42	438.68
683.75	436.24
684.09	433.74
684.43	431.31
684.77	428.87
685.10	426.57
685.44	424.26
685.78	422.03
686.12	419.83
686.45	417.53
686.79	415.25
687.13	413.10
687.46	410.96
687.80	408.87
688.14	406.68
688.48	404.64
688.81	402.38
689.15	400.26
689.49	398.14
689.82	396.09
690.16	394.03
690.50	392.10
690.83	390.15
691.17	388.23
691.51	386.35
691.84	384.58
692.18	382.64
692.52	380.66
692.85	378.80
693.19	376.95
693.52	375.19
693.86	373.45
694.20	371.66
694.53	369.88
694.87	368.02
695.21	366.25
695.54	364.38
695.88	362.71
696.21	361.01
696.55	359.36
696.88	357.68
697.22	356.03
697.56	354.36
697.89	352.69
698.23	351.04
698.56	349.46
698.90	347.84
699.23	346.22
699.57	344.70
699.90	343.09
700.24	341.51
700.58	339.92
700.91	338.33
701.25	336.87
701.58	335.50
701.92	334.17
702.25	332.76
702.59	331.45
702.92	330.11
703.26	328.82
703.59	327.52
703.93	326.35
704.26	325.12
704.60	323.88
704.93	322.60
705.26	321.33
705.60	320.12
705.93	318.97
706.27	317.95
706.60	316.89
706.94	315.79
707.27	314.65
707.61	313.61
707.94	312.61
708.27	311.50
708.61	310.44
708.94	309.40
709.28	308.45
709.61	307.43
709.94	306.46
710.28	305.41
710.61	304.41
710.95	303.32
711.28	302.42
711.61	301.48
711.95	300.57
712.28	299.66
712.61	298.70
712.95	297.79
713.28	296.90
713.61	295.99
713.95	295.11
714.28	294.28
714.61	293.39
714.95	292.56
715.28	291.73
715.61	290.86
715.95	290.02
716.28	289.18
716.61	288.37
716.95	287.58
717.28	286.87
717.61	286.14
717.94	285.40
718.28	284.59
718.61	283.87
718.94	283.17
719.27	282.49
719.61	281.84
719.94	281.19
720.27	280.49
720.60	279.84
720.94	279.28
721.27	278.72
721.60	278.17
721.93	277.61
722.27	277.09
722.60	276.56
722.93	275.99
723.26	275.43
723.59	274.89
723.93	274.36
724.26	273.83
724.59	273.29
724.92	272.78
725.25	272.31
725.59	271.80
725.92	271.33
726.25	270.85
726.58	270.35
726.91	269.83
727.24	269.37
727.57	268.94
727.91	268.38
728.24	267.93
728.57	267.44
728.90	267.00
729.23	266.52
729.56	266.12
729.89	265.71
730.22	265.29
730.55	264.82
730.89	264.39
731.22	263.93
731.55	263.51
731.88	263.11
732.21	262.66
732.54	262.21
732.87	261.76
733.20	261.38
733.53	261.01
733.86	260.67
734.19	260.26
734.52	259.85
734.85	259.55
735.18	259.12
735.51	258.79
735.84	258.43
736.17	258.06
736.50	257.67
736.83	257.43
737.16	257.06
737.49	256.74
737.82	256.38
738.15	256.06
738.48	255.70
738.81	255.39
739.14	255.09
739.47	254.81
739.80	254.49
740.13	254.17
740.46	253.82
740.79	253.49
741.12	253.15
741.45	252.86
741.78	252.53
742.11	252.24
742.44	251.88
742.77	251.58
743.10	251.26
743.43	250.95
743.75	250.56
744.08	250.39
744.41	250.14
744.74	249.88
745.07	249.59
745.40	249.32
745.73	249.06
746.06	248.74
746.39	248.44
746.71	248.15
747.04	247.86
747.37	247.58
747.70	247.28
748.03	247.04
748.36	246.79
748.68	246.52
749.01	246.28
749.34	246.02
749.67	245.78
750.00	245.58
750.33	245.39
750.65	245.16
750.98	244.78
751.31	244.52
751.64	244.29
751.97	244.09
752.29	243.82
752.62	243.56
752.95	243.36
753.28	243.15
753.60	242.95
753.93	242.80
754.26	242.63
754.59	242.43
754.91	242.26
755.24	242.04
755.57	241.83
755.90	241.64
756.22	241.45
756.55	241.22
756.88	240.99
757.20	240.74
757.53	240.54
757.86	240.37
758.19	240.23
758.51	240.06
758.84	239.88
759.17	239.75
759.49	239.62
759.82	239.52
760.15	239.40
760.47	239.29
760.80	239.09
761.13	238.94
761.45	238.79
761.78	238.63
762.11	238.50
762.43	238.37
762.76	238.24
763.08	238.16
763.41	238.07
763.74	237.98
764.06	237.86
764.39	237.77
764.71	237.66
765.04	237.55
765.37	237.41
765.69	237.28
766.02	237.16
766.34	237.01
766.67	236.88
767.00	236.78
767.32	236.71
767.65	236.67
767.97	236.60
768.30	236.51
768.62	236.42
768.95	236.31
769.27	236.25
769.60	236.15
769.92	236.03
770.25	235.90
770.57	235.78
770.90	235.67
771.22	235.53
771.55	235.45
771.87	235.38
772.20	235.30
772.52	235.32
772.85	235.38
773.17	235.33
773.50	235.21
773.82	235.13
774.15	234.97
774.47	234.81
774.80	234.70
775.12	234.62
775.45	234.52
775.77	234.43
776.09	234.35
776.42	234.28
776.74	234.21
777.07	234.16
777.39	234.11
777.72	234.06
778.04	234.00
778.36	233.93
778.69	233.82
779.01	233.76
779.33	233.55
779.66	233.33
779.98	233.22
780.31	233.16
780.63	233.11
780.95	233.08
781.28	233.03
781.60	232.94
781.92	232.86
782.25	232.79
782.57	232.74
782.89	232.67
783.22	232.61
783.54	232.53
783.86	232.47
784.19	232.33
784.51	232.27
784.83	232.19
785.16	232.13
785.48	232.08
785.80	232.01
786.12	231.96
786.45	231.94
786.77	231.90
787.09	231.81
787.42	231.72
787.74	231.66
788.06	231.59
788.38	231.55
788.71	231.50
789.03	231.47
789.35	231.43
789.67	231.33
789.99	231.25
790.32	231.19
790.64	231.17
790.96	231.26
791.28	231.18
791.61	231.12
791.93	231.09
792.25	231.05
792.57	231.09
792.89	231.06
793.21	231.00
793.54	230.95
793.86	230.88
794.18	230.85
794.50	230.77
794.82	230.75
795.14	230.70
795.47	230.70
795.79	230.67
796.11	230.59
796.43	230.58
796.75	230.56
797.07	230.52
797.39	230.46
797.71	230.36
798.04	230.33
798.36	230.36
798.68	230.31
799.00	230.25
799.32	230.19
799.64	230.18
799.96	230.14
800.28	230.14
800.60	230.13
800.92	230.12
801.24	230.12
801.56	230.10
801.89	230.07
802.21	230.01
802.53	229.95
802.85	229.96
803.17	229.96
803.49	229.93
803.81	229.91
804.13	229.89
804.45	229.87
804.77	229.87
805.09	229.81
805.41	229.78
805.73	229.77
806.05	229.71
806.37	229.67
806.69	229.68
807.01	229.64
807.33	229.67
807.65	229.60
807.97	229.65
808.28	229.61
808.60	229.59
808.92	229.61
809.24	229.69
809.56	229.67
809.88	229.61
810.20	229.62
810.52	229.63
810.84	229.60
811.16	229.56
811.48	229.55
811.80	229.57
812.12	229.53
812.43	229.51
812.75	229.50
813.07	229.50
813.39	229.47
813.71	229.43
814.03	229.40
814.35	229.39
814.67	229.29
814.98	229.25
815.30	229.24
815.62	229.21
815.94	229.13
816.26	229.16
816.58	229.13
816.89	229.12
817.21	229.08
817.53	229.05
817.85	229.02
818.17	229.00
818.48	228.93
818.80	228.97
819.12	228.94
819.44	228.92
819.76	228.86
820.07	228.85
820.39	228.86
820.71	228.83
821.03	228.81
821.34	228.79
821.66	228.81
821.98	228.82
822.30	228.79
822.61	228.82
822.93	228.76
823.25	228.77
823.57	228.70
823.88	228.72
824.20	228.73
824.52	228.75
824.83	228.70
825.15	228.70
825.47	228.60
825.79	228.59
826.10	228.59
826.42	228.60
826.74	228.57
827.05	228.55
827.37	228.52
827.69	228.52
828.00	228.51
828.32	228.50
828.64	228.46
828.95	228.49
829.27	228.46
829.58	228.43
829.90	228.43
830.22	228.46
830.53	228.39
830.85	228.36
831.17	228.29
831.48	228.26
831.80	228.28
832.11	228.32
832.43	228.29
832.75	228.25
833.06	228.29
833.38	228.28
833.69	228.27
834.01	228.31
834.32	228.28
834.64	228.26
834.96	228.24
835.27	228.21
835.59	228.13
835.90	228.07
836.22	228.05
836.53	228.01
836.85	227.99
837.16	228.08
837.48	228.07
837.79	228.13
838.11	228.17
838.42	228.12
838.74	228.07
839.05	228.04
839.37	228.05
839.68	227.97
840.00	227.93
840.31	227.94
840.63	227.88
840.94	227.88
841.26	227.90
841.57	227.92
841.88	227.94
842.20	227.94
842.51	227.96
842.83	227.96
843.14	228.06
843.46	228.04
843.77	227.95
844.08	227.95
844.40	227.92
844.71	227.92
845.03	227.91
845.34	227.94
845.65	227.96
845.97	227.94
846.28	227.95
846.60	227.98
846.91	227.97
847.22	227.97
847.54	228.01
847.85	227.96
848.16	227.93
848.48	227.92
848.79	227.98
849.10	227.93
849.42	227.96
849.73	227.87
850.04	227.88
850.36	227.88
850.67	227.90
850.98	227.90
851.30	227.90
851.61	227.93
851.92	227.91
852.23	227.94
852.55	227.98
852.86	228.01
853.17	227.99
853.49	227.98
853.80	228.02
854.11	228.00
854.42	228.01
854.74	228.03
855.05	228.01
855.36	227.96
855.67	228.00
855.99	228.01
856.30	228.10
856.61	228.10
856.92	228.10
857.23	228.06
857.55	228.02
857.86	228.02
858.17	228.02
858.48	228.02
858.79	228.03
859.11	228.01
859.42	227.94
859.73	227.97
860.04	227.97
860.35	227.94
860.66	227.93
860.98	227.96
861.29	227.96
861.60	227.93
861.91	227.93
862.22	227.89
862.53	227.86
862.84	227.74
863.16	227.75
863.47	227.75
863.78	227.75
864.09	227.79
864.40	227.77
864.71	227.72
865.02	227.72
865.33	227.67
865.64	227.65
865.95	227.67
866.27	227.71
866.58	227.69
866.89	227.67
867.20	227.66
867.51	227.62
867.82	227.61
868.13	227.65
868.44	227.61
868.75	227.65
869.06	227.67
869.37	227.65
869.68	227.62
869.99	227.58
870.30	227.59
870.61	227.59
870.92	227.57
871.23	227.57
871.54	227.58
871.85	227.58
872.16	227.59
872.47	227.59
872.78	227.51
873.09	227.54
873.40	227.54
873.71	227.53
874.02	227.55
874.33	227.53
874.64	227.50
874.95	227.49
875.26	227.42
875.56	227.42
875.87	227.44
876.18	227.48
876.49	227.58
876.80	227.60
877.11	227.56
877.42	227.59
877.73	227.60
878.04	227.60
878.35	227.63
878.66	227.60
878.96	227.59
879.27	227.61
879.58	227.58
879.89	227.57
880.20	227.61
880.51	227.57
880.82	227.57
881.12	227.59
881.43	227.64
881.74	227.64
882.05	227.62
882.36	227.62
882.67	227.60
882.97	227.54
883.28	227.48
883.59	227.48
883.90	227.48
884.21	227.48
884.51	227.48
884.82	227.46
885.13	227.50
885.44	227.49
885.74	227.49
886.05	227.51
886.36	227.50
886.67	227.47
886.98	227.53
887.28	227.56
887.59	227.55
887.90	227.54
888.20	227.56
888.51	227.58
888.82	227.58
889.13	227.58
889.43	227.63
889.74	227.65
890.05	227.66
890.35	227.64
890.66	227.63
890.97	227.63
891.28	227.60
891.58	227.58
891.89	227.57
892.20	227.54
892.50	227.50
892.81	227.48
893.12	227.48
893.42	227.44
893.73	227.45
894.04	227.41
894.34	227.42
894.65	227.40
894.95	227.40
895.26	227.40
895.57	227.40
895.87	227.33
896.18	227.34
896.48	227.32
896.79	227.31
897.10	227.34
897.40	227.33
897.71	227.31
898.01	227.32
898.32	227.34
898.63	227.34
898.93	227.37
899.24	227.40
899.54	227.37
899.85	227.36
900.15	227.32
900.46	227.33
900.76	227.30
901.07	227.27
901.38	227.26
901.68	227.22
901.99	227.16
902.29	227.14
902.60	227.09
902.90	227.08
903.21	227.05
903.51	227.01
903.82	226.99
904.12	226.99
904.43	227.00
904.73	226.99
905.03	226.99
905.34	227.09
905.64	227.05
905.95	227.07
906.25	227.07
906.56	227.08
906.86	227.05
907.17	227.03
907.47	227.05
907.77	227.02
908.08	227.02
908.38	227.04
908.69	227.04
908.99	227.10
909.30	227.12
909.60	227.13
909.90	227.12
910.21	227.09
910.51	227.09
910.81	227.07
911.12	227.08
911.42	227.09
911.73	226.94
912.03	226.98
912.33	226.93
912.64	226.95
912.94	226.94
913.24	226.93
913.55	226.93
913.85	226.94
914.15	226.96
914.46	226.99
914.76	227.01
915.06	227.02
915.37	227.01
915.67	227.03
915.97	227.05
916.27	227.04
916.58	227.08
916.88	227.09
917.18	227.10
917.49	227.16
917.79	227.14
918.09	227.20
918.39	227.22
918.70	227.29
919.00	227.27
919.30	227.33
919.60	227.36
919.91	227.38
920.21	227.41
920.51	227.41
920.81	227.40
921.12	227.39
921.42	227.37
921.72	227.38
922.02	227.39
922.32	227.40
922.63	227.41
922.93	227.44
923.23	227.46
923.53	227.48
923.83	227.41
924.13	227.43
924.44	227.42
924.74	227.46
925.04	227.47
925.34	227.46
925.64	227.46
925.94	227.47
926.24	227.50
926.55	227.50
926.85	227.53
927.15	227.53
927.45	227.56
927.75	227.60
928.05	227.59
928.35	227.56
928.65	227.58
928.95	227.61
929.26	227.59
929.56	227.61
929.86	227.60
930.16	227.61
930.46	227.58
930.76	227.59
931.06	227.51
931.36	227.49
931.66	227.54
931.96	227.54
932.26	227.53
932.56	227.50
932.86	227.47
933.16	227.44
933.46	227.44
933.76	227.42
934.06	227.44
934.36	227.45
934.66	227.43
934.96	227.42
935.26	227.38
935.56	227.40
935.86	227.36
936.16	227.33
936.46	227.30
936.76	227.30
937.06	227.28
937.36	227.27
937.66	227.21
937.96	227.14
938.26	227.10
938.56	227.04
938.86	227.03
939.16	227.04
939.46	227.05
939.76	227.04
940.06	227.03
940.35	226.97
940.65	226.93
940.95	226.95
941.25	226.92
941.55	226.92
941.85	226.87
942.15	226.88
942.45	226.90
942.75	226.90
943.04	226.91
943.34	226.90
943.64	226.91
943.94	226.92
944.24	226.92
944.54	226.89
944.84	226.93
945.13	226.90
945.43	226.89
945.73	226.86
946.03	226.85
946.33	226.83
946.62	226.82
946.92	226.83
947.22	226.81
947.52	226.82
947.82	226.85
948.11	226.85
948.41	226.84
948.71	226.79
949.01	226.78
949.31	226.73
949.60	226.73
949.90	226.75
950.20	226.75
950.50	226.78
950.79	226.82
951.09	226.82
951.39	226.83
951.69	226.82
951.98	226.85
952.28	226.86
952.58	226.87
952.87	226.89
953.17	226.91
953.47	226.89
953.76	226.89
954.06	226.88
954.36	226.88
954.66	226.90
954.95	227.00
955.25	227.00
955.55	227.05
955.84	227.03
956.14	227.05
956.44	227.08
956.73	227.07
957.03	227.08
957.32	227.09
957.62	227.09
957.92	227.13
958.21	227.12
958.51	227.22
958.81	227.25
959.10	227.25
959.40	227.25
959.69	227.30
959.99	227.33
960.29	227.34
960.58	227.33
960.88	227.36
961.17	227.34
961.47	227.38
961.76	227.38
962.06	227.42
962.36	227.40
962.65	227.41
962.95	227.41
963.24	227.38
963.54	227.40
963.83	227.40
964.13	227.40
964.42	227.36
964.72	227.31
965.01	227.34
965.31	227.37
965.60	227.36
965.90	227.44
966.19	227.44
966.49	227.42
966.78	227.43
967.08	227.41
967.37	227.39
967.67	227.38
967.96	227.39
968.26	227.37
968.55	227.39
968.85	227.38
969.14	227.38
969.43	227.39
969.73	227.36
970.02	227.39
970.32	227.36
970.61	227.39
970.91	227.36
971.20	227.32
971.49	227.28
971.79	227.29
972.08	227.18
972.38	227.17
972.67	227.16
972.96	227.17
973.26	227.11
973.55	227.14
973.85	227.10
974.14	227.08
974.43	227.07
974.73	227.06
975.02	227.03
975.31	227.05
975.61	227.02
975.90	227.01
976.19	226.99
976.49	226.99
976.78	226.94
977.07	226.92
977.37	226.88
977.66	226.89
977.95	226.84
978.24	226.85
978.54	226.83
978.83	226.81
979.12	226.80
979.42	226.84
979.71	226.80
980.00	226.78
980.29	226.79
980.59	226.75
980.88	226.74
981.17	226.75
981.46	226.71
981.76	226.73
982.05	226.78
982.34	226.76
982.63	226.75
982.93	226.78
983.22	226.78
983.51	226.80
983.80	226.83
984.09	226.83
984.39	226.86
984.68	226.86
984.97	226.86
985.26	226.86
985.55	226.86
985.85	226.82
986.14	226.87
986.43	226.85
986.72	226.91
987.01	226.89
987.30	226.89
987.59	226.89
987.89	226.89
988.18	226.85
988.47	226.84
988.76	226.84
989.05	226.84
989.34	226.87
989.63	226.91
989.92	226.90
990.22	226.92
990.51	226.90
990.80	226.93
991.09	226.96
991.38	226.97
991.67	226.99
991.96	227.00
992.25	226.97
992.54	226.97
992.83	226.96
993.12	226.96
993.41	226.99
993.70	227.03
993.99	227.05
994.28	227.09
994.58	227.13
994.87	227.14
995.16	227.16
995.45	227.17
995.74	227.16
996.03	227.19
996.32	227.24
996.61	227.27
996.90	227.29
997.19	227.28
997.48	227.29
997.77	227.27
998.06	227.30
998.34	227.33
998.63	227.37
998.92	227.37
999.21	227.41
999.50	227.40
999.79	227.40
1000.08	227.42
1000.37	227.40
1000.66	227.41
1000.95	227.44
1001.24	227.43
1001.53	227.43
1001.82	227.38
1002.11	227.35
1002.40	227.33
1002.68	227.34
1002.97	227.38
1003.26	227.38
1003.55	227.40
1003.84	227.41
1004.13	227.44
1004.42	227.41
1004.71	227.38
1004.99	227.38
1005.28	227.37
1005.57	227.35
1005.86	227.36
1006.15	227.34
1006.44	227.33
1006.72	227.32
1007.01	227.29
1007.30	227.28
1007.59	227.24
1007.88	227.25
1008.17	227.23
1008.45	227.18
1008.74	227.14
1009.03	227.08
1009.32	227.07
1009.60	227.02
1009.89	227.02
1010.18	226.98
1010.47	226.98
1010.76	226.99
1011.04	226.98
1011.33	226.99
1011.62	227.00
1011.91	226.96
1012.19	226.94
1012.48	226.92
1012.77	226.92
1013.05	226.95
1013.34	226.94
1013.63	226.95
1013.92	226.92
1014.20	226.90
1014.49	226.93
1014.78	226.93
1015.06	226.89
1015.35	226.87
1015.64	226.85
1015.92	226.86
1016.21	226.82
1016.50	226.82
1016.78	226.79
1017.07	226.79
1017.36	226.76
1017.64	226.75
1017.93	226.74
1018.22	226.71
1018.50	226.71
1018.79	226.69
1019.08	226.66
1019.36	226.67
1019.65	226.66
1019.93	226.70
1020.22	226.73
1020.51	226.79
1020.79	226.75
1021.08	226.15
1021.36	226.55
1021.65	226.84
1021.94	227.12
1022.22	226.87
1022.51	226.76
1022.79	226.97
1023.08	227.06
1023.36	228.34
1023.65	226.34
>>>>>End Processed Spectral Data<<<<<
