SpectraSuite Data File
++++++++++++++++++++++++++++++++++++
Date: Fri Feb 01 15:51:29 EST 2013
User: group
Dark Spectrum Present: No
Reference Spectrum Present: No
Number of Sampled Component Spectra: 1
Spectrometers: USB2E7196
Integration Time (usec): 35000 (USB2E7196)
Spectra Averaged: 100 (USB2E7196)
Boxcar Smoothing: 10 (USB2E7196)
Correct for Electrical Dark: No (USB2E7196)
Strobe/Lamp Enabled: No (USB2E7196)
Correct for Detector Non-linearity: No (USB2E7196)
Correct for Stray Light: No (USB2E7196)
Number of Pixels in Processed Spectrum: 2048
>>>>>Begin Processed Spectral Data<<<<<
339.09	0.00
339.48	214.62
339.86	216.46
340.24	217.72
340.63	218.65
341.01	222.05
341.39	221.98
341.78	223.66
342.16	223.81
342.54	224.84
342.93	213.27
343.31	224.04
343.69	224.60
344.07	225.06
344.46	225.46
344.84	225.86
345.22	226.11
345.60	226.36
345.99	226.56
346.37	226.73
346.75	226.85
347.13	226.91
347.52	226.98
347.90	227.05
348.28	227.04
348.66	227.08
349.05	227.09
349.43	227.12
349.81	227.14
350.19	227.21
350.57	227.24
350.96	227.34
351.34	227.43
351.72	227.48
352.10	227.60
352.48	227.69
352.87	227.75
353.25	227.79
353.63	227.84
354.01	227.88
354.39	227.95
354.77	228.03
355.15	228.10
355.54	228.14
355.92	228.18
356.30	228.27
356.68	228.41
357.06	228.49
357.44	228.54
357.82	228.60
358.20	228.66
358.58	228.74
358.97	228.78
359.35	228.86
359.73	228.97
360.11	228.98
360.49	229.01
360.87	229.05
361.25	229.11
361.63	229.17
362.01	229.18
362.39	229.19
362.77	229.18
363.15	229.22
363.53	229.24
363.91	229.28
364.29	229.30
364.67	229.23
365.05	229.26
365.43	229.27
365.81	229.28
366.19	229.31
366.57	229.32
366.95	229.31
367.33	229.27
367.71	229.23
368.09	229.21
368.47	229.24
368.85	229.23
369.23	229.21
369.61	229.14
369.99	229.18
370.37	229.11
370.75	229.13
371.13	229.06
371.51	229.03
371.89	228.99
372.27	228.96
372.65	228.89
373.03	228.82
373.41	228.76
373.78	228.69
374.16	228.61
374.54	228.53
374.92	228.48
375.30	228.41
375.68	228.32
376.06	228.28
376.44	228.17
376.82	228.11
377.19	228.05
377.57	227.96
377.95	227.84
378.33	227.81
378.71	227.69
379.09	227.64
379.47	227.56
379.84	227.47
380.22	227.35
380.60	227.27
380.98	227.21
381.36	227.11
381.73	227.02
382.11	226.98
382.49	226.88
382.87	226.79
383.25	226.74
383.62	226.80
384.00	226.75
384.38	226.70
384.76	226.65
385.13	226.65
385.51	226.60
385.89	226.55
386.27	226.50
386.64	226.45
387.02	226.39
387.40	226.34
387.78	226.29
388.15	226.27
388.53	226.22
388.91	226.16
389.29	226.17
389.66	226.19
390.04	226.12
390.42	226.15
390.79	226.14
391.17	226.12
391.55	226.03
391.92	226.00
392.30	226.00
392.68	225.98
393.05	225.99
393.43	226.03
393.81	226.03
394.18	226.02
394.56	226.09
394.94	226.15
395.31	226.15
395.69	226.22
396.06	226.29
396.44	226.36
396.82	226.43
397.19	226.51
397.57	226.54
397.95	226.66
398.32	226.65
398.70	226.73
399.07	226.84
399.45	226.86
399.82	226.92
400.20	226.98
400.58	227.05
400.95	227.07
401.33	227.15
401.70	227.31
402.08	227.41
402.45	227.49
402.83	227.62
403.20	227.74
403.58	227.87
403.95	228.00
404.33	228.12
404.71	228.25
405.08	228.43
405.46	228.58
405.83	228.68
406.21	228.86
406.58	229.03
406.96	229.14
407.33	229.32
407.70	229.57
408.08	229.81
408.45	230.00
408.83	230.24
409.20	230.51
409.58	230.70
409.95	230.98
410.33	231.22
410.70	231.47
411.08	231.78
411.45	232.05
411.82	232.36
412.20	232.72
412.57	233.13
412.95	233.42
413.32	233.82
413.69	234.23
414.07	234.67
414.44	235.12
414.82	235.65
415.19	236.19
415.56	236.74
415.94	237.30
416.31	237.99
416.68	238.63
417.06	239.29
417.43	239.95
417.81	240.71
418.18	241.46
418.55	242.28
418.93	243.14
419.30	244.02
419.67	244.95
420.04	245.89
420.42	246.87
420.79	248.04
421.16	249.16
421.54	250.35
421.91	251.56
422.28	252.85
422.66	254.14
423.03	255.45
423.40	256.75
423.77	258.17
424.15	259.55
424.52	261.02
424.89	262.63
425.26	264.18
425.64	265.63
426.01	267.23
426.38	268.88
426.75	270.54
427.13	272.25
427.50	274.07
427.87	275.93
428.24	277.80
428.61	279.54
428.99	281.48
429.36	283.58
429.73	285.70
430.10	287.70
430.47	289.76
430.85	291.87
431.22	294.13
431.59	296.51
431.96	298.78
432.33	301.29
432.70	303.69
433.08	306.49
433.45	309.15
433.82	311.80
434.19	314.69
434.56	317.56
434.93	320.26
435.30	322.86
435.68	325.78
436.05	328.61
436.42	331.46
436.79	333.96
437.16	336.68
437.53	339.47
437.90	342.26
438.27	345.02
438.64	347.85
439.01	350.45
439.38	352.68
439.75	354.87
440.13	357.36
440.50	359.70
440.87	361.56
441.24	363.49
441.61	365.63
441.98	367.09
442.35	368.86
442.72	370.70
443.09	372.52
443.46	373.52
443.83	374.12
444.20	374.57
444.57	375.42
444.94	375.73
445.31	376.04
445.68	376.45
446.05	376.52
446.42	376.19
446.79	375.75
447.16	375.34
447.53	374.98
447.90	373.81
448.27	372.64
448.64	371.06
449.01	369.93
449.37	367.97
449.74	366.09
450.11	363.85
450.48	361.39
450.85	358.85
451.22	356.75
451.59	354.71
451.96	352.80
452.33	350.21
452.70	347.86
453.07	345.05
453.43	342.12
453.80	339.38
454.17	336.66
454.54	334.12
454.91	331.35
455.28	328.68
455.65	326.18
456.02	323.74
456.38	321.60
456.75	318.93
457.12	316.67
457.49	314.43
457.86	312.24
458.23	310.37
458.59	308.35
458.96	306.23
459.33	304.37
459.70	302.45
460.07	300.98
460.43	299.21
460.80	297.59
461.17	296.11
461.54	294.60
461.91	293.16
462.27	291.72
462.64	290.47
463.01	289.12
463.38	287.82
463.74	286.45
464.11	285.28
464.48	284.24
464.85	283.17
465.21	282.32
465.58	281.41
465.95	280.31
466.32	279.37
466.68	278.46
467.05	277.52
467.42	276.67
467.78	275.74
468.15	274.88
468.52	274.22
468.88	273.37
469.25	272.59
469.62	271.96
469.98	271.31
470.35	270.70
470.72	270.12
471.08	269.48
471.45	268.90
471.82	268.35
472.18	267.76
472.55	267.28
472.92	266.77
473.28	266.32
473.65	265.89
474.02	265.44
474.38	265.03
474.75	264.76
475.11	264.40
475.48	264.08
475.85	263.87
476.21	263.65
476.58	263.48
476.94	263.33
477.31	263.17
477.67	263.01
478.04	262.87
478.41	262.81
478.77	262.85
479.14	262.82
479.50	262.82
479.87	262.87
480.23	263.00
480.60	263.06
480.96	263.15
481.33	263.35
481.69	263.55
482.06	263.78
482.42	263.97
482.79	264.24
483.15	264.60
483.52	264.96
483.88	265.29
484.25	265.66
484.61	266.09
484.98	266.57
485.34	267.15
485.71	267.75
486.07	268.34
486.44	268.91
486.80	269.61
487.17	270.34
487.53	271.17
487.90	272.04
488.26	273.00
488.62	273.99
488.99	274.98
489.35	276.03
489.72	277.16
490.08	278.37
490.44	279.64
490.81	280.96
491.17	282.31
491.54	283.80
491.90	285.36
492.26	287.03
492.63	288.75
492.99	290.52
493.36	292.47
493.72	294.58
494.08	296.71
494.45	298.96
494.81	301.34
495.17	303.79
495.54	306.32
495.90	308.95
496.26	311.74
496.63	314.69
496.99	317.84
497.35	321.09
497.72	324.52
498.08	328.06
498.44	331.71
498.80	335.68
499.17	339.73
499.53	343.97
499.89	348.34
500.26	352.85
500.62	357.55
500.98	362.49
501.34	367.50
501.71	372.80
502.07	378.25
502.43	383.94
502.79	389.75
503.16	395.81
503.52	402.17
503.88	408.58
504.24	415.23
504.60	422.12
504.97	429.28
505.33	436.56
505.69	444.24
506.05	452.07
506.41	459.92
506.78	468.08
507.14	476.46
507.50	485.15
507.86	494.16
508.22	503.31
508.59	512.49
508.95	522.13
509.31	531.96
509.67	542.10
510.03	552.29
510.39	562.85
510.75	573.68
511.12	584.56
511.48	595.94
511.84	607.39
512.20	618.85
512.56	630.81
512.92	643.02
513.28	655.34
513.64	667.82
514.00	680.57
514.37	693.43
514.73	706.46
515.09	719.45
515.45	732.74
515.81	746.32
516.17	760.30
516.53	774.37
516.89	788.45
517.25	802.58
517.61	817.06
517.97	831.52
518.33	845.88
518.69	860.66
519.05	875.58
519.41	890.72
519.77	906.27
520.13	921.74
520.49	937.11
520.85	952.51
521.21	968.16
521.57	984.34
521.93	1000.20
522.29	1016.65
522.65	1033.03
523.01	1049.31
523.37	1065.45
523.73	1081.53
524.09	1097.56
524.45	1113.91
524.81	1130.42
525.17	1147.19
525.53	1164.14
525.89	1181.12
526.25	1197.97
526.61	1214.37
526.97	1231.11
527.33	1247.53
527.68	1264.06
528.04	1280.57
528.40	1297.14
528.76	1314.26
529.12	1330.98
529.48	1347.90
529.84	1363.83
530.20	1380.41
530.56	1397.23
530.91	1414.49
531.27	1431.17
531.63	1447.72
531.99	1464.29
532.35	1480.33
532.71	1496.11
533.07	1512.19
533.42	1527.89
533.78	1543.94
534.14	1560.13
534.50	1575.46
534.86	1591.28
535.21	1606.46
535.57	1622.37
535.93	1637.93
536.29	1652.63
536.65	1667.59
537.00	1682.38
537.36	1697.70
537.72	1712.17
538.08	1726.71
538.44	1740.55
538.79	1754.53
539.15	1768.30
539.51	1782.12
539.87	1796.51
540.22	1810.36
540.58	1824.22
540.94	1837.70
541.29	1850.52
541.65	1863.25
542.01	1876.44
542.37	1888.78
542.72	1901.20
543.08	1912.97
543.44	1925.38
543.79	1936.54
544.15	1947.40
544.51	1958.86
544.87	1969.88
545.22	1980.64
545.58	1990.79
545.94	2000.74
546.29	2010.69
546.65	2020.42
547.01	2029.53
547.36	2038.22
547.72	2046.59
548.07	2054.25
548.43	2062.34
548.79	2070.38
549.14	2077.90
549.50	2085.25
549.86	2092.97
550.21	2100.32
550.57	2107.46
550.92	2113.87
551.28	2120.85
551.64	2128.00
551.99	2134.40
552.35	2140.35
552.70	2146.61
553.06	2152.56
553.41	2158.66
553.77	2164.71
554.13	2170.76
554.48	2176.98
554.84	2182.42
555.19	2187.80
555.55	2193.16
555.90	2197.73
556.26	2202.51
556.61	2207.33
556.97	2211.56
557.32	2215.60
557.68	2219.75
558.03	2224.07
558.39	2227.89
558.74	2232.73
559.10	2236.62
559.45	2240.31
559.81	2244.78
560.16	2248.55
560.52	2251.84
560.87	2255.30
561.23	2257.95
561.58	2261.05
561.94	2263.50
562.29	2265.86
562.64	2268.53
563.00	2271.18
563.35	2274.58
563.71	2277.80
564.06	2280.98
564.42	2283.84
564.77	2286.33
565.12	2288.43
565.48	2290.28
565.83	2292.13
566.19	2293.26
566.54	2294.12
566.89	2295.16
567.25	2295.66
567.60	2296.90
567.96	2298.68
568.31	2299.57
568.66	2300.59
569.02	2300.93
569.37	2301.26
569.72	2302.16
570.08	2302.36
570.43	2302.33
570.78	2301.73
571.14	2300.15
571.49	2298.83
571.84	2298.52
572.20	2297.36
572.55	2296.44
572.90	2295.01
573.26	2293.57
573.61	2292.05
573.96	2290.16
574.31	2287.34
574.67	2284.44
575.02	2280.84
575.37	2277.41
575.72	2273.54
576.08	2270.24
576.43	2267.01
576.78	2263.42
577.13	2260.16
577.49	2257.03
577.84	2253.49
578.19	2249.88
578.54	2246.18
578.90	2241.80
579.25	2236.31
579.60	2231.42
579.95	2226.32
580.30	2221.22
580.66	2215.97
581.01	2211.01
581.36	2206.18
581.71	2201.92
582.06	2197.25
582.42	2192.79
582.77	2187.62
583.12	2183.03
583.47	2178.21
583.82	2173.06
584.17	2167.78
584.53	2162.34
584.88	2156.54
585.23	2150.86
585.58	2145.32
585.93	2139.93
586.28	2135.23
586.63	2130.18
586.98	2125.22
587.34	2120.57
587.69	2115.63
588.04	2110.36
588.39	2104.65
588.74	2098.25
589.09	2092.19
589.44	2085.53
589.79	2079.52
590.14	2073.70
590.49	2067.07
590.84	2060.69
591.19	2054.81
591.54	2048.32
591.89	2040.90
592.25	2034.13
592.60	2026.81
592.95	2019.16
593.30	2011.79
593.65	2004.23
594.00	1997.19
594.35	1989.92
594.70	1981.88
595.05	1974.62
595.40	1967.46
595.75	1959.97
596.10	1953.61
596.45	1946.73
596.80	1940.72
597.15	1934.14
597.50	1927.14
597.85	1920.80
598.19	1914.16
598.54	1906.98
598.89	1900.34
599.24	1894.57
599.59	1887.80
599.94	1881.61
600.29	1875.26
600.64	1868.70
600.99	1861.23
601.34	1854.37
601.69	1847.30
602.04	1840.47
602.39	1833.09
602.74	1826.25
603.08	1819.45
603.43	1812.93
603.78	1805.66
604.13	1798.27
604.48	1790.89
604.83	1784.13
605.18	1777.02
605.53	1768.89
605.87	1760.99
606.22	1753.70
606.57	1745.67
606.92	1738.44
607.27	1731.20
607.62	1724.35
607.96	1717.06
608.31	1710.44
608.66	1702.80
609.01	1695.21
609.36	1687.54
609.70	1679.56
610.05	1671.47
610.40	1663.76
610.75	1655.33
611.10	1647.65
611.44	1639.25
611.79	1631.33
612.14	1622.54
612.49	1613.47
612.83	1605.27
613.18	1597.09
613.53	1589.05
613.88	1580.40
614.22	1572.09
614.57	1563.51
614.92	1555.42
615.27	1547.89
615.61	1539.47
615.96	1531.52
616.31	1523.89
616.65	1516.52
617.00	1509.01
617.35	1501.31
617.70	1492.95
618.04	1484.45
618.39	1476.26
618.74	1468.64
619.08	1460.30
619.43	1452.66
619.78	1445.69
620.12	1438.49
620.47	1430.97
620.82	1422.86
621.16	1415.58
621.51	1408.05
621.85	1400.48
622.20	1391.99
622.55	1383.46
622.89	1375.62
623.24	1368.04
623.59	1360.68
623.93	1353.20
624.28	1345.99
624.62	1338.52
624.97	1331.39
625.32	1324.59
625.66	1317.64
626.01	1310.52
626.35	1303.06
626.70	1295.33
627.04	1287.62
627.39	1279.81
627.73	1272.45
628.08	1265.53
628.43	1258.16
628.77	1250.77
629.12	1243.10
629.46	1235.98
629.81	1228.71
630.15	1221.50
630.50	1214.02
630.84	1205.89
631.19	1197.95
631.53	1190.36
631.88	1182.79
632.22	1175.26
632.57	1167.95
632.91	1160.30
633.26	1152.84
633.60	1145.50
633.95	1138.41
634.29	1131.40
634.64	1124.82
634.98	1117.35
635.32	1110.10
635.67	1103.54
636.01	1096.95
636.36	1090.17
636.70	1083.61
637.05	1077.09
637.39	1070.63
637.73	1064.02
638.08	1058.10
638.42	1052.09
638.77	1045.71
639.11	1039.11
639.45	1032.70
639.80	1026.10
640.14	1019.77
640.49	1013.25
640.83	1006.96
641.17	1000.68
641.52	994.27
641.86	987.73
642.20	981.91
642.55	975.66
642.89	969.20
643.23	962.68
643.58	956.94
643.92	950.70
644.26	944.52
644.61	938.52
644.95	932.56
645.29	925.90
645.64	919.14
645.98	912.85
646.32	907.04
646.66	900.94
647.01	895.08
647.35	889.36
647.69	883.49
648.04	877.92
648.38	872.14
648.72	866.21
649.06	860.11
649.41	854.20
649.75	848.18
650.09	842.25
650.43	836.43
650.78	830.25
651.12	824.34
651.46	818.60
651.80	812.85
652.14	807.44
652.49	802.07
652.83	797.01
653.17	791.23
653.51	785.50
653.85	780.13
654.20	774.50
654.54	768.51
654.88	762.84
655.22	756.96
655.56	751.32
655.90	745.93
656.25	740.69
656.59	735.29
656.93	730.22
657.27	724.99
657.61	719.58
657.95	714.54
658.29	709.48
658.64	704.29
658.98	698.97
659.32	693.48
659.66	688.29
660.00	682.91
660.34	677.96
660.68	672.99
661.02	667.98
661.36	663.30
661.70	658.73
662.05	654.37
662.39	650.06
662.73	645.54
663.07	641.15
663.41	636.71
663.75	632.26
664.09	627.71
664.43	623.39
664.77	619.30
665.11	615.01
665.45	610.87
665.79	606.80
666.13	602.65
666.47	598.64
666.81	594.46
667.15	590.31
667.49	586.47
667.83	582.70
668.17	578.72
668.51	574.63
668.85	570.66
669.19	566.85
669.53	562.97
669.87	559.10
670.21	555.39
670.55	551.77
670.89	548.37
671.23	544.89
671.57	541.33
671.91	537.75
672.25	534.25
672.58	530.73
672.92	527.29
673.26	524.13
673.60	520.98
673.94	517.91
674.28	515.02
674.62	512.00
674.96	508.95
675.30	506.08
675.64	503.09
675.97	500.35
676.31	497.48
676.65	494.55
676.99	491.83
677.33	488.98
677.67	486.17
678.01	483.13
678.34	480.22
678.68	477.38
679.02	474.55
679.36	471.76
679.70	469.06
680.04	466.30
680.37	463.43
680.71	460.63
681.05	458.06
681.39	455.34
681.73	452.76
682.06	450.15
682.40	447.59
682.74	445.09
683.08	442.52
683.42	439.88
683.75	437.39
684.09	434.86
684.43	432.35
684.77	429.93
685.10	427.56
685.44	425.21
685.78	422.95
686.12	420.70
686.45	418.40
686.79	416.09
687.13	413.92
687.46	411.74
687.80	409.56
688.14	407.32
688.48	405.27
688.81	402.98
689.15	400.81
689.49	398.67
689.82	396.64
690.16	394.54
690.50	392.58
690.83	390.58
691.17	388.59
691.51	386.66
691.84	384.74
692.18	382.82
692.52	380.86
692.85	378.87
693.19	376.99
693.52	375.20
693.86	373.39
694.20	371.54
694.53	369.75
694.87	367.93
695.21	366.13
695.54	364.29
695.88	362.60
696.21	360.88
696.55	359.19
696.88	357.47
697.22	355.79
697.56	354.18
697.89	352.57
698.23	350.98
698.56	349.38
698.90	347.78
699.23	346.17
699.57	344.59
699.90	343.06
700.24	341.50
700.58	339.91
700.91	338.39
701.25	337.02
701.58	335.68
701.92	334.36
702.25	332.97
702.59	331.63
702.92	330.29
703.26	329.04
703.59	327.76
703.93	326.57
704.26	325.35
704.60	324.05
704.93	322.79
705.26	321.58
705.60	320.44
705.93	319.35
706.27	318.26
706.60	317.26
706.94	316.18
707.27	315.09
707.61	314.09
707.94	313.09
708.27	312.03
708.61	310.91
708.94	309.86
709.28	308.87
709.61	307.92
709.94	306.98
710.28	305.94
710.61	304.99
710.95	303.95
711.28	303.04
711.61	302.14
711.95	301.22
712.28	300.24
712.61	299.24
712.95	298.30
713.28	297.44
713.61	296.51
713.95	295.62
714.28	294.79
714.61	293.92
714.95	293.06
715.28	292.16
715.61	291.30
715.95	290.47
716.28	289.64
716.61	288.83
716.95	288.01
717.28	287.29
717.61	286.50
717.94	285.76
718.28	284.93
718.61	284.16
718.94	283.43
719.27	282.77
719.61	282.14
719.94	281.46
720.27	280.78
720.60	280.12
720.94	279.50
721.27	278.87
721.60	278.30
721.93	277.69
722.27	277.16
722.60	276.58
722.93	275.97
723.26	275.42
723.59	274.83
723.93	274.27
724.26	273.67
724.59	273.11
724.92	272.59
725.25	272.09
725.59	271.56
725.92	271.07
726.25	270.53
726.58	270.02
726.91	269.51
727.24	268.99
727.57	268.51
727.91	267.99
728.24	267.55
728.57	267.05
728.90	266.58
729.23	266.07
729.56	265.69
729.89	265.23
730.22	264.77
730.55	264.30
730.89	263.82
731.22	263.39
731.55	262.93
731.88	262.47
732.21	262.06
732.54	261.63
732.87	261.20
733.20	260.82
733.53	260.43
733.86	260.05
734.19	259.67
734.52	259.26
734.85	258.96
735.18	258.49
735.51	258.10
735.84	257.71
736.17	257.37
736.50	256.90
736.83	256.63
737.16	256.30
737.49	255.94
737.82	255.62
738.15	255.28
738.48	254.96
738.81	254.64
739.14	254.26
739.47	253.95
739.80	253.62
740.13	253.33
740.46	252.98
740.79	252.63
741.12	252.29
741.45	252.00
741.78	251.64
742.11	251.38
742.44	251.06
742.77	250.80
743.10	250.46
743.43	250.21
743.75	249.86
744.08	249.68
744.41	249.41
744.74	249.08
745.07	248.79
745.40	248.54
745.73	248.27
746.06	248.05
746.39	247.81
746.71	247.57
747.04	247.28
747.37	247.02
747.70	246.79
748.03	246.54
748.36	246.31
748.68	246.09
749.01	245.86
749.34	245.63
749.67	245.41
750.00	245.22
750.33	245.07
750.65	244.86
750.98	244.53
751.31	244.32
751.64	244.16
751.97	244.03
752.29	243.83
752.62	243.58
752.95	243.38
753.28	243.14
753.60	242.94
753.93	242.78
754.26	242.60
754.59	242.41
754.91	242.24
755.24	242.04
755.57	241.83
755.90	241.62
756.22	241.46
756.55	241.28
756.88	241.07
757.20	240.84
757.53	240.64
757.86	240.48
758.19	240.30
758.51	240.14
758.84	239.90
759.17	239.75
759.49	239.62
759.82	239.50
760.15	239.37
760.47	239.23
760.80	239.08
761.13	238.94
761.45	238.79
761.78	238.64
762.11	238.51
762.43	238.34
762.76	238.21
763.08	238.05
763.41	237.92
763.74	237.79
764.06	237.66
764.39	237.49
764.71	237.35
765.04	237.21
765.37	237.07
765.69	236.96
766.02	236.82
766.34	236.70
766.67	236.57
767.00	236.46
767.32	236.38
767.65	236.33
767.97	236.24
768.30	236.11
768.62	236.01
768.95	235.90
769.27	235.79
769.60	235.71
769.92	235.59
770.25	235.45
770.57	235.36
770.90	235.21
771.22	235.14
771.55	235.02
771.87	234.94
772.20	234.84
772.52	234.85
772.85	234.87
773.17	234.80
773.50	234.66
773.82	234.56
774.15	234.42
774.47	234.24
774.80	234.13
775.12	234.05
775.45	233.96
775.77	233.85
776.09	233.78
776.42	233.69
776.74	233.67
777.07	233.61
777.39	233.55
777.72	233.52
778.04	233.45
778.36	233.36
778.69	233.30
779.01	233.25
779.33	233.09
779.66	232.89
779.98	232.77
780.31	232.72
780.63	232.68
780.95	232.61
781.28	232.57
781.60	232.51
781.92	232.44
782.25	232.36
782.57	232.32
782.89	232.25
783.22	232.15
783.54	232.10
783.86	232.03
784.19	231.98
784.51	231.93
784.83	231.86
785.16	231.84
785.48	231.77
785.80	231.68
786.12	231.62
786.45	231.59
786.77	231.56
787.09	231.49
787.42	231.44
787.74	231.40
788.06	231.35
788.38	231.30
788.71	231.28
789.03	231.25
789.35	231.22
789.67	231.20
789.99	231.20
790.32	231.12
790.64	231.08
790.96	231.10
791.28	231.00
791.61	230.99
791.93	230.94
792.25	230.94
792.57	231.01
792.89	230.98
793.21	230.95
793.54	230.90
793.86	230.88
794.18	230.84
794.50	230.83
794.82	230.79
795.14	230.74
795.47	230.71
795.79	230.67
796.11	230.59
796.43	230.55
796.75	230.51
797.07	230.50
797.39	230.48
797.71	230.41
798.04	230.39
798.36	230.37
798.68	230.34
799.00	230.31
799.32	230.24
799.64	230.21
799.96	230.21
800.28	230.18
800.60	230.14
800.92	230.12
801.24	230.09
801.56	230.08
801.89	230.05
802.21	230.04
802.53	229.98
802.85	230.02
803.17	230.04
803.49	230.00
803.81	229.96
804.13	229.93
804.45	229.87
804.77	229.87
805.09	229.86
805.41	229.82
805.73	229.76
806.05	229.70
806.37	229.68
806.69	229.63
807.01	229.59
807.33	229.59
807.65	229.55
807.97	229.53
808.28	229.51
808.60	229.53
808.92	229.47
809.24	229.52
809.56	229.49
809.88	229.45
810.20	229.45
810.52	229.45
810.84	229.41
811.16	229.39
811.48	229.35
811.80	229.32
812.12	229.29
812.43	229.30
812.75	229.29
813.07	229.26
813.39	229.23
813.71	229.19
814.03	229.11
814.35	229.06
814.67	229.03
814.98	228.98
815.30	228.94
815.62	228.91
815.94	228.83
816.26	228.82
816.58	228.75
816.89	228.73
817.21	228.67
817.53	228.63
817.85	228.60
818.17	228.61
818.48	228.55
818.80	228.56
819.12	228.48
819.44	228.42
819.76	228.37
820.07	228.35
820.39	228.37
820.71	228.42
821.03	228.36
821.34	228.36
821.66	228.33
821.98	228.30
822.30	228.27
822.61	228.31
822.93	228.23
823.25	228.20
823.57	228.18
823.88	228.17
824.20	228.19
824.52	228.19
824.83	228.16
825.15	228.14
825.47	228.12
825.79	228.14
826.10	228.15
826.42	228.16
826.74	228.16
827.05	228.15
827.37	228.13
827.69	228.13
828.00	228.10
828.32	228.10
828.64	228.09
828.95	228.12
829.27	228.10
829.58	228.12
829.90	228.14
830.22	228.14
830.53	228.11
830.85	228.06
831.17	228.02
831.48	227.98
831.80	228.01
832.11	228.00
832.43	227.98
832.75	227.95
833.06	228.01
833.38	228.00
833.69	227.96
834.01	227.94
834.32	227.98
834.64	227.96
834.96	227.98
835.27	227.97
835.59	227.96
835.90	227.96
836.22	227.94
836.53	227.91
836.85	227.87
837.16	227.96
837.48	227.99
837.79	228.00
838.11	228.02
838.42	227.97
838.74	227.99
839.05	227.97
839.37	227.97
839.68	227.88
840.00	227.88
840.31	227.90
840.63	227.88
840.94	227.85
841.26	227.87
841.57	227.82
841.88	227.86
842.20	227.83
842.51	227.80
842.83	227.83
843.14	227.95
843.46	227.97
843.77	227.94
844.08	227.93
844.40	227.92
844.71	227.90
845.03	227.93
845.34	227.92
845.65	227.89
845.97	227.90
846.28	227.91
846.60	227.89
846.91	227.86
847.22	227.85
847.54	227.86
847.85	227.83
848.16	227.84
848.48	227.79
848.79	227.79
849.10	227.78
849.42	227.76
849.73	227.64
850.04	227.62
850.36	227.59
850.67	227.56
850.98	227.54
851.30	227.53
851.61	227.48
851.92	227.44
852.23	227.51
852.55	227.46
852.86	227.46
853.17	227.45
853.49	227.45
853.80	227.43
854.11	227.41
854.42	227.41
854.74	227.38
855.05	227.39
855.36	227.34
855.67	227.35
855.99	227.35
856.30	227.46
856.61	227.45
856.92	227.41
857.23	227.43
857.55	227.43
857.86	227.39
858.17	227.39
858.48	227.38
858.79	227.31
859.11	227.34
859.42	227.33
859.73	227.29
860.04	227.28
860.35	227.26
860.66	227.25
860.98	227.22
861.29	227.23
861.60	227.21
861.91	227.23
862.22	227.19
862.53	227.15
862.84	226.99
863.16	226.99
863.47	226.96
863.78	226.94
864.09	226.94
864.40	226.98
864.71	227.02
865.02	227.02
865.33	227.02
865.64	227.01
865.95	226.99
866.27	227.08
866.58	227.07
866.89	227.10
867.20	227.10
867.51	227.11
867.82	227.08
868.13	227.11
868.44	227.12
868.75	227.12
869.06	227.13
869.37	227.18
869.68	227.16
869.99	227.18
870.30	227.20
870.61	227.21
870.92	227.21
871.23	227.18
871.54	227.20
871.85	227.24
872.16	227.26
872.47	227.25
872.78	227.17
873.09	227.20
873.40	227.19
873.71	227.21
874.02	227.22
874.33	227.25
874.64	227.25
874.95	227.27
875.26	227.27
875.56	227.26
875.87	227.26
876.18	227.25
876.49	227.38
876.80	227.35
877.11	227.37
877.42	227.37
877.73	227.38
878.04	227.37
878.35	227.36
878.66	227.34
878.96	227.38
879.27	227.39
879.58	227.40
879.89	227.40
880.20	227.45
880.51	227.44
880.82	227.45
881.12	227.45
881.43	227.40
881.74	227.40
882.05	227.41
882.36	227.41
882.67	227.42
882.97	227.32
883.28	227.31
883.59	227.27
883.90	227.24
884.21	227.26
884.51	227.26
884.82	227.24
885.13	227.25
885.44	227.25
885.74	227.26
886.05	227.26
886.36	227.23
886.67	227.18
886.98	227.23
887.28	227.25
887.59	227.23
887.90	227.21
888.20	227.21
888.51	227.24
888.82	227.22
889.13	227.24
889.43	227.31
889.74	227.30
890.05	227.30
890.35	227.32
890.66	227.30
890.97	227.27
891.28	227.25
891.58	227.27
891.89	227.26
892.20	227.25
892.50	227.20
892.81	227.21
893.12	227.20
893.42	227.11
893.73	227.09
894.04	227.07
894.34	227.11
894.65	227.08
894.95	227.06
895.26	227.06
895.57	227.07
895.87	226.97
896.18	227.00
896.48	227.02
896.79	227.06
897.10	227.08
897.40	227.09
897.71	227.08
898.01	227.05
898.32	227.03
898.63	226.99
898.93	227.03
899.24	227.07
899.54	227.07
899.85	227.07
900.15	227.05
900.46	227.06
900.76	227.05
901.07	227.04
901.38	227.04
901.68	227.06
901.99	227.02
902.29	227.05
902.60	227.02
902.90	227.01
903.21	226.95
903.51	226.91
903.82	226.93
904.12	226.93
904.43	226.95
904.73	226.94
905.03	226.98
905.34	227.05
905.64	227.00
905.95	226.98
906.25	227.00
906.56	226.98
906.86	226.98
907.17	226.97
907.47	226.99
907.77	226.96
908.08	226.92
908.38	226.93
908.69	226.89
908.99	226.92
909.30	226.89
909.60	226.88
909.90	226.90
910.21	226.86
910.51	226.85
910.81	226.82
911.12	226.84
911.42	226.84
911.73	226.73
912.03	226.74
912.33	226.78
912.64	226.80
912.94	226.80
913.24	226.79
913.55	226.78
913.85	226.77
914.15	226.77
914.46	226.82
914.76	226.81
915.06	226.86
915.37	226.85
915.67	226.86
915.97	226.89
916.27	226.87
916.58	226.93
916.88	226.93
917.18	226.93
917.49	226.99
917.79	226.98
918.09	227.03
918.39	227.09
918.70	227.08
919.00	227.06
919.30	227.11
919.60	227.10
919.91	227.11
920.21	227.14
920.51	227.15
920.81	227.10
921.12	227.13
921.42	227.09
921.72	227.08
922.02	227.09
922.32	227.10
922.63	227.10
922.93	227.12
923.23	227.17
923.53	227.17
923.83	227.09
924.13	227.10
924.44	227.07
924.74	227.08
925.04	227.09
925.34	227.10
925.64	227.08
925.94	227.11
926.24	227.15
926.55	227.17
926.85	227.20
927.15	227.22
927.45	227.21
927.75	227.23
928.05	227.26
928.35	227.25
928.65	227.29
928.95	227.27
929.26	227.25
929.56	227.22
929.86	227.23
930.16	227.24
930.46	227.23
930.76	227.23
931.06	227.19
931.36	227.17
931.66	227.17
931.96	227.16
932.26	227.14
932.56	227.11
932.86	227.07
933.16	227.09
933.46	227.10
933.76	227.07
934.06	227.07
934.36	227.06
934.66	227.03
934.96	227.00
935.26	227.02
935.56	227.02
935.86	226.99
936.16	226.99
936.46	226.97
936.76	226.98
937.06	226.99
937.36	226.97
937.66	226.98
937.96	226.96
938.26	226.91
938.56	226.89
938.86	226.89
939.16	226.90
939.46	226.86
939.76	226.82
940.06	226.85
940.35	226.83
940.65	226.78
940.95	226.79
941.25	226.74
941.55	226.71
941.85	226.69
942.15	226.75
942.45	226.79
942.75	226.79
943.04	226.80
943.34	226.77
943.64	226.76
943.94	226.73
944.24	226.76
944.54	226.80
944.84	226.82
945.13	226.79
945.43	226.75
945.73	226.74
946.03	226.73
946.33	226.71
946.62	226.70
946.92	226.73
947.22	226.74
947.52	226.75
947.82	226.78
948.11	226.74
948.41	226.67
948.71	226.62
949.01	226.62
949.31	226.61
949.60	226.60
949.90	226.60
950.20	226.59
950.50	226.56
950.79	226.55
951.09	226.57
951.39	226.58
951.69	226.59
951.98	226.61
952.28	226.65
952.58	226.62
952.87	226.63
953.17	226.63
953.47	226.59
953.76	226.62
954.06	226.59
954.36	226.61
954.66	226.66
954.95	226.67
955.25	226.67
955.55	226.70
955.84	226.70
956.14	226.72
956.44	226.74
956.73	226.75
957.03	226.75
957.32	226.75
957.62	226.75
957.92	226.78
958.21	226.75
958.51	226.84
958.81	226.87
959.10	226.87
959.40	226.90
959.69	226.96
959.99	226.95
960.29	226.95
960.58	226.93
960.88	226.98
961.17	226.98
961.47	227.01
961.76	226.98
962.06	227.00
962.36	227.00
962.65	227.00
962.95	227.02
963.24	226.99
963.54	226.98
963.83	227.01
964.13	226.97
964.42	226.96
964.72	226.87
965.01	226.87
965.31	226.88
965.60	226.84
965.90	226.87
966.19	226.86
966.49	226.90
966.78	226.90
967.08	226.85
967.37	226.85
967.67	226.80
967.96	226.83
968.26	226.81
968.55	226.81
968.85	226.81
969.14	226.79
969.43	226.82
969.73	226.78
970.02	226.78
970.32	226.80
970.61	226.82
970.91	226.80
971.20	226.78
971.49	226.79
971.79	226.80
972.08	226.76
972.38	226.79
972.67	226.78
972.96	226.78
973.26	226.75
973.55	226.78
973.85	226.81
974.14	226.82
974.43	226.82
974.73	226.81
975.02	226.79
975.31	226.79
975.61	226.79
975.90	226.80
976.19	226.77
976.49	226.77
976.78	226.74
977.07	226.78
977.37	226.79
977.66	226.77
977.95	226.76
978.24	226.73
978.54	226.73
978.83	226.72
979.12	226.70
979.42	226.70
979.71	226.70
980.00	226.66
980.29	226.63
980.59	226.62
980.88	226.61
981.17	226.58
981.46	226.56
981.76	226.54
982.05	226.54
982.34	226.55
982.63	226.57
982.93	226.58
983.22	226.56
983.51	226.57
983.80	226.55
984.09	226.58
984.39	226.57
984.68	226.54
984.97	226.52
985.26	226.53
985.55	226.55
985.85	226.50
986.14	226.49
986.43	226.47
986.72	226.45
987.01	226.46
987.30	226.46
987.59	226.44
987.89	226.44
988.18	226.41
988.47	226.41
988.76	226.38
989.05	226.35
989.34	226.36
989.63	226.38
989.92	226.38
990.22	226.34
990.51	226.33
990.80	226.34
991.09	226.35
991.38	226.38
991.67	226.37
991.96	226.41
992.25	226.45
992.54	226.45
992.83	226.48
993.12	226.46
993.41	226.52
993.70	226.59
993.99	226.60
994.28	226.63
994.58	226.64
994.87	226.61
995.16	226.63
995.45	226.64
995.74	226.61
996.03	226.67
996.32	226.69
996.61	226.72
996.90	226.72
997.19	226.72
997.48	226.70
997.77	226.70
998.06	226.73
998.34	226.71
998.63	226.72
998.92	226.72
999.21	226.75
999.50	226.78
999.79	226.76
1000.08	226.77
1000.37	226.79
1000.66	226.78
1000.95	226.85
1001.24	226.85
1001.53	226.85
1001.82	226.88
1002.11	226.89
1002.40	226.88
1002.68	226.90
1002.97	226.95
1003.26	226.94
1003.55	226.96
1003.84	226.96
1004.13	226.93
1004.42	226.94
1004.71	226.93
1004.99	226.95
1005.28	226.96
1005.57	226.92
1005.86	226.89
1006.15	226.90
1006.44	226.88
1006.72	226.89
1007.01	226.87
1007.30	226.89
1007.59	226.86
1007.88	226.81
1008.17	226.77
1008.45	226.75
1008.74	226.69
1009.03	226.63
1009.32	226.64
1009.60	226.62
1009.89	226.63
1010.18	226.60
1010.47	226.59
1010.76	226.59
1011.04	226.57
1011.33	226.59
1011.62	226.59
1011.91	226.59
1012.19	226.57
1012.48	226.58
1012.77	226.56
1013.05	226.57
1013.34	226.56
1013.63	226.57
1013.92	226.60
1014.20	226.59
1014.49	226.60
1014.78	226.65
1015.06	226.64
1015.35	226.65
1015.64	226.68
1015.92	226.69
1016.21	226.70
1016.50	226.72
1016.78	226.70
1017.07	226.72
1017.36	226.64
1017.64	226.60
1017.93	226.62
1018.22	226.61
1018.50	226.60
1018.79	226.61
1019.08	226.58
1019.36	226.55
1019.65	226.55
1019.93	226.56
1020.22	226.58
1020.51	226.63
1020.79	226.62
1021.08	226.75
1021.36	226.35
1021.65	226.42
1021.94	226.69
1022.22	226.29
1022.51	226.41
1022.79	227.12
1023.08	226.62
1023.36	227.94
1023.65	226.54
>>>>>End Processed Spectral Data<<<<<
