SpectraSuite Data File
++++++++++++++++++++++++++++++++++++
Date: Fri Feb 01 17:08:02 EST 2013
User: group
Dark Spectrum Present: No
Reference Spectrum Present: No
Number of Sampled Component Spectra: 1
Spectrometers: USB2E7196
Integration Time (usec): 35000 (USB2E7196)
Spectra Averaged: 100 (USB2E7196)
Boxcar Smoothing: 10 (USB2E7196)
Correct for Electrical Dark: No (USB2E7196)
Strobe/Lamp Enabled: No (USB2E7196)
Correct for Detector Non-linearity: No (USB2E7196)
Correct for Stray Light: No (USB2E7196)
Number of Pixels in Processed Spectrum: 2048
>>>>>Begin Processed Spectral Data<<<<<
339.09	0.00
339.48	213.96
339.86	214.99
340.24	216.72
340.63	218.52
341.01	220.72
341.39	220.14
341.78	221.47
342.16	222.93
342.54	223.14
342.93	211.87
343.31	222.59
343.69	223.12
344.07	223.61
344.46	223.99
344.84	224.34
345.22	224.54
345.60	224.81
345.99	225.00
346.37	225.11
346.75	225.22
347.13	225.28
347.52	225.30
347.90	225.35
348.28	225.37
348.66	225.41
349.05	225.40
349.43	225.41
349.81	225.45
350.19	225.48
350.57	225.52
350.96	225.58
351.34	225.65
351.72	225.69
352.10	225.74
352.48	225.85
352.87	225.86
353.25	225.93
353.63	225.94
354.01	226.02
354.39	226.10
354.77	226.16
355.15	226.24
355.54	226.27
355.92	226.32
356.30	226.39
356.68	226.51
357.06	226.59
357.44	226.70
357.82	226.74
358.20	226.81
358.58	226.86
358.97	226.92
359.35	226.99
359.73	227.07
360.11	227.13
360.49	227.15
360.87	227.21
361.25	227.28
361.63	227.40
362.01	227.40
362.39	227.42
362.77	227.48
363.15	227.50
363.53	227.57
363.91	227.59
364.29	227.61
364.67	227.51
365.05	227.53
365.43	227.53
365.81	227.57
366.19	227.60
366.57	227.66
366.95	227.63
367.33	227.57
367.71	227.56
368.09	227.55
368.47	227.54
368.85	227.52
369.23	227.51
369.61	227.44
369.99	227.47
370.37	227.46
370.75	227.47
371.13	227.41
371.51	227.36
371.89	227.34
372.27	227.34
372.65	227.33
373.03	227.28
373.41	227.24
373.78	227.19
374.16	227.12
374.54	227.02
374.92	226.98
375.30	226.98
375.68	226.93
376.06	226.89
376.44	226.87
376.82	226.79
377.19	226.74
377.57	226.69
377.95	226.61
378.33	226.56
378.71	226.46
379.09	226.44
379.47	226.42
379.84	226.36
380.22	226.26
380.60	226.20
380.98	226.14
381.36	226.08
381.73	225.99
382.11	225.99
382.49	225.94
382.87	225.87
383.25	225.80
383.62	225.85
384.00	225.77
384.38	225.71
384.76	225.74
385.13	225.70
385.51	225.66
385.89	225.59
386.27	225.56
386.64	225.50
387.02	225.47
387.40	225.39
387.78	225.35
388.15	225.32
388.53	225.28
388.91	225.22
389.29	225.18
389.66	225.18
390.04	225.09
390.42	225.09
390.79	225.06
391.17	225.06
391.55	224.94
391.92	224.94
392.30	224.92
392.68	224.87
393.05	224.87
393.43	224.84
393.81	224.84
394.18	224.80
394.56	224.79
394.94	224.83
395.31	224.84
395.69	224.87
396.06	224.90
396.44	224.92
396.82	224.98
397.19	225.07
397.57	225.08
397.95	225.14
398.32	225.13
398.70	225.19
399.07	225.21
399.45	225.23
399.82	225.29
400.20	225.34
400.58	225.39
400.95	225.38
401.33	225.50
401.70	225.64
402.08	225.73
402.45	225.85
402.83	225.93
403.20	226.02
403.58	226.10
403.95	226.20
404.33	226.31
404.71	226.42
405.08	226.55
405.46	226.69
405.83	226.81
406.21	226.94
406.58	227.08
406.96	227.27
407.33	227.46
407.70	227.60
408.08	227.85
408.45	228.04
408.83	228.29
409.20	228.48
409.58	228.62
409.95	228.85
410.33	229.12
410.70	229.34
411.08	229.64
411.45	229.95
411.82	230.26
412.20	230.60
412.57	231.03
412.95	231.32
413.32	231.73
413.69	232.16
414.07	232.62
414.44	233.08
414.82	233.56
415.19	234.10
415.56	234.69
415.94	235.21
416.31	235.86
416.68	236.52
417.06	237.25
417.43	237.95
417.81	238.74
418.18	239.51
418.55	240.33
418.93	241.19
419.30	242.07
419.67	243.03
420.04	244.01
420.42	244.97
420.79	246.20
421.16	247.34
421.54	248.54
421.91	249.76
422.28	250.99
422.66	252.28
423.03	253.60
423.40	254.93
423.77	256.33
424.15	257.77
424.52	259.23
424.89	260.87
425.26	262.41
425.64	263.84
426.01	265.42
426.38	267.12
426.75	268.81
427.13	270.60
427.50	272.41
427.87	274.27
428.24	276.15
428.61	277.86
428.99	279.80
429.36	281.90
429.73	283.94
430.10	285.99
430.47	288.08
430.85	290.17
431.22	292.41
431.59	294.83
431.96	297.05
432.33	299.55
432.70	301.87
433.08	304.71
433.45	307.35
433.82	309.95
434.19	312.80
434.56	315.62
434.93	318.22
435.30	320.80
435.68	323.67
436.05	326.48
436.42	329.28
436.79	331.79
437.16	334.44
437.53	337.27
437.90	340.03
438.27	342.75
438.64	345.57
439.01	348.13
439.38	350.32
439.75	352.44
440.13	354.91
440.50	357.24
440.87	359.02
441.24	360.92
441.61	363.09
441.98	364.55
442.35	366.32
442.72	368.16
443.09	369.96
443.46	370.96
443.83	371.51
444.20	372.00
444.57	372.84
444.94	373.15
445.31	373.48
445.68	373.86
446.05	373.92
446.42	373.50
446.79	373.07
447.16	372.63
447.53	372.33
447.90	371.23
448.27	370.07
448.64	368.53
449.01	367.42
449.37	365.44
449.74	363.55
450.11	361.30
450.48	358.81
450.85	356.31
451.22	354.17
451.59	352.18
451.96	350.25
452.33	347.66
452.70	345.28
453.07	342.46
453.43	339.58
453.80	336.87
454.17	334.25
454.54	331.74
454.91	329.05
455.28	326.44
455.65	323.89
456.02	321.43
456.38	319.29
456.75	316.65
457.12	314.43
457.49	312.25
457.86	310.11
458.23	308.30
458.59	306.26
458.96	304.18
459.33	302.33
459.70	300.50
460.07	299.00
460.43	297.30
460.80	295.72
461.17	294.27
461.54	292.81
461.91	291.39
462.27	289.99
462.64	288.74
463.01	287.37
463.38	286.13
463.74	284.79
464.11	283.63
464.48	282.62
464.85	281.50
465.21	280.66
465.58	279.77
465.95	278.66
466.32	277.77
466.68	276.90
467.05	276.03
467.42	275.14
467.78	274.20
468.15	273.35
468.52	272.68
468.88	271.86
469.25	271.04
469.62	270.41
469.98	269.71
470.35	269.09
470.72	268.49
471.08	267.85
471.45	267.33
471.82	266.76
472.18	266.16
472.55	265.72
472.92	265.21
473.28	264.71
473.65	264.30
474.02	263.91
474.38	263.56
474.75	263.26
475.11	262.90
475.48	262.68
475.85	262.45
476.21	262.24
476.58	262.05
476.94	261.92
477.31	261.78
477.67	261.64
478.04	261.55
478.41	261.52
478.77	261.56
479.14	261.52
479.50	261.56
479.87	261.63
480.23	261.75
480.60	261.84
480.96	261.94
481.33	262.15
481.69	262.32
482.06	262.49
482.42	262.68
482.79	262.96
483.15	263.27
483.52	263.64
483.88	263.99
484.25	264.39
484.61	264.83
484.98	265.30
485.34	265.88
485.71	266.47
486.07	267.08
486.44	267.62
486.80	268.28
487.17	269.00
487.53	269.85
487.90	270.68
488.26	271.60
488.62	272.62
488.99	273.67
489.35	274.71
489.72	275.83
490.08	277.04
490.44	278.25
490.81	279.60
491.17	280.97
491.54	282.48
491.90	283.98
492.26	285.60
492.63	287.31
492.99	289.12
493.36	291.00
493.72	293.03
494.08	295.10
494.45	297.37
494.81	299.73
495.17	302.16
495.54	304.73
495.90	307.43
496.26	310.23
496.63	313.14
496.99	316.22
497.35	319.48
497.72	322.88
498.08	326.43
498.44	330.06
498.80	333.96
499.17	337.98
499.53	342.20
499.89	346.54
500.26	351.03
500.62	355.62
500.98	360.58
501.34	365.66
501.71	371.01
502.07	376.44
502.43	382.01
502.79	387.79
503.16	393.76
503.52	399.95
503.88	406.28
504.24	412.82
504.60	419.64
504.97	426.70
505.33	433.92
505.69	441.52
506.05	449.25
506.41	457.07
506.78	465.12
507.14	473.51
507.50	482.17
507.86	491.17
508.22	500.28
508.59	509.38
508.95	518.81
509.31	528.49
509.67	538.51
510.03	548.63
510.39	558.99
510.75	569.61
511.12	580.33
511.48	591.45
511.84	602.74
512.20	614.12
512.56	625.83
512.92	637.88
513.28	650.06
513.64	662.29
514.00	674.80
514.37	687.59
514.73	700.50
515.09	713.30
515.45	726.28
515.81	739.59
516.17	753.34
516.53	767.20
516.89	781.16
517.25	795.06
517.61	809.22
517.97	823.45
518.33	837.68
518.69	852.17
519.05	866.88
519.41	881.77
519.77	896.95
520.13	912.13
520.49	927.20
520.85	942.34
521.21	957.77
521.57	973.57
521.93	988.84
522.29	1004.81
522.65	1020.75
523.01	1036.56
523.37	1052.34
523.73	1068.07
524.09	1083.81
524.45	1099.76
524.81	1116.01
525.17	1132.32
525.53	1148.80
525.89	1165.37
526.25	1181.95
526.61	1197.98
526.97	1214.31
527.33	1230.45
527.68	1246.57
528.04	1262.65
528.40	1278.68
528.76	1295.36
529.12	1311.65
529.48	1328.18
529.84	1343.72
530.20	1359.96
530.56	1376.47
530.91	1393.52
531.27	1409.90
531.63	1425.99
531.99	1442.07
532.35	1457.66
532.71	1473.35
533.07	1489.26
533.42	1504.76
533.78	1520.36
534.14	1536.20
534.50	1551.17
534.86	1566.75
535.21	1581.68
535.57	1597.05
535.93	1612.18
536.29	1626.44
536.65	1641.12
537.00	1655.48
537.36	1670.50
537.72	1684.58
538.08	1698.81
538.44	1712.03
538.79	1725.65
539.15	1738.86
539.51	1752.26
539.87	1766.21
540.22	1779.56
540.58	1792.92
540.94	1805.77
541.29	1818.16
541.65	1830.59
542.01	1843.41
542.37	1855.33
542.72	1867.48
543.08	1879.05
543.44	1891.30
543.79	1902.43
544.15	1913.16
544.51	1924.65
544.87	1935.34
545.22	1946.06
545.58	1956.01
545.94	1965.75
546.29	1975.18
546.65	1985.03
547.01	1994.08
547.36	2002.69
547.72	2011.00
548.07	2018.66
548.43	2026.80
548.79	2034.81
549.14	2042.12
549.50	2049.30
549.86	2056.82
550.21	2063.82
550.57	2070.94
550.92	2077.41
551.28	2084.32
551.64	2091.33
551.99	2097.64
552.35	2103.78
552.70	2109.73
553.06	2115.64
553.41	2121.96
553.77	2128.07
554.13	2134.11
554.48	2140.28
554.84	2145.81
555.19	2151.05
555.55	2156.29
555.90	2160.75
556.26	2165.66
556.61	2170.27
556.97	2174.77
557.32	2178.98
557.68	2183.28
558.03	2187.61
558.39	2191.13
558.74	2195.83
559.10	2199.69
559.45	2203.41
559.81	2207.59
560.16	2211.59
560.52	2214.96
560.87	2218.39
561.23	2221.24
561.58	2224.22
561.94	2226.90
562.29	2229.24
562.64	2232.16
563.00	2234.77
563.35	2238.32
563.71	2241.60
564.06	2245.04
564.42	2248.02
564.77	2250.78
565.12	2253.29
565.48	2255.29
565.83	2257.59
566.19	2259.07
566.54	2259.98
566.89	2261.19
567.25	2262.12
567.60	2263.41
567.96	2265.34
568.31	2266.26
568.66	2267.54
569.02	2268.18
569.37	2268.62
569.72	2269.82
570.08	2270.06
570.43	2270.35
570.78	2270.11
571.14	2268.75
571.49	2267.57
571.84	2267.41
572.20	2266.54
572.55	2265.71
572.90	2264.40
573.26	2263.24
573.61	2261.73
573.96	2260.40
574.31	2257.83
574.67	2255.09
575.02	2251.72
575.37	2248.55
575.72	2245.15
576.08	2241.89
576.43	2238.76
576.78	2235.45
577.13	2232.24
577.49	2229.47
577.84	2226.22
578.19	2222.66
578.54	2219.39
578.90	2215.51
579.25	2210.27
579.60	2205.41
579.95	2200.72
580.30	2195.92
580.66	2190.95
581.01	2186.27
581.36	2181.53
581.71	2177.59
582.06	2173.43
582.42	2169.33
582.77	2164.28
583.12	2159.92
583.47	2155.55
583.82	2151.01
584.17	2145.95
584.53	2140.72
584.88	2135.15
585.23	2129.67
585.58	2124.38
585.93	2118.99
586.28	2114.37
586.63	2109.44
586.98	2104.51
587.34	2099.78
587.69	2095.17
588.04	2090.14
588.39	2084.63
588.74	2078.49
589.09	2072.47
589.44	2065.91
589.79	2059.95
590.14	2054.45
590.49	2048.08
590.84	2041.92
591.19	2036.01
591.54	2029.71
591.89	2022.72
592.25	2016.27
592.60	2009.32
592.95	2002.08
593.30	1995.05
593.65	1987.70
594.00	1980.92
594.35	1973.93
594.70	1966.13
595.05	1959.19
595.40	1952.13
595.75	1944.89
596.10	1938.89
596.45	1932.44
596.80	1926.45
597.15	1920.16
597.50	1913.32
597.85	1906.96
598.19	1900.46
598.54	1893.54
598.89	1887.04
599.24	1881.25
599.59	1874.71
599.94	1868.58
600.29	1862.29
600.64	1855.84
600.99	1848.59
601.34	1842.02
601.69	1835.31
602.04	1828.71
602.39	1821.49
602.74	1814.77
603.08	1808.11
603.43	1801.39
603.78	1794.18
604.13	1787.07
604.48	1779.90
604.83	1773.21
605.18	1766.51
605.53	1758.67
605.87	1750.78
606.22	1743.61
606.57	1735.83
606.92	1728.63
607.27	1721.74
607.62	1714.90
607.96	1707.91
608.31	1701.48
608.66	1693.87
609.01	1686.45
609.36	1678.86
609.70	1670.91
610.05	1663.01
610.40	1655.43
610.75	1647.33
611.10	1639.82
611.44	1631.40
611.79	1623.41
612.14	1614.93
612.49	1605.74
612.83	1597.33
613.18	1589.25
613.53	1581.46
613.88	1572.96
614.22	1564.63
614.57	1555.91
614.92	1548.05
615.27	1540.52
615.61	1532.29
615.96	1524.32
616.31	1516.58
616.65	1509.30
617.00	1501.86
617.35	1494.19
617.70	1486.06
618.04	1477.57
618.39	1469.33
618.74	1461.85
619.08	1453.64
619.43	1445.91
619.78	1439.00
620.12	1432.05
620.47	1424.67
620.82	1416.38
621.16	1408.97
621.51	1401.37
621.85	1393.87
622.20	1385.39
622.55	1377.07
622.89	1369.23
623.24	1361.65
623.59	1354.38
623.93	1346.91
624.28	1339.75
624.62	1332.37
624.97	1325.06
625.32	1318.36
625.66	1311.35
626.01	1304.17
626.35	1296.88
626.70	1289.18
627.04	1281.58
627.39	1273.75
627.73	1266.30
628.08	1259.46
628.43	1252.32
628.77	1245.06
629.12	1237.60
629.46	1230.48
629.81	1223.02
630.15	1215.81
630.50	1208.38
630.84	1200.22
631.19	1192.32
631.53	1184.75
631.88	1177.12
632.22	1169.57
632.57	1162.26
632.91	1154.78
633.26	1147.45
633.60	1139.94
633.95	1132.89
634.29	1125.90
634.64	1119.27
634.98	1112.05
635.32	1104.87
635.67	1098.16
636.01	1091.64
636.36	1084.83
636.70	1078.29
637.05	1071.56
637.39	1065.10
637.73	1058.64
638.08	1052.72
638.42	1046.77
638.77	1040.42
639.11	1033.88
639.45	1027.54
639.80	1020.89
640.14	1014.53
640.49	1008.01
640.83	1001.78
641.17	995.50
641.52	989.17
641.86	982.71
642.20	976.86
642.55	970.59
642.89	964.23
643.23	957.63
643.58	951.94
643.92	945.89
644.26	940.07
644.61	934.04
644.95	928.07
645.29	921.59
645.64	914.82
645.98	908.48
646.32	902.59
646.66	896.64
647.01	890.89
647.35	885.27
647.69	879.57
648.04	874.14
648.38	868.42
648.72	862.52
649.06	856.54
649.41	850.68
649.75	844.71
650.09	838.78
650.43	833.12
650.78	826.89
651.12	820.88
651.46	815.15
651.80	809.53
652.14	804.13
652.49	798.78
652.83	793.75
653.17	788.18
653.51	782.52
653.85	777.13
654.20	771.55
654.54	765.57
654.88	759.71
655.22	753.78
655.56	748.20
655.90	742.73
656.25	737.50
656.59	732.18
656.93	727.16
657.27	722.04
657.61	716.60
657.95	711.59
658.29	706.51
658.64	701.27
658.98	695.95
659.32	690.62
659.66	685.50
660.00	680.24
660.34	675.27
660.68	670.42
661.02	665.38
661.36	660.72
661.70	656.27
662.05	652.03
662.39	647.84
662.73	643.33
663.07	638.97
663.41	634.58
663.75	630.09
664.09	625.58
664.43	621.20
664.77	617.05
665.11	612.81
665.45	608.69
665.79	604.60
666.13	600.48
666.47	596.34
666.81	592.15
667.15	587.99
667.49	584.07
667.83	580.23
668.17	576.37
668.51	572.27
668.85	568.18
669.19	564.30
669.53	560.40
669.87	556.61
670.21	552.91
670.55	549.25
670.89	545.84
671.23	542.44
671.57	538.89
671.91	535.40
672.25	531.84
672.58	528.31
672.92	524.91
673.26	521.67
673.60	518.56
673.94	515.45
674.28	512.52
674.62	509.58
674.96	506.49
675.30	503.62
675.64	500.66
675.97	497.90
676.31	495.03
676.65	492.11
676.99	489.42
677.33	486.58
677.67	483.80
678.01	480.81
678.34	477.83
678.68	475.02
679.02	472.22
679.36	469.51
679.70	466.85
680.04	464.14
680.37	461.37
680.71	458.58
681.05	455.94
681.39	453.30
681.73	450.65
682.06	448.19
682.40	445.62
682.74	443.11
683.08	440.57
683.42	437.98
683.75	435.53
684.09	432.93
684.43	430.49
684.77	428.02
685.10	425.65
685.44	423.37
685.78	421.13
686.12	418.94
686.45	416.66
686.79	414.42
687.13	412.21
687.46	410.03
687.80	407.84
688.14	405.65
688.48	403.62
688.81	401.42
689.15	399.23
689.49	397.09
689.82	394.99
690.16	392.93
690.50	391.02
690.83	389.04
691.17	387.10
691.51	385.19
691.84	383.35
692.18	381.42
692.52	379.44
692.85	377.46
693.19	375.60
693.52	373.78
693.86	371.95
694.20	370.25
694.53	368.47
694.87	366.65
695.21	364.93
695.54	363.08
695.88	361.34
696.21	359.65
696.55	357.97
696.88	356.30
697.22	354.63
697.56	352.98
697.89	351.37
698.23	349.79
698.56	348.21
698.90	346.65
699.23	345.03
699.57	343.54
699.90	342.05
700.24	340.50
700.58	339.00
700.91	337.52
701.25	336.04
701.58	334.67
701.92	333.36
702.25	331.98
702.59	330.63
702.92	329.31
703.26	328.00
703.59	326.71
703.93	325.60
704.26	324.34
704.60	323.04
704.93	321.78
705.26	320.52
705.60	319.36
705.93	318.17
706.27	317.12
706.60	316.04
706.94	314.91
707.27	313.80
707.61	312.70
707.94	311.66
708.27	310.57
708.61	309.46
708.94	308.37
709.28	307.38
709.61	306.38
709.94	305.43
710.28	304.44
710.61	303.45
710.95	302.32
711.28	301.40
711.61	300.49
711.95	299.55
712.28	298.59
712.61	297.57
712.95	296.63
713.28	295.75
713.61	294.84
713.95	293.97
714.28	293.08
714.61	292.21
714.95	291.34
715.28	290.47
715.61	289.63
715.95	288.80
716.28	287.92
716.61	287.09
716.95	286.25
717.28	285.45
717.61	284.67
717.94	283.93
718.28	283.17
718.61	282.42
718.94	281.74
719.27	281.08
719.61	280.43
719.94	279.76
720.27	279.03
720.60	278.32
720.94	277.67
721.27	277.06
721.60	276.50
721.93	275.90
722.27	275.32
722.60	274.74
722.93	274.17
723.26	273.63
723.59	273.09
723.93	272.54
724.26	272.01
724.59	271.48
724.92	270.94
725.25	270.42
725.59	269.89
725.92	269.40
726.25	268.86
726.58	268.37
726.91	267.88
727.24	267.40
727.57	266.93
727.91	266.41
728.24	265.95
728.57	265.43
728.90	264.97
729.23	264.52
729.56	264.13
729.89	263.68
730.22	263.24
730.55	262.79
730.89	262.37
731.22	261.94
731.55	261.46
731.88	261.04
732.21	260.63
732.54	260.23
732.87	259.79
733.20	259.43
733.53	259.06
733.86	258.68
734.19	258.31
734.52	257.94
734.85	257.65
735.18	257.28
735.51	256.95
735.84	256.57
736.17	256.24
736.50	255.80
736.83	255.57
737.16	255.23
737.49	254.90
737.82	254.56
738.15	254.22
738.48	253.92
738.81	253.66
739.14	253.35
739.47	253.01
739.80	252.70
740.13	252.41
740.46	252.06
740.79	251.74
741.12	251.45
741.45	251.19
741.78	250.88
742.11	250.59
742.44	250.27
742.77	250.00
743.10	249.64
743.43	249.35
743.75	248.96
744.08	248.82
744.41	248.55
744.74	248.28
745.07	247.96
745.40	247.73
745.73	247.46
746.06	247.19
746.39	246.94
746.71	246.68
747.04	246.44
747.37	246.18
747.70	245.93
748.03	245.68
748.36	245.45
748.68	245.17
749.01	244.92
749.34	244.69
749.67	244.47
750.00	244.28
750.33	244.13
750.65	243.92
750.98	243.55
751.31	243.28
751.64	243.06
751.97	242.93
752.29	242.72
752.62	242.44
752.95	242.21
753.28	242.01
753.60	241.79
753.93	241.57
754.26	241.37
754.59	241.18
754.91	240.94
755.24	240.72
755.57	240.52
755.90	240.32
756.22	240.12
756.55	239.91
756.88	239.71
757.20	239.46
757.53	239.27
757.86	239.10
758.19	238.96
758.51	238.80
758.84	238.58
759.17	238.40
759.49	238.25
759.82	238.12
760.15	237.94
760.47	237.79
760.80	237.64
761.13	237.50
761.45	237.33
761.78	237.21
762.11	237.03
762.43	236.91
762.76	236.74
763.08	236.61
763.41	236.50
763.74	236.37
764.06	236.23
764.39	236.09
764.71	235.98
765.04	235.83
765.37	235.66
765.69	235.53
766.02	235.36
766.34	235.19
766.67	235.03
767.00	234.93
767.32	234.87
767.65	234.79
767.97	234.68
768.30	234.55
768.62	234.44
768.95	234.33
769.27	234.19
769.60	234.10
769.92	233.94
770.25	233.80
770.57	233.65
770.90	233.55
771.22	233.44
771.55	233.30
771.87	233.22
772.20	233.14
772.52	233.16
772.85	233.23
773.17	233.17
773.50	233.10
773.82	232.96
774.15	232.81
774.47	232.70
774.80	232.61
775.12	232.56
775.45	232.49
775.77	232.45
776.09	232.39
776.42	232.35
776.74	232.35
777.07	232.29
777.39	232.24
777.72	232.15
778.04	232.06
778.36	232.02
778.69	231.95
779.01	231.88
779.33	231.69
779.66	231.49
779.98	231.44
780.31	231.39
780.63	231.41
780.95	231.36
781.28	231.25
781.60	231.16
781.92	231.08
782.25	231.00
782.57	230.91
782.89	230.84
783.22	230.72
783.54	230.67
783.86	230.61
784.19	230.56
784.51	230.55
784.83	230.53
785.16	230.48
785.48	230.42
785.80	230.38
786.12	230.36
786.45	230.32
786.77	230.30
787.09	230.23
787.42	230.11
787.74	230.07
788.06	230.07
788.38	230.01
788.71	229.96
789.03	229.93
789.35	229.93
789.67	229.88
789.99	229.91
790.32	229.82
790.64	229.81
790.96	229.85
791.28	229.75
791.61	229.70
791.93	229.65
792.25	229.61
792.57	229.61
792.89	229.56
793.21	229.53
793.54	229.44
793.86	229.41
794.18	229.39
794.50	229.31
794.82	229.25
795.14	229.25
795.47	229.21
795.79	229.21
796.11	229.14
796.43	229.10
796.75	229.04
797.07	229.01
797.39	228.95
797.71	228.83
798.04	228.82
798.36	228.77
798.68	228.74
799.00	228.70
799.32	228.63
799.64	228.62
799.96	228.58
800.28	228.58
800.60	228.54
800.92	228.50
801.24	228.49
801.56	228.46
801.89	228.43
802.21	228.38
802.53	228.33
802.85	228.30
803.17	228.31
803.49	228.25
803.81	228.24
804.13	228.21
804.45	228.19
804.77	228.16
805.09	228.15
805.41	228.12
805.73	228.08
806.05	228.02
806.37	227.98
806.69	227.95
807.01	227.92
807.33	227.90
807.65	227.87
807.97	227.90
808.28	227.87
808.60	227.82
808.92	227.80
809.24	227.79
809.56	227.74
809.88	227.68
810.20	227.68
810.52	227.65
810.84	227.62
811.16	227.56
811.48	227.53
811.80	227.56
812.12	227.54
812.43	227.57
812.75	227.59
813.07	227.53
813.39	227.50
813.71	227.45
814.03	227.43
814.35	227.45
814.67	227.38
814.98	227.36
815.30	227.36
815.62	227.34
815.94	227.27
816.26	227.30
816.58	227.27
816.89	227.26
817.21	227.21
817.53	227.21
817.85	227.23
818.17	227.20
818.48	227.13
818.80	227.11
819.12	227.06
819.44	227.01
819.76	227.01
820.07	227.01
820.39	227.01
820.71	227.00
821.03	226.93
821.34	226.90
821.66	226.88
821.98	226.88
822.30	226.85
822.61	226.88
822.93	226.82
823.25	226.83
823.57	226.81
823.88	226.83
824.20	226.83
824.52	226.85
824.83	226.85
825.15	226.81
825.47	226.81
825.79	226.81
826.10	226.80
826.42	226.83
826.74	226.83
827.05	226.79
827.37	226.77
827.69	226.78
828.00	226.75
828.32	226.75
828.64	226.75
828.95	226.78
829.27	226.78
829.58	226.78
829.90	226.77
830.22	226.75
830.53	226.75
830.85	226.68
831.17	226.62
831.48	226.58
831.80	226.61
832.11	226.57
832.43	226.54
832.75	226.54
833.06	226.55
833.38	226.53
833.69	226.52
834.01	226.54
834.32	226.52
834.64	226.54
834.96	226.56
835.27	226.53
835.59	226.49
835.90	226.46
836.22	226.46
836.53	226.42
836.85	226.41
837.16	226.47
837.48	226.49
837.79	226.56
838.11	226.59
838.42	226.59
838.74	226.60
839.05	226.63
839.37	226.60
839.68	226.52
840.00	226.50
840.31	226.50
840.63	226.45
840.94	226.45
841.26	226.44
841.57	226.40
841.88	226.38
842.20	226.34
842.51	226.35
842.83	226.34
843.14	226.43
843.46	226.42
843.77	226.37
844.08	226.34
844.40	226.26
844.71	226.23
845.03	226.19
845.34	226.18
845.65	226.14
845.97	226.12
846.28	226.12
846.60	226.09
846.91	226.08
847.22	226.09
847.54	226.10
847.85	226.10
848.16	226.11
848.48	226.11
848.79	226.16
849.10	226.14
849.42	226.13
849.73	226.06
850.04	226.04
850.36	225.99
850.67	226.01
850.98	226.01
851.30	226.01
851.61	226.01
851.92	226.01
852.23	226.05
852.55	226.06
852.86	226.07
853.17	226.10
853.49	226.11
853.80	226.11
854.11	226.10
854.42	226.10
854.74	226.07
855.05	226.06
855.36	226.00
855.67	226.03
855.99	226.02
856.30	226.12
856.61	226.16
856.92	226.15
857.23	226.14
857.55	226.13
857.86	226.13
858.17	226.16
858.48	226.12
858.79	226.07
859.11	226.06
859.42	226.08
859.73	226.07
860.04	226.07
860.35	226.05
860.66	226.02
860.98	226.02
861.29	226.06
861.60	226.08
861.91	226.10
862.22	226.05
862.53	226.05
862.84	225.92
863.16	225.90
863.47	225.92
863.78	225.92
864.09	225.93
864.40	225.94
864.71	225.95
865.02	225.98
865.33	225.97
865.64	225.95
865.95	225.94
866.27	225.97
866.58	225.95
866.89	225.97
867.20	225.97
867.51	225.94
867.82	225.90
868.13	225.89
868.44	225.86
868.75	225.86
869.06	225.86
869.37	225.85
869.68	225.83
869.99	225.79
870.30	225.77
870.61	225.80
870.92	225.76
871.23	225.70
871.54	225.70
871.85	225.74
872.16	225.76
872.47	225.73
872.78	225.69
873.09	225.69
873.40	225.65
873.71	225.65
874.02	225.64
874.33	225.59
874.64	225.58
874.95	225.61
875.26	225.61
875.56	225.60
875.87	225.62
876.18	225.60
876.49	225.72
876.80	225.72
877.11	225.67
877.42	225.70
877.73	225.72
878.04	225.73
878.35	225.71
878.66	225.71
878.96	225.72
879.27	225.72
879.58	225.74
879.89	225.77
880.20	225.78
880.51	225.80
880.82	225.84
881.12	225.84
881.43	225.80
881.74	225.79
882.05	225.80
882.36	225.79
882.67	225.81
882.97	225.71
883.28	225.69
883.59	225.72
883.90	225.70
884.21	225.72
884.51	225.69
884.82	225.68
885.13	225.67
885.44	225.66
885.74	225.66
886.05	225.65
886.36	225.64
886.67	225.62
886.98	225.68
887.28	225.67
887.59	225.66
887.90	225.71
888.20	225.70
888.51	225.68
888.82	225.68
889.13	225.68
889.43	225.76
889.74	225.76
890.05	225.75
890.35	225.78
890.66	225.76
890.97	225.72
891.28	225.68
891.58	225.67
891.89	225.67
892.20	225.65
892.50	225.60
892.81	225.57
893.12	225.57
893.42	225.49
893.73	225.50
894.04	225.53
894.34	225.50
894.65	225.50
894.95	225.51
895.26	225.49
895.57	225.55
895.87	225.44
896.18	225.48
896.48	225.49
896.79	225.49
897.10	225.48
897.40	225.52
897.71	225.56
898.01	225.57
898.32	225.59
898.63	225.56
898.93	225.61
899.24	225.64
899.54	225.60
899.85	225.62
900.15	225.64
900.46	225.60
900.76	225.61
901.07	225.58
901.38	225.55
901.68	225.58
901.99	225.51
902.29	225.53
902.60	225.49
902.90	225.45
903.21	225.43
903.51	225.40
903.82	225.43
904.12	225.41
904.43	225.40
904.73	225.42
905.03	225.42
905.34	225.49
905.64	225.49
905.95	225.50
906.25	225.48
906.56	225.43
906.86	225.44
907.17	225.43
907.47	225.45
907.77	225.44
908.08	225.42
908.38	225.40
908.69	225.43
908.99	225.47
909.30	225.49
909.60	225.49
909.90	225.53
910.21	225.49
910.51	225.50
910.81	225.52
911.12	225.49
911.42	225.51
911.73	225.42
912.03	225.40
912.33	225.43
912.64	225.45
912.94	225.43
913.24	225.44
913.55	225.45
913.85	225.47
914.15	225.49
914.46	225.50
914.76	225.50
915.06	225.49
915.37	225.45
915.67	225.44
915.97	225.43
916.27	225.40
916.58	225.40
916.88	225.36
917.18	225.37
917.49	225.46
917.79	225.45
918.09	225.48
918.39	225.50
918.70	225.51
919.00	225.49
919.30	225.57
919.60	225.56
919.91	225.53
920.21	225.54
920.51	225.51
920.81	225.50
921.12	225.52
921.42	225.48
921.72	225.51
922.02	225.55
922.32	225.54
922.63	225.56
922.93	225.59
923.23	225.61
923.53	225.58
923.83	225.53
924.13	225.54
924.44	225.52
924.74	225.54
925.04	225.58
925.34	225.59
925.64	225.54
925.94	225.55
926.24	225.60
926.55	225.59
926.85	225.60
927.15	225.59
927.45	225.60
927.75	225.62
928.05	225.63
928.35	225.59
928.65	225.63
928.95	225.62
929.26	225.59
929.56	225.61
929.86	225.61
930.16	225.60
930.46	225.60
930.76	225.57
931.06	225.55
931.36	225.48
931.66	225.51
931.96	225.52
932.26	225.52
932.56	225.48
932.86	225.49
933.16	225.49
933.46	225.51
933.76	225.53
934.06	225.53
934.36	225.55
934.66	225.54
934.96	225.53
935.26	225.53
935.56	225.55
935.86	225.52
936.16	225.49
936.46	225.46
936.76	225.48
937.06	225.50
937.36	225.50
937.66	225.50
937.96	225.46
938.26	225.43
938.56	225.43
938.86	225.41
939.16	225.46
939.46	225.48
939.76	225.45
940.06	225.42
940.35	225.42
940.65	225.36
940.95	225.36
941.25	225.32
941.55	225.32
941.85	225.33
942.15	225.36
942.45	225.39
942.75	225.39
943.04	225.35
943.34	225.36
943.64	225.34
943.94	225.32
944.24	225.33
944.54	225.33
944.84	225.30
945.13	225.26
945.43	225.22
945.73	225.21
946.03	225.21
946.33	225.21
946.62	225.19
946.92	225.18
947.22	225.17
947.52	225.21
947.82	225.21
948.11	225.17
948.41	225.15
948.71	225.15
949.01	225.14
949.31	225.17
949.60	225.17
949.90	225.18
950.20	225.20
950.50	225.22
950.79	225.23
951.09	225.23
951.39	225.25
951.69	225.22
951.98	225.25
952.28	225.26
952.58	225.25
952.87	225.24
953.17	225.27
953.47	225.29
953.76	225.26
954.06	225.25
954.36	225.24
954.66	225.23
954.95	225.22
955.25	225.23
955.55	225.20
955.84	225.18
956.14	225.16
956.44	225.17
956.73	225.12
957.03	225.13
957.32	225.14
957.62	225.16
957.92	225.19
958.21	225.17
958.51	225.29
958.81	225.30
959.10	225.32
959.40	225.35
959.69	225.37
959.99	225.41
960.29	225.40
960.58	225.41
960.88	225.47
961.17	225.48
961.47	225.50
961.76	225.53
962.06	225.55
962.36	225.54
962.65	225.56
962.95	225.57
963.24	225.57
963.54	225.58
963.83	225.55
964.13	225.52
964.42	225.52
964.72	225.44
965.01	225.44
965.31	225.43
965.60	225.42
965.90	225.47
966.19	225.46
966.49	225.47
966.78	225.48
967.08	225.47
967.37	225.47
967.67	225.48
967.96	225.46
968.26	225.46
968.55	225.50
968.85	225.50
969.14	225.51
969.43	225.50
969.73	225.49
970.02	225.52
970.32	225.56
970.61	225.56
970.91	225.54
971.20	225.52
971.49	225.49
971.79	225.46
972.08	225.37
972.38	225.39
972.67	225.38
972.96	225.41
973.26	225.37
973.55	225.38
973.85	225.33
974.14	225.35
974.43	225.37
974.73	225.34
975.02	225.32
975.31	225.33
975.61	225.34
975.90	225.34
976.19	225.35
976.49	225.33
976.78	225.32
977.07	225.29
977.37	225.29
977.66	225.30
977.95	225.29
978.24	225.31
978.54	225.30
978.83	225.28
979.12	225.21
979.42	225.21
979.71	225.19
980.00	225.22
980.29	225.21
980.59	225.16
980.88	225.17
981.17	225.16
981.46	225.14
981.76	225.12
982.05	225.15
982.34	225.12
982.63	225.13
982.93	225.12
983.22	225.16
983.51	225.17
983.80	225.20
984.09	225.23
984.39	225.21
984.68	225.20
984.97	225.23
985.26	225.27
985.55	225.23
985.85	225.22
986.14	225.21
986.43	225.21
986.72	225.22
987.01	225.20
987.30	225.18
987.59	225.18
987.89	225.18
988.18	225.14
988.47	225.13
988.76	225.13
989.05	225.09
989.34	225.05
989.63	225.07
989.92	225.06
990.22	225.04
990.51	225.05
990.80	225.03
991.09	224.99
991.38	224.98
991.67	225.00
991.96	224.97
992.25	224.94
992.54	224.91
992.83	224.93
993.12	224.89
993.41	224.94
993.70	224.96
993.99	224.98
994.28	224.96
994.58	224.96
994.87	224.93
995.16	224.96
995.45	224.95
995.74	224.91
996.03	224.92
996.32	224.90
996.61	224.92
996.90	224.95
997.19	224.98
997.48	224.97
997.77	224.97
998.06	225.00
998.34	225.01
998.63	225.00
998.92	224.98
999.21	225.02
999.50	224.98
999.79	224.96
1000.08	224.96
1000.37	225.01
1000.66	225.01
1000.95	225.08
1001.24	225.07
1001.53	225.11
1001.82	225.13
1002.11	225.08
1002.40	225.14
1002.68	225.15
1002.97	225.19
1003.26	225.17
1003.55	225.16
1003.84	225.19
1004.13	225.24
1004.42	225.25
1004.71	225.27
1004.99	225.29
1005.28	225.30
1005.57	225.33
1005.86	225.37
1006.15	225.36
1006.44	225.32
1006.72	225.34
1007.01	225.30
1007.30	225.34
1007.59	225.33
1007.88	225.30
1008.17	225.34
1008.45	225.31
1008.74	225.31
1009.03	225.31
1009.32	225.30
1009.60	225.32
1009.89	225.30
1010.18	225.24
1010.47	225.24
1010.76	225.22
1011.04	225.22
1011.33	225.23
1011.62	225.21
1011.91	225.21
1012.19	225.22
1012.48	225.22
1012.77	225.20
1013.05	225.24
1013.34	225.22
1013.63	225.21
1013.92	225.22
1014.20	225.22
1014.49	225.20
1014.78	225.19
1015.06	225.12
1015.35	225.16
1015.64	225.15
1015.92	225.15
1016.21	225.19
1016.50	225.18
1016.78	225.21
1017.07	225.24
1017.36	225.23
1017.64	225.25
1017.93	225.25
1018.22	225.24
1018.50	225.22
1018.79	225.20
1019.08	225.17
1019.36	225.18
1019.65	225.18
1019.93	225.21
1020.22	225.20
1020.51	225.26
1020.79	225.26
1021.08	224.97
1021.36	224.67
1021.65	224.67
1021.94	225.32
1022.22	225.32
1022.51	224.98
1022.79	225.68
1023.08	224.88
1023.36	226.43
1023.65	225.14
>>>>>End Processed Spectral Data<<<<<
