SpectraSuite Data File
++++++++++++++++++++++++++++++++++++
Date: Fri Feb 01 17:39:30 EST 2013
User: group
Dark Spectrum Present: No
Reference Spectrum Present: No
Number of Sampled Component Spectra: 1
Spectrometers: USB2E7196
Integration Time (usec): 35000 (USB2E7196)
Spectra Averaged: 100 (USB2E7196)
Boxcar Smoothing: 10 (USB2E7196)
Correct for Electrical Dark: No (USB2E7196)
Strobe/Lamp Enabled: No (USB2E7196)
Correct for Detector Non-linearity: No (USB2E7196)
Correct for Stray Light: No (USB2E7196)
Number of Pixels in Processed Spectrum: 2048
>>>>>Begin Processed Spectral Data<<<<<
339.09	0.00
339.48	213.12
339.86	214.49
340.24	215.51
340.63	216.49
341.01	220.36
341.39	219.38
341.78	220.96
342.16	222.19
342.54	222.61
342.93	211.24
343.31	221.90
343.69	222.42
344.07	222.86
344.46	223.29
344.84	223.71
345.22	223.88
345.60	224.12
345.99	224.33
346.37	224.47
346.75	224.57
347.13	224.63
347.52	224.68
347.90	224.73
348.28	224.75
348.66	224.79
349.05	224.75
349.43	224.76
349.81	224.80
350.19	224.83
350.57	224.93
350.96	224.99
351.34	225.09
351.72	225.18
352.10	225.29
352.48	225.32
352.87	225.39
353.25	225.50
353.63	225.62
354.01	225.68
354.39	225.77
354.77	225.85
355.15	226.00
355.54	226.08
355.92	226.12
356.30	226.22
356.68	226.38
357.06	226.50
357.44	226.58
357.82	226.67
358.20	226.77
358.58	226.81
358.97	226.91
359.35	226.99
359.73	227.07
360.11	227.13
360.49	227.23
360.87	227.26
361.25	227.30
361.63	227.35
362.01	227.39
362.39	227.40
362.77	227.47
363.15	227.47
363.53	227.52
363.91	227.56
364.29	227.59
364.67	227.51
365.05	227.54
365.43	227.56
365.81	227.54
366.19	227.58
366.57	227.61
366.95	227.60
367.33	227.58
367.71	227.55
368.09	227.58
368.47	227.56
368.85	227.55
369.23	227.57
369.61	227.54
369.99	227.54
370.37	227.53
370.75	227.51
371.13	227.49
371.51	227.41
371.89	227.37
372.27	227.34
372.65	227.30
373.03	227.24
373.41	227.19
373.78	227.17
374.16	227.06
374.54	226.97
374.92	226.88
375.30	226.83
375.68	226.78
376.06	226.71
376.44	226.62
376.82	226.55
377.19	226.45
377.57	226.35
377.95	226.28
378.33	226.20
378.71	226.06
379.09	225.96
379.47	225.90
379.84	225.83
380.22	225.74
380.60	225.68
380.98	225.59
381.36	225.51
381.73	225.39
382.11	225.34
382.49	225.30
382.87	225.24
383.25	225.18
383.62	225.21
384.00	225.10
384.38	225.09
384.76	225.07
385.13	225.07
385.51	225.00
385.89	224.93
386.27	224.85
386.64	224.84
387.02	224.79
387.40	224.75
387.78	224.70
388.15	224.68
388.53	224.64
388.91	224.59
389.29	224.56
389.66	224.55
390.04	224.50
390.42	224.51
390.79	224.51
391.17	224.49
391.55	224.40
391.92	224.40
392.30	224.39
392.68	224.38
393.05	224.36
393.43	224.39
393.81	224.40
394.18	224.43
394.56	224.43
394.94	224.47
395.31	224.48
395.69	224.53
396.06	224.55
396.44	224.57
396.82	224.62
397.19	224.74
397.57	224.75
397.95	224.81
398.32	224.84
398.70	224.88
399.07	224.94
399.45	224.97
399.82	225.04
400.20	225.09
400.58	225.10
400.95	225.16
401.33	225.25
401.70	225.42
402.08	225.51
402.45	225.61
402.83	225.74
403.20	225.84
403.58	225.92
403.95	226.03
404.33	226.20
404.71	226.28
405.08	226.45
405.46	226.62
405.83	226.74
406.21	226.87
406.58	227.04
406.96	227.21
407.33	227.40
407.70	227.60
408.08	227.86
408.45	228.13
408.83	228.35
409.20	228.56
409.58	228.71
409.95	228.94
410.33	229.21
410.70	229.44
411.08	229.75
411.45	230.08
411.82	230.43
412.20	230.75
412.57	231.20
412.95	231.49
413.32	231.90
413.69	232.36
414.07	232.84
414.44	233.30
414.82	233.83
415.19	234.44
415.56	235.00
415.94	235.56
416.31	236.22
416.68	236.87
417.06	237.63
417.43	238.37
417.81	239.24
418.18	240.09
418.55	240.99
418.93	241.92
419.30	242.87
419.67	243.84
420.04	244.88
420.42	245.93
420.79	247.23
421.16	248.42
421.54	249.68
421.91	250.96
422.28	252.35
422.66	253.74
423.03	255.09
423.40	256.51
423.77	258.00
424.15	259.50
424.52	261.08
424.89	262.78
425.26	264.42
425.64	265.92
426.01	267.61
426.38	269.37
426.75	271.16
427.13	273.00
427.50	274.95
427.87	276.93
428.24	278.94
428.61	280.81
428.99	282.89
429.36	285.10
429.73	287.28
430.10	289.42
430.47	291.62
430.85	293.91
431.22	296.32
431.59	298.83
431.96	301.26
432.33	303.90
432.70	306.45
433.08	309.45
433.45	312.26
433.82	315.03
434.19	318.10
434.56	321.11
434.93	323.93
435.30	326.69
435.68	329.79
436.05	332.77
436.42	335.71
436.79	338.47
437.16	341.37
437.53	344.41
437.90	347.40
438.27	350.35
438.64	353.33
439.01	356.08
439.38	358.51
439.75	360.80
440.13	363.42
440.50	365.91
440.87	367.91
441.24	369.99
441.61	372.33
441.98	373.92
442.35	375.82
442.72	377.78
443.09	379.70
443.46	380.75
443.83	381.43
444.20	381.99
444.57	382.84
444.94	383.19
445.31	383.58
445.68	383.98
446.05	384.02
446.42	383.66
446.79	383.20
447.16	382.79
447.53	382.45
447.90	381.27
448.27	380.04
448.64	378.36
449.01	377.13
449.37	375.07
449.74	373.07
450.11	370.69
450.48	368.17
450.85	365.51
451.22	363.27
451.59	361.16
451.96	359.12
452.33	356.37
452.70	353.87
453.07	350.84
453.43	347.72
453.80	344.78
454.17	341.94
454.54	339.24
454.91	336.33
455.28	333.51
455.65	330.89
456.02	328.28
456.38	325.98
456.75	323.20
457.12	320.79
457.49	318.43
457.86	316.12
458.23	314.08
458.59	311.90
458.96	309.63
459.33	307.64
459.70	305.66
460.07	304.04
460.43	302.17
460.80	300.39
461.17	298.86
461.54	297.28
461.91	295.73
462.27	294.21
462.64	292.85
463.01	291.38
463.38	290.02
463.74	288.57
464.11	287.34
464.48	286.22
464.85	285.00
465.21	284.05
465.58	283.04
465.95	281.89
466.32	280.91
466.68	279.95
467.05	278.94
467.42	277.98
467.78	277.01
468.15	276.08
468.52	275.41
468.88	274.51
469.25	273.72
469.62	273.02
469.98	272.32
470.35	271.62
470.72	271.00
471.08	270.26
471.45	269.70
471.82	269.11
472.18	268.51
472.55	268.05
472.92	267.48
473.28	267.02
473.65	266.54
474.02	266.10
474.38	265.75
474.75	265.43
475.11	265.02
475.48	264.73
475.85	264.49
476.21	264.22
476.58	264.01
476.94	263.83
477.31	263.72
477.67	263.52
478.04	263.44
478.41	263.37
478.77	263.46
479.14	263.39
479.50	263.41
479.87	263.44
480.23	263.50
480.60	263.59
480.96	263.68
481.33	263.86
481.69	264.02
482.06	264.21
482.42	264.41
482.79	264.69
483.15	264.98
483.52	265.38
483.88	265.74
484.25	266.14
484.61	266.54
484.98	266.97
485.34	267.52
485.71	268.08
486.07	268.66
486.44	269.19
486.80	269.88
487.17	270.56
487.53	271.38
487.90	272.25
488.26	273.19
488.62	274.15
488.99	275.14
489.35	276.20
489.72	277.31
490.08	278.49
490.44	279.72
490.81	281.06
491.17	282.38
491.54	283.84
491.90	285.36
492.26	287.02
492.63	288.74
492.99	290.51
493.36	292.39
493.72	294.44
494.08	296.52
494.45	298.74
494.81	301.11
495.17	303.53
495.54	306.06
495.90	308.71
496.26	311.47
496.63	314.40
496.99	317.48
497.35	320.70
497.72	324.08
498.08	327.58
498.44	331.23
498.80	335.16
499.17	339.20
499.53	343.37
499.89	347.69
500.26	352.12
500.62	356.74
500.98	361.64
501.34	366.65
501.71	371.91
502.07	377.34
502.43	382.86
502.79	388.62
503.16	394.61
503.52	400.79
503.88	407.15
504.24	413.68
504.60	420.49
504.97	427.53
505.33	434.76
505.69	442.35
506.05	450.01
506.41	457.72
506.78	465.70
507.14	473.97
507.50	482.58
507.86	491.46
508.22	500.45
508.59	509.50
508.95	518.92
509.31	528.63
509.67	538.53
510.03	548.66
510.39	559.01
510.75	569.60
511.12	580.32
511.48	591.40
511.84	602.71
512.20	613.96
512.56	625.70
512.92	637.63
513.28	649.74
513.64	661.93
514.00	674.39
514.37	687.15
514.73	699.96
515.09	712.69
515.45	725.70
515.81	739.08
516.17	752.75
516.53	766.62
516.89	780.51
517.25	794.34
517.61	808.58
517.97	822.75
518.33	836.88
518.69	851.38
519.05	866.02
519.41	880.84
519.77	896.02
520.13	911.08
520.49	926.17
520.85	941.22
521.21	956.59
521.57	972.51
521.93	987.91
522.29	1003.87
522.65	1019.79
523.01	1035.61
523.37	1051.36
523.73	1067.25
524.09	1083.04
524.45	1098.89
524.81	1115.22
525.17	1131.48
525.53	1147.96
525.89	1164.45
526.25	1180.91
526.61	1196.96
526.97	1213.29
527.33	1229.46
527.68	1245.81
528.04	1261.91
528.40	1278.08
528.76	1294.84
529.12	1311.08
529.48	1327.67
529.84	1343.38
530.20	1359.54
530.56	1376.18
530.91	1393.17
531.27	1409.62
531.63	1425.77
531.99	1442.07
532.35	1457.91
532.71	1473.62
533.07	1489.65
533.42	1505.31
533.78	1521.16
534.14	1537.16
534.50	1552.30
534.86	1567.90
535.21	1582.84
535.57	1598.49
535.93	1613.75
536.29	1628.32
536.65	1643.21
537.00	1657.63
537.36	1672.85
537.72	1687.37
538.08	1701.74
538.44	1715.39
538.79	1729.16
539.15	1742.57
539.51	1756.15
539.87	1770.34
540.22	1783.92
540.58	1797.53
540.94	1810.76
541.29	1823.45
541.65	1836.14
542.01	1849.36
542.37	1861.75
542.72	1874.20
543.08	1886.19
543.44	1898.73
543.79	1910.23
544.15	1921.34
544.51	1933.16
544.87	1944.17
545.22	1955.25
545.58	1965.63
545.94	1975.70
546.29	1985.87
546.65	1996.12
547.01	2005.85
547.36	2014.77
547.72	2023.64
548.07	2032.14
548.43	2040.59
548.79	2048.73
549.14	2056.70
549.50	2064.24
549.86	2072.11
550.21	2079.76
550.57	2087.27
550.92	2094.20
551.28	2101.54
551.64	2108.81
551.99	2115.65
552.35	2122.31
552.70	2128.68
553.06	2135.15
553.41	2141.91
553.77	2148.17
554.13	2154.52
554.48	2160.81
554.84	2166.89
555.19	2172.41
555.55	2177.85
555.90	2182.83
556.26	2188.45
556.61	2193.54
556.97	2198.58
557.32	2203.37
557.68	2208.05
558.03	2212.59
558.39	2216.76
558.74	2221.68
559.10	2226.08
559.45	2230.10
559.81	2234.75
560.16	2239.06
560.52	2242.71
560.87	2246.46
561.23	2249.61
561.58	2252.91
561.94	2256.08
562.29	2258.69
562.64	2262.09
563.00	2264.86
563.35	2268.85
563.71	2272.52
564.06	2275.88
564.42	2279.19
564.77	2282.31
565.12	2285.11
565.48	2287.71
565.83	2290.22
566.19	2292.43
566.54	2293.78
566.89	2295.73
567.25	2296.91
567.60	2298.55
567.96	2300.80
568.31	2302.26
568.66	2303.87
569.02	2305.06
569.37	2305.86
569.72	2307.18
570.08	2307.72
570.43	2308.29
570.78	2308.28
571.14	2307.21
571.49	2306.58
571.84	2306.43
572.20	2305.69
572.55	2305.07
572.90	2303.75
573.26	2302.75
573.61	2301.05
573.96	2300.04
574.31	2297.31
574.67	2294.74
575.02	2291.70
575.37	2288.48
575.72	2285.06
576.08	2281.92
576.43	2278.76
576.78	2275.67
577.13	2272.85
577.49	2269.97
577.84	2266.96
578.19	2263.50
578.54	2260.28
578.90	2256.60
579.25	2251.57
579.60	2247.04
579.95	2242.48
580.30	2237.85
580.66	2232.91
581.01	2228.22
581.36	2223.33
581.71	2219.54
582.06	2215.56
582.42	2211.42
582.77	2206.67
583.12	2202.44
583.47	2198.30
583.82	2193.89
584.17	2188.78
584.53	2183.72
584.88	2178.52
585.23	2173.28
585.58	2168.00
585.93	2162.69
586.28	2157.74
586.63	2153.04
586.98	2148.08
587.34	2143.33
587.69	2138.66
588.04	2133.82
588.39	2128.40
588.74	2122.02
589.09	2116.05
589.44	2109.47
589.79	2103.34
590.14	2097.85
590.49	2091.38
590.84	2084.88
591.19	2078.90
591.54	2072.60
591.89	2065.46
592.25	2058.90
592.60	2051.65
592.95	2044.38
593.30	2037.13
593.65	2029.89
594.00	2022.79
594.35	2015.73
594.70	2007.68
595.05	2000.78
595.40	1993.37
595.75	1986.10
596.10	1980.27
596.45	1973.63
596.80	1967.55
597.15	1961.28
597.50	1954.57
597.85	1948.14
598.19	1941.71
598.54	1935.10
598.89	1928.52
599.24	1922.58
599.59	1916.23
599.94	1910.09
600.29	1903.66
600.64	1897.03
600.99	1889.69
601.34	1882.98
601.69	1875.91
602.04	1869.22
602.39	1861.65
602.74	1854.89
603.08	1848.29
603.43	1841.35
603.78	1834.21
604.13	1826.73
604.48	1819.51
604.83	1812.56
605.18	1805.85
605.53	1798.08
605.87	1789.80
606.22	1782.44
606.57	1774.34
606.92	1766.48
607.27	1759.32
607.62	1752.51
607.96	1745.30
608.31	1738.80
608.66	1731.27
609.01	1723.81
609.36	1716.37
609.70	1708.43
610.05	1700.42
610.40	1692.51
610.75	1684.30
611.10	1676.41
611.44	1667.95
611.79	1659.75
612.14	1650.86
612.49	1641.50
612.83	1632.74
613.18	1624.32
613.53	1616.04
613.88	1607.38
614.22	1598.92
614.57	1590.03
614.92	1581.77
615.27	1574.33
615.61	1565.88
615.96	1557.64
616.31	1549.62
616.65	1541.91
617.00	1534.11
617.35	1526.17
617.70	1517.76
618.04	1509.10
618.39	1500.64
618.74	1492.98
619.08	1484.43
619.43	1476.71
619.78	1469.47
620.12	1462.38
620.47	1454.72
620.82	1446.38
621.16	1438.66
621.51	1430.89
621.85	1422.96
622.20	1414.24
622.55	1405.54
622.89	1397.38
623.24	1389.39
623.59	1381.60
623.93	1373.90
624.28	1366.48
624.62	1358.88
624.97	1351.54
625.32	1344.42
625.66	1337.27
626.01	1329.89
626.35	1322.55
626.70	1314.56
627.04	1306.79
627.39	1298.62
627.73	1291.02
628.08	1283.97
628.43	1276.72
628.77	1269.36
629.12	1261.85
629.46	1254.51
629.81	1246.69
630.15	1239.15
630.50	1231.73
630.84	1223.67
631.19	1215.54
631.53	1207.88
631.88	1200.05
632.22	1192.23
632.57	1184.77
632.91	1176.96
633.26	1169.32
633.60	1161.65
633.95	1154.23
634.29	1146.84
634.64	1139.88
634.98	1132.52
635.32	1125.23
635.67	1118.38
636.01	1111.54
636.36	1104.63
636.70	1097.98
637.05	1091.32
637.39	1084.76
637.73	1078.13
638.08	1072.12
638.42	1066.04
638.77	1059.54
639.11	1052.96
639.45	1046.46
639.80	1039.75
640.14	1033.36
640.49	1026.81
640.83	1020.37
641.17	1014.14
641.52	1007.82
641.86	1001.40
642.20	995.43
642.55	988.95
642.89	982.49
643.23	975.70
643.58	969.71
643.92	963.38
644.26	957.48
644.61	951.31
644.95	945.14
645.29	938.49
645.64	931.66
645.98	925.08
646.32	918.89
646.66	912.74
647.01	906.81
647.35	900.92
647.69	894.90
648.04	889.29
648.38	883.42
648.72	877.41
649.06	871.32
649.41	865.17
649.75	859.16
650.09	853.03
650.43	847.19
650.78	840.93
651.12	834.87
651.46	828.91
651.80	823.23
652.14	817.76
652.49	812.34
652.83	807.05
653.17	801.42
653.51	795.80
653.85	790.29
654.20	784.62
654.54	778.60
654.88	772.76
655.22	766.68
655.56	760.80
655.90	755.07
656.25	749.68
656.59	744.32
656.93	739.10
657.27	733.93
657.61	728.39
657.95	723.21
658.29	718.09
658.64	712.63
658.98	707.15
659.32	701.50
659.66	696.08
660.00	690.77
660.34	685.73
660.68	680.66
661.02	675.59
661.36	670.81
661.70	666.26
662.05	661.84
662.39	657.51
662.73	652.99
663.07	648.55
663.41	644.04
663.75	639.56
664.09	634.89
664.43	630.35
664.77	626.28
665.11	622.05
665.45	617.80
665.79	613.80
666.13	609.67
666.47	605.54
666.81	601.38
667.15	597.09
667.49	593.07
667.83	589.18
668.17	585.12
668.51	581.02
668.85	576.83
669.19	572.84
669.53	568.92
669.87	565.10
670.21	561.36
670.55	557.67
670.89	554.14
671.23	550.75
671.57	547.21
671.91	543.59
672.25	539.95
672.58	536.39
672.92	532.87
673.26	529.61
673.60	526.39
673.94	523.23
674.28	520.30
674.62	517.34
674.96	514.24
675.30	511.37
675.64	508.41
675.97	505.57
676.31	502.70
676.65	499.72
676.99	496.90
677.33	494.08
677.67	491.20
678.01	488.11
678.34	485.11
678.68	482.16
679.02	479.31
679.36	476.48
679.70	473.74
680.04	470.95
680.37	468.04
680.71	465.21
681.05	462.53
681.39	459.78
681.73	457.04
682.06	454.47
682.40	451.83
682.74	449.27
683.08	446.69
683.42	444.05
683.75	441.54
684.09	438.93
684.43	436.38
684.77	433.89
685.10	431.49
685.44	429.07
685.78	426.74
686.12	424.38
686.45	422.08
686.79	419.77
687.13	417.48
687.46	415.27
687.80	413.02
688.14	410.71
688.48	408.55
688.81	406.32
689.15	404.05
689.49	401.85
689.82	399.65
690.16	397.45
690.50	395.41
690.83	393.41
691.17	391.37
691.51	389.39
691.84	387.48
692.18	385.51
692.52	383.51
692.85	381.52
693.19	379.66
693.52	377.76
693.86	375.80
694.20	374.00
694.53	372.19
694.87	370.32
695.21	368.50
695.54	366.61
695.88	364.79
696.21	363.08
696.55	361.36
696.88	359.66
697.22	357.98
697.56	356.32
697.89	354.58
698.23	352.93
698.56	351.30
698.90	349.67
699.23	348.02
699.57	346.45
699.90	344.88
700.24	343.24
700.58	341.69
700.91	340.23
701.25	338.74
701.58	337.28
701.92	335.89
702.25	334.48
702.59	333.12
702.92	331.82
703.26	330.44
703.59	329.11
703.93	327.88
704.26	326.64
704.60	325.30
704.93	324.08
705.26	322.80
705.60	321.53
705.93	320.33
706.27	319.24
706.60	318.11
706.94	317.00
707.27	315.86
707.61	314.78
707.94	313.69
708.27	312.57
708.61	311.49
708.94	310.45
709.28	309.44
709.61	308.39
709.94	307.33
710.28	306.30
710.61	305.25
710.95	304.14
711.28	303.17
711.61	302.25
711.95	301.29
712.28	300.38
712.61	299.42
712.95	298.46
713.28	297.54
713.61	296.63
713.95	295.71
714.28	294.82
714.61	293.87
714.95	293.01
715.28	292.15
715.61	291.27
715.95	290.38
716.28	289.51
716.61	288.70
716.95	287.91
717.28	287.14
717.61	286.41
717.94	285.66
718.28	284.83
718.61	284.06
718.94	283.29
719.27	282.56
719.61	281.88
719.94	281.18
720.27	280.42
720.60	279.73
720.94	279.12
721.27	278.55
721.60	278.01
721.93	277.39
722.27	276.81
722.60	276.21
722.93	275.63
723.26	275.08
723.59	274.51
723.93	273.91
724.26	273.31
724.59	272.68
724.92	272.11
725.25	271.61
725.59	271.06
725.92	270.58
726.25	270.02
726.58	269.49
726.91	268.98
727.24	268.51
727.57	268.02
727.91	267.47
728.24	266.96
728.57	266.44
728.90	265.97
729.23	265.42
729.56	264.98
729.89	264.49
730.22	263.98
730.55	263.48
730.89	263.07
731.22	262.61
731.55	262.19
731.88	261.75
732.21	261.29
732.54	260.89
732.87	260.41
733.20	260.02
733.53	259.62
733.86	259.22
734.19	258.82
734.52	258.45
734.85	258.15
735.18	257.73
735.51	257.40
735.84	257.00
736.17	256.66
736.50	256.24
736.83	256.03
737.16	255.69
737.49	255.36
737.82	254.97
738.15	254.64
738.48	254.26
738.81	253.92
739.14	253.62
739.47	253.28
739.80	253.01
740.13	252.67
740.46	252.36
740.79	252.05
741.12	251.70
741.45	251.35
741.78	250.98
742.11	250.68
742.44	250.28
742.77	249.98
743.10	249.64
743.43	249.35
743.75	248.92
744.08	248.76
744.41	248.49
744.74	248.20
745.07	247.92
745.40	247.69
745.73	247.45
746.06	247.15
746.39	246.89
746.71	246.60
747.04	246.34
747.37	246.04
747.70	245.76
748.03	245.50
748.36	245.26
748.68	245.06
749.01	244.79
749.34	244.58
749.67	244.36
750.00	244.15
750.33	243.98
750.65	243.82
750.98	243.47
751.31	243.22
751.64	243.03
751.97	242.84
752.29	242.58
752.62	242.31
752.95	242.10
753.28	241.86
753.60	241.62
753.93	241.45
754.26	241.27
754.59	241.06
754.91	240.88
755.24	240.68
755.57	240.44
755.90	240.25
756.22	240.04
756.55	239.84
756.88	239.61
757.20	239.37
757.53	239.14
757.86	238.95
758.19	238.79
758.51	238.59
758.84	238.40
759.17	238.24
759.49	238.12
759.82	237.98
760.15	237.84
760.47	237.67
760.80	237.46
761.13	237.34
761.45	237.16
761.78	236.98
762.11	236.80
762.43	236.65
762.76	236.48
763.08	236.36
763.41	236.22
763.74	236.08
764.06	235.91
764.39	235.77
764.71	235.63
765.04	235.46
765.37	235.30
765.69	235.18
766.02	235.05
766.34	234.91
766.67	234.72
767.00	234.59
767.32	234.54
767.65	234.52
767.97	234.36
768.30	234.26
768.62	234.17
768.95	234.07
769.27	233.92
769.60	233.83
769.92	233.70
770.25	233.56
770.57	233.44
770.90	233.32
771.22	233.19
771.55	233.10
771.87	233.00
772.20	232.92
772.52	232.86
772.85	232.86
773.17	232.79
773.50	232.69
773.82	232.59
774.15	232.46
774.47	232.29
774.80	232.17
775.12	232.09
775.45	231.98
775.77	231.90
776.09	231.83
776.42	231.76
776.74	231.73
777.07	231.65
777.39	231.62
777.72	231.57
778.04	231.51
778.36	231.42
778.69	231.35
779.01	231.28
779.33	231.14
779.66	230.96
779.98	230.90
780.31	230.84
780.63	230.79
780.95	230.71
781.28	230.66
781.60	230.60
781.92	230.54
782.25	230.50
782.57	230.45
782.89	230.40
783.22	230.37
783.54	230.26
783.86	230.20
784.19	230.10
784.51	230.08
784.83	230.04
785.16	230.01
785.48	229.97
785.80	229.92
786.12	229.93
786.45	229.89
786.77	229.83
787.09	229.81
787.42	229.79
787.74	229.76
788.06	229.74
788.38	229.69
788.71	229.65
789.03	229.63
789.35	229.58
789.67	229.51
789.99	229.45
790.32	229.41
790.64	229.41
790.96	229.46
791.28	229.40
791.61	229.37
791.93	229.35
792.25	229.28
792.57	229.34
792.89	229.25
793.21	229.23
793.54	229.17
793.86	229.11
794.18	229.07
794.50	229.01
794.82	228.92
795.14	228.91
795.47	228.88
795.79	228.79
796.11	228.77
796.43	228.76
796.75	228.69
797.07	228.71
797.39	228.65
797.71	228.56
798.04	228.52
798.36	228.48
798.68	228.43
799.00	228.43
799.32	228.31
799.64	228.29
799.96	228.25
800.28	228.20
800.60	228.16
800.92	228.11
801.24	228.06
801.56	228.06
801.89	228.03
802.21	228.03
802.53	228.02
802.85	228.00
803.17	227.99
803.49	227.95
803.81	227.88
804.13	227.85
804.45	227.76
804.77	227.76
805.09	227.70
805.41	227.66
805.73	227.62
806.05	227.56
806.37	227.54
806.69	227.50
807.01	227.50
807.33	227.48
807.65	227.42
807.97	227.46
808.28	227.40
808.60	227.35
808.92	227.27
809.24	227.29
809.56	227.25
809.88	227.20
810.20	227.17
810.52	227.17
810.84	227.12
811.16	227.09
811.48	227.02
811.80	227.05
812.12	227.03
812.43	227.02
812.75	227.03
813.07	226.96
813.39	226.92
813.71	226.89
814.03	226.84
814.35	226.82
814.67	226.76
814.98	226.73
815.30	226.72
815.62	226.68
815.94	226.64
816.26	226.67
816.58	226.60
816.89	226.60
817.21	226.54
817.53	226.55
817.85	226.54
818.17	226.55
818.48	226.48
818.80	226.52
819.12	226.46
819.44	226.42
819.76	226.39
820.07	226.38
820.39	226.35
820.71	226.34
821.03	226.34
821.34	226.31
821.66	226.36
821.98	226.39
822.30	226.37
822.61	226.40
822.93	226.35
823.25	226.36
823.57	226.34
823.88	226.38
824.20	226.36
824.52	226.36
824.83	226.37
825.15	226.38
825.47	226.33
825.79	226.35
826.10	226.35
826.42	226.36
826.74	226.35
827.05	226.36
827.37	226.34
827.69	226.33
828.00	226.34
828.32	226.32
828.64	226.25
828.95	226.30
829.27	226.26
829.58	226.24
829.90	226.23
830.22	226.26
830.53	226.20
830.85	226.18
831.17	226.18
831.48	226.14
831.80	226.12
832.11	226.10
832.43	226.06
832.75	226.06
833.06	226.11
833.38	226.09
833.69	226.11
834.01	226.13
834.32	226.11
834.64	226.09
834.96	226.06
835.27	226.09
835.59	226.08
835.90	226.07
836.22	226.08
836.53	226.10
836.85	226.06
837.16	226.15
837.48	226.16
837.79	226.17
838.11	226.20
838.42	226.18
838.74	226.21
839.05	226.18
839.37	226.17
839.68	226.08
840.00	226.05
840.31	226.02
840.63	225.99
840.94	225.97
841.26	225.94
841.57	225.90
841.88	225.90
842.20	225.87
842.51	225.81
842.83	225.78
843.14	225.84
843.46	225.83
843.77	225.77
844.08	225.75
844.40	225.71
844.71	225.66
845.03	225.65
845.34	225.61
845.65	225.61
845.97	225.62
846.28	225.65
846.60	225.67
846.91	225.65
847.22	225.66
847.54	225.66
847.85	225.66
848.16	225.66
848.48	225.60
848.79	225.61
849.10	225.63
849.42	225.62
849.73	225.52
850.04	225.53
850.36	225.49
850.67	225.50
850.98	225.49
851.30	225.51
851.61	225.50
851.92	225.48
852.23	225.51
852.55	225.49
852.86	225.49
853.17	225.47
853.49	225.47
853.80	225.49
854.11	225.50
854.42	225.54
854.74	225.53
855.05	225.53
855.36	225.48
855.67	225.46
855.99	225.45
856.30	225.58
856.61	225.56
856.92	225.54
857.23	225.55
857.55	225.52
857.86	225.52
858.17	225.55
858.48	225.53
858.79	225.49
859.11	225.51
859.42	225.47
859.73	225.49
860.04	225.50
860.35	225.45
860.66	225.40
860.98	225.39
861.29	225.43
861.60	225.43
861.91	225.47
862.22	225.48
862.53	225.49
862.84	225.36
863.16	225.37
863.47	225.36
863.78	225.36
864.09	225.40
864.40	225.39
864.71	225.36
865.02	225.38
865.33	225.37
865.64	225.38
865.95	225.39
866.27	225.44
866.58	225.44
866.89	225.45
867.20	225.44
867.51	225.41
867.82	225.37
868.13	225.40
868.44	225.40
868.75	225.43
869.06	225.45
869.37	225.46
869.68	225.46
869.99	225.47
870.30	225.47
870.61	225.49
870.92	225.49
871.23	225.49
871.54	225.51
871.85	225.55
872.16	225.53
872.47	225.52
872.78	225.45
873.09	225.48
873.40	225.46
873.71	225.50
874.02	225.48
874.33	225.46
874.64	225.46
874.95	225.45
875.26	225.41
875.56	225.39
875.87	225.36
876.18	225.32
876.49	225.41
876.80	225.40
877.11	225.36
877.42	225.35
877.73	225.35
878.04	225.34
878.35	225.34
878.66	225.32
878.96	225.30
879.27	225.27
879.58	225.23
879.89	225.26
880.20	225.27
880.51	225.25
880.82	225.28
881.12	225.24
881.43	225.21
881.74	225.17
882.05	225.16
882.36	225.18
882.67	225.22
882.97	225.11
883.28	225.09
883.59	225.04
883.90	225.05
884.21	225.08
884.51	225.02
884.82	224.97
885.13	224.94
885.44	224.93
885.74	224.93
886.05	224.92
886.36	224.92
886.67	224.91
886.98	224.94
887.28	224.92
887.59	224.92
887.90	224.91
888.20	224.91
888.51	224.94
888.82	224.88
889.13	224.87
889.43	224.95
889.74	224.93
890.05	224.95
890.35	224.95
890.66	224.93
890.97	224.93
891.28	224.94
891.58	224.98
891.89	224.98
892.20	224.97
892.50	224.95
892.81	224.90
893.12	224.88
893.42	224.86
893.73	224.87
894.04	224.91
894.34	224.95
894.65	224.96
894.95	224.93
895.26	224.97
895.57	224.99
895.87	224.89
896.18	224.94
896.48	224.96
896.79	224.95
897.10	224.96
897.40	225.02
897.71	225.03
898.01	225.01
898.32	225.02
898.63	225.04
898.93	225.07
899.24	225.08
899.54	225.09
899.85	225.06
900.15	225.05
900.46	225.00
900.76	224.98
901.07	224.98
901.38	224.99
901.68	225.01
901.99	224.96
902.29	225.00
902.60	224.99
902.90	224.95
903.21	224.92
903.51	224.93
903.82	224.92
904.12	224.90
904.43	224.90
904.73	224.90
905.03	224.93
905.34	225.03
905.64	225.06
905.95	225.06
906.25	225.10
906.56	225.09
906.86	225.08
907.17	225.07
907.47	225.07
907.77	225.04
908.08	225.01
908.38	225.03
908.69	225.03
908.99	225.03
909.30	225.07
909.60	225.08
909.90	225.10
910.21	225.07
910.51	225.08
910.81	225.09
911.12	225.08
911.42	225.03
911.73	224.93
912.03	224.92
912.33	224.93
912.64	224.92
912.94	224.91
913.24	224.95
913.55	224.92
913.85	224.92
914.15	224.95
914.46	224.96
914.76	224.95
915.06	224.93
915.37	224.91
915.67	224.90
915.97	224.89
916.27	224.83
916.58	224.82
916.88	224.80
917.18	224.79
917.49	224.85
917.79	224.86
918.09	224.81
918.39	224.81
918.70	224.77
919.00	224.77
919.30	224.81
919.60	224.81
919.91	224.82
920.21	224.81
920.51	224.77
920.81	224.74
921.12	224.74
921.42	224.76
921.72	224.76
922.02	224.74
922.32	224.75
922.63	224.73
922.93	224.78
923.23	224.79
923.53	224.79
923.83	224.73
924.13	224.73
924.44	224.77
924.74	224.80
925.04	224.83
925.34	224.84
925.64	224.79
925.94	224.77
926.24	224.81
926.55	224.80
926.85	224.81
927.15	224.82
927.45	224.80
927.75	224.82
928.05	224.80
928.35	224.80
928.65	224.79
928.95	224.85
929.26	224.80
929.56	224.82
929.86	224.82
930.16	224.79
930.46	224.78
930.76	224.77
931.06	224.73
931.36	224.69
931.66	224.68
931.96	224.71
932.26	224.70
932.56	224.66
932.86	224.66
933.16	224.65
933.46	224.63
933.76	224.62
934.06	224.59
934.36	224.63
934.66	224.63
934.96	224.65
935.26	224.63
935.56	224.65
935.86	224.62
936.16	224.62
936.46	224.63
936.76	224.64
937.06	224.63
937.36	224.61
937.66	224.63
937.96	224.62
938.26	224.59
938.56	224.59
938.86	224.61
939.16	224.63
939.46	224.67
939.76	224.65
940.06	224.67
940.35	224.66
940.65	224.60
940.95	224.61
941.25	224.58
941.55	224.56
941.85	224.56
942.15	224.58
942.45	224.59
942.75	224.56
943.04	224.58
943.34	224.60
943.64	224.60
943.94	224.57
944.24	224.58
944.54	224.61
944.84	224.62
945.13	224.62
945.43	224.62
945.73	224.61
946.03	224.61
946.33	224.61
946.62	224.61
946.92	224.62
947.22	224.62
947.52	224.63
947.82	224.67
948.11	224.65
948.41	224.63
948.71	224.62
949.01	224.66
949.31	224.66
949.60	224.65
949.90	224.67
950.20	224.71
950.50	224.72
950.79	224.68
951.09	224.70
951.39	224.67
951.69	224.65
951.98	224.66
952.28	224.69
952.58	224.69
952.87	224.68
953.17	224.71
953.47	224.74
953.76	224.76
954.06	224.72
954.36	224.72
954.66	224.73
954.95	224.77
955.25	224.79
955.55	224.76
955.84	224.77
956.14	224.80
956.44	224.78
956.73	224.78
957.03	224.80
957.32	224.80
957.62	224.78
957.92	224.80
958.21	224.81
958.51	224.91
958.81	224.94
959.10	224.95
959.40	224.97
959.69	224.97
959.99	224.97
960.29	224.96
960.58	224.96
960.88	224.98
961.17	224.96
961.47	224.93
961.76	224.99
962.06	225.00
962.36	224.96
962.65	224.97
962.95	224.95
963.24	224.94
963.54	224.92
963.83	224.96
964.13	224.96
964.42	224.93
964.72	224.83
965.01	224.82
965.31	224.82
965.60	224.79
965.90	224.85
966.19	224.83
966.49	224.85
966.78	224.85
967.08	224.83
967.37	224.82
967.67	224.81
967.96	224.75
968.26	224.74
968.55	224.75
968.85	224.73
969.14	224.72
969.43	224.73
969.73	224.70
970.02	224.70
970.32	224.66
970.61	224.65
970.91	224.63
971.20	224.62
971.49	224.60
971.79	224.59
972.08	224.52
972.38	224.53
972.67	224.54
972.96	224.54
973.26	224.54
973.55	224.57
973.85	224.56
974.14	224.58
974.43	224.57
974.73	224.56
975.02	224.52
975.31	224.54
975.61	224.53
975.90	224.52
976.19	224.50
976.49	224.52
976.78	224.54
977.07	224.55
977.37	224.55
977.66	224.53
977.95	224.52
978.24	224.51
978.54	224.53
978.83	224.50
979.12	224.48
979.42	224.50
979.71	224.50
980.00	224.49
980.29	224.52
980.59	224.50
980.88	224.54
981.17	224.58
981.46	224.56
981.76	224.58
982.05	224.66
982.34	224.68
982.63	224.63
982.93	224.61
983.22	224.64
983.51	224.65
983.80	224.71
984.09	224.74
984.39	224.73
984.68	224.73
984.97	224.75
985.26	224.74
985.55	224.73
985.85	224.70
986.14	224.74
986.43	224.74
986.72	224.75
987.01	224.74
987.30	224.76
987.59	224.75
987.89	224.75
988.18	224.69
988.47	224.69
988.76	224.73
989.05	224.77
989.34	224.78
989.63	224.80
989.92	224.77
990.22	224.76
990.51	224.74
990.80	224.75
991.09	224.74
991.38	224.78
991.67	224.75
991.96	224.76
992.25	224.78
992.54	224.74
992.83	224.74
993.12	224.72
993.41	224.74
993.70	224.79
993.99	224.81
994.28	224.85
994.58	224.85
994.87	224.83
995.16	224.80
995.45	224.78
995.74	224.74
996.03	224.73
996.32	224.75
996.61	224.82
996.90	224.80
997.19	224.80
997.48	224.79
997.77	224.81
998.06	224.79
998.34	224.79
998.63	224.80
998.92	224.79
999.21	224.79
999.50	224.76
999.79	224.72
1000.08	224.73
1000.37	224.70
1000.66	224.71
1000.95	224.75
1001.24	224.76
1001.53	224.79
1001.82	224.81
1002.11	224.78
1002.40	224.77
1002.68	224.74
1002.97	224.82
1003.26	224.81
1003.55	224.84
1003.84	224.84
1004.13	224.91
1004.42	224.90
1004.71	224.90
1004.99	224.93
1005.28	224.96
1005.57	224.94
1005.86	224.95
1006.15	224.90
1006.44	224.89
1006.72	224.89
1007.01	224.85
1007.30	224.87
1007.59	224.85
1007.88	224.84
1008.17	224.90
1008.45	224.88
1008.74	224.87
1009.03	224.82
1009.32	224.84
1009.60	224.83
1009.89	224.80
1010.18	224.73
1010.47	224.74
1010.76	224.76
1011.04	224.78
1011.33	224.78
1011.62	224.81
1011.91	224.81
1012.19	224.85
1012.48	224.85
1012.77	224.86
1013.05	224.93
1013.34	224.94
1013.63	224.93
1013.92	224.96
1014.20	224.92
1014.49	224.93
1014.78	224.92
1015.06	224.88
1015.35	224.86
1015.64	224.83
1015.92	224.88
1016.21	224.90
1016.50	224.86
1016.78	224.84
1017.07	224.84
1017.36	224.84
1017.64	224.81
1017.93	224.85
1018.22	224.81
1018.50	224.83
1018.79	224.82
1019.08	224.79
1019.36	224.76
1019.65	224.76
1019.93	224.78
1020.22	224.79
1020.51	224.84
1020.79	224.83
1021.08	224.56
1021.36	224.72
1021.65	224.81
1021.94	225.08
1022.22	224.76
1022.51	224.61
1022.79	225.49
1023.08	225.06
1023.36	225.51
1023.65	224.41
>>>>>End Processed Spectral Data<<<<<
