SpectraSuite Data File
++++++++++++++++++++++++++++++++++++
Date: Fri Feb 01 16:32:08 EST 2013
User: group
Dark Spectrum Present: No
Reference Spectrum Present: No
Number of Sampled Component Spectra: 1
Spectrometers: USB2E7196
Integration Time (usec): 35000 (USB2E7196)
Spectra Averaged: 100 (USB2E7196)
Boxcar Smoothing: 10 (USB2E7196)
Correct for Electrical Dark: No (USB2E7196)
Strobe/Lamp Enabled: No (USB2E7196)
Correct for Detector Non-linearity: No (USB2E7196)
Correct for Stray Light: No (USB2E7196)
Number of Pixels in Processed Spectrum: 2048
>>>>>Begin Processed Spectral Data<<<<<
339.09	0.00
339.48	213.84
339.86	215.36
340.24	216.75
340.63	218.06
341.01	220.86
341.39	220.81
341.78	221.73
342.16	222.85
342.54	224.26
342.93	212.31
343.31	223.03
343.69	223.58
344.07	224.04
344.46	224.42
344.84	224.85
345.22	225.08
345.60	225.36
345.99	225.57
346.37	225.74
346.75	225.83
347.13	225.86
347.52	225.91
347.90	225.98
348.28	225.99
348.66	226.01
349.05	225.98
349.43	226.02
349.81	226.07
350.19	226.17
350.57	226.24
350.96	226.32
351.34	226.42
351.72	226.52
352.10	226.64
352.48	226.75
352.87	226.74
353.25	226.82
353.63	226.86
354.01	226.92
354.39	226.98
354.77	227.05
355.15	227.15
355.54	227.24
355.92	227.28
356.30	227.36
356.68	227.51
357.06	227.59
357.44	227.66
357.82	227.72
358.20	227.75
358.58	227.79
358.97	227.84
359.35	227.93
359.73	227.98
360.11	228.02
360.49	228.12
360.87	228.18
361.25	228.25
361.63	228.31
362.01	228.37
362.39	228.37
362.77	228.40
363.15	228.40
363.53	228.39
363.91	228.38
364.29	228.37
364.67	228.27
365.05	228.31
365.43	228.32
365.81	228.32
366.19	228.37
366.57	228.40
366.95	228.40
367.33	228.32
367.71	228.28
368.09	228.24
368.47	228.17
368.85	228.16
369.23	228.17
369.61	228.12
369.99	228.10
370.37	228.07
370.75	228.10
371.13	228.10
371.51	228.05
371.89	228.03
372.27	227.99
372.65	227.95
373.03	227.88
373.41	227.84
373.78	227.79
374.16	227.66
374.54	227.58
374.92	227.52
375.30	227.50
375.68	227.45
376.06	227.41
376.44	227.36
376.82	227.28
377.19	227.17
377.57	227.07
377.95	226.98
378.33	226.95
378.71	226.81
379.09	226.74
379.47	226.71
379.84	226.65
380.22	226.61
380.60	226.54
380.98	226.47
381.36	226.38
381.73	226.29
382.11	226.27
382.49	226.20
382.87	226.11
383.25	226.07
383.62	226.12
384.00	226.06
384.38	226.03
384.76	226.02
385.13	226.02
385.51	226.00
385.89	225.97
386.27	225.91
386.64	225.91
387.02	225.85
387.40	225.84
387.78	225.82
388.15	225.79
388.53	225.76
388.91	225.74
389.29	225.71
389.66	225.71
390.04	225.69
390.42	225.73
390.79	225.76
391.17	225.71
391.55	225.60
391.92	225.58
392.30	225.57
392.68	225.56
393.05	225.57
393.43	225.57
393.81	225.57
394.18	225.57
394.56	225.58
394.94	225.63
395.31	225.61
395.69	225.64
396.06	225.67
396.44	225.72
396.82	225.77
397.19	225.88
397.57	225.95
397.95	226.02
398.32	226.00
398.70	226.06
399.07	226.16
399.45	226.19
399.82	226.25
400.20	226.29
400.58	226.35
400.95	226.37
401.33	226.44
401.70	226.58
402.08	226.68
402.45	226.77
402.83	226.85
403.20	226.96
403.58	227.03
403.95	227.18
404.33	227.31
404.71	227.41
405.08	227.55
405.46	227.67
405.83	227.82
406.21	227.98
406.58	228.13
406.96	228.27
407.33	228.46
407.70	228.63
408.08	228.89
408.45	229.08
408.83	229.31
409.20	229.53
409.58	229.69
409.95	229.93
410.33	230.20
410.70	230.43
411.08	230.74
411.45	231.07
411.82	231.30
412.20	231.66
412.57	232.07
412.95	232.35
413.32	232.74
413.69	233.11
414.07	233.54
414.44	234.01
414.82	234.49
415.19	235.00
415.56	235.60
415.94	236.11
416.31	236.75
416.68	237.36
417.06	238.07
417.43	238.76
417.81	239.53
418.18	240.27
418.55	241.12
418.93	241.97
419.30	242.88
419.67	243.85
420.04	244.80
420.42	245.76
420.79	246.94
421.16	248.08
421.54	249.27
421.91	250.47
422.28	251.72
422.66	253.05
423.03	254.36
423.40	255.66
423.77	257.12
424.15	258.54
424.52	260.03
424.89	261.68
425.26	263.24
425.64	264.69
426.01	266.31
426.38	267.95
426.75	269.60
427.13	271.29
427.50	273.11
427.87	274.97
428.24	276.85
428.61	278.59
428.99	280.54
429.36	282.67
429.73	284.74
430.10	286.71
430.47	288.78
430.85	290.92
431.22	293.15
431.59	295.52
431.96	297.77
432.33	300.21
432.70	302.55
433.08	305.37
433.45	307.98
433.82	310.55
434.19	313.45
434.56	316.28
434.93	318.92
435.30	321.49
435.68	324.36
436.05	327.18
436.42	329.97
436.79	332.46
437.16	335.10
437.53	337.92
437.90	340.74
438.27	343.48
438.64	346.28
439.01	348.86
439.38	351.04
439.75	353.22
440.13	355.73
440.50	358.03
440.87	359.81
441.24	361.78
441.61	364.00
441.98	365.46
442.35	367.25
442.72	369.14
443.09	370.97
443.46	371.99
443.83	372.54
444.20	373.02
444.57	373.85
444.94	374.15
445.31	374.47
445.68	374.80
446.05	374.81
446.42	374.39
446.79	373.96
447.16	373.50
447.53	373.18
447.90	372.02
448.27	370.89
448.64	369.35
449.01	368.17
449.37	366.12
449.74	364.25
450.11	362.04
450.48	359.56
450.85	357.04
451.22	354.88
451.59	352.88
451.96	350.94
452.33	348.36
452.70	346.03
453.07	343.22
453.43	340.36
453.80	337.64
454.17	335.01
454.54	332.49
454.91	329.78
455.28	327.10
455.65	324.63
456.02	322.18
456.38	320.01
456.75	317.38
457.12	315.18
457.49	312.92
457.86	310.71
458.23	308.83
458.59	306.79
458.96	304.73
459.33	302.85
459.70	301.04
460.07	299.51
460.43	297.78
460.80	296.16
461.17	294.73
461.54	293.21
461.91	291.81
462.27	290.36
462.64	289.16
463.01	287.86
463.38	286.57
463.74	285.20
464.11	284.09
464.48	283.07
464.85	281.95
465.21	281.14
465.58	280.23
465.95	279.14
466.32	278.25
466.68	277.34
467.05	276.45
467.42	275.56
467.78	274.67
468.15	273.79
468.52	273.17
468.88	272.34
469.25	271.63
469.62	271.03
469.98	270.40
470.35	269.76
470.72	269.16
471.08	268.52
471.45	268.00
471.82	267.45
472.18	266.87
472.55	266.48
472.92	265.94
473.28	265.51
473.65	265.11
474.02	264.71
474.38	264.38
474.75	264.07
475.11	263.77
475.48	263.51
475.85	263.31
476.21	263.08
476.58	262.89
476.94	262.73
477.31	262.60
477.67	262.43
478.04	262.37
478.41	262.29
478.77	262.34
479.14	262.27
479.50	262.29
479.87	262.39
480.23	262.47
480.60	262.56
480.96	262.64
481.33	262.83
481.69	263.01
482.06	263.17
482.42	263.39
482.79	263.64
483.15	263.98
483.52	264.37
483.88	264.72
484.25	265.11
484.61	265.56
484.98	265.96
485.34	266.56
485.71	267.11
486.07	267.72
486.44	268.30
486.80	269.05
487.17	269.76
487.53	270.58
487.90	271.42
488.26	272.36
488.62	273.39
488.99	274.39
489.35	275.43
489.72	276.57
490.08	277.75
490.44	279.00
490.81	280.32
491.17	281.65
491.54	283.15
491.90	284.70
492.26	286.33
492.63	288.06
492.99	289.78
493.36	291.68
493.72	293.75
494.08	295.85
494.45	298.10
494.81	300.49
495.17	302.91
495.54	305.49
495.90	308.16
496.26	310.94
496.63	313.89
496.99	317.02
497.35	320.27
497.72	323.69
498.08	327.19
498.44	330.87
498.80	334.76
499.17	338.82
499.53	343.01
499.89	347.38
500.26	351.90
500.62	356.58
500.98	361.56
501.34	366.62
501.71	372.03
502.07	377.48
502.43	383.08
502.79	388.90
503.16	394.99
503.52	401.27
503.88	407.68
504.24	414.36
504.60	421.23
504.97	428.37
505.33	435.73
505.69	443.46
506.05	451.24
506.41	459.16
506.78	467.31
507.14	475.78
507.50	484.58
507.86	493.61
508.22	502.86
508.59	512.08
508.95	521.66
509.31	531.44
509.67	541.50
510.03	551.74
510.39	562.25
510.75	573.00
511.12	583.96
511.48	595.30
511.84	606.70
512.20	618.20
512.56	630.11
512.92	642.30
513.28	654.65
513.64	667.09
514.00	679.73
514.37	692.76
514.73	705.79
515.09	718.72
515.45	731.97
515.81	745.45
516.17	759.32
516.53	773.44
516.89	787.64
517.25	801.75
517.61	816.23
517.97	830.71
518.33	845.18
518.69	859.91
519.05	874.85
519.41	890.01
519.77	905.58
520.13	921.04
520.49	936.28
520.85	951.63
521.21	967.41
521.57	983.71
521.93	999.33
522.29	1015.60
522.65	1031.71
523.01	1047.86
523.37	1063.89
523.73	1080.14
524.09	1096.12
524.45	1112.37
524.81	1128.93
525.17	1145.59
525.53	1162.35
525.89	1179.13
526.25	1195.84
526.61	1212.08
526.97	1228.60
527.33	1244.98
527.68	1261.51
528.04	1277.97
528.40	1294.50
528.76	1311.36
529.12	1327.76
529.48	1344.51
529.84	1360.44
530.20	1377.07
530.56	1393.97
530.91	1411.36
531.27	1427.95
531.63	1444.31
531.99	1460.65
532.35	1476.47
532.71	1492.35
533.07	1508.59
533.42	1524.35
533.78	1540.36
534.14	1556.56
534.50	1571.86
534.86	1587.52
535.21	1602.57
535.57	1618.32
535.93	1633.70
536.29	1648.42
536.65	1663.40
537.00	1678.02
537.36	1693.23
537.72	1707.66
538.08	1722.00
538.44	1735.59
538.79	1749.38
539.15	1763.01
539.51	1776.64
539.87	1790.90
540.22	1804.44
540.58	1817.96
540.94	1831.19
541.29	1844.03
541.65	1856.51
542.01	1869.63
542.37	1881.96
542.72	1894.28
543.08	1905.97
543.44	1918.21
543.79	1929.37
544.15	1940.30
544.51	1951.82
544.87	1962.79
545.22	1973.44
545.58	1983.56
545.94	1993.27
546.29	2003.05
546.65	2012.78
547.01	2022.00
547.36	2030.69
547.72	2039.05
548.07	2046.97
548.43	2055.14
548.79	2063.01
549.14	2070.57
549.50	2077.82
549.86	2085.40
550.21	2092.77
550.57	2099.90
550.92	2106.39
551.28	2113.37
551.64	2120.37
551.99	2126.91
552.35	2132.79
552.70	2139.02
553.06	2144.98
553.41	2151.33
553.77	2157.32
554.13	2163.42
554.48	2169.46
554.84	2174.97
555.19	2180.37
555.55	2185.35
555.90	2189.80
556.26	2194.68
556.61	2199.47
556.97	2203.87
557.32	2208.08
557.68	2212.13
558.03	2216.51
558.39	2220.32
558.74	2224.99
559.10	2228.88
559.45	2232.42
559.81	2236.86
560.16	2240.83
560.52	2244.03
560.87	2247.40
561.23	2250.09
561.58	2253.07
561.94	2255.67
562.29	2257.98
562.64	2260.63
563.00	2263.43
563.35	2266.93
563.71	2270.01
564.06	2273.26
564.42	2275.94
564.77	2278.38
565.12	2280.67
565.48	2282.52
565.83	2284.46
566.19	2285.73
566.54	2286.58
566.89	2287.77
567.25	2288.55
567.60	2289.66
567.96	2291.46
568.31	2292.29
568.66	2293.38
569.02	2293.94
569.37	2294.26
569.72	2295.38
570.08	2295.63
570.43	2295.68
570.78	2295.19
571.14	2293.68
571.49	2292.31
571.84	2292.28
572.20	2291.29
572.55	2290.24
572.90	2288.74
573.26	2287.33
573.61	2285.76
573.96	2284.15
574.31	2281.41
574.67	2278.40
575.02	2275.04
575.37	2271.70
575.72	2268.05
576.08	2264.76
576.43	2261.54
576.78	2257.97
577.13	2254.80
577.49	2251.80
577.84	2248.30
578.19	2244.56
578.54	2241.13
578.90	2237.01
579.25	2231.43
579.60	2226.47
579.95	2221.61
580.30	2216.60
580.66	2211.52
581.01	2206.65
581.36	2201.74
581.71	2197.59
582.06	2193.26
582.42	2188.72
582.77	2183.64
583.12	2179.05
583.47	2174.47
583.82	2169.47
584.17	2164.30
584.53	2158.75
584.88	2153.14
585.23	2147.42
585.58	2142.03
585.93	2136.59
586.28	2131.92
586.63	2126.88
586.98	2121.93
587.34	2117.17
587.69	2112.36
588.04	2107.16
588.39	2101.51
588.74	2095.12
589.09	2088.98
589.44	2082.17
589.79	2076.33
590.14	2070.73
590.49	2064.38
590.84	2057.98
591.19	2052.00
591.54	2045.70
591.89	2038.40
592.25	2031.60
592.60	2024.56
592.95	2017.09
593.30	2009.79
593.65	2002.20
594.00	1995.28
594.35	1987.99
594.70	1980.00
595.05	1972.90
595.40	1965.66
595.75	1958.24
596.10	1952.19
596.45	1945.46
596.80	1939.49
597.15	1932.80
597.50	1925.72
597.85	1919.20
598.19	1912.65
598.54	1905.60
598.89	1898.93
599.24	1893.17
599.59	1886.57
599.94	1880.39
600.29	1874.15
600.64	1867.60
600.99	1860.21
601.34	1853.41
601.69	1846.66
602.04	1839.98
602.39	1832.72
602.74	1825.99
603.08	1819.19
603.43	1812.45
603.78	1805.15
604.13	1797.88
604.48	1790.54
604.83	1783.65
605.18	1776.74
605.53	1768.80
605.87	1760.93
606.22	1753.72
606.57	1745.63
606.92	1738.34
607.27	1731.17
607.62	1724.14
607.96	1716.90
608.31	1710.32
608.66	1702.73
609.01	1695.02
609.36	1687.50
609.70	1679.55
610.05	1671.40
610.40	1663.80
610.75	1655.50
611.10	1647.91
611.44	1639.37
611.79	1631.40
612.14	1622.80
612.49	1613.71
612.83	1605.37
613.18	1597.24
613.53	1589.14
613.88	1580.69
614.22	1572.45
614.57	1563.87
614.92	1555.91
615.27	1548.31
615.61	1540.01
615.96	1531.93
616.31	1524.44
616.65	1516.97
617.00	1509.27
617.35	1501.57
617.70	1493.22
618.04	1484.66
618.39	1476.41
618.74	1468.81
619.08	1460.64
619.43	1453.11
619.78	1446.20
620.12	1438.97
620.47	1431.37
620.82	1423.15
621.16	1415.73
621.51	1408.07
621.85	1400.32
622.20	1391.70
622.55	1383.26
622.89	1375.35
623.24	1367.78
623.59	1360.35
623.93	1352.86
624.28	1345.72
624.62	1338.30
624.97	1331.02
625.32	1324.23
625.66	1317.17
626.01	1310.13
626.35	1302.60
626.70	1294.71
627.04	1286.85
627.39	1278.96
627.73	1271.53
628.08	1264.72
628.43	1257.50
628.77	1250.12
629.12	1242.67
629.46	1235.62
629.81	1228.31
630.15	1221.04
630.50	1213.53
630.84	1205.26
631.19	1197.30
631.53	1189.70
631.88	1182.09
632.22	1174.60
632.57	1167.36
632.91	1159.77
633.26	1152.35
633.60	1144.95
633.95	1137.89
634.29	1130.92
634.64	1124.39
634.98	1117.12
635.32	1109.94
635.67	1103.25
636.01	1096.64
636.36	1089.84
636.70	1083.21
637.05	1076.61
637.39	1070.15
637.73	1063.74
638.08	1057.88
638.42	1051.95
638.77	1045.55
639.11	1039.01
639.45	1032.62
639.80	1026.00
640.14	1019.77
640.49	1013.25
640.83	1006.95
641.17	1000.71
641.52	994.39
641.86	987.85
642.20	981.96
642.55	975.68
642.89	969.22
643.23	962.69
643.58	956.94
643.92	950.70
644.26	944.69
644.61	938.64
644.95	932.65
645.29	926.02
645.64	919.30
645.98	912.92
646.32	907.10
646.66	901.04
647.01	895.12
647.35	889.27
647.69	883.38
648.04	877.85
648.38	872.06
648.72	866.04
649.06	859.99
649.41	854.05
649.75	848.09
650.09	842.13
650.43	836.39
650.78	830.22
651.12	824.42
651.46	818.74
651.80	813.04
652.14	807.55
652.49	802.21
652.83	796.89
653.17	791.24
653.51	785.45
653.85	780.04
654.20	774.42
654.54	768.47
654.88	762.69
655.22	756.73
655.56	751.13
655.90	745.80
656.25	740.57
656.59	735.26
656.93	730.18
657.27	725.04
657.61	719.50
657.95	714.39
658.29	709.22
658.64	703.92
658.98	698.67
659.32	693.23
659.66	688.02
660.00	682.83
660.34	677.86
660.68	672.90
661.02	667.84
661.36	663.16
661.70	658.64
662.05	654.27
662.39	650.03
662.73	645.52
663.07	641.05
663.41	636.66
663.75	632.12
664.09	627.50
664.43	623.04
664.77	618.96
665.11	614.67
665.45	610.54
665.79	606.44
666.13	602.23
666.47	598.14
666.81	593.94
667.15	589.80
667.49	585.93
667.83	582.15
668.17	578.27
668.51	574.19
668.85	570.22
669.19	566.47
669.53	562.59
669.87	558.62
670.21	554.85
670.55	551.19
670.89	547.77
671.23	544.32
671.57	540.81
671.91	537.18
672.25	533.68
672.58	530.14
672.92	526.70
673.26	523.58
673.60	520.45
673.94	517.33
674.28	514.40
674.62	511.43
674.96	508.34
675.30	505.44
675.64	502.47
675.97	499.62
676.31	496.69
676.65	493.81
676.99	491.14
677.33	488.34
677.67	485.45
678.01	482.39
678.34	479.46
678.68	476.56
679.02	473.83
679.36	471.05
679.70	468.33
680.04	465.64
680.37	462.77
680.71	459.97
681.05	457.45
681.39	454.72
681.73	452.05
682.06	449.50
682.40	446.93
682.74	444.39
683.08	441.84
683.42	439.27
683.75	436.77
684.09	434.21
684.43	431.75
684.77	429.32
685.10	426.99
685.44	424.64
685.78	422.42
686.12	420.16
686.45	417.90
686.79	415.60
687.13	413.37
687.46	411.22
687.80	409.06
688.14	406.77
688.48	404.70
688.81	402.44
689.15	400.31
689.49	398.18
689.82	396.14
690.16	394.08
690.50	392.08
690.83	390.13
691.17	388.14
691.51	386.24
691.84	384.44
692.18	382.56
692.52	380.59
692.85	378.59
693.19	376.69
693.52	374.85
693.86	373.11
694.20	371.31
694.53	369.45
694.87	367.62
695.21	365.86
695.54	364.01
695.88	362.33
696.21	360.60
696.55	358.92
696.88	357.24
697.22	355.60
697.56	354.01
697.89	352.32
698.23	350.73
698.56	349.10
698.90	347.45
699.23	345.79
699.57	344.23
699.90	342.74
700.24	341.23
700.58	339.73
700.91	338.17
701.25	336.75
701.58	335.46
701.92	334.09
702.25	332.70
702.59	331.36
702.92	330.03
703.26	328.69
703.59	327.42
703.93	326.20
704.26	324.92
704.60	323.60
704.93	322.34
705.26	321.09
705.60	319.86
705.93	318.71
706.27	317.63
706.60	316.57
706.94	315.46
707.27	314.27
707.61	313.17
707.94	312.12
708.27	310.98
708.61	309.83
708.94	308.81
709.28	307.86
709.61	306.88
709.94	305.94
710.28	304.91
710.61	303.92
710.95	302.86
711.28	301.98
711.61	301.07
711.95	300.13
712.28	299.20
712.61	298.26
712.95	297.32
713.28	296.43
713.61	295.54
713.95	294.65
714.28	293.85
714.61	293.00
714.95	292.17
715.28	291.37
715.61	290.50
715.95	289.64
716.28	288.72
716.61	287.88
716.95	287.02
717.28	286.28
717.61	285.50
717.94	284.78
718.28	283.93
718.61	283.17
718.94	282.48
719.27	281.81
719.61	281.18
719.94	280.53
720.27	279.83
720.60	279.16
720.94	278.54
721.27	277.95
721.60	277.37
721.93	276.75
722.27	276.13
722.60	275.58
722.93	275.01
723.26	274.49
723.59	273.94
723.93	273.41
724.26	272.86
724.59	272.28
724.92	271.77
725.25	271.28
725.59	270.73
725.92	270.25
726.25	269.72
726.58	269.19
726.91	268.68
727.24	268.21
727.57	267.70
727.91	267.17
728.24	266.67
728.57	266.16
728.90	265.73
729.23	265.30
729.56	264.90
729.89	264.41
730.22	263.94
730.55	263.48
730.89	263.04
731.22	262.59
731.55	262.18
731.88	261.74
732.21	261.30
732.54	260.91
732.87	260.46
733.20	260.07
733.53	259.68
733.86	259.31
734.19	258.92
734.52	258.55
734.85	258.24
735.18	257.86
735.51	257.52
735.84	257.17
736.17	256.80
736.50	256.37
736.83	256.16
737.16	255.83
737.49	255.51
737.82	255.16
738.15	254.82
738.48	254.46
738.81	254.12
739.14	253.81
739.47	253.49
739.80	253.20
740.13	252.90
740.46	252.57
740.79	252.23
741.12	251.91
741.45	251.61
741.78	251.26
742.11	250.98
742.44	250.63
742.77	250.32
743.10	250.00
743.43	249.71
743.75	249.32
744.08	249.17
744.41	248.89
744.74	248.63
745.07	248.35
745.40	248.08
745.73	247.82
746.06	247.54
746.39	247.28
746.71	247.01
747.04	246.74
747.37	246.46
747.70	246.23
748.03	245.98
748.36	245.77
748.68	245.53
749.01	245.23
749.34	245.02
749.67	244.74
750.00	244.54
750.33	244.38
750.65	244.14
750.98	243.75
751.31	243.51
751.64	243.25
751.97	243.09
752.29	242.88
752.62	242.63
752.95	242.41
753.28	242.16
753.60	241.93
753.93	241.76
754.26	241.55
754.59	241.31
754.91	241.09
755.24	240.85
755.57	240.68
755.90	240.51
756.22	240.29
756.55	240.11
756.88	239.90
757.20	239.68
757.53	239.51
757.86	239.36
758.19	239.22
758.51	239.04
758.84	238.83
759.17	238.70
759.49	238.55
759.82	238.47
760.15	238.32
760.47	238.17
760.80	237.99
761.13	237.89
761.45	237.76
761.78	237.61
762.11	237.48
762.43	237.31
762.76	237.18
763.08	237.04
763.41	236.95
763.74	236.81
764.06	236.66
764.39	236.53
764.71	236.40
765.04	236.22
765.37	236.13
765.69	235.99
766.02	235.84
766.34	235.73
766.67	235.57
767.00	235.46
767.32	235.41
767.65	235.38
767.97	235.29
768.30	235.19
768.62	235.10
768.95	235.02
769.27	234.93
769.60	234.82
769.92	234.73
770.25	234.59
770.57	234.48
770.90	234.38
771.22	234.28
771.55	234.19
771.87	234.13
772.20	234.03
772.52	234.05
772.85	234.08
773.17	233.99
773.50	233.89
773.82	233.82
774.15	233.68
774.47	233.53
774.80	233.43
775.12	233.32
775.45	233.28
775.77	233.17
776.09	233.10
776.42	233.06
776.74	233.02
777.07	232.97
777.39	232.91
777.72	232.81
778.04	232.74
778.36	232.69
778.69	232.63
779.01	232.53
779.33	232.36
779.66	232.18
779.98	232.08
780.31	232.01
780.63	231.94
780.95	231.88
781.28	231.83
781.60	231.74
781.92	231.68
782.25	231.59
782.57	231.51
782.89	231.45
783.22	231.36
783.54	231.28
783.86	231.24
784.19	231.17
784.51	231.17
784.83	231.14
785.16	231.07
785.48	230.98
785.80	230.97
786.12	230.96
786.45	230.93
786.77	230.89
787.09	230.84
787.42	230.81
787.74	230.75
788.06	230.68
788.38	230.64
788.71	230.60
789.03	230.52
789.35	230.51
789.67	230.43
789.99	230.40
790.32	230.31
790.64	230.28
790.96	230.35
791.28	230.26
791.61	230.22
791.93	230.18
792.25	230.13
792.57	230.17
792.89	230.07
793.21	230.00
793.54	229.99
793.86	229.94
794.18	229.92
794.50	229.84
794.82	229.79
795.14	229.76
795.47	229.73
795.79	229.70
796.11	229.62
796.43	229.57
796.75	229.55
797.07	229.54
797.39	229.47
797.71	229.35
798.04	229.30
798.36	229.24
798.68	229.22
799.00	229.23
799.32	229.15
799.64	229.12
799.96	229.09
800.28	229.07
800.60	229.03
800.92	228.99
801.24	228.96
801.56	228.93
801.89	228.89
802.21	228.85
802.53	228.79
802.85	228.79
803.17	228.84
803.49	228.78
803.81	228.75
804.13	228.71
804.45	228.67
804.77	228.67
805.09	228.63
805.41	228.60
805.73	228.53
806.05	228.48
806.37	228.46
806.69	228.42
807.01	228.34
807.33	228.32
807.65	228.26
807.97	228.31
808.28	228.28
808.60	228.28
808.92	228.24
809.24	228.30
809.56	228.27
809.88	228.20
810.20	228.19
810.52	228.17
810.84	228.17
811.16	228.13
811.48	228.12
811.80	228.16
812.12	228.16
812.43	228.13
812.75	228.09
813.07	228.06
813.39	228.08
813.71	228.09
814.03	228.07
814.35	228.05
814.67	228.00
814.98	228.00
815.30	227.98
815.62	227.92
815.94	227.85
816.26	227.89
816.58	227.86
816.89	227.84
817.21	227.82
817.53	227.79
817.85	227.81
818.17	227.77
818.48	227.73
818.80	227.71
819.12	227.71
819.44	227.69
819.76	227.69
820.07	227.67
820.39	227.66
820.71	227.63
821.03	227.64
821.34	227.58
821.66	227.56
821.98	227.53
822.30	227.56
822.61	227.60
822.93	227.55
823.25	227.50
823.57	227.48
823.88	227.50
824.20	227.48
824.52	227.43
824.83	227.43
825.15	227.36
825.47	227.34
825.79	227.34
826.10	227.34
826.42	227.32
826.74	227.30
827.05	227.29
827.37	227.33
827.69	227.28
828.00	227.30
828.32	227.29
828.64	227.29
828.95	227.32
829.27	227.26
829.58	227.22
829.90	227.26
830.22	227.23
830.53	227.18
830.85	227.17
831.17	227.14
831.48	227.14
831.80	227.15
832.11	227.10
832.43	227.07
832.75	227.07
833.06	227.11
833.38	227.09
833.69	227.06
834.01	227.03
834.32	227.01
834.64	226.99
834.96	226.95
835.27	226.92
835.59	226.89
835.90	226.88
836.22	226.87
836.53	226.83
836.85	226.83
837.16	226.95
837.48	226.91
837.79	227.00
838.11	226.99
838.42	226.98
838.74	227.02
839.05	227.00
839.37	226.99
839.68	226.97
840.00	226.91
840.31	226.91
840.63	226.88
840.94	226.88
841.26	226.86
841.57	226.89
841.88	226.90
842.20	226.87
842.51	226.86
842.83	226.86
843.14	226.97
843.46	226.97
843.77	226.89
844.08	226.88
844.40	226.78
844.71	226.77
845.03	226.75
845.34	226.73
845.65	226.70
845.97	226.69
846.28	226.65
846.60	226.68
846.91	226.70
847.22	226.73
847.54	226.72
847.85	226.72
848.16	226.71
848.48	226.69
848.79	226.73
849.10	226.73
849.42	226.72
849.73	226.59
850.04	226.56
850.36	226.54
850.67	226.56
850.98	226.57
851.30	226.56
851.61	226.53
851.92	226.51
852.23	226.57
852.55	226.57
852.86	226.58
853.17	226.58
853.49	226.60
853.80	226.58
854.11	226.61
854.42	226.65
854.74	226.66
855.05	226.66
855.36	226.61
855.67	226.62
855.99	226.65
856.30	226.78
856.61	226.79
856.92	226.78
857.23	226.77
857.55	226.77
857.86	226.75
858.17	226.79
858.48	226.78
858.79	226.78
859.11	226.78
859.42	226.78
859.73	226.76
860.04	226.73
860.35	226.72
860.66	226.68
860.98	226.63
861.29	226.61
861.60	226.60
861.91	226.62
862.22	226.61
862.53	226.57
862.84	226.49
863.16	226.51
863.47	226.51
863.78	226.49
864.09	226.49
864.40	226.50
864.71	226.50
865.02	226.50
865.33	226.47
865.64	226.44
865.95	226.43
866.27	226.48
866.58	226.42
866.89	226.41
867.20	226.43
867.51	226.40
867.82	226.40
868.13	226.43
868.44	226.40
868.75	226.39
869.06	226.41
869.37	226.37
869.68	226.34
869.99	226.32
870.30	226.35
870.61	226.34
870.92	226.31
871.23	226.29
871.54	226.32
871.85	226.33
872.16	226.39
872.47	226.38
872.78	226.32
873.09	226.37
873.40	226.38
873.71	226.35
874.02	226.35
874.33	226.34
874.64	226.29
874.95	226.33
875.26	226.32
875.56	226.31
875.87	226.29
876.18	226.29
876.49	226.35
876.80	226.30
877.11	226.31
877.42	226.33
877.73	226.31
878.04	226.27
878.35	226.27
878.66	226.27
878.96	226.28
879.27	226.28
879.58	226.26
879.89	226.22
880.20	226.27
880.51	226.27
880.82	226.27
881.12	226.26
881.43	226.21
881.74	226.18
882.05	226.18
882.36	226.20
882.67	226.21
882.97	226.14
883.28	226.14
883.59	226.13
883.90	226.14
884.21	226.18
884.51	226.19
884.82	226.13
885.13	226.09
885.44	226.09
885.74	226.10
886.05	226.11
886.36	226.12
886.67	226.07
886.98	226.13
887.28	226.13
887.59	226.13
887.90	226.15
888.20	226.11
888.51	226.12
888.82	226.08
889.13	226.09
889.43	226.15
889.74	226.17
890.05	226.18
890.35	226.16
890.66	226.14
890.97	226.14
891.28	226.16
891.58	226.15
891.89	226.10
892.20	226.08
892.50	226.08
892.81	226.11
893.12	226.13
893.42	226.06
893.73	226.06
894.04	226.08
894.34	226.10
894.65	226.14
894.95	226.13
895.26	226.14
895.57	226.17
895.87	226.08
896.18	226.08
896.48	226.08
896.79	226.08
897.10	226.09
897.40	226.10
897.71	226.11
898.01	226.10
898.32	226.16
898.63	226.15
898.93	226.16
899.24	226.14
899.54	226.14
899.85	226.17
900.15	226.15
900.46	226.13
900.76	226.13
901.07	226.13
901.38	226.14
901.68	226.16
901.99	226.11
902.29	226.13
902.60	226.14
902.90	226.13
903.21	226.13
903.51	226.09
903.82	226.08
904.12	226.11
904.43	226.11
904.73	226.09
905.03	226.09
905.34	226.18
905.64	226.14
905.95	226.13
906.25	226.13
906.56	226.13
906.86	226.15
907.17	226.14
907.47	226.15
907.77	226.16
908.08	226.15
908.38	226.16
908.69	226.16
908.99	226.15
909.30	226.17
909.60	226.18
909.90	226.22
910.21	226.20
910.51	226.17
910.81	226.18
911.12	226.21
911.42	226.22
911.73	226.10
912.03	226.12
912.33	226.16
912.64	226.12
912.94	226.14
913.24	226.13
913.55	226.14
913.85	226.12
914.15	226.14
914.46	226.14
914.76	226.14
915.06	226.15
915.37	226.16
915.67	226.15
915.97	226.18
916.27	226.13
916.58	226.11
916.88	226.11
917.18	226.11
917.49	226.16
917.79	226.15
918.09	226.14
918.39	226.17
918.70	226.14
919.00	226.15
919.30	226.19
919.60	226.16
919.91	226.13
920.21	226.13
920.51	226.10
920.81	226.11
921.12	226.11
921.42	226.09
921.72	226.08
922.02	226.07
922.32	226.03
922.63	226.04
922.93	226.10
923.23	226.09
923.53	226.08
923.83	225.97
924.13	226.01
924.44	226.03
924.74	226.03
925.04	226.10
925.34	226.11
925.64	226.04
925.94	226.05
926.24	226.11
926.55	226.08
926.85	226.07
927.15	226.06
927.45	226.06
927.75	226.06
928.05	226.04
928.35	226.04
928.65	226.06
928.95	226.10
929.26	226.08
929.56	226.13
929.86	226.11
930.16	226.14
930.46	226.11
930.76	226.12
931.06	226.10
931.36	226.05
931.66	226.08
931.96	226.08
932.26	226.08
932.56	226.03
932.86	226.08
933.16	226.10
933.46	226.11
933.76	226.10
934.06	226.12
934.36	226.19
934.66	226.16
934.96	226.16
935.26	226.15
935.56	226.16
935.86	226.12
936.16	226.13
936.46	226.13
936.76	226.15
937.06	226.11
937.36	226.11
937.66	226.11
937.96	226.07
938.26	226.08
938.56	226.06
938.86	226.06
939.16	226.05
939.46	226.01
939.76	226.02
940.06	226.01
940.35	225.99
940.65	225.94
940.95	225.96
941.25	225.94
941.55	225.90
941.85	225.88
942.15	225.90
942.45	225.92
942.75	225.88
943.04	225.87
943.34	225.92
943.64	225.91
943.94	225.87
944.24	225.87
944.54	225.87
944.84	225.89
945.13	225.89
945.43	225.88
945.73	225.90
946.03	225.89
946.33	225.89
946.62	225.88
946.92	225.87
947.22	225.87
947.52	225.87
947.82	225.86
948.11	225.83
948.41	225.81
948.71	225.76
949.01	225.79
949.31	225.77
949.60	225.76
949.90	225.77
950.20	225.76
950.50	225.74
950.79	225.72
951.09	225.75
951.39	225.74
951.69	225.72
951.98	225.73
952.28	225.73
952.58	225.67
952.87	225.65
953.17	225.69
953.47	225.68
953.76	225.70
954.06	225.71
954.36	225.70
954.66	225.69
954.95	225.74
955.25	225.76
955.55	225.78
955.84	225.75
956.14	225.75
956.44	225.78
956.73	225.80
957.03	225.84
957.32	225.82
957.62	225.83
957.92	225.84
958.21	225.82
958.51	225.94
958.81	226.01
959.10	226.05
959.40	226.05
959.69	226.08
959.99	226.08
960.29	226.11
960.58	226.15
960.88	226.18
961.17	226.16
961.47	226.16
961.76	226.17
962.06	226.24
962.36	226.23
962.65	226.24
962.95	226.26
963.24	226.22
963.54	226.22
963.83	226.21
964.13	226.22
964.42	226.21
964.72	226.14
965.01	226.11
965.31	226.14
965.60	226.11
965.90	226.15
966.19	226.15
966.49	226.16
966.78	226.14
967.08	226.18
967.37	226.17
967.67	226.17
967.96	226.20
968.26	226.12
968.55	226.16
968.85	226.16
969.14	226.14
969.43	226.13
969.73	226.12
970.02	226.14
970.32	226.16
970.61	226.17
970.91	226.15
971.20	226.13
971.49	226.11
971.79	226.12
972.08	226.04
972.38	226.03
972.67	226.02
972.96	226.04
973.26	226.01
973.55	226.03
973.85	226.00
974.14	225.99
974.43	226.01
974.73	226.00
975.02	225.98
975.31	226.00
975.61	225.97
975.90	225.97
976.19	225.94
976.49	225.94
976.78	225.93
977.07	225.93
977.37	225.94
977.66	225.96
977.95	225.94
978.24	225.99
978.54	225.99
978.83	225.96
979.12	225.92
979.42	225.92
979.71	225.91
980.00	225.91
980.29	225.88
980.59	225.85
980.88	225.84
981.17	225.87
981.46	225.86
981.76	225.89
982.05	225.93
982.34	225.94
982.63	225.96
982.93	225.96
983.22	225.98
983.51	225.97
983.80	225.94
984.09	225.94
984.39	225.92
984.68	225.89
984.97	225.91
985.26	225.94
985.55	225.93
985.85	225.91
986.14	225.91
986.43	225.94
986.72	225.94
987.01	225.94
987.30	225.92
987.59	225.89
987.89	225.89
988.18	225.87
988.47	225.87
988.76	225.82
989.05	225.83
989.34	225.80
989.63	225.81
989.92	225.81
990.22	225.81
990.51	225.79
990.80	225.81
991.09	225.83
991.38	225.82
991.67	225.80
991.96	225.78
992.25	225.81
992.54	225.78
992.83	225.75
993.12	225.74
993.41	225.78
993.70	225.82
993.99	225.85
994.28	225.85
994.58	225.86
994.87	225.86
995.16	225.87
995.45	225.85
995.74	225.82
996.03	225.88
996.32	225.90
996.61	225.89
996.90	225.89
997.19	225.85
997.48	225.85
997.77	225.89
998.06	225.92
998.34	225.92
998.63	225.90
998.92	225.96
999.21	225.96
999.50	225.91
999.79	225.90
1000.08	225.89
1000.37	225.91
1000.66	225.88
1000.95	225.91
1001.24	225.90
1001.53	225.94
1001.82	225.93
1002.11	225.87
1002.40	225.87
1002.68	225.91
1002.97	226.00
1003.26	226.01
1003.55	225.99
1003.84	225.99
1004.13	226.02
1004.42	225.99
1004.71	225.99
1004.99	225.95
1005.28	225.97
1005.57	225.99
1005.86	225.99
1006.15	225.97
1006.44	225.96
1006.72	226.00
1007.01	225.97
1007.30	225.95
1007.59	225.95
1007.88	225.97
1008.17	226.00
1008.45	225.98
1008.74	225.96
1009.03	225.89
1009.32	225.91
1009.60	225.89
1009.89	225.87
1010.18	225.83
1010.47	225.84
1010.76	225.87
1011.04	225.89
1011.33	225.91
1011.62	225.91
1011.91	225.91
1012.19	225.92
1012.48	225.91
1012.77	225.90
1013.05	225.96
1013.34	225.98
1013.63	225.99
1013.92	226.02
1014.20	226.01
1014.49	226.03
1014.78	226.04
1015.06	226.02
1015.35	226.01
1015.64	226.03
1015.92	226.06
1016.21	226.06
1016.50	226.11
1016.78	226.08
1017.07	226.08
1017.36	226.04
1017.64	226.04
1017.93	226.05
1018.22	226.07
1018.50	226.06
1018.79	226.02
1019.08	225.99
1019.36	225.99
1019.65	225.96
1019.93	225.96
1020.22	225.95
1020.51	225.96
1020.79	225.94
1021.08	226.18
1021.36	225.55
1021.65	225.47
1021.94	226.20
1022.22	225.93
1022.51	225.73
1022.79	226.31
1023.08	225.75
1023.36	226.52
1023.65	225.38
>>>>>End Processed Spectral Data<<<<<
