SpectraSuite Data File
++++++++++++++++++++++++++++++++++++
Date: Fri Feb 01 15:10:00 EST 2013
User: group
Dark Spectrum Present: No
Reference Spectrum Present: No
Number of Sampled Component Spectra: 1
Spectrometers: USB2E7196
Integration Time (usec): 35000 (USB2E7196)
Spectra Averaged: 100 (USB2E7196)
Boxcar Smoothing: 10 (USB2E7196)
Correct for Electrical Dark: No (USB2E7196)
Strobe/Lamp Enabled: No (USB2E7196)
Correct for Detector Non-linearity: No (USB2E7196)
Correct for Stray Light: No (USB2E7196)
Number of Pixels in Processed Spectrum: 2048
>>>>>Begin Processed Spectral Data<<<<<
339.09	0.00
339.48	215.49
339.86	216.68
340.24	217.65
340.63	219.33
341.01	222.89
341.39	222.04
341.78	223.38
342.16	224.92
342.54	225.27
342.93	213.68
343.31	224.47
343.69	224.99
344.07	225.48
344.46	225.95
344.84	226.33
345.22	226.54
345.60	226.79
345.99	226.97
346.37	227.09
346.75	227.20
347.13	227.30
347.52	227.41
347.90	227.47
348.28	227.46
348.66	227.51
349.05	227.54
349.43	227.59
349.81	227.61
350.19	227.65
350.57	227.69
350.96	227.75
351.34	227.86
351.72	227.96
352.10	228.03
352.48	228.07
352.87	228.13
353.25	228.21
353.63	228.27
354.01	228.35
354.39	228.43
354.77	228.51
355.15	228.58
355.54	228.59
355.92	228.61
356.30	228.70
356.68	228.83
357.06	228.86
357.44	228.88
357.82	228.92
358.20	229.00
358.58	229.05
358.97	229.09
359.35	229.12
359.73	229.20
360.11	229.25
360.49	229.29
360.87	229.34
361.25	229.35
361.63	229.43
362.01	229.46
362.39	229.47
362.77	229.49
363.15	229.48
363.53	229.49
363.91	229.46
364.29	229.48
364.67	229.36
365.05	229.35
365.43	229.37
365.81	229.37
366.19	229.38
366.57	229.42
366.95	229.41
367.33	229.39
367.71	229.34
368.09	229.35
368.47	229.34
368.85	229.26
369.23	229.28
369.61	229.16
369.99	229.13
370.37	229.11
370.75	229.13
371.13	229.08
371.51	229.00
371.89	229.02
372.27	228.97
372.65	228.92
373.03	228.86
373.41	228.79
373.78	228.73
374.16	228.62
374.54	228.53
374.92	228.46
375.30	228.38
375.68	228.32
376.06	228.19
376.44	228.09
376.82	228.05
377.19	227.92
377.57	227.86
377.95	227.75
378.33	227.65
378.71	227.48
379.09	227.45
379.47	227.40
379.84	227.29
380.22	227.20
380.60	227.13
380.98	227.06
381.36	226.98
381.73	226.89
382.11	226.85
382.49	226.77
382.87	226.69
383.25	226.64
383.62	226.64
384.00	226.59
384.38	226.56
384.76	226.55
385.13	226.55
385.51	226.51
385.89	226.45
386.27	226.42
386.64	226.43
387.02	226.38
387.40	226.34
387.78	226.30
388.15	226.29
388.53	226.25
388.91	226.22
389.29	226.18
389.66	226.19
390.04	226.16
390.42	226.19
390.79	226.19
391.17	226.21
391.55	226.09
391.92	226.09
392.30	226.10
392.68	226.06
393.05	226.07
393.43	226.09
393.81	226.19
394.18	226.19
394.56	226.19
394.94	226.25
395.31	226.30
395.69	226.39
396.06	226.45
396.44	226.52
396.82	226.56
397.19	226.68
397.57	226.69
397.95	226.75
398.32	226.80
398.70	226.87
399.07	226.95
399.45	227.05
399.82	227.16
400.20	227.22
400.58	227.34
400.95	227.42
401.33	227.54
401.70	227.68
402.08	227.80
402.45	227.92
402.83	228.03
403.20	228.12
403.58	228.22
403.95	228.33
404.33	228.45
404.71	228.62
405.08	228.83
405.46	229.01
405.83	229.17
406.21	229.32
406.58	229.52
406.96	229.70
407.33	229.90
407.70	230.08
408.08	230.37
408.45	230.59
408.83	230.81
409.20	231.03
409.58	231.19
409.95	231.48
410.33	231.78
410.70	232.02
411.08	232.34
411.45	232.66
411.82	232.94
412.20	233.35
412.57	233.78
412.95	234.05
413.32	234.48
413.69	234.87
414.07	235.30
414.44	235.79
414.82	236.26
415.19	236.80
415.56	237.37
415.94	237.90
416.31	238.55
416.68	239.19
417.06	239.92
417.43	240.65
417.81	241.42
418.18	242.15
418.55	243.01
418.93	243.88
419.30	244.76
419.67	245.75
420.04	246.64
420.42	247.61
420.79	248.80
421.16	249.95
421.54	251.14
421.91	252.39
422.28	253.59
422.66	254.91
423.03	256.20
423.40	257.53
423.77	258.94
424.15	260.37
424.52	261.83
424.89	263.42
425.26	264.96
425.64	266.35
426.01	267.98
426.38	269.62
426.75	271.30
427.13	272.99
427.50	274.72
427.87	276.62
428.24	278.49
428.61	280.20
428.99	282.16
429.36	284.25
429.73	286.27
430.10	288.28
430.47	290.34
430.85	292.48
431.22	294.71
431.59	297.08
431.96	299.28
432.33	301.76
432.70	304.16
433.08	306.93
433.45	309.57
433.82	312.16
434.19	315.04
434.56	317.85
434.93	320.58
435.30	323.25
435.68	326.13
436.05	328.96
436.42	331.81
436.79	334.30
437.16	337.02
437.53	339.89
437.90	342.70
438.27	345.46
438.64	348.27
439.01	350.87
439.38	353.06
439.75	355.25
440.13	357.78
440.50	360.08
440.87	361.99
441.24	363.95
441.61	366.15
441.98	367.64
442.35	369.42
442.72	371.23
443.09	373.04
443.46	374.05
443.83	374.67
444.20	375.17
444.57	376.01
444.94	376.27
445.31	376.63
445.68	377.06
446.05	377.13
446.42	376.78
446.79	376.40
447.16	376.02
447.53	375.72
447.90	374.57
448.27	373.43
448.64	371.79
449.01	370.63
449.37	368.64
449.74	366.71
450.11	364.45
450.48	361.99
450.85	359.47
451.22	357.34
451.59	355.32
451.96	353.38
452.33	350.82
452.70	348.48
453.07	345.61
453.43	342.63
453.80	339.87
454.17	337.13
454.54	334.59
454.91	331.92
455.28	329.23
455.65	326.71
456.02	324.27
456.38	322.16
456.75	319.56
457.12	317.30
457.49	315.09
457.86	312.95
458.23	311.14
458.59	309.10
458.96	306.99
459.33	305.11
459.70	303.23
460.07	301.70
460.43	300.01
460.80	298.37
461.17	297.00
461.54	295.51
461.91	294.15
462.27	292.68
462.64	291.37
463.01	289.99
463.38	288.68
463.74	287.31
464.11	286.12
464.48	285.06
464.85	283.96
465.21	283.10
465.58	282.15
465.95	281.00
466.32	280.06
466.68	279.18
467.05	278.25
467.42	277.35
467.78	276.40
468.15	275.50
468.52	274.82
468.88	273.92
469.25	273.10
469.62	272.44
469.98	271.70
470.35	271.03
470.72	270.39
471.08	269.72
471.45	269.17
471.82	268.62
472.18	268.01
472.55	267.54
472.92	267.00
473.28	266.50
473.65	266.07
474.02	265.58
474.38	265.19
474.75	264.86
475.11	264.47
475.48	264.16
475.85	263.88
476.21	263.65
476.58	263.43
476.94	263.24
477.31	263.03
477.67	262.86
478.04	262.74
478.41	262.70
478.77	262.74
479.14	262.60
479.50	262.58
479.87	262.63
480.23	262.67
480.60	262.70
480.96	262.82
481.33	262.97
481.69	263.18
482.06	263.38
482.42	263.60
482.79	263.85
483.15	264.18
483.52	264.56
483.88	264.90
484.25	265.25
484.61	265.72
484.98	266.20
485.34	266.80
485.71	267.42
486.07	268.02
486.44	268.56
486.80	269.29
487.17	270.03
487.53	270.85
487.90	271.72
488.26	272.71
488.62	273.69
488.99	274.65
489.35	275.64
489.72	276.73
490.08	277.89
490.44	279.18
490.81	280.50
491.17	281.86
491.54	283.32
491.90	284.91
492.26	286.56
492.63	288.24
492.99	289.97
493.36	291.85
493.72	293.88
494.08	295.98
494.45	298.24
494.81	300.59
495.17	303.00
495.54	305.59
495.90	308.21
496.26	311.04
496.63	314.04
496.99	317.21
497.35	320.50
497.72	323.92
498.08	327.43
498.44	331.09
498.80	334.99
499.17	339.02
499.53	343.15
499.89	347.54
500.26	352.06
500.62	356.73
500.98	361.71
501.34	366.78
501.71	372.12
502.07	377.55
502.43	383.13
502.79	389.02
503.16	395.04
503.52	401.34
503.88	407.71
504.24	414.28
504.60	421.11
504.97	428.21
505.33	435.54
505.69	443.21
506.05	450.95
506.41	458.89
506.78	467.10
507.14	475.54
507.50	484.24
507.86	493.27
508.22	502.44
508.59	511.68
508.95	521.24
509.31	531.04
509.67	541.16
510.03	551.50
510.39	562.02
510.75	572.83
511.12	583.74
511.48	595.04
511.84	606.51
512.20	618.08
512.56	630.07
512.92	642.25
513.28	654.52
513.64	667.08
514.00	679.79
514.37	692.69
514.73	705.74
515.09	718.71
515.45	732.00
515.81	745.59
516.17	759.49
516.53	773.59
516.89	787.69
517.25	801.84
517.61	816.24
517.97	830.71
518.33	845.18
518.69	859.99
519.05	875.05
519.41	890.18
519.77	905.74
520.13	921.05
520.49	936.38
520.85	951.95
521.21	967.69
521.57	983.92
521.93	999.79
522.29	1016.25
522.65	1032.52
523.01	1048.79
523.37	1064.86
523.73	1081.21
524.09	1097.32
524.45	1113.82
524.81	1130.51
525.17	1147.52
525.53	1164.42
525.89	1181.30
526.25	1198.17
526.61	1214.55
526.97	1231.41
527.33	1247.87
527.68	1264.71
528.04	1281.25
528.40	1297.87
528.76	1315.00
529.12	1331.64
529.48	1348.47
529.84	1364.65
530.20	1381.42
530.56	1398.56
530.91	1416.12
531.27	1432.81
531.63	1449.46
531.99	1466.00
532.35	1482.00
532.71	1497.78
533.07	1514.06
533.42	1530.02
533.78	1546.08
534.14	1562.45
534.50	1577.88
534.86	1593.86
535.21	1609.09
535.57	1625.23
535.93	1640.86
536.29	1655.68
536.65	1670.78
537.00	1685.73
537.36	1701.07
537.72	1715.83
538.08	1730.25
538.44	1744.08
538.79	1758.07
539.15	1771.86
539.51	1785.80
539.87	1800.28
540.22	1814.02
540.58	1827.99
540.94	1841.52
541.29	1854.61
541.65	1867.45
542.01	1880.83
542.37	1893.27
542.72	1905.76
543.08	1917.64
543.44	1930.06
543.79	1941.31
544.15	1952.40
544.51	1963.96
544.87	1975.06
545.22	1985.80
545.58	1996.01
545.94	2005.79
546.29	2015.81
546.65	2025.58
547.01	2034.88
547.36	2043.61
547.72	2052.23
548.07	2060.07
548.43	2068.31
548.79	2076.33
549.14	2083.75
549.50	2091.10
549.86	2098.83
550.21	2106.14
550.57	2113.30
550.92	2119.79
551.28	2126.88
551.64	2134.01
551.99	2140.62
552.35	2146.69
552.70	2152.85
553.06	2158.86
553.41	2165.24
553.77	2171.13
554.13	2177.31
554.48	2183.36
554.84	2188.82
555.19	2194.15
555.55	2199.24
555.90	2203.55
556.26	2208.41
556.61	2213.18
556.97	2217.25
557.32	2221.33
557.68	2225.28
558.03	2229.50
558.39	2233.43
558.74	2238.02
559.10	2241.75
559.45	2245.24
559.81	2249.55
560.16	2253.26
560.52	2256.50
560.87	2259.97
561.23	2262.67
561.58	2265.53
561.94	2268.02
562.29	2270.38
562.64	2273.00
563.00	2275.62
563.35	2279.17
563.71	2282.31
564.06	2285.47
564.42	2288.32
564.77	2290.64
565.12	2292.84
565.48	2294.61
565.83	2296.17
566.19	2297.43
566.54	2298.40
566.89	2299.56
567.25	2300.02
567.60	2301.33
567.96	2302.93
568.31	2303.51
568.66	2304.52
569.02	2304.93
569.37	2305.23
569.72	2305.91
570.08	2305.98
570.43	2305.79
570.78	2304.97
571.14	2303.22
571.49	2301.79
571.84	2301.42
572.20	2300.07
572.55	2298.99
572.90	2297.37
573.26	2295.88
573.61	2294.13
573.96	2292.17
574.31	2288.91
574.67	2285.83
575.02	2282.07
575.37	2278.41
575.72	2274.50
576.08	2271.04
576.43	2267.69
576.78	2263.88
577.13	2260.65
577.49	2257.39
577.84	2253.91
578.19	2250.24
578.54	2246.41
578.90	2242.05
579.25	2236.42
579.60	2231.55
579.95	2226.45
580.30	2221.35
580.66	2216.02
581.01	2211.03
581.36	2206.04
581.71	2201.89
582.06	2197.14
582.42	2192.55
582.77	2187.38
583.12	2182.68
583.47	2177.84
583.82	2172.66
584.17	2167.24
584.53	2161.74
584.88	2156.02
585.23	2150.13
585.58	2144.44
585.93	2139.03
586.28	2134.17
586.63	2128.94
586.98	2123.92
587.34	2119.32
587.69	2114.37
588.04	2109.11
588.39	2103.20
588.74	2096.61
589.09	2090.38
589.44	2083.48
589.79	2077.50
590.14	2071.74
590.49	2065.10
590.84	2058.62
591.19	2052.56
591.54	2046.04
591.89	2038.31
592.25	2031.40
592.60	2024.13
592.95	2016.35
593.30	2008.97
593.65	2001.30
594.00	1994.21
594.35	1986.81
594.70	1978.59
595.05	1971.27
595.40	1963.85
595.75	1956.32
596.10	1949.92
596.45	1943.00
596.80	1936.80
597.15	1929.82
597.50	1922.59
597.85	1916.11
598.19	1909.32
598.54	1902.21
598.89	1895.41
599.24	1889.53
599.59	1882.70
599.94	1876.41
600.29	1870.32
600.64	1863.58
600.99	1856.04
601.34	1849.22
601.69	1842.08
602.04	1835.04
602.39	1827.56
602.74	1820.77
603.08	1814.02
603.43	1807.43
603.78	1800.20
604.13	1793.10
604.48	1785.86
604.83	1779.16
605.18	1772.16
605.53	1764.05
605.87	1755.84
606.22	1748.62
606.57	1740.81
606.92	1733.60
607.27	1726.37
607.62	1719.17
607.96	1711.80
608.31	1705.16
608.66	1697.41
609.01	1689.86
609.36	1682.28
609.70	1674.34
610.05	1666.19
610.40	1658.38
610.75	1650.00
611.10	1642.36
611.44	1633.95
611.79	1625.96
612.14	1617.21
612.49	1608.16
612.83	1599.91
613.18	1592.00
613.53	1583.97
613.88	1575.35
614.22	1567.02
614.57	1558.56
614.92	1550.59
615.27	1543.11
615.61	1534.85
615.96	1526.93
616.31	1519.36
616.65	1512.14
617.00	1504.55
617.35	1496.94
617.70	1488.73
618.04	1480.17
618.39	1471.94
618.74	1464.35
619.08	1456.24
619.43	1448.70
619.78	1441.80
620.12	1434.75
620.47	1427.14
620.82	1419.11
621.16	1411.73
621.51	1404.18
621.85	1396.45
622.20	1388.03
622.55	1379.80
622.89	1371.97
623.24	1364.41
623.59	1357.13
623.93	1349.59
624.28	1342.40
624.62	1334.90
624.97	1327.80
625.32	1321.00
625.66	1313.99
626.01	1306.74
626.35	1299.13
626.70	1291.34
627.04	1283.56
627.39	1275.72
627.73	1268.35
628.08	1261.30
628.43	1254.01
628.77	1246.64
629.12	1239.17
629.46	1231.98
629.81	1224.57
630.15	1217.42
630.50	1209.98
630.84	1201.69
631.19	1193.84
631.53	1186.30
631.88	1178.79
632.22	1171.10
632.57	1163.99
632.91	1156.54
633.26	1149.23
633.60	1142.04
633.95	1134.99
634.29	1128.03
634.64	1121.43
634.98	1114.08
635.32	1107.01
635.67	1100.44
636.01	1093.82
636.36	1086.96
636.70	1080.53
637.05	1073.98
637.39	1067.47
637.73	1060.96
638.08	1055.14
638.42	1049.16
638.77	1042.77
639.11	1036.15
639.45	1029.80
639.80	1023.11
640.14	1016.59
640.49	1010.12
640.83	1003.77
641.17	997.54
641.52	991.21
641.86	984.89
642.20	979.07
642.55	972.95
642.89	966.54
643.23	960.06
643.58	954.31
643.92	948.08
644.26	941.94
644.61	936.02
644.95	930.04
645.29	923.41
645.64	916.63
645.98	910.26
646.32	904.50
646.66	898.53
647.01	892.78
647.35	887.16
647.69	881.31
648.04	875.80
648.38	870.02
648.72	863.95
649.06	857.83
649.41	851.99
649.75	845.84
650.09	839.86
650.43	834.03
650.78	827.89
651.12	821.96
651.46	816.28
651.80	810.43
652.14	805.01
652.49	799.75
652.83	794.64
653.17	789.10
653.51	783.30
653.85	777.93
654.20	772.28
654.54	766.21
654.88	760.48
655.22	754.68
655.56	749.04
655.90	743.66
656.25	738.34
656.59	732.96
656.93	727.93
657.27	722.74
657.61	717.39
657.95	712.36
658.29	707.24
658.64	702.07
658.98	696.82
659.32	691.42
659.66	686.16
660.00	680.76
660.34	675.83
660.68	671.03
661.02	665.98
661.36	661.26
661.70	656.87
662.05	652.60
662.39	648.21
662.73	643.78
663.07	639.41
663.41	635.04
663.75	630.54
664.09	625.94
664.43	621.67
664.77	617.54
665.11	613.27
665.45	609.19
665.79	605.06
666.13	600.88
666.47	596.80
666.81	592.63
667.15	588.59
667.49	584.70
667.83	580.88
668.17	576.94
668.51	572.90
668.85	568.89
669.19	564.96
669.53	561.16
669.87	557.24
670.21	553.50
670.55	549.81
670.89	546.43
671.23	543.04
671.57	539.46
671.91	535.93
672.25	532.50
672.58	529.00
672.92	525.68
673.26	522.58
673.60	519.47
673.94	516.45
674.28	513.60
674.62	510.65
674.96	507.54
675.30	504.69
675.64	501.79
675.97	499.01
676.31	496.22
676.65	493.28
676.99	490.64
677.33	487.86
677.67	485.16
678.01	482.08
678.34	479.12
678.68	476.36
679.02	473.55
679.36	470.84
679.70	468.16
680.04	465.35
680.37	462.53
680.71	459.72
681.05	457.09
681.39	454.36
681.73	451.72
682.06	449.25
682.40	446.73
682.74	444.21
683.08	441.74
683.42	439.11
683.75	436.64
684.09	434.14
684.43	431.65
684.77	429.18
685.10	426.93
685.44	424.68
685.78	422.37
686.12	420.12
686.45	417.81
686.79	415.53
687.13	413.38
687.46	411.24
687.80	409.11
688.14	406.90
688.48	404.87
688.81	402.65
689.15	400.49
689.49	398.31
689.82	396.27
690.16	394.19
690.50	392.27
690.83	390.39
691.17	388.37
691.51	386.52
691.84	384.67
692.18	382.72
692.52	380.74
692.85	378.86
693.19	377.01
693.52	375.19
693.86	373.43
694.20	371.63
694.53	369.84
694.87	368.00
695.21	366.21
695.54	364.43
695.88	362.68
696.21	361.02
696.55	359.36
696.88	357.69
697.22	356.01
697.56	354.37
697.89	352.67
698.23	351.06
698.56	349.46
698.90	347.84
699.23	346.21
699.57	344.74
699.90	343.13
700.24	341.60
700.58	340.09
700.91	338.54
701.25	337.10
701.58	335.72
701.92	334.37
702.25	333.03
702.59	331.62
702.92	330.28
703.26	328.94
703.59	327.64
703.93	326.39
704.26	325.20
704.60	323.91
704.93	322.65
705.26	321.42
705.60	320.25
705.93	319.10
706.27	318.06
706.60	316.93
706.94	315.87
707.27	314.76
707.61	313.74
707.94	312.73
708.27	311.64
708.61	310.59
708.94	309.59
709.28	308.59
709.61	307.65
709.94	306.73
710.28	305.70
710.61	304.73
710.95	303.68
711.28	302.76
711.61	301.82
711.95	300.89
712.28	299.96
712.61	298.97
712.95	298.06
713.28	297.20
713.61	296.33
713.95	295.46
714.28	294.61
714.61	293.71
714.95	292.91
715.28	292.07
715.61	291.20
715.95	290.37
716.28	289.54
716.61	288.67
716.95	287.90
717.28	287.17
717.61	286.45
717.94	285.72
718.28	284.88
718.61	284.13
718.94	283.47
719.27	282.84
719.61	282.23
719.94	281.59
720.27	280.85
720.60	280.18
720.94	279.55
721.27	278.96
721.60	278.40
721.93	277.72
722.27	277.14
722.60	276.57
722.93	275.99
723.26	275.44
723.59	274.90
723.93	274.34
724.26	273.82
724.59	273.27
724.92	272.77
725.25	272.31
725.59	271.84
725.92	271.33
726.25	270.80
726.58	270.28
726.91	269.78
727.24	269.32
727.57	268.85
727.91	268.32
728.24	267.86
728.57	267.39
728.90	266.97
729.23	266.51
729.56	266.11
729.89	265.64
730.22	265.16
730.55	264.72
730.89	264.25
731.22	263.80
731.55	263.30
731.88	262.84
732.21	262.40
732.54	261.95
732.87	261.55
733.20	261.14
733.53	260.80
733.86	260.43
734.19	260.00
734.52	259.62
734.85	259.34
735.18	258.94
735.51	258.55
735.84	258.18
736.17	257.86
736.50	257.43
736.83	257.17
737.16	256.86
737.49	256.53
737.82	256.22
738.15	255.84
738.48	255.53
738.81	255.20
739.14	254.89
739.47	254.57
739.80	254.25
740.13	253.93
740.46	253.59
740.79	253.25
741.12	252.98
741.45	252.62
741.78	252.24
742.11	251.94
742.44	251.61
742.77	251.33
743.10	251.00
743.43	250.72
743.75	250.34
744.08	250.19
744.41	249.88
744.74	249.58
745.07	249.33
745.40	249.08
745.73	248.87
746.06	248.59
746.39	248.34
746.71	248.09
747.04	247.79
747.37	247.51
747.70	247.26
748.03	247.03
748.36	246.83
748.68	246.62
749.01	246.33
749.34	246.13
749.67	245.90
750.00	245.68
750.33	245.54
750.65	245.37
750.98	245.02
751.31	244.81
751.64	244.62
751.97	244.43
752.29	244.24
752.62	243.96
752.95	243.75
753.28	243.51
753.60	243.28
753.93	243.14
754.26	242.95
754.59	242.72
754.91	242.48
755.24	242.29
755.57	242.14
755.90	242.02
756.22	241.80
756.55	241.59
756.88	241.39
757.20	241.14
757.53	240.92
757.86	240.70
758.19	240.57
758.51	240.41
758.84	240.23
759.17	240.05
759.49	239.91
759.82	239.80
760.15	239.67
760.47	239.52
760.80	239.37
761.13	239.23
761.45	239.08
761.78	238.95
762.11	238.82
762.43	238.66
762.76	238.50
763.08	238.39
763.41	238.27
763.74	238.16
764.06	238.03
764.39	237.90
764.71	237.80
765.04	237.69
765.37	237.56
765.69	237.41
766.02	237.29
766.34	237.14
766.67	236.96
767.00	236.88
767.32	236.84
767.65	236.75
767.97	236.65
768.30	236.56
768.62	236.48
768.95	236.35
769.27	236.22
769.60	236.13
769.92	236.00
770.25	235.87
770.57	235.73
770.90	235.65
771.22	235.57
771.55	235.47
771.87	235.35
772.20	235.28
772.52	235.29
772.85	235.32
773.17	235.24
773.50	235.15
773.82	235.04
774.15	234.89
774.47	234.75
774.80	234.66
775.12	234.56
775.45	234.44
775.77	234.34
776.09	234.28
776.42	234.16
776.74	234.11
777.07	234.00
777.39	233.92
777.72	233.81
778.04	233.73
778.36	233.66
778.69	233.56
779.01	233.48
779.33	233.30
779.66	233.09
779.98	233.01
780.31	232.95
780.63	232.93
780.95	232.86
781.28	232.78
781.60	232.70
781.92	232.66
782.25	232.58
782.57	232.54
782.89	232.49
783.22	232.44
783.54	232.34
783.86	232.32
784.19	232.26
784.51	232.22
784.83	232.14
785.16	232.09
785.48	232.03
785.80	231.98
786.12	231.92
786.45	231.86
786.77	231.81
787.09	231.74
787.42	231.64
787.74	231.63
788.06	231.58
788.38	231.52
788.71	231.46
789.03	231.41
789.35	231.37
789.67	231.33
789.99	231.29
790.32	231.23
790.64	231.17
790.96	231.22
791.28	231.17
791.61	231.12
791.93	231.08
792.25	231.04
792.57	231.04
792.89	230.97
793.21	230.95
793.54	230.94
793.86	230.92
794.18	230.91
794.50	230.87
794.82	230.85
795.14	230.83
795.47	230.80
795.79	230.79
796.11	230.75
796.43	230.68
796.75	230.64
797.07	230.64
797.39	230.65
797.71	230.53
798.04	230.50
798.36	230.50
798.68	230.48
799.00	230.47
799.32	230.41
799.64	230.45
799.96	230.43
800.28	230.44
800.60	230.40
800.92	230.38
801.24	230.31
801.56	230.29
801.89	230.26
802.21	230.27
802.53	230.24
802.85	230.23
803.17	230.28
803.49	230.25
803.81	230.21
804.13	230.17
804.45	230.15
804.77	230.17
805.09	230.11
805.41	230.07
805.73	230.05
806.05	230.01
806.37	229.98
806.69	229.97
807.01	229.88
807.33	229.86
807.65	229.84
807.97	229.87
808.28	229.84
808.60	229.84
808.92	229.78
809.24	229.84
809.56	229.80
809.88	229.74
810.20	229.73
810.52	229.72
810.84	229.68
811.16	229.62
811.48	229.56
811.80	229.60
812.12	229.59
812.43	229.55
812.75	229.53
813.07	229.46
813.39	229.39
813.71	229.36
814.03	229.35
814.35	229.31
814.67	229.23
814.98	229.19
815.30	229.15
815.62	229.13
815.94	229.00
816.26	229.00
816.58	228.97
816.89	228.92
817.21	228.87
817.53	228.88
817.85	228.88
818.17	228.86
818.48	228.80
818.80	228.81
819.12	228.77
819.44	228.73
819.76	228.71
820.07	228.70
820.39	228.68
820.71	228.64
821.03	228.60
821.34	228.58
821.66	228.61
821.98	228.58
822.30	228.54
822.61	228.58
822.93	228.52
823.25	228.49
823.57	228.48
823.88	228.47
824.20	228.40
824.52	228.40
824.83	228.37
825.15	228.34
825.47	228.33
825.79	228.33
826.10	228.32
826.42	228.31
826.74	228.31
827.05	228.30
827.37	228.31
827.69	228.32
828.00	228.33
828.32	228.30
828.64	228.28
828.95	228.30
829.27	228.26
829.58	228.26
829.90	228.28
830.22	228.26
830.53	228.26
830.85	228.28
831.17	228.25
831.48	228.25
831.80	228.27
832.11	228.25
832.43	228.25
832.75	228.26
833.06	228.32
833.38	228.31
833.69	228.32
834.01	228.30
834.32	228.29
834.64	228.28
834.96	228.28
835.27	228.30
835.59	228.27
835.90	228.25
836.22	228.23
836.53	228.21
836.85	228.20
837.16	228.30
837.48	228.28
837.79	228.31
838.11	228.29
838.42	228.26
838.74	228.22
839.05	228.17
839.37	228.15
839.68	228.08
840.00	228.06
840.31	228.07
840.63	228.05
840.94	228.00
841.26	227.98
841.57	227.96
841.88	227.96
842.20	227.99
842.51	227.99
842.83	228.00
843.14	228.05
843.46	228.08
843.77	228.03
844.08	228.03
844.40	228.01
844.71	227.99
845.03	228.00
845.34	227.99
845.65	228.02
845.97	228.01
846.28	228.03
846.60	228.00
846.91	227.96
847.22	227.94
847.54	227.97
847.85	227.93
848.16	227.92
848.48	227.87
848.79	227.87
849.10	227.84
849.42	227.87
849.73	227.76
850.04	227.73
850.36	227.66
850.67	227.68
850.98	227.62
851.30	227.62
851.61	227.62
851.92	227.62
852.23	227.66
852.55	227.66
852.86	227.67
853.17	227.69
853.49	227.72
853.80	227.76
854.11	227.73
854.42	227.73
854.74	227.71
855.05	227.69
855.36	227.61
855.67	227.61
855.99	227.58
856.30	227.70
856.61	227.69
856.92	227.68
857.23	227.65
857.55	227.66
857.86	227.67
858.17	227.67
858.48	227.66
858.79	227.60
859.11	227.57
859.42	227.51
859.73	227.49
860.04	227.50
860.35	227.48
860.66	227.44
860.98	227.45
861.29	227.47
861.60	227.47
861.91	227.52
862.22	227.52
862.53	227.52
862.84	227.41
863.16	227.46
863.47	227.44
863.78	227.44
864.09	227.46
864.40	227.46
864.71	227.44
865.02	227.40
865.33	227.38
865.64	227.40
865.95	227.40
866.27	227.45
866.58	227.40
866.89	227.42
867.20	227.43
867.51	227.40
867.82	227.37
868.13	227.38
868.44	227.34
868.75	227.34
869.06	227.32
869.37	227.36
869.68	227.31
869.99	227.33
870.30	227.34
870.61	227.36
870.92	227.33
871.23	227.33
871.54	227.40
871.85	227.42
872.16	227.43
872.47	227.43
872.78	227.37
873.09	227.41
873.40	227.39
873.71	227.42
874.02	227.45
874.33	227.46
874.64	227.46
874.95	227.51
875.26	227.50
875.56	227.50
875.87	227.48
876.18	227.48
876.49	227.58
876.80	227.55
877.11	227.52
877.42	227.56
877.73	227.58
878.04	227.58
878.35	227.57
878.66	227.59
878.96	227.60
879.27	227.64
879.58	227.64
879.89	227.65
880.20	227.65
880.51	227.61
880.82	227.61
881.12	227.62
881.43	227.58
881.74	227.57
882.05	227.59
882.36	227.57
882.67	227.58
882.97	227.46
883.28	227.49
883.59	227.49
883.90	227.51
884.21	227.50
884.51	227.46
884.82	227.45
885.13	227.45
885.44	227.48
885.74	227.49
886.05	227.46
886.36	227.46
886.67	227.43
886.98	227.53
887.28	227.54
887.59	227.56
887.90	227.55
888.20	227.54
888.51	227.53
888.82	227.52
889.13	227.54
889.43	227.65
889.74	227.64
890.05	227.65
890.35	227.60
890.66	227.58
890.97	227.61
891.28	227.59
891.58	227.56
891.89	227.51
892.20	227.46
892.50	227.46
892.81	227.45
893.12	227.47
893.42	227.40
893.73	227.39
894.04	227.36
894.34	227.41
894.65	227.42
894.95	227.41
895.26	227.41
895.57	227.42
895.87	227.27
896.18	227.29
896.48	227.25
896.79	227.25
897.10	227.26
897.40	227.25
897.71	227.26
898.01	227.21
898.32	227.21
898.63	227.22
898.93	227.22
899.24	227.20
899.54	227.17
899.85	227.14
900.15	227.13
900.46	227.12
900.76	227.11
901.07	227.07
901.38	227.07
901.68	227.07
901.99	227.04
902.29	227.05
902.60	227.03
902.90	227.02
903.21	226.98
903.51	226.97
903.82	226.97
904.12	226.95
904.43	226.97
904.73	226.95
905.03	226.96
905.34	227.03
905.64	227.02
905.95	227.05
906.25	227.06
906.56	227.07
906.86	227.07
907.17	227.03
907.47	227.07
907.77	227.06
908.08	227.04
908.38	227.04
908.69	227.06
908.99	227.08
909.30	227.10
909.60	227.11
909.90	227.12
910.21	227.10
910.51	227.09
910.81	227.10
911.12	227.14
911.42	227.11
911.73	227.03
912.03	227.06
912.33	227.05
912.64	227.07
912.94	227.03
913.24	227.02
913.55	227.04
913.85	227.04
914.15	227.06
914.46	227.05
914.76	227.03
915.06	227.02
915.37	227.01
915.67	227.01
915.97	227.07
916.27	227.06
916.58	227.04
916.88	227.05
917.18	227.04
917.49	227.10
917.79	227.13
918.09	227.15
918.39	227.16
918.70	227.13
919.00	227.10
919.30	227.19
919.60	227.21
919.91	227.18
920.21	227.18
920.51	227.18
920.81	227.19
921.12	227.22
921.42	227.21
921.72	227.21
922.02	227.21
922.32	227.20
922.63	227.19
922.93	227.26
923.23	227.30
923.53	227.31
923.83	227.25
924.13	227.25
924.44	227.26
924.74	227.28
925.04	227.33
925.34	227.34
925.64	227.29
925.94	227.28
926.24	227.34
926.55	227.32
926.85	227.30
927.15	227.32
927.45	227.34
927.75	227.34
928.05	227.34
928.35	227.34
928.65	227.35
928.95	227.35
929.26	227.29
929.56	227.29
929.86	227.28
930.16	227.30
930.46	227.29
930.76	227.25
931.06	227.21
931.36	227.18
931.66	227.20
931.96	227.21
932.26	227.20
932.56	227.19
932.86	227.20
933.16	227.22
933.46	227.20
933.76	227.19
934.06	227.21
934.36	227.24
934.66	227.22
934.96	227.21
935.26	227.23
935.56	227.26
935.86	227.22
936.16	227.21
936.46	227.18
936.76	227.14
937.06	227.17
937.36	227.16
937.66	227.17
937.96	227.15
938.26	227.11
938.56	227.08
938.86	227.04
939.16	227.11
939.46	227.10
939.76	227.10
940.06	227.06
940.35	227.04
940.65	226.98
940.95	227.00
941.25	226.97
941.55	226.93
941.85	226.91
942.15	226.95
942.45	226.96
942.75	226.98
943.04	227.01
943.34	227.00
943.64	227.03
943.94	227.00
944.24	227.02
944.54	227.04
944.84	227.05
945.13	227.06
945.43	226.98
945.73	226.98
946.03	226.96
946.33	226.99
946.62	226.95
946.92	226.95
947.22	226.95
947.52	226.95
947.82	226.98
948.11	226.97
948.41	226.94
948.71	226.94
949.01	226.92
949.31	226.92
949.60	226.92
949.90	226.90
950.20	226.89
950.50	226.86
950.79	226.88
951.09	226.91
951.39	226.92
951.69	226.94
951.98	226.95
952.28	226.96
952.58	226.95
952.87	227.00
953.17	227.00
953.47	226.98
953.76	226.99
954.06	226.96
954.36	226.94
954.66	226.93
954.95	226.95
955.25	226.96
955.55	226.97
955.84	226.94
956.14	226.97
956.44	227.00
956.73	227.00
957.03	226.97
957.32	226.98
957.62	226.97
957.92	226.95
958.21	226.94
958.51	227.04
958.81	227.05
959.10	227.04
959.40	227.09
959.69	227.09
959.99	227.11
960.29	227.12
960.58	227.13
960.88	227.19
961.17	227.18
961.47	227.18
961.76	227.18
962.06	227.19
962.36	227.19
962.65	227.19
962.95	227.18
963.24	227.22
963.54	227.23
963.83	227.22
964.13	227.22
964.42	227.19
964.72	227.12
965.01	227.13
965.31	227.15
965.60	227.15
965.90	227.25
966.19	227.22
966.49	227.23
966.78	227.26
967.08	227.25
967.37	227.29
967.67	227.24
967.96	227.26
968.26	227.27
968.55	227.28
968.85	227.27
969.14	227.28
969.43	227.28
969.73	227.25
970.02	227.25
970.32	227.25
970.61	227.28
970.91	227.26
971.20	227.23
971.49	227.20
971.79	227.19
972.08	227.10
972.38	227.13
972.67	227.15
972.96	227.13
973.26	227.10
973.55	227.11
973.85	227.18
974.14	227.13
974.43	227.14
974.73	227.10
975.02	227.10
975.31	227.10
975.61	227.07
975.90	227.03
976.19	227.02
976.49	227.02
976.78	226.99
977.07	227.01
977.37	227.03
977.66	227.02
977.95	227.00
978.24	226.98
978.54	226.99
978.83	226.96
979.12	226.95
979.42	226.96
979.71	226.92
980.00	226.89
980.29	226.92
980.59	226.91
980.88	226.95
981.17	226.92
981.46	226.94
981.76	226.92
982.05	226.97
982.34	227.00
982.63	227.00
982.93	227.02
983.22	227.02
983.51	226.99
983.80	227.00
984.09	227.03
984.39	227.00
984.68	227.00
984.97	226.99
985.26	227.00
985.55	227.01
985.85	226.96
986.14	226.96
986.43	226.96
986.72	226.94
987.01	226.89
987.30	226.90
987.59	226.88
987.89	226.91
988.18	226.89
988.47	226.88
988.76	226.88
989.05	226.87
989.34	226.88
989.63	226.92
989.92	226.93
990.22	226.90
990.51	226.94
990.80	226.91
991.09	226.90
991.38	226.94
991.67	226.92
991.96	226.99
992.25	227.00
992.54	226.99
992.83	227.00
993.12	227.00
993.41	227.03
993.70	227.09
993.99	227.12
994.28	227.14
994.58	227.16
994.87	227.17
995.16	227.20
995.45	227.19
995.74	227.18
996.03	227.23
996.32	227.28
996.61	227.29
996.90	227.30
997.19	227.34
997.48	227.33
997.77	227.35
998.06	227.32
998.34	227.32
998.63	227.34
998.92	227.32
999.21	227.36
999.50	227.37
999.79	227.33
1000.08	227.34
1000.37	227.33
1000.66	227.32
1000.95	227.36
1001.24	227.36
1001.53	227.39
1001.82	227.36
1002.11	227.31
1002.40	227.30
1002.68	227.34
1002.97	227.40
1003.26	227.37
1003.55	227.33
1003.84	227.31
1004.13	227.35
1004.42	227.33
1004.71	227.32
1004.99	227.30
1005.28	227.32
1005.57	227.28
1005.86	227.27
1006.15	227.23
1006.44	227.21
1006.72	227.20
1007.01	227.19
1007.30	227.18
1007.59	227.13
1007.88	227.13
1008.17	227.13
1008.45	227.12
1008.74	227.08
1009.03	227.06
1009.32	227.07
1009.60	227.07
1009.89	227.05
1010.18	227.00
1010.47	227.01
1010.76	226.99
1011.04	227.03
1011.33	227.07
1011.62	227.07
1011.91	227.05
1012.19	227.08
1012.48	227.08
1012.77	227.06
1013.05	227.06
1013.34	227.08
1013.63	227.10
1013.92	227.13
1014.20	227.09
1014.49	227.09
1014.78	227.06
1015.06	227.00
1015.35	227.00
1015.64	227.00
1015.92	227.01
1016.21	227.00
1016.50	227.01
1016.78	227.02
1017.07	227.00
1017.36	226.92
1017.64	226.91
1017.93	226.94
1018.22	226.89
1018.50	226.92
1018.79	226.92
1019.08	226.88
1019.36	226.83
1019.65	226.80
1019.93	226.80
1020.22	226.84
1020.51	226.88
1020.79	226.87
1021.08	226.69
1021.36	227.12
1021.65	226.62
1021.94	226.77
1022.22	226.30
1022.51	226.69
1022.79	227.39
1023.08	227.48
1023.36	227.84
1023.65	226.43
>>>>>End Processed Spectral Data<<<<<
