SpectraSuite Data File
++++++++++++++++++++++++++++++++++++
Date: Fri Feb 01 15:21:22 EST 2013
User: group
Dark Spectrum Present: No
Reference Spectrum Present: No
Number of Sampled Component Spectra: 1
Spectrometers: USB2E7196
Integration Time (usec): 35000 (USB2E7196)
Spectra Averaged: 100 (USB2E7196)
Boxcar Smoothing: 10 (USB2E7196)
Correct for Electrical Dark: No (USB2E7196)
Strobe/Lamp Enabled: No (USB2E7196)
Correct for Detector Non-linearity: No (USB2E7196)
Correct for Stray Light: No (USB2E7196)
Number of Pixels in Processed Spectrum: 2048
>>>>>Begin Processed Spectral Data<<<<<
339.09	0.00
339.48	215.12
339.86	216.92
340.24	217.84
340.63	219.40
341.01	221.66
341.39	222.35
341.78	223.31
342.16	223.94
342.54	225.14
342.93	213.37
343.31	224.17
343.69	224.71
344.07	225.16
344.46	225.59
344.84	225.97
345.22	226.23
345.60	226.47
345.99	226.65
346.37	226.80
346.75	226.87
347.13	226.95
347.52	227.02
347.90	227.08
348.28	227.14
348.66	227.18
349.05	227.20
349.43	227.27
349.81	227.29
350.19	227.34
350.57	227.39
350.96	227.45
351.34	227.51
351.72	227.59
352.10	227.70
352.48	227.77
352.87	227.82
353.25	227.87
353.63	227.92
354.01	227.97
354.39	228.05
354.77	228.14
355.15	228.23
355.54	228.28
355.92	228.34
356.30	228.38
356.68	228.50
357.06	228.56
357.44	228.57
357.82	228.67
358.20	228.72
358.58	228.75
358.97	228.79
359.35	228.86
359.73	228.94
360.11	228.98
360.49	229.02
360.87	229.08
361.25	229.15
361.63	229.22
362.01	229.30
362.39	229.33
362.77	229.40
363.15	229.40
363.53	229.42
363.91	229.43
364.29	229.45
364.67	229.37
365.05	229.38
365.43	229.44
365.81	229.42
366.19	229.45
366.57	229.49
366.95	229.51
367.33	229.48
367.71	229.44
368.09	229.41
368.47	229.37
368.85	229.32
369.23	229.27
369.61	229.21
369.99	229.19
370.37	229.16
370.75	229.14
371.13	229.09
371.51	229.03
371.89	229.00
372.27	228.91
372.65	228.87
373.03	228.81
373.41	228.72
373.78	228.68
374.16	228.58
374.54	228.48
374.92	228.38
375.30	228.30
375.68	228.20
376.06	228.12
376.44	228.06
376.82	227.97
377.19	227.91
377.57	227.85
377.95	227.73
378.33	227.65
378.71	227.50
379.09	227.45
379.47	227.41
379.84	227.33
380.22	227.28
380.60	227.19
380.98	227.15
381.36	227.09
381.73	226.99
382.11	226.96
382.49	226.87
382.87	226.81
383.25	226.73
383.62	226.78
384.00	226.74
384.38	226.70
384.76	226.69
385.13	226.70
385.51	226.67
385.89	226.65
386.27	226.64
386.64	226.62
387.02	226.58
387.40	226.49
387.78	226.49
388.15	226.46
388.53	226.42
388.91	226.37
389.29	226.37
389.66	226.39
390.04	226.34
390.42	226.35
390.79	226.35
391.17	226.36
391.55	226.28
391.92	226.31
392.30	226.32
392.68	226.35
393.05	226.33
393.43	226.33
393.81	226.30
394.18	226.29
394.56	226.31
394.94	226.35
395.31	226.40
395.69	226.39
396.06	226.47
396.44	226.53
396.82	226.57
397.19	226.64
397.57	226.68
397.95	226.76
398.32	226.79
398.70	226.85
399.07	226.96
399.45	227.04
399.82	227.08
400.20	227.12
400.58	227.16
400.95	227.22
401.33	227.30
401.70	227.48
402.08	227.57
402.45	227.67
402.83	227.81
403.20	227.93
403.58	228.06
403.95	228.19
404.33	228.35
404.71	228.49
405.08	228.65
405.46	228.80
405.83	228.95
406.21	229.13
406.58	229.34
406.96	229.49
407.33	229.68
407.70	229.86
408.08	230.16
408.45	230.37
408.83	230.61
409.20	230.83
409.58	231.01
409.95	231.30
410.33	231.57
410.70	231.81
411.08	232.08
411.45	232.41
411.82	232.69
412.20	233.03
412.57	233.40
412.95	233.70
413.32	234.11
413.69	234.50
414.07	234.94
414.44	235.38
414.82	235.85
415.19	236.41
415.56	237.01
415.94	237.58
416.31	238.22
416.68	238.86
417.06	239.59
417.43	240.25
417.81	240.98
418.18	241.76
418.55	242.60
418.93	243.51
419.30	244.40
419.67	245.35
420.04	246.29
420.42	247.29
420.79	248.48
421.16	249.64
421.54	250.82
421.91	252.04
422.28	253.31
422.66	254.64
423.03	255.91
423.40	257.23
423.77	258.60
424.15	260.03
424.52	261.51
424.89	263.14
425.26	264.70
425.64	266.19
426.01	267.78
426.38	269.44
426.75	271.11
427.13	272.87
427.50	274.70
427.87	276.63
428.24	278.48
428.61	280.22
428.99	282.15
429.36	284.29
429.73	286.33
430.10	288.34
430.47	290.39
430.85	292.52
431.22	294.77
431.59	297.13
431.96	299.37
432.33	301.90
432.70	304.24
433.08	307.09
433.45	309.74
433.82	312.35
434.19	315.27
434.56	318.09
434.93	320.74
435.30	323.36
435.68	326.25
436.05	329.12
436.42	331.93
436.79	334.48
437.16	337.14
437.53	340.02
437.90	342.88
438.27	345.66
438.64	348.49
439.01	351.03
439.38	353.33
439.75	355.54
440.13	358.01
440.50	360.37
440.87	362.22
441.24	364.17
441.61	366.29
441.98	367.81
442.35	369.59
442.72	371.46
443.09	373.26
443.46	374.21
443.83	374.82
444.20	375.37
444.57	376.16
444.94	376.49
445.31	376.81
445.68	377.11
446.05	377.17
446.42	376.80
446.79	376.40
447.16	375.94
447.53	375.59
447.90	374.42
448.27	373.21
448.64	371.63
449.01	370.43
449.37	368.52
449.74	366.56
450.11	364.31
450.48	361.81
450.85	359.27
451.22	357.17
451.59	355.11
451.96	353.10
452.33	350.50
452.70	348.13
453.07	345.30
453.43	342.43
453.80	339.66
454.17	336.99
454.54	334.48
454.91	331.70
455.28	329.00
455.65	326.52
456.02	324.10
456.38	321.93
456.75	319.31
457.12	317.06
457.49	314.83
457.86	312.68
458.23	310.83
458.59	308.78
458.96	306.69
459.33	304.86
459.70	303.01
460.07	301.51
460.43	299.79
460.80	298.15
461.17	296.69
461.54	295.18
461.91	293.74
462.27	292.28
462.64	291.06
463.01	289.73
463.38	288.41
463.74	287.05
464.11	285.89
464.48	284.81
464.85	283.69
465.21	282.83
465.58	281.86
465.95	280.74
466.32	279.83
466.68	278.90
467.05	277.95
467.42	277.07
467.78	276.09
468.15	275.24
468.52	274.55
468.88	273.69
469.25	272.92
469.62	272.25
469.98	271.55
470.35	270.93
470.72	270.30
471.08	269.63
471.45	269.06
471.82	268.50
472.18	267.90
472.55	267.42
472.92	266.87
473.28	266.41
473.65	265.98
474.02	265.54
474.38	265.16
474.75	264.86
475.11	264.52
475.48	264.29
475.85	264.05
476.21	263.84
476.58	263.64
476.94	263.51
477.31	263.37
477.67	263.25
478.04	263.10
478.41	263.04
478.77	263.11
479.14	263.07
479.50	263.07
479.87	263.14
480.23	263.26
480.60	263.35
480.96	263.42
481.33	263.59
481.69	263.79
482.06	263.97
482.42	264.17
482.79	264.40
483.15	264.72
483.52	265.07
483.88	265.40
484.25	265.80
484.61	266.21
484.98	266.67
485.34	267.23
485.71	267.83
486.07	268.45
486.44	269.02
486.80	269.71
487.17	270.46
487.53	271.29
487.90	272.12
488.26	273.01
488.62	273.98
488.99	274.98
489.35	276.01
489.72	277.11
490.08	278.31
490.44	279.57
490.81	280.87
491.17	282.23
491.54	283.68
491.90	285.21
492.26	286.85
492.63	288.59
492.99	290.31
493.36	292.19
493.72	294.24
494.08	296.35
494.45	298.56
494.81	300.93
495.17	303.36
495.54	305.90
495.90	308.63
496.26	311.46
496.63	314.45
496.99	317.56
497.35	320.86
497.72	324.26
498.08	327.77
498.44	331.44
498.80	335.34
499.17	339.38
499.53	343.53
499.89	347.91
500.26	352.37
500.62	357.03
500.98	362.02
501.34	367.06
501.71	372.31
502.07	377.77
502.43	383.37
502.79	389.17
503.16	395.23
503.52	401.49
503.88	407.91
504.24	414.53
504.60	421.43
504.97	428.53
505.33	435.83
505.69	443.55
506.05	451.38
506.41	459.31
506.78	467.47
507.14	475.91
507.50	484.63
507.86	493.68
508.22	502.93
508.59	512.08
508.95	521.71
509.31	531.55
509.67	541.64
510.03	551.94
510.39	562.49
510.75	573.32
511.12	584.22
511.48	595.48
511.84	606.93
512.20	618.42
512.56	630.41
512.92	642.61
513.28	654.93
513.64	667.38
514.00	680.05
514.37	692.99
514.73	706.08
515.09	719.11
515.45	732.41
515.81	746.02
516.17	760.12
516.53	774.16
516.89	788.41
517.25	802.61
517.61	817.05
517.97	831.57
518.33	846.10
518.69	860.97
519.05	876.11
519.41	891.32
519.77	907.00
520.13	922.41
520.49	937.85
520.85	953.34
521.21	969.12
521.57	985.38
521.93	1001.21
522.29	1017.63
522.65	1033.96
523.01	1050.24
523.37	1066.30
523.73	1082.41
524.09	1098.57
524.45	1115.01
524.81	1131.75
525.17	1148.62
525.53	1165.50
525.89	1182.36
526.25	1199.12
526.61	1215.46
526.97	1232.20
527.33	1248.54
527.68	1265.29
528.04	1281.78
528.40	1298.42
528.76	1315.45
529.12	1332.11
529.48	1349.11
529.84	1365.25
530.20	1382.01
530.56	1399.05
530.91	1416.56
531.27	1433.42
531.63	1450.10
531.99	1466.64
532.35	1482.63
532.71	1498.51
533.07	1514.83
533.42	1530.81
533.78	1547.01
534.14	1563.34
534.50	1578.89
534.86	1595.00
535.21	1610.21
535.57	1626.20
535.93	1641.84
536.29	1656.80
536.65	1671.91
537.00	1686.72
537.36	1702.10
537.72	1716.63
538.08	1731.28
538.44	1745.18
538.79	1759.19
539.15	1772.82
539.51	1786.60
539.87	1801.06
540.22	1815.00
540.58	1828.95
540.94	1842.43
541.29	1855.47
541.65	1868.33
542.01	1881.58
542.37	1893.90
542.72	1906.43
543.08	1918.28
543.44	1930.66
543.79	1941.95
544.15	1953.07
544.51	1964.70
544.87	1975.68
545.22	1986.62
545.58	1996.68
545.94	2006.41
546.29	2016.45
546.65	2026.36
547.01	2035.88
547.36	2044.66
547.72	2053.03
548.07	2060.83
548.43	2068.95
548.79	2076.92
549.14	2084.35
549.50	2091.70
549.86	2099.48
550.21	2106.82
550.57	2114.02
550.92	2120.55
551.28	2127.69
551.64	2134.73
551.99	2141.19
552.35	2147.42
552.70	2153.45
553.06	2159.44
553.41	2165.79
553.77	2171.70
554.13	2177.91
554.48	2183.83
554.84	2189.09
555.19	2194.58
555.55	2199.68
555.90	2204.21
556.26	2209.04
556.61	2213.95
556.97	2218.05
557.32	2222.12
557.68	2226.23
558.03	2230.61
558.39	2234.48
558.74	2239.07
559.10	2242.75
559.45	2246.45
559.81	2250.68
560.16	2254.55
560.52	2257.86
560.87	2261.32
561.23	2263.91
561.58	2266.76
561.94	2269.32
562.29	2271.77
562.64	2274.28
563.00	2277.04
563.35	2280.52
563.71	2283.71
564.06	2286.71
564.42	2289.60
564.77	2292.07
565.12	2294.29
565.48	2295.98
565.83	2297.79
566.19	2298.85
566.54	2299.98
566.89	2301.12
567.25	2301.58
567.60	2302.88
567.96	2304.43
568.31	2305.15
568.66	2306.18
569.02	2306.60
569.37	2306.90
569.72	2307.70
570.08	2307.80
570.43	2307.74
570.78	2307.00
571.14	2305.36
571.49	2304.03
571.84	2303.71
572.20	2302.47
572.55	2301.33
572.90	2299.93
573.26	2298.37
573.61	2296.78
573.96	2294.85
574.31	2291.86
574.67	2288.87
575.02	2285.08
575.37	2281.65
575.72	2277.75
576.08	2274.37
576.43	2270.97
576.78	2267.11
577.13	2263.87
577.49	2260.82
577.84	2257.15
578.19	2253.34
578.54	2249.61
578.90	2245.30
579.25	2239.58
579.60	2234.50
579.95	2229.38
580.30	2224.20
580.66	2219.04
581.01	2213.96
581.36	2208.99
581.71	2204.66
582.06	2200.17
582.42	2195.61
582.77	2190.27
583.12	2185.66
583.47	2180.85
583.82	2175.89
584.17	2170.48
584.53	2164.82
584.88	2158.94
585.23	2153.05
585.58	2147.49
585.93	2141.86
586.28	2137.03
586.63	2131.90
586.98	2126.77
587.34	2122.10
587.69	2117.17
588.04	2111.90
588.39	2106.06
588.74	2099.58
589.09	2093.24
589.44	2086.25
589.79	2080.30
590.14	2074.71
590.49	2068.03
590.84	2061.48
591.19	2055.25
591.54	2048.79
591.89	2041.21
592.25	2034.34
592.60	2027.07
592.95	2019.35
593.30	2012.00
593.65	2004.32
594.00	1997.28
594.35	1990.04
594.70	1981.89
595.05	1974.58
595.40	1967.12
595.75	1959.58
596.10	1953.09
596.45	1946.37
596.80	1940.10
597.15	1933.23
597.50	1925.91
597.85	1919.45
598.19	1912.80
598.54	1905.77
598.89	1899.21
599.24	1893.38
599.59	1886.66
599.94	1880.43
600.29	1874.28
600.64	1867.73
600.99	1860.27
601.34	1853.26
601.69	1846.21
602.04	1839.26
602.39	1831.73
602.74	1824.93
603.08	1818.27
603.43	1811.60
603.78	1804.26
604.13	1797.10
604.48	1789.86
604.83	1783.13
605.18	1776.06
605.53	1767.96
605.87	1759.66
606.22	1752.52
606.57	1744.59
606.92	1737.23
607.27	1730.05
607.62	1723.00
607.96	1715.57
608.31	1708.82
608.66	1701.35
609.01	1693.68
609.36	1686.09
609.70	1678.09
610.05	1669.89
610.40	1662.10
610.75	1653.82
611.10	1646.17
611.44	1637.81
611.79	1629.79
612.14	1621.06
612.49	1612.02
612.83	1603.71
613.18	1595.75
613.53	1587.48
613.88	1578.97
614.22	1570.73
614.57	1562.20
614.92	1554.04
615.27	1546.42
615.61	1538.05
615.96	1530.00
616.31	1522.53
616.65	1515.17
617.00	1507.73
617.35	1500.19
617.70	1491.80
618.04	1483.16
618.39	1474.98
618.74	1467.31
619.08	1459.04
619.43	1451.47
619.78	1444.46
620.12	1437.26
620.47	1429.66
620.82	1421.53
621.16	1414.09
621.51	1406.52
621.85	1398.77
622.20	1390.27
622.55	1382.09
622.89	1374.26
623.24	1366.56
623.59	1359.30
623.93	1351.79
624.28	1344.44
624.62	1336.83
624.97	1329.68
625.32	1323.10
625.66	1315.92
626.01	1308.73
626.35	1301.25
626.70	1293.41
627.04	1285.70
627.39	1278.00
627.73	1270.60
628.08	1263.51
628.43	1256.18
628.77	1248.72
629.12	1241.13
629.46	1233.93
629.81	1226.54
630.15	1219.38
630.50	1212.01
630.84	1203.62
631.19	1195.73
631.53	1188.26
631.88	1180.77
632.22	1173.17
632.57	1165.77
632.91	1158.34
633.26	1150.92
633.60	1143.56
633.95	1136.55
634.29	1129.54
634.64	1122.81
634.98	1115.52
635.32	1108.58
635.67	1101.99
636.01	1095.41
636.36	1088.70
636.70	1082.38
637.05	1075.76
637.39	1069.35
637.73	1062.87
638.08	1057.03
638.42	1051.03
638.77	1044.51
639.11	1037.82
639.45	1031.51
639.80	1024.85
640.14	1018.33
640.49	1011.81
640.83	1005.58
641.17	999.29
641.52	992.87
641.86	986.56
642.20	980.73
642.55	974.46
642.89	968.10
643.23	961.60
643.58	955.87
643.92	949.56
644.26	943.49
644.61	937.46
644.95	931.34
645.29	924.70
645.64	917.82
645.98	911.65
646.32	905.86
646.66	899.75
647.01	894.01
647.35	888.33
647.69	882.55
648.04	877.00
648.38	871.17
648.72	865.30
649.06	859.20
649.41	853.20
649.75	847.12
650.09	841.07
650.43	835.25
650.78	829.03
651.12	823.07
651.46	817.40
651.80	811.58
652.14	806.34
652.49	801.03
652.83	796.02
653.17	790.17
653.51	784.40
653.85	779.06
654.20	773.44
654.54	767.48
654.88	761.71
655.22	755.84
655.56	750.25
655.90	744.75
656.25	739.39
656.59	734.11
656.93	729.06
657.27	723.89
657.61	718.43
657.95	713.42
658.29	708.34
658.64	703.11
658.98	697.84
659.32	692.30
659.66	687.05
660.00	681.71
660.34	676.82
660.68	671.96
661.02	666.95
661.36	662.22
661.70	657.73
662.05	653.39
662.39	649.03
662.73	644.57
663.07	640.24
663.41	635.88
663.75	631.36
664.09	626.82
664.43	622.50
664.77	618.42
665.11	614.15
665.45	610.09
665.79	606.01
666.13	601.94
666.47	597.95
666.81	593.83
667.15	589.71
667.49	585.89
667.83	582.13
668.17	578.19
668.51	574.15
668.85	570.15
669.19	566.33
669.53	562.48
669.87	558.58
670.21	554.82
670.55	551.19
670.89	547.82
671.23	544.37
671.57	540.88
671.91	537.41
672.25	533.92
672.58	530.34
672.92	526.97
673.26	523.81
673.60	520.63
673.94	517.48
674.28	514.61
674.62	511.63
674.96	508.49
675.30	505.54
675.64	502.61
675.97	499.89
676.31	496.99
676.65	494.10
676.99	491.38
677.33	488.55
677.67	485.69
678.01	482.62
678.34	479.66
678.68	476.78
679.02	473.90
679.36	471.12
679.70	468.44
680.04	465.61
680.37	462.68
680.71	459.84
681.05	457.26
681.39	454.58
681.73	451.95
682.06	449.41
682.40	446.86
682.74	444.35
683.08	441.76
683.42	439.21
683.75	436.71
684.09	434.24
684.43	431.80
684.77	429.37
685.10	427.02
685.44	424.72
685.78	422.41
686.12	420.21
686.45	417.96
686.79	415.65
687.13	413.50
687.46	411.37
687.80	409.31
688.14	407.08
688.48	404.95
688.81	402.69
689.15	400.59
689.49	398.45
689.82	396.38
690.16	394.29
690.50	392.32
690.83	390.35
691.17	388.41
691.51	386.51
691.84	384.64
692.18	382.74
692.52	380.78
692.85	378.93
693.19	376.97
693.52	375.17
693.86	373.38
694.20	371.57
694.53	369.79
694.87	367.88
695.21	366.12
695.54	364.34
695.88	362.64
696.21	360.88
696.55	359.28
696.88	357.60
697.22	355.93
697.56	354.30
697.89	352.63
698.23	351.01
698.56	349.39
698.90	347.83
699.23	346.21
699.57	344.64
699.90	343.05
700.24	341.59
700.58	340.04
700.91	338.57
701.25	337.13
701.58	335.75
701.92	334.40
702.25	333.02
702.59	331.62
702.92	330.25
703.26	328.97
703.59	327.67
703.93	326.45
704.26	325.27
704.60	323.97
704.93	322.77
705.26	321.50
705.60	320.38
705.93	319.21
706.27	318.19
706.60	317.16
706.94	316.08
707.27	314.93
707.61	313.88
707.94	312.85
708.27	311.72
708.61	310.66
708.94	309.64
709.28	308.68
709.61	307.73
709.94	306.87
710.28	305.87
710.61	304.88
710.95	303.85
711.28	302.91
711.61	301.99
711.95	301.07
712.28	300.09
712.61	299.10
712.95	298.18
713.28	297.29
713.61	296.37
713.95	295.49
714.28	294.67
714.61	293.79
714.95	292.99
715.28	292.17
715.61	291.28
715.95	290.44
716.28	289.58
716.61	288.77
716.95	287.88
717.28	287.13
717.61	286.38
717.94	285.62
718.28	284.82
718.61	284.08
718.94	283.35
719.27	282.71
719.61	282.07
719.94	281.40
720.27	280.67
720.60	280.04
720.94	279.41
721.27	278.82
721.60	278.24
721.93	277.60
722.27	277.06
722.60	276.55
722.93	276.00
723.26	275.47
723.59	274.90
723.93	274.39
724.26	273.87
724.59	273.26
724.92	272.72
725.25	272.24
725.59	271.72
725.92	271.22
726.25	270.71
726.58	270.21
726.91	269.73
727.24	269.27
727.57	268.77
727.91	268.27
728.24	267.82
728.57	267.30
728.90	266.83
729.23	266.34
729.56	265.91
729.89	265.44
730.22	264.94
730.55	264.48
730.89	264.04
731.22	263.55
731.55	263.12
731.88	262.75
732.21	262.32
732.54	261.89
732.87	261.48
733.20	261.08
733.53	260.67
733.86	260.28
734.19	259.87
734.52	259.52
734.85	259.22
735.18	258.78
735.51	258.43
735.84	258.04
736.17	257.66
736.50	257.26
736.83	257.02
737.16	256.73
737.49	256.41
737.82	256.06
738.15	255.77
738.48	255.48
738.81	255.13
739.14	254.78
739.47	254.50
739.80	254.23
740.13	253.97
740.46	253.65
740.79	253.31
741.12	253.04
741.45	252.69
741.78	252.33
742.11	252.06
742.44	251.76
742.77	251.49
743.10	251.26
743.43	250.93
743.75	250.51
744.08	250.34
744.41	250.08
744.74	249.83
745.07	249.52
745.40	249.26
745.73	249.03
746.06	248.78
746.39	248.47
746.71	248.18
747.04	247.85
747.37	247.63
747.70	247.40
748.03	247.15
748.36	246.94
748.68	246.71
749.01	246.46
749.34	246.23
749.67	245.99
750.00	245.73
750.33	245.59
750.65	245.43
750.98	245.05
751.31	244.82
751.64	244.59
751.97	244.43
752.29	244.23
752.62	243.97
752.95	243.77
753.28	243.58
753.60	243.35
753.93	243.22
754.26	243.02
754.59	242.81
754.91	242.61
755.24	242.40
755.57	242.20
755.90	242.04
756.22	241.81
756.55	241.63
756.88	241.44
757.20	241.21
757.53	241.00
757.86	240.89
758.19	240.75
758.51	240.60
758.84	240.41
759.17	240.18
759.49	240.03
759.82	239.92
760.15	239.76
760.47	239.65
760.80	239.50
761.13	239.32
761.45	239.17
761.78	239.04
762.11	238.93
762.43	238.79
762.76	238.65
763.08	238.60
763.41	238.46
763.74	238.31
764.06	238.17
764.39	238.04
764.71	237.86
765.04	237.70
765.37	237.54
765.69	237.41
766.02	237.31
766.34	237.16
766.67	236.96
767.00	236.88
767.32	236.78
767.65	236.68
767.97	236.58
768.30	236.46
768.62	236.31
768.95	236.16
769.27	236.03
769.60	235.93
769.92	235.78
770.25	235.68
770.57	235.56
770.90	235.47
771.22	235.34
771.55	235.25
771.87	235.14
772.20	235.06
772.52	235.02
772.85	235.04
773.17	234.96
773.50	234.91
773.82	234.77
774.15	234.63
774.47	234.51
774.80	234.36
775.12	234.25
775.45	234.19
775.77	234.12
776.09	234.05
776.42	233.95
776.74	233.90
777.07	233.82
777.39	233.72
777.72	233.65
778.04	233.63
778.36	233.56
778.69	233.51
779.01	233.43
779.33	233.28
779.66	233.12
779.98	233.03
780.31	232.97
780.63	232.96
780.95	232.95
781.28	232.87
781.60	232.85
781.92	232.80
782.25	232.74
782.57	232.67
782.89	232.64
783.22	232.58
783.54	232.46
783.86	232.43
784.19	232.43
784.51	232.41
784.83	232.30
785.16	232.25
785.48	232.20
785.80	232.18
786.12	232.17
786.45	232.09
786.77	232.05
787.09	231.96
787.42	231.91
787.74	231.84
788.06	231.81
788.38	231.76
788.71	231.71
789.03	231.67
789.35	231.65
789.67	231.57
789.99	231.55
790.32	231.53
790.64	231.50
790.96	231.50
791.28	231.39
791.61	231.37
791.93	231.32
792.25	231.28
792.57	231.27
792.89	231.20
793.21	231.20
793.54	231.16
793.86	231.12
794.18	231.06
794.50	231.01
794.82	231.00
795.14	230.98
795.47	230.98
795.79	230.94
796.11	230.89
796.43	230.86
796.75	230.78
797.07	230.75
797.39	230.71
797.71	230.60
798.04	230.61
798.36	230.60
798.68	230.57
799.00	230.55
799.32	230.52
799.64	230.51
799.96	230.47
800.28	230.48
800.60	230.47
800.92	230.43
801.24	230.42
801.56	230.39
801.89	230.35
802.21	230.33
802.53	230.28
802.85	230.24
803.17	230.24
803.49	230.23
803.81	230.18
804.13	230.12
804.45	230.12
804.77	230.10
805.09	230.06
805.41	230.03
805.73	229.97
806.05	229.89
806.37	229.83
806.69	229.77
807.01	229.72
807.33	229.71
807.65	229.66
807.97	229.68
808.28	229.64
808.60	229.61
808.92	229.58
809.24	229.61
809.56	229.60
809.88	229.56
810.20	229.53
810.52	229.52
810.84	229.50
811.16	229.44
811.48	229.45
811.80	229.44
812.12	229.41
812.43	229.42
812.75	229.39
813.07	229.39
813.39	229.38
813.71	229.33
814.03	229.27
814.35	229.26
814.67	229.16
814.98	229.12
815.30	229.10
815.62	229.05
815.94	228.95
816.26	228.95
816.58	228.91
816.89	228.91
817.21	228.88
817.53	228.86
817.85	228.84
818.17	228.78
818.48	228.72
818.80	228.72
819.12	228.66
819.44	228.65
819.76	228.64
820.07	228.62
820.39	228.63
820.71	228.63
821.03	228.61
821.34	228.60
821.66	228.59
821.98	228.57
822.30	228.56
822.61	228.62
822.93	228.58
823.25	228.58
823.57	228.54
823.88	228.51
824.20	228.49
824.52	228.52
824.83	228.51
825.15	228.49
825.47	228.46
825.79	228.48
826.10	228.46
826.42	228.40
826.74	228.41
827.05	228.36
827.37	228.33
827.69	228.32
828.00	228.32
828.32	228.30
828.64	228.28
828.95	228.31
829.27	228.26
829.58	228.24
829.90	228.22
830.22	228.26
830.53	228.24
830.85	228.24
831.17	228.18
831.48	228.16
831.80	228.17
832.11	228.17
832.43	228.16
832.75	228.12
833.06	228.23
833.38	228.17
833.69	228.19
834.01	228.22
834.32	228.20
834.64	228.18
834.96	228.17
835.27	228.16
835.59	228.13
835.90	228.10
836.22	228.10
836.53	228.08
836.85	228.04
837.16	228.13
837.48	228.12
837.79	228.16
838.11	228.15
838.42	228.11
838.74	228.14
839.05	228.10
839.37	228.13
839.68	228.02
840.00	228.06
840.31	228.07
840.63	228.06
840.94	228.07
841.26	228.09
841.57	228.11
841.88	228.13
842.20	228.09
842.51	228.10
842.83	228.07
843.14	228.16
843.46	228.15
843.77	228.08
844.08	228.08
844.40	228.05
844.71	228.07
845.03	228.05
845.34	228.03
845.65	228.01
845.97	227.98
846.28	227.98
846.60	227.97
846.91	227.92
847.22	227.88
847.54	227.90
847.85	227.88
848.16	227.83
848.48	227.79
848.79	227.82
849.10	227.79
849.42	227.80
849.73	227.70
850.04	227.70
850.36	227.67
850.67	227.65
850.98	227.66
851.30	227.64
851.61	227.63
851.92	227.62
852.23	227.67
852.55	227.69
852.86	227.68
853.17	227.64
853.49	227.66
853.80	227.69
854.11	227.66
854.42	227.64
854.74	227.64
855.05	227.64
855.36	227.61
855.67	227.62
855.99	227.59
856.30	227.69
856.61	227.68
856.92	227.66
857.23	227.68
857.55	227.66
857.86	227.65
858.17	227.67
858.48	227.62
858.79	227.56
859.11	227.56
859.42	227.54
859.73	227.53
860.04	227.53
860.35	227.47
860.66	227.49
860.98	227.49
861.29	227.49
861.60	227.48
861.91	227.50
862.22	227.49
862.53	227.50
862.84	227.38
863.16	227.42
863.47	227.40
863.78	227.37
864.09	227.39
864.40	227.40
864.71	227.40
865.02	227.41
865.33	227.41
865.64	227.41
865.95	227.43
866.27	227.50
866.58	227.48
866.89	227.53
867.20	227.49
867.51	227.49
867.82	227.49
868.13	227.52
868.44	227.52
868.75	227.51
869.06	227.54
869.37	227.55
869.68	227.52
869.99	227.56
870.30	227.57
870.61	227.55
870.92	227.57
871.23	227.54
871.54	227.56
871.85	227.60
872.16	227.58
872.47	227.57
872.78	227.50
873.09	227.52
873.40	227.45
873.71	227.48
874.02	227.48
874.33	227.46
874.64	227.42
874.95	227.44
875.26	227.43
875.56	227.41
875.87	227.39
876.18	227.35
876.49	227.45
876.80	227.46
877.11	227.45
877.42	227.43
877.73	227.49
878.04	227.48
878.35	227.49
878.66	227.51
878.96	227.49
879.27	227.52
879.58	227.51
879.89	227.54
880.20	227.57
880.51	227.56
880.82	227.58
881.12	227.60
881.43	227.56
881.74	227.56
882.05	227.52
882.36	227.55
882.67	227.60
882.97	227.45
883.28	227.41
883.59	227.40
883.90	227.39
884.21	227.36
884.51	227.35
884.82	227.30
885.13	227.29
885.44	227.29
885.74	227.26
886.05	227.25
886.36	227.27
886.67	227.21
886.98	227.24
887.28	227.26
887.59	227.25
887.90	227.22
888.20	227.22
888.51	227.26
888.82	227.24
889.13	227.23
889.43	227.35
889.74	227.34
890.05	227.35
890.35	227.34
890.66	227.32
890.97	227.29
891.28	227.29
891.58	227.28
891.89	227.29
892.20	227.28
892.50	227.28
892.81	227.30
893.12	227.29
893.42	227.25
893.73	227.22
894.04	227.19
894.34	227.22
894.65	227.19
894.95	227.15
895.26	227.15
895.57	227.18
895.87	227.04
896.18	227.03
896.48	227.02
896.79	227.03
897.10	227.05
897.40	227.05
897.71	227.04
898.01	227.04
898.32	227.03
898.63	227.05
898.93	227.06
899.24	227.01
899.54	227.01
899.85	227.00
900.15	227.03
900.46	227.04
900.76	227.06
901.07	227.09
901.38	227.12
901.68	227.13
901.99	227.10
902.29	227.11
902.60	227.14
902.90	227.15
903.21	227.14
903.51	227.12
903.82	227.19
904.12	227.21
904.43	227.21
904.73	227.20
905.03	227.20
905.34	227.29
905.64	227.30
905.95	227.30
906.25	227.31
906.56	227.31
906.86	227.34
907.17	227.33
907.47	227.35
907.77	227.34
908.08	227.34
908.38	227.35
908.69	227.39
908.99	227.43
909.30	227.45
909.60	227.44
909.90	227.47
910.21	227.42
910.51	227.44
910.81	227.43
911.12	227.47
911.42	227.47
911.73	227.38
912.03	227.41
912.33	227.45
912.64	227.45
912.94	227.44
913.24	227.38
913.55	227.36
913.85	227.37
914.15	227.39
914.46	227.39
914.76	227.35
915.06	227.33
915.37	227.30
915.67	227.26
915.97	227.27
916.27	227.24
916.58	227.22
916.88	227.20
917.18	227.22
917.49	227.26
917.79	227.26
918.09	227.26
918.39	227.27
918.70	227.27
919.00	227.27
919.30	227.29
919.60	227.29
919.91	227.27
920.21	227.25
920.51	227.22
920.81	227.19
921.12	227.27
921.42	227.26
921.72	227.26
922.02	227.31
922.32	227.31
922.63	227.30
922.93	227.35
923.23	227.35
923.53	227.32
923.83	227.26
924.13	227.27
924.44	227.26
924.74	227.27
925.04	227.28
925.34	227.26
925.64	227.23
925.94	227.22
926.24	227.29
926.55	227.26
926.85	227.30
927.15	227.28
927.45	227.24
927.75	227.25
928.05	227.25
928.35	227.24
928.65	227.25
928.95	227.28
929.26	227.24
929.56	227.25
929.86	227.26
930.16	227.23
930.46	227.22
930.76	227.23
931.06	227.18
931.36	227.13
931.66	227.16
931.96	227.16
932.26	227.18
932.56	227.14
932.86	227.16
933.16	227.13
933.46	227.15
933.76	227.14
934.06	227.15
934.36	227.16
934.66	227.11
934.96	227.10
935.26	227.09
935.56	227.10
935.86	227.08
936.16	227.09
936.46	227.12
936.76	227.13
937.06	227.08
937.36	227.10
937.66	227.10
937.96	227.06
938.26	227.06
938.56	227.03
938.86	227.01
939.16	227.03
939.46	227.02
939.76	227.02
940.06	227.02
940.35	226.99
940.65	226.94
940.95	226.96
941.25	226.94
941.55	226.94
941.85	226.95
942.15	226.98
942.45	227.01
942.75	227.00
943.04	226.98
943.34	227.02
943.64	227.01
943.94	227.02
944.24	227.07
944.54	227.07
944.84	227.07
945.13	227.07
945.43	227.05
945.73	227.04
946.03	227.03
946.33	227.01
946.62	227.04
946.92	227.05
947.22	227.06
947.52	227.07
947.82	227.05
948.11	227.07
948.41	227.02
948.71	226.96
949.01	226.96
949.31	226.95
949.60	226.93
949.90	226.95
950.20	226.95
950.50	226.93
950.79	226.92
951.09	226.94
951.39	226.96
951.69	226.95
951.98	227.01
952.28	227.02
952.58	227.02
952.87	227.00
953.17	226.99
953.47	227.00
953.76	227.00
954.06	226.98
954.36	226.92
954.66	226.96
954.95	226.99
955.25	226.98
955.55	226.99
955.84	226.97
956.14	226.97
956.44	226.95
956.73	226.92
957.03	226.94
957.32	226.94
957.62	226.94
957.92	226.95
958.21	226.89
958.51	226.96
958.81	227.00
959.10	227.00
959.40	227.01
959.69	227.00
959.99	227.04
960.29	227.06
960.58	227.08
960.88	227.08
961.17	227.07
961.47	227.11
961.76	227.11
962.06	227.13
962.36	227.13
962.65	227.14
962.95	227.11
963.24	227.09
963.54	227.06
963.83	227.05
964.13	227.07
964.42	227.05
964.72	227.00
965.01	226.99
965.31	226.99
965.60	226.97
965.90	227.01
966.19	226.99
966.49	227.01
966.78	227.01
967.08	227.02
967.37	227.00
967.67	226.95
967.96	226.98
968.26	226.97
968.55	226.98
968.85	227.01
969.14	227.04
969.43	227.04
969.73	227.03
970.02	227.04
970.32	227.01
970.61	227.02
970.91	226.99
971.20	226.99
971.49	226.98
971.79	226.98
972.08	226.92
972.38	226.92
972.67	226.92
972.96	226.93
973.26	226.88
973.55	226.91
973.85	226.92
974.14	226.90
974.43	226.89
974.73	226.85
975.02	226.82
975.31	226.80
975.61	226.82
975.90	226.82
976.19	226.80
976.49	226.83
976.78	226.81
977.07	226.80
977.37	226.78
977.66	226.80
977.95	226.79
978.24	226.79
978.54	226.82
978.83	226.81
979.12	226.82
979.42	226.84
979.71	226.83
980.00	226.81
980.29	226.83
980.59	226.85
980.88	226.88
981.17	226.88
981.46	226.92
981.76	226.92
982.05	226.94
982.34	227.00
982.63	226.97
982.93	227.00
983.22	227.03
983.51	227.04
983.80	227.03
984.09	227.04
984.39	227.04
984.68	227.03
984.97	227.02
985.26	226.97
985.55	227.01
985.85	227.00
986.14	227.03
986.43	227.03
986.72	227.00
987.01	226.98
987.30	227.00
987.59	226.97
987.89	227.01
988.18	226.97
988.47	226.94
988.76	226.95
989.05	226.92
989.34	226.86
989.63	226.89
989.92	226.90
990.22	226.90
990.51	226.90
990.80	226.89
991.09	226.88
991.38	226.93
991.67	226.90
991.96	226.89
992.25	226.86
992.54	226.86
992.83	226.86
993.12	226.87
993.41	226.85
993.70	226.91
993.99	226.90
994.28	226.94
994.58	226.96
994.87	226.97
995.16	227.00
995.45	227.01
995.74	226.98
996.03	226.98
996.32	227.00
996.61	227.02
996.90	227.00
997.19	226.97
997.48	226.95
997.77	226.94
998.06	226.93
998.34	226.95
998.63	226.92
998.92	226.92
999.21	226.92
999.50	226.91
999.79	226.86
1000.08	226.84
1000.37	226.82
1000.66	226.82
1000.95	226.82
1001.24	226.78
1001.53	226.81
1001.82	226.77
1002.11	226.78
1002.40	226.79
1002.68	226.81
1002.97	226.88
1003.26	226.90
1003.55	226.89
1003.84	226.90
1004.13	226.94
1004.42	226.94
1004.71	226.94
1004.99	226.95
1005.28	226.96
1005.57	226.94
1005.86	226.94
1006.15	226.95
1006.44	226.93
1006.72	226.91
1007.01	226.90
1007.30	226.94
1007.59	226.94
1007.88	226.98
1008.17	226.97
1008.45	226.94
1008.74	226.90
1009.03	226.86
1009.32	226.86
1009.60	226.85
1009.89	226.84
1010.18	226.82
1010.47	226.77
1010.76	226.77
1011.04	226.73
1011.33	226.75
1011.62	226.76
1011.91	226.74
1012.19	226.75
1012.48	226.74
1012.77	226.79
1013.05	226.84
1013.34	226.84
1013.63	226.82
1013.92	226.82
1014.20	226.81
1014.49	226.83
1014.78	226.85
1015.06	226.80
1015.35	226.82
1015.64	226.83
1015.92	226.84
1016.21	226.84
1016.50	226.88
1016.78	226.92
1017.07	226.94
1017.36	226.89
1017.64	226.89
1017.93	226.91
1018.22	226.87
1018.50	226.90
1018.79	226.84
1019.08	226.76
1019.36	226.76
1019.65	226.73
1019.93	226.74
1020.22	226.74
1020.51	226.77
1020.79	226.73
1021.08	226.45
1021.36	226.87
1021.65	226.46
1021.94	226.45
1022.22	226.80
1022.51	226.23
1022.79	227.03
1023.08	226.67
1023.36	227.80
1023.65	226.56
>>>>>End Processed Spectral Data<<<<<
