SpectraSuite Data File
++++++++++++++++++++++++++++++++++++
Date: Fri Feb 01 15:59:50 EST 2013
User: group
Dark Spectrum Present: No
Reference Spectrum Present: No
Number of Sampled Component Spectra: 1
Spectrometers: USB2E7196
Integration Time (usec): 35000 (USB2E7196)
Spectra Averaged: 100 (USB2E7196)
Boxcar Smoothing: 10 (USB2E7196)
Correct for Electrical Dark: No (USB2E7196)
Strobe/Lamp Enabled: No (USB2E7196)
Correct for Detector Non-linearity: No (USB2E7196)
Correct for Stray Light: No (USB2E7196)
Number of Pixels in Processed Spectrum: 2048
>>>>>Begin Processed Spectral Data<<<<<
339.09	0.00
339.48	214.72
339.86	216.56
340.24	218.08
340.63	219.02
341.01	222.16
341.39	222.48
341.78	223.12
342.16	224.31
342.54	225.11
342.93	213.24
343.31	224.01
343.69	224.57
344.07	225.02
344.46	225.43
344.84	225.81
345.22	226.06
345.60	226.28
345.99	226.45
346.37	226.59
346.75	226.68
347.13	226.77
347.52	226.82
347.90	226.87
348.28	226.91
348.66	226.93
349.05	226.93
349.43	226.97
349.81	227.02
350.19	227.07
350.57	227.14
350.96	227.23
351.34	227.32
351.72	227.41
352.10	227.51
352.48	227.55
352.87	227.61
353.25	227.66
353.63	227.73
354.01	227.80
354.39	227.87
354.77	227.92
355.15	228.05
355.54	228.09
355.92	228.16
356.30	228.26
356.68	228.39
357.06	228.43
357.44	228.46
357.82	228.50
358.20	228.54
358.58	228.58
358.97	228.62
359.35	228.69
359.73	228.74
360.11	228.77
360.49	228.82
360.87	228.87
361.25	228.92
361.63	228.97
362.01	229.02
362.39	229.04
362.77	229.09
363.15	229.09
363.53	229.16
363.91	229.17
364.29	229.18
364.67	229.09
365.05	229.13
365.43	229.14
365.81	229.18
366.19	229.25
366.57	229.29
366.95	229.27
367.33	229.21
367.71	229.21
368.09	229.23
368.47	229.22
368.85	229.19
369.23	229.16
369.61	229.11
369.99	229.09
370.37	229.07
370.75	229.08
371.13	229.00
371.51	228.91
371.89	228.86
372.27	228.79
372.65	228.77
373.03	228.72
373.41	228.68
373.78	228.59
374.16	228.51
374.54	228.41
374.92	228.34
375.30	228.30
375.68	228.18
376.06	228.12
376.44	228.07
376.82	228.01
377.19	227.95
377.57	227.85
377.95	227.74
378.33	227.67
378.71	227.55
379.09	227.48
379.47	227.42
379.84	227.35
380.22	227.29
380.60	227.22
380.98	227.15
381.36	227.05
381.73	226.99
382.11	226.92
382.49	226.85
382.87	226.79
383.25	226.73
383.62	226.78
384.00	226.70
384.38	226.64
384.76	226.60
385.13	226.57
385.51	226.55
385.89	226.50
386.27	226.48
386.64	226.42
387.02	226.40
387.40	226.35
387.78	226.33
388.15	226.31
388.53	226.24
388.91	226.24
389.29	226.22
389.66	226.24
390.04	226.20
390.42	226.21
390.79	226.23
391.17	226.21
391.55	226.10
391.92	226.12
392.30	226.11
392.68	226.09
393.05	226.08
393.43	226.10
393.81	226.12
394.18	226.07
394.56	226.14
394.94	226.16
395.31	226.17
395.69	226.20
396.06	226.24
396.44	226.33
396.82	226.32
397.19	226.40
397.57	226.42
397.95	226.48
398.32	226.51
398.70	226.57
399.07	226.67
399.45	226.74
399.82	226.79
400.20	226.84
400.58	226.93
400.95	226.97
401.33	227.05
401.70	227.24
402.08	227.35
402.45	227.40
402.83	227.55
403.20	227.66
403.58	227.77
403.95	227.90
404.33	228.00
404.71	228.12
405.08	228.34
405.46	228.46
405.83	228.58
406.21	228.72
406.58	228.88
406.96	229.06
407.33	229.26
407.70	229.47
408.08	229.77
408.45	229.98
408.83	230.23
409.20	230.44
409.58	230.58
409.95	230.86
410.33	231.12
410.70	231.34
411.08	231.66
411.45	231.98
411.82	232.27
412.20	232.65
412.57	233.08
412.95	233.33
413.32	233.75
413.69	234.16
414.07	234.61
414.44	235.07
414.82	235.48
415.19	236.02
415.56	236.55
415.94	237.10
416.31	237.72
416.68	238.36
417.06	239.07
417.43	239.76
417.81	240.53
418.18	241.33
418.55	242.20
418.93	243.07
419.30	243.95
419.67	244.88
420.04	245.82
420.42	246.79
420.79	247.99
421.16	249.13
421.54	250.33
421.91	251.57
422.28	252.84
422.66	254.19
423.03	255.49
423.40	256.83
423.77	258.18
424.15	259.60
424.52	261.09
424.89	262.72
425.26	264.30
425.64	265.72
426.01	267.28
426.38	268.91
426.75	270.59
427.13	272.31
427.50	274.11
427.87	276.00
428.24	277.87
428.61	279.61
428.99	281.58
429.36	283.68
429.73	285.72
430.10	287.75
430.47	289.81
430.85	291.94
431.22	294.20
431.59	296.62
431.96	298.89
432.33	301.39
432.70	303.72
433.08	306.52
433.45	309.14
433.82	311.75
434.19	314.60
434.56	317.38
434.93	320.03
435.30	322.66
435.68	325.49
436.05	328.30
436.42	331.09
436.79	333.61
437.16	336.31
437.53	339.13
437.90	341.96
438.27	344.68
438.64	347.52
439.01	350.03
439.38	352.28
439.75	354.39
440.13	356.84
440.50	359.20
440.87	361.03
441.24	362.98
441.61	365.13
441.98	366.65
442.35	368.44
442.72	370.30
443.09	372.06
443.46	373.07
443.83	373.66
444.20	374.13
444.57	374.93
444.94	375.18
445.31	375.52
445.68	375.87
446.05	375.94
446.42	375.53
446.79	375.17
447.16	374.68
447.53	374.38
447.90	373.17
448.27	371.98
448.64	370.39
449.01	369.23
449.37	367.28
449.74	365.38
450.11	363.17
450.48	360.72
450.85	358.19
451.22	356.06
451.59	354.03
451.96	352.14
452.33	349.52
452.70	347.14
453.07	344.28
453.43	341.35
453.80	338.61
454.17	335.93
454.54	333.39
454.91	330.69
455.28	328.04
455.65	325.62
456.02	323.19
456.38	321.08
456.75	318.49
457.12	316.27
457.49	314.04
457.86	311.82
458.23	309.99
458.59	307.92
458.96	305.84
459.33	304.07
459.70	302.20
460.07	300.71
460.43	299.04
460.80	297.46
461.17	296.02
461.54	294.57
461.91	293.17
462.27	291.73
462.64	290.48
463.01	289.12
463.38	287.85
463.74	286.51
464.11	285.33
464.48	284.32
464.85	283.20
465.21	282.39
465.58	281.51
465.95	280.42
466.32	279.56
466.68	278.68
467.05	277.69
467.42	276.78
467.78	275.87
468.15	275.01
468.52	274.37
468.88	273.50
469.25	272.70
469.62	272.08
469.98	271.38
470.35	270.75
470.72	270.17
471.08	269.50
471.45	268.97
471.82	268.45
472.18	267.83
472.55	267.39
472.92	266.85
473.28	266.38
473.65	265.93
474.02	265.49
474.38	265.13
474.75	264.88
475.11	264.54
475.48	264.29
475.85	264.05
476.21	263.80
476.58	263.63
476.94	263.47
477.31	263.29
477.67	263.14
478.04	263.03
478.41	262.99
478.77	263.06
479.14	262.98
479.50	262.96
479.87	263.01
480.23	263.09
480.60	263.16
480.96	263.24
481.33	263.45
481.69	263.64
482.06	263.81
482.42	263.98
482.79	264.27
483.15	264.58
483.52	264.96
483.88	265.33
484.25	265.76
484.61	266.21
484.98	266.65
485.34	267.23
485.71	267.81
486.07	268.38
486.44	268.89
486.80	269.61
487.17	270.37
487.53	271.20
487.90	272.07
488.26	272.97
488.62	273.94
488.99	274.91
489.35	275.96
489.72	277.08
490.08	278.31
490.44	279.55
490.81	280.87
491.17	282.24
491.54	283.71
491.90	285.23
492.26	286.84
492.63	288.58
492.99	290.37
493.36	292.26
493.72	294.29
494.08	296.45
494.45	298.69
494.81	301.05
495.17	303.50
495.54	306.03
495.90	308.74
496.26	311.59
496.63	314.58
496.99	317.72
497.35	321.00
497.72	324.38
498.08	327.89
498.44	331.59
498.80	335.55
499.17	339.59
499.53	343.80
499.89	348.22
500.26	352.74
500.62	357.40
500.98	362.37
501.34	367.45
501.71	372.76
502.07	378.21
502.43	383.75
502.79	389.55
503.16	395.60
503.52	401.91
503.88	408.33
504.24	414.97
504.60	421.84
504.97	428.95
505.33	436.30
505.69	443.94
506.05	451.69
506.41	459.51
506.78	467.70
507.14	476.17
507.50	484.89
507.86	493.93
508.22	503.13
508.59	512.40
508.95	522.00
509.31	531.82
509.67	541.92
510.03	552.26
510.39	562.80
510.75	573.65
511.12	584.64
511.48	595.89
511.84	607.33
512.20	618.90
512.56	630.89
512.92	643.05
513.28	655.46
513.64	667.98
514.00	680.77
514.37	693.70
514.73	706.68
515.09	719.71
515.45	732.97
515.81	746.52
516.17	760.45
516.53	774.51
516.89	788.70
517.25	802.85
517.61	817.36
517.97	831.89
518.33	846.29
518.69	861.04
519.05	876.02
519.41	891.17
519.77	906.68
520.13	921.99
520.49	937.34
520.85	952.79
521.21	968.43
521.57	984.61
521.93	1000.30
522.29	1016.65
522.65	1032.82
523.01	1049.05
523.37	1065.09
523.73	1081.27
524.09	1097.33
524.45	1113.65
524.81	1130.26
525.17	1146.96
525.53	1163.79
525.89	1180.67
526.25	1197.44
526.61	1213.71
526.97	1230.36
527.33	1246.83
527.68	1263.44
528.04	1280.04
528.40	1296.49
528.76	1313.49
529.12	1329.97
529.48	1346.75
529.84	1362.68
530.20	1379.42
530.56	1396.43
530.91	1413.80
531.27	1430.45
531.63	1446.91
531.99	1463.37
532.35	1479.21
532.71	1495.15
533.07	1511.48
533.42	1527.37
533.78	1543.30
534.14	1559.65
534.50	1575.13
534.86	1591.01
535.21	1606.24
535.57	1622.08
535.93	1637.60
536.29	1652.41
536.65	1667.51
537.00	1682.34
537.36	1697.67
537.72	1712.04
538.08	1726.32
538.44	1740.04
538.79	1754.01
539.15	1767.70
539.51	1781.48
539.87	1795.91
540.22	1809.48
540.58	1823.11
540.94	1836.35
541.29	1849.28
541.65	1861.90
542.01	1874.89
542.37	1887.00
542.72	1899.37
543.08	1911.09
543.44	1923.43
543.79	1934.52
544.15	1945.55
544.51	1957.02
544.87	1967.98
545.22	1978.83
545.58	1989.00
545.94	1998.71
546.29	2008.49
546.65	2018.30
547.01	2027.44
547.36	2036.19
547.72	2044.63
548.07	2052.37
548.43	2060.64
548.79	2068.78
549.14	2076.26
549.50	2083.69
549.86	2091.45
550.21	2098.86
550.57	2105.99
550.92	2112.52
551.28	2119.58
551.64	2126.50
551.99	2133.11
552.35	2139.14
552.70	2145.22
553.06	2151.33
553.41	2157.82
553.77	2163.89
554.13	2169.92
554.48	2176.20
554.84	2181.59
555.19	2186.91
555.55	2192.21
555.90	2196.52
556.26	2201.35
556.61	2206.09
556.97	2210.30
557.32	2214.45
557.68	2218.35
558.03	2222.52
558.39	2226.27
558.74	2231.06
559.10	2234.97
559.45	2238.58
559.81	2243.03
560.16	2246.82
560.52	2250.01
560.87	2253.33
561.23	2255.94
561.58	2259.03
561.94	2261.41
562.29	2263.80
562.64	2266.62
563.00	2269.07
563.35	2272.65
563.71	2275.67
564.06	2278.92
564.42	2281.76
564.77	2284.26
565.12	2286.65
565.48	2288.61
565.83	2290.50
566.19	2291.76
566.54	2292.68
566.89	2293.78
567.25	2294.44
567.60	2295.82
567.96	2297.45
568.31	2298.31
568.66	2299.35
569.02	2299.85
569.37	2300.31
569.72	2301.16
570.08	2301.23
570.43	2301.43
570.78	2300.81
571.14	2299.31
571.49	2297.99
571.84	2297.77
572.20	2296.52
572.55	2295.43
572.90	2294.00
573.26	2292.56
573.61	2290.85
573.96	2289.06
574.31	2286.08
574.67	2283.07
575.02	2279.51
575.37	2276.30
575.72	2272.45
576.08	2269.23
576.43	2265.95
576.78	2262.03
577.13	2258.95
577.49	2255.87
577.84	2252.29
578.19	2248.63
578.54	2245.07
578.90	2240.82
579.25	2235.25
579.60	2230.36
579.95	2225.36
580.30	2220.34
580.66	2215.26
581.01	2210.28
581.36	2205.41
581.71	2201.29
582.06	2196.81
582.42	2192.31
582.77	2187.03
583.12	2182.47
583.47	2177.76
583.82	2172.74
584.17	2167.68
584.53	2162.10
584.88	2156.42
585.23	2150.73
585.58	2145.17
585.93	2139.61
586.28	2134.77
586.63	2129.54
586.98	2124.52
587.34	2119.87
587.69	2114.90
588.04	2109.61
588.39	2104.00
588.74	2097.48
589.09	2091.37
589.44	2084.64
589.79	2078.72
590.14	2073.08
590.49	2066.55
590.84	2060.05
591.19	2054.01
591.54	2047.51
591.89	2040.13
592.25	2033.42
592.60	2026.11
592.95	2018.45
593.30	2011.15
593.65	2003.68
594.00	1996.78
594.35	1989.58
594.70	1981.68
595.05	1974.59
595.40	1967.37
595.75	1960.00
596.10	1953.85
596.45	1947.15
596.80	1940.91
597.15	1934.24
597.50	1926.95
597.85	1920.61
598.19	1914.01
598.54	1906.84
598.89	1900.21
599.24	1894.40
599.59	1887.59
599.94	1881.44
600.29	1875.15
600.64	1868.53
600.99	1861.07
601.34	1854.28
601.69	1847.26
602.04	1840.28
602.39	1832.79
602.74	1825.87
603.08	1819.00
603.43	1812.37
603.78	1805.05
604.13	1797.68
604.48	1790.37
604.83	1783.56
605.18	1776.45
605.53	1768.50
605.87	1760.50
606.22	1753.25
606.57	1745.22
606.92	1738.01
607.27	1730.80
607.62	1723.97
607.96	1716.70
608.31	1710.08
608.66	1702.46
609.01	1694.94
609.36	1687.40
609.70	1679.45
610.05	1671.37
610.40	1663.60
610.75	1655.01
611.10	1647.34
611.44	1639.07
611.79	1631.10
612.14	1622.49
612.49	1613.39
612.83	1604.96
613.18	1596.87
613.53	1588.85
613.88	1580.35
614.22	1572.04
614.57	1563.51
614.92	1555.42
615.27	1547.81
615.61	1539.56
615.96	1531.59
616.31	1523.96
616.65	1516.71
617.00	1509.24
617.35	1501.68
617.70	1493.38
618.04	1484.99
618.39	1476.70
618.74	1469.10
619.08	1460.78
619.43	1453.27
619.78	1446.37
620.12	1439.14
620.47	1431.55
620.82	1423.38
621.16	1415.97
621.51	1408.36
621.85	1400.69
622.20	1392.19
622.55	1383.86
622.89	1375.97
623.24	1368.26
623.59	1360.92
623.93	1353.18
624.28	1345.94
624.62	1338.27
624.97	1331.10
625.32	1324.51
625.66	1317.47
626.01	1310.29
626.35	1302.89
626.70	1295.09
627.04	1287.27
627.39	1279.63
627.73	1272.28
628.08	1265.39
628.43	1258.05
628.77	1250.66
629.12	1243.14
629.46	1235.94
629.81	1228.58
630.15	1221.44
630.50	1214.08
630.84	1205.92
631.19	1198.11
631.53	1190.55
631.88	1183.11
632.22	1175.54
632.57	1168.15
632.91	1160.58
633.26	1153.01
633.60	1145.63
633.95	1138.58
634.29	1131.64
634.64	1124.90
634.98	1117.58
635.32	1110.31
635.67	1103.79
636.01	1097.08
636.36	1090.29
636.70	1083.85
637.05	1077.25
637.39	1070.64
637.73	1064.09
638.08	1058.14
638.42	1052.06
638.77	1045.60
639.11	1038.97
639.45	1032.51
639.80	1025.83
640.14	1019.50
640.49	1013.15
640.83	1006.84
641.17	1000.52
641.52	994.20
641.86	987.74
642.20	981.89
642.55	975.67
642.89	969.10
643.23	962.65
643.58	956.92
643.92	950.64
644.26	944.60
644.61	938.59
644.95	932.51
645.29	925.97
645.64	919.27
645.98	912.89
646.32	907.00
646.66	901.04
647.01	895.29
647.35	889.62
647.69	883.69
648.04	878.07
648.38	872.23
648.72	866.18
649.06	860.07
649.41	854.19
649.75	848.17
650.09	842.23
650.43	836.42
650.78	830.17
651.12	824.26
651.46	818.50
651.80	812.77
652.14	807.41
652.49	801.98
652.83	796.77
653.17	791.12
653.51	785.41
653.85	780.05
654.20	774.33
654.54	768.36
654.88	762.66
655.22	756.82
655.56	751.20
655.90	745.85
656.25	740.63
656.59	735.23
656.93	730.17
657.27	724.99
657.61	719.53
657.95	714.44
658.29	709.39
658.64	704.19
658.98	698.89
659.32	693.39
659.66	688.21
660.00	682.86
660.34	677.92
660.68	673.07
661.02	667.98
661.36	663.25
661.70	658.71
662.05	654.41
662.39	650.07
662.73	645.60
663.07	641.14
663.41	636.74
663.75	632.27
664.09	627.72
664.43	623.35
664.77	619.30
665.11	615.10
665.45	610.90
665.79	606.75
666.13	602.67
666.47	598.61
666.81	594.39
667.15	590.36
667.49	586.48
667.83	582.67
668.17	578.76
668.51	574.69
668.85	570.62
669.19	566.80
669.53	562.97
669.87	559.09
670.21	555.43
670.55	551.78
670.89	548.33
671.23	544.90
671.57	541.38
671.91	537.80
672.25	534.24
672.58	530.75
672.92	527.37
673.26	524.20
673.60	521.07
673.94	518.03
674.28	515.17
674.62	512.21
674.96	509.07
675.30	506.14
675.64	503.25
675.97	500.47
676.31	497.55
676.65	494.57
676.99	491.84
677.33	488.95
677.67	486.11
678.01	483.08
678.34	480.10
678.68	477.23
679.02	474.41
679.36	471.67
679.70	468.96
680.04	466.20
680.37	463.27
680.71	460.47
681.05	457.82
681.39	455.03
681.73	452.33
682.06	449.79
682.40	447.28
682.74	444.70
683.08	442.18
683.42	439.54
683.75	437.11
684.09	434.59
684.43	432.14
684.77	429.66
685.10	427.28
685.44	425.03
685.78	422.78
686.12	420.53
686.45	418.27
686.79	415.99
687.13	413.80
687.46	411.68
687.80	409.47
688.14	407.24
688.48	405.15
688.81	402.88
689.15	400.77
689.49	398.60
689.82	396.54
690.16	394.42
690.50	392.49
690.83	390.50
691.17	388.57
691.51	386.66
691.84	384.82
692.18	382.92
692.52	380.88
692.85	378.94
693.19	377.03
693.52	375.18
693.86	373.35
694.20	371.60
694.53	369.77
694.87	367.96
695.21	366.18
695.54	364.37
695.88	362.68
696.21	360.92
696.55	359.21
696.88	357.53
697.22	355.91
697.56	354.29
697.89	352.65
698.23	351.03
698.56	349.43
698.90	347.84
699.23	346.24
699.57	344.70
699.90	343.14
700.24	341.65
700.58	340.13
700.91	338.64
701.25	337.19
701.58	335.84
701.92	334.51
702.25	333.11
702.59	331.80
702.92	330.48
703.26	329.22
703.59	327.97
703.93	326.81
704.26	325.59
704.60	324.30
704.93	323.04
705.26	321.77
705.60	320.62
705.93	319.46
706.27	318.45
706.60	317.38
706.94	316.33
707.27	315.17
707.61	314.11
707.94	313.09
708.27	311.97
708.61	310.91
708.94	309.91
709.28	308.99
709.61	308.06
709.94	307.16
710.28	306.11
710.61	305.14
710.95	304.07
711.28	303.15
711.61	302.21
711.95	301.32
712.28	300.36
712.61	299.37
712.95	298.45
713.28	297.57
713.61	296.70
713.95	295.81
714.28	294.99
714.61	294.16
714.95	293.31
715.28	292.46
715.61	291.59
715.95	290.70
716.28	289.78
716.61	288.93
716.95	288.08
717.28	287.37
717.61	286.58
717.94	285.82
718.28	285.02
718.61	284.32
718.94	283.59
719.27	282.91
719.61	282.26
719.94	281.59
720.27	280.82
720.60	280.13
720.94	279.47
721.27	278.86
721.60	278.22
721.93	277.61
722.27	277.04
722.60	276.47
722.93	275.90
723.26	275.35
723.59	274.74
723.93	274.17
724.26	273.54
724.59	272.99
724.92	272.42
725.25	271.87
725.59	271.28
725.92	270.76
726.25	270.26
726.58	269.76
726.91	269.26
727.24	268.81
727.57	268.36
727.91	267.86
728.24	267.39
728.57	266.90
728.90	266.44
729.23	265.94
729.56	265.45
729.89	264.97
730.22	264.52
730.55	264.03
730.89	263.59
731.22	263.18
731.55	262.74
731.88	262.32
732.21	261.90
732.54	261.47
732.87	261.04
733.20	260.65
733.53	260.28
733.86	259.88
734.19	259.45
734.52	259.03
734.85	258.73
735.18	258.34
735.51	257.97
735.84	257.57
736.17	257.25
736.50	256.88
736.83	256.67
737.16	256.34
737.49	256.05
737.82	255.67
738.15	255.31
738.48	254.98
738.81	254.65
739.14	254.37
739.47	254.04
739.80	253.70
740.13	253.39
740.46	253.03
740.79	252.71
741.12	252.39
741.45	252.08
741.78	251.72
742.11	251.41
742.44	251.10
742.77	250.81
743.10	250.48
743.43	250.23
743.75	249.82
744.08	249.68
744.41	249.41
744.74	249.19
745.07	248.95
745.40	248.69
745.73	248.52
746.06	248.22
746.39	247.99
746.71	247.77
747.04	247.50
747.37	247.23
747.70	247.01
748.03	246.80
748.36	246.59
748.68	246.31
749.01	246.05
749.34	245.84
749.67	245.63
750.00	245.41
750.33	245.24
750.65	245.08
750.98	244.72
751.31	244.51
751.64	244.32
751.97	244.16
752.29	244.01
752.62	243.72
752.95	243.54
753.28	243.29
753.60	243.08
753.93	242.91
754.26	242.75
754.59	242.56
754.91	242.32
755.24	242.09
755.57	241.94
755.90	241.79
756.22	241.61
756.55	241.41
756.88	241.23
757.20	240.98
757.53	240.74
757.86	240.57
758.19	240.40
758.51	240.22
758.84	239.98
759.17	239.77
759.49	239.62
759.82	239.49
760.15	239.40
760.47	239.24
760.80	239.03
761.13	238.90
761.45	238.70
761.78	238.57
762.11	238.46
762.43	238.28
762.76	238.16
763.08	238.04
763.41	237.94
763.74	237.79
764.06	237.64
764.39	237.49
764.71	237.36
765.04	237.21
765.37	237.04
765.69	236.96
766.02	236.79
766.34	236.67
766.67	236.52
767.00	236.42
767.32	236.33
767.65	236.31
767.97	236.15
768.30	236.07
768.62	235.93
768.95	235.79
769.27	235.70
769.60	235.58
769.92	235.45
770.25	235.30
770.57	235.18
770.90	235.10
771.22	234.99
771.55	234.89
771.87	234.80
772.20	234.71
772.52	234.64
772.85	234.67
773.17	234.58
773.50	234.47
773.82	234.36
774.15	234.24
774.47	234.08
774.80	234.00
775.12	233.88
775.45	233.82
775.77	233.74
776.09	233.67
776.42	233.59
776.74	233.54
777.07	233.45
777.39	233.39
777.72	233.28
778.04	233.23
778.36	233.16
778.69	233.10
779.01	233.03
779.33	232.91
779.66	232.71
779.98	232.63
780.31	232.58
780.63	232.54
780.95	232.49
781.28	232.40
781.60	232.35
781.92	232.29
782.25	232.21
782.57	232.17
782.89	232.08
783.22	232.02
783.54	231.94
783.86	231.91
784.19	231.86
784.51	231.85
784.83	231.76
785.16	231.69
785.48	231.63
785.80	231.61
786.12	231.58
786.45	231.55
786.77	231.51
787.09	231.46
787.42	231.39
787.74	231.34
788.06	231.34
788.38	231.30
788.71	231.26
789.03	231.24
789.35	231.20
789.67	231.16
789.99	231.11
790.32	231.06
790.64	231.04
790.96	231.05
791.28	231.00
791.61	231.01
791.93	230.97
792.25	230.95
792.57	230.97
792.89	230.94
793.21	230.89
793.54	230.87
793.86	230.85
794.18	230.83
794.50	230.79
794.82	230.74
795.14	230.69
795.47	230.69
795.79	230.67
796.11	230.63
796.43	230.58
796.75	230.56
797.07	230.53
797.39	230.45
797.71	230.38
798.04	230.34
798.36	230.29
798.68	230.28
799.00	230.27
799.32	230.19
799.64	230.14
799.96	230.13
800.28	230.10
800.60	230.03
800.92	229.99
801.24	229.94
801.56	229.94
801.89	229.91
802.21	229.87
802.53	229.82
802.85	229.77
803.17	229.83
803.49	229.77
803.81	229.74
804.13	229.75
804.45	229.69
804.77	229.69
805.09	229.66
805.41	229.64
805.73	229.57
806.05	229.52
806.37	229.49
806.69	229.46
807.01	229.42
807.33	229.39
807.65	229.31
807.97	229.36
808.28	229.28
808.60	229.27
808.92	229.26
809.24	229.31
809.56	229.28
809.88	229.19
810.20	229.16
810.52	229.15
810.84	229.06
811.16	229.04
811.48	228.99
811.80	229.00
812.12	228.96
812.43	228.95
812.75	228.96
813.07	228.91
813.39	228.90
813.71	228.86
814.03	228.84
814.35	228.85
814.67	228.78
814.98	228.76
815.30	228.73
815.62	228.68
815.94	228.54
816.26	228.60
816.58	228.60
816.89	228.59
817.21	228.53
817.53	228.55
817.85	228.56
818.17	228.56
818.48	228.50
818.80	228.52
819.12	228.47
819.44	228.42
819.76	228.42
820.07	228.40
820.39	228.40
820.71	228.40
821.03	228.38
821.34	228.34
821.66	228.37
821.98	228.38
822.30	228.36
822.61	228.42
822.93	228.34
823.25	228.32
823.57	228.30
823.88	228.32
824.20	228.32
824.52	228.30
824.83	228.27
825.15	228.22
825.47	228.19
825.79	228.21
826.10	228.18
826.42	228.14
826.74	228.10
827.05	228.06
827.37	228.06
827.69	228.05
828.00	228.01
828.32	227.95
828.64	227.95
828.95	228.00
829.27	227.99
829.58	228.02
829.90	227.99
830.22	228.00
830.53	228.01
830.85	227.98
831.17	227.97
831.48	227.96
831.80	227.98
832.11	227.98
832.43	227.94
832.75	227.94
833.06	227.99
833.38	228.00
833.69	227.98
834.01	228.00
834.32	227.97
834.64	227.95
834.96	227.97
835.27	227.96
835.59	227.90
835.90	227.85
836.22	227.81
836.53	227.83
836.85	227.81
837.16	227.89
837.48	227.87
837.79	227.87
838.11	227.88
838.42	227.89
838.74	227.88
839.05	227.90
839.37	227.91
839.68	227.88
840.00	227.87
840.31	227.87
840.63	227.81
840.94	227.82
841.26	227.84
841.57	227.85
841.88	227.82
842.20	227.80
842.51	227.81
842.83	227.77
843.14	227.85
843.46	227.84
843.77	227.76
844.08	227.78
844.40	227.76
844.71	227.74
845.03	227.72
845.34	227.70
845.65	227.66
845.97	227.64
846.28	227.62
846.60	227.59
846.91	227.61
847.22	227.63
847.54	227.67
847.85	227.68
848.16	227.65
848.48	227.63
848.79	227.67
849.10	227.69
849.42	227.72
849.73	227.61
850.04	227.57
850.36	227.53
850.67	227.53
850.98	227.51
851.30	227.50
851.61	227.46
851.92	227.47
852.23	227.48
852.55	227.49
852.86	227.49
853.17	227.53
853.49	227.51
853.80	227.49
854.11	227.46
854.42	227.47
854.74	227.43
855.05	227.40
855.36	227.35
855.67	227.30
855.99	227.29
856.30	227.41
856.61	227.43
856.92	227.41
857.23	227.41
857.55	227.39
857.86	227.40
858.17	227.41
858.48	227.41
858.79	227.41
859.11	227.41
859.42	227.39
859.73	227.37
860.04	227.38
860.35	227.37
860.66	227.34
860.98	227.32
861.29	227.35
861.60	227.41
861.91	227.41
862.22	227.45
862.53	227.44
862.84	227.34
863.16	227.33
863.47	227.34
863.78	227.31
864.09	227.32
864.40	227.32
864.71	227.33
865.02	227.31
865.33	227.29
865.64	227.26
865.95	227.26
866.27	227.32
866.58	227.33
866.89	227.33
867.20	227.35
867.51	227.33
867.82	227.33
868.13	227.31
868.44	227.27
868.75	227.26
869.06	227.26
869.37	227.28
869.68	227.26
869.99	227.29
870.30	227.30
870.61	227.29
870.92	227.29
871.23	227.26
871.54	227.28
871.85	227.27
872.16	227.28
872.47	227.26
872.78	227.21
873.09	227.17
873.40	227.17
873.71	227.18
874.02	227.16
874.33	227.15
874.64	227.14
874.95	227.15
875.26	227.14
875.56	227.13
875.87	227.09
876.18	227.08
876.49	227.14
876.80	227.14
877.11	227.17
877.42	227.17
877.73	227.22
878.04	227.21
878.35	227.21
878.66	227.21
878.96	227.21
879.27	227.20
879.58	227.19
879.89	227.18
880.20	227.18
880.51	227.21
880.82	227.20
881.12	227.18
881.43	227.18
881.74	227.16
882.05	227.18
882.36	227.17
882.67	227.21
882.97	227.12
883.28	227.08
883.59	227.05
883.90	227.05
884.21	227.02
884.51	226.98
884.82	226.99
885.13	226.98
885.44	226.99
885.74	226.96
886.05	226.99
886.36	226.98
886.67	226.95
886.98	226.99
887.28	227.01
887.59	227.03
887.90	227.05
888.20	227.03
888.51	227.02
888.82	227.04
889.13	227.01
889.43	227.10
889.74	227.13
890.05	227.16
890.35	227.16
890.66	227.20
890.97	227.22
891.28	227.24
891.58	227.28
891.89	227.27
892.20	227.30
892.50	227.29
892.81	227.28
893.12	227.27
893.42	227.24
893.73	227.23
894.04	227.24
894.34	227.20
894.65	227.20
894.95	227.21
895.26	227.19
895.57	227.24
895.87	227.14
896.18	227.15
896.48	227.12
896.79	227.11
897.10	227.11
897.40	227.11
897.71	227.08
898.01	227.03
898.32	227.02
898.63	227.00
898.93	227.00
899.24	227.03
899.54	227.03
899.85	227.03
900.15	227.02
900.46	227.03
900.76	227.03
901.07	227.03
901.38	227.02
901.68	227.04
901.99	227.00
902.29	226.97
902.60	226.93
902.90	226.95
903.21	226.94
903.51	226.92
903.82	226.91
904.12	226.93
904.43	226.93
904.73	226.94
905.03	226.95
905.34	227.05
905.64	227.01
905.95	227.02
906.25	227.00
906.56	227.01
906.86	227.00
907.17	227.03
907.47	227.04
907.77	227.03
908.08	227.02
908.38	227.01
908.69	227.04
908.99	227.08
909.30	227.06
909.60	227.05
909.90	227.05
910.21	227.03
910.51	226.99
910.81	227.02
911.12	227.03
911.42	227.01
911.73	226.88
912.03	226.87
912.33	226.86
912.64	226.86
912.94	226.84
913.24	226.82
913.55	226.80
913.85	226.80
914.15	226.79
914.46	226.77
914.76	226.78
915.06	226.75
915.37	226.74
915.67	226.72
915.97	226.72
916.27	226.70
916.58	226.72
916.88	226.73
917.18	226.72
917.49	226.78
917.79	226.80
918.09	226.86
918.39	226.90
918.70	226.89
919.00	226.88
919.30	226.92
919.60	226.93
919.91	226.92
920.21	226.94
920.51	226.94
920.81	226.98
921.12	226.97
921.42	226.95
921.72	226.95
922.02	226.98
922.32	227.00
922.63	227.00
922.93	227.08
923.23	227.09
923.53	227.09
923.83	227.01
924.13	227.00
924.44	226.98
924.74	227.00
925.04	227.04
925.34	227.04
925.64	226.98
925.94	226.98
926.24	227.03
926.55	227.03
926.85	227.02
927.15	227.01
927.45	227.05
927.75	227.08
928.05	227.07
928.35	227.06
928.65	227.08
928.95	227.11
929.26	227.06
929.56	227.09
929.86	227.08
930.16	227.09
930.46	227.09
930.76	227.12
931.06	227.11
931.36	227.05
931.66	227.08
931.96	227.11
932.26	227.12
932.56	227.08
932.86	227.10
933.16	227.11
933.46	227.06
933.76	227.03
934.06	227.05
934.36	227.08
934.66	227.08
934.96	227.06
935.26	227.06
935.56	227.07
935.86	227.05
936.16	227.03
936.46	227.02
936.76	227.01
937.06	226.98
937.36	226.97
937.66	226.97
937.96	226.92
938.26	226.91
938.56	226.89
938.86	226.88
939.16	226.87
939.46	226.91
939.76	226.94
940.06	226.94
940.35	226.92
940.65	226.88
940.95	226.89
941.25	226.86
941.55	226.83
941.85	226.80
942.15	226.78
942.45	226.82
942.75	226.81
943.04	226.82
943.34	226.83
943.64	226.78
943.94	226.81
944.24	226.84
944.54	226.84
944.84	226.83
945.13	226.84
945.43	226.84
945.73	226.79
946.03	226.78
946.33	226.78
946.62	226.75
946.92	226.74
947.22	226.74
947.52	226.74
947.82	226.76
948.11	226.74
948.41	226.75
948.71	226.70
949.01	226.74
949.31	226.74
949.60	226.73
949.90	226.77
950.20	226.75
950.50	226.73
950.79	226.74
951.09	226.74
951.39	226.72
951.69	226.68
951.98	226.71
952.28	226.73
952.58	226.75
952.87	226.75
953.17	226.76
953.47	226.72
953.76	226.72
954.06	226.67
954.36	226.68
954.66	226.67
954.95	226.68
955.25	226.66
955.55	226.62
955.84	226.56
956.14	226.55
956.44	226.54
956.73	226.50
957.03	226.49
957.32	226.49
957.62	226.48
957.92	226.50
958.21	226.49
958.51	226.58
958.81	226.55
959.10	226.57
959.40	226.60
959.69	226.63
959.99	226.66
960.29	226.68
960.58	226.67
960.88	226.72
961.17	226.70
961.47	226.69
961.76	226.71
962.06	226.74
962.36	226.73
962.65	226.74
962.95	226.75
963.24	226.76
963.54	226.75
963.83	226.76
964.13	226.75
964.42	226.71
964.72	226.61
965.01	226.63
965.31	226.62
965.60	226.58
965.90	226.65
966.19	226.61
966.49	226.64
966.78	226.62
967.08	226.61
967.37	226.64
967.67	226.65
967.96	226.64
968.26	226.64
968.55	226.65
968.85	226.67
969.14	226.69
969.43	226.68
969.73	226.67
970.02	226.68
970.32	226.71
970.61	226.69
970.91	226.70
971.20	226.68
971.49	226.66
971.79	226.69
972.08	226.59
972.38	226.62
972.67	226.61
972.96	226.63
973.26	226.60
973.55	226.63
973.85	226.62
974.14	226.66
974.43	226.68
974.73	226.69
975.02	226.66
975.31	226.65
975.61	226.66
975.90	226.69
976.19	226.67
976.49	226.67
976.78	226.70
977.07	226.67
977.37	226.68
977.66	226.71
977.95	226.70
978.24	226.76
978.54	226.77
978.83	226.78
979.12	226.77
979.42	226.79
979.71	226.77
980.00	226.76
980.29	226.74
980.59	226.72
980.88	226.74
981.17	226.75
981.46	226.74
981.76	226.74
982.05	226.78
982.34	226.82
982.63	226.80
982.93	226.81
983.22	226.85
983.51	226.86
983.80	226.85
984.09	226.85
984.39	226.80
984.68	226.80
984.97	226.78
985.26	226.79
985.55	226.78
985.85	226.80
986.14	226.83
986.43	226.84
986.72	226.85
987.01	226.83
987.30	226.82
987.59	226.82
987.89	226.85
988.18	226.81
988.47	226.79
988.76	226.78
989.05	226.78
989.34	226.75
989.63	226.80
989.92	226.79
990.22	226.78
990.51	226.81
990.80	226.79
991.09	226.82
991.38	226.83
991.67	226.79
991.96	226.76
992.25	226.75
992.54	226.75
992.83	226.75
993.12	226.73
993.41	226.76
993.70	226.83
993.99	226.78
994.28	226.78
994.58	226.80
994.87	226.82
995.16	226.81
995.45	226.82
995.74	226.78
996.03	226.79
996.32	226.83
996.61	226.82
996.90	226.84
997.19	226.82
997.48	226.83
997.77	226.83
998.06	226.82
998.34	226.81
998.63	226.78
998.92	226.80
999.21	226.84
999.50	226.81
999.79	226.78
1000.08	226.79
1000.37	226.80
1000.66	226.79
1000.95	226.81
1001.24	226.82
1001.53	226.83
1001.82	226.83
1002.11	226.81
1002.40	226.80
1002.68	226.83
1002.97	226.89
1003.26	226.88
1003.55	226.83
1003.84	226.86
1004.13	226.91
1004.42	226.88
1004.71	226.91
1004.99	226.92
1005.28	226.90
1005.57	226.88
1005.86	226.86
1006.15	226.89
1006.44	226.83
1006.72	226.83
1007.01	226.81
1007.30	226.80
1007.59	226.75
1007.88	226.74
1008.17	226.73
1008.45	226.71
1008.74	226.65
1009.03	226.60
1009.32	226.59
1009.60	226.63
1009.89	226.60
1010.18	226.56
1010.47	226.57
1010.76	226.55
1011.04	226.53
1011.33	226.54
1011.62	226.55
1011.91	226.54
1012.19	226.54
1012.48	226.55
1012.77	226.53
1013.05	226.57
1013.34	226.56
1013.63	226.58
1013.92	226.60
1014.20	226.62
1014.49	226.60
1014.78	226.60
1015.06	226.54
1015.35	226.54
1015.64	226.52
1015.92	226.53
1016.21	226.55
1016.50	226.56
1016.78	226.56
1017.07	226.56
1017.36	226.54
1017.64	226.50
1017.93	226.55
1018.22	226.53
1018.50	226.54
1018.79	226.54
1019.08	226.50
1019.36	226.49
1019.65	226.48
1019.93	226.48
1020.22	226.47
1020.51	226.49
1020.79	226.50
1021.08	226.49
1021.36	226.47
1021.65	226.50
1021.94	226.53
1022.22	226.35
1022.51	226.29
1022.79	226.96
1023.08	226.45
1023.36	227.00
1023.65	226.35
>>>>>End Processed Spectral Data<<<<<
