SpectraSuite Data File
++++++++++++++++++++++++++++++++++++
Date: Fri Feb 01 14:56:32 EST 2013
User: group
Dark Spectrum Present: No
Reference Spectrum Present: No
Number of Sampled Component Spectra: 1
Spectrometers: USB2E7196
Integration Time (usec): 35000 (USB2E7196)
Spectra Averaged: 100 (USB2E7196)
Boxcar Smoothing: 10 (USB2E7196)
Correct for Electrical Dark: No (USB2E7196)
Strobe/Lamp Enabled: No (USB2E7196)
Correct for Detector Non-linearity: No (USB2E7196)
Correct for Stray Light: No (USB2E7196)
Number of Pixels in Processed Spectrum: 2048
>>>>>Begin Processed Spectral Data<<<<<
339.09	0.00
339.48	215.22
339.86	216.74
340.24	217.78
340.63	219.99
341.01	222.38
341.39	222.05
341.78	223.62
342.16	224.69
342.54	225.43
342.93	213.55
343.31	224.34
343.69	224.90
344.07	225.33
344.46	225.77
344.84	226.13
345.22	226.32
345.60	226.59
345.99	226.77
346.37	226.90
346.75	226.99
347.13	227.04
347.52	227.08
347.90	227.14
348.28	227.16
348.66	227.21
349.05	227.24
349.43	227.25
349.81	227.30
350.19	227.37
350.57	227.42
350.96	227.49
351.34	227.59
351.72	227.70
352.10	227.84
352.48	227.88
352.87	227.94
353.25	228.03
353.63	228.07
354.01	228.12
354.39	228.19
354.77	228.25
355.15	228.37
355.54	228.45
355.92	228.50
356.30	228.58
356.68	228.71
357.06	228.73
357.44	228.80
357.82	228.86
358.20	228.90
358.58	229.00
358.97	229.06
359.35	229.11
359.73	229.15
360.11	229.16
360.49	229.23
360.87	229.25
361.25	229.32
361.63	229.40
362.01	229.50
362.39	229.51
362.77	229.57
363.15	229.56
363.53	229.60
363.91	229.62
364.29	229.63
364.67	229.54
365.05	229.58
365.43	229.59
365.81	229.64
366.19	229.67
366.57	229.69
366.95	229.66
367.33	229.62
367.71	229.60
368.09	229.63
368.47	229.61
368.85	229.60
369.23	229.59
369.61	229.53
369.99	229.48
370.37	229.47
370.75	229.46
371.13	229.39
371.51	229.32
371.89	229.25
372.27	229.22
372.65	229.18
373.03	229.11
373.41	229.06
373.78	228.96
374.16	228.86
374.54	228.76
374.92	228.70
375.30	228.63
375.68	228.55
376.06	228.47
376.44	228.39
376.82	228.31
377.19	228.18
377.57	228.08
377.95	227.98
378.33	227.89
378.71	227.74
379.09	227.68
379.47	227.60
379.84	227.52
380.22	227.44
380.60	227.33
380.98	227.22
381.36	227.15
381.73	227.07
382.11	227.01
382.49	226.93
382.87	226.87
383.25	226.82
383.62	226.84
384.00	226.76
384.38	226.70
384.76	226.68
385.13	226.69
385.51	226.65
385.89	226.57
386.27	226.53
386.64	226.54
387.02	226.50
387.40	226.47
387.78	226.43
388.15	226.42
388.53	226.39
388.91	226.37
389.29	226.33
389.66	226.31
390.04	226.29
390.42	226.28
390.79	226.26
391.17	226.25
391.55	226.15
391.92	226.17
392.30	226.16
392.68	226.17
393.05	226.14
393.43	226.15
393.81	226.17
394.18	226.16
394.56	226.16
394.94	226.20
395.31	226.25
395.69	226.34
396.06	226.33
396.44	226.38
396.82	226.45
397.19	226.55
397.57	226.59
397.95	226.63
398.32	226.68
398.70	226.74
399.07	226.83
399.45	226.89
399.82	226.97
400.20	227.10
400.58	227.18
400.95	227.25
401.33	227.39
401.70	227.57
402.08	227.66
402.45	227.77
402.83	227.87
403.20	227.98
403.58	228.07
403.95	228.25
404.33	228.41
404.71	228.51
405.08	228.73
405.46	228.91
405.83	229.10
406.21	229.26
406.58	229.43
406.96	229.58
407.33	229.76
407.70	229.97
408.08	230.23
408.45	230.47
408.83	230.73
409.20	230.94
409.58	231.15
409.95	231.45
410.33	231.75
410.70	232.03
411.08	232.33
411.45	232.67
411.82	233.00
412.20	233.33
412.57	233.78
412.95	234.06
413.32	234.43
413.69	234.83
414.07	235.24
414.44	235.70
414.82	236.17
415.19	236.75
415.56	237.24
415.94	237.80
416.31	238.40
416.68	239.02
417.06	239.74
417.43	240.43
417.81	241.18
418.18	241.95
418.55	242.78
418.93	243.65
419.30	244.50
419.67	245.40
420.04	246.35
420.42	247.33
420.79	248.49
421.16	249.64
421.54	250.85
421.91	252.11
422.28	253.37
422.66	254.71
423.03	255.99
423.40	257.35
423.77	258.72
424.15	260.12
424.52	261.60
424.89	263.19
425.26	264.71
425.64	266.17
426.01	267.74
426.38	269.43
426.75	271.11
427.13	272.84
427.50	274.63
427.87	276.49
428.24	278.36
428.61	280.12
428.99	282.07
429.36	284.16
429.73	286.18
430.10	288.22
430.47	290.29
430.85	292.36
431.22	294.62
431.59	297.00
431.96	299.25
432.33	301.72
432.70	304.09
433.08	306.90
433.45	309.47
433.82	312.07
434.19	314.92
434.56	317.73
434.93	320.39
435.30	323.06
435.68	326.02
436.05	328.87
436.42	331.69
436.79	334.24
437.16	336.95
437.53	339.83
437.90	342.61
438.27	345.42
438.64	348.32
439.01	350.91
439.38	353.17
439.75	355.39
440.13	357.85
440.50	360.18
440.87	362.09
441.24	364.10
441.61	366.32
441.98	367.81
442.35	369.64
442.72	371.56
443.09	373.36
443.46	374.34
443.83	374.94
444.20	375.41
444.57	376.21
444.94	376.50
445.31	376.83
445.68	377.23
446.05	377.25
446.42	376.84
446.79	376.42
447.16	375.97
447.53	375.64
447.90	374.54
448.27	373.35
448.64	371.76
449.01	370.57
449.37	368.59
449.74	366.70
450.11	364.45
450.48	361.96
450.85	359.46
451.22	357.29
451.59	355.23
451.96	353.33
452.33	350.75
452.70	348.40
453.07	345.61
453.43	342.69
453.80	339.93
454.17	337.26
454.54	334.72
454.91	331.97
455.28	329.28
455.65	326.78
456.02	324.40
456.38	322.23
456.75	319.60
457.12	317.32
457.49	315.10
457.86	312.93
458.23	311.06
458.59	308.99
458.96	306.91
459.33	305.07
459.70	303.17
460.07	301.65
460.43	299.91
460.80	298.27
461.17	296.83
461.54	295.34
461.91	293.92
462.27	292.47
462.64	291.24
463.01	289.83
463.38	288.55
463.74	287.15
464.11	285.96
464.48	284.90
464.85	283.78
465.21	282.91
465.58	281.96
465.95	280.82
466.32	279.88
466.68	278.92
467.05	278.02
467.42	277.10
467.78	276.18
468.15	275.30
468.52	274.61
468.88	273.68
469.25	272.87
469.62	272.20
469.98	271.51
470.35	270.86
470.72	270.28
471.08	269.60
471.45	269.03
471.82	268.50
472.18	267.90
472.55	267.46
472.92	266.91
473.28	266.43
473.65	265.96
474.02	265.51
474.38	265.14
474.75	264.76
475.11	264.45
475.48	264.14
475.85	263.88
476.21	263.62
476.58	263.48
476.94	263.33
477.31	263.15
477.67	262.97
478.04	262.84
478.41	262.79
478.77	262.79
479.14	262.71
479.50	262.66
479.87	262.73
480.23	262.83
480.60	262.87
480.96	262.93
481.33	263.15
481.69	263.35
482.06	263.55
482.42	263.78
482.79	263.96
483.15	264.29
483.52	264.63
483.88	264.96
484.25	265.33
484.61	265.74
484.98	266.21
485.34	266.77
485.71	267.34
486.07	267.93
486.44	268.50
486.80	269.18
487.17	269.91
487.53	270.72
487.90	271.52
488.26	272.47
488.62	273.47
488.99	274.43
489.35	275.50
489.72	276.63
490.08	277.82
490.44	279.07
490.81	280.36
491.17	281.71
491.54	283.20
491.90	284.68
492.26	286.33
492.63	288.02
492.99	289.78
493.36	291.67
493.72	293.66
494.08	295.75
494.45	298.01
494.81	300.39
495.17	302.78
495.54	305.30
495.90	307.91
496.26	310.68
496.63	313.66
496.99	316.70
497.35	319.88
497.72	323.25
498.08	326.78
498.44	330.46
498.80	334.36
499.17	338.39
499.53	342.60
499.89	346.90
500.26	351.45
500.62	356.08
500.98	361.00
501.34	366.05
501.71	371.36
502.07	376.80
502.43	382.35
502.79	388.19
503.16	394.28
503.52	400.50
503.88	406.87
504.24	413.47
504.60	420.34
504.97	427.46
505.33	434.74
505.69	442.40
506.05	450.11
506.41	457.91
506.78	466.03
507.14	474.41
507.50	483.13
507.86	492.09
508.22	501.26
508.59	510.43
508.95	519.94
509.31	529.71
509.67	539.74
510.03	549.96
510.39	560.52
510.75	571.30
511.12	582.27
511.48	593.62
511.84	605.05
512.20	616.60
512.56	628.54
512.92	640.69
513.28	653.00
513.64	665.55
514.00	678.34
514.37	691.25
514.73	704.35
515.09	717.45
515.45	730.79
515.81	744.41
516.17	758.37
516.53	772.57
516.89	786.71
517.25	800.95
517.61	815.38
517.97	829.79
518.33	844.21
518.69	859.04
519.05	874.04
519.41	889.22
519.77	904.83
520.13	920.30
520.49	935.79
520.85	951.33
521.21	967.07
521.57	983.36
521.93	999.23
522.29	1015.57
522.65	1031.80
523.01	1048.03
523.37	1064.15
523.73	1080.38
524.09	1096.52
524.45	1113.01
524.81	1129.72
525.17	1146.71
525.53	1163.76
525.89	1180.77
526.25	1197.63
526.61	1214.04
526.97	1230.94
527.33	1247.30
527.68	1264.12
528.04	1280.63
528.40	1297.24
528.76	1314.38
529.12	1331.06
529.48	1348.01
529.84	1364.32
530.20	1381.12
530.56	1398.31
530.91	1415.70
531.27	1432.58
531.63	1449.19
531.99	1465.79
532.35	1481.86
532.71	1497.84
533.07	1514.14
533.42	1530.09
533.78	1546.24
534.14	1562.63
534.50	1577.99
534.86	1594.02
535.21	1609.16
535.57	1625.27
535.93	1640.96
536.29	1655.73
536.65	1670.89
537.00	1685.84
537.36	1701.18
537.72	1715.77
538.08	1730.08
538.44	1744.07
538.79	1758.19
539.15	1772.04
539.51	1786.03
539.87	1800.33
540.22	1814.14
540.58	1827.97
540.94	1841.42
541.29	1854.49
541.65	1867.30
542.01	1880.68
542.37	1892.99
542.72	1905.53
543.08	1917.31
543.44	1929.76
543.79	1941.08
544.15	1952.11
544.51	1963.63
544.87	1974.57
545.22	1985.41
545.58	1995.83
545.94	2005.64
546.29	2015.53
546.65	2025.35
547.01	2034.57
547.36	2043.47
547.72	2052.05
548.07	2059.94
548.43	2068.17
548.79	2076.32
549.14	2083.81
549.50	2091.18
549.86	2099.10
550.21	2106.39
550.57	2113.58
550.92	2120.07
551.28	2127.30
551.64	2134.31
551.99	2140.87
552.35	2147.16
552.70	2153.32
553.06	2159.29
553.41	2165.64
553.77	2171.61
554.13	2177.70
554.48	2183.68
554.84	2189.01
555.19	2194.37
555.55	2199.32
555.90	2203.77
556.26	2208.30
556.61	2212.99
556.97	2217.15
557.32	2221.18
557.68	2225.37
558.03	2229.72
558.39	2233.43
558.74	2237.90
559.10	2241.75
559.45	2245.30
559.81	2249.45
560.16	2253.04
560.52	2256.08
560.87	2259.29
561.23	2261.90
561.58	2264.71
561.94	2267.20
562.29	2269.55
562.64	2272.02
563.00	2274.82
563.35	2278.24
563.71	2281.29
564.06	2284.33
564.42	2287.05
564.77	2289.35
565.12	2291.44
565.48	2292.96
565.83	2294.65
566.19	2295.74
566.54	2296.65
566.89	2297.66
567.25	2297.97
567.60	2299.35
567.96	2300.90
568.31	2301.75
568.66	2302.56
569.02	2303.10
569.37	2303.24
569.72	2303.86
570.08	2303.54
570.43	2303.23
570.78	2302.29
571.14	2300.68
571.49	2299.20
571.84	2298.64
572.20	2297.27
572.55	2295.93
572.90	2294.34
573.26	2292.84
573.61	2290.99
573.96	2288.86
574.31	2285.66
574.67	2282.52
575.02	2278.58
575.37	2275.02
575.72	2270.92
576.08	2267.47
576.43	2263.85
576.78	2260.20
577.13	2256.95
577.49	2253.93
577.84	2250.32
578.19	2246.56
578.54	2242.71
578.90	2238.34
579.25	2232.66
579.60	2227.65
579.95	2222.51
580.30	2217.35
580.66	2211.98
581.01	2207.01
581.36	2201.98
581.71	2197.72
582.06	2193.07
582.42	2188.52
582.77	2183.12
583.12	2178.42
583.47	2173.53
583.82	2168.27
584.17	2162.68
584.53	2156.99
584.88	2151.21
585.23	2145.28
585.58	2139.64
585.93	2134.13
586.28	2129.28
586.63	2124.20
586.98	2118.95
587.34	2114.15
587.69	2109.09
588.04	2103.69
588.39	2097.78
588.74	2091.27
589.09	2084.95
589.44	2078.10
589.79	2072.02
590.14	2066.38
590.49	2059.79
590.84	2053.26
591.19	2047.21
591.54	2040.66
591.89	2033.04
592.25	2026.06
592.60	2018.72
592.95	2010.94
593.30	2003.41
593.65	1995.64
594.00	1988.42
594.35	1981.22
594.70	1973.16
595.05	1965.88
595.40	1958.61
595.75	1950.98
596.10	1944.69
596.45	1937.83
596.80	1931.61
597.15	1924.80
597.50	1917.49
597.85	1910.96
598.19	1904.22
598.54	1896.94
598.89	1890.31
599.24	1884.46
599.59	1877.70
599.94	1871.53
600.29	1865.20
600.64	1858.54
600.99	1851.11
601.34	1844.13
601.69	1837.12
602.04	1830.16
602.39	1822.79
602.74	1815.79
603.08	1809.09
603.43	1802.23
603.78	1795.07
604.13	1787.87
604.48	1780.61
604.83	1773.86
605.18	1766.73
605.53	1758.72
605.87	1750.70
606.22	1743.39
606.57	1735.45
606.92	1728.15
607.27	1720.80
607.62	1713.93
607.96	1706.62
608.31	1699.99
608.66	1692.51
609.01	1684.85
609.36	1677.30
609.70	1669.30
610.05	1661.26
610.40	1653.61
610.75	1645.38
611.10	1637.56
611.44	1629.23
611.79	1621.21
612.14	1612.54
612.49	1603.55
612.83	1595.30
613.18	1587.28
613.53	1579.18
613.88	1570.67
614.22	1562.52
614.57	1554.05
614.92	1546.00
615.27	1538.52
615.61	1530.18
615.96	1522.10
616.31	1514.57
616.65	1507.34
617.00	1499.80
617.35	1492.20
617.70	1483.81
618.04	1475.26
618.39	1467.08
618.74	1459.41
619.08	1451.17
619.43	1443.62
619.78	1436.78
620.12	1429.58
620.47	1422.00
620.82	1413.97
621.16	1406.61
621.51	1399.04
621.85	1391.54
622.20	1383.11
622.55	1374.90
622.89	1367.22
623.24	1359.72
623.59	1352.39
623.93	1344.80
624.28	1337.61
624.62	1330.20
624.97	1323.07
625.32	1316.37
625.66	1309.41
626.01	1302.24
626.35	1294.82
626.70	1287.11
627.04	1279.42
627.39	1271.76
627.73	1264.52
628.08	1257.61
628.43	1250.34
628.77	1242.95
629.12	1235.37
629.46	1228.24
629.81	1220.85
630.15	1213.67
630.50	1206.34
630.84	1198.11
631.19	1190.20
631.53	1182.82
631.88	1175.23
632.22	1167.72
632.57	1160.42
632.91	1153.02
633.26	1145.62
633.60	1138.37
633.95	1131.38
634.29	1124.29
634.64	1117.66
634.98	1110.36
635.32	1103.29
635.67	1096.87
636.01	1090.29
636.36	1083.61
636.70	1077.06
637.05	1070.49
637.39	1064.03
637.73	1057.58
638.08	1051.81
638.42	1045.88
638.77	1039.39
639.11	1032.86
639.45	1026.56
639.80	1019.96
640.14	1013.60
640.49	1007.14
640.83	1000.87
641.17	994.62
641.52	988.42
641.86	982.03
642.20	976.20
642.55	969.95
642.89	963.38
643.23	957.00
643.58	951.25
643.92	945.11
644.26	939.07
644.61	933.09
644.95	927.12
645.29	920.61
645.64	913.98
645.98	907.64
646.32	901.85
646.66	895.75
647.01	890.07
647.35	884.36
647.69	878.60
648.04	873.15
648.38	867.39
648.72	861.32
649.06	855.31
649.41	849.53
649.75	843.59
650.09	837.72
650.43	831.90
650.78	825.73
651.12	819.85
651.46	814.14
651.80	808.36
652.14	802.91
652.49	797.47
652.83	792.26
653.17	786.63
653.51	781.02
653.85	775.74
654.20	770.09
654.54	764.16
654.88	758.48
655.22	752.59
655.56	746.90
655.90	741.48
656.25	736.28
656.59	730.90
656.93	725.73
657.27	720.59
657.61	715.17
657.95	710.13
658.29	705.10
658.64	699.97
658.98	694.80
659.32	689.41
659.66	684.32
660.00	678.99
660.34	674.11
660.68	669.26
661.02	664.24
661.36	659.56
661.70	655.00
662.05	650.70
662.39	646.41
662.73	642.05
663.07	637.83
663.41	633.42
663.75	629.03
664.09	624.57
664.43	620.21
664.77	616.12
665.11	611.90
665.45	607.84
665.79	603.75
666.13	599.64
666.47	595.60
666.81	591.47
667.15	587.46
667.49	583.62
667.83	579.79
668.17	575.88
668.51	571.89
668.85	567.92
669.19	564.09
669.53	560.30
669.87	556.42
670.21	552.66
670.55	549.07
670.89	545.61
671.23	542.19
671.57	538.73
671.91	535.21
672.25	531.74
672.58	528.24
672.92	524.88
673.26	521.75
673.60	518.62
673.94	515.48
674.28	512.64
674.62	509.72
674.96	506.67
675.30	503.79
675.64	500.87
675.97	498.18
676.31	495.36
676.65	492.44
676.99	489.79
677.33	487.01
677.67	484.12
678.01	481.07
678.34	478.10
678.68	475.29
679.02	472.52
679.36	469.83
679.70	467.09
680.04	464.30
680.37	461.47
680.71	458.68
681.05	456.11
681.39	453.36
681.73	450.71
682.06	448.19
682.40	445.67
682.74	443.16
683.08	440.66
683.42	438.03
683.75	435.55
684.09	432.97
684.43	430.49
684.77	428.11
685.10	425.82
685.44	423.61
685.78	421.32
686.12	419.08
686.45	416.79
686.79	414.53
687.13	412.35
687.46	410.17
687.80	408.03
688.14	405.83
688.48	403.85
688.81	401.59
689.15	399.42
689.49	397.30
689.82	395.23
690.16	393.16
690.50	391.25
690.83	389.30
691.17	387.40
691.51	385.55
691.84	383.75
692.18	381.85
692.52	379.86
692.85	377.95
693.19	376.08
693.52	374.27
693.86	372.47
694.20	370.75
694.53	368.96
694.87	367.16
695.21	365.41
695.54	363.55
695.88	361.88
696.21	360.24
696.55	358.57
696.88	356.89
697.22	355.28
697.56	353.64
697.89	352.02
698.23	350.41
698.56	348.81
698.90	347.17
699.23	345.57
699.57	344.03
699.90	342.55
700.24	341.05
700.58	339.52
700.91	338.08
701.25	336.62
701.58	335.26
701.92	333.93
702.25	332.56
702.59	331.28
702.92	329.94
703.26	328.61
703.59	327.40
703.93	326.22
704.26	324.93
704.60	323.69
704.93	322.42
705.26	321.19
705.60	320.08
705.93	318.97
706.27	317.93
706.60	316.86
706.94	315.75
707.27	314.66
707.61	313.59
707.94	312.53
708.27	311.49
708.61	310.41
708.94	309.39
709.28	308.42
709.61	307.43
709.94	306.51
710.28	305.54
710.61	304.55
710.95	303.48
711.28	302.62
711.61	301.67
711.95	300.80
712.28	299.85
712.61	298.84
712.95	297.88
713.28	297.02
713.61	296.18
713.95	295.30
714.28	294.46
714.61	293.63
714.95	292.83
715.28	292.00
715.61	291.15
715.95	290.30
716.28	289.47
716.61	288.67
716.95	287.87
717.28	287.15
717.61	286.42
717.94	285.73
718.28	284.94
718.61	284.23
718.94	283.52
719.27	282.88
719.61	282.26
719.94	281.66
720.27	280.96
720.60	280.27
720.94	279.66
721.27	279.06
721.60	278.52
721.93	277.93
722.27	277.37
722.60	276.84
722.93	276.28
723.26	275.72
723.59	275.16
723.93	274.63
724.26	274.06
724.59	273.50
724.92	272.97
725.25	272.49
725.59	271.96
725.92	271.47
726.25	270.95
726.58	270.41
726.91	269.88
727.24	269.38
727.57	268.89
727.91	268.36
728.24	267.89
728.57	267.37
728.90	266.92
729.23	266.40
729.56	265.97
729.89	265.50
730.22	265.03
730.55	264.58
730.89	264.11
731.22	263.65
731.55	263.16
731.88	262.69
732.21	262.22
732.54	261.79
732.87	261.37
733.20	260.95
733.53	260.57
733.86	260.20
734.19	259.81
734.52	259.48
734.85	259.17
735.18	258.75
735.51	258.40
735.84	258.00
736.17	257.65
736.50	257.23
736.83	256.99
737.16	256.63
737.49	256.24
737.82	255.92
738.15	255.61
738.48	255.29
738.81	254.99
739.14	254.70
739.47	254.37
739.80	254.07
740.13	253.79
740.46	253.44
740.79	253.14
741.12	252.84
741.45	252.47
741.78	252.11
742.11	251.83
742.44	251.48
742.77	251.20
743.10	250.92
743.43	250.64
743.75	250.26
744.08	250.12
744.41	249.86
744.74	249.55
745.07	249.25
745.40	248.98
745.73	248.68
746.06	248.42
746.39	248.20
746.71	247.91
747.04	247.64
747.37	247.42
747.70	247.14
748.03	246.91
748.36	246.72
748.68	246.52
749.01	246.26
749.34	246.04
749.67	245.84
750.00	245.64
750.33	245.48
750.65	245.27
750.98	244.93
751.31	244.74
751.64	244.54
751.97	244.40
752.29	244.25
752.62	244.07
752.95	243.81
753.28	243.56
753.60	243.36
753.93	243.19
754.26	243.03
754.59	242.83
754.91	242.61
755.24	242.41
755.57	242.21
755.90	242.05
756.22	241.87
756.55	241.71
756.88	241.49
757.20	241.25
757.53	241.06
757.86	240.89
758.19	240.73
758.51	240.57
758.84	240.35
759.17	240.14
759.49	239.95
759.82	239.89
760.15	239.77
760.47	239.63
760.80	239.46
761.13	239.31
761.45	239.14
761.78	239.01
762.11	238.89
762.43	238.76
762.76	238.62
763.08	238.49
763.41	238.34
763.74	238.23
764.06	238.14
764.39	238.00
764.71	237.86
765.04	237.74
765.37	237.61
765.69	237.47
766.02	237.37
766.34	237.26
766.67	237.09
767.00	236.96
767.32	236.91
767.65	236.86
767.97	236.70
768.30	236.59
768.62	236.49
768.95	236.35
769.27	236.23
769.60	236.17
769.92	236.04
770.25	235.89
770.57	235.77
770.90	235.64
771.22	235.54
771.55	235.43
771.87	235.34
772.20	235.25
772.52	235.23
772.85	235.20
773.17	235.12
773.50	235.05
773.82	234.95
774.15	234.80
774.47	234.63
774.80	234.54
775.12	234.45
775.45	234.35
775.77	234.24
776.09	234.14
776.42	234.03
776.74	233.99
777.07	233.91
777.39	233.81
777.72	233.73
778.04	233.65
778.36	233.60
778.69	233.51
779.01	233.45
779.33	233.25
779.66	233.11
779.98	233.02
780.31	232.92
780.63	232.87
780.95	232.86
781.28	232.78
781.60	232.72
781.92	232.66
782.25	232.58
782.57	232.56
782.89	232.47
783.22	232.39
783.54	232.27
783.86	232.21
784.19	232.12
784.51	232.07
784.83	232.02
785.16	231.92
785.48	231.84
785.80	231.79
786.12	231.79
786.45	231.75
786.77	231.71
787.09	231.68
787.42	231.57
787.74	231.47
788.06	231.41
788.38	231.36
788.71	231.36
789.03	231.30
789.35	231.26
789.67	231.25
789.99	231.23
790.32	231.18
790.64	231.16
790.96	231.23
791.28	231.17
791.61	231.12
791.93	231.12
792.25	231.08
792.57	231.12
792.89	231.06
793.21	231.02
793.54	230.99
793.86	230.97
794.18	230.98
794.50	230.95
794.82	230.93
795.14	230.93
795.47	230.90
795.79	230.86
796.11	230.83
796.43	230.77
796.75	230.75
797.07	230.75
797.39	230.70
797.71	230.62
798.04	230.60
798.36	230.60
798.68	230.58
799.00	230.60
799.32	230.50
799.64	230.51
799.96	230.48
800.28	230.47
800.60	230.44
800.92	230.41
801.24	230.38
801.56	230.39
801.89	230.37
802.21	230.33
802.53	230.34
802.85	230.35
803.17	230.38
803.49	230.33
803.81	230.33
804.13	230.33
804.45	230.29
804.77	230.29
805.09	230.27
805.41	230.23
805.73	230.14
806.05	230.10
806.37	230.06
806.69	230.03
807.01	229.97
807.33	229.95
807.65	229.91
807.97	229.91
808.28	229.85
808.60	229.85
808.92	229.81
809.24	229.85
809.56	229.78
809.88	229.71
810.20	229.73
810.52	229.69
810.84	229.61
811.16	229.59
811.48	229.55
811.80	229.56
812.12	229.53
812.43	229.54
812.75	229.51
813.07	229.49
813.39	229.47
813.71	229.44
814.03	229.37
814.35	229.34
814.67	229.26
814.98	229.22
815.30	229.16
815.62	229.12
815.94	228.99
816.26	229.01
816.58	228.94
816.89	228.86
817.21	228.82
817.53	228.81
817.85	228.76
818.17	228.73
818.48	228.67
818.80	228.65
819.12	228.61
819.44	228.58
819.76	228.53
820.07	228.48
820.39	228.46
820.71	228.47
821.03	228.45
821.34	228.44
821.66	228.42
821.98	228.42
822.30	228.40
822.61	228.46
822.93	228.39
823.25	228.40
823.57	228.42
823.88	228.41
824.20	228.41
824.52	228.43
824.83	228.41
825.15	228.37
825.47	228.35
825.79	228.34
826.10	228.34
826.42	228.33
826.74	228.33
827.05	228.30
827.37	228.31
827.69	228.30
828.00	228.33
828.32	228.33
828.64	228.32
828.95	228.34
829.27	228.31
829.58	228.30
829.90	228.30
830.22	228.28
830.53	228.25
830.85	228.19
831.17	228.15
831.48	228.16
831.80	228.17
832.11	228.20
832.43	228.18
832.75	228.20
833.06	228.23
833.38	228.24
833.69	228.23
834.01	228.23
834.32	228.20
834.64	228.21
834.96	228.21
835.27	228.22
835.59	228.21
835.90	228.17
836.22	228.20
836.53	228.21
836.85	228.18
837.16	228.28
837.48	228.31
837.79	228.37
838.11	228.37
838.42	228.36
838.74	228.35
839.05	228.37
839.37	228.34
839.68	228.31
840.00	228.33
840.31	228.37
840.63	228.37
840.94	228.40
841.26	228.39
841.57	228.36
841.88	228.35
842.20	228.32
842.51	228.35
842.83	228.31
843.14	228.40
843.46	228.42
843.77	228.36
844.08	228.37
844.40	228.32
844.71	228.27
845.03	228.27
845.34	228.23
845.65	228.19
845.97	228.18
846.28	228.20
846.60	228.18
846.91	228.13
847.22	228.09
847.54	228.06
847.85	228.07
848.16	228.03
848.48	228.01
848.79	228.04
849.10	228.01
849.42	228.01
849.73	227.89
850.04	227.84
850.36	227.80
850.67	227.80
850.98	227.79
851.30	227.78
851.61	227.80
851.92	227.81
852.23	227.83
852.55	227.85
852.86	227.81
853.17	227.78
853.49	227.81
853.80	227.82
854.11	227.80
854.42	227.78
854.74	227.77
855.05	227.76
855.36	227.70
855.67	227.70
855.99	227.71
856.30	227.80
856.61	227.83
856.92	227.84
857.23	227.80
857.55	227.79
857.86	227.80
858.17	227.74
858.48	227.73
858.79	227.71
859.11	227.66
859.42	227.63
859.73	227.63
860.04	227.60
860.35	227.59
860.66	227.57
860.98	227.54
861.29	227.55
861.60	227.54
861.91	227.56
862.22	227.57
862.53	227.54
862.84	227.42
863.16	227.45
863.47	227.41
863.78	227.41
864.09	227.43
864.40	227.41
864.71	227.46
865.02	227.44
865.33	227.41
865.64	227.42
865.95	227.44
866.27	227.50
866.58	227.47
866.89	227.48
867.20	227.51
867.51	227.51
867.82	227.50
868.13	227.55
868.44	227.52
868.75	227.49
869.06	227.55
869.37	227.57
869.68	227.53
869.99	227.57
870.30	227.59
870.61	227.57
870.92	227.55
871.23	227.51
871.54	227.53
871.85	227.58
872.16	227.61
872.47	227.64
872.78	227.58
873.09	227.64
873.40	227.59
873.71	227.60
874.02	227.62
874.33	227.62
874.64	227.60
874.95	227.65
875.26	227.65
875.56	227.60
875.87	227.62
876.18	227.62
876.49	227.70
876.80	227.69
877.11	227.67
877.42	227.73
877.73	227.79
878.04	227.79
878.35	227.77
878.66	227.78
878.96	227.73
879.27	227.71
879.58	227.68
879.89	227.71
880.20	227.73
880.51	227.69
880.82	227.67
881.12	227.65
881.43	227.60
881.74	227.61
882.05	227.62
882.36	227.61
882.67	227.61
882.97	227.54
883.28	227.50
883.59	227.52
883.90	227.47
884.21	227.41
884.51	227.42
884.82	227.42
885.13	227.40
885.44	227.41
885.74	227.43
886.05	227.44
886.36	227.45
886.67	227.40
886.98	227.41
887.28	227.44
887.59	227.44
887.90	227.44
888.20	227.41
888.51	227.42
888.82	227.36
889.13	227.40
889.43	227.45
889.74	227.46
890.05	227.44
890.35	227.41
890.66	227.41
890.97	227.40
891.28	227.38
891.58	227.37
891.89	227.35
892.20	227.33
892.50	227.29
892.81	227.26
893.12	227.26
893.42	227.26
893.73	227.28
894.04	227.28
894.34	227.29
894.65	227.30
894.95	227.29
895.26	227.31
895.57	227.33
895.87	227.22
896.18	227.26
896.48	227.31
896.79	227.35
897.10	227.37
897.40	227.36
897.71	227.36
898.01	227.35
898.32	227.39
898.63	227.38
898.93	227.40
899.24	227.40
899.54	227.40
899.85	227.40
900.15	227.42
900.46	227.44
900.76	227.46
901.07	227.46
901.38	227.44
901.68	227.47
901.99	227.41
902.29	227.46
902.60	227.44
902.90	227.41
903.21	227.42
903.51	227.43
903.82	227.47
904.12	227.48
904.43	227.53
904.73	227.54
905.03	227.55
905.34	227.62
905.64	227.61
905.95	227.63
906.25	227.65
906.56	227.64
906.86	227.62
907.17	227.63
907.47	227.64
907.77	227.65
908.08	227.64
908.38	227.65
908.69	227.67
908.99	227.70
909.30	227.74
909.60	227.75
909.90	227.73
910.21	227.72
910.51	227.73
910.81	227.71
911.12	227.70
911.42	227.71
911.73	227.64
912.03	227.65
912.33	227.67
912.64	227.66
912.94	227.64
913.24	227.61
913.55	227.61
913.85	227.60
914.15	227.64
914.46	227.65
914.76	227.64
915.06	227.63
915.37	227.59
915.67	227.56
915.97	227.55
916.27	227.56
916.58	227.52
916.88	227.48
917.18	227.46
917.49	227.50
917.79	227.50
918.09	227.47
918.39	227.51
918.70	227.44
919.00	227.48
919.30	227.55
919.60	227.55
919.91	227.54
920.21	227.53
920.51	227.49
920.81	227.45
921.12	227.48
921.42	227.49
921.72	227.49
922.02	227.47
922.32	227.46
922.63	227.42
922.93	227.49
923.23	227.50
923.53	227.50
923.83	227.45
924.13	227.43
924.44	227.45
924.74	227.45
925.04	227.51
925.34	227.44
925.64	227.37
925.94	227.33
926.24	227.37
926.55	227.32
926.85	227.32
927.15	227.32
927.45	227.27
927.75	227.23
928.05	227.21
928.35	227.21
928.65	227.24
928.95	227.23
929.26	227.16
929.56	227.16
929.86	227.17
930.16	227.16
930.46	227.15
930.76	227.14
931.06	227.09
931.36	227.05
931.66	227.08
931.96	227.08
932.26	227.13
932.56	227.08
932.86	227.11
933.16	227.13
933.46	227.13
933.76	227.11
934.06	227.14
934.36	227.20
934.66	227.22
934.96	227.19
935.26	227.18
935.56	227.20
935.86	227.20
936.16	227.20
936.46	227.18
936.76	227.20
937.06	227.21
937.36	227.24
937.66	227.24
937.96	227.25
938.26	227.23
938.56	227.23
938.86	227.24
939.16	227.27
939.46	227.27
939.76	227.26
940.06	227.33
940.35	227.30
940.65	227.24
940.95	227.26
941.25	227.26
941.55	227.28
941.85	227.30
942.15	227.32
942.45	227.36
942.75	227.36
943.04	227.38
943.34	227.38
943.64	227.36
943.94	227.36
944.24	227.38
944.54	227.39
944.84	227.38
945.13	227.37
945.43	227.36
945.73	227.34
946.03	227.34
946.33	227.31
946.62	227.30
946.92	227.33
947.22	227.32
947.52	227.33
947.82	227.35
948.11	227.32
948.41	227.31
948.71	227.27
949.01	227.28
949.31	227.25
949.60	227.24
949.90	227.24
950.20	227.24
950.50	227.22
950.79	227.24
951.09	227.25
951.39	227.26
951.69	227.25
951.98	227.28
952.28	227.30
952.58	227.32
952.87	227.33
953.17	227.34
953.47	227.33
953.76	227.35
954.06	227.33
954.36	227.32
954.66	227.34
954.95	227.35
955.25	227.36
955.55	227.32
955.84	227.34
956.14	227.38
956.44	227.38
956.73	227.35
957.03	227.34
957.32	227.35
957.62	227.30
957.92	227.31
958.21	227.28
958.51	227.35
958.81	227.34
959.10	227.37
959.40	227.34
959.69	227.30
959.99	227.28
960.29	227.25
960.58	227.25
960.88	227.26
961.17	227.25
961.47	227.25
961.76	227.30
962.06	227.28
962.36	227.23
962.65	227.23
962.95	227.23
963.24	227.18
963.54	227.16
963.83	227.19
964.13	227.17
964.42	227.16
964.72	227.07
965.01	227.06
965.31	227.00
965.60	227.01
965.90	227.12
966.19	227.11
966.49	227.13
966.78	227.11
967.08	227.11
967.37	227.12
967.67	227.12
967.96	227.09
968.26	227.11
968.55	227.14
968.85	227.14
969.14	227.13
969.43	227.17
969.73	227.15
970.02	227.15
970.32	227.16
970.61	227.14
970.91	227.11
971.20	227.11
971.49	227.12
971.79	227.11
972.08	227.02
972.38	227.04
972.67	227.04
972.96	227.08
973.26	227.07
973.55	227.11
973.85	227.10
974.14	227.12
974.43	227.12
974.73	227.10
975.02	227.11
975.31	227.14
975.61	227.14
975.90	227.15
976.19	227.16
976.49	227.18
976.78	227.21
977.07	227.25
977.37	227.26
977.66	227.29
977.95	227.28
978.24	227.32
978.54	227.36
978.83	227.37
979.12	227.36
979.42	227.38
979.71	227.35
980.00	227.34
980.29	227.37
980.59	227.35
980.88	227.36
981.17	227.36
981.46	227.33
981.76	227.36
982.05	227.43
982.34	227.43
982.63	227.41
982.93	227.44
983.22	227.48
983.51	227.48
983.80	227.49
984.09	227.51
984.39	227.47
984.68	227.42
984.97	227.43
985.26	227.43
985.55	227.41
985.85	227.38
986.14	227.39
986.43	227.40
986.72	227.39
987.01	227.36
987.30	227.36
987.59	227.34
987.89	227.31
988.18	227.25
988.47	227.23
988.76	227.24
989.05	227.21
989.34	227.15
989.63	227.17
989.92	227.14
990.22	227.12
990.51	227.12
990.80	227.11
991.09	227.08
991.38	227.08
991.67	227.10
991.96	227.11
992.25	227.12
992.54	227.07
992.83	227.05
993.12	227.07
993.41	227.06
993.70	227.10
993.99	227.10
994.28	227.10
994.58	227.13
994.87	227.08
995.16	227.07
995.45	227.07
995.74	227.04
996.03	227.04
996.32	227.03
996.61	227.05
996.90	227.04
997.19	227.04
997.48	227.05
997.77	227.00
998.06	226.97
998.34	226.94
998.63	226.96
998.92	226.97
999.21	226.94
999.50	226.94
999.79	226.93
1000.08	226.94
1000.37	226.96
1000.66	226.93
1000.95	226.95
1001.24	226.94
1001.53	226.97
1001.82	226.95
1002.11	226.96
1002.40	226.98
1002.68	226.99
1002.97	227.05
1003.26	227.03
1003.55	226.98
1003.84	227.00
1004.13	227.04
1004.42	227.07
1004.71	227.07
1004.99	227.03
1005.28	227.06
1005.57	227.08
1005.86	227.06
1006.15	227.05
1006.44	227.04
1006.72	227.07
1007.01	227.07
1007.30	227.10
1007.59	227.07
1007.88	227.07
1008.17	227.05
1008.45	227.03
1008.74	226.99
1009.03	226.95
1009.32	226.97
1009.60	226.98
1009.89	226.96
1010.18	226.92
1010.47	226.90
1010.76	226.89
1011.04	226.92
1011.33	226.94
1011.62	226.95
1011.91	226.96
1012.19	226.96
1012.48	226.96
1012.77	226.94
1013.05	226.99
1013.34	226.96
1013.63	226.97
1013.92	226.99
1014.20	226.99
1014.49	227.01
1014.78	227.02
1015.06	226.99
1015.35	227.00
1015.64	227.00
1015.92	227.01
1016.21	227.04
1016.50	227.05
1016.78	227.07
1017.07	227.07
1017.36	227.07
1017.64	227.05
1017.93	227.08
1018.22	227.06
1018.50	227.05
1018.79	227.06
1019.08	227.04
1019.36	227.05
1019.65	227.07
1019.93	227.08
1020.22	227.14
1020.51	227.17
1020.79	227.19
1021.08	226.82
1021.36	226.66
1021.65	227.24
1021.94	227.45
1022.22	226.85
1022.51	227.68
1022.79	227.25
1023.08	227.78
1023.36	228.06
1023.65	227.11
>>>>>End Processed Spectral Data<<<<<
