SpectraSuite Data File
++++++++++++++++++++++++++++++++++++
Date: Fri Feb 01 17:18:15 EST 2013
User: group
Dark Spectrum Present: No
Reference Spectrum Present: No
Number of Sampled Component Spectra: 1
Spectrometers: USB2E7196
Integration Time (usec): 35000 (USB2E7196)
Spectra Averaged: 100 (USB2E7196)
Boxcar Smoothing: 10 (USB2E7196)
Correct for Electrical Dark: No (USB2E7196)
Strobe/Lamp Enabled: No (USB2E7196)
Correct for Detector Non-linearity: No (USB2E7196)
Correct for Stray Light: No (USB2E7196)
Number of Pixels in Processed Spectrum: 2048
>>>>>Begin Processed Spectral Data<<<<<
339.09	0.00
339.48	213.27
339.86	214.10
340.24	215.50
340.63	217.17
341.01	219.91
341.39	219.83
341.78	221.10
342.16	222.18
342.54	223.30
342.93	211.59
343.31	222.31
343.69	222.84
344.07	223.32
344.46	223.79
344.84	224.18
345.22	224.46
345.60	224.72
345.99	224.91
346.37	225.06
346.75	225.17
347.13	225.27
347.52	225.35
347.90	225.43
348.28	225.43
348.66	225.51
349.05	225.50
349.43	225.54
349.81	225.57
350.19	225.60
350.57	225.67
350.96	225.68
351.34	225.76
351.72	225.83
352.10	225.93
352.48	225.97
352.87	226.03
353.25	226.07
353.63	226.15
354.01	226.24
354.39	226.32
354.77	226.37
355.15	226.46
355.54	226.52
355.92	226.55
356.30	226.65
356.68	226.76
357.06	226.85
357.44	226.87
357.82	226.92
358.20	226.99
358.58	227.01
358.97	227.07
359.35	227.12
359.73	227.22
360.11	227.28
360.49	227.33
360.87	227.37
361.25	227.43
361.63	227.50
362.01	227.52
362.39	227.56
362.77	227.62
363.15	227.63
363.53	227.66
363.91	227.68
364.29	227.66
364.67	227.59
365.05	227.59
365.43	227.61
365.81	227.63
366.19	227.67
366.57	227.75
366.95	227.75
367.33	227.73
367.71	227.69
368.09	227.70
368.47	227.70
368.85	227.67
369.23	227.63
369.61	227.57
369.99	227.58
370.37	227.53
370.75	227.54
371.13	227.47
371.51	227.39
371.89	227.35
372.27	227.32
372.65	227.26
373.03	227.20
373.41	227.14
373.78	227.08
374.16	226.97
374.54	226.85
374.92	226.79
375.30	226.72
375.68	226.66
376.06	226.60
376.44	226.53
376.82	226.48
377.19	226.43
377.57	226.34
377.95	226.23
378.33	226.17
378.71	226.03
379.09	225.98
379.47	225.93
379.84	225.87
380.22	225.82
380.60	225.76
380.98	225.72
381.36	225.66
381.73	225.59
382.11	225.56
382.49	225.51
382.87	225.45
383.25	225.40
383.62	225.42
384.00	225.33
384.38	225.27
384.76	225.23
385.13	225.25
385.51	225.23
385.89	225.18
386.27	225.14
386.64	225.13
387.02	225.10
387.40	225.06
387.78	225.04
388.15	225.00
388.53	224.98
388.91	224.94
389.29	224.90
389.66	224.90
390.04	224.88
390.42	224.87
390.79	224.87
391.17	224.86
391.55	224.77
391.92	224.77
392.30	224.81
392.68	224.79
393.05	224.76
393.43	224.76
393.81	224.80
394.18	224.78
394.56	224.81
394.94	224.84
395.31	224.85
395.69	224.91
396.06	224.95
396.44	224.95
396.82	225.00
397.19	225.07
397.57	225.10
397.95	225.15
398.32	225.15
398.70	225.18
399.07	225.27
399.45	225.32
399.82	225.40
400.20	225.43
400.58	225.50
400.95	225.52
401.33	225.62
401.70	225.73
402.08	225.83
402.45	225.91
402.83	226.00
403.20	226.08
403.58	226.18
403.95	226.30
404.33	226.44
404.71	226.56
405.08	226.73
405.46	226.87
405.83	227.01
406.21	227.20
406.58	227.38
406.96	227.52
407.33	227.73
407.70	227.92
408.08	228.17
408.45	228.40
408.83	228.65
409.20	228.89
409.58	229.07
409.95	229.35
410.33	229.61
410.70	229.85
411.08	230.18
411.45	230.44
411.82	230.77
412.20	231.11
412.57	231.51
412.95	231.80
413.32	232.22
413.69	232.64
414.07	233.07
414.44	233.54
414.82	234.01
415.19	234.56
415.56	235.10
415.94	235.65
416.31	236.30
416.68	236.93
417.06	237.63
417.43	238.33
417.81	239.11
418.18	239.92
418.55	240.79
418.93	241.70
419.30	242.61
419.67	243.58
420.04	244.57
420.42	245.60
420.79	246.84
421.16	248.02
421.54	249.24
421.91	250.50
422.28	251.79
422.66	253.15
423.03	254.45
423.40	255.85
423.77	257.31
424.15	258.74
424.52	260.29
424.89	261.94
425.26	263.53
425.64	264.99
426.01	266.62
426.38	268.33
426.75	270.01
427.13	271.83
427.50	273.65
427.87	275.57
428.24	277.45
428.61	279.22
428.99	281.20
429.36	283.38
429.73	285.48
430.10	287.58
430.47	289.71
430.85	291.92
431.22	294.22
431.59	296.67
431.96	299.01
432.33	301.53
432.70	303.95
433.08	306.85
433.45	309.59
433.82	312.30
434.19	315.20
434.56	318.06
434.93	320.75
435.30	323.43
435.68	326.43
436.05	329.42
436.42	332.30
436.79	334.89
437.16	337.63
437.53	340.58
437.90	343.43
438.27	346.29
438.64	349.24
439.01	351.90
439.38	354.20
439.75	356.42
440.13	359.02
440.50	361.45
440.87	363.33
441.24	365.31
441.61	367.52
441.98	369.15
442.35	371.05
442.72	373.01
443.09	374.92
443.46	375.96
443.83	376.56
444.20	377.12
444.57	378.02
444.94	378.34
445.31	378.69
445.68	379.12
446.05	379.21
446.42	378.83
446.79	378.44
447.16	377.99
447.53	377.70
447.90	376.51
448.27	375.36
448.64	373.79
449.01	372.65
449.37	370.63
449.74	368.71
450.11	366.40
450.48	363.83
450.85	361.23
451.22	359.00
451.59	356.95
451.96	354.95
452.33	352.27
452.70	349.86
453.07	346.95
453.43	343.94
453.80	341.07
454.17	338.28
454.54	335.66
454.91	332.87
455.28	330.09
455.65	327.51
456.02	324.96
456.38	322.74
456.75	319.99
457.12	317.69
457.49	315.37
457.86	313.15
458.23	311.29
458.59	309.19
458.96	307.05
459.33	305.09
459.70	303.16
460.07	301.57
460.43	299.80
460.80	298.12
461.17	296.65
461.54	295.07
461.91	293.61
462.27	292.08
462.64	290.83
463.01	289.42
463.38	288.10
463.74	286.70
464.11	285.50
464.48	284.44
464.85	283.29
465.21	282.37
465.58	281.45
465.95	280.28
466.32	279.33
466.68	278.39
467.05	277.48
467.42	276.58
467.78	275.68
468.15	274.76
468.52	274.07
468.88	273.18
469.25	272.41
469.62	271.79
469.98	271.11
470.35	270.44
470.72	269.88
471.08	269.21
471.45	268.67
471.82	268.10
472.18	267.50
472.55	267.07
472.92	266.55
473.28	266.09
473.65	265.66
474.02	265.20
474.38	264.82
474.75	264.48
475.11	264.13
475.48	263.84
475.85	263.61
476.21	263.39
476.58	263.19
476.94	263.02
477.31	262.84
477.67	262.71
478.04	262.59
478.41	262.51
478.77	262.53
479.14	262.47
479.50	262.47
479.87	262.54
480.23	262.63
480.60	262.70
480.96	262.78
481.33	263.00
481.69	263.22
482.06	263.45
482.42	263.66
482.79	263.87
483.15	264.19
483.52	264.60
483.88	264.96
484.25	265.34
484.61	265.77
484.98	266.18
485.34	266.73
485.71	267.31
486.07	267.90
486.44	268.47
486.80	269.15
487.17	269.93
487.53	270.76
487.90	271.59
488.26	272.53
488.62	273.50
488.99	274.44
489.35	275.49
489.72	276.60
490.08	277.80
490.44	279.11
490.81	280.49
491.17	281.81
491.54	283.26
491.90	284.80
492.26	286.49
492.63	288.28
492.99	290.06
493.36	291.96
493.72	293.97
494.08	296.09
494.45	298.36
494.81	300.65
495.17	303.05
495.54	305.61
495.90	308.29
496.26	311.09
496.63	314.05
496.99	317.16
497.35	320.37
497.72	323.76
498.08	327.19
498.44	330.78
498.80	334.72
499.17	338.71
499.53	342.87
499.89	347.14
500.26	351.62
500.62	356.25
500.98	361.23
501.34	366.28
501.71	371.56
502.07	376.97
502.43	382.57
502.79	388.32
503.16	394.35
503.52	400.53
503.88	406.85
504.24	413.39
504.60	420.14
504.97	427.25
505.33	434.51
505.69	442.15
506.05	449.85
506.41	457.60
506.78	465.73
507.14	474.11
507.50	482.75
507.86	491.63
508.22	500.71
508.59	509.75
508.95	519.12
509.31	528.80
509.67	538.76
510.03	548.84
510.39	559.26
510.75	569.81
511.12	580.58
511.48	591.69
511.84	602.98
512.20	614.36
512.56	626.02
512.92	637.90
513.28	650.14
513.64	662.39
514.00	674.88
514.37	687.65
514.73	700.42
515.09	713.18
515.45	726.22
515.81	739.52
516.17	753.32
516.53	767.24
516.89	781.13
517.25	795.07
517.61	809.21
517.97	823.50
518.33	837.63
518.69	852.08
519.05	866.74
519.41	881.60
519.77	896.80
520.13	911.91
520.49	927.07
520.85	942.08
521.21	957.39
521.57	973.26
521.93	988.59
522.29	1004.68
522.65	1020.73
523.01	1036.56
523.37	1052.30
523.73	1067.97
524.09	1083.74
524.45	1099.80
524.81	1115.93
525.17	1132.37
525.53	1148.80
525.89	1165.40
526.25	1181.90
526.61	1197.93
526.97	1214.34
527.33	1230.53
527.68	1246.82
528.04	1262.92
528.40	1279.09
528.76	1295.84
529.12	1312.15
529.48	1328.78
529.84	1344.40
530.20	1360.51
530.56	1377.07
530.91	1394.13
531.27	1410.61
531.63	1426.81
531.99	1443.06
532.35	1458.89
532.71	1474.54
533.07	1490.55
533.42	1506.19
533.78	1522.01
534.14	1537.93
534.50	1553.00
534.86	1568.48
535.21	1583.51
535.57	1599.19
535.93	1614.35
536.29	1628.98
536.65	1643.79
537.00	1658.15
537.36	1673.35
537.72	1687.65
538.08	1701.99
538.44	1715.44
538.79	1729.19
539.15	1742.52
539.51	1756.03
539.87	1770.10
540.22	1783.67
540.58	1797.24
540.94	1810.30
541.29	1822.92
541.65	1835.55
542.01	1848.61
542.37	1860.94
542.72	1873.22
543.08	1884.91
543.44	1897.39
543.79	1908.50
544.15	1919.40
544.51	1930.84
544.87	1941.65
545.22	1952.55
545.58	1962.74
545.94	1972.70
546.29	1982.60
546.65	1992.55
547.01	2001.74
547.36	2010.50
547.72	2019.04
548.07	2027.03
548.43	2035.34
548.79	2043.31
549.14	2051.19
549.50	2058.54
549.86	2066.15
550.21	2073.65
550.57	2080.98
550.92	2087.76
551.28	2095.19
551.64	2102.49
551.99	2109.39
552.35	2115.67
552.70	2122.05
553.06	2128.31
553.41	2134.81
553.77	2140.74
554.13	2146.89
554.48	2153.28
554.84	2159.16
555.19	2164.60
555.55	2169.94
555.90	2174.74
556.26	2180.26
556.61	2184.95
556.97	2189.70
557.32	2194.18
557.68	2198.44
558.03	2202.83
558.39	2206.62
558.74	2211.31
559.10	2215.47
559.45	2219.36
559.81	2223.85
560.16	2227.83
560.52	2231.30
560.87	2234.99
561.23	2238.13
561.58	2241.39
561.94	2244.28
562.29	2246.70
562.64	2249.80
563.00	2252.72
563.35	2256.39
563.71	2259.68
564.06	2263.04
564.42	2266.27
564.77	2269.21
565.12	2271.96
565.48	2274.36
565.83	2276.81
566.19	2278.62
566.54	2279.73
566.89	2281.26
567.25	2282.40
567.60	2284.08
567.96	2286.13
568.31	2287.36
568.66	2288.98
569.02	2289.98
569.37	2290.74
569.72	2292.00
570.08	2292.51
570.43	2292.83
570.78	2292.62
571.14	2291.37
571.49	2290.49
571.84	2290.42
572.20	2289.63
572.55	2288.90
572.90	2287.59
573.26	2286.48
573.61	2284.72
573.96	2283.36
574.31	2280.81
574.67	2278.15
575.02	2274.78
575.37	2271.73
575.72	2268.29
576.08	2265.12
576.43	2261.89
576.78	2258.63
577.13	2255.58
577.49	2252.48
577.84	2249.36
578.19	2245.97
578.54	2242.71
578.90	2238.96
579.25	2233.69
579.60	2229.04
579.95	2224.32
580.30	2219.56
580.66	2214.70
581.01	2210.25
581.36	2205.60
581.71	2201.76
582.06	2197.60
582.42	2193.49
582.77	2188.58
583.12	2184.28
583.47	2180.01
583.82	2175.55
584.17	2170.36
584.53	2165.24
584.88	2160.00
585.23	2154.70
585.58	2149.36
585.93	2144.09
586.28	2139.32
586.63	2134.49
586.98	2129.57
587.34	2124.93
587.69	2120.27
588.04	2115.27
588.39	2109.78
588.74	2103.46
589.09	2097.32
589.44	2090.79
589.79	2084.73
590.14	2079.07
590.49	2072.62
590.84	2066.13
591.19	2060.34
591.54	2054.13
591.89	2047.16
592.25	2040.66
592.60	2033.41
592.95	2026.25
593.30	2019.02
593.65	2011.76
594.00	2004.79
594.35	1997.80
594.70	1989.80
595.05	1982.90
595.40	1975.61
595.75	1968.14
596.10	1962.26
596.45	1955.82
596.80	1949.67
597.15	1943.40
597.50	1936.60
597.85	1930.18
598.19	1923.85
598.54	1916.95
598.89	1910.35
599.24	1904.38
599.59	1897.88
599.94	1891.58
600.29	1885.10
600.64	1878.63
600.99	1871.21
601.34	1864.55
601.69	1857.47
602.04	1850.87
602.39	1843.43
602.74	1836.74
603.08	1830.22
603.43	1823.43
603.78	1815.96
604.13	1808.82
604.48	1801.62
604.83	1794.87
605.18	1788.15
605.53	1780.24
605.87	1772.13
606.22	1764.92
606.57	1757.08
606.92	1749.62
607.27	1742.74
607.62	1735.99
607.96	1728.84
608.31	1722.40
608.66	1714.91
609.01	1707.58
609.36	1700.17
609.70	1692.26
610.05	1684.19
610.40	1676.58
610.75	1668.16
611.10	1660.63
611.44	1652.18
611.79	1644.09
612.14	1635.32
612.49	1626.09
612.83	1617.43
613.18	1609.24
613.53	1601.01
613.88	1592.43
614.22	1584.11
614.57	1575.16
614.92	1567.04
615.27	1559.57
615.61	1551.12
615.96	1542.95
616.31	1535.10
616.65	1527.59
617.00	1519.92
617.35	1512.15
617.70	1503.78
618.04	1495.40
618.39	1487.03
618.74	1479.53
619.08	1471.19
619.43	1463.53
619.78	1456.48
620.12	1449.50
620.47	1441.92
620.82	1433.67
621.16	1426.07
621.51	1418.36
621.85	1410.79
622.20	1402.18
622.55	1393.61
622.89	1385.63
623.24	1377.80
623.59	1370.29
623.93	1362.67
624.28	1355.30
624.62	1347.75
624.97	1340.39
625.32	1333.34
625.66	1326.19
626.01	1318.86
626.35	1311.47
626.70	1303.58
627.04	1295.84
627.39	1287.86
627.73	1280.36
628.08	1273.49
628.43	1266.25
628.77	1259.00
629.12	1251.44
629.46	1244.19
629.81	1236.56
630.15	1229.26
630.50	1221.77
630.84	1213.58
631.19	1205.42
631.53	1197.80
631.88	1190.07
632.22	1182.41
632.57	1174.99
632.91	1167.35
633.26	1159.86
633.60	1152.21
633.95	1144.91
634.29	1137.73
634.64	1130.89
634.98	1123.47
635.32	1116.13
635.67	1109.37
636.01	1102.59
636.36	1095.74
636.70	1089.16
637.05	1082.56
637.39	1076.03
637.73	1069.60
638.08	1063.51
638.42	1057.55
638.77	1051.14
639.11	1044.61
639.45	1038.26
639.80	1031.62
640.14	1025.33
640.49	1018.71
640.83	1012.46
641.17	1006.33
641.52	999.93
641.86	993.36
642.20	987.38
642.55	980.97
642.89	974.53
643.23	967.72
643.58	961.85
643.92	955.54
644.26	949.52
644.61	943.38
644.95	937.34
645.29	930.87
645.64	924.06
645.98	917.64
646.32	911.62
646.66	905.43
647.01	899.61
647.35	893.78
647.69	887.82
648.04	882.16
648.38	876.33
648.72	870.26
649.06	864.30
649.41	858.30
649.75	852.46
650.09	846.42
650.43	840.72
650.78	834.55
651.12	828.61
651.46	822.81
651.80	817.21
652.14	811.71
652.49	806.23
652.83	801.04
653.17	795.42
653.51	789.78
653.85	784.30
654.20	778.68
654.54	772.61
654.88	766.85
655.22	760.89
655.56	755.17
655.90	749.70
656.25	744.44
656.59	739.16
656.93	733.98
657.27	728.87
657.61	723.45
657.95	718.36
658.29	713.19
658.64	707.86
658.98	702.37
659.32	696.81
659.66	691.68
660.00	686.39
660.34	681.37
660.68	676.39
661.02	671.34
661.36	666.56
661.70	662.14
662.05	657.76
662.39	653.54
662.73	649.05
663.07	644.67
663.41	640.15
663.75	635.67
664.09	631.05
664.43	626.53
664.77	622.37
665.11	618.09
665.45	614.00
665.79	609.92
666.13	605.83
666.47	601.78
666.81	597.53
667.15	593.39
667.49	589.44
667.83	585.52
668.17	581.51
668.51	577.44
668.85	573.32
669.19	569.41
669.53	565.54
669.87	561.63
670.21	557.91
670.55	554.23
670.89	550.69
671.23	547.22
671.57	543.71
671.91	540.17
672.25	536.59
672.58	533.00
672.92	529.54
673.26	526.27
673.60	523.07
673.94	519.96
674.28	516.96
674.62	514.01
674.96	510.93
675.30	508.03
675.64	505.07
675.97	502.25
676.31	499.38
676.65	496.42
676.99	493.68
677.33	490.82
677.67	487.98
678.01	484.99
678.34	482.03
678.68	479.11
679.02	476.23
679.36	473.42
679.70	470.70
680.04	467.92
680.37	465.08
680.71	462.29
681.05	459.67
681.39	456.91
681.73	454.19
682.06	451.66
682.40	449.17
682.74	446.59
683.08	444.00
683.42	441.34
683.75	438.75
684.09	436.15
684.43	433.61
684.77	431.15
685.10	428.77
685.44	426.41
685.78	424.10
686.12	421.81
686.45	419.51
686.79	417.18
687.13	414.96
687.46	412.78
687.80	410.61
688.14	408.25
688.48	406.22
688.81	403.97
689.15	401.77
689.49	399.53
689.82	397.42
690.16	395.29
690.50	393.30
690.83	391.42
691.17	389.36
691.51	387.47
691.84	385.55
692.18	383.64
692.52	381.74
692.85	379.77
693.19	377.90
693.52	376.01
693.86	374.16
694.20	372.33
694.53	370.50
694.87	368.53
695.21	366.75
695.54	364.88
695.88	363.11
696.21	361.35
696.55	359.64
696.88	357.91
697.22	356.24
697.56	354.60
697.89	352.89
698.23	351.37
698.56	349.68
698.90	348.14
699.23	346.46
699.57	344.88
699.90	343.30
700.24	341.72
700.58	340.20
700.91	338.67
701.25	337.17
701.58	335.83
701.92	334.50
702.25	333.14
702.59	331.78
702.92	330.50
703.26	329.17
703.59	327.86
703.93	326.70
704.26	325.44
704.60	324.16
704.93	322.85
705.26	321.56
705.60	320.39
705.93	319.18
706.27	318.12
706.60	317.03
706.94	315.98
707.27	314.82
707.61	313.74
707.94	312.73
708.27	311.66
708.61	310.50
708.94	309.44
709.28	308.42
709.61	307.43
709.94	306.41
710.28	305.39
710.61	304.38
710.95	303.26
711.28	302.34
711.61	301.36
711.95	300.41
712.28	299.44
712.61	298.47
712.95	297.53
713.28	296.58
713.61	295.64
713.95	294.73
714.28	293.87
714.61	293.01
714.95	292.16
715.28	291.30
715.61	290.44
715.95	289.62
716.28	288.76
716.61	287.89
716.95	287.06
717.28	286.28
717.61	285.52
717.94	284.78
718.28	283.93
718.61	283.21
718.94	282.55
719.27	281.86
719.61	281.20
719.94	280.51
720.27	279.80
720.60	279.13
720.94	278.51
721.27	277.93
721.60	277.35
721.93	276.72
722.27	276.16
722.60	275.60
722.93	274.98
723.26	274.47
723.59	273.92
723.93	273.37
724.26	272.79
724.59	272.22
724.92	271.70
725.25	271.24
725.59	270.67
725.92	270.14
726.25	269.64
726.58	269.08
726.91	268.55
727.24	268.10
727.57	267.63
727.91	267.07
728.24	266.56
728.57	266.04
728.90	265.58
729.23	265.06
729.56	264.64
729.89	264.15
730.22	263.65
730.55	263.16
730.89	262.68
731.22	262.23
731.55	261.79
731.88	261.35
732.21	260.92
732.54	260.53
732.87	260.11
733.20	259.71
733.53	259.34
733.86	259.00
734.19	258.59
734.52	258.21
734.85	257.89
735.18	257.51
735.51	257.13
735.84	256.74
736.17	256.43
736.50	256.00
736.83	255.81
737.16	255.46
737.49	255.15
737.82	254.85
738.15	254.53
738.48	254.21
738.81	253.91
739.14	253.57
739.47	253.23
739.80	252.92
740.13	252.61
740.46	252.30
740.79	251.98
741.12	251.66
741.45	251.35
741.78	251.00
742.11	250.72
742.44	250.36
742.77	250.07
743.10	249.76
743.43	249.47
743.75	249.06
744.08	248.92
744.41	248.65
744.74	248.37
745.07	248.12
745.40	247.85
745.73	247.60
746.06	247.33
746.39	247.07
746.71	246.79
747.04	246.50
747.37	246.20
747.70	245.97
748.03	245.73
748.36	245.51
748.68	245.26
749.01	245.02
749.34	244.82
749.67	244.58
750.00	244.34
750.33	244.17
750.65	243.95
750.98	243.58
751.31	243.36
751.64	243.13
751.97	242.95
752.29	242.73
752.62	242.46
752.95	242.21
753.28	241.98
753.60	241.79
753.93	241.62
754.26	241.44
754.59	241.18
754.91	240.93
755.24	240.69
755.57	240.48
755.90	240.28
756.22	240.10
756.55	239.90
756.88	239.69
757.20	239.44
757.53	239.22
757.86	239.02
758.19	238.83
758.51	238.67
758.84	238.39
759.17	238.17
759.49	238.02
759.82	237.88
760.15	237.75
760.47	237.58
760.80	237.36
761.13	237.22
761.45	237.01
761.78	236.88
762.11	236.74
762.43	236.61
762.76	236.43
763.08	236.27
763.41	236.13
763.74	236.02
764.06	235.90
764.39	235.76
764.71	235.62
765.04	235.48
765.37	235.31
765.69	235.20
766.02	235.14
766.34	234.99
766.67	234.87
767.00	234.75
767.32	234.66
767.65	234.60
767.97	234.46
768.30	234.40
768.62	234.30
768.95	234.16
769.27	234.05
769.60	233.93
769.92	233.83
770.25	233.71
770.57	233.59
770.90	233.46
771.22	233.36
771.55	233.27
771.87	233.19
772.20	233.12
772.52	233.13
772.85	233.10
773.17	233.00
773.50	232.90
773.82	232.78
774.15	232.65
774.47	232.52
774.80	232.44
775.12	232.38
775.45	232.33
775.77	232.28
776.09	232.21
776.42	232.17
776.74	232.15
777.07	232.10
777.39	232.02
777.72	231.94
778.04	231.90
778.36	231.85
778.69	231.76
779.01	231.70
779.33	231.52
779.66	231.39
779.98	231.35
780.31	231.31
780.63	231.35
780.95	231.32
781.28	231.27
781.60	231.22
781.92	231.15
782.25	231.07
782.57	230.98
782.89	230.91
783.22	230.85
783.54	230.75
783.86	230.69
784.19	230.63
784.51	230.64
784.83	230.54
785.16	230.46
785.48	230.41
785.80	230.38
786.12	230.41
786.45	230.32
786.77	230.25
787.09	230.17
787.42	230.06
787.74	230.02
788.06	229.97
788.38	229.90
788.71	229.84
789.03	229.78
789.35	229.77
789.67	229.73
789.99	229.70
790.32	229.64
790.64	229.60
790.96	229.62
791.28	229.54
791.61	229.50
791.93	229.49
792.25	229.43
792.57	229.41
792.89	229.28
793.21	229.26
793.54	229.22
793.86	229.18
794.18	229.11
794.50	229.05
794.82	229.01
795.14	228.98
795.47	228.94
795.79	228.87
796.11	228.82
796.43	228.76
796.75	228.67
797.07	228.62
797.39	228.57
797.71	228.46
798.04	228.44
798.36	228.40
798.68	228.32
799.00	228.30
799.32	228.23
799.64	228.21
799.96	228.19
800.28	228.17
800.60	228.10
800.92	228.07
801.24	228.04
801.56	227.99
801.89	227.94
802.21	227.92
802.53	227.88
802.85	227.82
803.17	227.80
803.49	227.77
803.81	227.72
804.13	227.64
804.45	227.61
804.77	227.60
805.09	227.57
805.41	227.54
805.73	227.52
806.05	227.47
806.37	227.44
806.69	227.37
807.01	227.31
807.33	227.33
807.65	227.28
807.97	227.26
808.28	227.21
808.60	227.20
808.92	227.16
809.24	227.25
809.56	227.25
809.88	227.22
810.20	227.23
810.52	227.28
810.84	227.26
811.16	227.22
811.48	227.19
811.80	227.20
812.12	227.21
812.43	227.20
812.75	227.18
813.07	227.15
813.39	227.15
813.71	227.14
814.03	227.11
814.35	227.11
814.67	227.08
814.98	227.08
815.30	227.06
815.62	227.02
815.94	226.91
816.26	226.97
816.58	226.95
816.89	226.97
817.21	226.90
817.53	226.92
817.85	226.92
818.17	226.91
818.48	226.87
818.80	226.85
819.12	226.80
819.44	226.78
819.76	226.77
820.07	226.79
820.39	226.78
820.71	226.79
821.03	226.78
821.34	226.75
821.66	226.76
821.98	226.78
822.30	226.80
822.61	226.88
822.93	226.82
823.25	226.81
823.57	226.77
823.88	226.81
824.20	226.80
824.52	226.80
824.83	226.81
825.15	226.81
825.47	226.81
825.79	226.83
826.10	226.84
826.42	226.84
826.74	226.80
827.05	226.80
827.37	226.77
827.69	226.73
828.00	226.75
828.32	226.72
828.64	226.69
828.95	226.71
829.27	226.64
829.58	226.62
829.90	226.62
830.22	226.63
830.53	226.57
830.85	226.56
831.17	226.53
831.48	226.46
831.80	226.44
832.11	226.40
832.43	226.35
832.75	226.31
833.06	226.37
833.38	226.35
833.69	226.32
834.01	226.30
834.32	226.32
834.64	226.27
834.96	226.27
835.27	226.23
835.59	226.18
835.90	226.10
836.22	226.09
836.53	226.04
836.85	226.00
837.16	226.05
837.48	226.04
837.79	226.04
838.11	226.06
838.42	226.00
838.74	226.02
839.05	226.01
839.37	225.97
839.68	225.87
840.00	225.85
840.31	225.86
840.63	225.85
840.94	225.81
841.26	225.79
841.57	225.73
841.88	225.74
842.20	225.69
842.51	225.69
842.83	225.65
843.14	225.72
843.46	225.69
843.77	225.63
844.08	225.62
844.40	225.55
844.71	225.48
845.03	225.50
845.34	225.48
845.65	225.46
845.97	225.45
846.28	225.46
846.60	225.44
846.91	225.37
847.22	225.35
847.54	225.39
847.85	225.38
848.16	225.39
848.48	225.38
848.79	225.45
849.10	225.47
849.42	225.48
849.73	225.37
850.04	225.39
850.36	225.37
850.67	225.39
850.98	225.43
851.30	225.47
851.61	225.47
851.92	225.45
852.23	225.48
852.55	225.53
852.86	225.51
853.17	225.55
853.49	225.61
853.80	225.62
854.11	225.64
854.42	225.66
854.74	225.67
855.05	225.67
855.36	225.62
855.67	225.65
855.99	225.64
856.30	225.77
856.61	225.80
856.92	225.82
857.23	225.81
857.55	225.79
857.86	225.80
858.17	225.85
858.48	225.87
858.79	225.86
859.11	225.85
859.42	225.89
859.73	225.88
860.04	225.87
860.35	225.88
860.66	225.86
860.98	225.90
861.29	225.94
861.60	225.96
861.91	225.94
862.22	225.92
862.53	225.94
862.84	225.85
863.16	225.84
863.47	225.82
863.78	225.78
864.09	225.83
864.40	225.85
864.71	225.79
865.02	225.80
865.33	225.84
865.64	225.84
865.95	225.82
866.27	225.87
866.58	225.87
866.89	225.88
867.20	225.84
867.51	225.80
867.82	225.77
868.13	225.78
868.44	225.79
868.75	225.78
869.06	225.76
869.37	225.76
869.68	225.72
869.99	225.75
870.30	225.75
870.61	225.73
870.92	225.69
871.23	225.67
871.54	225.66
871.85	225.64
872.16	225.62
872.47	225.60
872.78	225.54
873.09	225.53
873.40	225.51
873.71	225.52
874.02	225.51
874.33	225.48
874.64	225.44
874.95	225.45
875.26	225.43
875.56	225.40
875.87	225.37
876.18	225.36
876.49	225.42
876.80	225.42
877.11	225.39
877.42	225.39
877.73	225.40
878.04	225.35
878.35	225.34
878.66	225.32
878.96	225.32
879.27	225.32
879.58	225.32
879.89	225.31
880.20	225.30
880.51	225.29
880.82	225.26
881.12	225.29
881.43	225.24
881.74	225.20
882.05	225.20
882.36	225.20
882.67	225.21
882.97	225.10
883.28	225.10
883.59	225.07
883.90	225.06
884.21	225.05
884.51	225.04
884.82	225.03
885.13	225.08
885.44	225.07
885.74	225.05
886.05	225.02
886.36	225.01
886.67	224.96
886.98	224.99
887.28	225.00
887.59	224.97
887.90	224.97
888.20	224.97
888.51	224.97
888.82	224.98
889.13	224.99
889.43	225.07
889.74	225.06
890.05	225.05
890.35	225.05
890.66	225.04
890.97	225.06
891.28	225.05
891.58	225.04
891.89	225.04
892.20	225.04
892.50	225.04
892.81	225.04
893.12	225.07
893.42	225.04
893.73	225.06
894.04	225.06
894.34	225.10
894.65	225.12
894.95	225.14
895.26	225.13
895.57	225.15
895.87	225.10
896.18	225.11
896.48	225.16
896.79	225.18
897.10	225.23
897.40	225.19
897.71	225.25
898.01	225.23
898.32	225.25
898.63	225.23
898.93	225.24
899.24	225.27
899.54	225.28
899.85	225.30
900.15	225.31
900.46	225.38
900.76	225.39
901.07	225.41
901.38	225.43
901.68	225.44
901.99	225.41
902.29	225.40
902.60	225.41
902.90	225.40
903.21	225.41
903.51	225.35
903.82	225.41
904.12	225.37
904.43	225.38
904.73	225.38
905.03	225.42
905.34	225.53
905.64	225.53
905.95	225.53
906.25	225.51
906.56	225.52
906.86	225.46
907.17	225.47
907.47	225.49
907.77	225.47
908.08	225.45
908.38	225.46
908.69	225.52
908.99	225.51
909.30	225.51
909.60	225.50
909.90	225.56
910.21	225.54
910.51	225.52
910.81	225.49
911.12	225.48
911.42	225.48
911.73	225.35
912.03	225.35
912.33	225.34
912.64	225.36
912.94	225.33
913.24	225.32
913.55	225.27
913.85	225.24
914.15	225.25
914.46	225.26
914.76	225.25
915.06	225.22
915.37	225.19
915.67	225.17
915.97	225.17
916.27	225.10
916.58	225.07
916.88	225.08
917.18	225.09
917.49	225.17
917.79	225.15
918.09	225.17
918.39	225.19
918.70	225.20
919.00	225.21
919.30	225.23
919.60	225.24
919.91	225.22
920.21	225.20
920.51	225.18
920.81	225.20
921.12	225.22
921.42	225.21
921.72	225.24
922.02	225.24
922.32	225.26
922.63	225.29
922.93	225.36
923.23	225.38
923.53	225.35
923.83	225.26
924.13	225.25
924.44	225.24
924.74	225.24
925.04	225.25
925.34	225.24
925.64	225.21
925.94	225.20
926.24	225.29
926.55	225.29
926.85	225.26
927.15	225.25
927.45	225.23
927.75	225.23
928.05	225.22
928.35	225.23
928.65	225.24
928.95	225.23
929.26	225.17
929.56	225.19
929.86	225.20
930.16	225.23
930.46	225.23
930.76	225.25
931.06	225.20
931.36	225.17
931.66	225.16
931.96	225.15
932.26	225.15
932.56	225.12
932.86	225.09
933.16	225.09
933.46	225.09
933.76	225.07
934.06	225.09
934.36	225.12
934.66	225.09
934.96	225.09
935.26	225.10
935.56	225.11
935.86	225.07
936.16	225.04
936.46	225.01
936.76	225.02
937.06	225.01
937.36	225.03
937.66	225.03
937.96	225.03
938.26	225.02
938.56	224.96
938.86	224.94
939.16	224.99
939.46	225.05
939.76	225.03
940.06	225.03
940.35	225.00
940.65	224.97
940.95	224.98
941.25	224.95
941.55	224.93
941.85	224.90
942.15	224.92
942.45	224.99
942.75	224.97
943.04	224.99
943.34	225.00
943.64	224.96
943.94	224.94
944.24	224.96
944.54	224.97
944.84	225.01
945.13	224.99
945.43	224.98
945.73	224.95
946.03	224.96
946.33	224.93
946.62	224.94
946.92	224.92
947.22	224.90
947.52	224.92
947.82	224.94
948.11	224.94
948.41	224.92
948.71	224.87
949.01	224.90
949.31	224.85
949.60	224.87
949.90	224.89
950.20	224.90
950.50	224.88
950.79	224.88
951.09	224.89
951.39	224.90
951.69	224.89
951.98	224.90
952.28	224.91
952.58	224.93
952.87	224.92
953.17	224.94
953.47	224.95
953.76	224.96
954.06	224.93
954.36	224.92
954.66	224.96
954.95	225.01
955.25	225.02
955.55	225.04
955.84	224.99
956.14	225.03
956.44	225.07
956.73	225.05
957.03	225.08
957.32	225.09
957.62	225.11
957.92	225.15
958.21	225.15
958.51	225.24
958.81	225.25
959.10	225.27
959.40	225.29
959.69	225.32
959.99	225.34
960.29	225.35
960.58	225.34
960.88	225.34
961.17	225.30
961.47	225.28
961.76	225.28
962.06	225.30
962.36	225.27
962.65	225.24
962.95	225.26
963.24	225.24
963.54	225.23
963.83	225.25
964.13	225.22
964.42	225.20
964.72	225.13
965.01	225.15
965.31	225.13
965.60	225.11
965.90	225.16
966.19	225.13
966.49	225.14
966.78	225.13
967.08	225.14
967.37	225.16
967.67	225.17
967.96	225.19
968.26	225.20
968.55	225.20
968.85	225.21
969.14	225.21
969.43	225.22
969.73	225.22
970.02	225.17
970.32	225.17
970.61	225.13
970.91	225.12
971.20	225.11
971.49	225.09
971.79	225.12
972.08	225.04
972.38	225.04
972.67	225.01
972.96	225.02
973.26	224.99
973.55	225.02
973.85	225.00
974.14	224.99
974.43	224.99
974.73	224.98
975.02	224.95
975.31	224.97
975.61	224.96
975.90	224.95
976.19	224.97
976.49	224.96
976.78	225.00
977.07	224.95
977.37	224.93
977.66	224.96
977.95	224.92
978.24	224.94
978.54	224.92
978.83	224.93
979.12	224.93
979.42	224.93
979.71	224.91
980.00	224.91
980.29	224.89
980.59	224.86
980.88	224.89
981.17	224.88
981.46	224.85
981.76	224.85
982.05	224.88
982.34	224.85
982.63	224.84
982.93	224.84
983.22	224.91
983.51	224.91
983.80	224.87
984.09	224.91
984.39	224.86
984.68	224.85
984.97	224.87
985.26	224.90
985.55	224.89
985.85	224.88
986.14	224.87
986.43	224.89
986.72	224.89
987.01	224.87
987.30	224.87
987.59	224.89
987.89	224.86
988.18	224.83
988.47	224.85
988.76	224.84
989.05	224.85
989.34	224.82
989.63	224.83
989.92	224.85
990.22	224.83
990.51	224.88
990.80	224.90
991.09	224.92
991.38	224.92
991.67	224.92
991.96	224.90
992.25	224.94
992.54	224.92
992.83	224.90
993.12	224.92
993.41	224.96
993.70	224.98
993.99	225.01
994.28	225.06
994.58	225.09
994.87	225.11
995.16	225.11
995.45	225.13
995.74	225.13
996.03	225.11
996.32	225.13
996.61	225.15
996.90	225.17
997.19	225.11
997.48	225.09
997.77	225.11
998.06	225.10
998.34	225.10
998.63	225.11
998.92	225.16
999.21	225.14
999.50	225.13
999.79	225.13
1000.08	225.13
1000.37	225.13
1000.66	225.13
1000.95	225.18
1001.24	225.17
1001.53	225.17
1001.82	225.17
1002.11	225.18
1002.40	225.18
1002.68	225.20
1002.97	225.26
1003.26	225.28
1003.55	225.27
1003.84	225.28
1004.13	225.32
1004.42	225.32
1004.71	225.34
1004.99	225.33
1005.28	225.37
1005.57	225.37
1005.86	225.33
1006.15	225.32
1006.44	225.31
1006.72	225.32
1007.01	225.26
1007.30	225.27
1007.59	225.25
1007.88	225.24
1008.17	225.20
1008.45	225.19
1008.74	225.16
1009.03	225.11
1009.32	225.10
1009.60	225.08
1009.89	225.03
1010.18	225.00
1010.47	224.99
1010.76	224.99
1011.04	224.99
1011.33	224.96
1011.62	224.94
1011.91	224.96
1012.19	224.97
1012.48	224.95
1012.77	224.90
1013.05	224.97
1013.34	224.95
1013.63	224.96
1013.92	224.99
1014.20	224.99
1014.49	224.99
1014.78	224.96
1015.06	224.93
1015.35	224.95
1015.64	225.01
1015.92	225.05
1016.21	225.03
1016.50	225.02
1016.78	225.00
1017.07	225.00
1017.36	224.96
1017.64	224.95
1017.93	224.94
1018.22	224.94
1018.50	224.96
1018.79	224.98
1019.08	224.90
1019.36	224.92
1019.65	224.88
1019.93	224.91
1020.22	224.92
1020.51	224.95
1020.79	224.97
1021.08	225.24
1021.36	225.14
1021.65	224.99
1021.94	224.60
1022.22	225.18
1022.51	224.50
1022.79	225.60
1023.08	224.79
1023.36	225.76
1023.65	224.88
>>>>>End Processed Spectral Data<<<<<
