SpectraSuite Data File
++++++++++++++++++++++++++++++++++++
Date: Fri Feb 01 16:42:54 EST 2013
User: group
Dark Spectrum Present: No
Reference Spectrum Present: No
Number of Sampled Component Spectra: 1
Spectrometers: USB2E7196
Integration Time (usec): 35000 (USB2E7196)
Spectra Averaged: 100 (USB2E7196)
Boxcar Smoothing: 10 (USB2E7196)
Correct for Electrical Dark: No (USB2E7196)
Strobe/Lamp Enabled: No (USB2E7196)
Correct for Detector Non-linearity: No (USB2E7196)
Correct for Stray Light: No (USB2E7196)
Number of Pixels in Processed Spectrum: 2048
>>>>>Begin Processed Spectral Data<<<<<
339.09	0.00
339.48	213.10
339.86	214.90
340.24	216.81
340.63	217.52
341.01	220.61
341.39	220.71
341.78	222.45
342.16	223.35
342.54	223.84
342.93	212.11
343.31	222.84
343.69	223.42
344.07	223.91
344.46	224.28
344.84	224.66
345.22	224.90
345.60	225.14
345.99	225.28
346.37	225.37
346.75	225.46
347.13	225.50
347.52	225.52
347.90	225.60
348.28	225.61
348.66	225.66
349.05	225.64
349.43	225.65
349.81	225.69
350.19	225.68
350.57	225.72
350.96	225.80
351.34	225.82
351.72	225.87
352.10	225.94
352.48	226.06
352.87	226.13
353.25	226.17
353.63	226.23
354.01	226.31
354.39	226.41
354.77	226.48
355.15	226.59
355.54	226.67
355.92	226.71
356.30	226.79
356.68	226.92
357.06	226.97
357.44	227.02
357.82	227.10
358.20	227.19
358.58	227.29
358.97	227.35
359.35	227.44
359.73	227.54
360.11	227.58
360.49	227.65
360.87	227.69
361.25	227.79
361.63	227.88
362.01	227.95
362.39	228.01
362.77	228.05
363.15	228.08
363.53	228.12
363.91	228.13
364.29	228.18
364.67	228.09
365.05	228.12
365.43	228.16
365.81	228.16
366.19	228.23
366.57	228.25
366.95	228.21
367.33	228.21
367.71	228.19
368.09	228.22
368.47	228.19
368.85	228.20
369.23	228.19
369.61	228.12
369.99	228.13
370.37	228.07
370.75	228.10
371.13	228.02
371.51	227.96
371.89	227.95
372.27	227.90
372.65	227.87
373.03	227.85
373.41	227.77
373.78	227.74
374.16	227.64
374.54	227.54
374.92	227.47
375.30	227.40
375.68	227.34
376.06	227.27
376.44	227.21
376.82	227.14
377.19	227.07
377.57	227.00
377.95	226.88
378.33	226.82
378.71	226.68
379.09	226.68
379.47	226.63
379.84	226.55
380.22	226.47
380.60	226.40
380.98	226.31
381.36	226.25
381.73	226.16
382.11	226.09
382.49	226.03
382.87	225.96
383.25	225.92
383.62	225.94
384.00	225.87
384.38	225.81
384.76	225.79
385.13	225.75
385.51	225.72
385.89	225.68
386.27	225.62
386.64	225.57
387.02	225.48
387.40	225.44
387.78	225.41
388.15	225.38
388.53	225.33
388.91	225.30
389.29	225.27
389.66	225.26
390.04	225.24
390.42	225.23
390.79	225.28
391.17	225.24
391.55	225.14
391.92	225.10
392.30	225.10
392.68	225.05
393.05	225.03
393.43	224.99
393.81	225.00
394.18	224.99
394.56	225.02
394.94	225.06
395.31	225.04
395.69	225.08
396.06	225.11
396.44	225.15
396.82	225.18
397.19	225.25
397.57	225.28
397.95	225.31
398.32	225.31
398.70	225.35
399.07	225.43
399.45	225.49
399.82	225.58
400.20	225.63
400.58	225.69
400.95	225.74
401.33	225.87
401.70	226.00
402.08	226.06
402.45	226.13
402.83	226.27
403.20	226.39
403.58	226.47
403.95	226.64
404.33	226.74
404.71	226.87
405.08	227.03
405.46	227.15
405.83	227.32
406.21	227.49
406.58	227.61
406.96	227.76
407.33	227.93
407.70	228.08
408.08	228.34
408.45	228.53
408.83	228.75
409.20	228.96
409.58	229.14
409.95	229.41
410.33	229.70
410.70	229.93
411.08	230.23
411.45	230.54
411.82	230.81
412.20	231.16
412.57	231.55
412.95	231.86
413.32	232.29
413.69	232.66
414.07	233.07
414.44	233.54
414.82	234.05
415.19	234.57
415.56	235.17
415.94	235.71
416.31	236.35
416.68	236.98
417.06	237.72
417.43	238.41
417.81	239.17
418.18	239.93
418.55	240.77
418.93	241.62
419.30	242.52
419.67	243.44
420.04	244.41
420.42	245.38
420.79	246.56
421.16	247.68
421.54	248.85
421.91	250.07
422.28	251.32
422.66	252.62
423.03	253.91
423.40	255.18
423.77	256.58
424.15	258.03
424.52	259.50
424.89	261.07
425.26	262.62
425.64	264.05
426.01	265.64
426.38	267.31
426.75	268.98
427.13	270.71
427.50	272.49
427.87	274.34
428.24	276.15
428.61	277.86
428.99	279.81
429.36	281.92
429.73	283.97
430.10	286.00
430.47	288.01
430.85	290.11
431.22	292.34
431.59	294.73
431.96	296.91
432.33	299.33
432.70	301.66
433.08	304.42
433.45	307.01
433.82	309.58
434.19	312.40
434.56	315.18
434.93	317.78
435.30	320.41
435.68	323.27
436.05	326.09
436.42	328.84
436.79	331.27
437.16	333.92
437.53	336.73
437.90	339.48
438.27	342.20
438.64	345.01
439.01	347.64
439.38	349.83
439.75	352.00
440.13	354.53
440.50	356.84
440.87	358.68
441.24	360.65
441.61	362.80
441.98	364.28
442.35	366.05
442.72	367.89
443.09	369.64
443.46	370.67
443.83	371.31
444.20	371.86
444.57	372.74
444.94	373.08
445.31	373.42
445.68	373.81
446.05	373.97
446.42	373.62
446.79	373.13
447.16	372.69
447.53	372.37
447.90	371.24
448.27	370.11
448.64	368.57
449.01	367.46
449.37	365.53
449.74	363.69
450.11	361.49
450.48	359.07
450.85	356.61
451.22	354.49
451.59	352.50
451.96	350.55
452.33	347.97
452.70	345.63
453.07	342.82
453.43	339.94
453.80	337.14
454.17	334.51
454.54	332.00
454.91	329.31
455.28	326.68
455.65	324.18
456.02	321.77
456.38	319.62
456.75	316.93
457.12	314.71
457.49	312.48
457.86	310.31
458.23	308.48
458.59	306.44
458.96	304.34
459.33	302.48
459.70	300.65
460.07	299.16
460.43	297.45
460.80	295.87
461.17	294.43
461.54	292.99
461.91	291.56
462.27	290.17
462.64	288.95
463.01	287.63
463.38	286.33
463.74	284.96
464.11	283.82
464.48	282.80
464.85	281.69
465.21	280.84
465.58	279.97
465.95	278.87
466.32	277.97
466.68	277.10
467.05	276.23
467.42	275.35
467.78	274.46
468.15	273.57
468.52	272.93
468.88	272.13
469.25	271.37
469.62	270.75
469.98	270.05
470.35	269.41
470.72	268.83
471.08	268.22
471.45	267.70
471.82	267.15
472.18	266.58
472.55	266.18
472.92	265.68
473.28	265.21
473.65	264.77
474.02	264.33
474.38	263.94
474.75	263.61
475.11	263.26
475.48	263.00
475.85	262.81
476.21	262.55
476.58	262.35
476.94	262.21
477.31	262.03
477.67	261.90
478.04	261.81
478.41	261.75
478.77	261.79
479.14	261.75
479.50	261.77
479.87	261.87
480.23	261.92
480.60	262.02
480.96	262.09
481.33	262.32
481.69	262.51
482.06	262.72
482.42	262.93
482.79	263.21
483.15	263.47
483.52	263.86
483.88	264.24
484.25	264.65
484.61	265.03
484.98	265.52
485.34	266.06
485.71	266.67
486.07	267.26
486.44	267.84
486.80	268.54
487.17	269.31
487.53	270.12
487.90	271.00
488.26	271.92
488.62	272.94
488.99	273.94
489.35	275.04
489.72	276.18
490.08	277.42
490.44	278.64
490.81	280.00
491.17	281.35
491.54	282.82
491.90	284.31
492.26	285.99
492.63	287.70
492.99	289.48
493.36	291.32
493.72	293.36
494.08	295.49
494.45	297.71
494.81	300.05
495.17	302.47
495.54	305.06
495.90	307.73
496.26	310.51
496.63	313.44
496.99	316.55
497.35	319.89
497.72	323.29
498.08	326.81
498.44	330.54
498.80	334.50
499.17	338.55
499.53	342.70
499.89	347.09
500.26	351.62
500.62	356.30
500.98	361.26
501.34	366.32
501.71	371.62
502.07	377.10
502.43	382.69
502.79	388.50
503.16	394.53
503.52	400.82
503.88	407.27
504.24	413.85
504.60	420.70
504.97	427.78
505.33	435.10
505.69	442.80
506.05	450.56
506.41	458.36
506.78	466.48
507.14	474.92
507.50	483.58
507.86	492.62
508.22	501.81
508.59	511.05
508.95	520.62
509.31	530.44
509.67	540.51
510.03	550.74
510.39	561.31
510.75	572.02
511.12	582.84
511.48	593.98
511.84	605.48
512.20	616.91
512.56	628.79
512.92	640.82
513.28	653.14
513.64	665.54
514.00	678.19
514.37	691.07
514.73	704.05
515.09	716.98
515.45	730.11
515.81	743.65
516.17	757.51
516.53	771.53
516.89	785.63
517.25	799.72
517.61	814.05
517.97	828.42
518.33	842.72
518.69	857.46
519.05	872.39
519.41	887.43
519.77	902.94
520.13	918.33
520.49	933.63
520.85	948.87
521.21	964.43
521.57	980.60
521.93	996.29
522.29	1012.50
522.65	1028.62
523.01	1044.75
523.37	1060.67
523.73	1076.77
524.09	1092.75
524.45	1108.90
524.81	1125.45
525.17	1142.11
525.53	1158.82
525.89	1175.61
526.25	1192.33
526.61	1208.56
526.97	1225.17
527.33	1241.43
527.68	1257.78
528.04	1274.18
528.40	1290.58
528.76	1307.57
529.12	1323.98
529.48	1340.77
529.84	1356.54
530.20	1373.02
530.56	1389.86
530.91	1407.15
531.27	1423.80
531.63	1440.08
531.99	1456.51
532.35	1472.30
532.71	1488.02
533.07	1504.12
533.42	1519.97
533.78	1535.77
534.14	1551.95
534.50	1567.10
534.86	1582.87
535.21	1597.88
535.57	1613.59
535.93	1628.93
536.29	1643.38
536.65	1658.18
537.00	1672.60
537.36	1688.06
537.72	1702.45
538.08	1716.68
538.44	1730.07
538.79	1743.62
539.15	1756.96
539.51	1770.32
539.87	1784.38
540.22	1797.90
540.58	1811.20
540.94	1824.15
541.29	1836.70
541.65	1849.14
542.01	1862.04
542.37	1874.04
542.72	1886.21
543.08	1897.81
543.44	1910.02
543.79	1921.17
544.15	1931.91
544.51	1943.30
544.87	1953.94
545.22	1964.58
545.58	1974.58
545.94	1984.42
546.29	1994.33
546.65	2004.34
547.01	2013.74
547.36	2022.35
547.72	2030.83
548.07	2038.99
548.43	2047.18
548.79	2055.11
549.14	2062.75
549.50	2070.06
549.86	2077.74
550.21	2085.12
550.57	2092.39
550.92	2098.97
551.28	2106.06
551.64	2113.13
551.99	2119.65
552.35	2125.72
552.70	2131.81
553.06	2137.96
553.41	2144.34
553.77	2150.23
554.13	2156.04
554.48	2162.03
554.84	2167.65
555.19	2172.76
555.55	2177.74
555.90	2182.19
556.26	2187.37
556.61	2192.04
556.97	2196.57
557.32	2200.82
557.68	2204.85
558.03	2209.01
558.39	2212.58
558.74	2217.13
559.10	2221.01
559.45	2224.68
559.81	2229.06
560.16	2232.97
560.52	2236.05
560.87	2239.24
561.23	2241.80
561.58	2244.87
561.94	2247.32
562.29	2249.47
562.64	2252.40
563.00	2255.03
563.35	2258.57
563.71	2261.56
564.06	2264.56
564.42	2267.29
564.77	2269.71
565.12	2272.24
565.48	2274.24
565.83	2276.26
566.19	2277.70
566.54	2278.77
566.89	2280.16
567.25	2280.86
567.60	2282.11
567.96	2284.09
568.31	2285.14
568.66	2286.53
569.02	2287.13
569.37	2287.69
569.72	2288.80
570.08	2289.08
570.43	2289.24
570.78	2288.79
571.14	2287.36
571.49	2286.05
571.84	2285.73
572.20	2284.74
572.55	2283.56
572.90	2281.86
573.26	2280.74
573.61	2278.93
573.96	2277.22
574.31	2274.29
574.67	2271.40
575.02	2267.88
575.37	2264.31
575.72	2260.66
576.08	2257.03
576.43	2253.71
576.78	2250.16
577.13	2246.77
577.49	2243.40
577.84	2240.12
578.19	2236.32
578.54	2232.88
578.90	2228.98
579.25	2223.54
579.60	2218.81
579.95	2213.95
580.30	2209.17
580.66	2203.96
581.01	2199.04
581.36	2194.23
581.71	2190.17
582.06	2185.81
582.42	2181.58
582.77	2176.64
583.12	2172.11
583.47	2167.81
583.82	2163.03
584.17	2157.86
584.53	2152.68
584.88	2147.39
585.23	2141.67
585.58	2136.33
585.93	2130.88
586.28	2126.05
586.63	2121.21
586.98	2116.05
587.34	2111.40
587.69	2106.55
588.04	2101.49
588.39	2096.10
588.74	2089.74
589.09	2083.55
589.44	2076.84
589.79	2070.72
590.14	2065.02
590.49	2058.40
590.84	2051.90
591.19	2045.98
591.54	2039.63
591.89	2032.49
592.25	2025.84
592.60	2018.77
592.95	2011.41
593.30	2004.17
593.65	1996.60
594.00	1989.51
594.35	1982.31
594.70	1974.34
595.05	1967.42
595.40	1960.07
595.75	1952.71
596.10	1946.68
596.45	1940.01
596.80	1933.99
597.15	1927.51
597.50	1920.75
597.85	1914.49
598.19	1908.01
598.54	1901.12
598.89	1894.51
599.24	1888.60
599.59	1882.13
599.94	1875.77
600.29	1869.42
600.64	1862.74
600.99	1855.61
601.34	1848.96
601.69	1841.95
602.04	1835.27
602.39	1827.93
602.74	1821.33
603.08	1814.62
603.43	1807.83
603.78	1800.59
604.13	1793.30
604.48	1786.17
604.83	1779.21
605.18	1772.40
605.53	1764.49
605.87	1756.51
606.22	1749.20
606.57	1741.23
606.92	1733.63
607.27	1726.60
607.62	1719.78
607.96	1712.70
608.31	1706.22
608.66	1698.67
609.01	1691.41
609.36	1683.83
609.70	1675.74
610.05	1667.56
610.40	1659.91
610.75	1651.69
611.10	1644.16
611.44	1635.72
611.79	1627.64
612.14	1619.01
612.49	1609.76
612.83	1601.38
613.18	1593.22
613.53	1585.34
613.88	1576.87
614.22	1568.73
614.57	1560.09
614.92	1552.17
615.27	1544.85
615.61	1536.51
615.96	1528.58
616.31	1520.91
616.65	1513.61
617.00	1506.23
617.35	1498.60
617.70	1490.28
618.04	1481.87
618.39	1473.69
618.74	1466.22
619.08	1458.08
619.43	1450.60
619.78	1443.68
620.12	1436.73
620.47	1429.30
620.82	1421.06
621.16	1413.64
621.51	1406.00
621.85	1398.46
622.20	1390.01
622.55	1381.52
622.89	1373.65
623.24	1365.93
623.59	1358.50
623.93	1350.92
624.28	1343.59
624.62	1336.18
624.97	1329.08
625.32	1322.16
625.66	1315.05
626.01	1307.86
626.35	1300.47
626.70	1292.62
627.04	1285.04
627.39	1277.15
627.73	1269.66
628.08	1262.80
628.43	1255.74
628.77	1248.47
629.12	1241.02
629.46	1233.81
629.81	1226.30
630.15	1219.02
630.50	1211.71
630.84	1203.66
631.19	1195.68
631.53	1188.16
631.88	1180.57
632.22	1172.91
632.57	1165.69
632.91	1158.14
633.26	1150.82
633.60	1143.39
633.95	1136.30
634.29	1129.15
634.64	1122.50
634.98	1115.21
635.32	1108.11
635.67	1101.30
636.01	1094.65
636.36	1087.81
636.70	1081.20
637.05	1074.69
637.39	1068.23
637.73	1061.81
638.08	1055.92
638.42	1050.02
638.77	1043.64
639.11	1037.21
639.45	1030.94
639.80	1024.23
640.14	1017.84
640.49	1011.38
640.83	1005.08
641.17	998.90
641.52	992.62
641.86	986.16
642.20	980.39
642.55	973.92
642.89	967.61
643.23	961.00
643.58	955.22
643.92	949.09
644.26	943.10
644.61	937.07
644.95	931.03
645.29	924.51
645.64	917.83
645.98	911.52
646.32	905.49
646.66	899.42
647.01	893.73
647.35	888.11
647.69	882.18
648.04	876.66
648.38	870.89
648.72	864.95
649.06	858.91
649.41	852.86
649.75	847.11
650.09	841.17
650.43	835.41
650.78	829.34
651.12	823.38
651.46	817.62
651.80	812.05
652.14	806.64
652.49	801.24
652.83	796.14
653.17	790.55
653.51	784.95
653.85	779.54
654.20	773.92
654.54	767.93
654.88	762.20
655.22	756.21
655.56	750.51
655.90	745.00
656.25	739.78
656.59	734.50
656.93	729.37
657.27	724.21
657.61	718.82
657.95	713.68
658.29	708.63
658.64	703.44
658.98	697.98
659.32	692.47
659.66	687.25
660.00	681.93
660.34	676.92
660.68	671.96
661.02	666.93
661.36	662.24
661.70	657.78
662.05	653.49
662.39	649.27
662.73	644.81
663.07	640.37
663.41	635.92
663.75	631.42
664.09	626.84
664.43	622.42
664.77	618.35
665.11	614.10
665.45	609.93
665.79	605.84
666.13	601.76
666.47	597.65
666.81	593.50
667.15	589.37
667.49	585.46
667.83	581.59
668.17	577.68
668.51	573.58
668.85	569.54
669.19	565.64
669.53	561.79
669.87	558.01
670.21	554.44
670.55	550.78
670.89	547.41
671.23	544.01
671.57	540.50
671.91	536.97
672.25	533.47
672.58	530.01
672.92	526.59
673.26	523.40
673.60	520.26
673.94	517.13
674.28	514.17
674.62	511.24
674.96	508.21
675.30	505.34
675.64	502.46
675.97	499.67
676.31	496.74
676.65	493.83
676.99	491.04
677.33	488.12
677.67	485.28
678.01	482.26
678.34	479.25
678.68	476.41
679.02	473.55
679.36	470.76
679.70	467.99
680.04	465.23
680.37	462.41
680.71	459.60
681.05	456.97
681.39	454.29
681.73	451.59
682.06	449.03
682.40	446.42
682.74	443.83
683.08	441.24
683.42	438.74
683.75	436.28
684.09	433.71
684.43	431.28
684.77	428.87
685.10	426.46
685.44	424.15
685.78	421.78
686.12	419.52
686.45	417.24
686.79	414.97
687.13	412.78
687.46	410.57
687.80	408.43
688.14	406.22
688.48	404.14
688.81	401.92
689.15	399.77
689.49	397.60
689.82	395.49
690.16	393.39
690.50	391.37
690.83	389.38
691.17	387.43
691.51	385.50
691.84	383.64
692.18	381.70
692.52	379.74
692.85	377.80
693.19	375.93
693.52	374.12
693.86	372.25
694.20	370.41
694.53	368.66
694.87	366.79
695.21	365.00
695.54	363.19
695.88	361.46
696.21	359.70
696.55	358.04
696.88	356.37
697.22	354.68
697.56	353.04
697.89	351.41
698.23	349.80
698.56	348.22
698.90	346.66
699.23	345.08
699.57	343.52
699.90	341.99
700.24	340.41
700.58	338.87
700.91	337.43
701.25	336.01
701.58	334.62
701.92	333.27
702.25	331.88
702.59	330.58
702.92	329.25
703.26	328.00
703.59	326.74
703.93	325.60
704.26	324.38
704.60	323.07
704.93	321.83
705.26	320.57
705.60	319.32
705.93	318.14
706.27	317.08
706.60	316.03
706.94	314.99
707.27	313.88
707.61	312.81
707.94	311.77
708.27	310.68
708.61	309.58
708.94	308.54
709.28	307.59
709.61	306.62
709.94	305.65
710.28	304.60
710.61	303.63
710.95	302.56
711.28	301.69
711.61	300.76
711.95	299.84
712.28	298.90
712.61	297.96
712.95	297.01
713.28	296.13
713.61	295.23
713.95	294.31
714.28	293.48
714.61	292.64
714.95	291.83
715.28	291.00
715.61	290.12
715.95	289.28
716.28	288.45
716.61	287.58
716.95	286.81
717.28	286.08
717.61	285.32
717.94	284.57
718.28	283.74
718.61	283.01
718.94	282.31
719.27	281.67
719.61	281.03
719.94	280.39
720.27	279.68
720.60	279.06
720.94	278.45
721.27	277.87
721.60	277.27
721.93	276.67
722.27	276.12
722.60	275.57
722.93	275.02
723.26	274.44
723.59	273.89
723.93	273.30
724.26	272.74
724.59	272.17
724.92	271.67
725.25	271.18
725.59	270.69
725.92	270.18
726.25	269.66
726.58	269.16
726.91	268.66
727.24	268.16
727.57	267.68
727.91	267.15
728.24	266.67
728.57	266.18
728.90	265.71
729.23	265.22
729.56	264.81
729.89	264.34
730.22	263.84
730.55	263.35
730.89	262.91
731.22	262.46
731.55	262.04
731.88	261.58
732.21	261.15
732.54	260.69
732.87	260.28
733.20	259.85
733.53	259.45
733.86	259.07
734.19	258.67
734.52	258.24
734.85	257.95
735.18	257.50
735.51	257.14
735.84	256.78
736.17	256.37
736.50	255.94
736.83	255.75
737.16	255.43
737.49	255.09
737.82	254.75
738.15	254.41
738.48	254.06
738.81	253.71
739.14	253.39
739.47	253.08
739.80	252.76
740.13	252.44
740.46	252.12
740.79	251.81
741.12	251.54
741.45	251.22
741.78	250.88
742.11	250.60
742.44	250.25
742.77	249.95
743.10	249.67
743.43	249.40
743.75	248.97
744.08	248.81
744.41	248.53
744.74	248.23
745.07	247.93
745.40	247.71
745.73	247.49
746.06	247.20
746.39	246.94
746.71	246.65
747.04	246.40
747.37	246.14
747.70	245.84
748.03	245.58
748.36	245.37
748.68	245.10
749.01	244.84
749.34	244.64
749.67	244.37
750.00	244.16
750.33	243.98
750.65	243.75
750.98	243.42
751.31	243.21
751.64	242.99
751.97	242.84
752.29	242.58
752.62	242.31
752.95	242.09
753.28	241.88
753.60	241.71
753.93	241.55
754.26	241.36
754.59	241.18
754.91	240.93
755.24	240.70
755.57	240.54
755.90	240.36
756.22	240.18
756.55	240.04
756.88	239.85
757.20	239.60
757.53	239.42
757.86	239.28
758.19	239.12
758.51	238.94
758.84	238.75
759.17	238.60
759.49	238.48
759.82	238.35
760.15	238.19
760.47	238.05
760.80	237.86
761.13	237.72
761.45	237.58
761.78	237.46
762.11	237.34
762.43	237.20
762.76	237.08
763.08	236.93
763.41	236.79
763.74	236.64
764.06	236.51
764.39	236.36
764.71	236.20
765.04	236.07
765.37	235.99
765.69	235.85
766.02	235.75
766.34	235.62
766.67	235.48
767.00	235.39
767.32	235.33
767.65	235.29
767.97	235.17
768.30	235.05
768.62	234.97
768.95	234.87
769.27	234.73
769.60	234.62
769.92	234.49
770.25	234.34
770.57	234.24
770.90	234.14
771.22	234.03
771.55	233.96
771.87	233.86
772.20	233.70
772.52	233.71
772.85	233.72
773.17	233.65
773.50	233.54
773.82	233.40
774.15	233.25
774.47	233.11
774.80	232.97
775.12	232.86
775.45	232.75
775.77	232.69
776.09	232.65
776.42	232.56
776.74	232.52
777.07	232.40
777.39	232.32
777.72	232.26
778.04	232.22
778.36	232.11
778.69	232.03
779.01	231.99
779.33	231.83
779.66	231.62
779.98	231.50
780.31	231.45
780.63	231.45
780.95	231.38
781.28	231.31
781.60	231.28
781.92	231.24
782.25	231.16
782.57	231.05
782.89	230.97
783.22	230.91
783.54	230.82
783.86	230.80
784.19	230.75
784.51	230.71
784.83	230.63
785.16	230.56
785.48	230.53
785.80	230.48
786.12	230.40
786.45	230.33
786.77	230.32
787.09	230.26
787.42	230.20
787.74	230.13
788.06	230.05
788.38	230.01
788.71	229.90
789.03	229.91
789.35	229.87
789.67	229.81
789.99	229.77
790.32	229.73
790.64	229.73
790.96	229.79
791.28	229.70
791.61	229.68
791.93	229.68
792.25	229.63
792.57	229.64
792.89	229.60
793.21	229.59
793.54	229.58
793.86	229.52
794.18	229.45
794.50	229.43
794.82	229.41
795.14	229.36
795.47	229.40
795.79	229.33
796.11	229.29
796.43	229.27
796.75	229.20
797.07	229.20
797.39	229.13
797.71	229.02
798.04	229.00
798.36	228.94
798.68	228.92
799.00	228.89
799.32	228.83
799.64	228.84
799.96	228.78
800.28	228.78
800.60	228.76
800.92	228.78
801.24	228.70
801.56	228.69
801.89	228.67
802.21	228.63
802.53	228.60
802.85	228.59
803.17	228.60
803.49	228.59
803.81	228.52
804.13	228.48
804.45	228.46
804.77	228.44
805.09	228.41
805.41	228.37
805.73	228.34
806.05	228.31
806.37	228.27
806.69	228.27
807.01	228.22
807.33	228.22
807.65	228.12
807.97	228.18
808.28	228.13
808.60	228.08
808.92	228.03
809.24	228.08
809.56	228.04
809.88	227.99
810.20	227.96
810.52	227.98
810.84	227.95
811.16	227.90
811.48	227.90
811.80	227.93
812.12	227.92
812.43	227.91
812.75	227.89
813.07	227.85
813.39	227.82
813.71	227.80
814.03	227.74
814.35	227.77
814.67	227.70
814.98	227.70
815.30	227.69
815.62	227.68
815.94	227.57
816.26	227.60
816.58	227.57
816.89	227.59
817.21	227.55
817.53	227.55
817.85	227.53
818.17	227.52
818.48	227.45
818.80	227.43
819.12	227.38
819.44	227.31
819.76	227.28
820.07	227.27
820.39	227.21
820.71	227.21
821.03	227.17
821.34	227.17
821.66	227.13
821.98	227.13
822.30	227.11
822.61	227.15
822.93	227.10
823.25	227.05
823.57	227.02
823.88	227.00
824.20	226.98
824.52	226.98
824.83	226.93
825.15	226.94
825.47	226.90
825.79	226.91
826.10	226.96
826.42	226.93
826.74	226.94
827.05	226.92
827.37	226.92
827.69	226.93
828.00	226.91
828.32	226.93
828.64	226.90
828.95	226.94
829.27	226.88
829.58	226.86
829.90	226.91
830.22	226.92
830.53	226.87
830.85	226.82
831.17	226.77
831.48	226.78
831.80	226.76
832.11	226.76
832.43	226.73
832.75	226.69
833.06	226.75
833.38	226.72
833.69	226.72
834.01	226.72
834.32	226.69
834.64	226.66
834.96	226.63
835.27	226.62
835.59	226.58
835.90	226.58
836.22	226.59
836.53	226.52
836.85	226.47
837.16	226.59
837.48	226.60
837.79	226.67
838.11	226.64
838.42	226.63
838.74	226.62
839.05	226.60
839.37	226.56
839.68	226.51
840.00	226.49
840.31	226.52
840.63	226.50
840.94	226.48
841.26	226.48
841.57	226.49
841.88	226.51
842.20	226.47
842.51	226.44
842.83	226.41
843.14	226.51
843.46	226.52
843.77	226.47
844.08	226.48
844.40	226.41
844.71	226.43
845.03	226.45
845.34	226.45
845.65	226.48
845.97	226.51
846.28	226.51
846.60	226.52
846.91	226.47
847.22	226.47
847.54	226.48
847.85	226.48
848.16	226.47
848.48	226.44
848.79	226.46
849.10	226.47
849.42	226.48
849.73	226.39
850.04	226.39
850.36	226.34
850.67	226.37
850.98	226.34
851.30	226.34
851.61	226.32
851.92	226.29
852.23	226.30
852.55	226.31
852.86	226.31
853.17	226.30
853.49	226.32
853.80	226.33
854.11	226.34
854.42	226.36
854.74	226.37
855.05	226.38
855.36	226.36
855.67	226.36
855.99	226.34
856.30	226.42
856.61	226.38
856.92	226.35
857.23	226.30
857.55	226.31
857.86	226.29
858.17	226.29
858.48	226.29
858.79	226.26
859.11	226.24
859.42	226.24
859.73	226.23
860.04	226.23
860.35	226.18
860.66	226.16
860.98	226.15
861.29	226.12
861.60	226.09
861.91	226.09
862.22	226.10
862.53	226.07
862.84	226.00
863.16	226.06
863.47	226.05
863.78	226.06
864.09	226.04
864.40	226.03
864.71	226.04
865.02	226.04
865.33	226.03
865.64	226.02
865.95	226.01
866.27	226.07
866.58	226.06
866.89	226.06
867.20	226.05
867.51	226.05
867.82	226.06
868.13	226.08
868.44	226.09
868.75	226.07
869.06	226.08
869.37	226.05
869.68	226.04
869.99	226.10
870.30	226.13
870.61	226.13
870.92	226.11
871.23	226.11
871.54	226.11
871.85	226.14
872.16	226.12
872.47	226.11
872.78	226.04
873.09	226.05
873.40	226.05
873.71	226.05
874.02	226.00
874.33	225.96
874.64	225.94
874.95	225.95
875.26	225.96
875.56	225.97
875.87	225.99
876.18	225.95
876.49	226.02
876.80	226.03
877.11	226.02
877.42	226.03
877.73	226.01
878.04	225.98
878.35	225.96
878.66	225.98
878.96	225.95
879.27	225.96
879.58	225.93
879.89	225.94
880.20	225.99
880.51	226.00
880.82	226.00
881.12	226.00
881.43	225.98
881.74	225.95
882.05	225.95
882.36	225.94
882.67	225.96
882.97	225.82
883.28	225.79
883.59	225.76
883.90	225.74
884.21	225.77
884.51	225.75
884.82	225.74
885.13	225.73
885.44	225.71
885.74	225.72
886.05	225.75
886.36	225.74
886.67	225.70
886.98	225.73
887.28	225.71
887.59	225.72
887.90	225.69
888.20	225.70
888.51	225.71
888.82	225.67
889.13	225.65
889.43	225.75
889.74	225.75
890.05	225.73
890.35	225.75
890.66	225.71
890.97	225.73
891.28	225.74
891.58	225.74
891.89	225.76
892.20	225.74
892.50	225.69
892.81	225.68
893.12	225.65
893.42	225.62
893.73	225.65
894.04	225.65
894.34	225.67
894.65	225.64
894.95	225.61
895.26	225.63
895.57	225.69
895.87	225.60
896.18	225.62
896.48	225.67
896.79	225.71
897.10	225.74
897.40	225.74
897.71	225.76
898.01	225.74
898.32	225.77
898.63	225.78
898.93	225.79
899.24	225.81
899.54	225.81
899.85	225.82
900.15	225.80
900.46	225.79
900.76	225.79
901.07	225.81
901.38	225.83
901.68	225.83
901.99	225.82
902.29	225.83
902.60	225.82
902.90	225.80
903.21	225.76
903.51	225.76
903.82	225.76
904.12	225.74
904.43	225.76
904.73	225.76
905.03	225.75
905.34	225.86
905.64	225.86
905.95	225.89
906.25	225.88
906.56	225.90
906.86	225.93
907.17	225.89
907.47	225.92
907.77	225.95
908.08	225.94
908.38	225.93
908.69	225.92
908.99	225.91
909.30	225.91
909.60	225.91
909.90	225.92
910.21	225.91
910.51	225.88
910.81	225.88
911.12	225.88
911.42	225.91
911.73	225.81
912.03	225.82
912.33	225.80
912.64	225.83
912.94	225.81
913.24	225.79
913.55	225.81
913.85	225.80
914.15	225.77
914.46	225.79
914.76	225.75
915.06	225.75
915.37	225.74
915.67	225.75
915.97	225.75
916.27	225.72
916.58	225.76
916.88	225.78
917.18	225.78
917.49	225.84
917.79	225.79
918.09	225.80
918.39	225.78
918.70	225.77
919.00	225.75
919.30	225.80
919.60	225.78
919.91	225.79
920.21	225.77
920.51	225.76
920.81	225.79
921.12	225.81
921.42	225.81
921.72	225.82
922.02	225.82
922.32	225.83
922.63	225.81
922.93	225.80
923.23	225.78
923.53	225.76
923.83	225.69
924.13	225.73
924.44	225.75
924.74	225.81
925.04	225.85
925.34	225.82
925.64	225.77
925.94	225.77
926.24	225.83
926.55	225.82
926.85	225.82
927.15	225.79
927.45	225.74
927.75	225.74
928.05	225.75
928.35	225.73
928.65	225.70
928.95	225.73
929.26	225.70
929.56	225.73
929.86	225.73
930.16	225.75
930.46	225.73
930.76	225.68
931.06	225.60
931.36	225.55
931.66	225.57
931.96	225.58
932.26	225.60
932.56	225.53
932.86	225.57
933.16	225.60
933.46	225.58
933.76	225.60
934.06	225.63
934.36	225.62
934.66	225.65
934.96	225.67
935.26	225.67
935.56	225.67
935.86	225.65
936.16	225.65
936.46	225.62
936.76	225.60
937.06	225.62
937.36	225.66
937.66	225.68
937.96	225.70
938.26	225.68
938.56	225.67
938.86	225.69
939.16	225.68
939.46	225.68
939.76	225.70
940.06	225.70
940.35	225.70
940.65	225.67
940.95	225.68
941.25	225.68
941.55	225.66
941.85	225.69
942.15	225.70
942.45	225.74
942.75	225.77
943.04	225.81
943.34	225.83
943.64	225.81
943.94	225.80
944.24	225.83
944.54	225.84
944.84	225.83
945.13	225.79
945.43	225.78
945.73	225.75
946.03	225.71
946.33	225.72
946.62	225.70
946.92	225.68
947.22	225.66
947.52	225.65
947.82	225.68
948.11	225.64
948.41	225.64
948.71	225.59
949.01	225.58
949.31	225.57
949.60	225.56
949.90	225.57
950.20	225.56
950.50	225.53
950.79	225.50
951.09	225.53
951.39	225.53
951.69	225.53
951.98	225.55
952.28	225.56
952.58	225.54
952.87	225.55
953.17	225.57
953.47	225.57
953.76	225.57
954.06	225.52
954.36	225.48
954.66	225.47
954.95	225.47
955.25	225.47
955.55	225.46
955.84	225.42
956.14	225.40
956.44	225.40
956.73	225.38
957.03	225.37
957.32	225.34
957.62	225.32
957.92	225.32
958.21	225.28
958.51	225.39
958.81	225.39
959.10	225.37
959.40	225.37
959.69	225.37
959.99	225.36
960.29	225.36
960.58	225.36
960.88	225.39
961.17	225.39
961.47	225.38
961.76	225.36
962.06	225.37
962.36	225.35
962.65	225.33
962.95	225.30
963.24	225.31
963.54	225.32
963.83	225.31
964.13	225.30
964.42	225.29
964.72	225.25
965.01	225.24
965.31	225.21
965.60	225.19
965.90	225.25
966.19	225.24
966.49	225.24
966.78	225.24
967.08	225.26
967.37	225.26
967.67	225.25
967.96	225.26
968.26	225.26
968.55	225.28
968.85	225.32
969.14	225.35
969.43	225.33
969.73	225.33
970.02	225.36
970.32	225.34
970.61	225.37
970.91	225.31
971.20	225.29
971.49	225.29
971.79	225.32
972.08	225.27
972.38	225.30
972.67	225.30
972.96	225.35
973.26	225.31
973.55	225.37
973.85	225.37
974.14	225.41
974.43	225.46
974.73	225.49
975.02	225.50
975.31	225.50
975.61	225.52
975.90	225.55
976.19	225.56
976.49	225.58
976.78	225.60
977.07	225.61
977.37	225.66
977.66	225.70
977.95	225.72
978.24	225.73
978.54	225.75
978.83	225.75
979.12	225.78
979.42	225.77
979.71	225.73
980.00	225.74
980.29	225.72
980.59	225.69
980.88	225.72
981.17	225.72
981.46	225.72
981.76	225.74
982.05	225.76
982.34	225.76
982.63	225.82
982.93	225.81
983.22	225.85
983.51	225.86
983.80	225.87
984.09	225.90
984.39	225.90
984.68	225.89
984.97	225.87
985.26	225.85
985.55	225.87
985.85	225.85
986.14	225.83
986.43	225.84
986.72	225.83
987.01	225.78
987.30	225.77
987.59	225.76
987.89	225.74
988.18	225.66
988.47	225.64
988.76	225.60
989.05	225.58
989.34	225.57
989.63	225.56
989.92	225.53
990.22	225.47
990.51	225.44
990.80	225.44
991.09	225.47
991.38	225.47
991.67	225.44
991.96	225.40
992.25	225.41
992.54	225.37
992.83	225.36
993.12	225.34
993.41	225.31
993.70	225.35
993.99	225.35
994.28	225.36
994.58	225.39
994.87	225.35
995.16	225.32
995.45	225.29
995.74	225.28
996.03	225.29
996.32	225.30
996.61	225.33
996.90	225.31
997.19	225.29
997.48	225.29
997.77	225.28
998.06	225.31
998.34	225.30
998.63	225.30
998.92	225.29
999.21	225.30
999.50	225.30
999.79	225.27
1000.08	225.27
1000.37	225.30
1000.66	225.25
1000.95	225.29
1001.24	225.32
1001.53	225.33
1001.82	225.30
1002.11	225.26
1002.40	225.24
1002.68	225.26
1002.97	225.32
1003.26	225.33
1003.55	225.31
1003.84	225.32
1004.13	225.35
1004.42	225.35
1004.71	225.37
1004.99	225.38
1005.28	225.42
1005.57	225.40
1005.86	225.41
1006.15	225.42
1006.44	225.37
1006.72	225.38
1007.01	225.39
1007.30	225.39
1007.59	225.36
1007.88	225.35
1008.17	225.37
1008.45	225.38
1008.74	225.33
1009.03	225.29
1009.32	225.27
1009.60	225.28
1009.89	225.25
1010.18	225.23
1010.47	225.26
1010.76	225.26
1011.04	225.26
1011.33	225.26
1011.62	225.31
1011.91	225.32
1012.19	225.31
1012.48	225.33
1012.77	225.32
1013.05	225.35
1013.34	225.35
1013.63	225.36
1013.92	225.39
1014.20	225.40
1014.49	225.41
1014.78	225.44
1015.06	225.44
1015.35	225.47
1015.64	225.48
1015.92	225.53
1016.21	225.55
1016.50	225.52
1016.78	225.55
1017.07	225.52
1017.36	225.53
1017.64	225.49
1017.93	225.50
1018.22	225.53
1018.50	225.55
1018.79	225.59
1019.08	225.56
1019.36	225.57
1019.65	225.58
1019.93	225.59
1020.22	225.60
1020.51	225.63
1020.79	225.65
1021.08	225.74
1021.36	225.64
1021.65	226.08
1021.94	225.77
1022.22	225.48
1022.51	225.16
1022.79	225.76
1023.08	225.59
1023.36	226.06
1023.65	225.99
>>>>>End Processed Spectral Data<<<<<
