SpectraSuite Data File
++++++++++++++++++++++++++++++++++++
Date: Fri Feb 01 15:17:10 EST 2013
User: group
Dark Spectrum Present: No
Reference Spectrum Present: No
Number of Sampled Component Spectra: 1
Spectrometers: USB2E7196
Integration Time (usec): 35000 (USB2E7196)
Spectra Averaged: 100 (USB2E7196)
Boxcar Smoothing: 10 (USB2E7196)
Correct for Electrical Dark: No (USB2E7196)
Strobe/Lamp Enabled: No (USB2E7196)
Correct for Detector Non-linearity: No (USB2E7196)
Correct for Stray Light: No (USB2E7196)
Number of Pixels in Processed Spectrum: 2048
>>>>>Begin Processed Spectral Data<<<<<
339.09	0.00
339.48	214.80
339.86	216.85
340.24	217.53
340.63	219.67
341.01	221.56
341.39	222.46
341.78	223.52
342.16	224.68
342.54	225.02
342.93	213.42
343.31	224.20
343.69	224.76
344.07	225.24
344.46	225.69
344.84	226.06
345.22	226.32
345.60	226.56
345.99	226.74
346.37	226.86
346.75	226.96
347.13	227.05
347.52	227.14
347.90	227.21
348.28	227.24
348.66	227.33
349.05	227.27
349.43	227.32
349.81	227.38
350.19	227.42
350.57	227.50
350.96	227.59
351.34	227.69
351.72	227.79
352.10	227.85
352.48	227.90
352.87	227.95
353.25	228.04
353.63	228.12
354.01	228.20
354.39	228.27
354.77	228.36
355.15	228.50
355.54	228.55
355.92	228.59
356.30	228.67
356.68	228.80
357.06	228.94
357.44	229.00
357.82	229.06
358.20	229.15
358.58	229.22
358.97	229.26
359.35	229.35
359.73	229.44
360.11	229.51
360.49	229.57
360.87	229.62
361.25	229.66
361.63	229.71
362.01	229.77
362.39	229.80
362.77	229.85
363.15	229.85
363.53	229.86
363.91	229.88
364.29	229.90
364.67	229.80
365.05	229.81
365.43	229.85
365.81	229.84
366.19	229.84
366.57	229.86
366.95	229.87
367.33	229.82
367.71	229.73
368.09	229.73
368.47	229.73
368.85	229.70
369.23	229.71
369.61	229.63
369.99	229.60
370.37	229.56
370.75	229.54
371.13	229.47
371.51	229.42
371.89	229.40
372.27	229.33
372.65	229.28
373.03	229.21
373.41	229.13
373.78	229.07
374.16	228.97
374.54	228.87
374.92	228.80
375.30	228.74
375.68	228.70
376.06	228.60
376.44	228.51
376.82	228.43
377.19	228.33
377.57	228.26
377.95	228.14
378.33	228.07
378.71	227.94
379.09	227.85
379.47	227.75
379.84	227.65
380.22	227.56
380.60	227.47
380.98	227.38
381.36	227.29
381.73	227.20
382.11	227.16
382.49	227.10
382.87	227.00
383.25	226.94
383.62	226.96
384.00	226.89
384.38	226.82
384.76	226.78
385.13	226.75
385.51	226.68
385.89	226.66
386.27	226.62
386.64	226.62
387.02	226.62
387.40	226.61
387.78	226.56
388.15	226.53
388.53	226.50
388.91	226.48
389.29	226.46
389.66	226.41
390.04	226.38
390.42	226.38
390.79	226.40
391.17	226.38
391.55	226.28
391.92	226.30
392.30	226.32
392.68	226.29
393.05	226.29
393.43	226.33
393.81	226.30
394.18	226.32
394.56	226.30
394.94	226.31
395.31	226.31
395.69	226.39
396.06	226.47
396.44	226.51
396.82	226.55
397.19	226.64
397.57	226.72
397.95	226.79
398.32	226.84
398.70	226.89
399.07	226.98
399.45	227.03
399.82	227.10
400.20	227.16
400.58	227.27
400.95	227.33
401.33	227.43
401.70	227.60
402.08	227.69
402.45	227.81
402.83	227.95
403.20	228.10
403.58	228.18
403.95	228.33
404.33	228.49
404.71	228.63
405.08	228.81
405.46	228.97
405.83	229.11
406.21	229.26
406.58	229.45
406.96	229.59
407.33	229.80
407.70	229.99
408.08	230.32
408.45	230.55
408.83	230.81
409.20	231.06
409.58	231.25
409.95	231.54
410.33	231.83
410.70	232.10
411.08	232.42
411.45	232.74
411.82	233.00
412.20	233.34
412.57	233.75
412.95	234.03
413.32	234.42
413.69	234.85
414.07	235.26
414.44	235.72
414.82	236.22
415.19	236.78
415.56	237.34
415.94	237.83
416.31	238.46
416.68	239.08
417.06	239.76
417.43	240.45
417.81	241.20
418.18	241.94
418.55	242.76
418.93	243.64
419.30	244.53
419.67	245.47
420.04	246.43
420.42	247.43
420.79	248.61
421.16	249.77
421.54	250.94
421.91	252.21
422.28	253.46
422.66	254.79
423.03	256.09
423.40	257.40
423.77	258.80
424.15	260.24
424.52	261.73
424.89	263.34
425.26	264.88
425.64	266.31
426.01	267.91
426.38	269.55
426.75	271.20
427.13	272.94
427.50	274.73
427.87	276.58
428.24	278.42
428.61	280.14
428.99	282.06
429.36	284.19
429.73	286.22
430.10	288.21
430.47	290.28
430.85	292.41
431.22	294.65
431.59	297.07
431.96	299.34
432.33	301.82
432.70	304.21
433.08	307.04
433.45	309.71
433.82	312.37
434.19	315.29
434.56	318.09
434.93	320.74
435.30	323.37
435.68	326.31
436.05	329.16
436.42	331.98
436.79	334.54
437.16	337.24
437.53	340.06
437.90	342.87
438.27	345.64
438.64	348.47
439.01	351.11
439.38	353.35
439.75	355.49
440.13	358.00
440.50	360.30
440.87	362.16
441.24	364.12
441.61	366.22
441.98	367.69
442.35	369.53
442.72	371.39
443.09	373.24
443.46	374.25
443.83	374.85
444.20	375.39
444.57	376.21
444.94	376.49
445.31	376.88
445.68	377.25
446.05	377.31
446.42	376.91
446.79	376.44
447.16	375.97
447.53	375.65
447.90	374.50
448.27	373.35
448.64	371.75
449.01	370.61
449.37	368.66
449.74	366.78
450.11	364.47
450.48	362.01
450.85	359.47
451.22	357.26
451.59	355.22
451.96	353.25
452.33	350.66
452.70	348.30
453.07	345.40
453.43	342.55
453.80	339.78
454.17	337.11
454.54	334.57
454.91	331.84
455.28	329.16
455.65	326.64
456.02	324.21
456.38	322.08
456.75	319.38
457.12	317.16
457.49	314.94
457.86	312.80
458.23	310.97
458.59	308.91
458.96	306.84
459.33	305.01
459.70	303.13
460.07	301.63
460.43	299.92
460.80	298.33
461.17	296.86
461.54	295.37
461.91	293.93
462.27	292.51
462.64	291.29
463.01	289.90
463.38	288.61
463.74	287.21
464.11	286.05
464.48	285.06
464.85	283.92
465.21	283.06
465.58	282.11
465.95	280.96
466.32	280.03
466.68	279.14
467.05	278.22
467.42	277.33
467.78	276.41
468.15	275.54
468.52	274.85
468.88	274.02
469.25	273.23
469.62	272.59
469.98	271.84
470.35	271.21
470.72	270.62
471.08	269.98
471.45	269.45
471.82	268.87
472.18	268.24
472.55	267.77
472.92	267.23
473.28	266.78
473.65	266.32
474.02	265.90
474.38	265.51
474.75	265.18
475.11	264.84
475.48	264.56
475.85	264.30
476.21	264.11
476.58	263.88
476.94	263.77
477.31	263.60
477.67	263.47
478.04	263.33
478.41	263.27
478.77	263.27
479.14	263.20
479.50	263.19
479.87	263.26
480.23	263.37
480.60	263.43
480.96	263.52
481.33	263.73
481.69	263.89
482.06	264.08
482.42	264.26
482.79	264.50
483.15	264.75
483.52	265.11
483.88	265.40
484.25	265.75
484.61	266.12
484.98	266.58
485.34	267.14
485.71	267.71
486.07	268.32
486.44	268.88
486.80	269.57
487.17	270.32
487.53	271.13
487.90	271.98
488.26	272.90
488.62	273.91
488.99	274.90
489.35	275.93
489.72	277.05
490.08	278.27
490.44	279.52
490.81	280.88
491.17	282.20
491.54	283.72
491.90	285.30
492.26	286.91
492.63	288.63
492.99	290.41
493.36	292.26
493.72	294.29
494.08	296.40
494.45	298.64
494.81	300.97
495.17	303.37
495.54	305.92
495.90	308.62
496.26	311.39
496.63	314.33
496.99	317.42
497.35	320.67
497.72	324.01
498.08	327.52
498.44	331.15
498.80	335.11
499.17	339.11
499.53	343.22
499.89	347.61
500.26	352.08
500.62	356.77
500.98	361.79
501.34	366.81
501.71	372.13
502.07	377.55
502.43	383.11
502.79	388.98
503.16	395.05
503.52	401.26
503.88	407.65
504.24	414.24
504.60	421.14
504.97	428.28
505.33	435.58
505.69	443.26
506.05	451.05
506.41	458.97
506.78	467.13
507.14	475.58
507.50	484.33
507.86	493.32
508.22	502.47
508.59	511.66
508.95	521.31
509.31	531.11
509.67	541.28
510.03	551.59
510.39	562.06
510.75	572.83
511.12	583.81
511.48	595.11
511.84	606.56
512.20	618.09
512.56	630.07
512.92	642.32
513.28	654.72
513.64	667.26
514.00	679.91
514.37	692.82
514.73	705.96
515.09	719.06
515.45	732.42
515.81	745.97
516.17	759.96
516.53	774.06
516.89	788.26
517.25	802.34
517.61	816.87
517.97	831.39
518.33	845.93
518.69	860.67
519.05	875.64
519.41	890.91
519.77	906.56
520.13	922.11
520.49	937.50
520.85	952.95
521.21	968.72
521.57	985.06
521.93	1000.86
522.29	1017.27
522.65	1033.50
523.01	1049.83
523.37	1065.99
523.73	1082.20
524.09	1098.36
524.45	1114.77
524.81	1131.47
525.17	1148.31
525.53	1165.34
525.89	1182.15
526.25	1199.01
526.61	1215.60
526.97	1232.30
527.33	1248.82
527.68	1265.39
528.04	1282.01
528.40	1298.73
528.76	1315.79
529.12	1332.33
529.48	1349.24
529.84	1365.35
530.20	1382.05
530.56	1399.03
530.91	1416.48
531.27	1433.34
531.63	1449.81
531.99	1466.42
532.35	1482.49
532.71	1498.40
533.07	1514.73
533.42	1530.70
533.78	1546.82
534.14	1563.19
534.50	1578.60
534.86	1594.44
535.21	1609.65
535.57	1625.68
535.93	1641.22
536.29	1656.04
536.65	1671.24
537.00	1686.18
537.36	1701.59
537.72	1716.26
538.08	1730.79
538.44	1744.76
538.79	1758.66
539.15	1772.51
539.51	1786.27
539.87	1800.75
540.22	1814.59
540.58	1828.46
540.94	1841.98
541.29	1855.02
541.65	1867.72
542.01	1881.13
542.37	1893.56
542.72	1906.09
543.08	1917.92
543.44	1930.42
543.79	1941.76
544.15	1952.68
544.51	1964.40
544.87	1975.37
545.22	1986.14
545.58	1996.32
545.94	2006.05
546.29	2016.18
546.65	2025.87
547.01	2035.19
547.36	2043.95
547.72	2052.42
548.07	2060.25
548.43	2068.43
548.79	2076.56
549.14	2084.10
549.50	2091.49
549.86	2099.22
550.21	2106.59
550.57	2113.58
550.92	2119.96
551.28	2127.05
551.64	2134.38
551.99	2140.90
552.35	2146.94
552.70	2153.10
553.06	2159.06
553.41	2165.46
553.77	2171.37
554.13	2177.58
554.48	2183.79
554.84	2189.10
555.19	2194.41
555.55	2199.43
555.90	2203.93
556.26	2208.67
556.61	2213.33
556.97	2217.38
557.32	2221.60
557.68	2225.82
558.03	2230.18
558.39	2234.12
558.74	2238.68
559.10	2242.47
559.45	2246.12
559.81	2250.62
560.16	2254.48
560.52	2257.74
560.87	2261.01
561.23	2263.61
561.58	2266.46
561.94	2268.90
562.29	2271.36
562.64	2273.93
563.00	2276.64
563.35	2280.20
563.71	2283.37
564.06	2286.58
564.42	2289.53
564.77	2291.87
565.12	2293.90
565.48	2295.68
565.83	2297.33
566.19	2298.57
566.54	2299.38
566.89	2300.49
567.25	2300.80
567.60	2302.11
567.96	2303.87
568.31	2304.90
568.66	2306.00
569.02	2306.59
569.37	2306.91
569.72	2307.72
570.08	2307.92
570.43	2307.75
570.78	2306.86
571.14	2305.31
571.49	2303.93
571.84	2303.60
572.20	2302.41
572.55	2301.37
572.90	2299.84
573.26	2298.43
573.61	2296.68
573.96	2294.84
574.31	2291.63
574.67	2288.60
575.02	2284.91
575.37	2281.33
575.72	2277.18
576.08	2273.77
576.43	2270.37
576.78	2266.56
577.13	2263.37
577.49	2260.27
577.84	2256.71
578.19	2253.03
578.54	2249.27
578.90	2244.87
579.25	2239.13
579.60	2233.98
579.95	2228.94
580.30	2223.88
580.66	2218.58
581.01	2213.55
581.36	2208.60
581.71	2204.30
582.06	2199.92
582.42	2195.19
582.77	2190.03
583.12	2185.46
583.47	2180.48
583.82	2175.34
584.17	2170.03
584.53	2164.27
584.88	2158.40
585.23	2152.46
585.58	2146.99
585.93	2141.40
586.28	2136.59
586.63	2131.43
586.98	2126.34
587.34	2121.54
587.69	2116.53
588.04	2111.22
588.39	2105.47
588.74	2098.96
589.09	2092.84
589.44	2085.75
589.79	2079.79
590.14	2073.88
590.49	2067.30
590.84	2060.85
591.19	2054.68
591.54	2048.12
591.89	2040.59
592.25	2033.73
592.60	2026.58
592.95	2018.71
593.30	2011.26
593.65	2003.51
594.00	1996.34
594.35	1989.02
594.70	1980.95
595.05	1973.77
595.40	1966.51
595.75	1958.92
596.10	1952.46
596.45	1945.45
596.80	1939.36
597.15	1932.56
597.50	1925.50
597.85	1919.07
598.19	1912.36
598.54	1905.25
598.89	1898.54
599.24	1892.66
599.59	1885.82
599.94	1879.56
600.29	1873.30
600.64	1866.71
600.99	1859.30
601.34	1852.42
601.69	1845.50
602.04	1838.44
602.39	1830.86
602.74	1823.88
603.08	1817.17
603.43	1810.52
603.78	1803.31
604.13	1796.05
604.48	1788.72
604.83	1781.84
605.18	1774.64
605.53	1766.73
605.87	1758.83
606.22	1751.58
606.57	1743.67
606.92	1736.49
607.27	1729.26
607.62	1722.42
607.96	1715.06
608.31	1708.34
608.66	1700.68
609.01	1693.05
609.36	1685.39
609.70	1677.29
610.05	1669.18
610.40	1661.41
610.75	1653.07
611.10	1645.40
611.44	1636.95
611.79	1628.94
612.14	1620.26
612.49	1611.19
612.83	1602.81
613.18	1594.62
613.53	1586.62
613.88	1578.06
614.22	1569.72
614.57	1561.09
614.92	1552.88
615.27	1545.32
615.61	1537.08
615.96	1529.10
616.31	1521.48
616.65	1514.18
617.00	1506.83
617.35	1499.14
617.70	1490.70
618.04	1482.06
618.39	1473.73
618.74	1466.19
619.08	1457.90
619.43	1450.30
619.78	1443.34
620.12	1436.17
620.47	1428.58
620.82	1420.48
621.16	1413.15
621.51	1405.51
621.85	1397.96
622.20	1389.50
622.55	1381.24
622.89	1373.39
623.24	1365.93
623.59	1358.54
623.93	1351.08
624.28	1343.84
624.62	1336.34
624.97	1329.29
625.32	1322.55
625.66	1315.61
626.01	1308.39
626.35	1300.96
626.70	1293.24
627.04	1285.50
627.39	1277.73
627.73	1270.39
628.08	1263.27
628.43	1255.90
628.77	1248.49
629.12	1240.83
629.46	1233.56
629.81	1226.06
630.15	1218.83
630.50	1211.40
630.84	1203.24
631.19	1195.38
631.53	1187.86
631.88	1180.26
632.22	1172.72
632.57	1165.51
632.91	1157.92
633.26	1150.54
633.60	1143.20
633.95	1136.06
634.29	1129.08
634.64	1122.38
634.98	1115.04
635.32	1107.95
635.67	1101.48
636.01	1095.03
636.36	1088.36
636.70	1081.96
637.05	1075.43
637.39	1068.98
637.73	1062.42
638.08	1056.60
638.42	1050.56
638.77	1044.17
639.11	1037.66
639.45	1031.25
639.80	1024.55
640.14	1018.12
640.49	1011.54
640.83	1005.35
641.17	999.11
641.52	992.71
641.86	986.32
642.20	980.50
642.55	974.33
642.89	967.78
643.23	961.14
643.58	955.33
643.92	949.03
644.26	942.98
644.61	936.98
644.95	930.98
645.29	924.38
645.64	917.60
645.98	911.19
646.32	905.43
646.66	899.45
647.01	893.80
647.35	888.19
647.69	882.49
648.04	876.89
648.38	871.12
648.72	865.11
649.06	859.02
649.41	853.12
649.75	847.09
650.09	841.18
650.43	835.41
650.78	829.32
651.12	823.41
651.46	817.61
651.80	811.86
652.14	806.42
652.49	800.97
652.83	795.86
653.17	790.16
653.51	784.43
653.85	778.99
654.20	773.27
654.54	767.28
654.88	761.55
655.22	755.65
655.56	749.94
655.90	744.56
656.25	739.30
656.59	733.96
656.93	728.80
657.27	723.61
657.61	718.17
657.95	713.00
658.29	708.01
658.64	702.82
658.98	697.53
659.32	692.10
659.66	687.02
660.00	681.69
660.34	676.80
660.68	671.92
661.02	666.88
661.36	662.21
661.70	657.73
662.05	653.33
662.39	649.04
662.73	644.65
663.07	640.29
663.41	635.85
663.75	631.38
664.09	626.91
664.43	622.52
664.77	618.38
665.11	614.17
665.45	610.00
665.79	605.97
666.13	601.88
666.47	597.80
666.81	593.65
667.15	589.50
667.49	585.67
667.83	581.79
668.17	577.88
668.51	573.79
668.85	569.73
669.19	565.83
669.53	561.95
669.87	558.06
670.21	554.35
670.55	550.72
670.89	547.30
671.23	543.86
671.57	540.40
671.91	536.89
672.25	533.41
672.58	529.97
672.92	526.58
673.26	523.42
673.60	520.28
673.94	517.17
674.28	514.34
674.62	511.31
674.96	508.22
675.30	505.27
675.64	502.34
675.97	499.59
676.31	496.77
676.65	493.88
676.99	491.24
677.33	488.43
677.67	485.65
678.01	482.55
678.34	479.50
678.68	476.68
679.02	473.87
679.36	471.10
679.70	468.35
680.04	465.56
680.37	462.68
680.71	459.87
681.05	457.25
681.39	454.52
681.73	451.92
682.06	449.41
682.40	446.94
682.74	444.42
683.08	441.90
683.42	439.31
683.75	436.89
684.09	434.33
684.43	431.86
684.77	429.38
685.10	427.08
685.44	424.91
685.78	422.62
686.12	420.46
686.45	418.18
686.79	415.89
687.13	413.71
687.46	411.59
687.80	409.51
688.14	407.28
688.48	405.26
688.81	402.98
689.15	400.82
689.49	398.68
689.82	396.61
690.16	394.52
690.50	392.57
690.83	390.57
691.17	388.58
691.51	386.65
691.84	384.84
692.18	382.91
692.52	380.89
692.85	378.95
693.19	377.04
693.52	375.24
693.86	373.47
694.20	371.74
694.53	369.91
694.87	368.04
695.21	366.27
695.54	364.41
695.88	362.76
696.21	361.02
696.55	359.31
696.88	357.67
697.22	356.03
697.56	354.44
697.89	352.77
698.23	351.19
698.56	349.56
698.90	347.94
699.23	346.26
699.57	344.73
699.90	343.18
700.24	341.65
700.58	340.10
700.91	338.58
701.25	337.12
701.58	335.76
701.92	334.44
702.25	333.05
702.59	331.71
702.92	330.37
703.26	329.12
703.59	327.87
703.93	326.66
704.26	325.41
704.60	324.11
704.93	322.88
705.26	321.61
705.60	320.48
705.93	319.37
706.27	318.36
706.60	317.32
706.94	316.23
707.27	315.12
707.61	314.07
707.94	313.04
708.27	311.93
708.61	310.85
708.94	309.79
709.28	308.81
709.61	307.81
709.94	306.86
710.28	305.84
710.61	304.87
710.95	303.80
711.28	302.89
711.61	301.95
711.95	301.03
712.28	300.09
712.61	299.08
712.95	298.13
713.28	297.27
713.61	296.30
713.95	295.42
714.28	294.58
714.61	293.68
714.95	292.84
715.28	292.01
715.61	291.16
715.95	290.29
716.28	289.44
716.61	288.64
716.95	287.82
717.28	287.06
717.61	286.29
717.94	285.55
718.28	284.74
718.61	284.00
718.94	283.32
719.27	282.65
719.61	282.01
719.94	281.32
720.27	280.62
720.60	280.01
720.94	279.38
721.27	278.72
721.60	278.17
721.93	277.56
722.27	277.03
722.60	276.45
722.93	275.90
723.26	275.39
723.59	274.82
723.93	274.25
724.26	273.69
724.59	273.13
724.92	272.57
725.25	272.08
725.59	271.55
725.92	271.03
726.25	270.53
726.58	270.05
726.91	269.59
727.24	269.11
727.57	268.64
727.91	268.16
728.24	267.71
728.57	267.22
728.90	266.78
729.23	266.27
729.56	265.87
729.89	265.41
730.22	264.92
730.55	264.46
730.89	264.06
731.22	263.61
731.55	263.17
731.88	262.76
732.21	262.31
732.54	261.91
732.87	261.47
733.20	261.08
733.53	260.70
733.86	260.32
734.19	259.93
734.52	259.56
734.85	259.20
735.18	258.83
735.51	258.48
735.84	258.12
736.17	257.76
736.50	257.36
736.83	257.14
737.16	256.80
737.49	256.48
737.82	256.12
738.15	255.81
738.48	255.48
738.81	255.17
739.14	254.87
739.47	254.56
739.80	254.26
740.13	253.94
740.46	253.62
740.79	253.28
741.12	252.95
741.45	252.62
741.78	252.33
742.11	252.02
742.44	251.69
742.77	251.37
743.10	251.10
743.43	250.81
743.75	250.45
744.08	250.30
744.41	250.03
744.74	249.76
745.07	249.47
745.40	249.23
745.73	249.01
746.06	248.76
746.39	248.49
746.71	248.26
747.04	247.99
747.37	247.71
747.70	247.46
748.03	247.23
748.36	247.00
748.68	246.76
749.01	246.49
749.34	246.31
749.67	246.10
750.00	245.83
750.33	245.65
750.65	245.38
750.98	245.02
751.31	244.80
751.64	244.59
751.97	244.45
752.29	244.23
752.62	243.95
752.95	243.72
753.28	243.50
753.60	243.25
753.93	243.07
754.26	242.88
754.59	242.67
754.91	242.46
755.24	242.26
755.57	242.04
755.90	241.87
756.22	241.63
756.55	241.39
756.88	241.22
757.20	240.98
757.53	240.79
757.86	240.63
758.19	240.45
758.51	240.32
758.84	240.07
759.17	239.90
759.49	239.78
759.82	239.65
760.15	239.50
760.47	239.35
760.80	239.17
761.13	239.06
761.45	238.90
761.78	238.75
762.11	238.59
762.43	238.42
762.76	238.28
763.08	238.21
763.41	238.09
763.74	237.93
764.06	237.78
764.39	237.67
764.71	237.55
765.04	237.40
765.37	237.23
765.69	237.05
766.02	236.92
766.34	236.76
766.67	236.63
767.00	236.52
767.32	236.47
767.65	236.42
767.97	236.28
768.30	236.18
768.62	236.06
768.95	235.94
769.27	235.86
769.60	235.74
769.92	235.58
770.25	235.46
770.57	235.39
770.90	235.33
771.22	235.23
771.55	235.13
771.87	235.07
772.20	234.97
772.52	235.03
772.85	235.07
773.17	235.03
773.50	234.93
773.82	234.87
774.15	234.71
774.47	234.58
774.80	234.52
775.12	234.44
775.45	234.41
775.77	234.35
776.09	234.29
776.42	234.24
776.74	234.23
777.07	234.18
777.39	234.09
777.72	233.99
778.04	233.90
778.36	233.85
778.69	233.78
779.01	233.74
779.33	233.60
779.66	233.39
779.98	233.31
780.31	233.26
780.63	233.22
780.95	233.19
781.28	233.11
781.60	233.04
781.92	232.96
782.25	232.89
782.57	232.84
782.89	232.79
783.22	232.73
783.54	232.64
783.86	232.60
784.19	232.56
784.51	232.55
784.83	232.52
785.16	232.45
785.48	232.39
785.80	232.34
786.12	232.27
786.45	232.24
786.77	232.21
787.09	232.17
787.42	232.09
787.74	232.06
788.06	232.03
788.38	231.98
788.71	231.97
789.03	231.93
789.35	231.90
789.67	231.83
789.99	231.82
790.32	231.81
790.64	231.75
790.96	231.79
791.28	231.71
791.61	231.69
791.93	231.66
792.25	231.61
792.57	231.62
792.89	231.57
793.21	231.56
793.54	231.50
793.86	231.42
794.18	231.38
794.50	231.32
794.82	231.25
795.14	231.21
795.47	231.14
795.79	231.10
796.11	231.03
796.43	230.99
796.75	230.92
797.07	230.85
797.39	230.83
797.71	230.71
798.04	230.72
798.36	230.63
798.68	230.59
799.00	230.57
799.32	230.48
799.64	230.44
799.96	230.39
800.28	230.36
800.60	230.29
800.92	230.25
801.24	230.20
801.56	230.19
801.89	230.13
802.21	230.15
802.53	230.09
802.85	230.07
803.17	230.08
803.49	230.03
803.81	229.97
804.13	229.90
804.45	229.88
804.77	229.81
805.09	229.80
805.41	229.72
805.73	229.66
806.05	229.61
806.37	229.58
806.69	229.52
807.01	229.51
807.33	229.50
807.65	229.46
807.97	229.47
808.28	229.41
808.60	229.38
808.92	229.28
809.24	229.33
809.56	229.29
809.88	229.24
810.20	229.21
810.52	229.19
810.84	229.16
811.16	229.09
811.48	229.07
811.80	229.07
812.12	229.04
812.43	229.04
812.75	229.02
813.07	228.98
813.39	228.96
813.71	228.93
814.03	228.90
814.35	228.85
814.67	228.79
814.98	228.78
815.30	228.77
815.62	228.77
815.94	228.72
816.26	228.74
816.58	228.66
816.89	228.67
817.21	228.67
817.53	228.67
817.85	228.70
818.17	228.70
818.48	228.69
818.80	228.74
819.12	228.71
819.44	228.72
819.76	228.75
820.07	228.78
820.39	228.75
820.71	228.76
821.03	228.79
821.34	228.83
821.66	228.83
821.98	228.86
822.30	228.84
822.61	228.87
822.93	228.84
823.25	228.90
823.57	228.93
823.88	228.93
824.20	228.93
824.52	228.94
824.83	228.91
825.15	228.89
825.47	228.86
825.79	228.91
826.10	228.89
826.42	228.87
826.74	228.88
827.05	228.88
827.37	228.89
827.69	228.88
828.00	228.84
828.32	228.86
828.64	228.82
828.95	228.88
829.27	228.86
829.58	228.84
829.90	228.82
830.22	228.78
830.53	228.76
830.85	228.70
831.17	228.67
831.48	228.68
831.80	228.65
832.11	228.65
832.43	228.62
832.75	228.60
833.06	228.63
833.38	228.55
833.69	228.53
834.01	228.52
834.32	228.51
834.64	228.48
834.96	228.43
835.27	228.40
835.59	228.38
835.90	228.32
836.22	228.28
836.53	228.25
836.85	228.22
837.16	228.29
837.48	228.32
837.79	228.31
838.11	228.27
838.42	228.29
838.74	228.27
839.05	228.20
839.37	228.15
839.68	228.09
840.00	228.12
840.31	228.11
840.63	228.07
840.94	228.00
841.26	227.98
841.57	227.94
841.88	227.92
842.20	227.85
842.51	227.83
842.83	227.83
843.14	227.89
843.46	227.90
843.77	227.80
844.08	227.78
844.40	227.71
844.71	227.69
845.03	227.65
845.34	227.66
845.65	227.65
845.97	227.66
846.28	227.63
846.60	227.59
846.91	227.58
847.22	227.59
847.54	227.64
847.85	227.65
848.16	227.67
848.48	227.68
848.79	227.71
849.10	227.75
849.42	227.75
849.73	227.68
850.04	227.65
850.36	227.64
850.67	227.65
850.98	227.68
851.30	227.69
851.61	227.70
851.92	227.66
852.23	227.69
852.55	227.71
852.86	227.72
853.17	227.71
853.49	227.71
853.80	227.73
854.11	227.76
854.42	227.76
854.74	227.78
855.05	227.79
855.36	227.73
855.67	227.72
855.99	227.74
856.30	227.84
856.61	227.86
856.92	227.87
857.23	227.87
857.55	227.86
857.86	227.84
858.17	227.83
858.48	227.83
858.79	227.81
859.11	227.80
859.42	227.80
859.73	227.79
860.04	227.81
860.35	227.78
860.66	227.73
860.98	227.74
861.29	227.73
861.60	227.73
861.91	227.78
862.22	227.77
862.53	227.73
862.84	227.62
863.16	227.60
863.47	227.57
863.78	227.57
864.09	227.59
864.40	227.62
864.71	227.66
865.02	227.67
865.33	227.66
865.64	227.67
865.95	227.67
866.27	227.76
866.58	227.75
866.89	227.77
867.20	227.75
867.51	227.72
867.82	227.74
868.13	227.79
868.44	227.75
868.75	227.74
869.06	227.73
869.37	227.72
869.68	227.72
869.99	227.75
870.30	227.75
870.61	227.74
870.92	227.68
871.23	227.66
871.54	227.70
871.85	227.71
872.16	227.72
872.47	227.72
872.78	227.63
873.09	227.62
873.40	227.57
873.71	227.61
874.02	227.61
874.33	227.52
874.64	227.45
874.95	227.47
875.26	227.46
875.56	227.47
875.87	227.46
876.18	227.43
876.49	227.50
876.80	227.47
877.11	227.44
877.42	227.46
877.73	227.44
878.04	227.41
878.35	227.41
878.66	227.39
878.96	227.35
879.27	227.35
879.58	227.35
879.89	227.35
880.20	227.33
880.51	227.30
880.82	227.34
881.12	227.33
881.43	227.29
881.74	227.25
882.05	227.25
882.36	227.24
882.67	227.23
882.97	227.14
883.28	227.13
883.59	227.12
883.90	227.13
884.21	227.13
884.51	227.11
884.82	227.11
885.13	227.10
885.44	227.12
885.74	227.09
886.05	227.07
886.36	227.10
886.67	227.08
886.98	227.14
887.28	227.17
887.59	227.15
887.90	227.17
888.20	227.17
888.51	227.19
888.82	227.17
889.13	227.22
889.43	227.28
889.74	227.27
890.05	227.31
890.35	227.29
890.66	227.26
890.97	227.25
891.28	227.24
891.58	227.28
891.89	227.27
892.20	227.29
892.50	227.25
892.81	227.24
893.12	227.21
893.42	227.15
893.73	227.16
894.04	227.22
894.34	227.25
894.65	227.28
894.95	227.25
895.26	227.28
895.57	227.32
895.87	227.22
896.18	227.25
896.48	227.22
896.79	227.24
897.10	227.28
897.40	227.28
897.71	227.28
898.01	227.26
898.32	227.27
898.63	227.26
898.93	227.32
899.24	227.32
899.54	227.36
899.85	227.39
900.15	227.40
900.46	227.36
900.76	227.35
901.07	227.36
901.38	227.38
901.68	227.39
901.99	227.34
902.29	227.38
902.60	227.41
902.90	227.40
903.21	227.39
903.51	227.39
903.82	227.42
904.12	227.47
904.43	227.47
904.73	227.45
905.03	227.47
905.34	227.55
905.64	227.53
905.95	227.53
906.25	227.49
906.56	227.47
906.86	227.48
907.17	227.47
907.47	227.46
907.77	227.43
908.08	227.43
908.38	227.43
908.69	227.43
908.99	227.43
909.30	227.44
909.60	227.44
909.90	227.43
910.21	227.39
910.51	227.33
910.81	227.32
911.12	227.35
911.42	227.34
911.73	227.25
912.03	227.26
912.33	227.25
912.64	227.29
912.94	227.26
913.24	227.25
913.55	227.25
913.85	227.23
914.15	227.27
914.46	227.28
914.76	227.25
915.06	227.22
915.37	227.20
915.67	227.19
915.97	227.19
916.27	227.17
916.58	227.22
916.88	227.21
917.18	227.21
917.49	227.25
917.79	227.27
918.09	227.26
918.39	227.30
918.70	227.29
919.00	227.25
919.30	227.32
919.60	227.29
919.91	227.27
920.21	227.28
920.51	227.25
920.81	227.22
921.12	227.25
921.42	227.24
921.72	227.22
922.02	227.26
922.32	227.28
922.63	227.29
922.93	227.31
923.23	227.36
923.53	227.37
923.83	227.30
924.13	227.30
924.44	227.28
924.74	227.25
925.04	227.30
925.34	227.31
925.64	227.30
925.94	227.31
926.24	227.37
926.55	227.35
926.85	227.38
927.15	227.37
927.45	227.36
927.75	227.40
928.05	227.43
928.35	227.40
928.65	227.40
928.95	227.39
929.26	227.37
929.56	227.33
929.86	227.34
930.16	227.37
930.46	227.36
930.76	227.40
931.06	227.39
931.36	227.37
931.66	227.37
931.96	227.35
932.26	227.37
932.56	227.35
932.86	227.37
933.16	227.35
933.46	227.37
933.76	227.39
934.06	227.41
934.36	227.43
934.66	227.44
934.96	227.44
935.26	227.48
935.56	227.52
935.86	227.51
936.16	227.47
936.46	227.48
936.76	227.50
937.06	227.48
937.36	227.50
937.66	227.54
937.96	227.57
938.26	227.55
938.56	227.51
938.86	227.49
939.16	227.53
939.46	227.55
939.76	227.56
940.06	227.53
940.35	227.48
940.65	227.44
940.95	227.41
941.25	227.38
941.55	227.38
941.85	227.33
942.15	227.37
942.45	227.41
942.75	227.38
943.04	227.35
943.34	227.36
943.64	227.31
943.94	227.26
944.24	227.25
944.54	227.28
944.84	227.31
945.13	227.25
945.43	227.22
945.73	227.19
946.03	227.16
946.33	227.15
946.62	227.14
946.92	227.14
947.22	227.14
947.52	227.15
947.82	227.12
948.11	227.12
948.41	227.11
948.71	227.05
949.01	227.06
949.31	227.07
949.60	227.05
949.90	227.09
950.20	227.09
950.50	227.07
950.79	227.05
951.09	227.06
951.39	227.08
951.69	227.07
951.98	227.10
952.28	227.09
952.58	227.09
952.87	227.09
953.17	227.09
953.47	227.10
953.76	227.09
954.06	227.12
954.36	227.12
954.66	227.10
954.95	227.13
955.25	227.14
955.55	227.16
955.84	227.15
956.14	227.13
956.44	227.13
956.73	227.13
957.03	227.13
957.32	227.13
957.62	227.11
957.92	227.12
958.21	227.07
958.51	227.19
958.81	227.21
959.10	227.23
959.40	227.25
959.69	227.25
959.99	227.26
960.29	227.26
960.58	227.22
960.88	227.25
961.17	227.25
961.47	227.24
961.76	227.20
962.06	227.24
962.36	227.24
962.65	227.24
962.95	227.20
963.24	227.17
963.54	227.15
963.83	227.18
964.13	227.17
964.42	227.19
964.72	227.11
965.01	227.10
965.31	227.10
965.60	227.07
965.90	227.12
966.19	227.10
966.49	227.08
966.78	227.07
967.08	227.05
967.37	227.07
967.67	227.06
967.96	227.09
968.26	227.05
968.55	227.07
968.85	227.07
969.14	227.08
969.43	227.07
969.73	227.07
970.02	227.03
970.32	227.04
970.61	227.02
970.91	227.01
971.20	226.98
971.49	226.97
971.79	227.00
972.08	226.94
972.38	226.94
972.67	226.94
972.96	226.99
973.26	226.97
973.55	227.01
973.85	226.97
974.14	226.97
974.43	226.96
974.73	226.92
975.02	226.91
975.31	226.93
975.61	226.97
975.90	226.98
976.19	227.00
976.49	227.00
976.78	227.01
977.07	226.99
977.37	227.02
977.66	227.06
977.95	227.03
978.24	227.05
978.54	227.08
978.83	227.09
979.12	227.07
979.42	227.08
979.71	227.03
980.00	227.07
980.29	227.09
980.59	227.10
980.88	227.16
981.17	227.18
981.46	227.16
981.76	227.14
982.05	227.15
982.34	227.20
982.63	227.20
982.93	227.18
983.22	227.22
983.51	227.20
983.80	227.19
984.09	227.19
984.39	227.21
984.68	227.19
984.97	227.16
985.26	227.14
985.55	227.17
985.85	227.16
986.14	227.17
986.43	227.17
986.72	227.14
987.01	227.10
987.30	227.09
987.59	227.08
987.89	227.06
988.18	227.01
988.47	226.95
988.76	226.96
989.05	226.97
989.34	226.94
989.63	226.95
989.92	226.92
990.22	226.91
990.51	226.87
990.80	226.84
991.09	226.88
991.38	226.90
991.67	226.87
991.96	226.87
992.25	226.86
992.54	226.85
992.83	226.85
993.12	226.80
993.41	226.80
993.70	226.84
993.99	226.88
994.28	226.91
994.58	226.96
994.87	226.95
995.16	226.95
995.45	226.92
995.74	226.89
996.03	226.92
996.32	226.91
996.61	226.94
996.90	226.92
997.19	226.87
997.48	226.91
997.77	226.89
998.06	226.87
998.34	226.84
998.63	226.85
998.92	226.87
999.21	226.93
999.50	226.94
999.79	226.92
1000.08	226.91
1000.37	226.88
1000.66	226.83
1000.95	226.87
1001.24	226.87
1001.53	226.89
1001.82	226.88
1002.11	226.81
1002.40	226.82
1002.68	226.80
1002.97	226.88
1003.26	226.89
1003.55	226.83
1003.84	226.85
1004.13	226.91
1004.42	226.93
1004.71	226.92
1004.99	226.90
1005.28	226.89
1005.57	226.88
1005.86	226.86
1006.15	226.90
1006.44	226.93
1006.72	226.98
1007.01	226.98
1007.30	226.94
1007.59	226.97
1007.88	227.02
1008.17	227.09
1008.45	227.09
1008.74	227.10
1009.03	227.07
1009.32	227.08
1009.60	227.09
1009.89	227.08
1010.18	227.01
1010.47	226.99
1010.76	226.96
1011.04	226.96
1011.33	226.95
1011.62	226.97
1011.91	226.98
1012.19	226.96
1012.48	226.96
1012.77	226.95
1013.05	226.97
1013.34	226.97
1013.63	226.95
1013.92	226.93
1014.20	226.90
1014.49	226.89
1014.78	226.88
1015.06	226.85
1015.35	226.83
1015.64	226.88
1015.92	226.90
1016.21	226.90
1016.50	226.92
1016.78	226.95
1017.07	226.95
1017.36	226.92
1017.64	226.91
1017.93	226.91
1018.22	226.91
1018.50	226.89
1018.79	226.88
1019.08	226.84
1019.36	226.87
1019.65	226.87
1019.93	226.89
1020.22	226.90
1020.51	226.97
1020.79	226.98
1021.08	227.07
1021.36	226.63
1021.65	227.12
1021.94	226.71
1022.22	227.07
1022.51	227.00
1022.79	227.50
1023.08	226.83
1023.36	228.28
1023.65	226.79
>>>>>End Processed Spectral Data<<<<<
