SpectraSuite Data File
++++++++++++++++++++++++++++++++++++
Date: Fri Feb 01 16:28:16 EST 2013
User: group
Dark Spectrum Present: No
Reference Spectrum Present: No
Number of Sampled Component Spectra: 1
Spectrometers: USB2E7196
Integration Time (usec): 35000 (USB2E7196)
Spectra Averaged: 100 (USB2E7196)
Boxcar Smoothing: 10 (USB2E7196)
Correct for Electrical Dark: No (USB2E7196)
Strobe/Lamp Enabled: No (USB2E7196)
Correct for Detector Non-linearity: No (USB2E7196)
Correct for Stray Light: No (USB2E7196)
Number of Pixels in Processed Spectrum: 2048
>>>>>Begin Processed Spectral Data<<<<<
339.09	0.00
339.48	214.10
339.86	215.66
340.24	216.21
340.63	218.31
341.01	220.83
341.39	220.58
341.78	222.05
342.16	222.58
342.54	223.65
342.93	212.19
343.31	222.89
343.69	223.45
344.07	223.89
344.46	224.35
344.84	224.73
345.22	224.99
345.60	225.23
345.99	225.43
346.37	225.59
346.75	225.72
347.13	225.78
347.52	225.84
347.90	225.91
348.28	225.89
348.66	225.94
349.05	225.95
349.43	225.97
349.81	226.04
350.19	226.07
350.57	226.12
350.96	226.18
351.34	226.29
351.72	226.34
352.10	226.44
352.48	226.51
352.87	226.56
353.25	226.60
353.63	226.68
354.01	226.74
354.39	226.81
354.77	226.87
355.15	226.99
355.54	227.07
355.92	227.13
356.30	227.24
356.68	227.39
357.06	227.48
357.44	227.55
357.82	227.60
358.20	227.68
358.58	227.75
358.97	227.82
359.35	227.91
359.73	227.99
360.11	228.04
360.49	228.09
360.87	228.11
361.25	228.19
361.63	228.28
362.01	228.32
362.39	228.35
362.77	228.40
363.15	228.39
363.53	228.42
363.91	228.45
364.29	228.50
364.67	228.42
365.05	228.42
365.43	228.45
365.81	228.45
366.19	228.51
366.57	228.55
366.95	228.52
367.33	228.48
367.71	228.49
368.09	228.52
368.47	228.48
368.85	228.49
369.23	228.49
369.61	228.40
369.99	228.42
370.37	228.42
370.75	228.42
371.13	228.39
371.51	228.35
371.89	228.30
372.27	228.25
372.65	228.19
373.03	228.16
373.41	228.12
373.78	228.09
374.16	228.00
374.54	227.92
374.92	227.85
375.30	227.76
375.68	227.64
376.06	227.57
376.44	227.53
376.82	227.49
377.19	227.41
377.57	227.35
377.95	227.21
378.33	227.15
378.71	227.03
379.09	227.01
379.47	226.95
379.84	226.84
380.22	226.76
380.60	226.66
380.98	226.57
381.36	226.50
381.73	226.40
382.11	226.30
382.49	226.21
382.87	226.14
383.25	226.11
383.62	226.19
384.00	226.13
384.38	226.04
384.76	226.01
385.13	226.01
385.51	225.95
385.89	225.91
386.27	225.82
386.64	225.81
387.02	225.70
387.40	225.63
387.78	225.61
388.15	225.55
388.53	225.52
388.91	225.49
389.29	225.43
389.66	225.43
390.04	225.42
390.42	225.44
390.79	225.43
391.17	225.40
391.55	225.28
391.92	225.25
392.30	225.28
392.68	225.24
393.05	225.22
393.43	225.23
393.81	225.25
394.18	225.29
394.56	225.26
394.94	225.33
395.31	225.34
395.69	225.42
396.06	225.47
396.44	225.50
396.82	225.54
397.19	225.64
397.57	225.70
397.95	225.75
398.32	225.75
398.70	225.85
399.07	225.94
399.45	225.97
399.82	226.04
400.20	226.10
400.58	226.17
400.95	226.18
401.33	226.30
401.70	226.48
402.08	226.56
402.45	226.68
402.83	226.82
403.20	226.93
403.58	227.00
403.95	227.15
404.33	227.31
404.71	227.45
405.08	227.65
405.46	227.76
405.83	227.93
406.21	228.09
406.58	228.23
406.96	228.37
407.33	228.58
407.70	228.79
408.08	229.06
408.45	229.29
408.83	229.56
409.20	229.77
409.58	229.92
409.95	230.15
410.33	230.43
410.70	230.66
411.08	230.99
411.45	231.28
411.82	231.56
412.20	231.88
412.57	232.27
412.95	232.52
413.32	232.94
413.69	233.34
414.07	233.77
414.44	234.24
414.82	234.72
415.19	235.28
415.56	235.83
415.94	236.38
416.31	236.99
416.68	237.57
417.06	238.31
417.43	239.01
417.81	239.80
418.18	240.57
418.55	241.40
418.93	242.22
419.30	243.11
419.67	244.08
420.04	245.03
420.42	246.03
420.79	247.24
421.16	248.39
421.54	249.60
421.91	250.84
422.28	252.08
422.66	253.39
423.03	254.67
423.40	256.00
423.77	257.35
424.15	258.77
424.52	260.27
424.89	261.88
425.26	263.39
425.64	264.81
426.01	266.38
426.38	268.00
426.75	269.67
427.13	271.39
427.50	273.18
427.87	275.06
428.24	276.90
428.61	278.58
428.99	280.48
429.36	282.57
429.73	284.64
430.10	286.64
430.47	288.69
430.85	290.79
431.22	292.98
431.59	295.40
431.96	297.63
432.33	300.09
432.70	302.41
433.08	305.17
433.45	307.81
433.82	310.40
434.19	313.28
434.56	316.09
434.93	318.75
435.30	321.34
435.68	324.21
436.05	327.01
436.42	329.83
436.79	332.33
437.16	334.97
437.53	337.77
437.90	340.60
438.27	343.32
438.64	346.12
439.01	348.67
439.38	350.88
439.75	353.07
440.13	355.54
440.50	357.86
440.87	359.69
441.24	361.62
441.61	363.77
441.98	365.24
442.35	366.98
442.72	368.83
443.09	370.65
443.46	371.62
443.83	372.19
444.20	372.69
444.57	373.53
444.94	373.83
445.31	374.13
445.68	374.48
446.05	374.58
446.42	374.23
446.79	373.84
447.16	373.40
447.53	373.06
447.90	371.92
448.27	370.75
448.64	369.20
449.01	368.06
449.37	366.10
449.74	364.21
450.11	362.00
450.48	359.49
450.85	356.96
451.22	354.83
451.59	352.85
451.96	350.87
452.33	348.30
452.70	345.94
453.07	343.13
453.43	340.25
453.80	337.46
454.17	334.77
454.54	332.24
454.91	329.53
455.28	326.86
455.65	324.37
456.02	321.96
456.38	319.87
456.75	317.24
457.12	315.04
457.49	312.83
457.86	310.71
458.23	308.90
458.59	306.84
458.96	304.79
459.33	302.95
459.70	301.12
460.07	299.59
460.43	297.91
460.80	296.34
461.17	294.89
461.54	293.44
461.91	292.04
462.27	290.64
462.64	289.40
463.01	288.06
463.38	286.79
463.74	285.45
464.11	284.26
464.48	283.22
464.85	282.10
465.21	281.22
465.58	280.27
465.95	279.20
466.32	278.32
466.68	277.45
467.05	276.56
467.42	275.69
467.78	274.79
468.15	273.90
468.52	273.22
468.88	272.38
469.25	271.59
469.62	270.98
469.98	270.30
470.35	269.68
470.72	269.10
471.08	268.43
471.45	267.89
471.82	267.36
472.18	266.77
472.55	266.34
472.92	265.89
473.28	265.47
473.65	265.03
474.02	264.59
474.38	264.20
474.75	263.87
475.11	263.55
475.48	263.30
475.85	263.08
476.21	262.86
476.58	262.67
476.94	262.53
477.31	262.37
477.67	262.20
478.04	262.06
478.41	262.00
478.77	262.07
479.14	262.00
479.50	262.01
479.87	262.08
480.23	262.17
480.60	262.23
480.96	262.34
481.33	262.55
481.69	262.77
482.06	262.97
482.42	263.20
482.79	263.46
483.15	263.81
483.52	264.20
483.88	264.54
484.25	264.97
484.61	265.41
484.98	265.82
485.34	266.43
485.71	267.02
486.07	267.64
486.44	268.21
486.80	268.92
487.17	269.66
487.53	270.47
487.90	271.32
488.26	272.25
488.62	273.20
488.99	274.14
489.35	275.18
489.72	276.33
490.08	277.50
490.44	278.79
490.81	280.08
491.17	281.43
491.54	282.95
491.90	284.44
492.26	286.11
492.63	287.85
492.99	289.62
493.36	291.54
493.72	293.57
494.08	295.68
494.45	297.96
494.81	300.33
495.17	302.80
495.54	305.39
495.90	308.07
496.26	310.87
496.63	313.85
496.99	316.93
497.35	320.19
497.72	323.60
498.08	327.09
498.44	330.77
498.80	334.69
499.17	338.70
499.53	342.92
499.89	347.31
500.26	351.83
500.62	356.45
500.98	361.42
501.34	366.54
501.71	371.85
502.07	377.30
502.43	382.91
502.79	388.72
503.16	394.83
503.52	401.12
503.88	407.57
504.24	414.24
504.60	421.14
504.97	428.26
505.33	435.57
505.69	443.28
506.05	451.08
506.41	459.00
506.78	467.18
507.14	475.65
507.50	484.37
507.86	493.43
508.22	502.64
508.59	511.82
508.95	521.37
509.31	531.16
509.67	541.26
510.03	551.52
510.39	562.07
510.75	572.81
511.12	583.77
511.48	595.06
511.84	606.48
512.20	617.98
512.56	629.93
512.92	642.16
513.28	654.52
513.64	667.02
514.00	679.68
514.37	692.59
514.73	705.62
515.09	718.64
515.45	731.89
515.81	745.52
516.17	759.58
516.53	773.67
516.89	787.87
517.25	802.06
517.61	816.44
517.97	830.90
518.33	845.28
518.69	859.98
519.05	874.91
519.41	889.99
519.77	905.50
520.13	920.89
520.49	936.11
520.85	951.40
521.21	967.05
521.57	983.28
521.93	998.99
522.29	1015.23
522.65	1031.32
523.01	1047.43
523.37	1063.36
523.73	1079.34
524.09	1095.33
524.45	1111.52
524.81	1127.95
525.17	1144.70
525.53	1161.48
525.89	1178.37
526.25	1195.13
526.61	1211.38
526.97	1228.01
527.33	1244.51
527.68	1261.04
528.04	1277.54
528.40	1294.08
528.76	1311.09
529.12	1327.64
529.48	1344.41
529.84	1360.38
530.20	1377.00
530.56	1394.04
530.91	1411.40
531.27	1428.11
531.63	1444.54
531.99	1461.04
532.35	1477.03
532.71	1492.85
533.07	1508.91
533.42	1524.69
533.78	1540.71
534.14	1556.94
534.50	1572.38
534.86	1588.14
535.21	1603.16
535.57	1618.98
535.93	1634.45
536.29	1649.09
536.65	1663.92
537.00	1678.68
537.36	1693.83
537.72	1708.44
538.08	1722.76
538.44	1736.45
538.79	1750.31
539.15	1763.87
539.51	1777.54
539.87	1791.85
540.22	1805.47
540.58	1819.23
540.94	1832.45
541.29	1845.16
541.65	1857.74
542.01	1870.61
542.37	1882.72
542.72	1895.14
543.08	1906.89
543.44	1919.12
543.79	1930.26
544.15	1941.10
544.51	1952.63
544.87	1963.64
545.22	1974.25
545.58	1984.28
545.94	1993.84
546.29	2003.60
546.65	2013.41
547.01	2022.61
547.36	2031.22
547.72	2039.64
548.07	2047.45
548.43	2055.56
548.79	2063.52
549.14	2070.98
549.50	2078.36
549.86	2086.05
550.21	2093.39
550.57	2100.40
550.92	2106.85
551.28	2113.72
551.64	2120.84
551.99	2127.28
552.35	2133.30
552.70	2139.32
553.06	2145.31
553.41	2151.79
553.77	2157.76
554.13	2163.70
554.48	2169.77
554.84	2175.14
555.19	2180.44
555.55	2185.60
555.90	2190.00
556.26	2194.85
556.61	2199.58
556.97	2203.88
557.32	2207.99
557.68	2212.02
558.03	2216.39
558.39	2220.15
558.74	2224.98
559.10	2228.81
559.45	2232.52
559.81	2236.85
560.16	2240.85
560.52	2244.00
560.87	2247.33
561.23	2250.05
561.58	2253.06
561.94	2255.63
562.29	2257.97
562.64	2260.70
563.00	2263.26
563.35	2266.83
563.71	2269.98
564.06	2273.29
564.42	2276.04
564.77	2278.63
565.12	2280.92
565.48	2282.92
565.83	2284.79
566.19	2286.01
566.54	2286.89
566.89	2287.96
567.25	2288.75
567.60	2289.95
567.96	2291.68
568.31	2292.53
568.66	2293.72
569.02	2294.22
569.37	2294.46
569.72	2295.42
570.08	2295.56
570.43	2295.68
570.78	2295.08
571.14	2293.60
571.49	2292.27
571.84	2292.14
572.20	2291.09
572.55	2290.08
572.90	2288.43
573.26	2287.18
573.61	2285.65
573.96	2284.14
574.31	2281.37
574.67	2278.29
575.02	2274.77
575.37	2271.61
575.72	2267.89
576.08	2264.40
576.43	2261.35
576.78	2257.99
577.13	2254.91
577.49	2251.78
577.84	2248.27
578.19	2244.75
578.54	2241.16
578.90	2237.04
579.25	2231.53
579.60	2226.64
579.95	2221.80
580.30	2216.85
580.66	2211.64
581.01	2206.78
581.36	2201.91
581.71	2197.79
582.06	2193.45
582.42	2189.11
582.77	2184.06
583.12	2179.67
583.47	2175.24
583.82	2170.35
584.17	2165.05
584.53	2159.54
584.88	2154.07
585.23	2148.51
585.58	2143.00
585.93	2137.71
586.28	2132.92
586.63	2128.04
586.98	2122.95
587.34	2118.24
587.69	2113.55
588.04	2108.41
588.39	2102.80
588.74	2096.35
589.09	2090.16
589.44	2083.43
589.79	2077.41
590.14	2071.66
590.49	2065.03
590.84	2058.66
591.19	2052.61
591.54	2046.14
591.89	2038.86
592.25	2032.10
592.60	2024.96
592.95	2017.41
593.30	2010.06
593.65	2002.68
594.00	1995.61
594.35	1988.55
594.70	1980.51
595.05	1973.23
595.40	1966.13
595.75	1958.57
596.10	1952.49
596.45	1945.76
596.80	1939.60
597.15	1932.99
597.50	1926.09
597.85	1919.70
598.19	1913.08
598.54	1905.92
598.89	1899.28
599.24	1893.54
599.59	1886.84
599.94	1880.68
600.29	1874.56
600.64	1868.01
600.99	1860.52
601.34	1853.78
601.69	1846.72
602.04	1840.01
602.39	1832.80
602.74	1825.87
603.08	1819.21
603.43	1812.30
603.78	1805.07
604.13	1797.98
604.48	1790.63
604.83	1783.51
605.18	1776.55
605.53	1768.47
605.87	1760.65
606.22	1753.58
606.57	1745.67
606.92	1738.42
607.27	1731.26
607.62	1724.30
607.96	1717.14
608.31	1710.54
608.66	1703.00
609.01	1695.56
609.36	1687.92
609.70	1679.87
610.05	1671.90
610.40	1664.11
610.75	1655.95
611.10	1648.27
611.44	1639.88
611.79	1632.04
612.14	1623.41
612.49	1614.25
612.83	1606.03
613.18	1597.78
613.53	1589.67
613.88	1580.91
614.22	1572.61
614.57	1563.89
614.92	1555.83
615.27	1548.20
615.61	1539.79
615.96	1531.65
616.31	1523.91
616.65	1516.58
617.00	1508.98
617.35	1501.34
617.70	1493.13
618.04	1484.59
618.39	1476.39
618.74	1468.75
619.08	1460.43
619.43	1452.93
619.78	1446.07
620.12	1438.69
620.47	1431.17
620.82	1423.09
621.16	1415.79
621.51	1408.17
621.85	1400.61
622.20	1392.00
622.55	1383.55
622.89	1375.70
623.24	1368.11
623.59	1360.77
623.93	1353.20
624.28	1345.95
624.62	1338.45
624.97	1331.26
625.32	1324.55
625.66	1317.45
626.01	1310.26
626.35	1302.77
626.70	1295.05
627.04	1287.49
627.39	1279.83
627.73	1272.52
628.08	1265.43
628.43	1258.10
628.77	1250.71
629.12	1243.19
629.46	1236.11
629.81	1228.67
630.15	1221.49
630.50	1214.01
630.84	1205.76
631.19	1197.84
631.53	1190.37
631.88	1182.76
632.22	1175.11
632.57	1167.73
632.91	1160.27
633.26	1152.81
633.60	1145.44
633.95	1138.40
634.29	1131.27
634.64	1124.59
634.98	1117.21
635.32	1110.09
635.67	1103.55
636.01	1096.96
636.36	1090.16
636.70	1083.61
637.05	1077.16
637.39	1070.70
637.73	1064.23
638.08	1058.43
638.42	1052.41
638.77	1046.01
639.11	1039.36
639.45	1032.95
639.80	1026.31
640.14	1019.89
640.49	1013.44
640.83	1007.14
641.17	1000.82
641.52	994.37
641.86	987.93
642.20	982.17
642.55	975.93
642.89	969.46
643.23	962.85
643.58	957.14
643.92	950.91
644.26	944.82
644.61	938.72
644.95	932.69
645.29	926.10
645.64	919.40
645.98	913.01
646.32	907.21
646.66	901.17
647.01	895.39
647.35	889.59
647.69	883.61
648.04	878.08
648.38	872.24
648.72	866.27
649.06	860.16
649.41	854.10
649.75	848.07
650.09	842.15
650.43	836.43
650.78	830.19
651.12	824.24
651.46	818.49
651.80	812.78
652.14	807.34
652.49	801.88
652.83	796.65
653.17	790.93
653.51	785.15
653.85	779.84
654.20	774.17
654.54	768.19
654.88	762.53
655.22	756.64
655.56	751.01
655.90	745.60
656.25	740.36
656.59	734.97
656.93	729.88
657.27	724.63
657.61	719.21
657.95	714.12
658.29	709.08
658.64	703.79
658.98	698.47
659.32	693.06
659.66	687.92
660.00	682.67
660.34	677.75
660.68	672.88
661.02	667.82
661.36	663.10
661.70	658.57
662.05	654.25
662.39	649.92
662.73	645.44
663.07	641.07
663.41	636.58
663.75	632.19
664.09	627.60
664.43	623.28
664.77	619.16
665.11	614.89
665.45	610.70
665.79	606.60
666.13	602.50
666.47	598.44
666.81	594.24
667.15	590.08
667.49	586.18
667.83	582.37
668.17	578.41
668.51	574.36
668.85	570.39
669.19	566.48
669.53	562.59
669.87	558.68
670.21	554.93
670.55	551.30
670.89	547.86
671.23	544.45
671.57	540.86
671.91	537.28
672.25	533.78
672.58	530.26
672.92	526.81
673.26	523.60
673.60	520.40
673.94	517.30
674.28	514.41
674.62	511.45
674.96	508.37
675.30	505.42
675.64	502.45
675.97	499.63
676.31	496.80
676.65	493.89
676.99	491.24
677.33	488.39
677.67	485.61
678.01	482.55
678.34	479.58
678.68	476.72
679.02	473.90
679.36	471.11
679.70	468.41
680.04	465.75
680.37	462.91
680.71	460.10
681.05	457.48
681.39	454.75
681.73	452.03
682.06	449.46
682.40	446.88
682.74	444.38
683.08	441.82
683.42	439.21
683.75	436.71
684.09	434.15
684.43	431.69
684.77	429.19
685.10	426.81
685.44	424.48
685.78	422.20
686.12	419.98
686.45	417.68
686.79	415.38
687.13	413.16
687.46	410.95
687.80	408.85
688.14	406.62
688.48	404.60
688.81	402.41
689.15	400.24
689.49	398.14
689.82	396.06
690.16	394.01
690.50	392.05
690.83	390.12
691.17	388.10
691.51	386.17
691.84	384.37
692.18	382.45
692.52	380.47
692.85	378.53
693.19	376.63
693.52	374.83
693.86	373.06
694.20	371.27
694.53	369.47
694.87	367.60
695.21	365.83
695.54	363.98
695.88	362.23
696.21	360.56
696.55	358.89
696.88	357.18
697.22	355.50
697.56	353.84
697.89	352.18
698.23	350.59
698.56	349.00
698.90	347.40
699.23	345.78
699.57	344.24
699.90	342.73
700.24	341.20
700.58	339.70
700.91	338.20
701.25	336.75
701.58	335.42
701.92	334.02
702.25	332.61
702.59	331.23
702.92	329.92
703.26	328.58
703.59	327.34
703.93	326.16
704.26	324.92
704.60	323.68
704.93	322.37
705.26	321.12
705.60	319.96
705.93	318.78
706.27	317.75
706.60	316.65
706.94	315.57
707.27	314.39
707.61	313.32
707.94	312.25
708.27	311.17
708.61	310.10
708.94	309.14
709.28	308.16
709.61	307.21
709.94	306.25
710.28	305.23
710.61	304.22
710.95	303.14
711.28	302.21
711.61	301.25
711.95	300.38
712.28	299.41
712.61	298.37
712.95	297.46
713.28	296.56
713.61	295.69
713.95	294.79
714.28	293.97
714.61	293.09
714.95	292.23
715.28	291.35
715.61	290.42
715.95	289.52
716.28	288.65
716.61	287.80
716.95	286.99
717.28	286.25
717.61	285.49
717.94	284.74
718.28	283.94
718.61	283.18
718.94	282.45
719.27	281.83
719.61	281.23
719.94	280.54
720.27	279.81
720.60	279.11
720.94	278.45
721.27	277.84
721.60	277.28
721.93	276.69
722.27	276.12
722.60	275.56
722.93	275.00
723.26	274.50
723.59	273.95
723.93	273.41
724.26	272.81
724.59	272.22
724.92	271.68
725.25	271.15
725.59	270.65
725.92	270.17
726.25	269.64
726.58	269.15
726.91	268.68
727.24	268.22
727.57	267.76
727.91	267.26
728.24	266.79
728.57	266.24
728.90	265.79
729.23	265.31
729.56	264.91
729.89	264.46
730.22	263.95
730.55	263.45
730.89	263.01
731.22	262.57
731.55	262.14
731.88	261.72
732.21	261.30
732.54	260.88
732.87	260.44
733.20	260.00
733.53	259.61
733.86	259.23
734.19	258.81
734.52	258.42
734.85	258.11
735.18	257.72
735.51	257.39
735.84	257.00
736.17	256.67
736.50	256.26
736.83	256.02
737.16	255.70
737.49	255.42
737.82	255.07
738.15	254.74
738.48	254.43
738.81	254.14
739.14	253.80
739.47	253.50
739.80	253.20
740.13	252.89
740.46	252.54
740.79	252.18
741.12	251.90
741.45	251.58
741.78	251.24
742.11	250.94
742.44	250.60
742.77	250.31
743.10	250.01
743.43	249.69
743.75	249.29
744.08	249.12
744.41	248.82
744.74	248.54
745.07	248.26
745.40	248.05
745.73	247.81
746.06	247.57
746.39	247.29
746.71	247.03
747.04	246.79
747.37	246.56
747.70	246.33
748.03	246.08
748.36	245.87
748.68	245.62
749.01	245.33
749.34	245.13
749.67	244.90
750.00	244.71
750.33	244.64
750.65	244.46
750.98	244.12
751.31	243.89
751.64	243.67
751.97	243.54
752.29	243.26
752.62	242.97
752.95	242.76
753.28	242.57
753.60	242.32
753.93	242.14
754.26	241.90
754.59	241.65
754.91	241.46
755.24	241.27
755.57	241.09
755.90	240.95
756.22	240.77
756.55	240.56
756.88	240.32
757.20	240.04
757.53	239.82
757.86	239.64
758.19	239.49
758.51	239.33
758.84	239.08
759.17	238.91
759.49	238.78
759.82	238.65
760.15	238.46
760.47	238.33
760.80	238.18
761.13	238.05
761.45	237.90
761.78	237.74
762.11	237.57
762.43	237.41
762.76	237.24
763.08	237.09
763.41	236.96
763.74	236.85
764.06	236.71
764.39	236.56
764.71	236.41
765.04	236.27
765.37	236.16
765.69	236.01
766.02	235.86
766.34	235.73
766.67	235.56
767.00	235.47
767.32	235.40
767.65	235.32
767.97	235.19
768.30	235.07
768.62	234.94
768.95	234.85
769.27	234.73
769.60	234.64
769.92	234.48
770.25	234.36
770.57	234.25
770.90	234.13
771.22	234.04
771.55	233.95
771.87	233.85
772.20	233.74
772.52	233.73
772.85	233.76
773.17	233.64
773.50	233.56
773.82	233.45
774.15	233.32
774.47	233.17
774.80	233.13
775.12	233.06
775.45	232.98
775.77	232.86
776.09	232.80
776.42	232.74
776.74	232.74
777.07	232.67
777.39	232.61
777.72	232.56
778.04	232.46
778.36	232.40
778.69	232.36
779.01	232.30
779.33	232.17
779.66	232.04
779.98	232.02
780.31	231.95
780.63	231.95
780.95	231.87
781.28	231.83
781.60	231.71
781.92	231.68
782.25	231.63
782.57	231.58
782.89	231.51
783.22	231.45
783.54	231.38
783.86	231.34
784.19	231.29
784.51	231.26
784.83	231.24
785.16	231.18
785.48	231.11
785.80	231.08
786.12	231.03
786.45	230.96
786.77	230.91
787.09	230.87
787.42	230.80
787.74	230.74
788.06	230.72
788.38	230.71
788.71	230.64
789.03	230.62
789.35	230.60
789.67	230.56
789.99	230.52
790.32	230.47
790.64	230.46
790.96	230.46
791.28	230.39
791.61	230.35
791.93	230.35
792.25	230.32
792.57	230.30
792.89	230.28
793.21	230.27
793.54	230.20
793.86	230.14
794.18	230.09
794.50	230.08
794.82	230.02
795.14	229.98
795.47	229.98
795.79	229.93
796.11	229.90
796.43	229.86
796.75	229.84
797.07	229.82
797.39	229.79
797.71	229.66
798.04	229.62
798.36	229.58
798.68	229.56
799.00	229.52
799.32	229.45
799.64	229.43
799.96	229.40
800.28	229.40
800.60	229.37
800.92	229.37
801.24	229.34
801.56	229.30
801.89	229.24
802.21	229.18
802.53	229.13
802.85	229.12
803.17	229.12
803.49	229.07
803.81	229.02
804.13	228.95
804.45	228.93
804.77	228.91
805.09	228.90
805.41	228.82
805.73	228.74
806.05	228.73
806.37	228.70
806.69	228.62
807.01	228.58
807.33	228.57
807.65	228.46
807.97	228.45
808.28	228.41
808.60	228.40
808.92	228.40
809.24	228.42
809.56	228.34
809.88	228.29
810.20	228.29
810.52	228.25
810.84	228.24
811.16	228.21
811.48	228.17
811.80	228.19
812.12	228.15
812.43	228.14
812.75	228.11
813.07	228.04
813.39	228.03
813.71	228.00
814.03	227.98
814.35	228.01
814.67	227.96
814.98	227.92
815.30	227.92
815.62	227.87
815.94	227.81
816.26	227.87
816.58	227.83
816.89	227.79
817.21	227.81
817.53	227.78
817.85	227.78
818.17	227.78
818.48	227.71
818.80	227.72
819.12	227.71
819.44	227.68
819.76	227.67
820.07	227.67
820.39	227.65
820.71	227.62
821.03	227.59
821.34	227.59
821.66	227.59
821.98	227.59
822.30	227.56
822.61	227.60
822.93	227.53
823.25	227.53
823.57	227.49
823.88	227.47
824.20	227.45
824.52	227.46
824.83	227.46
825.15	227.43
825.47	227.41
825.79	227.40
826.10	227.40
826.42	227.38
826.74	227.41
827.05	227.40
827.37	227.43
827.69	227.45
828.00	227.46
828.32	227.50
828.64	227.46
828.95	227.53
829.27	227.48
829.58	227.48
829.90	227.48
830.22	227.47
830.53	227.41
830.85	227.43
831.17	227.39
831.48	227.38
831.80	227.37
832.11	227.36
832.43	227.33
832.75	227.30
833.06	227.38
833.38	227.30
833.69	227.27
834.01	227.23
834.32	227.18
834.64	227.14
834.96	227.11
835.27	227.09
835.59	227.03
835.90	226.96
836.22	226.93
836.53	226.92
836.85	226.89
837.16	227.06
837.48	227.03
837.79	227.02
838.11	226.99
838.42	227.00
838.74	227.02
839.05	227.03
839.37	226.98
839.68	226.89
840.00	226.91
840.31	226.93
840.63	226.91
840.94	226.86
841.26	226.86
841.57	226.83
841.88	226.84
842.20	226.81
842.51	226.83
842.83	226.81
843.14	226.86
843.46	226.89
843.77	226.78
844.08	226.79
844.40	226.75
844.71	226.76
845.03	226.72
845.34	226.69
845.65	226.69
845.97	226.69
846.28	226.70
846.60	226.69
846.91	226.68
847.22	226.68
847.54	226.73
847.85	226.68
848.16	226.65
848.48	226.62
848.79	226.68
849.10	226.70
849.42	226.72
849.73	226.65
850.04	226.64
850.36	226.60
850.67	226.60
850.98	226.63
851.30	226.61
851.61	226.63
851.92	226.63
852.23	226.65
852.55	226.65
852.86	226.63
853.17	226.61
853.49	226.61
853.80	226.58
854.11	226.61
854.42	226.65
854.74	226.65
855.05	226.61
855.36	226.54
855.67	226.53
855.99	226.51
856.30	226.57
856.61	226.55
856.92	226.55
857.23	226.54
857.55	226.54
857.86	226.56
858.17	226.55
858.48	226.51
858.79	226.46
859.11	226.48
859.42	226.51
859.73	226.47
860.04	226.47
860.35	226.49
860.66	226.42
860.98	226.44
861.29	226.48
861.60	226.50
861.91	226.53
862.22	226.52
862.53	226.50
862.84	226.43
863.16	226.42
863.47	226.39
863.78	226.40
864.09	226.41
864.40	226.37
864.71	226.37
865.02	226.41
865.33	226.43
865.64	226.41
865.95	226.37
866.27	226.47
866.58	226.46
866.89	226.46
867.20	226.45
867.51	226.41
867.82	226.38
868.13	226.43
868.44	226.42
868.75	226.45
869.06	226.46
869.37	226.42
869.68	226.41
869.99	226.44
870.30	226.44
870.61	226.42
870.92	226.41
871.23	226.43
871.54	226.40
871.85	226.39
872.16	226.45
872.47	226.41
872.78	226.36
873.09	226.40
873.40	226.40
873.71	226.40
874.02	226.39
874.33	226.38
874.64	226.33
874.95	226.33
875.26	226.31
875.56	226.32
875.87	226.36
876.18	226.36
876.49	226.47
876.80	226.44
877.11	226.41
877.42	226.43
877.73	226.40
878.04	226.38
878.35	226.38
878.66	226.37
878.96	226.38
879.27	226.37
879.58	226.33
879.89	226.30
880.20	226.34
880.51	226.33
880.82	226.34
881.12	226.34
881.43	226.30
881.74	226.28
882.05	226.26
882.36	226.24
882.67	226.25
882.97	226.10
883.28	226.07
883.59	226.07
883.90	226.08
884.21	226.11
884.51	226.11
884.82	226.09
885.13	226.07
885.44	226.05
885.74	226.02
886.05	226.00
886.36	225.97
886.67	225.93
886.98	225.96
887.28	225.94
887.59	225.97
887.90	226.00
888.20	226.00
888.51	226.01
888.82	226.02
889.13	226.02
889.43	226.09
889.74	226.10
890.05	226.12
890.35	226.11
890.66	226.08
890.97	226.06
891.28	226.05
891.58	226.04
891.89	226.07
892.20	226.10
892.50	226.12
892.81	226.14
893.12	226.12
893.42	226.07
893.73	226.10
894.04	226.11
894.34	226.07
894.65	226.04
894.95	226.05
895.26	226.03
895.57	226.07
895.87	226.00
896.18	226.02
896.48	225.98
896.79	225.98
897.10	226.01
897.40	226.01
897.71	226.02
898.01	225.99
898.32	225.98
898.63	225.95
898.93	225.97
899.24	225.95
899.54	226.00
899.85	225.99
900.15	225.99
900.46	225.96
900.76	225.98
901.07	225.98
901.38	225.98
901.68	225.97
901.99	225.91
902.29	225.93
902.60	225.91
902.90	225.91
903.21	225.90
903.51	225.89
903.82	225.96
904.12	225.98
904.43	226.01
904.73	226.03
905.03	226.05
905.34	226.12
905.64	226.15
905.95	226.11
906.25	226.11
906.56	226.11
906.86	226.11
907.17	226.12
907.47	226.14
907.77	226.14
908.08	226.11
908.38	226.13
908.69	226.12
908.99	226.15
909.30	226.14
909.60	226.16
909.90	226.16
910.21	226.08
910.51	226.06
910.81	226.06
911.12	226.05
911.42	226.02
911.73	225.91
912.03	225.91
912.33	225.95
912.64	225.94
912.94	225.91
913.24	225.90
913.55	225.90
913.85	225.89
914.15	225.88
914.46	225.91
914.76	225.90
915.06	225.89
915.37	225.85
915.67	225.86
915.97	225.84
916.27	225.80
916.58	225.81
916.88	225.79
917.18	225.76
917.49	225.82
917.79	225.85
918.09	225.86
918.39	225.86
918.70	225.86
919.00	225.86
919.30	225.91
919.60	225.88
919.91	225.86
920.21	225.88
920.51	225.86
920.81	225.85
921.12	225.86
921.42	225.86
921.72	225.88
922.02	225.90
922.32	225.91
922.63	225.92
922.93	226.00
923.23	226.01
923.53	226.02
923.83	225.99
924.13	226.00
924.44	226.02
924.74	226.03
925.04	226.03
925.34	226.08
925.64	226.06
925.94	226.11
926.24	226.17
926.55	226.16
926.85	226.20
927.15	226.21
927.45	226.24
927.75	226.23
928.05	226.23
928.35	226.23
928.65	226.26
928.95	226.28
929.26	226.21
929.56	226.23
929.86	226.26
930.16	226.28
930.46	226.25
930.76	226.26
931.06	226.22
931.36	226.21
931.66	226.19
931.96	226.19
932.26	226.19
932.56	226.16
932.86	226.18
933.16	226.17
933.46	226.15
933.76	226.14
934.06	226.16
934.36	226.20
934.66	226.19
934.96	226.16
935.26	226.19
935.56	226.23
935.86	226.22
936.16	226.20
936.46	226.13
936.76	226.13
937.06	226.11
937.36	226.12
937.66	226.13
937.96	226.13
938.26	226.11
938.56	226.08
938.86	226.09
939.16	226.11
939.46	226.11
939.76	226.15
940.06	226.15
940.35	226.12
940.65	226.07
940.95	226.07
941.25	226.04
941.55	226.00
941.85	226.02
942.15	226.02
942.45	226.04
942.75	226.09
943.04	226.05
943.34	226.09
943.64	226.05
943.94	226.05
944.24	226.04
944.54	226.03
944.84	226.03
945.13	225.99
945.43	225.99
945.73	225.99
946.03	225.97
946.33	225.97
946.62	225.97
946.92	226.00
947.22	226.03
947.52	226.07
947.82	226.11
948.11	226.08
948.41	226.08
948.71	226.05
949.01	226.08
949.31	226.13
949.60	226.09
949.90	226.13
950.20	226.12
950.50	226.12
950.79	226.12
951.09	226.14
951.39	226.13
951.69	226.10
951.98	226.11
952.28	226.11
952.58	226.08
952.87	226.09
953.17	226.08
953.47	226.05
953.76	226.03
954.06	225.99
954.36	225.96
954.66	225.97
954.95	226.01
955.25	225.97
955.55	225.94
955.84	225.93
956.14	225.93
956.44	225.92
956.73	225.90
957.03	225.92
957.32	225.91
957.62	225.92
957.92	225.92
958.21	225.91
958.51	226.02
958.81	226.03
959.10	226.02
959.40	226.03
959.69	226.07
959.99	226.07
960.29	226.07
960.58	226.05
960.88	226.06
961.17	226.04
961.47	226.06
961.76	226.05
962.06	226.07
962.36	226.05
962.65	226.03
962.95	226.05
963.24	226.03
963.54	226.06
963.83	226.05
964.13	226.06
964.42	226.05
964.72	225.94
965.01	225.94
965.31	225.94
965.60	225.91
965.90	225.94
966.19	225.90
966.49	225.90
966.78	225.94
967.08	225.92
967.37	225.92
967.67	225.91
967.96	225.92
968.26	225.92
968.55	225.96
968.85	225.98
969.14	225.98
969.43	225.98
969.73	225.93
970.02	225.95
970.32	225.96
970.61	225.96
970.91	225.98
971.20	225.99
971.49	225.97
971.79	226.03
972.08	225.95
972.38	225.95
972.67	225.97
972.96	225.97
973.26	225.94
973.55	225.96
973.85	225.95
974.14	225.94
974.43	225.94
974.73	225.92
975.02	225.93
975.31	225.95
975.61	225.98
975.90	226.00
976.19	225.98
976.49	225.99
976.78	226.01
977.07	225.97
977.37	225.95
977.66	226.00
977.95	225.93
978.24	225.96
978.54	226.01
978.83	226.00
979.12	226.01
979.42	226.05
979.71	226.05
980.00	226.08
980.29	226.09
980.59	226.08
980.88	226.11
981.17	226.07
981.46	226.05
981.76	226.00
982.05	226.01
982.34	226.02
982.63	226.03
982.93	226.01
983.22	226.05
983.51	226.05
983.80	226.06
984.09	226.10
984.39	226.09
984.68	226.11
984.97	226.09
985.26	226.05
985.55	226.06
985.85	225.99
986.14	226.01
986.43	226.03
986.72	226.03
987.01	226.02
987.30	226.00
987.59	225.99
987.89	226.02
988.18	226.02
988.47	226.00
988.76	225.98
989.05	225.98
989.34	225.96
989.63	225.98
989.92	225.95
990.22	225.94
990.51	225.90
990.80	225.87
991.09	225.88
991.38	225.88
991.67	225.87
991.96	225.88
992.25	225.85
992.54	225.79
992.83	225.79
993.12	225.74
993.41	225.77
993.70	225.83
993.99	225.83
994.28	225.83
994.58	225.86
994.87	225.80
995.16	225.78
995.45	225.75
995.74	225.71
996.03	225.68
996.32	225.68
996.61	225.74
996.90	225.72
997.19	225.73
997.48	225.74
997.77	225.70
998.06	225.71
998.34	225.69
998.63	225.71
998.92	225.71
999.21	225.72
999.50	225.70
999.79	225.62
1000.08	225.60
1000.37	225.58
1000.66	225.56
1000.95	225.61
1001.24	225.64
1001.53	225.66
1001.82	225.70
1002.11	225.71
1002.40	225.72
1002.68	225.71
1002.97	225.77
1003.26	225.74
1003.55	225.71
1003.84	225.71
1004.13	225.71
1004.42	225.71
1004.71	225.69
1004.99	225.68
1005.28	225.70
1005.57	225.72
1005.86	225.73
1006.15	225.76
1006.44	225.73
1006.72	225.73
1007.01	225.70
1007.30	225.68
1007.59	225.69
1007.88	225.69
1008.17	225.69
1008.45	225.65
1008.74	225.63
1009.03	225.60
1009.32	225.59
1009.60	225.59
1009.89	225.57
1010.18	225.60
1010.47	225.61
1010.76	225.65
1011.04	225.68
1011.33	225.73
1011.62	225.74
1011.91	225.75
1012.19	225.74
1012.48	225.77
1012.77	225.78
1013.05	225.84
1013.34	225.86
1013.63	225.85
1013.92	225.87
1014.20	225.85
1014.49	225.91
1014.78	225.91
1015.06	225.89
1015.35	225.93
1015.64	225.98
1015.92	226.03
1016.21	226.01
1016.50	226.02
1016.78	226.04
1017.07	226.01
1017.36	225.95
1017.64	225.94
1017.93	225.93
1018.22	225.95
1018.50	225.97
1018.79	225.98
1019.08	225.96
1019.36	225.97
1019.65	225.98
1019.93	225.96
1020.22	225.98
1020.51	226.00
1020.79	226.01
1021.08	226.29
1021.36	226.24
1021.65	225.92
1021.94	226.23
1022.22	226.17
1022.51	226.01
1022.79	225.97
1023.08	225.91
1023.36	226.87
1023.65	225.79
>>>>>End Processed Spectral Data<<<<<
