SpectraSuite Data File
++++++++++++++++++++++++++++++++++++
Date: Fri Feb 01 15:07:45 EST 2013
User: group
Dark Spectrum Present: No
Reference Spectrum Present: No
Number of Sampled Component Spectra: 1
Spectrometers: USB2E7196
Integration Time (usec): 35000 (USB2E7196)
Spectra Averaged: 100 (USB2E7196)
Boxcar Smoothing: 10 (USB2E7196)
Correct for Electrical Dark: No (USB2E7196)
Strobe/Lamp Enabled: No (USB2E7196)
Correct for Detector Non-linearity: No (USB2E7196)
Correct for Stray Light: No (USB2E7196)
Number of Pixels in Processed Spectrum: 2048
>>>>>Begin Processed Spectral Data<<<<<
339.09	0.00
339.48	215.30
339.86	216.30
340.24	218.45
340.63	219.43
341.01	222.44
341.39	222.72
341.78	223.02
342.16	224.78
342.54	225.18
342.93	213.52
343.31	224.30
343.69	224.83
344.07	225.30
344.46	225.70
344.84	226.07
345.22	226.28
345.60	226.51
345.99	226.70
346.37	226.80
346.75	226.93
347.13	227.01
347.52	227.05
347.90	227.14
348.28	227.17
348.66	227.23
349.05	227.24
349.43	227.24
349.81	227.28
350.19	227.35
350.57	227.39
350.96	227.44
351.34	227.53
351.72	227.62
352.10	227.73
352.48	227.83
352.87	227.91
353.25	227.99
353.63	228.04
354.01	228.10
354.39	228.19
354.77	228.24
355.15	228.36
355.54	228.42
355.92	228.43
356.30	228.51
356.68	228.63
357.06	228.70
357.44	228.78
357.82	228.83
358.20	228.90
358.58	228.96
358.97	229.04
359.35	229.08
359.73	229.14
360.11	229.18
360.49	229.22
360.87	229.26
361.25	229.31
361.63	229.40
362.01	229.48
362.39	229.48
362.77	229.50
363.15	229.51
363.53	229.55
363.91	229.57
364.29	229.58
364.67	229.54
365.05	229.56
365.43	229.58
365.81	229.65
366.19	229.70
366.57	229.73
366.95	229.70
367.33	229.70
367.71	229.71
368.09	229.73
368.47	229.74
368.85	229.70
369.23	229.69
369.61	229.61
369.99	229.57
370.37	229.61
370.75	229.65
371.13	229.60
371.51	229.57
371.89	229.53
372.27	229.49
372.65	229.43
373.03	229.37
373.41	229.28
373.78	229.18
374.16	229.08
374.54	228.99
374.92	228.93
375.30	228.83
375.68	228.72
376.06	228.63
376.44	228.51
376.82	228.44
377.19	228.38
377.57	228.32
377.95	228.25
378.33	228.16
378.71	228.00
379.09	227.93
379.47	227.87
379.84	227.79
380.22	227.68
380.60	227.61
380.98	227.52
381.36	227.49
381.73	227.40
382.11	227.31
382.49	227.24
382.87	227.14
383.25	227.10
383.62	227.17
384.00	227.10
384.38	227.07
384.76	227.03
385.13	227.00
385.51	226.94
385.89	226.86
386.27	226.81
386.64	226.77
387.02	226.70
387.40	226.62
387.78	226.58
388.15	226.57
388.53	226.50
388.91	226.47
389.29	226.42
389.66	226.40
390.04	226.38
390.42	226.39
390.79	226.39
391.17	226.36
391.55	226.26
391.92	226.24
392.30	226.23
392.68	226.20
393.05	226.20
393.43	226.20
393.81	226.22
394.18	226.18
394.56	226.21
394.94	226.30
395.31	226.33
395.69	226.38
396.06	226.38
396.44	226.41
396.82	226.43
397.19	226.51
397.57	226.55
397.95	226.62
398.32	226.66
398.70	226.75
399.07	226.83
399.45	226.89
399.82	226.93
400.20	226.99
400.58	227.08
400.95	227.12
401.33	227.24
401.70	227.38
402.08	227.53
402.45	227.62
402.83	227.71
403.20	227.86
403.58	227.98
403.95	228.15
404.33	228.37
404.71	228.51
405.08	228.70
405.46	228.86
405.83	229.01
406.21	229.18
406.58	229.36
406.96	229.51
407.33	229.71
407.70	229.95
408.08	230.23
408.45	230.50
408.83	230.75
409.20	230.97
409.58	231.17
409.95	231.45
410.33	231.75
410.70	232.00
411.08	232.28
411.45	232.59
411.82	232.92
412.20	233.25
412.57	233.67
412.95	233.98
413.32	234.38
413.69	234.78
414.07	235.22
414.44	235.66
414.82	236.17
415.19	236.66
415.56	237.21
415.94	237.76
416.31	238.40
416.68	239.00
417.06	239.74
417.43	240.45
417.81	241.23
418.18	242.02
418.55	242.86
418.93	243.74
419.30	244.65
419.67	245.59
420.04	246.55
420.42	247.53
420.79	248.72
421.16	249.86
421.54	251.07
421.91	252.25
422.28	253.52
422.66	254.85
423.03	256.17
423.40	257.54
423.77	258.97
424.15	260.40
424.52	261.89
424.89	263.46
425.26	265.01
425.64	266.42
426.01	268.00
426.38	269.66
426.75	271.32
427.13	273.06
427.50	274.85
427.87	276.72
428.24	278.62
428.61	280.35
428.99	282.31
429.36	284.39
429.73	286.49
430.10	288.52
430.47	290.56
430.85	292.70
431.22	294.91
431.59	297.28
431.96	299.51
432.33	302.01
432.70	304.41
433.08	307.21
433.45	309.89
433.82	312.53
434.19	315.41
434.56	318.26
434.93	320.87
435.30	323.46
435.68	326.32
436.05	329.15
436.42	331.92
436.79	334.44
437.16	337.15
437.53	339.96
437.90	342.75
438.27	345.55
438.64	348.35
439.01	350.96
439.38	353.19
439.75	355.33
440.13	357.79
440.50	360.11
440.87	361.99
441.24	363.91
441.61	366.05
441.98	367.54
442.35	369.33
442.72	371.23
443.09	373.07
443.46	374.10
443.83	374.68
444.20	375.23
444.57	376.05
444.94	376.38
445.31	376.70
445.68	377.11
446.05	377.13
446.42	376.78
446.79	376.35
447.16	375.94
447.53	375.63
447.90	374.50
448.27	373.34
448.64	371.74
449.01	370.61
449.37	368.59
449.74	366.68
450.11	364.44
450.48	361.90
450.85	359.37
451.22	357.18
451.59	355.16
451.96	353.23
452.33	350.62
452.70	348.23
453.07	345.41
453.43	342.51
453.80	339.77
454.17	337.06
454.54	334.50
454.91	331.75
455.28	329.09
455.65	326.59
456.02	324.17
456.38	322.01
456.75	319.30
457.12	317.12
457.49	314.92
457.86	312.74
458.23	310.95
458.59	308.93
458.96	306.88
459.33	305.04
459.70	303.17
460.07	301.70
460.43	299.93
460.80	298.35
461.17	296.85
461.54	295.35
461.91	293.96
462.27	292.55
462.64	291.29
463.01	289.92
463.38	288.63
463.74	287.23
464.11	286.06
464.48	285.04
464.85	283.90
465.21	283.02
465.58	282.08
465.95	280.92
466.32	279.98
466.68	279.06
467.05	278.14
467.42	277.22
467.78	276.28
468.15	275.44
468.52	274.73
468.88	273.90
469.25	273.13
469.62	272.52
469.98	271.82
470.35	271.16
470.72	270.56
471.08	269.89
471.45	269.35
471.82	268.82
472.18	268.22
472.55	267.79
472.92	267.31
473.28	266.85
473.65	266.41
474.02	265.95
474.38	265.52
474.75	265.18
475.11	264.81
475.48	264.52
475.85	264.27
476.21	264.02
476.58	263.80
476.94	263.65
477.31	263.43
477.67	263.25
478.04	263.16
478.41	263.06
478.77	263.08
479.14	262.97
479.50	262.94
479.87	262.99
480.23	263.04
480.60	263.05
480.96	263.18
481.33	263.37
481.69	263.55
482.06	263.79
482.42	264.00
482.79	264.28
483.15	264.57
483.52	264.95
483.88	265.28
484.25	265.69
484.61	266.12
484.98	266.56
485.34	267.11
485.71	267.68
486.07	268.29
486.44	268.85
486.80	269.56
487.17	270.28
487.53	271.10
487.90	271.95
488.26	272.88
488.62	273.80
488.99	274.80
489.35	275.83
489.72	276.92
490.08	278.13
490.44	279.32
490.81	280.66
491.17	282.00
491.54	283.49
491.90	284.98
492.26	286.59
492.63	288.33
492.99	290.13
493.36	291.98
493.72	294.01
494.08	296.09
494.45	298.32
494.81	300.66
495.17	303.05
495.54	305.59
495.90	308.24
496.26	311.02
496.63	313.96
496.99	317.05
497.35	320.29
497.72	323.67
498.08	327.17
498.44	330.83
498.80	334.74
499.17	338.73
499.53	342.87
499.89	347.23
500.26	351.64
500.62	356.28
500.98	361.22
501.34	366.29
501.71	371.62
502.07	377.05
502.43	382.63
502.79	388.43
503.16	394.47
503.52	400.70
503.88	407.12
504.24	413.72
504.60	420.59
504.97	427.69
505.33	435.02
505.69	442.73
506.05	450.50
506.41	458.32
506.78	466.46
507.14	475.00
507.50	483.73
507.86	492.78
508.22	501.88
508.59	511.08
508.95	520.69
509.31	530.51
509.67	540.64
510.03	550.94
510.39	561.55
510.75	572.39
511.12	583.38
511.48	594.72
511.84	606.21
512.20	617.78
512.56	629.73
512.92	641.89
513.28	654.23
513.64	666.63
514.00	679.38
514.37	692.37
514.73	705.38
515.09	718.43
515.45	731.75
515.81	745.41
516.17	759.39
516.53	773.49
516.89	787.70
517.25	801.87
517.61	816.33
517.97	830.79
518.33	845.24
518.69	860.05
519.05	875.08
519.41	890.24
519.77	905.81
520.13	921.37
520.49	936.73
520.85	952.15
521.21	968.06
521.57	984.33
521.93	1000.19
522.29	1016.71
522.65	1033.06
523.01	1049.37
523.37	1065.52
523.73	1081.80
524.09	1097.90
524.45	1114.26
524.81	1130.91
525.17	1147.88
525.53	1164.89
525.89	1181.81
526.25	1198.64
526.61	1215.00
526.97	1231.85
527.33	1248.39
527.68	1264.94
528.04	1281.56
528.40	1298.30
528.76	1315.41
529.12	1332.06
529.48	1348.92
529.84	1364.91
530.20	1381.56
530.56	1398.67
530.91	1416.09
531.27	1432.90
531.63	1449.64
531.99	1466.35
532.35	1482.38
532.71	1498.23
533.07	1514.44
533.42	1530.48
533.78	1546.63
534.14	1563.07
534.50	1578.40
534.86	1594.30
535.21	1609.51
535.57	1625.57
535.93	1641.19
536.29	1656.03
536.65	1671.22
537.00	1686.17
537.36	1701.65
537.72	1716.31
538.08	1730.57
538.44	1744.42
538.79	1758.46
539.15	1772.17
539.51	1785.96
539.87	1800.40
540.22	1814.32
540.58	1828.32
540.94	1841.71
541.29	1854.73
541.65	1867.54
542.01	1880.95
542.37	1893.21
542.72	1905.76
543.08	1917.55
543.44	1930.08
543.79	1941.34
544.15	1952.38
544.51	1963.86
544.87	1974.64
545.22	1985.49
545.58	1995.95
545.94	2005.78
546.29	2015.65
546.65	2025.41
547.01	2034.63
547.36	2043.45
547.72	2051.81
548.07	2059.55
548.43	2067.72
548.79	2075.80
549.14	2083.29
549.50	2090.65
549.86	2098.64
550.21	2105.99
550.57	2113.24
550.92	2119.74
551.28	2126.87
551.64	2133.84
551.99	2140.47
552.35	2146.85
552.70	2152.94
553.06	2158.84
553.41	2165.21
553.77	2171.36
554.13	2177.48
554.48	2183.69
554.84	2188.89
555.19	2194.20
555.55	2199.34
555.90	2203.81
556.26	2208.54
556.61	2213.24
556.97	2217.34
557.32	2221.32
557.68	2225.55
558.03	2229.77
558.39	2233.52
558.74	2238.17
559.10	2242.16
559.45	2245.75
559.81	2250.03
560.16	2253.68
560.52	2256.88
560.87	2260.22
561.23	2262.58
561.58	2265.40
561.94	2267.82
562.29	2270.35
562.64	2273.02
563.00	2275.69
563.35	2279.17
563.71	2282.25
564.06	2285.29
564.42	2288.15
564.77	2290.56
565.12	2292.58
565.48	2294.38
565.83	2296.04
566.19	2297.06
566.54	2297.93
566.89	2298.94
567.25	2299.31
567.60	2300.69
567.96	2302.22
568.31	2302.97
568.66	2303.90
569.02	2304.47
569.37	2304.71
569.72	2305.45
570.08	2305.45
570.43	2305.20
570.78	2304.37
571.14	2302.78
571.49	2301.28
571.84	2300.87
572.20	2299.55
572.55	2298.45
572.90	2296.84
573.26	2295.30
573.61	2293.61
573.96	2291.66
574.31	2288.52
574.67	2285.31
575.02	2281.62
575.37	2278.11
575.72	2274.15
576.08	2270.86
576.43	2267.41
576.78	2263.61
577.13	2260.42
577.49	2257.27
577.84	2253.80
578.19	2250.03
578.54	2246.12
578.90	2241.98
579.25	2236.33
579.60	2231.24
579.95	2226.09
580.30	2220.92
580.66	2215.64
581.01	2210.57
581.36	2205.60
581.71	2201.39
582.06	2196.87
582.42	2192.36
582.77	2187.09
583.12	2182.43
583.47	2177.55
583.82	2172.45
584.17	2167.14
584.53	2161.44
584.88	2155.64
585.23	2149.69
585.58	2144.04
585.93	2138.47
586.28	2133.61
586.63	2128.43
586.98	2123.32
587.34	2118.59
587.69	2113.59
588.04	2108.19
588.39	2102.42
588.74	2095.73
589.09	2089.53
589.44	2082.63
589.79	2076.44
590.14	2070.72
590.49	2064.03
590.84	2057.51
591.19	2051.42
591.54	2044.93
591.89	2037.29
592.25	2030.37
592.60	2023.16
592.95	2015.54
593.30	2008.17
593.65	2000.44
594.00	1993.44
594.35	1986.13
594.70	1978.05
595.05	1970.63
595.40	1963.35
595.75	1955.87
596.10	1949.59
596.45	1942.70
596.80	1936.44
597.15	1929.51
597.50	1922.32
597.85	1915.93
598.19	1909.24
598.54	1902.01
598.89	1895.17
599.24	1889.29
599.59	1882.52
599.94	1876.21
600.29	1869.87
600.64	1863.31
600.99	1855.63
601.34	1848.58
601.69	1841.57
602.04	1834.50
602.39	1827.15
602.74	1820.31
603.08	1813.48
603.43	1806.66
603.78	1799.41
604.13	1792.28
604.48	1785.07
604.83	1778.15
605.18	1771.04
605.53	1763.09
605.87	1754.99
606.22	1747.83
606.57	1739.98
606.92	1732.60
607.27	1725.40
607.62	1718.37
607.96	1711.02
608.31	1704.45
608.66	1696.73
609.01	1689.13
609.36	1681.64
609.70	1673.63
610.05	1665.56
610.40	1657.77
610.75	1649.53
611.10	1641.83
611.44	1633.44
611.79	1625.52
612.14	1616.88
612.49	1607.86
612.83	1599.49
613.18	1591.49
613.53	1583.27
613.88	1574.68
614.22	1566.53
614.57	1557.98
614.92	1550.01
615.27	1542.42
615.61	1534.16
615.96	1526.24
616.31	1518.73
616.65	1511.32
617.00	1503.81
617.35	1496.14
617.70	1487.81
618.04	1479.20
618.39	1470.90
618.74	1463.34
619.08	1455.13
619.43	1447.64
619.78	1440.84
620.12	1433.62
620.47	1426.10
620.82	1418.01
621.16	1410.69
621.51	1403.14
621.85	1395.48
622.20	1386.89
622.55	1378.70
622.89	1370.93
623.24	1363.37
623.59	1356.02
623.93	1348.54
624.28	1341.33
624.62	1333.65
624.97	1326.50
625.32	1319.93
625.66	1312.99
626.01	1305.87
626.35	1298.34
626.70	1290.61
627.04	1282.78
627.39	1275.13
627.73	1267.65
628.08	1260.82
628.43	1253.48
628.77	1246.01
629.12	1238.50
629.46	1231.39
629.81	1223.99
630.15	1216.74
630.50	1209.39
630.84	1201.16
631.19	1193.22
631.53	1185.80
631.88	1178.44
632.22	1170.95
632.57	1163.69
632.91	1156.24
633.26	1148.80
633.60	1141.59
633.95	1134.57
634.29	1127.48
634.64	1120.86
634.98	1113.61
635.32	1106.45
635.67	1099.98
636.01	1093.43
636.36	1086.65
636.70	1080.25
637.05	1073.67
637.39	1067.23
637.73	1060.76
638.08	1055.06
638.42	1049.25
638.77	1042.78
639.11	1036.21
639.45	1029.86
639.80	1023.09
640.14	1016.61
640.49	1010.11
640.83	1003.70
641.17	997.37
641.52	991.18
641.86	984.78
642.20	978.99
642.55	972.70
642.89	966.20
643.23	959.73
643.58	953.89
643.92	947.61
644.26	941.60
644.61	935.62
644.95	929.53
645.29	922.86
645.64	916.01
645.98	909.73
646.32	903.94
646.66	897.94
647.01	892.26
647.35	886.56
647.69	880.71
648.04	875.22
648.38	869.52
648.72	863.45
649.06	857.32
649.41	851.37
649.75	845.38
650.09	839.43
650.43	833.61
650.78	827.56
651.12	821.67
651.46	815.90
651.80	810.12
652.14	804.75
652.49	799.44
652.83	794.35
653.17	788.59
653.51	782.81
653.85	777.38
654.20	771.64
654.54	765.68
654.88	760.02
655.22	754.19
655.56	748.45
655.90	743.09
656.25	737.81
656.59	732.59
656.93	727.56
657.27	722.37
657.61	716.96
657.95	711.89
658.29	706.84
658.64	701.63
658.98	696.44
659.32	691.02
659.66	685.79
660.00	680.49
660.34	675.65
660.68	670.78
661.02	665.75
661.36	661.10
661.70	656.61
662.05	652.20
662.39	647.85
662.73	643.43
663.07	639.03
663.41	634.60
663.75	630.07
664.09	625.50
664.43	621.20
664.77	617.13
665.11	612.86
665.45	608.76
665.79	604.73
666.13	600.61
666.47	596.57
666.81	592.38
667.15	588.29
667.49	584.45
667.83	580.72
668.17	576.85
668.51	572.77
668.85	568.80
669.19	565.00
669.53	561.16
669.87	557.28
670.21	553.60
670.55	550.06
670.89	546.62
671.23	543.25
671.57	539.76
671.91	536.24
672.25	532.82
672.58	529.38
672.92	526.03
673.26	522.83
673.60	519.71
673.94	516.65
674.28	513.78
674.62	510.80
674.96	507.69
675.30	504.80
675.64	501.88
675.97	499.14
676.31	496.33
676.65	493.47
676.99	490.85
677.33	488.02
677.67	485.18
678.01	482.15
678.34	479.17
678.68	476.37
679.02	473.61
679.36	470.83
679.70	468.11
680.04	465.35
680.37	462.52
680.71	459.71
681.05	457.11
681.39	454.37
681.73	451.74
682.06	449.18
682.40	446.63
682.74	444.18
683.08	441.66
683.42	439.07
683.75	436.57
684.09	434.04
684.43	431.58
684.77	429.15
685.10	426.86
685.44	424.57
685.78	422.25
686.12	419.98
686.45	417.68
686.79	415.31
687.13	413.14
687.46	410.96
687.80	408.84
688.14	406.66
688.48	404.65
688.81	402.41
689.15	400.26
689.49	398.18
689.82	396.10
690.16	394.04
690.50	392.05
690.83	390.12
691.17	388.13
691.51	386.24
691.84	384.39
692.18	382.46
692.52	380.49
692.85	378.54
693.19	376.67
693.52	374.92
693.86	373.19
694.20	371.40
694.53	369.61
694.87	367.72
695.21	365.92
695.54	364.07
695.88	362.34
696.21	360.63
696.55	358.93
696.88	357.24
697.22	355.55
697.56	353.97
697.89	352.29
698.23	350.72
698.56	349.12
698.90	347.51
699.23	345.88
699.57	344.31
699.90	342.80
700.24	341.27
700.58	339.72
700.91	338.21
701.25	336.74
701.58	335.39
701.92	334.07
702.25	332.69
702.59	331.34
702.92	330.03
703.26	328.74
703.59	327.49
703.93	326.34
704.26	325.11
704.60	323.80
704.93	322.58
705.26	321.28
705.60	320.15
705.93	319.02
706.27	318.00
706.60	317.02
706.94	315.93
707.27	314.80
707.61	313.77
707.94	312.73
708.27	311.69
708.61	310.67
708.94	309.69
709.28	308.75
709.61	307.83
709.94	306.91
710.28	305.88
710.61	304.88
710.95	303.83
711.28	302.95
711.61	302.04
711.95	301.11
712.28	300.18
712.61	299.16
712.95	298.26
713.28	297.37
713.61	296.47
713.95	295.59
714.28	294.78
714.61	293.91
714.95	293.11
715.28	292.25
715.61	291.33
715.95	290.47
716.28	289.60
716.61	288.75
716.95	287.95
717.28	287.28
717.61	286.50
717.94	285.76
718.28	284.93
718.61	284.24
718.94	283.58
719.27	282.95
719.61	282.32
719.94	281.67
720.27	280.97
720.60	280.26
720.94	279.66
721.27	279.06
721.60	278.47
721.93	277.83
722.27	277.29
722.60	276.76
722.93	276.20
723.26	275.67
723.59	275.10
723.93	274.54
724.26	273.97
724.59	273.41
724.92	272.84
725.25	272.34
725.59	271.81
725.92	271.24
726.25	270.70
726.58	270.24
726.91	269.76
727.24	269.26
727.57	268.83
727.91	268.32
728.24	267.84
728.57	267.36
728.90	266.93
729.23	266.44
729.56	266.00
729.89	265.51
730.22	265.00
730.55	264.53
730.89	264.07
731.22	263.61
731.55	263.18
731.88	262.77
732.21	262.33
732.54	261.91
732.87	261.51
733.20	261.15
733.53	260.70
733.86	260.32
734.19	259.93
734.52	259.55
734.85	259.20
735.18	258.75
735.51	258.36
735.84	257.95
736.17	257.58
736.50	257.17
736.83	256.95
737.16	256.66
737.49	256.32
737.82	255.99
738.15	255.66
738.48	255.33
738.81	255.04
739.14	254.74
739.47	254.40
739.80	254.09
740.13	253.76
740.46	253.44
740.79	253.10
741.12	252.82
741.45	252.48
741.78	252.13
742.11	251.89
742.44	251.61
742.77	251.35
743.10	251.02
743.43	250.75
743.75	250.37
744.08	250.20
744.41	249.92
744.74	249.65
745.07	249.37
745.40	249.12
745.73	248.84
746.06	248.57
746.39	248.35
746.71	248.09
747.04	247.85
747.37	247.59
747.70	247.32
748.03	247.03
748.36	246.88
748.68	246.65
749.01	246.36
749.34	246.18
749.67	245.93
750.00	245.77
750.33	245.61
750.65	245.42
750.98	245.08
751.31	244.89
751.64	244.72
751.97	244.57
752.29	244.36
752.62	244.14
752.95	243.95
753.28	243.72
753.60	243.49
753.93	243.31
754.26	243.13
754.59	242.92
754.91	242.71
755.24	242.46
755.57	242.25
755.90	242.09
756.22	241.88
756.55	241.70
756.88	241.52
757.20	241.28
757.53	241.07
757.86	240.89
758.19	240.72
758.51	240.52
758.84	240.27
759.17	240.11
759.49	239.94
759.82	239.83
760.15	239.70
760.47	239.55
760.80	239.36
761.13	239.26
761.45	239.10
761.78	238.96
762.11	238.84
762.43	238.71
762.76	238.58
763.08	238.41
763.41	238.30
763.74	238.16
764.06	238.04
764.39	237.89
764.71	237.76
765.04	237.64
765.37	237.51
765.69	237.41
766.02	237.28
766.34	237.16
766.67	236.99
767.00	236.84
767.32	236.79
767.65	236.78
767.97	236.62
768.30	236.51
768.62	236.42
768.95	236.27
769.27	236.15
769.60	236.05
769.92	235.93
770.25	235.79
770.57	235.68
770.90	235.56
771.22	235.45
771.55	235.37
771.87	235.25
772.20	235.15
772.52	235.15
772.85	235.13
773.17	235.04
773.50	234.94
773.82	234.85
774.15	234.72
774.47	234.55
774.80	234.45
775.12	234.35
775.45	234.26
775.77	234.18
776.09	234.12
776.42	234.03
776.74	234.00
777.07	233.92
777.39	233.84
777.72	233.76
778.04	233.70
778.36	233.60
778.69	233.51
779.01	233.43
779.33	233.27
779.66	233.11
779.98	233.03
780.31	232.97
780.63	232.94
780.95	232.87
781.28	232.82
781.60	232.74
781.92	232.67
782.25	232.61
782.57	232.53
782.89	232.48
783.22	232.45
783.54	232.37
783.86	232.34
784.19	232.28
784.51	232.23
784.83	232.18
785.16	232.14
785.48	232.10
785.80	232.03
786.12	231.98
786.45	231.96
786.77	231.92
787.09	231.87
787.42	231.83
787.74	231.80
788.06	231.71
788.38	231.68
788.71	231.67
789.03	231.66
789.35	231.65
789.67	231.59
789.99	231.54
790.32	231.50
790.64	231.43
790.96	231.49
791.28	231.43
791.61	231.39
791.93	231.36
792.25	231.36
792.57	231.41
792.89	231.37
793.21	231.31
793.54	231.28
793.86	231.21
794.18	231.12
794.50	231.08
794.82	231.07
795.14	231.05
795.47	231.04
795.79	231.00
796.11	230.93
796.43	230.91
796.75	230.87
797.07	230.89
797.39	230.90
797.71	230.78
798.04	230.75
798.36	230.73
798.68	230.69
799.00	230.64
799.32	230.57
799.64	230.57
799.96	230.53
800.28	230.54
800.60	230.54
800.92	230.52
801.24	230.49
801.56	230.49
801.89	230.47
802.21	230.43
802.53	230.36
802.85	230.37
803.17	230.35
803.49	230.31
803.81	230.22
804.13	230.14
804.45	230.14
804.77	230.13
805.09	230.12
805.41	230.10
805.73	230.03
806.05	229.98
806.37	229.95
806.69	229.92
807.01	229.86
807.33	229.86
807.65	229.83
807.97	229.82
808.28	229.76
808.60	229.72
808.92	229.69
809.24	229.71
809.56	229.68
809.88	229.66
810.20	229.66
810.52	229.69
810.84	229.64
811.16	229.59
811.48	229.57
811.80	229.55
812.12	229.50
812.43	229.52
812.75	229.49
813.07	229.44
813.39	229.42
813.71	229.36
814.03	229.29
814.35	229.25
814.67	229.19
814.98	229.15
815.30	229.12
815.62	229.06
815.94	228.98
816.26	228.96
816.58	228.90
816.89	228.86
817.21	228.80
817.53	228.78
817.85	228.76
818.17	228.71
818.48	228.63
818.80	228.67
819.12	228.62
819.44	228.57
819.76	228.54
820.07	228.55
820.39	228.56
820.71	228.56
821.03	228.54
821.34	228.51
821.66	228.51
821.98	228.53
822.30	228.52
822.61	228.58
822.93	228.52
823.25	228.54
823.57	228.51
823.88	228.50
824.20	228.47
824.52	228.47
824.83	228.44
825.15	228.40
825.47	228.34
825.79	228.33
826.10	228.34
826.42	228.30
826.74	228.27
827.05	228.25
827.37	228.23
827.69	228.20
828.00	228.20
828.32	228.20
828.64	228.14
828.95	228.17
829.27	228.13
829.58	228.16
829.90	228.13
830.22	228.10
830.53	228.08
830.85	228.12
831.17	228.12
831.48	228.12
831.80	228.17
832.11	228.16
832.43	228.14
832.75	228.13
833.06	228.24
833.38	228.23
833.69	228.24
834.01	228.27
834.32	228.29
834.64	228.30
834.96	228.30
835.27	228.27
835.59	228.24
835.90	228.23
836.22	228.23
836.53	228.23
836.85	228.24
837.16	228.33
837.48	228.31
837.79	228.33
838.11	228.32
838.42	228.31
838.74	228.34
839.05	228.35
839.37	228.36
839.68	228.28
840.00	228.29
840.31	228.27
840.63	228.25
840.94	228.25
841.26	228.25
841.57	228.26
841.88	228.31
842.20	228.31
842.51	228.30
842.83	228.31
843.14	228.36
843.46	228.38
843.77	228.31
844.08	228.30
844.40	228.26
844.71	228.27
845.03	228.26
845.34	228.24
845.65	228.22
845.97	228.21
846.28	228.22
846.60	228.20
846.91	228.17
847.22	228.18
847.54	228.20
847.85	228.16
848.16	228.16
848.48	228.13
848.79	228.17
849.10	228.14
849.42	228.11
849.73	228.05
850.04	228.03
850.36	227.99
850.67	227.99
850.98	228.00
851.30	227.99
851.61	227.97
851.92	227.97
852.23	228.00
852.55	227.98
852.86	227.94
853.17	227.92
853.49	227.93
853.80	227.91
854.11	227.88
854.42	227.87
854.74	227.84
855.05	227.84
855.36	227.75
855.67	227.73
855.99	227.71
856.30	227.82
856.61	227.77
856.92	227.76
857.23	227.76
857.55	227.72
857.86	227.67
858.17	227.68
858.48	227.67
858.79	227.59
859.11	227.57
859.42	227.55
859.73	227.56
860.04	227.56
860.35	227.54
860.66	227.52
860.98	227.52
861.29	227.47
861.60	227.45
861.91	227.48
862.22	227.44
862.53	227.43
862.84	227.26
863.16	227.29
863.47	227.25
863.78	227.22
864.09	227.21
864.40	227.23
864.71	227.22
865.02	227.23
865.33	227.24
865.64	227.20
865.95	227.23
866.27	227.25
866.58	227.26
866.89	227.23
867.20	227.23
867.51	227.24
867.82	227.28
868.13	227.30
868.44	227.29
868.75	227.34
869.06	227.33
869.37	227.37
869.68	227.33
869.99	227.38
870.30	227.39
870.61	227.40
870.92	227.38
871.23	227.35
871.54	227.32
871.85	227.36
872.16	227.42
872.47	227.40
872.78	227.35
873.09	227.35
873.40	227.36
873.71	227.38
874.02	227.40
874.33	227.38
874.64	227.35
874.95	227.38
875.26	227.36
875.56	227.36
875.87	227.31
876.18	227.33
876.49	227.42
876.80	227.44
877.11	227.44
877.42	227.46
877.73	227.49
878.04	227.52
878.35	227.53
878.66	227.52
878.96	227.55
879.27	227.57
879.58	227.54
879.89	227.57
880.20	227.60
880.51	227.60
880.82	227.62
881.12	227.65
881.43	227.62
881.74	227.67
882.05	227.67
882.36	227.71
882.67	227.74
882.97	227.67
883.28	227.65
883.59	227.68
883.90	227.70
884.21	227.69
884.51	227.67
884.82	227.65
885.13	227.67
885.44	227.70
885.74	227.69
886.05	227.70
886.36	227.69
886.67	227.65
886.98	227.67
887.28	227.65
887.59	227.65
887.90	227.65
888.20	227.61
888.51	227.63
888.82	227.62
889.13	227.59
889.43	227.69
889.74	227.68
890.05	227.67
890.35	227.65
890.66	227.66
890.97	227.65
891.28	227.62
891.58	227.59
891.89	227.54
892.20	227.55
892.50	227.53
892.81	227.53
893.12	227.52
893.42	227.46
893.73	227.48
894.04	227.47
894.34	227.45
894.65	227.43
894.95	227.42
895.26	227.39
895.57	227.44
895.87	227.32
896.18	227.34
896.48	227.32
896.79	227.32
897.10	227.34
897.40	227.32
897.71	227.37
898.01	227.35
898.32	227.36
898.63	227.35
898.93	227.36
899.24	227.35
899.54	227.31
899.85	227.36
900.15	227.32
900.46	227.30
900.76	227.32
901.07	227.33
901.38	227.35
901.68	227.34
901.99	227.27
902.29	227.28
902.60	227.23
902.90	227.23
903.21	227.21
903.51	227.19
903.82	227.22
904.12	227.17
904.43	227.19
904.73	227.20
905.03	227.20
905.34	227.27
905.64	227.28
905.95	227.29
906.25	227.25
906.56	227.25
906.86	227.26
907.17	227.27
907.47	227.27
907.77	227.24
908.08	227.22
908.38	227.25
908.69	227.24
908.99	227.28
909.30	227.30
909.60	227.32
909.90	227.33
910.21	227.32
910.51	227.32
910.81	227.30
911.12	227.29
911.42	227.27
911.73	227.20
912.03	227.20
912.33	227.23
912.64	227.24
912.94	227.24
913.24	227.26
913.55	227.27
913.85	227.27
914.15	227.30
914.46	227.34
914.76	227.33
915.06	227.36
915.37	227.35
915.67	227.33
915.97	227.31
916.27	227.26
916.58	227.26
916.88	227.26
917.18	227.25
917.49	227.31
917.79	227.31
918.09	227.33
918.39	227.36
918.70	227.35
919.00	227.34
919.30	227.40
919.60	227.38
919.91	227.34
920.21	227.36
920.51	227.36
920.81	227.33
921.12	227.33
921.42	227.33
921.72	227.36
922.02	227.37
922.32	227.37
922.63	227.39
922.93	227.44
923.23	227.44
923.53	227.47
923.83	227.39
924.13	227.39
924.44	227.37
924.74	227.35
925.04	227.36
925.34	227.35
925.64	227.30
925.94	227.33
926.24	227.40
926.55	227.38
926.85	227.37
927.15	227.37
927.45	227.37
927.75	227.36
928.05	227.33
928.35	227.32
928.65	227.33
928.95	227.33
929.26	227.29
929.56	227.32
929.86	227.33
930.16	227.34
930.46	227.36
930.76	227.35
931.06	227.34
931.36	227.34
931.66	227.39
931.96	227.38
932.26	227.35
932.56	227.29
932.86	227.32
933.16	227.32
933.46	227.36
933.76	227.35
934.06	227.34
934.36	227.37
934.66	227.35
934.96	227.35
935.26	227.39
935.56	227.40
935.86	227.38
936.16	227.35
936.46	227.33
936.76	227.30
937.06	227.27
937.36	227.24
937.66	227.24
937.96	227.22
938.26	227.22
938.56	227.23
938.86	227.23
939.16	227.21
939.46	227.22
939.76	227.19
940.06	227.19
940.35	227.17
940.65	227.12
940.95	227.12
941.25	227.11
941.55	227.09
941.85	227.07
942.15	227.09
942.45	227.12
942.75	227.13
943.04	227.14
943.34	227.17
943.64	227.19
943.94	227.18
944.24	227.19
944.54	227.19
944.84	227.18
945.13	227.16
945.43	227.15
945.73	227.14
946.03	227.15
946.33	227.15
946.62	227.14
946.92	227.17
947.22	227.19
947.52	227.17
947.82	227.14
948.11	227.13
948.41	227.11
948.71	227.07
949.01	227.06
949.31	227.04
949.60	227.04
949.90	227.06
950.20	227.04
950.50	227.00
950.79	226.98
951.09	226.98
951.39	226.99
951.69	226.97
951.98	227.01
952.28	227.01
952.58	227.01
952.87	227.05
953.17	227.00
953.47	227.01
953.76	227.00
954.06	226.99
954.36	227.00
954.66	226.98
954.95	227.02
955.25	227.03
955.55	227.05
955.84	227.03
956.14	227.05
956.44	227.09
956.73	227.06
957.03	227.09
957.32	227.12
957.62	227.12
957.92	227.16
958.21	227.15
958.51	227.25
958.81	227.25
959.10	227.25
959.40	227.31
959.69	227.29
959.99	227.29
960.29	227.32
960.58	227.34
960.88	227.39
961.17	227.39
961.47	227.37
961.76	227.36
962.06	227.36
962.36	227.33
962.65	227.33
962.95	227.35
963.24	227.33
963.54	227.32
963.83	227.31
964.13	227.31
964.42	227.26
964.72	227.19
965.01	227.17
965.31	227.16
965.60	227.14
965.90	227.19
966.19	227.16
966.49	227.17
966.78	227.14
967.08	227.14
967.37	227.15
967.67	227.17
967.96	227.20
968.26	227.21
968.55	227.17
968.85	227.15
969.14	227.17
969.43	227.19
969.73	227.17
970.02	227.13
970.32	227.13
970.61	227.17
970.91	227.10
971.20	227.12
971.49	227.06
971.79	227.04
972.08	226.98
972.38	227.03
972.67	227.02
972.96	227.03
973.26	226.99
973.55	227.00
973.85	226.99
974.14	226.98
974.43	226.99
974.73	227.02
975.02	227.02
975.31	227.00
975.61	226.98
975.90	226.99
976.19	227.04
976.49	227.01
976.78	226.99
977.07	227.04
977.37	227.02
977.66	227.07
977.95	227.09
978.24	227.10
978.54	227.13
978.83	227.12
979.12	227.15
979.42	227.14
979.71	227.10
980.00	227.08
980.29	227.07
980.59	227.05
980.88	227.05
981.17	227.06
981.46	227.09
981.76	227.08
982.05	227.12
982.34	227.12
982.63	227.13
982.93	227.14
983.22	227.18
983.51	227.23
983.80	227.26
984.09	227.27
984.39	227.27
984.68	227.25
984.97	227.25
985.26	227.22
985.55	227.26
985.85	227.26
986.14	227.30
986.43	227.35
986.72	227.33
987.01	227.33
987.30	227.37
987.59	227.34
987.89	227.36
988.18	227.33
988.47	227.33
988.76	227.34
989.05	227.34
989.34	227.27
989.63	227.25
989.92	227.23
990.22	227.25
990.51	227.29
990.80	227.27
991.09	227.32
991.38	227.34
991.67	227.33
991.96	227.32
992.25	227.34
992.54	227.33
992.83	227.36
993.12	227.34
993.41	227.34
993.70	227.40
993.99	227.43
994.28	227.45
994.58	227.44
994.87	227.42
995.16	227.44
995.45	227.45
995.74	227.45
996.03	227.44
996.32	227.41
996.61	227.37
996.90	227.41
997.19	227.40
997.48	227.40
997.77	227.38
998.06	227.40
998.34	227.38
998.63	227.36
998.92	227.36
999.21	227.37
999.50	227.34
999.79	227.29
1000.08	227.21
1000.37	227.20
1000.66	227.22
1000.95	227.23
1001.24	227.22
1001.53	227.22
1001.82	227.21
1002.11	227.18
1002.40	227.15
1002.68	227.20
1002.97	227.22
1003.26	227.21
1003.55	227.17
1003.84	227.17
1004.13	227.18
1004.42	227.17
1004.71	227.13
1004.99	227.12
1005.28	227.11
1005.57	227.10
1005.86	227.08
1006.15	227.11
1006.44	227.08
1006.72	227.10
1007.01	227.06
1007.30	227.04
1007.59	227.04
1007.88	227.02
1008.17	227.01
1008.45	227.01
1008.74	226.97
1009.03	226.92
1009.32	226.91
1009.60	226.89
1009.89	226.84
1010.18	226.80
1010.47	226.79
1010.76	226.77
1011.04	226.76
1011.33	226.77
1011.62	226.78
1011.91	226.78
1012.19	226.78
1012.48	226.77
1012.77	226.74
1013.05	226.79
1013.34	226.79
1013.63	226.76
1013.92	226.79
1014.20	226.80
1014.49	226.80
1014.78	226.78
1015.06	226.74
1015.35	226.71
1015.64	226.74
1015.92	226.82
1016.21	226.84
1016.50	226.86
1016.78	226.91
1017.07	226.93
1017.36	226.92
1017.64	226.89
1017.93	226.90
1018.22	226.89
1018.50	226.87
1018.79	226.88
1019.08	226.82
1019.36	226.83
1019.65	226.82
1019.93	226.85
1020.22	226.86
1020.51	226.89
1020.79	226.86
1021.08	226.93
1021.36	226.35
1021.65	227.16
1021.94	226.34
1022.22	226.85
1022.51	226.34
1022.79	227.55
1023.08	226.94
1023.36	227.21
1023.65	226.14
>>>>>End Processed Spectral Data<<<<<
