SpectraSuite Data File
++++++++++++++++++++++++++++++++++++
Date: Fri Feb 01 14:56:00 EST 2013
User: group
Dark Spectrum Present: No
Reference Spectrum Present: No
Number of Sampled Component Spectra: 1
Spectrometers: USB2E7196
Integration Time (usec): 35000 (USB2E7196)
Spectra Averaged: 100 (USB2E7196)
Boxcar Smoothing: 10 (USB2E7196)
Correct for Electrical Dark: No (USB2E7196)
Strobe/Lamp Enabled: No (USB2E7196)
Correct for Detector Non-linearity: No (USB2E7196)
Correct for Stray Light: No (USB2E7196)
Number of Pixels in Processed Spectrum: 2048
>>>>>Begin Processed Spectral Data<<<<<
339.09	0.00
339.48	215.46
339.86	216.93
340.24	217.97
340.63	219.80
341.01	222.85
341.39	221.98
341.78	222.79
342.16	224.51
342.54	224.97
342.93	213.59
343.31	224.39
343.69	224.94
344.07	225.43
344.46	225.86
344.84	226.22
345.22	226.44
345.60	226.71
345.99	226.97
346.37	227.11
346.75	227.22
347.13	227.30
347.52	227.36
347.90	227.44
348.28	227.47
348.66	227.53
349.05	227.53
349.43	227.56
349.81	227.60
350.19	227.63
350.57	227.68
350.96	227.73
351.34	227.81
351.72	227.91
352.10	227.96
352.48	228.00
352.87	228.06
353.25	228.14
353.63	228.19
354.01	228.22
354.39	228.29
354.77	228.38
355.15	228.48
355.54	228.57
355.92	228.60
356.30	228.65
356.68	228.76
357.06	228.80
357.44	228.87
357.82	228.92
358.20	229.00
358.58	229.07
358.97	229.16
359.35	229.22
359.73	229.28
360.11	229.34
360.49	229.43
360.87	229.45
361.25	229.48
361.63	229.55
362.01	229.61
362.39	229.62
362.77	229.64
363.15	229.64
363.53	229.70
363.91	229.73
364.29	229.78
364.67	229.71
365.05	229.73
365.43	229.74
365.81	229.77
366.19	229.82
366.57	229.86
366.95	229.84
367.33	229.84
367.71	229.80
368.09	229.79
368.47	229.77
368.85	229.75
369.23	229.73
369.61	229.66
369.99	229.63
370.37	229.61
370.75	229.61
371.13	229.55
371.51	229.44
371.89	229.43
372.27	229.34
372.65	229.28
373.03	229.23
373.41	229.17
373.78	229.10
374.16	228.97
374.54	228.86
374.92	228.80
375.30	228.69
375.68	228.60
376.06	228.54
376.44	228.44
376.82	228.40
377.19	228.33
377.57	228.24
377.95	228.15
378.33	228.09
378.71	227.95
379.09	227.93
379.47	227.87
379.84	227.76
380.22	227.67
380.60	227.60
380.98	227.52
381.36	227.46
381.73	227.34
382.11	227.30
382.49	227.23
382.87	227.11
383.25	227.05
383.62	227.12
384.00	227.06
384.38	227.01
384.76	226.96
385.13	226.94
385.51	226.92
385.89	226.85
386.27	226.78
386.64	226.76
387.02	226.68
387.40	226.63
387.78	226.59
388.15	226.57
388.53	226.51
388.91	226.48
389.29	226.42
389.66	226.43
390.04	226.41
390.42	226.39
390.79	226.39
391.17	226.41
391.55	226.29
391.92	226.26
392.30	226.29
392.68	226.27
393.05	226.29
393.43	226.28
393.81	226.31
394.18	226.33
394.56	226.33
394.94	226.36
395.31	226.37
395.69	226.41
396.06	226.47
396.44	226.54
396.82	226.57
397.19	226.68
397.57	226.71
397.95	226.80
398.32	226.86
398.70	226.96
399.07	227.01
399.45	227.08
399.82	227.16
400.20	227.21
400.58	227.29
400.95	227.36
401.33	227.47
401.70	227.63
402.08	227.72
402.45	227.87
402.83	228.02
403.20	228.15
403.58	228.28
403.95	228.43
404.33	228.56
404.71	228.72
405.08	228.92
405.46	229.07
405.83	229.18
406.21	229.36
406.58	229.56
406.96	229.76
407.33	229.94
407.70	230.14
408.08	230.44
408.45	230.69
408.83	230.92
409.20	231.13
409.58	231.33
409.95	231.59
410.33	231.85
410.70	232.10
411.08	232.42
411.45	232.73
411.82	233.04
412.20	233.40
412.57	233.82
412.95	234.13
413.32	234.55
413.69	235.00
414.07	235.41
414.44	235.83
414.82	236.30
415.19	236.87
415.56	237.42
415.94	237.98
416.31	238.61
416.68	239.20
417.06	239.92
417.43	240.62
417.81	241.43
418.18	242.19
418.55	243.03
418.93	243.87
419.30	244.73
419.67	245.66
420.04	246.61
420.42	247.55
420.79	248.72
421.16	249.88
421.54	251.01
421.91	252.21
422.28	253.46
422.66	254.77
423.03	256.08
423.40	257.40
423.77	258.77
424.15	260.18
424.52	261.64
424.89	263.24
425.26	264.76
425.64	266.16
426.01	267.77
426.38	269.44
426.75	271.14
427.13	272.91
427.50	274.72
427.87	276.63
428.24	278.52
428.61	280.22
428.99	282.12
429.36	284.25
429.73	286.29
430.10	288.34
430.47	290.43
430.85	292.54
431.22	294.77
431.59	297.14
431.96	299.37
432.33	301.90
432.70	304.28
433.08	307.11
433.45	309.76
433.82	312.34
434.19	315.19
434.56	318.02
434.93	320.66
435.30	323.29
435.68	326.18
436.05	329.03
436.42	331.85
436.79	334.42
437.16	337.10
437.53	339.99
437.90	342.82
438.27	345.57
438.64	348.41
439.01	351.00
439.38	353.25
439.75	355.42
440.13	357.92
440.50	360.30
440.87	362.15
441.24	364.12
441.61	366.32
441.98	367.86
442.35	369.61
442.72	371.50
443.09	373.30
443.46	374.26
443.83	374.83
444.20	375.34
444.57	376.17
444.94	376.49
445.31	376.83
445.68	377.15
446.05	377.20
446.42	376.79
446.79	376.42
447.16	375.98
447.53	375.66
447.90	374.51
448.27	373.31
448.64	371.76
449.01	370.62
449.37	368.64
449.74	366.74
450.11	364.53
450.48	362.04
450.85	359.51
451.22	357.39
451.59	355.38
451.96	353.49
452.33	350.91
452.70	348.56
453.07	345.76
453.43	342.90
453.80	340.18
454.17	337.55
454.54	335.01
454.91	332.32
455.28	329.64
455.65	327.13
456.02	324.71
456.38	322.56
456.75	319.91
457.12	317.68
457.49	315.45
457.86	313.28
458.23	311.45
458.59	309.41
458.96	307.32
459.33	305.49
459.70	303.56
460.07	302.05
460.43	300.33
460.80	298.67
461.17	297.20
461.54	295.68
461.91	294.22
462.27	292.75
462.64	291.44
463.01	290.13
463.38	288.81
463.74	287.42
464.11	286.27
464.48	285.20
464.85	284.07
465.21	283.18
465.58	282.26
465.95	281.13
466.32	280.19
466.68	279.27
467.05	278.39
467.42	277.52
467.78	276.59
468.15	275.68
468.52	275.00
468.88	274.13
469.25	273.32
469.62	272.68
469.98	271.97
470.35	271.33
470.72	270.69
471.08	270.04
471.45	269.46
471.82	268.88
472.18	268.29
472.55	267.84
472.92	267.31
473.28	266.78
473.65	266.30
474.02	265.85
474.38	265.45
474.75	265.07
475.11	264.66
475.48	264.33
475.85	264.11
476.21	263.82
476.58	263.63
476.94	263.48
477.31	263.29
477.67	263.14
478.04	263.03
478.41	262.99
478.77	262.98
479.14	262.90
479.50	262.85
479.87	262.87
480.23	262.92
480.60	262.98
480.96	263.07
481.33	263.27
481.69	263.43
482.06	263.60
482.42	263.77
482.79	264.03
483.15	264.33
483.52	264.68
483.88	265.06
484.25	265.42
484.61	265.86
484.98	266.29
485.34	266.86
485.71	267.47
486.07	268.04
486.44	268.59
486.80	269.27
487.17	270.03
487.53	270.83
487.90	271.69
488.26	272.60
488.62	273.58
488.99	274.54
489.35	275.57
489.72	276.70
490.08	277.88
490.44	279.08
490.81	280.42
491.17	281.71
491.54	283.18
491.90	284.73
492.26	286.38
492.63	288.11
492.99	289.86
493.36	291.72
493.72	293.81
494.08	295.94
494.45	298.19
494.81	300.53
495.17	302.98
495.54	305.53
495.90	308.22
496.26	311.03
496.63	313.98
496.99	317.09
497.35	320.36
497.72	323.76
498.08	327.30
498.44	330.98
498.80	334.91
499.17	338.93
499.53	343.06
499.89	347.39
500.26	351.89
500.62	356.54
500.98	361.45
501.34	366.42
501.71	371.70
502.07	377.12
502.43	382.69
502.79	388.45
503.16	394.48
503.52	400.71
503.88	407.09
504.24	413.68
504.60	420.60
504.97	427.71
505.33	434.99
505.69	442.65
506.05	450.42
506.41	458.30
506.78	466.39
507.14	474.85
507.50	483.53
507.86	492.46
508.22	501.64
508.59	510.85
508.95	520.43
509.31	530.24
509.67	540.38
510.03	550.70
510.39	561.30
510.75	572.10
511.12	583.00
511.48	594.32
511.84	605.77
512.20	617.27
512.56	629.21
512.92	641.42
513.28	653.72
513.64	666.18
514.00	678.91
514.37	691.89
514.73	704.86
515.09	717.84
515.45	731.17
515.81	744.74
516.17	758.73
516.53	772.87
516.89	787.03
517.25	801.13
517.61	815.54
517.97	829.98
518.33	844.43
518.69	859.21
519.05	874.17
519.41	889.34
519.77	904.82
520.13	920.27
520.49	935.65
520.85	951.17
521.21	966.91
521.57	983.14
521.93	999.00
522.29	1015.53
522.65	1031.85
523.01	1048.14
523.37	1064.31
523.73	1080.59
524.09	1096.70
524.45	1113.17
524.81	1129.96
525.17	1146.86
525.53	1163.83
525.89	1180.77
526.25	1197.71
526.61	1214.11
526.97	1231.03
527.33	1247.58
527.68	1264.17
528.04	1280.81
528.40	1297.48
528.76	1314.68
529.12	1331.44
529.48	1348.32
529.84	1364.39
530.20	1381.19
530.56	1398.39
530.91	1415.90
531.27	1432.61
531.63	1449.02
531.99	1465.63
532.35	1481.64
532.71	1497.69
533.07	1514.10
533.42	1530.07
533.78	1546.12
534.14	1562.58
534.50	1577.78
534.86	1593.88
535.21	1609.22
535.57	1625.29
535.93	1640.83
536.29	1655.70
536.65	1670.81
537.00	1685.74
537.36	1701.12
537.72	1715.63
538.08	1730.03
538.44	1743.86
538.79	1757.98
539.15	1772.02
539.51	1785.92
539.87	1800.44
540.22	1814.25
540.58	1827.98
540.94	1841.52
541.29	1854.72
541.65	1867.52
542.01	1881.09
542.37	1893.45
542.72	1906.10
543.08	1917.92
543.44	1930.53
543.79	1941.72
544.15	1952.72
544.51	1964.30
544.87	1975.35
545.22	1986.20
545.58	1996.45
545.94	2006.22
546.29	2016.12
546.65	2025.85
547.01	2034.99
547.36	2043.84
547.72	2052.37
548.07	2060.30
548.43	2068.41
548.79	2076.49
549.14	2084.03
549.50	2091.38
549.86	2098.97
550.21	2106.25
550.57	2113.26
550.92	2119.69
551.28	2126.84
551.64	2133.97
551.99	2140.54
552.35	2146.64
552.70	2152.80
553.06	2158.67
553.41	2165.02
553.77	2170.98
554.13	2177.14
554.48	2183.27
554.84	2188.40
555.19	2193.53
555.55	2198.57
555.90	2202.97
556.26	2207.71
556.61	2212.31
556.97	2216.37
557.32	2220.60
557.68	2224.56
558.03	2228.87
558.39	2232.54
558.74	2237.12
559.10	2240.99
559.45	2244.50
559.81	2248.73
560.16	2252.50
560.52	2255.66
560.87	2258.96
561.23	2261.54
561.58	2264.51
561.94	2266.94
562.29	2269.57
562.64	2272.26
563.00	2274.85
563.35	2278.19
563.71	2281.05
564.06	2284.19
564.42	2286.97
564.77	2289.25
565.12	2291.40
565.48	2293.04
565.83	2294.78
566.19	2295.84
566.54	2296.56
566.89	2297.65
567.25	2298.06
567.60	2299.29
567.96	2300.95
568.31	2301.74
568.66	2302.54
569.02	2302.79
569.37	2302.96
569.72	2303.31
570.08	2303.13
570.43	2302.85
570.78	2302.02
571.14	2300.30
571.49	2298.82
571.84	2298.29
572.20	2296.79
572.55	2295.63
572.90	2294.16
573.26	2292.50
573.61	2290.80
573.96	2288.79
574.31	2285.51
574.67	2282.23
575.02	2278.39
575.37	2274.72
575.72	2270.54
576.08	2267.21
576.43	2263.75
576.78	2259.94
577.13	2256.81
577.49	2253.58
577.84	2250.05
578.19	2246.26
578.54	2242.39
578.90	2237.94
579.25	2232.34
579.60	2227.42
579.95	2222.21
580.30	2216.88
580.66	2211.76
581.01	2206.46
581.36	2201.48
581.71	2197.24
582.06	2192.89
582.42	2188.28
582.77	2182.98
583.12	2178.38
583.47	2173.42
583.82	2168.30
584.17	2163.01
584.53	2157.29
584.88	2151.50
585.23	2145.54
585.58	2139.95
585.93	2134.69
586.28	2129.77
586.63	2124.50
586.98	2119.29
587.34	2114.61
587.69	2109.56
588.04	2104.08
588.39	2098.36
588.74	2091.78
589.09	2085.43
589.44	2078.35
589.79	2072.27
590.14	2066.60
590.49	2059.87
590.84	2053.41
591.19	2047.08
591.54	2040.45
591.89	2032.83
592.25	2025.93
592.60	2018.61
592.95	2010.94
593.30	2003.29
593.65	1995.64
594.00	1988.49
594.35	1981.20
594.70	1972.98
595.05	1965.61
595.40	1958.35
595.75	1950.75
596.10	1944.33
596.45	1937.47
596.80	1931.26
597.15	1924.50
597.50	1917.20
597.85	1910.81
598.19	1904.02
598.54	1897.00
598.89	1890.29
599.24	1884.43
599.59	1877.58
599.94	1871.32
600.29	1864.97
600.64	1858.42
600.99	1850.91
601.34	1844.00
601.69	1836.89
602.04	1829.90
602.39	1822.62
602.74	1815.68
603.08	1809.00
603.43	1802.23
603.78	1794.99
604.13	1787.74
604.48	1780.40
604.83	1773.54
605.18	1766.41
605.53	1758.36
605.87	1750.35
606.22	1743.09
606.57	1735.09
606.92	1727.91
607.27	1720.77
607.62	1713.81
607.96	1706.33
608.31	1699.76
608.66	1692.16
609.01	1684.65
609.36	1677.07
609.70	1669.07
610.05	1660.92
610.40	1653.14
610.75	1644.80
611.10	1637.12
611.44	1628.87
611.79	1620.88
612.14	1612.34
612.49	1603.36
612.83	1595.14
613.18	1587.01
613.53	1578.87
613.88	1570.44
614.22	1562.13
614.57	1553.57
614.92	1545.57
615.27	1538.10
615.61	1529.73
615.96	1521.72
616.31	1514.18
616.65	1506.88
617.00	1499.35
617.35	1491.74
617.70	1483.43
618.04	1474.90
618.39	1466.83
618.74	1459.13
619.08	1450.85
619.43	1443.23
619.78	1436.32
620.12	1429.07
620.47	1421.52
620.82	1413.43
621.16	1406.11
621.51	1398.68
621.85	1391.17
622.20	1382.64
622.55	1374.43
622.89	1366.63
623.24	1359.24
623.59	1351.87
623.93	1344.42
624.28	1337.20
624.62	1329.80
624.97	1322.72
625.32	1316.19
625.66	1309.09
626.01	1302.03
626.35	1294.66
626.70	1286.93
627.04	1279.14
627.39	1271.48
627.73	1264.22
628.08	1257.45
628.43	1250.12
628.77	1242.75
629.12	1235.24
629.46	1228.19
629.81	1220.83
630.15	1213.74
630.50	1206.31
630.84	1198.23
631.19	1190.40
631.53	1183.08
631.88	1175.62
632.22	1168.12
632.57	1160.91
632.91	1153.42
633.26	1146.00
633.60	1138.73
633.95	1131.85
634.29	1125.04
634.64	1118.46
634.98	1111.09
635.32	1103.98
635.67	1097.41
636.01	1090.82
636.36	1084.13
636.70	1077.69
637.05	1071.24
637.39	1064.81
637.73	1058.38
638.08	1052.54
638.42	1046.63
638.77	1040.14
639.11	1033.51
639.45	1027.12
639.80	1020.46
640.14	1014.14
640.49	1007.69
640.83	1001.46
641.17	995.13
641.52	988.85
641.86	982.57
642.20	976.92
642.55	970.63
642.89	964.22
643.23	957.77
643.58	951.95
643.92	945.66
644.26	939.48
644.61	933.50
644.95	927.37
645.29	920.77
645.64	913.97
645.98	907.71
646.32	901.98
646.66	895.99
647.01	890.23
647.35	884.56
647.69	878.67
648.04	873.15
648.38	867.31
648.72	861.22
649.06	855.09
649.41	849.18
649.75	843.18
650.09	837.18
650.43	831.35
650.78	825.26
651.12	819.39
651.46	813.72
651.80	807.98
652.14	802.66
652.49	797.26
652.83	792.15
653.17	786.42
653.51	780.65
653.85	775.26
654.20	769.60
654.54	763.67
654.88	758.05
655.22	752.22
655.56	746.62
655.90	741.26
656.25	736.02
656.59	730.65
656.93	725.66
657.27	720.60
657.61	715.21
657.95	710.05
658.29	705.07
658.64	699.90
658.98	694.64
659.32	689.24
659.66	684.16
660.00	678.90
660.34	674.06
660.68	669.27
661.02	664.25
661.36	659.56
661.70	655.08
662.05	650.73
662.39	646.43
662.73	642.04
663.07	637.65
663.41	633.20
663.75	628.78
664.09	624.23
664.43	619.88
664.77	615.84
665.11	611.69
665.45	607.54
665.79	603.52
666.13	599.43
666.47	595.41
666.81	591.19
667.15	587.12
667.49	583.29
667.83	579.54
668.17	575.61
668.51	571.58
668.85	567.57
669.19	563.78
669.53	559.88
669.87	556.04
670.21	552.41
670.55	548.81
670.89	545.41
671.23	542.01
671.57	538.54
671.91	535.02
672.25	531.56
672.58	528.15
672.92	524.80
673.26	521.73
673.60	518.57
673.94	515.55
674.28	512.63
674.62	509.68
674.96	506.53
675.30	503.72
675.64	500.88
675.97	498.18
676.31	495.36
676.65	492.54
676.99	489.83
677.33	486.99
677.67	484.23
678.01	481.20
678.34	478.23
678.68	475.37
679.02	472.55
679.36	469.79
679.70	467.12
680.04	464.36
680.37	461.36
680.71	458.58
681.05	456.02
681.39	453.41
681.73	450.76
682.06	448.27
682.40	445.73
682.74	443.23
683.08	440.66
683.42	438.12
683.75	435.64
684.09	433.16
684.43	430.73
684.77	428.29
685.10	425.99
685.44	423.79
685.78	421.54
686.12	419.35
686.45	417.07
686.79	414.73
687.13	412.56
687.46	410.55
687.80	408.46
688.14	406.23
688.48	404.14
688.81	401.92
689.15	399.79
689.49	397.70
689.82	395.63
690.16	393.61
690.50	391.68
690.83	389.76
691.17	387.82
691.51	385.95
691.84	384.10
692.18	382.16
692.52	380.17
692.85	378.24
693.19	376.38
693.52	374.61
693.86	372.86
694.20	371.11
694.53	369.31
694.87	367.48
695.21	365.70
695.54	363.90
695.88	362.18
696.21	360.49
696.55	358.84
696.88	357.18
697.22	355.52
697.56	353.90
697.89	352.26
698.23	350.62
698.56	348.97
698.90	347.40
699.23	345.77
699.57	344.23
699.90	342.67
700.24	341.14
700.58	339.60
700.91	338.06
701.25	336.61
701.58	335.21
701.92	333.83
702.25	332.47
702.59	331.10
702.92	329.79
703.26	328.45
703.59	327.14
703.93	325.97
704.26	324.76
704.60	323.45
704.93	322.16
705.26	320.98
705.60	319.85
705.93	318.73
706.27	317.73
706.60	316.70
706.94	315.64
707.27	314.47
707.61	313.44
707.94	312.43
708.27	311.34
708.61	310.28
708.94	309.31
709.28	308.39
709.61	307.47
709.94	306.55
710.28	305.55
710.61	304.58
710.95	303.48
711.28	302.55
711.61	301.63
711.95	300.75
712.28	299.77
712.61	298.76
712.95	297.81
713.28	296.92
713.61	296.05
713.95	295.18
714.28	294.41
714.61	293.56
714.95	292.77
715.28	291.94
715.61	291.08
715.95	290.25
716.28	289.40
716.61	288.56
716.95	287.75
717.28	287.03
717.61	286.25
717.94	285.53
718.28	284.77
718.61	284.07
718.94	283.39
719.27	282.76
719.61	282.13
719.94	281.49
720.27	280.78
720.60	280.13
720.94	279.52
721.27	278.95
721.60	278.37
721.93	277.75
722.27	277.21
722.60	276.67
722.93	276.10
723.26	275.56
723.59	274.98
723.93	274.46
724.26	273.91
724.59	273.43
724.92	272.93
725.25	272.44
725.59	271.92
725.92	271.38
726.25	270.92
726.58	270.45
726.91	269.97
727.24	269.50
727.57	269.04
727.91	268.54
728.24	268.06
728.57	267.57
728.90	267.14
729.23	266.63
729.56	266.19
729.89	265.77
730.22	265.28
730.55	264.89
730.89	264.42
731.22	263.97
731.55	263.49
731.88	263.06
732.21	262.60
732.54	262.17
732.87	261.80
733.20	261.39
733.53	261.03
733.86	260.62
734.19	260.20
734.52	259.81
734.85	259.49
735.18	259.05
735.51	258.68
735.84	258.32
736.17	258.02
736.50	257.60
736.83	257.33
737.16	256.98
737.49	256.61
737.82	256.27
738.15	255.95
738.48	255.63
738.81	255.30
739.14	254.96
739.47	254.62
739.80	254.27
740.13	253.93
740.46	253.60
740.79	253.28
741.12	253.00
741.45	252.66
741.78	252.33
742.11	252.05
742.44	251.72
742.77	251.43
743.10	251.09
743.43	250.79
743.75	250.40
744.08	250.23
744.41	249.97
744.74	249.68
745.07	249.37
745.40	249.12
745.73	248.87
746.06	248.61
746.39	248.35
746.71	248.05
747.04	247.79
747.37	247.49
747.70	247.28
748.03	247.02
748.36	246.82
748.68	246.57
749.01	246.30
749.34	246.09
749.67	245.85
750.00	245.61
750.33	245.45
750.65	245.20
750.98	244.90
751.31	244.64
751.64	244.47
751.97	244.34
752.29	244.14
752.62	243.89
752.95	243.70
753.28	243.52
753.60	243.36
753.93	243.21
754.26	243.05
754.59	242.80
754.91	242.62
755.24	242.44
755.57	242.26
755.90	242.08
756.22	241.88
756.55	241.71
756.88	241.54
757.20	241.33
757.53	241.19
757.86	241.02
758.19	240.90
758.51	240.72
758.84	240.51
759.17	240.33
759.49	240.18
759.82	240.05
760.15	239.89
760.47	239.76
760.80	239.54
761.13	239.43
761.45	239.31
761.78	239.15
762.11	239.01
762.43	238.85
762.76	238.75
763.08	238.62
763.41	238.48
763.74	238.36
764.06	238.22
764.39	238.05
764.71	237.92
765.04	237.77
765.37	237.64
765.69	237.52
766.02	237.39
766.34	237.27
766.67	237.12
767.00	237.04
767.32	236.93
767.65	236.88
767.97	236.73
768.30	236.61
768.62	236.51
768.95	236.37
769.27	236.28
769.60	236.18
769.92	236.03
770.25	235.91
770.57	235.76
770.90	235.69
771.22	235.58
771.55	235.49
771.87	235.41
772.20	235.30
772.52	235.28
772.85	235.30
773.17	235.22
773.50	235.12
773.82	235.02
774.15	234.91
774.47	234.78
774.80	234.72
775.12	234.62
775.45	234.54
775.77	234.46
776.09	234.38
776.42	234.28
776.74	234.26
777.07	234.20
777.39	234.14
777.72	234.05
778.04	233.99
778.36	233.90
778.69	233.84
779.01	233.78
779.33	233.64
779.66	233.45
779.98	233.33
780.31	233.26
780.63	233.18
780.95	233.12
781.28	233.04
781.60	232.94
781.92	232.88
782.25	232.85
782.57	232.79
782.89	232.73
783.22	232.68
783.54	232.62
783.86	232.58
784.19	232.52
784.51	232.50
784.83	232.43
785.16	232.37
785.48	232.32
785.80	232.28
786.12	232.26
786.45	232.23
786.77	232.22
787.09	232.18
787.42	232.15
787.74	232.11
788.06	232.09
788.38	232.05
788.71	232.02
789.03	231.93
789.35	231.92
789.67	231.87
789.99	231.83
790.32	231.74
790.64	231.69
790.96	231.71
791.28	231.63
791.61	231.63
791.93	231.60
792.25	231.55
792.57	231.57
792.89	231.47
793.21	231.43
793.54	231.38
793.86	231.32
794.18	231.29
794.50	231.25
794.82	231.18
795.14	231.16
795.47	231.13
795.79	231.12
796.11	231.04
796.43	231.02
796.75	230.98
797.07	230.96
797.39	230.98
797.71	230.93
798.04	230.93
798.36	230.91
798.68	230.89
799.00	230.86
799.32	230.78
799.64	230.78
799.96	230.79
800.28	230.79
800.60	230.79
800.92	230.75
801.24	230.70
801.56	230.71
801.89	230.70
802.21	230.69
802.53	230.65
802.85	230.63
803.17	230.63
803.49	230.56
803.81	230.51
804.13	230.42
804.45	230.33
804.77	230.31
805.09	230.26
805.41	230.22
805.73	230.20
806.05	230.15
806.37	230.11
806.69	230.06
807.01	230.04
807.33	230.00
807.65	229.95
807.97	229.97
808.28	229.93
808.60	229.87
808.92	229.82
809.24	229.85
809.56	229.81
809.88	229.74
810.20	229.77
810.52	229.78
810.84	229.73
811.16	229.70
811.48	229.65
811.80	229.64
812.12	229.60
812.43	229.58
812.75	229.55
813.07	229.52
813.39	229.47
813.71	229.42
814.03	229.38
814.35	229.32
814.67	229.26
814.98	229.23
815.30	229.21
815.62	229.16
815.94	229.05
816.26	229.06
816.58	229.02
816.89	229.00
817.21	228.96
817.53	228.93
817.85	228.91
818.17	228.87
818.48	228.82
818.80	228.82
819.12	228.78
819.44	228.75
819.76	228.71
820.07	228.69
820.39	228.66
820.71	228.67
821.03	228.66
821.34	228.62
821.66	228.64
821.98	228.61
822.30	228.61
822.61	228.67
822.93	228.61
823.25	228.60
823.57	228.57
823.88	228.58
824.20	228.58
824.52	228.59
824.83	228.61
825.15	228.62
825.47	228.63
825.79	228.62
826.10	228.61
826.42	228.60
826.74	228.61
827.05	228.57
827.37	228.51
827.69	228.54
828.00	228.55
828.32	228.52
828.64	228.48
828.95	228.55
829.27	228.53
829.58	228.56
829.90	228.57
830.22	228.55
830.53	228.55
830.85	228.54
831.17	228.55
831.48	228.52
831.80	228.50
832.11	228.46
832.43	228.46
832.75	228.45
833.06	228.52
833.38	228.52
833.69	228.53
834.01	228.56
834.32	228.53
834.64	228.50
834.96	228.51
835.27	228.52
835.59	228.45
835.90	228.43
836.22	228.39
836.53	228.37
836.85	228.39
837.16	228.45
837.48	228.46
837.79	228.45
838.11	228.45
838.42	228.43
838.74	228.45
839.05	228.42
839.37	228.41
839.68	228.32
840.00	228.27
840.31	228.29
840.63	228.26
840.94	228.27
841.26	228.27
841.57	228.25
841.88	228.24
842.20	228.21
842.51	228.16
842.83	228.14
843.14	228.22
843.46	228.19
843.77	228.11
844.08	228.10
844.40	228.03
844.71	228.01
845.03	228.00
845.34	227.97
845.65	227.96
845.97	227.95
846.28	227.96
846.60	227.96
846.91	227.94
847.22	227.93
847.54	227.92
847.85	227.90
848.16	227.87
848.48	227.87
848.79	227.91
849.10	227.91
849.42	227.94
849.73	227.85
850.04	227.82
850.36	227.79
850.67	227.80
850.98	227.82
851.30	227.85
851.61	227.84
851.92	227.82
852.23	227.86
852.55	227.86
852.86	227.87
853.17	227.88
853.49	227.87
853.80	227.88
854.11	227.90
854.42	227.91
854.74	227.91
855.05	227.91
855.36	227.88
855.67	227.88
855.99	227.83
856.30	227.92
856.61	227.91
856.92	227.93
857.23	227.89
857.55	227.88
857.86	227.82
858.17	227.83
858.48	227.84
858.79	227.80
859.11	227.81
859.42	227.77
859.73	227.75
860.04	227.75
860.35	227.73
860.66	227.70
860.98	227.74
861.29	227.78
861.60	227.74
861.91	227.78
862.22	227.77
862.53	227.81
862.84	227.70
863.16	227.72
863.47	227.69
863.78	227.70
864.09	227.73
864.40	227.78
864.71	227.80
865.02	227.82
865.33	227.84
865.64	227.83
865.95	227.85
866.27	227.91
866.58	227.90
866.89	227.91
867.20	227.88
867.51	227.84
867.82	227.85
868.13	227.91
868.44	227.90
868.75	227.92
869.06	227.92
869.37	227.96
869.68	227.96
869.99	228.00
870.30	227.99
870.61	227.98
870.92	227.94
871.23	227.92
871.54	227.92
871.85	227.93
872.16	227.93
872.47	227.94
872.78	227.91
873.09	227.93
873.40	227.93
873.71	227.92
874.02	227.91
874.33	227.87
874.64	227.85
874.95	227.84
875.26	227.79
875.56	227.80
875.87	227.77
876.18	227.77
876.49	227.84
876.80	227.89
877.11	227.85
877.42	227.88
877.73	227.87
878.04	227.87
878.35	227.86
878.66	227.83
878.96	227.82
879.27	227.77
879.58	227.76
879.89	227.74
880.20	227.80
880.51	227.79
880.82	227.80
881.12	227.79
881.43	227.78
881.74	227.79
882.05	227.73
882.36	227.74
882.67	227.70
882.97	227.57
883.28	227.53
883.59	227.53
883.90	227.50
884.21	227.51
884.51	227.46
884.82	227.47
885.13	227.47
885.44	227.48
885.74	227.49
886.05	227.50
886.36	227.49
886.67	227.47
886.98	227.53
887.28	227.50
887.59	227.48
887.90	227.44
888.20	227.45
888.51	227.48
888.82	227.44
889.13	227.47
889.43	227.57
889.74	227.54
890.05	227.52
890.35	227.52
890.66	227.53
890.97	227.50
891.28	227.48
891.58	227.47
891.89	227.46
892.20	227.45
892.50	227.44
892.81	227.46
893.12	227.42
893.42	227.37
893.73	227.41
894.04	227.42
894.34	227.45
894.65	227.40
894.95	227.40
895.26	227.41
895.57	227.44
895.87	227.36
896.18	227.40
896.48	227.43
896.79	227.42
897.10	227.43
897.40	227.45
897.71	227.44
898.01	227.42
898.32	227.43
898.63	227.42
898.93	227.40
899.24	227.39
899.54	227.40
899.85	227.37
900.15	227.35
900.46	227.34
900.76	227.35
901.07	227.38
901.38	227.36
901.68	227.38
901.99	227.32
902.29	227.34
902.60	227.32
902.90	227.31
903.21	227.35
903.51	227.33
903.82	227.37
904.12	227.37
904.43	227.38
904.73	227.37
905.03	227.42
905.34	227.51
905.64	227.50
905.95	227.51
906.25	227.54
906.56	227.52
906.86	227.51
907.17	227.51
907.47	227.51
907.77	227.51
908.08	227.51
908.38	227.52
908.69	227.57
908.99	227.58
909.30	227.58
909.60	227.53
909.90	227.51
910.21	227.50
910.51	227.47
910.81	227.51
911.12	227.51
911.42	227.47
911.73	227.36
912.03	227.36
912.33	227.38
912.64	227.39
912.94	227.37
913.24	227.35
913.55	227.32
913.85	227.30
914.15	227.34
914.46	227.34
914.76	227.34
915.06	227.26
915.37	227.25
915.67	227.24
915.97	227.28
916.27	227.28
916.58	227.27
916.88	227.26
917.18	227.20
917.49	227.27
917.79	227.28
918.09	227.31
918.39	227.32
918.70	227.29
919.00	227.29
919.30	227.35
919.60	227.36
919.91	227.37
920.21	227.38
920.51	227.34
920.81	227.32
921.12	227.34
921.42	227.35
921.72	227.36
922.02	227.36
922.32	227.37
922.63	227.35
922.93	227.37
923.23	227.41
923.53	227.44
923.83	227.36
924.13	227.35
924.44	227.34
924.74	227.34
925.04	227.36
925.34	227.35
925.64	227.32
925.94	227.32
926.24	227.36
926.55	227.39
926.85	227.38
927.15	227.39
927.45	227.37
927.75	227.38
928.05	227.36
928.35	227.37
928.65	227.36
928.95	227.40
929.26	227.42
929.56	227.42
929.86	227.45
930.16	227.46
930.46	227.47
930.76	227.50
931.06	227.48
931.36	227.46
931.66	227.47
931.96	227.48
932.26	227.49
932.56	227.44
932.86	227.41
933.16	227.42
933.46	227.40
933.76	227.40
934.06	227.42
934.36	227.47
934.66	227.47
934.96	227.48
935.26	227.48
935.56	227.46
935.86	227.45
936.16	227.40
936.46	227.38
936.76	227.41
937.06	227.38
937.36	227.39
937.66	227.41
937.96	227.41
938.26	227.39
938.56	227.39
938.86	227.44
939.16	227.49
939.46	227.53
939.76	227.55
940.06	227.55
940.35	227.53
940.65	227.48
940.95	227.48
941.25	227.44
941.55	227.42
941.85	227.41
942.15	227.42
942.45	227.47
942.75	227.48
943.04	227.44
943.34	227.50
943.64	227.48
943.94	227.46
944.24	227.43
944.54	227.45
944.84	227.43
945.13	227.40
945.43	227.38
945.73	227.36
946.03	227.36
946.33	227.34
946.62	227.34
946.92	227.33
947.22	227.34
947.52	227.36
947.82	227.38
948.11	227.41
948.41	227.39
948.71	227.35
949.01	227.35
949.31	227.36
949.60	227.29
949.90	227.33
950.20	227.35
950.50	227.37
950.79	227.32
951.09	227.34
951.39	227.30
951.69	227.29
951.98	227.25
952.28	227.22
952.58	227.23
952.87	227.23
953.17	227.26
953.47	227.25
953.76	227.23
954.06	227.18
954.36	227.13
954.66	227.09
954.95	227.13
955.25	227.15
955.55	227.15
955.84	227.16
956.14	227.13
956.44	227.11
956.73	227.07
957.03	227.10
957.32	227.09
957.62	227.10
957.92	227.10
958.21	227.14
958.51	227.25
958.81	227.26
959.10	227.28
959.40	227.27
959.69	227.22
959.99	227.23
960.29	227.23
960.58	227.26
960.88	227.31
961.17	227.27
961.47	227.28
961.76	227.27
962.06	227.25
962.36	227.26
962.65	227.29
962.95	227.32
963.24	227.29
963.54	227.31
963.83	227.31
964.13	227.32
964.42	227.27
964.72	227.19
965.01	227.18
965.31	227.16
965.60	227.13
965.90	227.24
966.19	227.24
966.49	227.26
966.78	227.21
967.08	227.19
967.37	227.20
967.67	227.20
967.96	227.22
968.26	227.22
968.55	227.22
968.85	227.20
969.14	227.17
969.43	227.16
969.73	227.15
970.02	227.16
970.32	227.16
970.61	227.16
970.91	227.17
971.20	227.16
971.49	227.14
971.79	227.17
972.08	227.11
972.38	227.11
972.67	227.13
972.96	227.15
973.26	227.16
973.55	227.17
973.85	227.15
974.14	227.12
974.43	227.14
974.73	227.13
975.02	227.15
975.31	227.17
975.61	227.20
975.90	227.21
976.19	227.20
976.49	227.21
976.78	227.22
977.07	227.19
977.37	227.18
977.66	227.21
977.95	227.21
978.24	227.20
978.54	227.18
978.83	227.16
979.12	227.17
979.42	227.18
979.71	227.17
980.00	227.15
980.29	227.20
980.59	227.17
980.88	227.20
981.17	227.16
981.46	227.16
981.76	227.14
982.05	227.14
982.34	227.10
982.63	227.09
982.93	227.11
983.22	227.15
983.51	227.17
983.80	227.19
984.09	227.19
984.39	227.18
984.68	227.18
984.97	227.21
985.26	227.22
985.55	227.20
985.85	227.17
986.14	227.19
986.43	227.15
986.72	227.19
987.01	227.17
987.30	227.17
987.59	227.16
987.89	227.15
988.18	227.15
988.47	227.18
988.76	227.17
989.05	227.13
989.34	227.10
989.63	227.11
989.92	227.07
990.22	227.05
990.51	227.06
990.80	227.08
991.09	227.10
991.38	227.10
991.67	227.09
991.96	227.12
992.25	227.12
992.54	227.11
992.83	227.09
993.12	227.09
993.41	227.13
993.70	227.14
993.99	227.16
994.28	227.16
994.58	227.20
994.87	227.20
995.16	227.22
995.45	227.22
995.74	227.21
996.03	227.25
996.32	227.28
996.61	227.30
996.90	227.30
997.19	227.28
997.48	227.28
997.77	227.25
998.06	227.22
998.34	227.23
998.63	227.24
998.92	227.24
999.21	227.27
999.50	227.25
999.79	227.26
1000.08	227.26
1000.37	227.30
1000.66	227.26
1000.95	227.29
1001.24	227.30
1001.53	227.33
1001.82	227.31
1002.11	227.28
1002.40	227.29
1002.68	227.29
1002.97	227.36
1003.26	227.34
1003.55	227.32
1003.84	227.38
1004.13	227.47
1004.42	227.44
1004.71	227.45
1004.99	227.44
1005.28	227.41
1005.57	227.42
1005.86	227.41
1006.15	227.40
1006.44	227.36
1006.72	227.39
1007.01	227.37
1007.30	227.37
1007.59	227.35
1007.88	227.36
1008.17	227.34
1008.45	227.30
1008.74	227.27
1009.03	227.22
1009.32	227.25
1009.60	227.25
1009.89	227.22
1010.18	227.18
1010.47	227.20
1010.76	227.18
1011.04	227.17
1011.33	227.23
1011.62	227.24
1011.91	227.24
1012.19	227.25
1012.48	227.27
1012.77	227.24
1013.05	227.28
1013.34	227.25
1013.63	227.23
1013.92	227.26
1014.20	227.26
1014.49	227.28
1014.78	227.29
1015.06	227.24
1015.35	227.22
1015.64	227.25
1015.92	227.25
1016.21	227.20
1016.50	227.17
1016.78	227.21
1017.07	227.24
1017.36	227.21
1017.64	227.20
1017.93	227.18
1018.22	227.16
1018.50	227.15
1018.79	227.14
1019.08	227.08
1019.36	227.13
1019.65	227.13
1019.93	227.13
1020.22	227.14
1020.51	227.18
1020.79	227.18
1021.08	226.99
1021.36	227.06
1021.65	226.66
1021.94	226.92
1022.22	227.50
1022.51	226.95
1022.79	227.33
1023.08	227.11
1023.36	228.40
1023.65	227.12
>>>>>End Processed Spectral Data<<<<<
