SpectraSuite Data File
++++++++++++++++++++++++++++++++++++
Date: Fri Feb 01 16:23:18 EST 2013
User: group
Dark Spectrum Present: No
Reference Spectrum Present: No
Number of Sampled Component Spectra: 1
Spectrometers: USB2E7196
Integration Time (usec): 35000 (USB2E7196)
Spectra Averaged: 100 (USB2E7196)
Boxcar Smoothing: 10 (USB2E7196)
Correct for Electrical Dark: No (USB2E7196)
Strobe/Lamp Enabled: No (USB2E7196)
Correct for Detector Non-linearity: No (USB2E7196)
Correct for Stray Light: No (USB2E7196)
Number of Pixels in Processed Spectrum: 2048
>>>>>Begin Processed Spectral Data<<<<<
339.09	0.00
339.48	214.56
339.86	215.77
340.24	217.79
340.63	218.68
341.01	221.40
341.39	221.25
341.78	222.34
342.16	223.43
342.54	224.18
342.93	212.69
343.31	223.44
343.69	223.98
344.07	224.43
344.46	224.80
344.84	225.19
345.22	225.42
345.60	225.68
345.99	225.87
346.37	226.03
346.75	226.13
347.13	226.20
347.52	226.24
347.90	226.31
348.28	226.33
348.66	226.39
349.05	226.38
349.43	226.39
349.81	226.42
350.19	226.44
350.57	226.49
350.96	226.55
351.34	226.62
351.72	226.66
352.10	226.75
352.48	226.83
352.87	226.87
353.25	226.93
353.63	226.97
354.01	227.02
354.39	227.07
354.77	227.15
355.15	227.27
355.54	227.35
355.92	227.39
356.30	227.44
356.68	227.52
357.06	227.59
357.44	227.65
357.82	227.72
358.20	227.82
358.58	227.87
358.97	227.95
359.35	228.02
359.73	228.12
360.11	228.20
360.49	228.26
360.87	228.30
361.25	228.34
361.63	228.43
362.01	228.48
362.39	228.50
362.77	228.53
363.15	228.54
363.53	228.55
363.91	228.61
364.29	228.64
364.67	228.59
365.05	228.59
365.43	228.57
365.81	228.56
366.19	228.57
366.57	228.62
366.95	228.59
367.33	228.53
367.71	228.53
368.09	228.53
368.47	228.51
368.85	228.46
369.23	228.46
369.61	228.37
369.99	228.37
370.37	228.37
370.75	228.37
371.13	228.32
371.51	228.28
371.89	228.25
372.27	228.19
372.65	228.14
373.03	228.08
373.41	228.05
373.78	228.01
374.16	227.92
374.54	227.81
374.92	227.75
375.30	227.72
375.68	227.62
376.06	227.56
376.44	227.48
376.82	227.45
377.19	227.36
377.57	227.31
377.95	227.22
378.33	227.12
378.71	227.00
379.09	226.94
379.47	226.90
379.84	226.81
380.22	226.73
380.60	226.65
380.98	226.60
381.36	226.54
381.73	226.44
382.11	226.40
382.49	226.34
382.87	226.25
383.25	226.21
383.62	226.26
384.00	226.16
384.38	226.11
384.76	226.11
385.13	226.10
385.51	226.06
385.89	225.96
386.27	225.94
386.64	225.92
387.02	225.89
387.40	225.81
387.78	225.75
388.15	225.77
388.53	225.72
388.91	225.71
389.29	225.67
389.66	225.67
390.04	225.62
390.42	225.61
390.79	225.61
391.17	225.60
391.55	225.48
391.92	225.47
392.30	225.45
392.68	225.41
393.05	225.39
393.43	225.40
393.81	225.45
394.18	225.42
394.56	225.40
394.94	225.44
395.31	225.47
395.69	225.54
396.06	225.57
396.44	225.64
396.82	225.63
397.19	225.69
397.57	225.74
397.95	225.82
398.32	225.87
398.70	225.92
399.07	226.01
399.45	226.07
399.82	226.15
400.20	226.23
400.58	226.32
400.95	226.37
401.33	226.45
401.70	226.62
402.08	226.72
402.45	226.81
402.83	226.91
403.20	227.02
403.58	227.12
403.95	227.23
404.33	227.34
404.71	227.47
405.08	227.65
405.46	227.80
405.83	227.95
406.21	228.11
406.58	228.26
406.96	228.40
407.33	228.57
407.70	228.81
408.08	229.04
408.45	229.23
408.83	229.46
409.20	229.68
409.58	229.82
409.95	230.08
410.33	230.39
410.70	230.66
411.08	230.93
411.45	231.21
411.82	231.52
412.20	231.85
412.57	232.27
412.95	232.58
413.32	232.96
413.69	233.36
414.07	233.77
414.44	234.27
414.82	234.73
415.19	235.31
415.56	235.81
415.94	236.37
416.31	237.01
416.68	237.66
417.06	238.39
417.43	239.11
417.81	239.89
418.18	240.63
418.55	241.45
418.93	242.33
419.30	243.25
419.67	244.16
420.04	245.13
420.42	246.09
420.79	247.29
421.16	248.45
421.54	249.64
421.91	250.87
422.28	252.11
422.66	253.44
423.03	254.71
423.40	256.03
423.77	257.44
424.15	258.87
424.52	260.35
424.89	261.94
425.26	263.47
425.64	264.92
426.01	266.54
426.38	268.21
426.75	269.86
427.13	271.61
427.50	273.42
427.87	275.29
428.24	277.17
428.61	278.90
428.99	280.81
429.36	282.90
429.73	284.93
430.10	286.92
430.47	288.97
430.85	291.05
431.22	293.28
431.59	295.70
431.96	297.95
432.33	300.45
432.70	302.78
433.08	305.56
433.45	308.16
433.82	310.76
434.19	313.61
434.56	316.43
434.93	319.05
435.30	321.68
435.68	324.57
436.05	327.37
436.42	330.14
436.79	332.64
437.16	335.31
437.53	338.15
437.90	340.98
438.27	343.69
438.64	346.52
439.01	349.08
439.38	351.26
439.75	353.39
440.13	355.77
440.50	358.07
440.87	359.91
441.24	361.86
441.61	363.96
441.98	365.44
442.35	367.25
442.72	369.08
443.09	370.87
443.46	371.84
443.83	372.45
444.20	372.94
444.57	373.81
444.94	374.15
445.31	374.50
445.68	374.80
446.05	374.85
446.42	374.51
446.79	374.09
447.16	373.61
447.53	373.30
447.90	372.20
448.27	371.08
448.64	369.50
449.01	368.34
449.37	366.38
449.74	364.52
450.11	362.23
450.48	359.78
450.85	357.25
451.22	355.13
451.59	353.10
451.96	351.14
452.33	348.52
452.70	346.11
453.07	343.30
453.43	340.46
453.80	337.72
454.17	335.03
454.54	332.50
454.91	329.83
455.28	327.20
455.65	324.74
456.02	322.28
456.38	320.14
456.75	317.49
457.12	315.29
457.49	313.07
457.86	310.95
458.23	309.12
458.59	307.11
458.96	305.06
459.33	303.24
459.70	301.42
460.07	299.95
460.43	298.26
460.80	296.62
461.17	295.20
461.54	293.77
461.91	292.36
462.27	290.95
462.64	289.69
463.01	288.34
463.38	287.04
463.74	285.71
464.11	284.57
464.48	283.57
464.85	282.45
465.21	281.60
465.58	280.69
465.95	279.59
466.32	278.64
466.68	277.70
467.05	276.83
467.42	275.93
467.78	275.00
468.15	274.11
468.52	273.47
468.88	272.61
469.25	271.83
469.62	271.23
469.98	270.57
470.35	269.95
470.72	269.36
471.08	268.72
471.45	268.19
471.82	267.67
472.18	267.10
472.55	266.66
472.92	266.10
473.28	265.63
473.65	265.18
474.02	264.76
474.38	264.43
474.75	264.05
475.11	263.75
475.48	263.53
475.85	263.30
476.21	263.08
476.58	262.89
476.94	262.71
477.31	262.58
477.67	262.43
478.04	262.31
478.41	262.27
478.77	262.29
479.14	262.21
479.50	262.24
479.87	262.29
480.23	262.41
480.60	262.51
480.96	262.62
481.33	262.85
481.69	263.06
482.06	263.28
482.42	263.54
482.79	263.80
483.15	264.09
483.52	264.48
483.88	264.79
484.25	265.20
484.61	265.65
484.98	266.05
485.34	266.62
485.71	267.20
486.07	267.82
486.44	268.40
486.80	269.13
487.17	269.84
487.53	270.67
487.90	271.54
488.26	272.50
488.62	273.49
488.99	274.46
489.35	275.51
489.72	276.63
490.08	277.80
490.44	279.01
490.81	280.35
491.17	281.70
491.54	283.23
491.90	284.75
492.26	286.41
492.63	288.12
492.99	289.90
493.36	291.78
493.72	293.80
494.08	295.93
494.45	298.20
494.81	300.55
495.17	302.98
495.54	305.53
495.90	308.19
496.26	311.00
496.63	313.95
496.99	317.06
497.35	320.32
497.72	323.73
498.08	327.30
498.44	330.98
498.80	334.91
499.17	338.95
499.53	343.10
499.89	347.45
500.26	352.01
500.62	356.69
500.98	361.67
501.34	366.76
501.71	372.08
502.07	377.53
502.43	383.15
502.79	389.01
503.16	395.07
503.52	401.37
503.88	407.75
504.24	414.38
504.60	421.29
504.97	428.38
505.33	435.70
505.69	443.42
506.05	451.19
506.41	459.13
506.78	467.31
507.14	475.87
507.50	484.65
507.86	493.67
508.22	502.86
508.59	512.12
508.95	521.71
509.31	531.54
509.67	541.60
510.03	551.89
510.39	562.41
510.75	573.18
511.12	584.02
511.48	595.35
511.84	606.76
512.20	618.28
512.56	630.22
512.92	642.46
513.28	654.83
513.64	667.27
514.00	679.93
514.37	692.85
514.73	705.90
515.09	718.88
515.45	732.20
515.81	745.86
516.17	759.77
516.53	773.91
516.89	788.03
517.25	802.27
517.61	816.62
517.97	831.09
518.33	845.53
518.69	860.41
519.05	875.38
519.41	890.52
519.77	906.10
520.13	921.60
520.49	936.98
520.85	952.29
521.21	968.07
521.57	984.25
521.93	1000.02
522.29	1016.34
522.65	1032.59
523.01	1048.71
523.37	1064.77
523.73	1080.82
524.09	1096.81
524.45	1113.10
524.81	1129.65
525.17	1146.35
525.53	1163.19
525.89	1179.99
526.25	1196.64
526.61	1212.93
526.97	1229.69
527.33	1246.01
527.68	1262.48
528.04	1278.81
528.40	1295.30
528.76	1312.17
529.12	1328.71
529.48	1345.55
529.84	1361.46
530.20	1377.94
530.56	1394.92
530.91	1412.06
531.27	1428.81
531.63	1445.22
531.99	1461.68
532.35	1477.51
532.71	1493.35
533.07	1509.54
533.42	1525.44
533.78	1541.50
534.14	1557.75
534.50	1573.08
534.86	1588.87
535.21	1604.00
535.57	1619.78
535.93	1635.24
536.29	1649.98
536.65	1664.91
537.00	1679.48
537.36	1694.68
537.72	1709.18
538.08	1723.50
538.44	1737.19
538.79	1750.98
539.15	1764.46
539.51	1778.19
539.87	1792.43
540.22	1806.16
540.58	1819.79
540.94	1832.90
541.29	1845.66
541.65	1858.25
542.01	1871.31
542.37	1883.59
542.72	1895.90
543.08	1907.57
543.44	1919.81
543.79	1930.96
544.15	1941.94
544.51	1953.52
544.87	1964.35
545.22	1974.96
545.58	1985.04
545.94	1994.77
546.29	2004.55
546.65	2014.42
547.01	2023.55
547.36	2032.31
547.72	2040.75
548.07	2048.55
548.43	2056.63
548.79	2064.67
549.14	2072.13
549.50	2079.39
549.86	2086.88
550.21	2094.27
550.57	2101.54
550.92	2107.98
551.28	2115.06
551.64	2122.03
551.99	2128.52
552.35	2134.62
552.70	2140.94
553.06	2147.03
553.41	2153.36
553.77	2159.40
554.13	2165.31
554.48	2171.47
554.84	2176.87
555.19	2182.20
555.55	2187.44
555.90	2192.03
556.26	2196.91
556.61	2201.58
556.97	2205.91
557.32	2210.21
557.68	2214.13
558.03	2218.40
558.39	2222.28
558.74	2226.85
559.10	2230.80
559.45	2234.46
559.81	2238.86
560.16	2242.65
560.52	2245.79
560.87	2249.31
561.23	2252.01
561.58	2255.31
561.94	2257.79
562.29	2260.05
562.64	2262.73
563.00	2265.22
563.35	2268.60
563.71	2271.57
564.06	2274.87
564.42	2277.74
564.77	2280.18
565.12	2282.65
565.48	2284.50
565.83	2286.36
566.19	2287.67
566.54	2288.46
566.89	2289.56
567.25	2290.20
567.60	2291.45
567.96	2293.13
568.31	2293.85
568.66	2294.91
569.02	2295.31
569.37	2295.58
569.72	2296.61
570.08	2296.80
570.43	2296.90
570.78	2296.44
571.14	2295.04
571.49	2293.70
571.84	2293.46
572.20	2292.35
572.55	2291.38
572.90	2289.90
573.26	2288.60
573.61	2287.01
573.96	2285.41
574.31	2282.59
574.67	2279.54
575.02	2276.03
575.37	2272.77
575.72	2269.06
576.08	2265.79
576.43	2262.54
576.78	2259.00
577.13	2255.87
577.49	2252.71
577.84	2249.25
578.19	2245.61
578.54	2242.14
578.90	2237.99
579.25	2232.43
579.60	2227.47
579.95	2222.48
580.30	2217.45
580.66	2212.37
581.01	2207.41
581.36	2202.42
581.71	2198.22
582.06	2193.80
582.42	2189.43
582.77	2184.24
583.12	2179.79
583.47	2175.23
583.82	2170.34
584.17	2165.19
584.53	2159.59
584.88	2154.09
585.23	2148.39
585.58	2142.84
585.93	2137.37
586.28	2132.70
586.63	2127.73
586.98	2122.85
587.34	2118.08
587.69	2113.17
588.04	2107.85
588.39	2102.25
588.74	2095.86
589.09	2089.77
589.44	2083.11
589.79	2077.20
590.14	2071.62
590.49	2065.13
590.84	2058.81
591.19	2052.90
591.54	2046.50
591.89	2039.37
592.25	2032.58
592.60	2025.38
592.95	2017.97
593.30	2010.66
593.65	2003.12
594.00	1996.07
594.35	1988.85
594.70	1980.86
595.05	1973.82
595.40	1966.66
595.75	1959.21
596.10	1953.16
596.45	1946.49
596.80	1940.44
597.15	1933.90
597.50	1926.94
597.85	1920.46
598.19	1913.70
598.54	1906.34
598.89	1899.71
599.24	1893.88
599.59	1887.25
599.94	1881.12
600.29	1874.79
600.64	1868.26
600.99	1860.79
601.34	1854.07
601.69	1847.09
602.04	1840.37
602.39	1833.12
602.74	1826.29
603.08	1819.60
603.43	1812.89
603.78	1805.68
604.13	1798.42
604.48	1791.09
604.83	1784.06
605.18	1777.11
605.53	1769.17
605.87	1761.41
606.22	1754.22
606.57	1746.14
606.92	1738.85
607.27	1731.79
607.62	1724.90
607.96	1717.60
608.31	1711.03
608.66	1703.35
609.01	1695.84
609.36	1688.31
609.70	1680.40
610.05	1672.47
610.40	1664.85
610.75	1656.48
611.10	1648.82
611.44	1640.49
611.79	1632.50
612.14	1623.79
612.49	1614.60
612.83	1606.32
613.18	1598.08
613.53	1590.06
613.88	1581.55
614.22	1573.25
614.57	1564.60
614.92	1556.60
615.27	1549.05
615.61	1540.67
615.96	1532.62
616.31	1525.05
616.65	1517.61
617.00	1509.87
617.35	1502.09
617.70	1493.63
618.04	1485.16
618.39	1476.82
618.74	1469.03
619.08	1460.65
619.43	1453.18
619.78	1446.36
620.12	1439.16
620.47	1431.68
620.82	1423.34
621.16	1415.99
621.51	1408.35
621.85	1400.79
622.20	1392.29
622.55	1383.97
622.89	1376.24
623.24	1368.62
623.59	1361.14
623.93	1353.61
624.28	1346.44
624.62	1338.90
624.97	1331.84
625.32	1325.03
625.66	1318.11
626.01	1311.12
626.35	1303.65
626.70	1295.80
627.04	1288.05
627.39	1280.26
627.73	1272.90
628.08	1266.16
628.43	1258.85
628.77	1251.48
629.12	1243.88
629.46	1236.61
629.81	1229.13
630.15	1221.85
630.50	1214.45
630.84	1206.25
631.19	1198.38
631.53	1190.85
631.88	1183.30
632.22	1175.66
632.57	1168.32
632.91	1160.68
633.26	1153.16
633.60	1145.79
633.95	1138.84
634.29	1131.81
634.64	1125.12
634.98	1117.66
635.32	1110.38
635.67	1103.78
636.01	1097.20
636.36	1090.35
636.70	1083.79
637.05	1077.20
637.39	1070.70
637.73	1064.24
638.08	1058.36
638.42	1052.29
638.77	1045.88
639.11	1039.23
639.45	1032.71
639.80	1026.05
640.14	1019.68
640.49	1013.24
640.83	1006.99
641.17	1000.64
641.52	994.27
641.86	987.74
642.20	981.85
642.55	975.59
642.89	969.11
643.23	962.48
643.58	956.65
643.92	950.55
644.26	944.51
644.61	938.44
644.95	932.33
645.29	925.74
645.64	919.03
645.98	912.67
646.32	907.00
646.66	901.12
647.01	895.29
647.35	889.67
647.69	883.72
648.04	878.13
648.38	872.38
648.72	866.38
649.06	860.36
649.41	854.59
649.75	848.66
650.09	842.73
650.43	837.02
650.78	830.92
651.12	824.93
651.46	819.19
651.80	813.49
652.14	808.21
652.49	802.87
652.83	797.67
653.17	791.93
653.51	786.12
653.85	780.62
654.20	775.06
654.54	768.98
654.88	763.27
655.22	757.37
655.56	751.73
655.90	746.27
656.25	741.09
656.59	735.71
656.93	730.60
657.27	725.37
657.61	719.91
657.95	714.79
658.29	709.77
658.64	704.61
658.98	699.21
659.32	693.69
659.66	688.46
660.00	683.14
660.34	678.18
660.68	673.25
661.02	668.28
661.36	663.55
661.70	659.04
662.05	654.69
662.39	650.41
662.73	645.88
663.07	641.49
663.41	636.98
663.75	632.43
664.09	627.85
664.43	623.45
664.77	619.33
665.11	615.11
665.45	610.90
665.79	606.75
666.13	602.70
666.47	598.60
666.81	594.44
667.15	590.28
667.49	586.42
667.83	582.61
668.17	578.63
668.51	574.50
668.85	570.45
669.19	566.59
669.53	562.71
669.87	558.84
670.21	555.15
670.55	551.50
670.89	548.04
671.23	544.59
671.57	541.08
671.91	537.51
672.25	533.97
672.58	530.46
672.92	527.00
673.26	523.81
673.60	520.62
673.94	517.52
674.28	514.65
674.62	511.71
674.96	508.60
675.30	505.72
675.64	502.78
675.97	500.04
676.31	497.16
676.65	494.20
676.99	491.46
677.33	488.59
677.67	485.81
678.01	482.78
678.34	479.74
678.68	476.91
679.02	474.13
679.36	471.39
679.70	468.65
680.04	465.90
680.37	463.01
680.71	460.20
681.05	457.54
681.39	454.80
681.73	452.07
682.06	449.52
682.40	446.97
682.74	444.51
683.08	441.92
683.42	439.34
683.75	436.83
684.09	434.31
684.43	431.80
684.77	429.33
685.10	427.01
685.44	424.72
685.78	422.40
686.12	420.10
686.45	417.77
686.79	415.48
687.13	413.28
687.46	411.09
687.80	408.96
688.14	406.78
688.48	404.71
688.81	402.48
689.15	400.35
689.49	398.16
689.82	396.04
690.16	393.97
690.50	392.01
690.83	390.15
691.17	388.13
691.51	386.27
691.84	384.44
692.18	382.51
692.52	380.53
692.85	378.58
693.19	376.69
693.52	374.83
693.86	373.02
694.20	371.27
694.53	369.50
694.87	367.65
695.21	365.88
695.54	364.07
695.88	362.35
696.21	360.59
696.55	358.90
696.88	357.22
697.22	355.54
697.56	353.87
697.89	352.15
698.23	350.57
698.56	348.95
698.90	347.36
699.23	345.72
699.57	344.20
699.90	342.69
700.24	341.15
700.58	339.67
700.91	338.16
701.25	336.70
701.58	335.37
701.92	333.99
702.25	332.58
702.59	331.18
702.92	329.88
703.26	328.57
703.59	327.33
703.93	326.14
704.26	324.93
704.60	323.67
704.93	322.38
705.26	321.11
705.60	319.92
705.93	318.71
706.27	317.64
706.60	316.55
706.94	315.44
707.27	314.33
707.61	313.24
707.94	312.19
708.27	311.07
708.61	309.93
708.94	308.94
709.28	307.95
709.61	307.01
709.94	306.04
710.28	305.05
710.61	304.05
710.95	302.94
711.28	302.02
711.61	301.03
711.95	300.14
712.28	299.20
712.61	298.21
712.95	297.28
713.28	296.39
713.61	295.51
713.95	294.66
714.28	293.82
714.61	292.96
714.95	292.15
715.28	291.32
715.61	290.49
715.95	289.63
716.28	288.77
716.61	287.89
716.95	287.08
717.28	286.33
717.61	285.53
717.94	284.75
718.28	283.94
718.61	283.22
718.94	282.54
719.27	281.89
719.61	281.28
719.94	280.66
720.27	279.93
720.60	279.24
720.94	278.59
721.27	277.98
721.60	277.40
721.93	276.78
722.27	276.23
722.60	275.68
722.93	275.08
723.26	274.55
723.59	273.99
723.93	273.44
724.26	272.87
724.59	272.33
724.92	271.84
725.25	271.35
725.59	270.83
725.92	270.33
726.25	269.80
726.58	269.26
726.91	268.71
727.24	268.29
727.57	267.85
727.91	267.33
728.24	266.89
728.57	266.41
728.90	265.97
729.23	265.45
729.56	265.01
729.89	264.56
730.22	264.07
730.55	263.64
730.89	263.20
731.22	262.78
731.55	262.37
731.88	261.96
732.21	261.54
732.54	261.12
732.87	260.68
733.20	260.29
733.53	259.94
733.86	259.60
734.19	259.21
734.52	258.83
734.85	258.54
735.18	258.08
735.51	257.73
735.84	257.35
736.17	257.02
736.50	256.60
736.83	256.35
737.16	256.01
737.49	255.71
737.82	255.36
738.15	255.02
738.48	254.65
738.81	254.33
739.14	254.00
739.47	253.66
739.80	253.37
740.13	253.10
740.46	252.77
740.79	252.44
741.12	252.12
741.45	251.81
741.78	251.46
742.11	251.20
742.44	250.85
742.77	250.57
743.10	250.29
743.43	249.98
743.75	249.62
744.08	249.51
744.41	249.20
744.74	248.92
745.07	248.60
745.40	248.36
745.73	248.13
746.06	247.81
746.39	247.57
746.71	247.27
747.04	247.00
747.37	246.72
747.70	246.49
748.03	246.23
748.36	245.99
748.68	245.74
749.01	245.48
749.34	245.26
749.67	244.99
750.00	244.74
750.33	244.60
750.65	244.39
750.98	244.03
751.31	243.82
751.64	243.61
751.97	243.46
752.29	243.25
752.62	242.98
752.95	242.80
753.28	242.58
753.60	242.39
753.93	242.18
754.26	242.00
754.59	241.78
754.91	241.59
755.24	241.35
755.57	241.16
755.90	240.96
756.22	240.78
756.55	240.63
756.88	240.46
757.20	240.23
757.53	240.04
757.86	239.83
758.19	239.69
758.51	239.55
758.84	239.34
759.17	239.17
759.49	239.01
759.82	238.91
760.15	238.76
760.47	238.60
760.80	238.43
761.13	238.26
761.45	238.07
761.78	237.91
762.11	237.79
762.43	237.66
762.76	237.53
763.08	237.39
763.41	237.23
763.74	237.06
764.06	236.93
764.39	236.77
764.71	236.64
765.04	236.48
765.37	236.34
765.69	236.19
766.02	236.06
766.34	235.98
766.67	235.82
767.00	235.72
767.32	235.65
767.65	235.64
767.97	235.56
768.30	235.47
768.62	235.36
768.95	235.26
769.27	235.13
769.60	235.04
769.92	234.94
770.25	234.84
770.57	234.73
770.90	234.63
771.22	234.53
771.55	234.48
771.87	234.42
772.20	234.31
772.52	234.36
772.85	234.41
773.17	234.25
773.50	234.14
773.82	234.04
774.15	233.87
774.47	233.70
774.80	233.60
775.12	233.52
775.45	233.43
775.77	233.33
776.09	233.28
776.42	233.19
776.74	233.12
777.07	233.05
777.39	232.96
777.72	232.88
778.04	232.82
778.36	232.74
778.69	232.64
779.01	232.58
779.33	232.42
779.66	232.19
779.98	232.12
780.31	232.08
780.63	232.06
780.95	232.06
781.28	232.00
781.60	231.90
781.92	231.84
782.25	231.78
782.57	231.72
782.89	231.66
783.22	231.58
783.54	231.50
783.86	231.44
784.19	231.42
784.51	231.39
784.83	231.31
785.16	231.22
785.48	231.18
785.80	231.10
786.12	231.03
786.45	231.01
786.77	231.00
787.09	230.94
787.42	230.84
787.74	230.78
788.06	230.71
788.38	230.68
788.71	230.65
789.03	230.63
789.35	230.58
789.67	230.54
789.99	230.48
790.32	230.47
790.64	230.43
790.96	230.46
791.28	230.39
791.61	230.37
791.93	230.35
792.25	230.29
792.57	230.35
792.89	230.27
793.21	230.22
793.54	230.15
793.86	230.09
794.18	230.05
794.50	229.98
794.82	229.98
795.14	229.97
795.47	229.92
795.79	229.85
796.11	229.80
796.43	229.72
796.75	229.72
797.07	229.66
797.39	229.64
797.71	229.54
798.04	229.54
798.36	229.50
798.68	229.46
799.00	229.46
799.32	229.35
799.64	229.36
799.96	229.35
800.28	229.33
800.60	229.28
800.92	229.24
801.24	229.23
801.56	229.18
801.89	229.12
802.21	229.10
802.53	229.06
802.85	229.05
803.17	229.10
803.49	229.04
803.81	228.99
804.13	228.92
804.45	228.85
804.77	228.83
805.09	228.80
805.41	228.77
805.73	228.68
806.05	228.65
806.37	228.65
806.69	228.63
807.01	228.60
807.33	228.59
807.65	228.53
807.97	228.53
808.28	228.51
808.60	228.47
808.92	228.42
809.24	228.48
809.56	228.45
809.88	228.39
810.20	228.40
810.52	228.40
810.84	228.37
811.16	228.34
811.48	228.28
811.80	228.31
812.12	228.30
812.43	228.32
812.75	228.30
813.07	228.24
813.39	228.18
813.71	228.18
814.03	228.16
814.35	228.18
814.67	228.14
814.98	228.08
815.30	228.07
815.62	228.03
815.94	227.92
816.26	227.89
816.58	227.87
816.89	227.84
817.21	227.80
817.53	227.81
817.85	227.83
818.17	227.83
818.48	227.79
818.80	227.77
819.12	227.73
819.44	227.69
819.76	227.67
820.07	227.69
820.39	227.66
820.71	227.64
821.03	227.62
821.34	227.60
821.66	227.64
821.98	227.66
822.30	227.64
822.61	227.69
822.93	227.68
823.25	227.69
823.57	227.66
823.88	227.69
824.20	227.65
824.52	227.64
824.83	227.60
825.15	227.55
825.47	227.51
825.79	227.53
826.10	227.51
826.42	227.47
826.74	227.45
827.05	227.45
827.37	227.47
827.69	227.44
828.00	227.43
828.32	227.39
828.64	227.35
828.95	227.43
829.27	227.41
829.58	227.38
829.90	227.34
830.22	227.37
830.53	227.34
830.85	227.32
831.17	227.32
831.48	227.33
831.80	227.33
832.11	227.34
832.43	227.33
832.75	227.31
833.06	227.39
833.38	227.33
833.69	227.27
834.01	227.25
834.32	227.26
834.64	227.25
834.96	227.26
835.27	227.26
835.59	227.19
835.90	227.15
836.22	227.15
836.53	227.13
836.85	227.07
837.16	227.14
837.48	227.15
837.79	227.11
838.11	227.12
838.42	227.11
838.74	227.12
839.05	227.10
839.37	227.10
839.68	227.02
840.00	227.04
840.31	227.08
840.63	227.04
840.94	227.05
841.26	227.02
841.57	227.00
841.88	226.98
842.20	226.95
842.51	226.96
842.83	226.92
843.14	227.03
843.46	227.06
843.77	227.00
844.08	226.97
844.40	226.99
844.71	226.95
845.03	226.92
845.34	226.89
845.65	226.89
845.97	226.89
846.28	226.92
846.60	226.93
846.91	226.89
847.22	226.90
847.54	226.87
847.85	226.88
848.16	226.86
848.48	226.82
848.79	226.87
849.10	226.89
849.42	226.89
849.73	226.79
850.04	226.78
850.36	226.73
850.67	226.75
850.98	226.72
851.30	226.73
851.61	226.71
851.92	226.74
852.23	226.76
852.55	226.73
852.86	226.69
853.17	226.70
853.49	226.74
853.80	226.77
854.11	226.77
854.42	226.78
854.74	226.78
855.05	226.81
855.36	226.75
855.67	226.72
855.99	226.73
856.30	226.81
856.61	226.80
856.92	226.81
857.23	226.80
857.55	226.78
857.86	226.79
858.17	226.81
858.48	226.78
858.79	226.73
859.11	226.78
859.42	226.77
859.73	226.73
860.04	226.74
860.35	226.71
860.66	226.71
860.98	226.71
861.29	226.75
861.60	226.75
861.91	226.77
862.22	226.75
862.53	226.75
862.84	226.65
863.16	226.66
863.47	226.69
863.78	226.69
864.09	226.73
864.40	226.71
864.71	226.71
865.02	226.72
865.33	226.73
865.64	226.71
865.95	226.73
866.27	226.79
866.58	226.76
866.89	226.81
867.20	226.79
867.51	226.77
867.82	226.71
868.13	226.74
868.44	226.74
868.75	226.76
869.06	226.78
869.37	226.79
869.68	226.74
869.99	226.69
870.30	226.74
870.61	226.71
870.92	226.72
871.23	226.72
871.54	226.75
871.85	226.78
872.16	226.79
872.47	226.81
872.78	226.76
873.09	226.78
873.40	226.75
873.71	226.77
874.02	226.76
874.33	226.76
874.64	226.72
874.95	226.73
875.26	226.69
875.56	226.67
875.87	226.65
876.18	226.70
876.49	226.81
876.80	226.79
877.11	226.78
877.42	226.73
877.73	226.76
878.04	226.72
878.35	226.71
878.66	226.67
878.96	226.62
879.27	226.64
879.58	226.60
879.89	226.54
880.20	226.55
880.51	226.55
880.82	226.54
881.12	226.54
881.43	226.51
881.74	226.55
882.05	226.54
882.36	226.54
882.67	226.51
882.97	226.40
883.28	226.38
883.59	226.34
883.90	226.40
884.21	226.39
884.51	226.39
884.82	226.36
885.13	226.36
885.44	226.35
885.74	226.33
886.05	226.35
886.36	226.39
886.67	226.37
886.98	226.43
887.28	226.46
887.59	226.48
887.90	226.47
888.20	226.46
888.51	226.46
888.82	226.46
889.13	226.46
889.43	226.56
889.74	226.58
890.05	226.61
890.35	226.60
890.66	226.59
890.97	226.55
891.28	226.55
891.58	226.54
891.89	226.58
892.20	226.58
892.50	226.54
892.81	226.51
893.12	226.49
893.42	226.42
893.73	226.43
894.04	226.42
894.34	226.42
894.65	226.37
894.95	226.36
895.26	226.37
895.57	226.46
895.87	226.33
896.18	226.31
896.48	226.31
896.79	226.26
897.10	226.26
897.40	226.28
897.71	226.30
898.01	226.31
898.32	226.28
898.63	226.27
898.93	226.31
899.24	226.34
899.54	226.33
899.85	226.33
900.15	226.31
900.46	226.30
900.76	226.29
901.07	226.30
901.38	226.31
901.68	226.31
901.99	226.22
902.29	226.24
902.60	226.23
902.90	226.24
903.21	226.28
903.51	226.28
903.82	226.29
904.12	226.26
904.43	226.26
904.73	226.25
905.03	226.24
905.34	226.32
905.64	226.29
905.95	226.30
906.25	226.30
906.56	226.29
906.86	226.30
907.17	226.30
907.47	226.31
907.77	226.30
908.08	226.29
908.38	226.28
908.69	226.28
908.99	226.30
909.30	226.30
909.60	226.30
909.90	226.30
910.21	226.25
910.51	226.24
910.81	226.24
911.12	226.29
911.42	226.24
911.73	226.13
912.03	226.18
912.33	226.19
912.64	226.21
912.94	226.19
913.24	226.18
913.55	226.18
913.85	226.16
914.15	226.18
914.46	226.18
914.76	226.20
915.06	226.18
915.37	226.17
915.67	226.13
915.97	226.10
916.27	226.10
916.58	226.14
916.88	226.16
917.18	226.15
917.49	226.20
917.79	226.26
918.09	226.29
918.39	226.28
918.70	226.28
919.00	226.27
919.30	226.34
919.60	226.35
919.91	226.35
920.21	226.37
920.51	226.37
920.81	226.42
921.12	226.43
921.42	226.44
921.72	226.48
922.02	226.52
922.32	226.53
922.63	226.52
922.93	226.58
923.23	226.57
923.53	226.56
923.83	226.48
924.13	226.47
924.44	226.50
924.74	226.50
925.04	226.51
925.34	226.53
925.64	226.52
925.94	226.51
926.24	226.56
926.55	226.55
926.85	226.54
927.15	226.48
927.45	226.49
927.75	226.49
928.05	226.49
928.35	226.45
928.65	226.46
928.95	226.46
929.26	226.40
929.56	226.42
929.86	226.42
930.16	226.44
930.46	226.43
930.76	226.39
931.06	226.36
931.36	226.33
931.66	226.35
931.96	226.31
932.26	226.27
932.56	226.23
932.86	226.23
933.16	226.21
933.46	226.20
933.76	226.15
934.06	226.17
934.36	226.18
934.66	226.17
934.96	226.16
935.26	226.16
935.56	226.16
935.86	226.11
936.16	226.07
936.46	226.05
936.76	226.05
937.06	226.02
937.36	226.01
937.66	225.97
937.96	225.93
938.26	225.87
938.56	225.89
938.86	225.88
939.16	225.87
939.46	225.87
939.76	225.87
940.06	225.88
940.35	225.84
940.65	225.78
940.95	225.79
941.25	225.76
941.55	225.75
941.85	225.74
942.15	225.78
942.45	225.80
942.75	225.79
943.04	225.77
943.34	225.79
943.64	225.78
943.94	225.79
944.24	225.78
944.54	225.82
944.84	225.82
945.13	225.81
945.43	225.82
945.73	225.88
946.03	225.87
946.33	225.85
946.62	225.85
946.92	225.87
947.22	225.90
947.52	225.93
947.82	225.95
948.11	225.93
948.41	225.93
948.71	225.95
949.01	225.97
949.31	225.98
949.60	226.02
949.90	226.03
950.20	226.05
950.50	226.07
950.79	226.10
951.09	226.11
951.39	226.13
951.69	226.14
951.98	226.14
952.28	226.14
952.58	226.15
952.87	226.16
953.17	226.17
953.47	226.19
953.76	226.18
954.06	226.18
954.36	226.20
954.66	226.20
954.95	226.22
955.25	226.23
955.55	226.24
955.84	226.23
956.14	226.25
956.44	226.26
956.73	226.24
957.03	226.24
957.32	226.27
957.62	226.25
957.92	226.30
958.21	226.28
958.51	226.40
958.81	226.41
959.10	226.42
959.40	226.45
959.69	226.42
959.99	226.46
960.29	226.44
960.58	226.44
960.88	226.49
961.17	226.48
961.47	226.49
961.76	226.52
962.06	226.51
962.36	226.52
962.65	226.50
962.95	226.52
963.24	226.51
963.54	226.50
963.83	226.54
964.13	226.49
964.42	226.47
964.72	226.37
965.01	226.39
965.31	226.38
965.60	226.34
965.90	226.40
966.19	226.36
966.49	226.37
966.78	226.35
967.08	226.31
967.37	226.30
967.67	226.26
967.96	226.26
968.26	226.24
968.55	226.24
968.85	226.25
969.14	226.21
969.43	226.20
969.73	226.20
970.02	226.17
970.32	226.17
970.61	226.15
970.91	226.13
971.20	226.08
971.49	226.08
971.79	226.08
972.08	225.99
972.38	225.98
972.67	225.96
972.96	225.96
973.26	225.92
973.55	225.95
973.85	225.96
974.14	225.96
974.43	225.97
974.73	225.97
975.02	225.93
975.31	225.93
975.61	225.91
975.90	225.85
976.19	225.84
976.49	225.83
976.78	225.85
977.07	225.87
977.37	225.88
977.66	225.87
977.95	225.89
978.24	225.91
978.54	225.91
978.83	225.90
979.12	225.91
979.42	225.91
979.71	225.86
980.00	225.84
980.29	225.76
980.59	225.74
980.88	225.76
981.17	225.78
981.46	225.77
981.76	225.79
982.05	225.85
982.34	225.85
982.63	225.85
982.93	225.87
983.22	225.85
983.51	225.85
983.80	225.86
984.09	225.85
984.39	225.87
984.68	225.87
984.97	225.89
985.26	225.89
985.55	225.90
985.85	225.92
986.14	225.92
986.43	226.02
986.72	226.01
987.01	225.97
987.30	225.96
987.59	225.99
987.89	226.00
988.18	225.97
988.47	225.98
988.76	225.98
989.05	225.95
989.34	225.97
989.63	226.01
989.92	226.01
990.22	226.00
990.51	226.02
990.80	226.01
991.09	226.01
991.38	226.00
991.67	226.02
991.96	226.03
992.25	226.08
992.54	226.02
992.83	226.07
993.12	226.08
993.41	226.07
993.70	226.10
993.99	226.10
994.28	226.16
994.58	226.17
994.87	226.18
995.16	226.20
995.45	226.18
995.74	226.14
996.03	226.14
996.32	226.14
996.61	226.13
996.90	226.13
997.19	226.12
997.48	226.13
997.77	226.06
998.06	226.06
998.34	226.03
998.63	226.07
998.92	226.03
999.21	226.04
999.50	226.07
999.79	226.06
1000.08	226.03
1000.37	225.97
1000.66	225.95
1000.95	225.95
1001.24	225.95
1001.53	225.98
1001.82	225.95
1002.11	225.91
1002.40	225.92
1002.68	225.92
1002.97	225.99
1003.26	225.97
1003.55	225.93
1003.84	225.97
1004.13	226.00
1004.42	225.97
1004.71	225.93
1004.99	225.89
1005.28	225.92
1005.57	225.89
1005.86	225.88
1006.15	225.88
1006.44	225.85
1006.72	225.84
1007.01	225.81
1007.30	225.83
1007.59	225.79
1007.88	225.81
1008.17	225.79
1008.45	225.76
1008.74	225.72
1009.03	225.66
1009.32	225.63
1009.60	225.66
1009.89	225.64
1010.18	225.60
1010.47	225.62
1010.76	225.58
1011.04	225.61
1011.33	225.59
1011.62	225.60
1011.91	225.56
1012.19	225.58
1012.48	225.63
1012.77	225.65
1013.05	225.71
1013.34	225.69
1013.63	225.70
1013.92	225.72
1014.20	225.75
1014.49	225.78
1014.78	225.82
1015.06	225.82
1015.35	225.86
1015.64	225.87
1015.92	225.89
1016.21	225.90
1016.50	225.91
1016.78	225.95
1017.07	225.98
1017.36	225.96
1017.64	225.94
1017.93	225.98
1018.22	225.98
1018.50	225.95
1018.79	225.98
1019.08	225.93
1019.36	225.92
1019.65	225.91
1019.93	225.94
1020.22	225.96
1020.51	226.01
1020.79	225.99
1021.08	225.79
1021.36	225.63
1021.65	226.43
1021.94	226.05
1022.22	225.58
1022.51	225.64
1022.79	226.45
1023.08	226.10
1023.36	227.23
1023.65	225.78
>>>>>End Processed Spectral Data<<<<<
