SpectraSuite Data File
++++++++++++++++++++++++++++++++++++
Date: Fri Feb 01 15:31:05 EST 2013
User: group
Dark Spectrum Present: No
Reference Spectrum Present: No
Number of Sampled Component Spectra: 1
Spectrometers: USB2E7196
Integration Time (usec): 35000 (USB2E7196)
Spectra Averaged: 100 (USB2E7196)
Boxcar Smoothing: 10 (USB2E7196)
Correct for Electrical Dark: No (USB2E7196)
Strobe/Lamp Enabled: No (USB2E7196)
Correct for Detector Non-linearity: No (USB2E7196)
Correct for Stray Light: No (USB2E7196)
Number of Pixels in Processed Spectrum: 2048
>>>>>Begin Processed Spectral Data<<<<<
339.09	0.00
339.48	215.20
339.86	216.58
340.24	218.11
340.63	219.67
341.01	222.25
341.39	222.40
341.78	223.27
342.16	224.13
342.54	225.71
342.93	213.41
343.31	224.20
343.69	224.73
344.07	225.21
344.46	225.61
344.84	225.97
345.22	226.23
345.60	226.50
345.99	226.70
346.37	226.86
346.75	226.95
347.13	227.03
347.52	227.06
347.90	227.15
348.28	227.18
348.66	227.23
349.05	227.25
349.43	227.32
349.81	227.38
350.19	227.42
350.57	227.49
350.96	227.63
351.34	227.74
351.72	227.84
352.10	227.91
352.48	228.00
352.87	228.08
353.25	228.10
353.63	228.14
354.01	228.19
354.39	228.29
354.77	228.36
355.15	228.44
355.54	228.52
355.92	228.58
356.30	228.64
356.68	228.77
357.06	228.83
357.44	228.87
357.82	228.92
358.20	228.97
358.58	229.03
358.97	229.06
359.35	229.12
359.73	229.18
360.11	229.22
360.49	229.25
360.87	229.28
361.25	229.34
361.63	229.40
362.01	229.44
362.39	229.46
362.77	229.46
363.15	229.50
363.53	229.52
363.91	229.53
364.29	229.56
364.67	229.48
365.05	229.51
365.43	229.53
365.81	229.57
366.19	229.62
366.57	229.64
366.95	229.65
367.33	229.63
367.71	229.58
368.09	229.60
368.47	229.61
368.85	229.59
369.23	229.57
369.61	229.48
369.99	229.46
370.37	229.41
370.75	229.41
371.13	229.33
371.51	229.28
371.89	229.24
372.27	229.20
372.65	229.17
373.03	229.09
373.41	228.99
373.78	228.88
374.16	228.77
374.54	228.65
374.92	228.58
375.30	228.52
375.68	228.45
376.06	228.39
376.44	228.30
376.82	228.20
377.19	228.13
377.57	228.08
377.95	227.98
378.33	227.89
378.71	227.79
379.09	227.73
379.47	227.64
379.84	227.58
380.22	227.47
380.60	227.37
380.98	227.34
381.36	227.30
381.73	227.22
382.11	227.15
382.49	227.10
382.87	227.04
383.25	226.97
383.62	227.03
384.00	226.96
384.38	226.91
384.76	226.90
385.13	226.89
385.51	226.85
385.89	226.79
386.27	226.74
386.64	226.71
387.02	226.66
387.40	226.63
387.78	226.57
388.15	226.54
388.53	226.48
388.91	226.45
389.29	226.39
389.66	226.41
390.04	226.40
390.42	226.39
390.79	226.39
391.17	226.38
391.55	226.28
391.92	226.27
392.30	226.32
392.68	226.30
393.05	226.30
393.43	226.30
393.81	226.32
394.18	226.29
394.56	226.30
394.94	226.36
395.31	226.41
395.69	226.46
396.06	226.51
396.44	226.57
396.82	226.61
397.19	226.71
397.57	226.74
397.95	226.83
398.32	226.87
398.70	226.91
399.07	226.99
399.45	227.02
399.82	227.07
400.20	227.09
400.58	227.19
400.95	227.23
401.33	227.37
401.70	227.54
402.08	227.70
402.45	227.81
402.83	227.92
403.20	228.02
403.58	228.12
403.95	228.24
404.33	228.40
404.71	228.51
405.08	228.68
405.46	228.78
405.83	228.91
406.21	229.05
406.58	229.22
406.96	229.34
407.33	229.53
407.70	229.74
408.08	230.00
408.45	230.20
408.83	230.42
409.20	230.58
409.58	230.78
409.95	231.03
410.33	231.31
410.70	231.53
411.08	231.84
411.45	232.15
411.82	232.47
412.20	232.79
412.57	233.21
412.95	233.49
413.32	233.93
413.69	234.33
414.07	234.77
414.44	235.23
414.82	235.73
415.19	236.32
415.56	236.90
415.94	237.44
416.31	238.07
416.68	238.71
417.06	239.43
417.43	240.08
417.81	240.85
418.18	241.61
418.55	242.47
418.93	243.33
419.30	244.21
419.67	245.15
420.04	246.10
420.42	247.08
420.79	248.30
421.16	249.48
421.54	250.68
421.91	251.90
422.28	253.14
422.66	254.48
423.03	255.71
423.40	257.01
423.77	258.38
424.15	259.84
424.52	261.35
424.89	262.98
425.26	264.51
425.64	265.95
426.01	267.56
426.38	269.20
426.75	270.90
427.13	272.61
427.50	274.41
427.87	276.33
428.24	278.19
428.61	279.93
428.99	281.85
429.36	283.97
429.73	286.05
430.10	288.06
430.47	290.10
430.85	292.27
431.22	294.52
431.59	296.93
431.96	299.15
432.33	301.62
432.70	304.01
433.08	306.86
433.45	309.55
433.82	312.14
434.19	315.04
434.56	317.85
434.93	320.51
435.30	323.19
435.68	326.05
436.05	328.89
436.42	331.70
436.79	334.23
437.16	336.93
437.53	339.79
437.90	342.62
438.27	345.41
438.64	348.26
439.01	350.85
439.38	353.15
439.75	355.31
440.13	357.80
440.50	360.12
440.87	361.97
441.24	363.89
441.61	366.06
441.98	367.58
442.35	369.37
442.72	371.27
443.09	373.06
443.46	374.11
443.83	374.72
444.20	375.21
444.57	376.06
444.94	376.39
445.31	376.73
445.68	377.10
446.05	377.17
446.42	376.76
446.79	376.40
447.16	375.91
447.53	375.62
447.90	374.49
448.27	373.31
448.64	371.73
449.01	370.57
449.37	368.64
449.74	366.73
450.11	364.49
450.48	361.97
450.85	359.42
451.22	357.26
451.59	355.21
451.96	353.28
452.33	350.64
452.70	348.26
453.07	345.40
453.43	342.48
453.80	339.71
454.17	337.07
454.54	334.47
454.91	331.74
455.28	329.07
455.65	326.54
456.02	324.10
456.38	321.94
456.75	319.29
457.12	317.03
457.49	314.83
457.86	312.66
458.23	310.83
458.59	308.75
458.96	306.61
459.33	304.75
459.70	302.88
460.07	301.38
460.43	299.64
460.80	297.99
461.17	296.57
461.54	295.04
461.91	293.59
462.27	292.14
462.64	290.91
463.01	289.53
463.38	288.26
463.74	286.88
464.11	285.70
464.48	284.66
464.85	283.51
465.21	282.63
465.58	281.64
465.95	280.54
466.32	279.65
466.68	278.78
467.05	277.88
467.42	276.94
467.78	276.00
468.15	275.13
468.52	274.47
468.88	273.60
469.25	272.81
469.62	272.17
469.98	271.51
470.35	270.82
470.72	270.22
471.08	269.56
471.45	269.01
471.82	268.44
472.18	267.85
472.55	267.43
472.92	266.89
473.28	266.46
473.65	266.02
474.02	265.60
474.38	265.22
474.75	264.92
475.11	264.58
475.48	264.29
475.85	264.03
476.21	263.79
476.58	263.61
476.94	263.48
477.31	263.30
477.67	263.15
478.04	263.05
478.41	262.99
478.77	263.01
479.14	262.98
479.50	262.99
479.87	263.06
480.23	263.11
480.60	263.17
480.96	263.28
481.33	263.49
481.69	263.65
482.06	263.85
482.42	264.03
482.79	264.31
483.15	264.68
483.52	265.07
483.88	265.42
484.25	265.83
484.61	266.25
484.98	266.71
485.34	267.28
485.71	267.88
486.07	268.48
486.44	269.05
486.80	269.73
487.17	270.45
487.53	271.28
487.90	272.14
488.26	273.12
488.62	274.13
488.99	275.10
489.35	276.15
489.72	277.28
490.08	278.53
490.44	279.74
490.81	281.04
491.17	282.39
491.54	283.85
491.90	285.42
492.26	287.08
492.63	288.83
492.99	290.60
493.36	292.49
493.72	294.54
494.08	296.67
494.45	298.95
494.81	301.37
495.17	303.80
495.54	306.34
495.90	309.00
496.26	311.74
496.63	314.72
496.99	317.81
497.35	321.06
497.72	324.45
498.08	328.02
498.44	331.73
498.80	335.66
499.17	339.72
499.53	343.84
499.89	348.23
500.26	352.70
500.62	357.40
500.98	362.37
501.34	367.42
501.71	372.75
502.07	378.20
502.43	383.80
502.79	389.60
503.16	395.72
503.52	402.02
503.88	408.41
504.24	415.08
504.60	422.02
504.97	429.12
505.33	436.43
505.69	444.08
506.05	451.83
506.41	459.70
506.78	467.97
507.14	476.42
507.50	485.16
507.86	494.22
508.22	503.38
508.59	512.59
508.95	522.23
509.31	532.09
509.67	542.22
510.03	552.53
510.39	563.11
510.75	573.90
511.12	584.82
511.48	596.17
511.84	607.50
512.20	619.03
512.56	631.05
512.92	643.20
513.28	655.52
513.64	668.05
514.00	680.81
514.37	693.65
514.73	706.74
515.09	719.80
515.45	733.20
515.81	746.80
516.17	760.83
516.53	774.91
516.89	788.98
517.25	803.13
517.61	817.53
517.97	832.01
518.33	846.48
518.69	861.30
519.05	876.33
519.41	891.56
519.77	907.18
520.13	922.59
520.49	938.06
520.85	953.50
521.21	969.30
521.57	985.60
521.93	1001.39
522.29	1017.82
522.65	1034.03
523.01	1050.25
523.37	1066.36
523.73	1082.50
524.09	1098.63
524.45	1115.09
524.81	1131.77
525.17	1148.59
525.53	1165.62
525.89	1182.48
526.25	1199.45
526.61	1215.85
526.97	1232.66
527.33	1249.01
527.68	1265.78
528.04	1282.32
528.40	1299.04
528.76	1316.07
529.12	1332.70
529.48	1349.69
529.84	1365.73
530.20	1382.44
530.56	1399.50
530.91	1416.89
531.27	1433.67
531.63	1450.24
531.99	1466.89
532.35	1482.85
532.71	1498.87
533.07	1515.10
533.42	1531.11
533.78	1547.11
534.14	1563.57
534.50	1578.94
534.86	1594.96
535.21	1610.16
535.57	1626.24
535.93	1641.89
536.29	1656.70
536.65	1671.83
537.00	1686.69
537.36	1702.10
537.72	1716.65
538.08	1731.05
538.44	1744.96
538.79	1759.02
539.15	1772.85
539.51	1786.69
539.87	1801.17
540.22	1815.03
540.58	1828.83
540.94	1842.31
541.29	1855.33
541.65	1867.93
542.01	1881.32
542.37	1893.66
542.72	1906.21
543.08	1917.81
543.44	1930.12
543.79	1941.48
544.15	1952.47
544.51	1964.04
544.87	1975.06
545.22	1985.96
545.58	1996.27
545.94	2006.15
546.29	2015.94
546.65	2025.65
547.01	2034.78
547.36	2043.50
547.72	2051.89
548.07	2059.88
548.43	2068.00
548.79	2075.97
549.14	2083.57
549.50	2090.89
549.86	2098.61
550.21	2105.89
550.57	2113.19
550.92	2119.88
551.28	2126.97
551.64	2134.02
551.99	2140.60
552.35	2146.78
552.70	2152.98
553.06	2158.90
553.41	2165.20
553.77	2171.26
554.13	2177.39
554.48	2183.49
554.84	2188.96
555.19	2194.35
555.55	2199.31
555.90	2203.59
556.26	2208.51
556.61	2213.28
556.97	2217.56
557.32	2221.80
557.68	2225.89
558.03	2230.29
558.39	2234.01
558.74	2238.49
559.10	2242.35
559.45	2246.06
559.81	2250.32
560.16	2254.11
560.52	2257.49
560.87	2260.82
561.23	2263.49
561.58	2266.48
561.94	2268.98
562.29	2271.45
562.64	2274.05
563.00	2276.76
563.35	2280.38
563.71	2283.42
564.06	2286.50
564.42	2289.36
564.77	2291.77
565.12	2293.92
565.48	2295.60
565.83	2297.26
566.19	2298.61
566.54	2299.49
566.89	2300.60
567.25	2301.18
567.60	2302.43
567.96	2303.94
568.31	2304.89
568.66	2305.88
569.02	2306.40
569.37	2306.79
569.72	2307.55
570.08	2307.70
570.43	2307.54
570.78	2307.02
571.14	2305.50
571.49	2304.23
571.84	2303.70
572.20	2302.40
572.55	2301.28
572.90	2299.85
573.26	2298.46
573.61	2296.71
573.96	2294.80
574.31	2291.69
574.67	2288.61
575.02	2284.90
575.37	2281.55
575.72	2277.53
576.08	2274.32
576.43	2270.97
576.78	2267.12
577.13	2263.97
577.49	2260.76
577.84	2257.53
578.19	2253.69
578.54	2250.01
578.90	2245.60
579.25	2240.17
579.60	2235.30
579.95	2230.43
580.30	2225.33
580.66	2220.17
581.01	2215.24
581.36	2210.34
581.71	2206.06
582.06	2201.60
582.42	2197.08
582.77	2191.74
583.12	2187.22
583.47	2182.29
583.82	2177.12
584.17	2171.79
584.53	2166.16
584.88	2160.52
585.23	2154.43
585.58	2148.88
585.93	2143.26
586.28	2138.52
586.63	2133.32
586.98	2128.13
587.34	2123.38
587.69	2118.28
588.04	2112.99
588.39	2107.14
588.74	2100.65
589.09	2094.38
589.44	2087.46
589.79	2081.45
590.14	2075.73
590.49	2068.96
590.84	2062.61
591.19	2056.60
591.54	2050.19
591.89	2042.62
592.25	2035.66
592.60	2028.43
592.95	2020.78
593.30	2013.44
593.65	2005.74
594.00	1998.70
594.35	1991.40
594.70	1983.24
595.05	1975.90
595.40	1968.55
595.75	1961.04
596.10	1954.77
596.45	1947.95
596.80	1941.76
597.15	1935.01
597.50	1927.89
597.85	1921.61
598.19	1914.90
598.54	1907.79
598.89	1901.13
599.24	1895.28
599.59	1888.54
599.94	1882.22
600.29	1875.97
600.64	1869.38
600.99	1861.88
601.34	1854.92
601.69	1847.98
602.04	1840.97
602.39	1833.63
602.74	1826.77
603.08	1820.21
603.43	1813.41
603.78	1806.14
604.13	1798.84
604.48	1791.41
604.83	1784.55
605.18	1777.35
605.53	1769.08
605.87	1760.98
606.22	1753.69
606.57	1745.70
606.92	1738.29
607.27	1731.08
607.62	1723.98
607.96	1716.60
608.31	1709.95
608.66	1702.23
609.01	1694.57
609.36	1686.98
609.70	1678.94
610.05	1670.80
610.40	1662.88
610.75	1654.53
611.10	1646.81
611.44	1638.41
611.79	1630.61
612.14	1621.93
612.49	1612.88
612.83	1604.75
613.18	1596.60
613.53	1588.49
613.88	1579.96
614.22	1571.80
614.57	1563.25
614.92	1555.23
615.27	1547.73
615.61	1539.38
615.96	1531.44
616.31	1523.90
616.65	1516.52
617.00	1508.97
617.35	1501.24
617.70	1492.79
618.04	1484.24
618.39	1475.97
618.74	1468.31
619.08	1459.90
619.43	1452.40
619.78	1445.54
620.12	1438.36
620.47	1430.85
620.82	1422.68
621.16	1415.31
621.51	1407.62
621.85	1400.06
622.20	1391.55
622.55	1383.15
622.89	1375.30
623.24	1367.76
623.59	1360.33
623.93	1352.85
624.28	1345.70
624.62	1338.28
624.97	1331.22
625.32	1324.60
625.66	1317.60
626.01	1310.42
626.35	1302.90
626.70	1295.00
627.04	1287.27
627.39	1279.51
627.73	1272.18
628.08	1265.24
628.43	1257.77
628.77	1250.39
629.12	1242.74
629.46	1235.55
629.81	1228.17
630.15	1221.02
630.50	1213.52
630.84	1205.24
631.19	1197.39
631.53	1189.87
631.88	1182.33
632.22	1174.76
632.57	1167.42
632.91	1159.96
633.26	1152.55
633.60	1145.31
633.95	1138.29
634.29	1131.18
634.64	1124.43
634.98	1117.01
635.32	1109.88
635.67	1103.46
636.01	1096.84
636.36	1090.07
636.70	1083.61
637.05	1077.07
637.39	1070.58
637.73	1064.07
638.08	1058.22
638.42	1052.17
638.77	1045.69
639.11	1038.92
639.45	1032.53
639.80	1025.82
640.14	1019.37
640.49	1012.85
640.83	1006.50
641.17	1000.19
641.52	993.80
641.86	987.32
642.20	981.45
642.55	975.23
642.89	968.65
643.23	962.15
643.58	956.36
643.92	950.11
644.26	943.92
644.61	937.92
644.95	931.89
645.29	925.29
645.64	918.52
645.98	912.22
646.32	906.51
646.66	900.38
647.01	894.60
647.35	888.93
647.69	883.17
648.04	877.63
648.38	871.82
648.72	865.82
649.06	859.76
649.41	853.82
649.75	847.72
650.09	841.80
650.43	836.00
650.78	829.76
651.12	823.80
651.46	818.21
651.80	812.36
652.14	806.99
652.49	801.65
652.83	796.52
653.17	790.79
653.51	784.99
653.85	779.71
654.20	774.02
654.54	767.98
654.88	762.22
655.22	756.36
655.56	750.65
655.90	745.18
656.25	740.03
656.59	734.74
656.93	729.67
657.27	724.51
657.61	719.10
657.95	714.02
658.29	708.89
658.64	703.60
658.98	698.34
659.32	692.85
659.66	687.60
660.00	682.26
660.34	677.31
660.68	672.45
661.02	667.34
661.36	662.64
661.70	658.19
662.05	653.79
662.39	649.49
662.73	645.10
663.07	640.76
663.41	636.20
663.75	631.74
664.09	627.19
664.43	622.82
664.77	618.67
665.11	614.44
665.45	610.37
665.79	606.27
666.13	602.17
666.47	598.07
666.81	593.90
667.15	589.79
667.49	585.98
667.83	582.18
668.17	578.26
668.51	574.17
668.85	570.15
669.19	566.30
669.53	562.38
669.87	558.50
670.21	554.79
670.55	551.17
670.89	547.73
671.23	544.29
671.57	540.77
671.91	537.29
672.25	533.82
672.58	530.30
672.92	526.97
673.26	523.84
673.60	520.72
673.94	517.62
674.28	514.74
674.62	511.74
674.96	508.66
675.30	505.76
675.64	502.86
675.97	500.12
676.31	497.30
676.65	494.41
676.99	491.71
677.33	488.86
677.67	486.09
678.01	483.02
678.34	480.06
678.68	477.15
679.02	474.30
679.36	471.55
679.70	468.82
680.04	466.02
680.37	463.09
680.71	460.33
681.05	457.76
681.39	455.02
681.73	452.37
682.06	449.88
682.40	447.37
682.74	444.83
683.08	442.26
683.42	439.65
683.75	437.15
684.09	434.57
684.43	432.12
684.77	429.65
685.10	427.38
685.44	425.08
685.78	422.82
686.12	420.66
686.45	418.35
686.79	416.07
687.13	413.85
687.46	411.67
687.80	409.49
688.14	407.31
688.48	405.24
688.81	402.99
689.15	400.79
689.49	398.63
689.82	396.60
690.16	394.49
690.50	392.51
690.83	390.57
691.17	388.59
691.51	386.62
691.84	384.76
692.18	382.82
692.52	380.83
692.85	378.89
693.19	376.93
693.52	375.15
693.86	373.32
694.20	371.54
694.53	369.76
694.87	367.92
695.21	366.13
695.54	364.32
695.88	362.56
696.21	360.85
696.55	359.15
696.88	357.44
697.22	355.78
697.56	354.18
697.89	352.54
698.23	350.98
698.56	349.39
698.90	347.77
699.23	346.13
699.57	344.59
699.90	343.11
700.24	341.58
700.58	340.02
700.91	338.52
701.25	337.08
701.58	335.71
701.92	334.37
702.25	332.97
702.59	331.61
702.92	330.27
703.26	329.00
703.59	327.73
703.93	326.55
704.26	325.38
704.60	324.07
704.93	322.79
705.26	321.52
705.60	320.40
705.93	319.26
706.27	318.20
706.60	317.17
706.94	316.05
707.27	314.93
707.61	313.90
707.94	312.91
708.27	311.82
708.61	310.75
708.94	309.72
709.28	308.76
709.61	307.81
709.94	306.92
710.28	305.88
710.61	304.88
710.95	303.78
711.28	302.85
711.61	301.94
711.95	301.05
712.28	300.14
712.61	299.16
712.95	298.27
713.28	297.37
713.61	296.49
713.95	295.62
714.28	294.78
714.61	293.93
714.95	293.06
715.28	292.22
715.61	291.39
715.95	290.57
716.28	289.74
716.61	288.93
716.95	288.12
717.28	287.39
717.61	286.63
717.94	285.92
718.28	285.13
718.61	284.40
718.94	283.70
719.27	282.99
719.61	282.33
719.94	281.63
720.27	280.91
720.60	280.26
720.94	279.60
721.27	279.00
721.60	278.42
721.93	277.82
722.27	277.33
722.60	276.76
722.93	276.17
723.26	275.61
723.59	275.03
723.93	274.46
724.26	273.91
724.59	273.36
724.92	272.83
725.25	272.31
725.59	271.78
725.92	271.26
726.25	270.78
726.58	270.27
726.91	269.77
727.24	269.31
727.57	268.86
727.91	268.34
728.24	267.86
728.57	267.36
728.90	266.88
729.23	266.30
729.56	265.86
729.89	265.41
730.22	264.90
730.55	264.43
730.89	263.96
731.22	263.47
731.55	263.02
731.88	262.58
732.21	262.12
732.54	261.67
732.87	261.21
733.20	260.78
733.53	260.40
733.86	260.02
734.19	259.64
734.52	259.21
734.85	258.91
735.18	258.47
735.51	258.11
735.84	257.76
736.17	257.44
736.50	257.01
736.83	256.77
737.16	256.41
737.49	256.06
737.82	255.71
738.15	255.40
738.48	255.07
738.81	254.75
739.14	254.45
739.47	254.14
739.80	253.87
740.13	253.56
740.46	253.24
740.79	252.89
741.12	252.58
741.45	252.26
741.78	251.94
742.11	251.67
742.44	251.34
742.77	251.00
743.10	250.70
743.43	250.40
743.75	250.00
744.08	249.87
744.41	249.60
744.74	249.36
745.07	249.10
745.40	248.86
745.73	248.61
746.06	248.32
746.39	248.04
746.71	247.74
747.04	247.48
747.37	247.22
747.70	247.00
748.03	246.71
748.36	246.52
748.68	246.25
749.01	246.01
749.34	245.78
749.67	245.61
750.00	245.38
750.33	245.19
750.65	244.98
750.98	244.69
751.31	244.48
751.64	244.26
751.97	244.06
752.29	243.86
752.62	243.60
752.95	243.42
753.28	243.25
753.60	243.06
753.93	242.91
754.26	242.73
754.59	242.52
754.91	242.35
755.24	242.14
755.57	241.96
755.90	241.78
756.22	241.64
756.55	241.43
756.88	241.29
757.20	241.12
757.53	240.93
757.86	240.73
758.19	240.61
758.51	240.45
758.84	240.25
759.17	240.09
759.49	239.97
759.82	239.86
760.15	239.73
760.47	239.59
760.80	239.42
761.13	239.31
761.45	239.17
761.78	239.04
762.11	238.93
762.43	238.78
762.76	238.65
763.08	238.53
763.41	238.43
763.74	238.28
764.06	238.14
764.39	238.04
764.71	237.91
765.04	237.74
765.37	237.62
765.69	237.51
766.02	237.40
766.34	237.27
766.67	237.12
767.00	237.01
767.32	236.94
767.65	236.88
767.97	236.73
768.30	236.66
768.62	236.52
768.95	236.40
769.27	236.28
769.60	236.16
769.92	236.02
770.25	235.88
770.57	235.75
770.90	235.64
771.22	235.52
771.55	235.43
771.87	235.37
772.20	235.26
772.52	235.26
772.85	235.26
773.17	235.14
773.50	235.03
773.82	234.92
774.15	234.80
774.47	234.61
774.80	234.53
775.12	234.38
775.45	234.34
775.77	234.25
776.09	234.19
776.42	234.11
776.74	234.06
777.07	233.97
777.39	233.91
777.72	233.83
778.04	233.74
778.36	233.65
778.69	233.59
779.01	233.55
779.33	233.36
779.66	233.18
779.98	233.09
780.31	233.03
780.63	233.02
780.95	232.95
781.28	232.91
781.60	232.83
781.92	232.79
782.25	232.68
782.57	232.61
782.89	232.54
783.22	232.48
783.54	232.39
783.86	232.31
784.19	232.23
784.51	232.22
784.83	232.16
785.16	232.10
785.48	232.03
785.80	231.94
786.12	231.88
786.45	231.83
786.77	231.84
787.09	231.76
787.42	231.67
787.74	231.62
788.06	231.57
788.38	231.53
788.71	231.47
789.03	231.46
789.35	231.45
789.67	231.39
789.99	231.37
790.32	231.31
790.64	231.32
790.96	231.34
791.28	231.21
791.61	231.16
791.93	231.13
792.25	231.05
792.57	231.11
792.89	231.06
793.21	231.04
793.54	230.99
793.86	230.94
794.18	230.87
794.50	230.84
794.82	230.81
795.14	230.75
795.47	230.76
795.79	230.70
796.11	230.62
796.43	230.58
796.75	230.54
797.07	230.49
797.39	230.45
797.71	230.38
798.04	230.39
798.36	230.39
798.68	230.36
799.00	230.36
799.32	230.27
799.64	230.26
799.96	230.20
800.28	230.16
800.60	230.15
800.92	230.10
801.24	230.07
801.56	230.06
801.89	230.06
802.21	230.02
802.53	229.98
802.85	229.96
803.17	229.99
803.49	229.93
803.81	229.94
804.13	229.87
804.45	229.83
804.77	229.82
805.09	229.79
805.41	229.74
805.73	229.75
806.05	229.72
806.37	229.69
806.69	229.69
807.01	229.70
807.33	229.70
807.65	229.67
807.97	229.70
808.28	229.63
808.60	229.60
808.92	229.57
809.24	229.62
809.56	229.59
809.88	229.52
810.20	229.51
810.52	229.49
810.84	229.45
811.16	229.43
811.48	229.41
811.80	229.41
812.12	229.39
812.43	229.37
812.75	229.35
813.07	229.32
813.39	229.31
813.71	229.26
814.03	229.21
814.35	229.19
814.67	229.14
814.98	229.15
815.30	229.13
815.62	229.08
815.94	229.02
816.26	229.03
816.58	229.01
816.89	229.01
817.21	228.99
817.53	229.00
817.85	228.98
818.17	228.94
818.48	228.88
818.80	228.89
819.12	228.86
819.44	228.82
819.76	228.81
820.07	228.80
820.39	228.80
820.71	228.79
821.03	228.80
821.34	228.78
821.66	228.78
821.98	228.79
822.30	228.77
822.61	228.79
822.93	228.76
823.25	228.75
823.57	228.73
823.88	228.73
824.20	228.71
824.52	228.70
824.83	228.70
825.15	228.65
825.47	228.58
825.79	228.55
826.10	228.52
826.42	228.52
826.74	228.45
827.05	228.42
827.37	228.40
827.69	228.37
828.00	228.31
828.32	228.25
828.64	228.19
828.95	228.26
829.27	228.23
829.58	228.19
829.90	228.18
830.22	228.16
830.53	228.09
830.85	228.07
831.17	228.02
831.48	228.01
831.80	228.04
832.11	228.04
832.43	228.01
832.75	228.01
833.06	228.04
833.38	228.03
833.69	227.99
834.01	227.98
834.32	227.97
834.64	227.97
834.96	227.97
835.27	227.98
835.59	227.93
835.90	227.87
836.22	227.86
836.53	227.83
836.85	227.82
837.16	227.94
837.48	227.93
837.79	228.00
838.11	227.98
838.42	227.97
838.74	227.98
839.05	227.98
839.37	227.97
839.68	227.92
840.00	227.93
840.31	227.94
840.63	227.93
840.94	227.91
841.26	227.91
841.57	227.92
841.88	227.93
842.20	227.92
842.51	227.94
842.83	227.94
843.14	227.99
843.46	228.00
843.77	227.93
844.08	227.91
844.40	227.86
844.71	227.88
845.03	227.86
845.34	227.85
845.65	227.84
845.97	227.83
846.28	227.84
846.60	227.86
846.91	227.84
847.22	227.84
847.54	227.85
847.85	227.85
848.16	227.82
848.48	227.80
848.79	227.83
849.10	227.82
849.42	227.84
849.73	227.78
850.04	227.75
850.36	227.73
850.67	227.77
850.98	227.74
851.30	227.71
851.61	227.74
851.92	227.74
852.23	227.77
852.55	227.79
852.86	227.81
853.17	227.80
853.49	227.83
853.80	227.83
854.11	227.83
854.42	227.87
854.74	227.87
855.05	227.89
855.36	227.82
855.67	227.84
855.99	227.83
856.30	227.92
856.61	227.93
856.92	227.90
857.23	227.87
857.55	227.93
857.86	227.90
858.17	227.90
858.48	227.89
858.79	227.85
859.11	227.85
859.42	227.84
859.73	227.81
860.04	227.82
860.35	227.79
860.66	227.77
860.98	227.73
861.29	227.74
861.60	227.69
861.91	227.70
862.22	227.68
862.53	227.66
862.84	227.54
863.16	227.54
863.47	227.56
863.78	227.56
864.09	227.48
864.40	227.48
864.71	227.48
865.02	227.47
865.33	227.45
865.64	227.43
865.95	227.41
866.27	227.47
866.58	227.42
866.89	227.42
867.20	227.41
867.51	227.41
867.82	227.40
868.13	227.44
868.44	227.43
868.75	227.41
869.06	227.42
869.37	227.42
869.68	227.38
869.99	227.38
870.30	227.38
870.61	227.41
870.92	227.38
871.23	227.36
871.54	227.34
871.85	227.36
872.16	227.35
872.47	227.32
872.78	227.25
873.09	227.26
873.40	227.25
873.71	227.24
874.02	227.21
874.33	227.17
874.64	227.16
874.95	227.18
875.26	227.18
875.56	227.14
875.87	227.14
876.18	227.12
876.49	227.19
876.80	227.15
877.11	227.11
877.42	227.14
877.73	227.14
878.04	227.14
878.35	227.17
878.66	227.15
878.96	227.13
879.27	227.14
879.58	227.11
879.89	227.11
880.20	227.13
880.51	227.12
880.82	227.15
881.12	227.14
881.43	227.07
881.74	227.05
882.05	227.08
882.36	227.09
882.67	227.13
882.97	227.05
883.28	227.08
883.59	227.09
883.90	227.09
884.21	227.10
884.51	227.11
884.82	227.07
885.13	227.09
885.44	227.12
885.74	227.12
886.05	227.16
886.36	227.19
886.67	227.16
886.98	227.23
887.28	227.23
887.59	227.24
887.90	227.31
888.20	227.31
888.51	227.31
888.82	227.30
889.13	227.30
889.43	227.39
889.74	227.39
890.05	227.40
890.35	227.39
890.66	227.38
890.97	227.39
891.28	227.38
891.58	227.38
891.89	227.34
892.20	227.32
892.50	227.30
892.81	227.28
893.12	227.28
893.42	227.24
893.73	227.22
894.04	227.21
894.34	227.21
894.65	227.21
894.95	227.22
895.26	227.23
895.57	227.27
895.87	227.17
896.18	227.17
896.48	227.19
896.79	227.20
897.10	227.21
897.40	227.21
897.71	227.25
898.01	227.27
898.32	227.32
898.63	227.32
898.93	227.36
899.24	227.36
899.54	227.36
899.85	227.35
900.15	227.37
900.46	227.36
900.76	227.36
901.07	227.37
901.38	227.36
901.68	227.36
901.99	227.31
902.29	227.33
902.60	227.34
902.90	227.32
903.21	227.30
903.51	227.29
903.82	227.28
904.12	227.26
904.43	227.23
904.73	227.21
905.03	227.24
905.34	227.30
905.64	227.30
905.95	227.30
906.25	227.29
906.56	227.28
906.86	227.28
907.17	227.28
907.47	227.30
907.77	227.27
908.08	227.24
908.38	227.22
908.69	227.22
908.99	227.25
909.30	227.26
909.60	227.26
909.90	227.28
910.21	227.24
910.51	227.22
910.81	227.22
911.12	227.23
911.42	227.20
911.73	227.10
912.03	227.10
912.33	227.11
912.64	227.13
912.94	227.11
913.24	227.12
913.55	227.10
913.85	227.06
914.15	227.10
914.46	227.13
914.76	227.14
915.06	227.13
915.37	227.07
915.67	227.05
915.97	227.06
916.27	227.06
916.58	227.08
916.88	227.09
917.18	227.08
917.49	227.12
917.79	227.13
918.09	227.16
918.39	227.19
918.70	227.20
919.00	227.18
919.30	227.24
919.60	227.21
919.91	227.20
920.21	227.21
920.51	227.22
920.81	227.22
921.12	227.22
921.42	227.22
921.72	227.25
922.02	227.28
922.32	227.27
922.63	227.25
922.93	227.34
923.23	227.34
923.53	227.33
923.83	227.28
924.13	227.31
924.44	227.29
924.74	227.30
925.04	227.26
925.34	227.27
925.64	227.20
925.94	227.23
926.24	227.30
926.55	227.27
926.85	227.28
927.15	227.29
927.45	227.33
927.75	227.30
928.05	227.31
928.35	227.31
928.65	227.34
928.95	227.37
929.26	227.30
929.56	227.32
929.86	227.35
930.16	227.36
930.46	227.35
930.76	227.36
931.06	227.34
931.36	227.34
931.66	227.35
931.96	227.38
932.26	227.37
932.56	227.32
932.86	227.34
933.16	227.31
933.46	227.28
933.76	227.24
934.06	227.29
934.36	227.33
934.66	227.32
934.96	227.28
935.26	227.25
935.56	227.28
935.86	227.27
936.16	227.26
936.46	227.24
936.76	227.22
937.06	227.19
937.36	227.19
937.66	227.20
937.96	227.23
938.26	227.19
938.56	227.17
938.86	227.17
939.16	227.20
939.46	227.18
939.76	227.19
940.06	227.18
940.35	227.16
940.65	227.08
940.95	227.08
941.25	227.07
941.55	227.10
941.85	227.07
942.15	227.10
942.45	227.10
942.75	227.10
943.04	227.12
943.34	227.12
943.64	227.12
943.94	227.10
944.24	227.05
944.54	227.10
944.84	227.11
945.13	227.11
945.43	227.08
945.73	227.09
946.03	227.05
946.33	227.04
946.62	227.01
946.92	227.04
947.22	227.04
947.52	227.01
947.82	226.99
948.11	226.99
948.41	226.95
948.71	226.93
949.01	226.95
949.31	226.94
949.60	226.98
949.90	226.98
950.20	226.97
950.50	226.97
950.79	226.94
951.09	226.95
951.39	226.93
951.69	226.91
951.98	226.97
952.28	227.01
952.58	227.01
952.87	226.99
953.17	227.00
953.47	226.95
953.76	226.96
954.06	226.94
954.36	226.94
954.66	226.95
954.95	226.99
955.25	226.95
955.55	226.95
955.84	226.89
956.14	226.91
956.44	226.93
956.73	226.92
957.03	226.91
957.32	226.89
957.62	226.90
957.92	226.94
958.21	226.90
958.51	226.97
958.81	226.95
959.10	226.95
959.40	226.96
959.69	226.99
959.99	227.03
960.29	227.03
960.58	227.00
960.88	227.00
961.17	226.98
961.47	226.99
961.76	226.97
962.06	226.99
962.36	226.91
962.65	226.92
962.95	226.93
963.24	226.92
963.54	226.93
963.83	226.94
964.13	226.92
964.42	226.89
964.72	226.80
965.01	226.82
965.31	226.81
965.60	226.73
965.90	226.81
966.19	226.76
966.49	226.77
966.78	226.78
967.08	226.79
967.37	226.80
967.67	226.81
967.96	226.83
968.26	226.80
968.55	226.89
968.85	226.85
969.14	226.83
969.43	226.84
969.73	226.84
970.02	226.83
970.32	226.82
970.61	226.82
970.91	226.83
971.20	226.84
971.49	226.89
971.79	226.97
972.08	226.92
972.38	226.95
972.67	226.94
972.96	226.96
973.26	226.96
973.55	226.97
973.85	226.96
974.14	226.97
974.43	227.00
974.73	226.98
975.02	227.01
975.31	227.03
975.61	227.04
975.90	227.04
976.19	227.03
976.49	227.08
976.78	227.10
977.07	227.11
977.37	227.11
977.66	227.09
977.95	227.06
978.24	227.06
978.54	227.08
978.83	227.10
979.12	227.10
979.42	227.08
979.71	227.08
980.00	227.10
980.29	227.09
980.59	227.06
980.88	227.09
981.17	227.09
981.46	227.11
981.76	227.10
982.05	227.12
982.34	227.16
982.63	227.13
982.93	227.14
983.22	227.14
983.51	227.15
983.80	227.18
984.09	227.19
984.39	227.17
984.68	227.15
984.97	227.15
985.26	227.09
985.55	227.13
985.85	227.10
986.14	227.07
986.43	227.09
986.72	227.10
987.01	227.07
987.30	227.06
987.59	227.04
987.89	227.05
988.18	227.00
988.47	226.93
988.76	226.91
989.05	226.90
989.34	226.88
989.63	226.91
989.92	226.87
990.22	226.85
990.51	226.89
990.80	226.91
991.09	226.90
991.38	226.94
991.67	226.91
991.96	226.89
992.25	226.93
992.54	226.90
992.83	226.90
993.12	226.87
993.41	226.90
993.70	226.91
993.99	226.92
994.28	226.95
994.58	226.99
994.87	226.97
995.16	226.97
995.45	226.95
995.74	226.90
996.03	226.90
996.32	226.93
996.61	226.88
996.90	226.83
997.19	226.84
997.48	226.83
997.77	226.82
998.06	226.82
998.34	226.80
998.63	226.79
998.92	226.76
999.21	226.78
999.50	226.75
999.79	226.74
1000.08	226.72
1000.37	226.73
1000.66	226.71
1000.95	226.74
1001.24	226.67
1001.53	226.69
1001.82	226.69
1002.11	226.69
1002.40	226.67
1002.68	226.74
1002.97	226.79
1003.26	226.79
1003.55	226.76
1003.84	226.78
1004.13	226.83
1004.42	226.82
1004.71	226.83
1004.99	226.84
1005.28	226.88
1005.57	226.89
1005.86	226.90
1006.15	226.93
1006.44	226.89
1006.72	226.94
1007.01	226.93
1007.30	227.01
1007.59	227.03
1007.88	227.01
1008.17	227.00
1008.45	227.00
1008.74	226.91
1009.03	226.89
1009.32	226.87
1009.60	226.88
1009.89	226.86
1010.18	226.83
1010.47	226.83
1010.76	226.82
1011.04	226.80
1011.33	226.79
1011.62	226.79
1011.91	226.78
1012.19	226.74
1012.48	226.76
1012.77	226.78
1013.05	226.83
1013.34	226.85
1013.63	226.83
1013.92	226.87
1014.20	226.90
1014.49	226.91
1014.78	226.95
1015.06	226.93
1015.35	226.97
1015.64	227.04
1015.92	227.08
1016.21	227.08
1016.50	227.09
1016.78	227.12
1017.07	227.14
1017.36	227.16
1017.64	227.16
1017.93	227.17
1018.22	227.14
1018.50	227.14
1018.79	227.14
1019.08	227.12
1019.36	227.07
1019.65	227.05
1019.93	227.08
1020.22	227.09
1020.51	227.15
1020.79	227.16
1021.08	226.00
1021.36	226.84
1021.65	227.47
1021.94	227.32
1022.22	226.76
1022.51	226.46
1022.79	227.58
1023.08	227.45
1023.36	228.40
1023.65	227.12
>>>>>End Processed Spectral Data<<<<<
