SpectraSuite Data File
++++++++++++++++++++++++++++++++++++
Date: Fri Feb 01 15:03:34 EST 2013
User: group
Dark Spectrum Present: No
Reference Spectrum Present: No
Number of Sampled Component Spectra: 1
Spectrometers: USB2E7196
Integration Time (usec): 35000 (USB2E7196)
Spectra Averaged: 100 (USB2E7196)
Boxcar Smoothing: 10 (USB2E7196)
Correct for Electrical Dark: No (USB2E7196)
Strobe/Lamp Enabled: No (USB2E7196)
Correct for Detector Non-linearity: No (USB2E7196)
Correct for Stray Light: No (USB2E7196)
Number of Pixels in Processed Spectrum: 2048
>>>>>Begin Processed Spectral Data<<<<<
339.09	0.00
339.48	214.71
339.86	216.61
340.24	217.88
340.63	218.84
341.01	222.06
341.39	222.15
341.78	223.07
342.16	224.52
342.54	224.66
342.93	213.38
343.31	224.19
343.69	224.75
344.07	225.19
344.46	225.60
344.84	226.00
345.22	226.24
345.60	226.49
345.99	226.68
346.37	226.84
346.75	226.96
347.13	226.99
347.52	227.04
347.90	227.11
348.28	227.13
348.66	227.20
349.05	227.20
349.43	227.22
349.81	227.26
350.19	227.33
350.57	227.37
350.96	227.42
351.34	227.46
351.72	227.52
352.10	227.61
352.48	227.71
352.87	227.76
353.25	227.81
353.63	227.85
354.01	227.91
354.39	227.97
354.77	228.04
355.15	228.16
355.54	228.21
355.92	228.26
356.30	228.31
356.68	228.44
357.06	228.53
357.44	228.59
357.82	228.65
358.20	228.70
358.58	228.78
358.97	228.86
359.35	228.97
359.73	229.06
360.11	229.11
360.49	229.15
360.87	229.21
361.25	229.29
361.63	229.36
362.01	229.40
362.39	229.42
362.77	229.46
363.15	229.48
363.53	229.55
363.91	229.58
364.29	229.60
364.67	229.53
365.05	229.54
365.43	229.56
365.81	229.57
366.19	229.58
366.57	229.59
366.95	229.57
367.33	229.52
367.71	229.50
368.09	229.51
368.47	229.47
368.85	229.46
369.23	229.44
369.61	229.40
369.99	229.41
370.37	229.41
370.75	229.42
371.13	229.34
371.51	229.23
371.89	229.21
372.27	229.16
372.65	229.10
373.03	229.02
373.41	228.98
373.78	228.90
374.16	228.80
374.54	228.72
374.92	228.65
375.30	228.58
375.68	228.49
376.06	228.41
376.44	228.35
376.82	228.29
377.19	228.19
377.57	228.06
377.95	227.94
378.33	227.82
378.71	227.69
379.09	227.65
379.47	227.60
379.84	227.52
380.22	227.46
380.60	227.37
380.98	227.31
381.36	227.21
381.73	227.14
382.11	227.09
382.49	227.00
382.87	226.89
383.25	226.82
383.62	226.85
384.00	226.78
384.38	226.74
384.76	226.67
385.13	226.65
385.51	226.66
385.89	226.62
386.27	226.57
386.64	226.53
387.02	226.46
387.40	226.41
387.78	226.33
388.15	226.28
388.53	226.27
388.91	226.23
389.29	226.18
389.66	226.19
390.04	226.15
390.42	226.16
390.79	226.20
391.17	226.20
391.55	226.12
391.92	226.11
392.30	226.10
392.68	226.08
393.05	226.07
393.43	226.07
393.81	226.06
394.18	226.06
394.56	226.11
394.94	226.15
395.31	226.18
395.69	226.28
396.06	226.34
396.44	226.39
396.82	226.42
397.19	226.52
397.57	226.54
397.95	226.67
398.32	226.72
398.70	226.81
399.07	226.89
399.45	226.99
399.82	227.08
400.20	227.16
400.58	227.25
400.95	227.29
401.33	227.42
401.70	227.61
402.08	227.73
402.45	227.81
402.83	227.95
403.20	228.07
403.58	228.17
403.95	228.30
404.33	228.45
404.71	228.58
405.08	228.78
405.46	228.93
405.83	229.06
406.21	229.19
406.58	229.34
406.96	229.53
407.33	229.70
407.70	229.91
408.08	230.18
408.45	230.42
408.83	230.68
409.20	230.89
409.58	231.08
409.95	231.38
410.33	231.64
410.70	231.88
411.08	232.18
411.45	232.47
411.82	232.81
412.20	233.15
412.57	233.59
412.95	233.88
413.32	234.29
413.69	234.74
414.07	235.20
414.44	235.68
414.82	236.16
415.19	236.68
415.56	237.23
415.94	237.78
416.31	238.44
416.68	239.09
417.06	239.80
417.43	240.47
417.81	241.20
418.18	242.01
418.55	242.84
418.93	243.71
419.30	244.61
419.67	245.56
420.04	246.53
420.42	247.50
420.79	248.69
421.16	249.85
421.54	250.99
421.91	252.19
422.28	253.42
422.66	254.71
423.03	256.04
423.40	257.37
423.77	258.77
424.15	260.15
424.52	261.61
424.89	263.23
425.26	264.78
425.64	266.25
426.01	267.83
426.38	269.49
426.75	271.15
427.13	272.86
427.50	274.65
427.87	276.54
428.24	278.40
428.61	280.15
428.99	282.09
429.36	284.23
429.73	286.28
430.10	288.32
430.47	290.42
430.85	292.50
431.22	294.73
431.59	297.15
431.96	299.41
432.33	301.90
432.70	304.27
433.08	307.10
433.45	309.75
433.82	312.37
434.19	315.25
434.56	318.08
434.93	320.73
435.30	323.33
435.68	326.22
436.05	329.07
436.42	331.87
436.79	334.44
437.16	337.11
437.53	339.96
437.90	342.79
438.27	345.54
438.64	348.38
439.01	351.00
439.38	353.18
439.75	355.37
440.13	357.88
440.50	360.21
440.87	362.06
441.24	364.01
441.61	366.16
441.98	367.70
442.35	369.51
442.72	371.40
443.09	373.19
443.46	374.16
443.83	374.77
444.20	375.26
444.57	376.08
444.94	376.36
445.31	376.69
445.68	377.02
446.05	377.07
446.42	376.68
446.79	376.25
447.16	375.83
447.53	375.50
447.90	374.32
448.27	373.13
448.64	371.53
449.01	370.39
449.37	368.43
449.74	366.48
450.11	364.20
450.48	361.69
450.85	359.19
451.22	357.06
451.59	355.01
451.96	353.01
452.33	350.36
452.70	348.01
453.07	345.15
453.43	342.24
453.80	339.48
454.17	336.82
454.54	334.27
454.91	331.57
455.28	328.89
455.65	326.38
456.02	323.97
456.38	321.82
456.75	319.12
457.12	316.87
457.49	314.69
457.86	312.55
458.23	310.72
458.59	308.68
458.96	306.61
459.33	304.76
459.70	302.94
460.07	301.42
460.43	299.70
460.80	298.08
461.17	296.66
461.54	295.16
461.91	293.70
462.27	292.27
462.64	290.99
463.01	289.65
463.38	288.39
463.74	286.96
464.11	285.79
464.48	284.77
464.85	283.68
465.21	282.77
465.58	281.83
465.95	280.70
466.32	279.75
466.68	278.85
467.05	277.98
467.42	277.08
467.78	276.17
468.15	275.27
468.52	274.60
468.88	273.73
469.25	272.92
469.62	272.26
469.98	271.55
470.35	270.94
470.72	270.29
471.08	269.61
471.45	269.10
471.82	268.54
472.18	267.93
472.55	267.47
472.92	266.98
473.28	266.49
473.65	266.07
474.02	265.63
474.38	265.22
474.75	264.86
475.11	264.50
475.48	264.24
475.85	264.04
476.21	263.80
476.58	263.61
476.94	263.44
477.31	263.30
477.67	263.16
478.04	263.02
478.41	262.95
478.77	262.97
479.14	262.88
479.50	262.91
479.87	262.98
480.23	263.01
480.60	263.04
480.96	263.13
481.33	263.32
481.69	263.51
482.06	263.67
482.42	263.87
482.79	264.12
483.15	264.39
483.52	264.73
483.88	265.08
484.25	265.44
484.61	265.88
484.98	266.34
485.34	266.92
485.71	267.49
486.07	268.06
486.44	268.66
486.80	269.38
487.17	270.09
487.53	270.87
487.90	271.72
488.26	272.67
488.62	273.66
488.99	274.62
489.35	275.70
489.72	276.85
490.08	278.04
490.44	279.28
490.81	280.61
491.17	281.98
491.54	283.46
491.90	285.01
492.26	286.66
492.63	288.36
492.99	290.07
493.36	291.93
493.72	293.96
494.08	296.03
494.45	298.23
494.81	300.57
495.17	303.05
495.54	305.61
495.90	308.24
496.26	311.05
496.63	313.98
496.99	317.07
497.35	320.30
497.72	323.67
498.08	327.13
498.44	330.82
498.80	334.73
499.17	338.78
499.53	342.93
499.89	347.30
500.26	351.81
500.62	356.50
500.98	361.49
501.34	366.60
501.71	371.91
502.07	377.32
502.43	382.89
502.79	388.67
503.16	394.75
503.52	400.99
503.88	407.32
504.24	413.92
504.60	420.79
504.97	427.88
505.33	435.19
505.69	442.88
506.05	450.58
506.41	458.44
506.78	466.52
507.14	474.94
507.50	483.61
507.86	492.59
508.22	501.75
508.59	510.90
508.95	520.50
509.31	530.28
509.67	540.44
510.03	550.73
510.39	561.30
510.75	572.08
511.12	583.04
511.48	594.42
511.84	605.84
512.20	617.37
512.56	629.24
512.92	641.33
513.28	653.73
513.64	666.30
514.00	679.03
514.37	692.05
514.73	705.11
515.09	718.13
515.45	731.52
515.81	745.12
516.17	759.14
516.53	773.16
516.89	787.34
517.25	801.47
517.61	815.86
517.97	830.22
518.33	844.66
518.69	859.41
519.05	874.39
519.41	889.62
519.77	905.23
520.13	920.84
520.49	936.31
520.85	951.73
521.21	967.41
521.57	983.71
521.93	999.47
522.29	1015.90
522.65	1032.26
523.01	1048.45
523.37	1064.60
523.73	1080.89
524.09	1097.17
524.45	1113.50
524.81	1130.24
525.17	1147.27
525.53	1164.22
525.89	1181.17
526.25	1198.08
526.61	1214.56
526.97	1231.38
527.33	1247.94
527.68	1264.58
528.04	1281.18
528.40	1297.87
528.76	1314.99
529.12	1331.62
529.48	1348.60
529.84	1364.73
530.20	1381.45
530.56	1398.60
530.91	1416.00
531.27	1432.77
531.63	1449.22
531.99	1465.91
532.35	1481.90
532.71	1497.79
533.07	1514.25
533.42	1530.23
533.78	1546.36
534.14	1562.63
534.50	1578.04
534.86	1593.99
535.21	1609.12
535.57	1625.19
535.93	1640.75
536.29	1655.67
536.65	1670.84
537.00	1685.76
537.36	1701.18
537.72	1715.70
538.08	1730.18
538.44	1744.17
538.79	1758.17
539.15	1771.91
539.51	1785.79
539.87	1800.37
540.22	1814.35
540.58	1828.24
540.94	1841.74
541.29	1854.76
541.65	1867.67
542.01	1881.02
542.37	1893.26
542.72	1905.93
543.08	1917.73
543.44	1930.34
543.79	1941.50
544.15	1952.58
544.51	1964.11
544.87	1975.09
545.22	1985.95
545.58	1996.20
545.94	2005.98
546.29	2015.87
546.65	2025.70
547.01	2034.91
547.36	2043.57
547.72	2051.80
548.07	2059.62
548.43	2067.79
548.79	2076.01
549.14	2083.51
549.50	2090.89
549.86	2098.78
550.21	2106.17
550.57	2113.36
550.92	2119.74
551.28	2127.06
551.64	2134.12
551.99	2140.62
552.35	2146.73
552.70	2152.89
553.06	2158.78
553.41	2165.13
553.77	2171.14
554.13	2177.24
554.48	2183.38
554.84	2188.77
555.19	2194.25
555.55	2199.43
555.90	2203.89
556.26	2208.50
556.61	2213.32
556.97	2217.45
557.32	2221.44
557.68	2225.50
558.03	2229.78
558.39	2233.60
558.74	2238.10
559.10	2241.84
559.45	2245.53
559.81	2249.86
560.16	2253.64
560.52	2256.76
560.87	2260.04
561.23	2262.57
561.58	2265.64
561.94	2268.14
562.29	2270.50
562.64	2273.13
563.00	2275.67
563.35	2279.18
563.71	2282.40
564.06	2285.36
564.42	2288.11
564.77	2290.42
565.12	2292.51
565.48	2294.19
565.83	2295.83
566.19	2296.97
566.54	2297.85
566.89	2298.98
567.25	2299.43
567.60	2300.77
567.96	2302.36
568.31	2303.15
568.66	2304.26
569.02	2304.75
569.37	2304.87
569.72	2305.57
570.08	2305.47
570.43	2305.35
570.78	2304.41
571.14	2302.70
571.49	2301.33
571.84	2300.96
572.20	2299.70
572.55	2298.71
572.90	2297.10
573.26	2295.52
573.61	2293.87
573.96	2291.96
574.31	2288.75
574.67	2285.55
575.02	2281.88
575.37	2278.45
575.72	2274.52
576.08	2270.96
576.43	2267.55
576.78	2263.86
577.13	2260.74
577.49	2257.49
577.84	2253.81
578.19	2250.07
578.54	2246.16
578.90	2241.69
579.25	2236.11
579.60	2231.07
579.95	2225.70
580.30	2220.62
580.66	2215.32
581.01	2210.16
581.36	2205.11
581.71	2200.67
582.06	2196.13
582.42	2191.46
582.77	2186.07
583.12	2181.29
583.47	2176.49
583.82	2171.27
584.17	2165.89
584.53	2160.14
584.88	2154.44
585.23	2148.63
585.58	2143.11
585.93	2137.70
586.28	2132.85
586.63	2127.59
586.98	2122.53
587.34	2117.90
587.69	2112.93
588.04	2107.79
588.39	2101.87
588.74	2095.27
589.09	2089.13
589.44	2082.35
589.79	2076.22
590.14	2070.52
590.49	2063.86
590.84	2057.45
591.19	2051.26
591.54	2044.60
591.89	2036.91
592.25	2029.93
592.60	2022.59
592.95	2014.83
593.30	2007.24
593.65	1999.57
594.00	1992.55
594.35	1985.12
594.70	1976.81
595.05	1969.34
595.40	1961.91
595.75	1954.43
596.10	1948.01
596.45	1941.15
596.80	1934.74
597.15	1927.93
597.50	1920.78
597.85	1914.31
598.19	1907.46
598.54	1900.32
598.89	1893.61
599.24	1887.80
599.59	1881.08
599.94	1874.79
600.29	1868.38
600.64	1861.71
600.99	1854.12
601.34	1847.01
601.69	1840.01
602.04	1833.12
602.39	1825.68
602.74	1818.76
603.08	1811.96
603.43	1805.24
603.78	1797.99
604.13	1790.68
604.48	1783.39
604.83	1776.47
605.18	1769.30
605.53	1761.21
605.87	1753.08
606.22	1745.89
606.57	1738.00
606.92	1730.73
607.27	1723.49
607.62	1716.60
607.96	1709.48
608.31	1702.99
608.66	1695.43
609.01	1687.92
609.36	1680.44
609.70	1672.62
610.05	1664.53
610.40	1656.79
610.75	1648.51
611.10	1640.86
611.44	1632.66
611.79	1624.67
612.14	1615.99
612.49	1607.11
612.83	1598.93
613.18	1590.79
613.53	1582.72
613.88	1574.20
614.22	1565.93
614.57	1557.48
614.92	1549.47
615.27	1541.79
615.61	1533.48
615.96	1525.58
616.31	1517.91
616.65	1510.52
617.00	1502.86
617.35	1495.18
617.70	1486.91
618.04	1478.35
618.39	1469.99
618.74	1462.37
619.08	1454.09
619.43	1446.54
619.78	1439.63
620.12	1432.33
620.47	1424.88
620.82	1416.76
621.16	1409.40
621.51	1401.83
621.85	1394.20
622.20	1385.68
622.55	1377.43
622.89	1369.59
623.24	1362.01
623.59	1354.70
623.93	1347.25
624.28	1340.20
624.62	1332.78
624.97	1325.64
625.32	1319.03
625.66	1312.15
626.01	1304.89
626.35	1297.41
626.70	1289.73
627.04	1281.96
627.39	1274.35
627.73	1267.05
628.08	1260.19
628.43	1252.77
628.77	1245.39
629.12	1237.75
629.46	1230.65
629.81	1223.36
630.15	1216.18
630.50	1208.78
630.84	1200.64
631.19	1192.59
631.53	1185.06
631.88	1177.54
632.22	1169.96
632.57	1162.79
632.91	1155.37
633.26	1148.07
633.60	1140.80
633.95	1133.75
634.29	1126.79
634.64	1120.08
634.98	1112.72
635.32	1105.61
635.67	1099.16
636.01	1092.59
636.36	1085.88
636.70	1079.43
637.05	1072.72
637.39	1066.23
637.73	1059.76
638.08	1053.88
638.42	1048.07
638.77	1041.60
639.11	1035.03
639.45	1028.71
639.80	1021.94
640.14	1015.42
640.49	1008.86
640.83	1002.64
641.17	996.39
641.52	990.10
641.86	983.82
642.20	978.01
642.55	971.78
642.89	965.39
643.23	958.91
643.58	953.15
643.92	946.93
644.26	940.91
644.61	934.92
644.95	928.87
645.29	922.34
645.64	915.58
645.98	909.32
646.32	903.52
646.66	897.50
647.01	891.77
647.35	886.12
647.69	880.40
648.04	874.89
648.38	869.21
648.72	863.12
649.06	857.06
649.41	851.17
649.75	845.11
650.09	839.11
650.43	833.29
650.78	827.18
651.12	821.23
651.46	815.55
651.80	809.79
652.14	804.44
652.49	799.05
652.83	793.90
653.17	788.21
653.51	782.52
653.85	777.10
654.20	771.43
654.54	765.49
654.88	759.77
655.22	753.88
655.56	748.16
655.90	742.74
656.25	737.41
656.59	732.10
656.93	727.05
657.27	721.95
657.61	716.57
657.95	711.50
658.29	706.47
658.64	701.31
658.98	696.13
659.32	690.63
659.66	685.46
660.00	680.20
660.34	675.32
660.68	670.45
661.02	665.49
661.36	660.81
661.70	656.31
662.05	651.96
662.39	647.69
662.73	643.28
663.07	638.97
663.41	634.57
663.75	630.09
664.09	625.59
664.43	621.18
664.77	617.07
665.11	612.79
665.45	608.75
665.79	604.70
666.13	600.53
666.47	596.49
666.81	592.33
667.15	588.21
667.49	584.35
667.83	580.55
668.17	576.62
668.51	572.60
668.85	568.67
669.19	564.86
669.53	561.01
669.87	557.18
670.21	553.52
670.55	549.89
670.89	546.46
671.23	543.07
671.57	539.58
671.91	536.05
672.25	532.62
672.58	529.06
672.92	525.66
673.26	522.52
673.60	519.41
673.94	516.34
674.28	513.46
674.62	510.50
674.96	507.39
675.30	504.44
675.64	501.56
675.97	498.76
676.31	495.90
676.65	492.98
676.99	490.25
677.33	487.41
677.67	484.64
678.01	481.65
678.34	478.69
678.68	475.88
679.02	473.13
679.36	470.36
679.70	467.64
680.04	464.83
680.37	462.00
680.71	459.25
681.05	456.68
681.39	453.96
681.73	451.32
682.06	448.86
682.40	446.37
682.74	443.85
683.08	441.33
683.42	438.78
683.75	436.31
684.09	433.80
684.43	431.38
684.77	428.90
685.10	426.59
685.44	424.30
685.78	422.01
686.12	419.77
686.45	417.49
686.79	415.22
687.13	413.08
687.46	410.89
687.80	408.73
688.14	406.48
688.48	404.51
688.81	402.24
689.15	400.09
689.49	397.96
689.82	395.92
690.16	393.78
690.50	391.78
690.83	389.89
691.17	387.90
691.51	385.92
691.84	384.07
692.18	382.07
692.52	380.07
692.85	378.15
693.19	376.25
693.52	374.44
693.86	372.67
694.20	370.90
694.53	369.12
694.87	367.31
695.21	365.59
695.54	363.72
695.88	362.01
696.21	360.33
696.55	358.68
696.88	356.96
697.22	355.36
697.56	353.78
697.89	352.10
698.23	350.51
698.56	348.91
698.90	347.32
699.23	345.70
699.57	344.17
699.90	342.63
700.24	341.13
700.58	339.58
700.91	338.06
701.25	336.62
701.58	335.27
701.92	333.95
702.25	332.53
702.59	331.16
702.92	329.85
703.26	328.49
703.59	327.21
703.93	326.05
704.26	324.82
704.60	323.51
704.93	322.24
705.26	321.00
705.60	319.92
705.93	318.79
706.27	317.80
706.60	316.75
706.94	315.68
707.27	314.56
707.61	313.55
707.94	312.55
708.27	311.44
708.61	310.35
708.94	309.34
709.28	308.40
709.61	307.46
709.94	306.55
710.28	305.54
710.61	304.57
710.95	303.52
711.28	302.63
711.61	301.72
711.95	300.83
712.28	299.88
712.61	298.85
712.95	297.94
713.28	297.04
713.61	296.15
713.95	295.29
714.28	294.43
714.61	293.53
714.95	292.71
715.28	291.88
715.61	291.01
715.95	290.15
716.28	289.30
716.61	288.50
716.95	287.69
717.28	286.98
717.61	286.21
717.94	285.47
718.28	284.64
718.61	283.93
718.94	283.27
719.27	282.61
719.61	282.02
719.94	281.41
720.27	280.72
720.60	280.04
720.94	279.38
721.27	278.78
721.60	278.23
721.93	277.62
722.27	277.07
722.60	276.54
722.93	275.97
723.26	275.43
723.59	274.84
723.93	274.29
724.26	273.73
724.59	273.14
724.92	272.62
725.25	272.12
725.59	271.58
725.92	271.07
726.25	270.57
726.58	270.03
726.91	269.48
727.24	268.98
727.57	268.53
727.91	268.05
728.24	267.60
728.57	267.10
728.90	266.65
729.23	266.17
729.56	265.75
729.89	265.28
730.22	264.78
730.55	264.34
730.89	263.90
731.22	263.43
731.55	263.01
731.88	262.58
732.21	262.15
732.54	261.69
732.87	261.27
733.20	260.85
733.53	260.46
733.86	260.11
734.19	259.70
734.52	259.34
734.85	259.04
735.18	258.62
735.51	258.27
735.84	257.90
736.17	257.54
736.50	257.10
736.83	256.87
737.16	256.57
737.49	256.25
737.82	255.90
738.15	255.59
738.48	255.23
738.81	254.90
739.14	254.58
739.47	254.28
739.80	253.94
740.13	253.63
740.46	253.31
740.79	252.99
741.12	252.71
741.45	252.38
741.78	252.02
742.11	251.74
742.44	251.43
742.77	251.17
743.10	250.88
743.43	250.64
743.75	250.24
744.08	250.05
744.41	249.76
744.74	249.49
745.07	249.22
745.40	249.00
745.73	248.73
746.06	248.46
746.39	248.23
746.71	247.97
747.04	247.74
747.37	247.49
747.70	247.24
748.03	246.99
748.36	246.79
748.68	246.54
749.01	246.29
749.34	246.07
749.67	245.83
750.00	245.59
750.33	245.42
750.65	245.23
750.98	244.95
751.31	244.71
751.64	244.49
751.97	244.32
752.29	244.11
752.62	243.90
752.95	243.68
753.28	243.50
753.60	243.29
753.93	243.13
754.26	242.97
754.59	242.78
754.91	242.59
755.24	242.36
755.57	242.18
755.90	242.03
756.22	241.81
756.55	241.61
756.88	241.41
757.20	241.18
757.53	240.98
757.86	240.78
758.19	240.67
758.51	240.53
758.84	240.32
759.17	240.14
759.49	240.03
759.82	239.92
760.15	239.74
760.47	239.62
760.80	239.40
761.13	239.25
761.45	239.08
761.78	238.93
762.11	238.80
762.43	238.65
762.76	238.51
763.08	238.38
763.41	238.24
763.74	238.16
764.06	238.00
764.39	237.88
764.71	237.74
765.04	237.58
765.37	237.44
765.69	237.32
766.02	237.20
766.34	237.05
766.67	236.90
767.00	236.82
767.32	236.73
767.65	236.70
767.97	236.58
768.30	236.46
768.62	236.37
768.95	236.21
769.27	236.12
769.60	236.03
769.92	235.92
770.25	235.81
770.57	235.68
770.90	235.55
771.22	235.45
771.55	235.35
771.87	235.26
772.20	235.16
772.52	235.13
772.85	235.14
773.17	235.04
773.50	234.95
773.82	234.84
774.15	234.70
774.47	234.55
774.80	234.44
775.12	234.35
775.45	234.25
775.77	234.23
776.09	234.15
776.42	234.04
776.74	233.98
777.07	233.90
777.39	233.80
777.72	233.74
778.04	233.66
778.36	233.60
778.69	233.54
779.01	233.47
779.33	233.33
779.66	233.17
779.98	233.07
780.31	233.01
780.63	232.98
780.95	232.93
781.28	232.86
781.60	232.79
781.92	232.74
782.25	232.70
782.57	232.59
782.89	232.52
783.22	232.48
783.54	232.40
783.86	232.35
784.19	232.29
784.51	232.26
784.83	232.23
785.16	232.18
785.48	232.12
785.80	232.08
786.12	232.02
786.45	231.97
786.77	231.95
787.09	231.90
787.42	231.81
787.74	231.76
788.06	231.73
788.38	231.66
788.71	231.59
789.03	231.53
789.35	231.54
789.67	231.46
789.99	231.40
790.32	231.36
790.64	231.35
790.96	231.38
791.28	231.32
791.61	231.27
791.93	231.23
792.25	231.19
792.57	231.17
792.89	231.15
793.21	231.16
793.54	231.09
793.86	231.06
794.18	231.00
794.50	230.95
794.82	230.94
795.14	230.93
795.47	230.95
795.79	230.89
796.11	230.84
796.43	230.81
796.75	230.81
797.07	230.80
797.39	230.78
797.71	230.69
798.04	230.67
798.36	230.64
798.68	230.62
799.00	230.60
799.32	230.52
799.64	230.53
799.96	230.49
800.28	230.50
800.60	230.45
800.92	230.44
801.24	230.41
801.56	230.36
801.89	230.34
802.21	230.29
802.53	230.26
802.85	230.24
803.17	230.28
803.49	230.19
803.81	230.13
804.13	230.06
804.45	230.03
804.77	229.99
805.09	229.97
805.41	229.88
805.73	229.85
806.05	229.80
806.37	229.74
806.69	229.69
807.01	229.65
807.33	229.62
807.65	229.58
807.97	229.62
808.28	229.56
808.60	229.51
808.92	229.48
809.24	229.49
809.56	229.43
809.88	229.36
810.20	229.35
810.52	229.35
810.84	229.32
811.16	229.26
811.48	229.23
811.80	229.23
812.12	229.23
812.43	229.21
812.75	229.20
813.07	229.15
813.39	229.14
813.71	229.08
814.03	229.04
814.35	229.03
814.67	228.94
814.98	228.91
815.30	228.88
815.62	228.84
815.94	228.81
816.26	228.83
816.58	228.79
816.89	228.80
817.21	228.75
817.53	228.75
817.85	228.76
818.17	228.75
818.48	228.69
818.80	228.69
819.12	228.69
819.44	228.63
819.76	228.64
820.07	228.61
820.39	228.65
820.71	228.66
821.03	228.62
821.34	228.58
821.66	228.61
821.98	228.59
822.30	228.58
822.61	228.60
822.93	228.55
823.25	228.53
823.57	228.50
823.88	228.51
824.20	228.49
824.52	228.48
824.83	228.46
825.15	228.43
825.47	228.42
825.79	228.40
826.10	228.40
826.42	228.37
826.74	228.38
827.05	228.32
827.37	228.28
827.69	228.26
828.00	228.27
828.32	228.26
828.64	228.25
828.95	228.29
829.27	228.27
829.58	228.23
829.90	228.25
830.22	228.26
830.53	228.22
830.85	228.21
831.17	228.15
831.48	228.13
831.80	228.12
832.11	228.08
832.43	228.08
832.75	228.09
833.06	228.16
833.38	228.12
833.69	228.10
834.01	228.11
834.32	228.13
834.64	228.11
834.96	228.09
835.27	228.08
835.59	228.02
835.90	228.01
836.22	228.04
836.53	228.00
836.85	227.99
837.16	228.08
837.48	228.10
837.79	228.16
838.11	228.17
838.42	228.17
838.74	228.22
839.05	228.19
839.37	228.16
839.68	228.10
840.00	228.09
840.31	228.12
840.63	228.10
840.94	228.07
841.26	228.07
841.57	228.06
841.88	228.07
842.20	228.08
842.51	228.03
842.83	228.01
843.14	228.10
843.46	228.11
843.77	228.01
844.08	227.98
844.40	227.94
844.71	227.94
845.03	227.96
845.34	227.90
845.65	227.90
845.97	227.91
846.28	227.87
846.60	227.86
846.91	227.84
847.22	227.84
847.54	227.83
847.85	227.84
848.16	227.81
848.48	227.78
848.79	227.82
849.10	227.86
849.42	227.84
849.73	227.75
850.04	227.74
850.36	227.76
850.67	227.74
850.98	227.75
851.30	227.76
851.61	227.74
851.92	227.75
852.23	227.74
852.55	227.74
852.86	227.75
853.17	227.75
853.49	227.78
853.80	227.80
854.11	227.86
854.42	227.85
854.74	227.87
855.05	227.87
855.36	227.79
855.67	227.76
855.99	227.75
856.30	227.85
856.61	227.88
856.92	227.84
857.23	227.85
857.55	227.82
857.86	227.78
858.17	227.77
858.48	227.73
858.79	227.69
859.11	227.68
859.42	227.67
859.73	227.64
860.04	227.58
860.35	227.55
860.66	227.46
860.98	227.47
861.29	227.46
861.60	227.43
861.91	227.47
862.22	227.45
862.53	227.44
862.84	227.34
863.16	227.32
863.47	227.30
863.78	227.29
864.09	227.33
864.40	227.32
864.71	227.30
865.02	227.33
865.33	227.34
865.64	227.32
865.95	227.32
866.27	227.37
866.58	227.37
866.89	227.37
867.20	227.41
867.51	227.39
867.82	227.36
868.13	227.40
868.44	227.36
868.75	227.38
869.06	227.40
869.37	227.42
869.68	227.41
869.99	227.43
870.30	227.43
870.61	227.42
870.92	227.40
871.23	227.41
871.54	227.43
871.85	227.45
872.16	227.48
872.47	227.43
872.78	227.42
873.09	227.46
873.40	227.46
873.71	227.48
874.02	227.49
874.33	227.52
874.64	227.51
874.95	227.52
875.26	227.51
875.56	227.50
875.87	227.51
876.18	227.53
876.49	227.64
876.80	227.65
877.11	227.65
877.42	227.68
877.73	227.68
878.04	227.65
878.35	227.66
878.66	227.64
878.96	227.69
879.27	227.65
879.58	227.64
879.89	227.64
880.20	227.63
880.51	227.62
880.82	227.61
881.12	227.62
881.43	227.61
881.74	227.60
882.05	227.61
882.36	227.59
882.67	227.56
882.97	227.47
883.28	227.48
883.59	227.44
883.90	227.47
884.21	227.53
884.51	227.52
884.82	227.50
885.13	227.54
885.44	227.50
885.74	227.52
886.05	227.53
886.36	227.54
886.67	227.52
886.98	227.61
887.28	227.61
887.59	227.61
887.90	227.62
888.20	227.65
888.51	227.63
888.82	227.58
889.13	227.61
889.43	227.65
889.74	227.64
890.05	227.66
890.35	227.60
890.66	227.55
890.97	227.57
891.28	227.55
891.58	227.51
891.89	227.54
892.20	227.52
892.50	227.48
892.81	227.44
893.12	227.43
893.42	227.38
893.73	227.35
894.04	227.34
894.34	227.36
894.65	227.37
894.95	227.36
895.26	227.39
895.57	227.40
895.87	227.31
896.18	227.30
896.48	227.29
896.79	227.28
897.10	227.29
897.40	227.28
897.71	227.30
898.01	227.27
898.32	227.30
898.63	227.29
898.93	227.31
899.24	227.31
899.54	227.30
899.85	227.27
900.15	227.29
900.46	227.26
900.76	227.25
901.07	227.20
901.38	227.23
901.68	227.22
901.99	227.17
902.29	227.15
902.60	227.14
902.90	227.13
903.21	227.15
903.51	227.13
903.82	227.13
904.12	227.14
904.43	227.17
904.73	227.12
905.03	227.11
905.34	227.20
905.64	227.21
905.95	227.22
906.25	227.23
906.56	227.23
906.86	227.23
907.17	227.21
907.47	227.24
907.77	227.22
908.08	227.21
908.38	227.23
908.69	227.25
908.99	227.27
909.30	227.29
909.60	227.28
909.90	227.26
910.21	227.26
910.51	227.23
910.81	227.22
911.12	227.26
911.42	227.26
911.73	227.15
912.03	227.18
912.33	227.20
912.64	227.16
912.94	227.14
913.24	227.16
913.55	227.13
913.85	227.14
914.15	227.16
914.46	227.16
914.76	227.16
915.06	227.16
915.37	227.14
915.67	227.13
915.97	227.12
916.27	227.11
916.58	227.10
916.88	227.12
917.18	227.17
917.49	227.23
917.79	227.24
918.09	227.28
918.39	227.26
918.70	227.25
919.00	227.29
919.30	227.35
919.60	227.35
919.91	227.36
920.21	227.35
920.51	227.30
920.81	227.31
921.12	227.33
921.42	227.33
921.72	227.35
922.02	227.36
922.32	227.40
922.63	227.44
922.93	227.51
923.23	227.50
923.53	227.46
923.83	227.37
924.13	227.38
924.44	227.36
924.74	227.40
925.04	227.43
925.34	227.42
925.64	227.41
925.94	227.42
926.24	227.47
926.55	227.45
926.85	227.48
927.15	227.50
927.45	227.47
927.75	227.45
928.05	227.43
928.35	227.44
928.65	227.43
928.95	227.42
929.26	227.38
929.56	227.39
929.86	227.41
930.16	227.42
930.46	227.43
930.76	227.42
931.06	227.34
931.36	227.30
931.66	227.29
931.96	227.28
932.26	227.27
932.56	227.24
932.86	227.26
933.16	227.25
933.46	227.22
933.76	227.22
934.06	227.27
934.36	227.34
934.66	227.29
934.96	227.27
935.26	227.28
935.56	227.29
935.86	227.28
936.16	227.23
936.46	227.22
936.76	227.17
937.06	227.17
937.36	227.18
937.66	227.16
937.96	227.17
938.26	227.16
938.56	227.12
938.86	227.09
939.16	227.07
939.46	227.08
939.76	227.08
940.06	227.09
940.35	227.05
940.65	226.97
940.95	226.99
941.25	226.98
941.55	226.98
941.85	226.97
942.15	226.98
942.45	227.02
942.75	227.01
943.04	227.02
943.34	227.02
943.64	226.97
943.94	226.97
944.24	226.98
944.54	226.95
944.84	226.96
945.13	226.95
945.43	226.97
945.73	226.95
946.03	226.93
946.33	226.90
946.62	226.88
946.92	226.87
947.22	226.82
947.52	226.80
947.82	226.77
948.11	226.72
948.41	226.70
948.71	226.68
949.01	226.70
949.31	226.70
949.60	226.69
949.90	226.74
950.20	226.72
950.50	226.71
950.79	226.72
951.09	226.75
951.39	226.73
951.69	226.71
951.98	226.73
952.28	226.78
952.58	226.76
952.87	226.81
953.17	226.82
953.47	226.86
953.76	226.88
954.06	226.89
954.36	226.93
954.66	226.92
954.95	226.98
955.25	226.97
955.55	226.97
955.84	226.99
956.14	227.01
956.44	227.03
956.73	227.01
957.03	227.03
957.32	227.02
957.62	227.02
957.92	227.06
958.21	227.06
958.51	227.15
958.81	227.16
959.10	227.15
959.40	227.13
959.69	227.14
959.99	227.15
960.29	227.15
960.58	227.12
960.88	227.18
961.17	227.15
961.47	227.16
961.76	227.15
962.06	227.18
962.36	227.19
962.65	227.20
962.95	227.21
963.24	227.18
963.54	227.20
963.83	227.23
964.13	227.22
964.42	227.18
964.72	227.11
965.01	227.13
965.31	227.12
965.60	227.13
965.90	227.18
966.19	227.17
966.49	227.19
966.78	227.18
967.08	227.16
967.37	227.13
967.67	227.11
967.96	227.13
968.26	227.08
968.55	227.09
968.85	227.10
969.14	227.10
969.43	227.08
969.73	227.08
970.02	227.04
970.32	227.03
970.61	227.05
970.91	227.00
971.20	226.99
971.49	226.99
971.79	226.99
972.08	226.93
972.38	226.92
972.67	226.89
972.96	226.93
973.26	226.89
973.55	226.94
973.85	226.94
974.14	226.94
974.43	226.93
974.73	226.87
975.02	226.86
975.31	226.83
975.61	226.84
975.90	226.83
976.19	226.86
976.49	226.83
976.78	226.83
977.07	226.84
977.37	226.80
977.66	226.80
977.95	226.83
978.24	226.85
978.54	226.88
978.83	226.85
979.12	226.81
979.42	226.82
979.71	226.80
980.00	226.78
980.29	226.76
980.59	226.76
980.88	226.81
981.17	226.82
981.46	226.83
981.76	226.83
982.05	226.84
982.34	226.83
982.63	226.89
982.93	226.89
983.22	226.92
983.51	226.92
983.80	226.94
984.09	226.90
984.39	226.87
984.68	226.89
984.97	226.88
985.26	226.86
985.55	226.88
985.85	226.85
986.14	226.86
986.43	226.89
986.72	226.91
987.01	226.86
987.30	226.86
987.59	226.83
987.89	226.82
988.18	226.82
988.47	226.81
988.76	226.75
989.05	226.74
989.34	226.71
989.63	226.75
989.92	226.74
990.22	226.74
990.51	226.76
990.80	226.73
991.09	226.75
991.38	226.80
991.67	226.77
991.96	226.77
992.25	226.77
992.54	226.76
992.83	226.75
993.12	226.81
993.41	226.84
993.70	226.91
993.99	226.98
994.28	226.98
994.58	227.03
994.87	227.07
995.16	227.08
995.45	227.08
995.74	227.06
996.03	227.09
996.32	227.10
996.61	227.10
996.90	227.10
997.19	227.11
997.48	227.11
997.77	227.12
998.06	227.14
998.34	227.15
998.63	227.15
998.92	227.16
999.21	227.16
999.50	227.14
999.79	227.10
1000.08	227.08
1000.37	227.09
1000.66	227.06
1000.95	227.07
1001.24	227.07
1001.53	227.11
1001.82	227.10
1002.11	227.08
1002.40	227.09
1002.68	227.13
1002.97	227.20
1003.26	227.18
1003.55	227.16
1003.84	227.19
1004.13	227.22
1004.42	227.25
1004.71	227.24
1004.99	227.22
1005.28	227.21
1005.57	227.22
1005.86	227.23
1006.15	227.20
1006.44	227.18
1006.72	227.18
1007.01	227.16
1007.30	227.16
1007.59	227.14
1007.88	227.13
1008.17	227.13
1008.45	227.12
1008.74	227.08
1009.03	227.03
1009.32	227.04
1009.60	227.04
1009.89	227.00
1010.18	226.95
1010.47	226.91
1010.76	226.90
1011.04	226.90
1011.33	226.93
1011.62	226.93
1011.91	226.92
1012.19	226.96
1012.48	226.96
1012.77	226.94
1013.05	227.00
1013.34	227.01
1013.63	227.01
1013.92	227.04
1014.20	227.04
1014.49	227.03
1014.78	227.02
1015.06	226.99
1015.35	227.01
1015.64	227.01
1015.92	227.02
1016.21	227.04
1016.50	227.07
1016.78	227.08
1017.07	227.06
1017.36	227.03
1017.64	227.00
1017.93	227.02
1018.22	227.01
1018.50	227.00
1018.79	227.02
1019.08	226.94
1019.36	226.91
1019.65	226.90
1019.93	226.88
1020.22	226.89
1020.51	226.93
1020.79	226.93
1021.08	227.12
1021.36	226.51
1021.65	226.87
1021.94	226.93
1022.22	226.63
1022.51	226.69
1022.79	226.84
1023.08	227.17
1023.36	228.02
1023.65	226.42
>>>>>End Processed Spectral Data<<<<<
