SpectraSuite Data File
++++++++++++++++++++++++++++++++++++
Date: Fri Feb 01 15:00:00 EST 2013
User: group
Dark Spectrum Present: No
Reference Spectrum Present: No
Number of Sampled Component Spectra: 1
Spectrometers: USB2E7196
Integration Time (usec): 35000 (USB2E7196)
Spectra Averaged: 100 (USB2E7196)
Boxcar Smoothing: 10 (USB2E7196)
Correct for Electrical Dark: No (USB2E7196)
Strobe/Lamp Enabled: No (USB2E7196)
Correct for Detector Non-linearity: No (USB2E7196)
Correct for Stray Light: No (USB2E7196)
Number of Pixels in Processed Spectrum: 2048
>>>>>Begin Processed Spectral Data<<<<<
339.09	0.00
339.48	214.85
339.86	217.24
340.24	217.60
340.63	219.55
341.01	221.98
341.39	222.07
341.78	223.21
342.16	224.37
342.54	225.03
342.93	213.39
343.31	224.19
343.69	224.75
344.07	225.15
344.46	225.59
344.84	225.96
345.22	226.20
345.60	226.43
345.99	226.63
346.37	226.74
346.75	226.84
347.13	226.90
347.52	226.98
347.90	227.00
348.28	227.01
348.66	227.07
349.05	227.05
349.43	227.12
349.81	227.17
350.19	227.20
350.57	227.26
350.96	227.36
351.34	227.44
351.72	227.52
352.10	227.64
352.48	227.71
352.87	227.78
353.25	227.85
353.63	227.93
354.01	227.98
354.39	228.09
354.77	228.19
355.15	228.28
355.54	228.33
355.92	228.40
356.30	228.50
356.68	228.63
357.06	228.72
357.44	228.77
357.82	228.84
358.20	228.92
358.58	228.98
358.97	229.05
359.35	229.13
359.73	229.20
360.11	229.24
360.49	229.28
360.87	229.28
361.25	229.36
361.63	229.41
362.01	229.48
362.39	229.50
362.77	229.50
363.15	229.53
363.53	229.57
363.91	229.59
364.29	229.55
364.67	229.47
365.05	229.49
365.43	229.47
365.81	229.45
366.19	229.50
366.57	229.53
366.95	229.50
367.33	229.47
367.71	229.46
368.09	229.47
368.47	229.47
368.85	229.46
369.23	229.42
369.61	229.39
369.99	229.36
370.37	229.31
370.75	229.34
371.13	229.26
371.51	229.18
371.89	229.15
372.27	229.10
372.65	229.07
373.03	228.99
373.41	228.94
373.78	228.89
374.16	228.81
374.54	228.70
374.92	228.63
375.30	228.54
375.68	228.44
376.06	228.37
376.44	228.27
376.82	228.21
377.19	228.15
377.57	228.07
377.95	227.96
378.33	227.91
378.71	227.79
379.09	227.70
379.47	227.66
379.84	227.58
380.22	227.53
380.60	227.43
380.98	227.40
381.36	227.33
381.73	227.24
382.11	227.16
382.49	227.12
382.87	227.04
383.25	226.98
383.62	227.05
384.00	226.99
384.38	226.91
384.76	226.88
385.13	226.86
385.51	226.80
385.89	226.75
386.27	226.69
386.64	226.65
387.02	226.62
387.40	226.59
387.78	226.55
388.15	226.50
388.53	226.48
388.91	226.42
389.29	226.36
389.66	226.36
390.04	226.32
390.42	226.32
390.79	226.32
391.17	226.32
391.55	226.19
391.92	226.14
392.30	226.21
392.68	226.18
393.05	226.17
393.43	226.23
393.81	226.25
394.18	226.24
394.56	226.26
394.94	226.31
395.31	226.29
395.69	226.34
396.06	226.43
396.44	226.49
396.82	226.53
397.19	226.65
397.57	226.70
397.95	226.80
398.32	226.82
398.70	226.89
399.07	226.99
399.45	227.09
399.82	227.18
400.20	227.24
400.58	227.31
400.95	227.36
401.33	227.48
401.70	227.64
402.08	227.78
402.45	227.88
402.83	228.00
403.20	228.17
403.58	228.29
403.95	228.39
404.33	228.52
404.71	228.70
405.08	228.86
405.46	228.98
405.83	229.12
406.21	229.29
406.58	229.46
406.96	229.62
407.33	229.79
407.70	230.02
408.08	230.28
408.45	230.55
408.83	230.76
409.20	230.94
409.58	231.13
409.95	231.38
410.33	231.67
410.70	231.94
411.08	232.20
411.45	232.49
411.82	232.80
412.20	233.18
412.57	233.57
412.95	233.88
413.32	234.30
413.69	234.71
414.07	235.17
414.44	235.68
414.82	236.15
415.19	236.70
415.56	237.25
415.94	237.79
416.31	238.43
416.68	239.09
417.06	239.79
417.43	240.48
417.81	241.26
418.18	242.00
418.55	242.83
418.93	243.72
419.30	244.63
419.67	245.58
420.04	246.50
420.42	247.50
420.79	248.70
421.16	249.87
421.54	251.03
421.91	252.24
422.28	253.45
422.66	254.82
423.03	256.13
423.40	257.44
423.77	258.87
424.15	260.28
424.52	261.75
424.89	263.37
425.26	264.94
425.64	266.39
426.01	268.00
426.38	269.67
426.75	271.35
427.13	273.05
427.50	274.80
427.87	276.65
428.24	278.51
428.61	280.26
428.99	282.19
429.36	284.31
429.73	286.38
430.10	288.40
430.47	290.42
430.85	292.53
431.22	294.73
431.59	297.09
431.96	299.34
432.33	301.84
432.70	304.23
433.08	306.99
433.45	309.62
433.82	312.21
434.19	315.09
434.56	317.88
434.93	320.58
435.30	323.22
435.68	326.16
436.05	328.99
436.42	331.77
436.79	334.33
437.16	337.02
437.53	339.80
437.90	342.64
438.27	345.38
438.64	348.26
439.01	350.91
439.38	353.18
439.75	355.34
440.13	357.81
440.50	360.15
440.87	362.00
441.24	363.97
441.61	366.15
441.98	367.62
442.35	369.44
442.72	371.25
443.09	373.07
443.46	374.00
443.83	374.57
444.20	375.09
444.57	375.87
444.94	376.19
445.31	376.55
445.68	376.90
446.05	376.99
446.42	376.53
446.79	376.12
447.16	375.64
447.53	375.32
447.90	374.18
448.27	373.04
448.64	371.45
449.01	370.29
449.37	368.30
449.74	366.45
450.11	364.21
450.48	361.76
450.85	359.25
451.22	357.18
451.59	355.17
451.96	353.19
452.33	350.62
452.70	348.24
453.07	345.43
453.43	342.53
453.80	339.77
454.17	337.12
454.54	334.54
454.91	331.83
455.28	329.15
455.65	326.63
456.02	324.12
456.38	322.02
456.75	319.37
457.12	317.13
457.49	314.87
457.86	312.68
458.23	310.80
458.59	308.79
458.96	306.71
459.33	304.87
459.70	303.01
460.07	301.47
460.43	299.74
460.80	298.11
461.17	296.67
461.54	295.17
461.91	293.77
462.27	292.35
462.64	291.07
463.01	289.73
463.38	288.42
463.74	287.06
464.11	285.89
464.48	284.87
464.85	283.72
465.21	282.84
465.58	281.90
465.95	280.82
466.32	279.87
466.68	278.92
467.05	277.99
467.42	277.09
467.78	276.16
468.15	275.30
468.52	274.66
468.88	273.77
469.25	273.01
469.62	272.35
469.98	271.66
470.35	271.00
470.72	270.37
471.08	269.74
471.45	269.19
471.82	268.61
472.18	268.00
472.55	267.58
472.92	267.03
473.28	266.55
473.65	266.11
474.02	265.66
474.38	265.27
474.75	264.92
475.11	264.56
475.48	264.28
475.85	264.02
476.21	263.73
476.58	263.54
476.94	263.38
477.31	263.18
477.67	263.00
478.04	262.92
478.41	262.86
478.77	262.87
479.14	262.81
479.50	262.79
479.87	262.83
480.23	262.90
480.60	262.95
480.96	263.06
481.33	263.26
481.69	263.44
482.06	263.62
482.42	263.83
482.79	264.08
483.15	264.40
483.52	264.78
483.88	265.14
484.25	265.49
484.61	265.90
484.98	266.36
485.34	266.92
485.71	267.48
486.07	268.08
486.44	268.63
486.80	269.31
487.17	270.06
487.53	270.91
487.90	271.76
488.26	272.71
488.62	273.70
488.99	274.64
489.35	275.69
489.72	276.83
490.08	278.03
490.44	279.26
490.81	280.57
491.17	281.91
491.54	283.36
491.90	284.93
492.26	286.53
492.63	288.19
492.99	289.95
493.36	291.87
493.72	293.90
494.08	296.01
494.45	298.27
494.81	300.61
495.17	302.98
495.54	305.52
495.90	308.17
496.26	310.99
496.63	313.91
496.99	316.98
497.35	320.25
497.72	323.63
498.08	327.13
498.44	330.82
498.80	334.73
499.17	338.76
499.53	342.84
499.89	347.22
500.26	351.71
500.62	356.37
500.98	361.26
501.34	366.35
501.71	371.67
502.07	377.07
502.43	382.63
502.79	388.43
503.16	394.46
503.52	400.64
503.88	407.01
504.24	413.63
504.60	420.52
504.97	427.57
505.33	434.89
505.69	442.55
506.05	450.30
506.41	458.18
506.78	466.35
507.14	474.80
507.50	483.48
507.86	492.52
508.22	501.66
508.59	510.88
508.95	520.44
509.31	530.17
509.67	540.25
510.03	550.49
510.39	561.03
510.75	571.84
511.12	582.92
511.48	594.21
511.84	605.68
512.20	617.21
512.56	629.13
512.92	641.32
513.28	653.60
513.64	666.10
514.00	678.68
514.37	691.63
514.73	704.65
515.09	717.68
515.45	730.93
515.81	744.55
516.17	758.52
516.53	772.60
516.89	786.87
517.25	801.03
517.61	815.55
517.97	830.11
518.33	844.57
518.69	859.27
519.05	874.28
519.41	889.44
519.77	904.96
520.13	920.54
520.49	935.83
520.85	951.37
521.21	967.11
521.57	983.53
521.93	999.35
522.29	1015.91
522.65	1032.25
523.01	1048.62
523.37	1064.68
523.73	1080.96
524.09	1097.19
524.45	1113.55
524.81	1130.33
525.17	1147.21
525.53	1164.16
525.89	1181.07
526.25	1197.97
526.61	1214.36
526.97	1231.29
527.33	1247.80
527.68	1264.48
528.04	1281.20
528.40	1297.99
528.76	1315.12
529.12	1331.70
529.48	1348.68
529.84	1364.72
530.20	1381.39
530.56	1398.44
530.91	1415.99
531.27	1432.78
531.63	1449.34
531.99	1465.95
532.35	1481.87
532.71	1497.76
533.07	1514.07
533.42	1530.02
533.78	1546.10
534.14	1562.51
534.50	1577.88
534.86	1593.87
535.21	1609.09
535.57	1625.02
535.93	1640.60
536.29	1655.48
536.65	1670.70
537.00	1685.66
537.36	1701.07
537.72	1715.84
538.08	1730.26
538.44	1744.20
538.79	1758.08
539.15	1771.86
539.51	1785.68
539.87	1800.23
540.22	1814.11
540.58	1828.02
540.94	1841.53
541.29	1854.60
541.65	1867.44
542.01	1880.77
542.37	1893.20
542.72	1905.63
543.08	1917.61
543.44	1930.04
543.79	1941.13
544.15	1952.20
544.51	1963.68
544.87	1974.65
545.22	1985.41
545.58	1995.78
545.94	2005.64
546.29	2015.60
546.65	2025.39
547.01	2034.63
547.36	2043.43
547.72	2051.92
548.07	2059.75
548.43	2067.94
548.79	2075.90
549.14	2083.38
549.50	2090.69
549.86	2098.41
550.21	2105.91
550.57	2113.09
550.92	2119.67
551.28	2127.07
551.64	2134.22
551.99	2140.94
552.35	2147.15
552.70	2153.17
553.06	2159.09
553.41	2165.28
553.77	2171.44
554.13	2177.54
554.48	2183.71
554.84	2189.06
555.19	2194.32
555.55	2199.34
555.90	2203.62
556.26	2208.47
556.61	2213.24
556.97	2217.36
557.32	2221.38
557.68	2225.45
558.03	2229.63
558.39	2233.29
558.74	2237.66
559.10	2241.32
559.45	2244.59
559.81	2248.80
560.16	2252.51
560.52	2255.61
560.87	2259.01
561.23	2261.51
561.58	2264.40
561.94	2266.86
562.29	2269.32
562.64	2271.83
563.00	2274.49
563.35	2278.12
563.71	2281.26
564.06	2284.32
564.42	2287.19
564.77	2289.73
565.12	2291.72
565.48	2293.48
565.83	2295.16
566.19	2296.48
566.54	2297.37
566.89	2298.51
567.25	2298.98
567.60	2300.42
567.96	2302.04
568.31	2302.73
568.66	2303.64
569.02	2304.08
569.37	2304.21
569.72	2304.72
570.08	2304.78
570.43	2304.64
570.78	2303.74
571.14	2301.88
571.49	2300.39
571.84	2299.94
572.20	2298.49
572.55	2297.33
572.90	2295.63
573.26	2294.11
573.61	2292.24
573.96	2290.26
574.31	2287.13
574.67	2283.95
575.02	2280.15
575.37	2276.73
575.72	2272.73
576.08	2269.53
576.43	2266.09
576.78	2262.33
577.13	2259.20
577.49	2255.95
577.84	2252.25
578.19	2248.51
578.54	2244.76
578.90	2240.43
579.25	2234.62
579.60	2229.54
579.95	2224.41
580.30	2219.25
580.66	2213.88
581.01	2208.86
581.36	2203.75
581.71	2199.37
582.06	2194.71
582.42	2190.06
582.77	2184.46
583.12	2179.70
583.47	2174.53
583.82	2169.26
584.17	2163.86
584.53	2158.17
584.88	2152.44
585.23	2146.58
585.58	2141.02
585.93	2135.51
586.28	2130.68
586.63	2125.54
586.98	2120.33
587.34	2115.62
587.69	2110.63
588.04	2105.28
588.39	2099.44
588.74	2093.00
589.09	2086.70
589.44	2079.85
589.79	2073.87
590.14	2068.34
590.49	2061.71
590.84	2055.29
591.19	2049.27
591.54	2042.65
591.89	2035.11
592.25	2028.19
592.60	2020.84
592.95	2013.17
593.30	2005.66
593.65	1997.83
594.00	1990.77
594.35	1983.54
594.70	1975.31
595.05	1967.98
595.40	1960.76
595.75	1953.15
596.10	1946.65
596.45	1939.84
596.80	1933.66
597.15	1926.77
597.50	1919.56
597.85	1913.20
598.19	1906.46
598.54	1899.26
598.89	1892.67
599.24	1886.72
599.59	1880.04
599.94	1873.89
600.29	1867.51
600.64	1861.05
600.99	1853.78
601.34	1846.84
601.69	1839.70
602.04	1832.76
602.39	1825.34
602.74	1818.34
603.08	1811.58
603.43	1804.92
603.78	1797.66
604.13	1790.42
604.48	1783.11
604.83	1776.17
605.18	1768.99
605.53	1760.94
605.87	1752.91
606.22	1745.54
606.57	1737.59
606.92	1730.22
607.27	1722.86
607.62	1715.84
607.96	1708.51
608.31	1701.63
608.66	1693.92
609.01	1686.48
609.36	1678.98
609.70	1670.99
610.05	1662.78
610.40	1654.96
610.75	1646.57
611.10	1638.85
611.44	1630.56
611.79	1622.51
612.14	1613.79
612.49	1604.78
612.83	1596.45
613.18	1588.36
613.53	1580.34
613.88	1571.79
614.22	1563.48
614.57	1555.04
614.92	1547.09
615.27	1539.41
615.61	1531.20
615.96	1523.27
616.31	1515.62
616.65	1508.29
617.00	1500.79
617.35	1493.27
617.70	1485.03
618.04	1476.47
618.39	1468.26
618.74	1460.53
619.08	1452.34
619.43	1444.88
619.78	1437.94
620.12	1430.82
620.47	1423.27
620.82	1415.21
621.16	1407.93
621.51	1400.41
621.85	1392.80
622.20	1384.26
622.55	1376.10
622.89	1368.27
623.24	1360.67
623.59	1353.35
623.93	1345.85
624.28	1338.55
624.62	1331.12
624.97	1323.99
625.32	1317.51
625.66	1310.55
626.01	1303.45
626.35	1296.02
626.70	1288.33
627.04	1280.58
627.39	1272.89
627.73	1265.54
628.08	1258.64
628.43	1251.21
628.77	1243.78
629.12	1236.25
629.46	1229.08
629.81	1221.71
630.15	1214.51
630.50	1207.24
630.84	1199.10
631.19	1191.23
631.53	1183.83
631.88	1176.16
632.22	1168.64
632.57	1161.26
632.91	1153.93
633.26	1146.57
633.60	1139.33
633.95	1132.37
634.29	1125.45
634.64	1118.77
634.98	1111.48
635.32	1104.41
635.67	1097.96
636.01	1091.51
636.36	1084.71
636.70	1078.34
637.05	1071.77
637.39	1065.41
637.73	1058.90
638.08	1053.08
638.42	1047.22
638.77	1040.81
639.11	1034.33
639.45	1028.02
639.80	1021.41
640.14	1014.91
640.49	1008.37
640.83	1002.12
641.17	995.69
641.52	989.40
641.86	983.00
642.20	977.23
642.55	971.00
642.89	964.62
643.23	958.08
643.58	952.33
643.92	946.08
644.26	940.07
644.61	934.09
644.95	928.14
645.29	921.53
645.64	914.72
645.98	908.49
646.32	902.71
646.66	896.69
647.01	890.96
647.35	885.35
647.69	879.69
648.04	874.20
648.38	868.58
648.72	862.63
649.06	856.65
649.41	850.78
649.75	844.74
650.09	838.78
650.43	832.97
650.78	826.89
651.12	820.99
651.46	815.27
651.80	809.49
652.14	804.07
652.49	798.73
652.83	793.60
653.17	787.84
653.51	782.14
653.85	776.70
654.20	771.11
654.54	765.15
654.88	759.34
655.22	753.42
655.56	747.73
655.90	742.27
656.25	737.01
656.59	731.69
656.93	726.69
657.27	721.51
657.61	716.13
657.95	711.02
658.29	705.98
658.64	700.80
658.98	695.50
659.32	690.10
659.66	684.98
660.00	679.64
660.34	674.77
660.68	669.93
661.02	664.93
661.36	660.22
661.70	655.75
662.05	651.45
662.39	647.18
662.73	642.78
663.07	638.36
663.41	633.89
663.75	629.43
664.09	624.83
664.43	620.53
664.77	616.39
665.11	612.15
665.45	608.07
665.79	604.01
666.13	599.96
666.47	595.91
666.81	591.71
667.15	587.62
667.49	583.74
667.83	579.96
668.17	576.10
668.51	572.03
668.85	568.02
669.19	564.17
669.53	560.31
669.87	556.45
670.21	552.86
670.55	549.27
670.89	545.83
671.23	542.47
671.57	538.94
671.91	535.48
672.25	532.07
672.58	528.56
672.92	525.21
673.26	522.06
673.60	518.94
673.94	515.87
674.28	513.04
674.62	510.15
674.96	507.03
675.30	504.15
675.64	501.26
675.97	498.55
676.31	495.72
676.65	492.81
676.99	490.08
677.33	487.26
677.67	484.47
678.01	481.48
678.34	478.52
678.68	475.74
679.02	473.00
679.36	470.26
679.70	467.56
680.04	464.77
680.37	461.84
680.71	459.08
681.05	456.53
681.39	453.82
681.73	451.18
682.06	448.71
682.40	446.15
682.74	443.65
683.08	441.10
683.42	438.54
683.75	436.09
684.09	433.64
684.43	431.21
684.77	428.76
685.10	426.46
685.44	424.21
685.78	421.91
686.12	419.68
686.45	417.42
686.79	415.19
687.13	413.03
687.46	410.94
687.80	408.78
688.14	406.59
688.48	404.59
688.81	402.29
689.15	400.15
689.49	398.05
689.82	395.99
690.16	393.89
690.50	391.96
690.83	390.02
691.17	388.07
691.51	386.15
691.84	384.35
692.18	382.41
692.52	380.42
692.85	378.49
693.19	376.61
693.52	374.80
693.86	372.95
694.20	371.22
694.53	369.43
694.87	367.62
695.21	365.85
695.54	364.01
695.88	362.36
696.21	360.65
696.55	358.97
696.88	357.29
697.22	355.66
697.56	354.07
697.89	352.39
698.23	350.76
698.56	349.14
698.90	347.54
699.23	345.92
699.57	344.38
699.90	342.91
700.24	341.41
700.58	339.90
700.91	338.42
701.25	336.94
701.58	335.61
701.92	334.26
702.25	332.90
702.59	331.54
702.92	330.22
703.26	328.91
703.59	327.63
703.93	326.48
704.26	325.31
704.60	323.95
704.93	322.70
705.26	321.44
705.60	320.30
705.93	319.15
706.27	318.14
706.60	317.09
706.94	315.92
707.27	314.77
707.61	313.65
707.94	312.61
708.27	311.51
708.61	310.42
708.94	309.37
709.28	308.35
709.61	307.39
709.94	306.44
710.28	305.45
710.61	304.51
710.95	303.39
711.28	302.41
711.61	301.47
711.95	300.58
712.28	299.65
712.61	298.67
712.95	297.73
713.28	296.83
713.61	295.93
713.95	295.06
714.28	294.24
714.61	293.42
714.95	292.57
715.28	291.76
715.61	290.89
715.95	290.07
716.28	289.22
716.61	288.40
716.95	287.57
717.28	286.83
717.61	286.03
717.94	285.32
718.28	284.54
718.61	283.86
718.94	283.17
719.27	282.50
719.61	281.87
719.94	281.23
720.27	280.51
720.60	279.89
720.94	279.28
721.27	278.67
721.60	278.09
721.93	277.55
722.27	277.01
722.60	276.47
722.93	275.93
723.26	275.47
723.59	274.91
723.93	274.42
724.26	273.91
724.59	273.40
724.92	272.88
725.25	272.42
725.59	271.91
725.92	271.41
726.25	270.92
726.58	270.44
726.91	269.98
727.24	269.52
727.57	269.00
727.91	268.53
728.24	268.06
728.57	267.62
728.90	267.15
729.23	266.64
729.56	266.20
729.89	265.72
730.22	265.21
730.55	264.75
730.89	264.28
731.22	263.81
731.55	263.38
731.88	262.97
732.21	262.54
732.54	262.13
732.87	261.69
733.20	261.30
733.53	260.93
733.86	260.54
734.19	260.13
734.52	259.80
734.85	259.49
735.18	259.08
735.51	258.70
735.84	258.32
736.17	257.99
736.50	257.61
736.83	257.37
737.16	257.05
737.49	256.77
737.82	256.42
738.15	256.08
738.48	255.72
738.81	255.42
739.14	255.08
739.47	254.75
739.80	254.44
740.13	254.12
740.46	253.78
740.79	253.45
741.12	253.19
741.45	252.82
741.78	252.44
742.11	252.16
742.44	251.81
742.77	251.54
743.10	251.22
743.43	250.96
743.75	250.58
744.08	250.41
744.41	250.08
744.74	249.82
745.07	249.55
745.40	249.32
745.73	249.07
746.06	248.78
746.39	248.50
746.71	248.25
747.04	247.96
747.37	247.70
747.70	247.46
748.03	247.18
748.36	246.96
748.68	246.76
749.01	246.51
749.34	246.31
749.67	246.05
750.00	245.83
750.33	245.61
750.65	245.42
750.98	245.09
751.31	244.87
751.64	244.66
751.97	244.51
752.29	244.28
752.62	244.03
752.95	243.82
753.28	243.61
753.60	243.39
753.93	243.24
754.26	243.03
754.59	242.77
754.91	242.56
755.24	242.41
755.57	242.23
755.90	242.05
756.22	241.84
756.55	241.65
756.88	241.43
757.20	241.20
757.53	241.00
757.86	240.85
758.19	240.73
758.51	240.53
758.84	240.29
759.17	240.11
759.49	239.96
759.82	239.85
760.15	239.73
760.47	239.56
760.80	239.42
761.13	239.32
761.45	239.18
761.78	239.09
762.11	238.92
762.43	238.76
762.76	238.63
763.08	238.53
763.41	238.42
763.74	238.33
764.06	238.22
764.39	238.09
764.71	237.93
765.04	237.81
765.37	237.70
765.69	237.58
766.02	237.47
766.34	237.36
766.67	237.22
767.00	237.15
767.32	237.13
767.65	237.02
767.97	236.90
768.30	236.81
768.62	236.69
768.95	236.56
769.27	236.44
769.60	236.32
769.92	236.19
770.25	236.05
770.57	235.92
770.90	235.82
771.22	235.69
771.55	235.61
771.87	235.50
772.20	235.39
772.52	235.40
772.85	235.41
773.17	235.29
773.50	235.14
773.82	235.02
774.15	234.85
774.47	234.72
774.80	234.59
775.12	234.49
775.45	234.38
775.77	234.29
776.09	234.23
776.42	234.17
776.74	234.13
777.07	234.07
777.39	233.97
777.72	233.87
778.04	233.80
778.36	233.76
778.69	233.72
779.01	233.62
779.33	233.48
779.66	233.30
779.98	233.24
780.31	233.23
780.63	233.18
780.95	233.11
781.28	233.04
781.60	233.02
781.92	232.98
782.25	232.90
782.57	232.82
782.89	232.77
783.22	232.68
783.54	232.59
783.86	232.53
784.19	232.47
784.51	232.43
784.83	232.34
785.16	232.23
785.48	232.18
785.80	232.16
786.12	232.08
786.45	232.03
786.77	231.98
787.09	231.89
787.42	231.83
787.74	231.81
788.06	231.75
788.38	231.70
788.71	231.61
789.03	231.58
789.35	231.56
789.67	231.50
789.99	231.44
790.32	231.38
790.64	231.31
790.96	231.38
791.28	231.28
791.61	231.26
791.93	231.22
792.25	231.14
792.57	231.15
792.89	231.09
793.21	231.07
793.54	231.04
793.86	231.00
794.18	230.97
794.50	230.88
794.82	230.84
795.14	230.80
795.47	230.82
795.79	230.77
796.11	230.73
796.43	230.66
796.75	230.61
797.07	230.57
797.39	230.56
797.71	230.46
798.04	230.46
798.36	230.43
798.68	230.40
799.00	230.41
799.32	230.33
799.64	230.34
799.96	230.29
800.28	230.29
800.60	230.25
800.92	230.22
801.24	230.23
801.56	230.24
801.89	230.21
802.21	230.19
802.53	230.15
802.85	230.17
803.17	230.20
803.49	230.19
803.81	230.16
804.13	230.15
804.45	230.13
804.77	230.11
805.09	230.10
805.41	230.09
805.73	230.03
806.05	230.00
806.37	229.98
806.69	229.94
807.01	229.90
807.33	229.91
807.65	229.89
807.97	229.90
808.28	229.85
808.60	229.83
808.92	229.79
809.24	229.85
809.56	229.83
809.88	229.79
810.20	229.78
810.52	229.83
810.84	229.77
811.16	229.71
811.48	229.70
811.80	229.72
812.12	229.69
812.43	229.68
812.75	229.68
813.07	229.63
813.39	229.63
813.71	229.61
814.03	229.59
814.35	229.57
814.67	229.50
814.98	229.49
815.30	229.48
815.62	229.43
815.94	229.35
816.26	229.37
816.58	229.31
816.89	229.32
817.21	229.23
817.53	229.22
817.85	229.21
818.17	229.20
818.48	229.12
818.80	229.08
819.12	229.05
819.44	229.02
819.76	229.00
820.07	228.99
820.39	228.93
820.71	228.89
821.03	228.81
821.34	228.79
821.66	228.77
821.98	228.77
822.30	228.71
822.61	228.76
822.93	228.65
823.25	228.64
823.57	228.57
823.88	228.56
824.20	228.56
824.52	228.56
824.83	228.50
825.15	228.49
825.47	228.50
825.79	228.49
826.10	228.44
826.42	228.43
826.74	228.39
827.05	228.37
827.37	228.36
827.69	228.34
828.00	228.34
828.32	228.30
828.64	228.25
828.95	228.32
829.27	228.25
829.58	228.25
829.90	228.27
830.22	228.27
830.53	228.26
830.85	228.23
831.17	228.20
831.48	228.22
831.80	228.21
832.11	228.17
832.43	228.15
832.75	228.11
833.06	228.16
833.38	228.15
833.69	228.10
834.01	228.10
834.32	228.11
834.64	228.07
834.96	228.08
835.27	228.08
835.59	228.04
835.90	228.04
836.22	228.04
836.53	227.98
836.85	227.95
837.16	228.05
837.48	228.05
837.79	228.09
838.11	228.07
838.42	228.08
838.74	228.08
839.05	228.08
839.37	228.14
839.68	228.03
840.00	228.03
840.31	228.05
840.63	228.03
840.94	228.03
841.26	228.04
841.57	228.05
841.88	228.06
842.20	228.05
842.51	228.05
842.83	228.06
843.14	228.13
843.46	228.11
843.77	228.03
844.08	228.01
844.40	227.98
844.71	227.99
845.03	227.96
845.34	227.95
845.65	227.96
845.97	227.93
846.28	227.99
846.60	227.99
846.91	227.99
847.22	228.01
847.54	228.05
847.85	228.05
848.16	228.04
848.48	228.01
848.79	228.04
849.10	228.05
849.42	228.03
849.73	227.97
850.04	227.99
850.36	227.99
850.67	228.02
850.98	228.01
851.30	228.01
851.61	228.00
851.92	228.01
852.23	228.03
852.55	228.05
852.86	228.02
853.17	228.01
853.49	228.04
853.80	228.04
854.11	228.04
854.42	228.07
854.74	228.06
855.05	228.04
855.36	227.99
855.67	227.98
855.99	227.97
856.30	228.08
856.61	228.06
856.92	228.04
857.23	228.02
857.55	228.01
857.86	228.00
858.17	228.00
858.48	227.98
858.79	227.95
859.11	227.95
859.42	227.92
859.73	227.94
860.04	227.93
860.35	227.88
860.66	227.80
860.98	227.76
861.29	227.73
861.60	227.70
861.91	227.72
862.22	227.70
862.53	227.69
862.84	227.56
863.16	227.61
863.47	227.59
863.78	227.57
864.09	227.57
864.40	227.57
864.71	227.57
865.02	227.58
865.33	227.57
865.64	227.52
865.95	227.50
866.27	227.53
866.58	227.51
866.89	227.50
867.20	227.49
867.51	227.49
867.82	227.48
868.13	227.52
868.44	227.48
868.75	227.46
869.06	227.47
869.37	227.48
869.68	227.41
869.99	227.43
870.30	227.43
870.61	227.44
870.92	227.39
871.23	227.38
871.54	227.39
871.85	227.39
872.16	227.40
872.47	227.42
872.78	227.38
873.09	227.36
873.40	227.33
873.71	227.35
874.02	227.34
874.33	227.34
874.64	227.28
874.95	227.30
875.26	227.30
875.56	227.28
875.87	227.28
876.18	227.28
876.49	227.36
876.80	227.38
877.11	227.34
877.42	227.37
877.73	227.38
878.04	227.38
878.35	227.39
878.66	227.41
878.96	227.44
879.27	227.44
879.58	227.46
879.89	227.48
880.20	227.52
880.51	227.50
880.82	227.52
881.12	227.58
881.43	227.54
881.74	227.57
882.05	227.60
882.36	227.64
882.67	227.66
882.97	227.59
883.28	227.56
883.59	227.57
883.90	227.56
884.21	227.58
884.51	227.56
884.82	227.54
885.13	227.54
885.44	227.54
885.74	227.56
886.05	227.57
886.36	227.59
886.67	227.57
886.98	227.65
887.28	227.68
887.59	227.67
887.90	227.72
888.20	227.70
888.51	227.70
888.82	227.68
889.13	227.67
889.43	227.72
889.74	227.71
890.05	227.73
890.35	227.74
890.66	227.75
890.97	227.74
891.28	227.73
891.58	227.72
891.89	227.72
892.20	227.73
892.50	227.75
892.81	227.74
893.12	227.76
893.42	227.68
893.73	227.65
894.04	227.65
894.34	227.65
894.65	227.63
894.95	227.63
895.26	227.61
895.57	227.64
895.87	227.55
896.18	227.58
896.48	227.58
896.79	227.55
897.10	227.54
897.40	227.54
897.71	227.55
898.01	227.53
898.32	227.51
898.63	227.46
898.93	227.40
899.24	227.42
899.54	227.43
899.85	227.43
900.15	227.46
900.46	227.43
900.76	227.39
901.07	227.39
901.38	227.38
901.68	227.38
901.99	227.32
902.29	227.33
902.60	227.29
902.90	227.25
903.21	227.27
903.51	227.28
903.82	227.27
904.12	227.25
904.43	227.25
904.73	227.24
905.03	227.27
905.34	227.35
905.64	227.34
905.95	227.30
906.25	227.28
906.56	227.23
906.86	227.23
907.17	227.21
907.47	227.22
907.77	227.17
908.08	227.18
908.38	227.18
908.69	227.16
908.99	227.18
909.30	227.18
909.60	227.16
909.90	227.15
910.21	227.13
910.51	227.15
910.81	227.12
911.12	227.12
911.42	227.07
911.73	226.97
912.03	226.95
912.33	226.96
912.64	226.95
912.94	226.95
913.24	226.94
913.55	226.99
913.85	226.98
914.15	227.02
914.46	227.00
914.76	226.99
915.06	227.00
915.37	226.98
915.67	226.96
915.97	226.93
916.27	226.90
916.58	226.91
916.88	226.90
917.18	226.94
917.49	227.00
917.79	227.03
918.09	227.05
918.39	227.07
918.70	227.07
919.00	227.11
919.30	227.14
919.60	227.13
919.91	227.12
920.21	227.11
920.51	227.12
920.81	227.13
921.12	227.16
921.42	227.13
921.72	227.17
922.02	227.18
922.32	227.26
922.63	227.26
922.93	227.33
923.23	227.37
923.53	227.35
923.83	227.29
924.13	227.34
924.44	227.35
924.74	227.40
925.04	227.41
925.34	227.38
925.64	227.37
925.94	227.40
926.24	227.44
926.55	227.45
926.85	227.44
927.15	227.47
927.45	227.49
927.75	227.55
928.05	227.53
928.35	227.56
928.65	227.55
928.95	227.60
929.26	227.56
929.56	227.54
929.86	227.58
930.16	227.59
930.46	227.57
930.76	227.57
931.06	227.50
931.36	227.49
931.66	227.51
931.96	227.55
932.26	227.51
932.56	227.45
932.86	227.46
933.16	227.45
933.46	227.45
933.76	227.42
934.06	227.40
934.36	227.43
934.66	227.43
934.96	227.40
935.26	227.38
935.56	227.38
935.86	227.36
936.16	227.33
936.46	227.31
936.76	227.31
937.06	227.30
937.36	227.31
937.66	227.32
937.96	227.30
938.26	227.26
938.56	227.28
938.86	227.27
939.16	227.33
939.46	227.34
939.76	227.31
940.06	227.31
940.35	227.29
940.65	227.23
940.95	227.20
941.25	227.18
941.55	227.15
941.85	227.13
942.15	227.15
942.45	227.16
942.75	227.15
943.04	227.12
943.34	227.13
943.64	227.11
943.94	227.07
944.24	227.09
944.54	227.06
944.84	227.03
945.13	227.02
945.43	226.94
945.73	226.96
946.03	226.93
946.33	226.89
946.62	226.90
946.92	226.89
947.22	226.88
947.52	226.87
947.82	226.88
948.11	226.84
948.41	226.82
948.71	226.81
949.01	226.80
949.31	226.79
949.60	226.79
949.90	226.80
950.20	226.79
950.50	226.77
950.79	226.77
951.09	226.81
951.39	226.81
951.69	226.81
951.98	226.84
952.28	226.87
952.58	226.85
952.87	226.83
953.17	226.87
953.47	226.90
953.76	226.90
954.06	226.91
954.36	226.94
954.66	226.94
954.95	226.95
955.25	226.96
955.55	226.99
955.84	226.98
956.14	226.99
956.44	227.00
956.73	226.99
957.03	227.00
957.32	227.01
957.62	227.05
957.92	227.09
958.21	227.06
958.51	227.18
958.81	227.23
959.10	227.26
959.40	227.27
959.69	227.26
959.99	227.29
960.29	227.29
960.58	227.29
960.88	227.34
961.17	227.32
961.47	227.36
961.76	227.35
962.06	227.39
962.36	227.37
962.65	227.40
962.95	227.42
963.24	227.43
963.54	227.47
963.83	227.47
964.13	227.47
964.42	227.45
964.72	227.39
965.01	227.40
965.31	227.42
965.60	227.42
965.90	227.52
966.19	227.53
966.49	227.55
966.78	227.58
967.08	227.59
967.37	227.61
967.67	227.59
967.96	227.62
968.26	227.60
968.55	227.67
968.85	227.68
969.14	227.69
969.43	227.69
969.73	227.66
970.02	227.63
970.32	227.62
970.61	227.60
970.91	227.58
971.20	227.56
971.49	227.55
971.79	227.54
972.08	227.46
972.38	227.47
972.67	227.50
972.96	227.48
973.26	227.43
973.55	227.47
973.85	227.47
974.14	227.48
974.43	227.50
974.73	227.45
975.02	227.41
975.31	227.38
975.61	227.38
975.90	227.36
976.19	227.38
976.49	227.36
976.78	227.41
977.07	227.40
977.37	227.41
977.66	227.39
977.95	227.35
978.24	227.35
978.54	227.33
978.83	227.30
979.12	227.30
979.42	227.28
979.71	227.24
980.00	227.24
980.29	227.22
980.59	227.17
980.88	227.19
981.17	227.20
981.46	227.20
981.76	227.20
982.05	227.23
982.34	227.20
982.63	227.20
982.93	227.18
983.22	227.15
983.51	227.14
983.80	227.19
984.09	227.22
984.39	227.21
984.68	227.19
984.97	227.17
985.26	227.15
985.55	227.16
985.85	227.12
986.14	227.12
986.43	227.14
986.72	227.09
987.01	227.06
987.30	227.05
987.59	227.07
987.89	227.05
988.18	227.07
988.47	227.08
988.76	227.06
989.05	227.03
989.34	227.04
989.63	227.06
989.92	227.03
990.22	227.00
990.51	226.97
990.80	226.98
991.09	226.99
991.38	226.98
991.67	227.00
991.96	226.99
992.25	226.97
992.54	226.93
992.83	226.96
993.12	226.98
993.41	227.01
993.70	227.02
993.99	227.03
994.28	226.98
994.58	226.97
994.87	226.96
995.16	226.96
995.45	226.96
995.74	226.92
996.03	226.93
996.32	226.94
996.61	226.98
996.90	226.99
997.19	226.98
997.48	227.01
997.77	227.00
998.06	227.02
998.34	227.01
998.63	227.04
998.92	227.04
999.21	227.02
999.50	227.01
999.79	226.99
1000.08	227.00
1000.37	227.02
1000.66	227.06
1000.95	227.13
1001.24	227.13
1001.53	227.17
1001.82	227.19
1002.11	227.19
1002.40	227.21
1002.68	227.25
1002.97	227.32
1003.26	227.32
1003.55	227.30
1003.84	227.28
1004.13	227.31
1004.42	227.32
1004.71	227.31
1004.99	227.31
1005.28	227.35
1005.57	227.35
1005.86	227.33
1006.15	227.33
1006.44	227.30
1006.72	227.28
1007.01	227.23
1007.30	227.23
1007.59	227.19
1007.88	227.19
1008.17	227.17
1008.45	227.16
1008.74	227.12
1009.03	227.06
1009.32	227.08
1009.60	227.11
1009.89	227.12
1010.18	227.12
1010.47	227.11
1010.76	227.10
1011.04	227.11
1011.33	227.12
1011.62	227.11
1011.91	227.12
1012.19	227.12
1012.48	227.15
1012.77	227.16
1013.05	227.24
1013.34	227.26
1013.63	227.29
1013.92	227.29
1014.20	227.33
1014.49	227.31
1014.78	227.30
1015.06	227.26
1015.35	227.21
1015.64	227.20
1015.92	227.18
1016.21	227.14
1016.50	227.14
1016.78	227.18
1017.07	227.18
1017.36	227.14
1017.64	227.15
1017.93	227.17
1018.22	227.14
1018.50	227.14
1018.79	227.12
1019.08	227.03
1019.36	227.02
1019.65	226.97
1019.93	227.00
1020.22	226.98
1020.51	227.01
1020.79	227.00
1021.08	226.68
1021.36	226.96
1021.65	227.12
1021.94	226.74
1022.22	227.07
1022.51	226.67
1022.79	227.63
1023.08	226.99
1023.36	227.90
1023.65	226.70
>>>>>End Processed Spectral Data<<<<<
