SpectraSuite Data File
++++++++++++++++++++++++++++++++++++
Date: Fri Feb 01 16:40:45 EST 2013
User: group
Dark Spectrum Present: No
Reference Spectrum Present: No
Number of Sampled Component Spectra: 1
Spectrometers: USB2E7196
Integration Time (usec): 35000 (USB2E7196)
Spectra Averaged: 100 (USB2E7196)
Boxcar Smoothing: 10 (USB2E7196)
Correct for Electrical Dark: No (USB2E7196)
Strobe/Lamp Enabled: No (USB2E7196)
Correct for Detector Non-linearity: No (USB2E7196)
Correct for Stray Light: No (USB2E7196)
Number of Pixels in Processed Spectrum: 2048
>>>>>Begin Processed Spectral Data<<<<<
339.09	0.00
339.48	213.30
339.86	215.34
340.24	216.89
340.63	217.73
341.01	220.49
341.39	220.44
341.78	221.94
342.16	223.08
342.54	223.56
342.93	212.02
343.31	222.74
343.69	223.31
344.07	223.79
344.46	224.20
344.84	224.60
345.22	224.86
345.60	225.13
345.99	225.31
346.37	225.43
346.75	225.53
347.13	225.59
347.52	225.65
347.90	225.73
348.28	225.74
348.66	225.83
349.05	225.83
349.43	225.90
349.81	225.95
350.19	225.99
350.57	226.03
350.96	226.09
351.34	226.18
351.72	226.26
352.10	226.34
352.48	226.41
352.87	226.42
353.25	226.45
353.63	226.48
354.01	226.54
354.39	226.61
354.77	226.70
355.15	226.82
355.54	226.87
355.92	226.88
356.30	226.96
356.68	227.07
357.06	227.18
357.44	227.19
357.82	227.27
358.20	227.34
358.58	227.41
358.97	227.53
359.35	227.57
359.73	227.66
360.11	227.68
360.49	227.74
360.87	227.83
361.25	227.92
361.63	228.01
362.01	228.06
362.39	228.11
362.77	228.14
363.15	228.17
363.53	228.19
363.91	228.20
364.29	228.22
364.67	228.17
365.05	228.20
365.43	228.23
365.81	228.25
366.19	228.31
366.57	228.33
366.95	228.30
367.33	228.30
367.71	228.23
368.09	228.26
368.47	228.22
368.85	228.20
369.23	228.21
369.61	228.16
369.99	228.16
370.37	228.14
370.75	228.17
371.13	228.10
371.51	228.06
371.89	228.09
372.27	228.05
372.65	228.01
373.03	227.95
373.41	227.91
373.78	227.86
374.16	227.76
374.54	227.64
374.92	227.60
375.30	227.52
375.68	227.48
376.06	227.42
376.44	227.38
376.82	227.30
377.19	227.23
377.57	227.16
377.95	227.04
378.33	226.95
378.71	226.82
379.09	226.77
379.47	226.73
379.84	226.62
380.22	226.55
380.60	226.46
380.98	226.41
381.36	226.34
381.73	226.27
382.11	226.21
382.49	226.18
382.87	226.11
383.25	226.09
383.62	226.17
384.00	226.07
384.38	226.01
384.76	225.99
385.13	225.95
385.51	225.89
385.89	225.86
386.27	225.84
386.64	225.81
387.02	225.76
387.40	225.69
387.78	225.67
388.15	225.63
388.53	225.58
388.91	225.51
389.29	225.47
389.66	225.44
390.04	225.43
390.42	225.42
390.79	225.37
391.17	225.33
391.55	225.19
391.92	225.17
392.30	225.17
392.68	225.14
393.05	225.15
393.43	225.15
393.81	225.17
394.18	225.18
394.56	225.18
394.94	225.20
395.31	225.20
395.69	225.26
396.06	225.31
396.44	225.35
396.82	225.38
397.19	225.43
397.57	225.47
397.95	225.50
398.32	225.52
398.70	225.61
399.07	225.67
399.45	225.71
399.82	225.78
400.20	225.84
400.58	225.90
400.95	225.94
401.33	226.03
401.70	226.15
402.08	226.20
402.45	226.28
402.83	226.41
403.20	226.53
403.58	226.61
403.95	226.74
404.33	226.87
404.71	227.01
405.08	227.21
405.46	227.35
405.83	227.50
406.21	227.67
406.58	227.80
406.96	227.97
407.33	228.19
407.70	228.38
408.08	228.65
408.45	228.87
408.83	229.11
409.20	229.34
409.58	229.56
409.95	229.82
410.33	230.10
410.70	230.34
411.08	230.66
411.45	230.93
411.82	231.22
412.20	231.58
412.57	231.98
412.95	232.26
413.32	232.67
413.69	233.07
414.07	233.48
414.44	233.97
414.82	234.45
415.19	235.01
415.56	235.55
415.94	236.11
416.31	236.75
416.68	237.36
417.06	238.08
417.43	238.73
417.81	239.53
418.18	240.31
418.55	241.18
418.93	242.04
419.30	242.96
419.67	243.90
420.04	244.86
420.42	245.88
420.79	247.08
421.16	248.23
421.54	249.41
421.91	250.63
422.28	251.85
422.66	253.18
423.03	254.45
423.40	255.80
423.77	257.18
424.15	258.58
424.52	260.10
424.89	261.68
425.26	263.19
425.64	264.64
426.01	266.23
426.38	267.83
426.75	269.49
427.13	271.20
427.50	273.00
427.87	274.82
428.24	276.64
428.61	278.37
428.99	280.28
429.36	282.33
429.73	284.35
430.10	286.37
430.47	288.41
430.85	290.51
431.22	292.70
431.59	295.03
431.96	297.22
432.33	299.63
432.70	301.95
433.08	304.75
433.45	307.33
433.82	309.90
434.19	312.80
434.56	315.54
434.93	318.12
435.30	320.71
435.68	323.56
436.05	326.40
436.42	329.13
436.79	331.62
437.16	334.32
437.53	337.19
437.90	339.97
438.27	342.69
438.64	345.48
439.01	348.07
439.38	350.27
439.75	352.41
440.13	354.90
440.50	357.21
440.87	359.04
441.24	361.00
441.61	363.15
441.98	364.57
442.35	366.40
442.72	368.26
443.09	370.04
443.46	371.02
443.83	371.56
444.20	372.07
444.57	372.88
444.94	373.17
445.31	373.40
445.68	373.76
446.05	373.84
446.42	373.45
446.79	373.06
447.16	372.65
447.53	372.38
447.90	371.26
448.27	370.16
448.64	368.61
449.01	367.49
449.37	365.55
449.74	363.67
450.11	361.41
450.48	358.95
450.85	356.44
451.22	354.34
451.59	352.35
451.96	350.44
452.33	347.87
452.70	345.52
453.07	342.80
453.43	339.91
453.80	337.15
454.17	334.53
454.54	331.98
454.91	329.30
455.28	326.67
455.65	324.18
456.02	321.76
456.38	319.63
456.75	316.96
457.12	314.72
457.49	312.53
457.86	310.39
458.23	308.59
458.59	306.58
458.96	304.51
459.33	302.65
459.70	300.77
460.07	299.29
460.43	297.60
460.80	295.99
461.17	294.60
461.54	293.14
461.91	291.73
462.27	290.29
462.64	289.04
463.01	287.69
463.38	286.40
463.74	285.03
464.11	283.90
464.48	282.92
464.85	281.79
465.21	280.94
465.58	280.04
465.95	278.98
466.32	278.08
466.68	277.19
467.05	276.31
467.42	275.47
467.78	274.56
468.15	273.71
468.52	273.07
468.88	272.17
469.25	271.39
469.62	270.75
469.98	270.12
470.35	269.51
470.72	268.94
471.08	268.30
471.45	267.77
471.82	267.22
472.18	266.63
472.55	266.23
472.92	265.73
473.28	265.30
473.65	264.87
474.02	264.48
474.38	264.11
474.75	263.80
475.11	263.44
475.48	263.15
475.85	262.90
476.21	262.67
476.58	262.55
476.94	262.39
477.31	262.25
477.67	262.05
478.04	261.94
478.41	261.84
478.77	261.89
479.14	261.82
479.50	261.84
479.87	261.93
480.23	262.00
480.60	262.07
480.96	262.13
481.33	262.31
481.69	262.50
482.06	262.70
482.42	262.93
482.79	263.20
483.15	263.55
483.52	263.90
483.88	264.24
484.25	264.58
484.61	265.03
484.98	265.48
485.34	266.04
485.71	266.64
486.07	267.27
486.44	267.79
486.80	268.47
487.17	269.18
487.53	269.97
487.90	270.83
488.26	271.78
488.62	272.76
488.99	273.73
489.35	274.77
489.72	275.90
490.08	277.06
490.44	278.33
490.81	279.65
491.17	281.03
491.54	282.51
491.90	284.05
492.26	285.68
492.63	287.36
492.99	289.17
493.36	291.03
493.72	293.07
494.08	295.23
494.45	297.49
494.81	299.90
495.17	302.31
495.54	304.89
495.90	307.56
496.26	310.34
496.63	313.33
496.99	316.42
497.35	319.69
497.72	323.16
498.08	326.64
498.44	330.34
498.80	334.31
499.17	338.37
499.53	342.54
499.89	346.94
500.26	351.52
500.62	356.25
500.98	361.29
501.34	366.37
501.71	371.68
502.07	377.15
502.43	382.75
502.79	388.62
503.16	394.67
503.52	400.94
503.88	407.42
504.24	414.00
504.60	420.86
504.97	427.99
505.33	435.27
505.69	443.04
506.05	450.86
506.41	458.67
506.78	466.80
507.14	475.22
507.50	483.90
507.86	492.88
508.22	502.02
508.59	511.18
508.95	520.74
509.31	530.59
509.67	540.67
510.03	550.89
510.39	561.41
510.75	572.22
511.12	583.10
511.48	594.32
511.84	605.75
512.20	617.28
512.56	629.20
512.92	641.43
513.28	653.65
513.64	666.04
514.00	678.73
514.37	691.67
514.73	704.72
515.09	717.64
515.45	730.83
515.81	744.35
516.17	758.27
516.53	772.27
516.89	786.32
517.25	800.48
517.61	814.92
517.97	829.32
518.33	843.65
518.69	858.42
519.05	873.34
519.41	888.40
519.77	903.86
520.13	919.21
520.49	934.40
520.85	949.71
521.21	965.29
521.57	981.48
521.93	997.06
522.29	1013.28
522.65	1029.51
523.01	1045.58
523.37	1061.49
523.73	1077.47
524.09	1093.49
524.45	1109.66
524.81	1126.05
525.17	1142.61
525.53	1159.33
525.89	1176.00
526.25	1192.67
526.61	1208.98
526.97	1225.74
527.33	1242.06
527.68	1258.47
528.04	1274.93
528.40	1291.35
528.76	1308.29
529.12	1324.64
529.48	1341.41
529.84	1357.35
530.20	1373.87
530.56	1390.70
530.91	1407.98
531.27	1424.69
531.63	1440.99
531.99	1457.49
532.35	1473.45
532.71	1489.29
533.07	1505.48
533.42	1521.34
533.78	1537.26
534.14	1553.31
534.50	1568.38
534.86	1584.05
535.21	1599.15
535.57	1614.80
535.93	1630.14
536.29	1644.81
536.65	1659.75
537.00	1674.27
537.36	1689.37
537.72	1703.63
538.08	1718.01
538.44	1731.57
538.79	1745.19
539.15	1758.62
539.51	1772.08
539.87	1786.13
540.22	1799.57
540.58	1812.94
540.94	1825.87
541.29	1838.39
541.65	1850.88
542.01	1863.76
542.37	1876.01
542.72	1888.11
543.08	1899.79
543.44	1912.08
543.79	1923.24
544.15	1934.01
544.51	1945.59
544.87	1956.41
545.22	1967.11
545.58	1977.25
545.94	1987.08
546.29	1996.79
546.65	2006.65
547.01	2015.96
547.36	2024.57
547.72	2033.11
548.07	2041.04
548.43	2049.28
548.79	2057.21
549.14	2064.84
549.50	2072.22
549.86	2079.75
550.21	2087.12
550.57	2094.19
550.92	2100.73
551.28	2107.69
551.64	2114.82
551.99	2121.37
552.35	2127.62
552.70	2133.79
553.06	2139.73
553.41	2146.04
553.77	2152.12
554.13	2158.19
554.48	2164.09
554.84	2169.67
555.19	2174.79
555.55	2180.00
555.90	2184.51
556.26	2189.72
556.61	2194.40
556.97	2198.86
557.32	2203.00
557.68	2207.06
558.03	2211.47
558.39	2215.17
558.74	2219.72
559.10	2223.52
559.45	2227.09
559.81	2231.19
560.16	2235.02
560.52	2238.20
560.87	2241.57
561.23	2244.28
561.58	2247.16
561.94	2249.78
562.29	2252.07
562.64	2255.03
563.00	2257.58
563.35	2261.04
563.71	2264.18
564.06	2267.26
564.42	2270.09
564.77	2272.67
565.12	2275.22
565.48	2277.09
565.83	2279.04
566.19	2280.53
566.54	2281.43
566.89	2282.61
567.25	2283.44
567.60	2284.67
567.96	2286.41
568.31	2287.25
568.66	2288.50
569.02	2289.15
569.37	2289.64
569.72	2290.64
570.08	2290.85
570.43	2290.91
570.78	2290.52
571.14	2288.94
571.49	2287.65
571.84	2287.31
572.20	2286.36
572.55	2285.22
572.90	2283.50
573.26	2282.13
573.61	2280.32
573.96	2278.86
574.31	2276.02
574.67	2273.06
575.02	2269.63
575.37	2266.33
575.72	2262.64
576.08	2259.15
576.43	2255.87
576.78	2252.34
577.13	2248.98
577.49	2245.65
577.84	2242.26
578.19	2238.48
578.54	2234.99
578.90	2230.98
579.25	2225.55
579.60	2220.78
579.95	2215.94
580.30	2211.04
580.66	2205.98
581.01	2201.15
581.36	2196.18
581.71	2192.05
582.06	2187.73
582.42	2183.38
582.77	2178.12
583.12	2173.67
583.47	2169.23
583.82	2164.48
584.17	2159.25
584.53	2154.06
584.88	2148.61
585.23	2143.05
585.58	2137.60
585.93	2132.13
586.28	2127.33
586.63	2122.46
586.98	2117.40
587.34	2112.61
587.69	2107.88
588.04	2102.81
588.39	2097.19
588.74	2090.83
589.09	2084.82
589.44	2078.21
589.79	2072.16
590.14	2066.73
590.49	2060.14
590.84	2053.64
591.19	2047.68
591.54	2041.29
591.89	2034.17
592.25	2027.61
592.60	2020.53
592.95	2013.21
593.30	2005.95
593.65	1998.39
594.00	1991.29
594.35	1984.01
594.70	1976.09
595.05	1969.11
595.40	1961.83
595.75	1954.49
596.10	1948.46
596.45	1941.84
596.80	1935.68
597.15	1929.20
597.50	1922.27
597.85	1915.89
598.19	1909.37
598.54	1902.43
598.89	1895.91
599.24	1889.87
599.59	1883.22
599.94	1876.88
600.29	1870.54
600.64	1863.99
600.99	1856.63
601.34	1849.86
601.69	1842.89
602.04	1836.16
602.39	1828.82
602.74	1822.11
603.08	1815.39
603.43	1808.52
603.78	1801.14
604.13	1793.93
604.48	1786.70
604.83	1779.76
605.18	1773.05
605.53	1765.27
605.87	1757.14
606.22	1749.93
606.57	1741.97
606.92	1734.52
607.27	1727.49
607.62	1720.56
607.96	1713.34
608.31	1706.99
608.66	1699.51
609.01	1692.04
609.36	1684.53
609.70	1676.61
610.05	1668.68
610.40	1661.16
610.75	1653.05
611.10	1645.60
611.44	1637.14
611.79	1629.21
612.14	1620.71
612.49	1611.44
612.83	1602.97
613.18	1594.88
613.53	1586.81
613.88	1578.40
614.22	1570.30
614.57	1561.63
614.92	1553.72
615.27	1546.39
615.61	1538.05
615.96	1529.97
616.31	1522.34
616.65	1515.08
617.00	1507.50
617.35	1499.77
617.70	1491.45
618.04	1482.90
618.39	1474.53
618.74	1467.00
619.08	1458.71
619.43	1451.14
619.78	1444.26
620.12	1437.14
620.47	1429.74
620.82	1421.45
621.16	1414.11
621.51	1406.54
621.85	1398.99
622.20	1390.52
622.55	1382.03
622.89	1374.15
623.24	1366.52
623.59	1359.11
623.93	1351.61
624.28	1344.34
624.62	1336.83
624.97	1329.57
625.32	1322.76
625.66	1315.83
626.01	1308.72
626.35	1301.32
626.70	1293.59
627.04	1285.89
627.39	1278.15
627.73	1270.61
628.08	1263.74
628.43	1256.40
628.77	1249.04
629.12	1241.52
629.46	1234.41
629.81	1227.01
630.15	1219.83
630.50	1212.48
630.84	1204.33
631.19	1196.26
631.53	1188.77
631.88	1181.15
632.22	1173.56
632.57	1166.28
632.91	1158.70
633.26	1151.26
633.60	1143.78
633.95	1136.50
634.29	1129.43
634.64	1122.68
634.98	1115.49
635.32	1108.46
635.67	1101.75
636.01	1095.07
636.36	1088.38
636.70	1081.82
637.05	1075.24
637.39	1068.81
637.73	1062.26
638.08	1056.37
638.42	1050.44
638.77	1043.96
639.11	1037.50
639.45	1031.20
639.80	1024.52
640.14	1018.18
640.49	1011.75
640.83	1005.59
641.17	999.49
641.52	993.19
641.86	986.75
642.20	980.87
642.55	974.43
642.89	968.12
643.23	961.53
643.58	955.69
643.92	949.53
644.26	943.57
644.61	937.52
644.95	931.60
645.29	925.15
645.64	918.44
645.98	912.19
646.32	906.22
646.66	900.14
647.01	894.41
647.35	888.67
647.69	882.73
648.04	877.13
648.38	871.37
648.72	865.41
649.06	859.44
649.41	853.52
649.75	847.66
650.09	841.75
650.43	836.04
650.78	829.86
651.12	823.86
651.46	818.08
651.80	812.35
652.14	806.96
652.49	801.58
652.83	796.44
653.17	790.86
653.51	785.25
653.85	779.83
654.20	774.21
654.54	768.21
654.88	762.43
655.22	756.58
655.56	750.87
655.90	745.38
656.25	740.15
656.59	734.70
656.93	729.65
657.27	724.51
657.61	719.05
657.95	714.00
658.29	708.95
658.64	703.68
658.98	698.34
659.32	692.85
659.66	687.54
660.00	682.27
660.34	677.26
660.68	672.30
661.02	667.25
661.36	662.51
661.70	658.06
662.05	653.85
662.39	649.56
662.73	645.07
663.07	640.71
663.41	636.24
663.75	631.86
664.09	627.25
664.43	622.76
664.77	618.71
665.11	614.48
665.45	610.34
665.79	606.34
666.13	602.16
666.47	598.07
666.81	593.99
667.15	589.80
667.49	585.83
667.83	582.01
668.17	578.09
668.51	574.06
668.85	569.97
669.19	566.07
669.53	562.23
669.87	558.45
670.21	554.75
670.55	551.03
670.89	547.54
671.23	544.10
671.57	540.60
671.91	537.12
672.25	533.57
672.58	529.99
672.92	526.54
673.26	523.42
673.60	520.20
673.94	517.10
674.28	514.17
674.62	511.23
674.96	508.12
675.30	505.19
675.64	502.28
675.97	499.49
676.31	496.55
676.65	493.60
676.99	490.88
677.33	488.00
677.67	485.24
678.01	482.27
678.34	479.36
678.68	476.51
679.02	473.65
679.36	470.83
679.70	468.12
680.04	465.30
680.37	462.51
680.71	459.77
681.05	457.09
681.39	454.38
681.73	451.78
682.06	449.25
682.40	446.75
682.74	444.20
683.08	441.63
683.42	439.06
683.75	436.54
684.09	433.92
684.43	431.44
684.77	428.98
685.10	426.61
685.44	424.26
685.78	421.94
686.12	419.58
686.45	417.32
686.79	415.06
687.13	412.92
687.46	410.73
687.80	408.55
688.14	406.29
688.48	404.29
688.81	402.01
689.15	399.88
689.49	397.70
689.82	395.55
690.16	393.46
690.50	391.47
690.83	389.50
691.17	387.52
691.51	385.66
691.84	383.84
692.18	381.90
692.52	379.93
692.85	378.01
693.19	376.21
693.52	374.34
693.86	372.51
694.20	370.71
694.53	368.89
694.87	367.06
695.21	365.30
695.54	363.48
695.88	361.74
696.21	360.01
696.55	358.35
696.88	356.68
697.22	355.04
697.56	353.43
697.89	351.81
698.23	350.25
698.56	348.62
698.90	347.07
699.23	345.45
699.57	343.93
699.90	342.39
700.24	340.84
700.58	339.41
700.91	337.95
701.25	336.47
701.58	335.10
701.92	333.74
702.25	332.42
702.59	331.04
702.92	329.69
703.26	328.38
703.59	327.09
703.93	325.96
704.26	324.73
704.60	323.48
704.93	322.22
705.26	320.93
705.60	319.72
705.93	318.54
706.27	317.48
706.60	316.39
706.94	315.30
707.27	314.16
707.61	313.02
707.94	311.94
708.27	310.90
708.61	309.82
708.94	308.74
709.28	307.77
709.61	306.77
709.94	305.84
710.28	304.80
710.61	303.81
710.95	302.70
711.28	301.79
711.61	300.84
711.95	299.93
712.28	299.01
712.61	298.07
712.95	297.10
713.28	296.23
713.61	295.37
713.95	294.56
714.28	293.72
714.61	292.90
714.95	292.09
715.28	291.21
715.61	290.33
715.95	289.51
716.28	288.62
716.61	287.79
716.95	286.96
717.28	286.21
717.61	285.44
717.94	284.72
718.28	283.89
718.61	283.15
718.94	282.46
719.27	281.77
719.61	281.12
719.94	280.48
720.27	279.73
720.60	279.03
720.94	278.36
721.27	277.75
721.60	277.17
721.93	276.55
722.27	276.01
722.60	275.46
722.93	274.93
723.26	274.38
723.59	273.81
723.93	273.29
724.26	272.80
724.59	272.23
724.92	271.71
725.25	271.21
725.59	270.65
725.92	270.14
726.25	269.62
726.58	269.10
726.91	268.58
727.24	268.09
727.57	267.59
727.91	267.07
728.24	266.59
728.57	266.09
728.90	265.64
729.23	265.13
729.56	264.72
729.89	264.21
730.22	263.75
730.55	263.29
730.89	262.85
731.22	262.39
731.55	261.94
731.88	261.50
732.21	261.09
732.54	260.68
732.87	260.24
733.20	259.86
733.53	259.47
733.86	259.13
734.19	258.76
734.52	258.38
734.85	258.11
735.18	257.71
735.51	257.36
735.84	256.96
736.17	256.62
736.50	256.20
736.83	255.97
737.16	255.65
737.49	255.31
737.82	254.92
738.15	254.57
738.48	254.25
738.81	253.92
739.14	253.59
739.47	253.32
739.80	253.02
740.13	252.71
740.46	252.39
740.79	252.03
741.12	251.72
741.45	251.45
741.78	251.10
742.11	250.81
742.44	250.48
742.77	250.22
743.10	249.91
743.43	249.61
743.75	249.27
744.08	249.09
744.41	248.83
744.74	248.61
745.07	248.32
745.40	248.06
745.73	247.83
746.06	247.55
746.39	247.27
746.71	247.02
747.04	246.71
747.37	246.45
747.70	246.25
748.03	245.99
748.36	245.74
748.68	245.49
749.01	245.26
749.34	245.05
749.67	244.80
750.00	244.60
750.33	244.46
750.65	244.23
750.98	243.92
751.31	243.71
751.64	243.45
751.97	243.31
752.29	243.08
752.62	242.84
752.95	242.64
753.28	242.41
753.60	242.18
753.93	242.03
754.26	241.84
754.59	241.59
754.91	241.38
755.24	241.16
755.57	240.96
755.90	240.75
756.22	240.52
756.55	240.27
756.88	240.06
757.20	239.79
757.53	239.55
757.86	239.36
758.19	239.20
758.51	239.05
758.84	238.83
759.17	238.69
759.49	238.50
759.82	238.38
760.15	238.23
760.47	238.07
760.80	237.91
761.13	237.77
761.45	237.62
761.78	237.46
762.11	237.33
762.43	237.19
762.76	237.05
763.08	236.96
763.41	236.87
763.74	236.74
764.06	236.61
764.39	236.49
764.71	236.34
765.04	236.17
765.37	236.04
765.69	235.91
766.02	235.78
766.34	235.67
766.67	235.53
767.00	235.44
767.32	235.43
767.65	235.37
767.97	235.24
768.30	235.12
768.62	235.03
768.95	234.92
769.27	234.80
769.60	234.72
769.92	234.56
770.25	234.45
770.57	234.34
770.90	234.28
771.22	234.18
771.55	234.11
771.87	234.03
772.20	233.92
772.52	233.90
772.85	233.93
773.17	233.82
773.50	233.72
773.82	233.60
774.15	233.43
774.47	233.28
774.80	233.20
775.12	233.12
775.45	233.01
775.77	232.95
776.09	232.88
776.42	232.79
776.74	232.77
777.07	232.66
777.39	232.60
777.72	232.50
778.04	232.44
778.36	232.36
778.69	232.31
779.01	232.25
779.33	232.09
779.66	231.90
779.98	231.84
780.31	231.79
780.63	231.76
780.95	231.72
781.28	231.66
781.60	231.58
781.92	231.55
782.25	231.51
782.57	231.45
782.89	231.39
783.22	231.33
783.54	231.27
783.86	231.22
784.19	231.15
784.51	231.16
784.83	231.12
785.16	231.05
785.48	231.02
785.80	231.00
786.12	230.98
786.45	230.95
786.77	230.92
787.09	230.85
787.42	230.79
787.74	230.72
788.06	230.65
788.38	230.63
788.71	230.56
789.03	230.51
789.35	230.49
789.67	230.43
789.99	230.41
790.32	230.35
790.64	230.33
790.96	230.38
791.28	230.29
791.61	230.21
791.93	230.17
792.25	230.08
792.57	230.10
792.89	230.04
793.21	229.98
793.54	229.94
793.86	229.90
794.18	229.83
794.50	229.76
794.82	229.73
795.14	229.69
795.47	229.65
795.79	229.61
796.11	229.52
796.43	229.47
796.75	229.43
797.07	229.39
797.39	229.34
797.71	229.23
798.04	229.18
798.36	229.16
798.68	229.09
799.00	229.08
799.32	228.95
799.64	228.94
799.96	228.88
800.28	228.84
800.60	228.80
800.92	228.76
801.24	228.73
801.56	228.74
801.89	228.70
802.21	228.70
802.53	228.65
802.85	228.67
803.17	228.71
803.49	228.64
803.81	228.60
804.13	228.57
804.45	228.51
804.77	228.50
805.09	228.46
805.41	228.47
805.73	228.41
806.05	228.42
806.37	228.34
806.69	228.33
807.01	228.31
807.33	228.30
807.65	228.31
807.97	228.32
808.28	228.29
808.60	228.25
808.92	228.20
809.24	228.25
809.56	228.18
809.88	228.05
810.20	228.04
810.52	228.04
810.84	228.01
811.16	227.98
811.48	227.93
811.80	227.96
812.12	227.92
812.43	227.89
812.75	227.84
813.07	227.83
813.39	227.80
813.71	227.76
814.03	227.76
814.35	227.72
814.67	227.66
814.98	227.60
815.30	227.60
815.62	227.56
815.94	227.48
816.26	227.51
816.58	227.51
816.89	227.48
817.21	227.46
817.53	227.46
817.85	227.45
818.17	227.43
818.48	227.38
818.80	227.40
819.12	227.40
819.44	227.40
819.76	227.36
820.07	227.38
820.39	227.36
820.71	227.35
821.03	227.33
821.34	227.31
821.66	227.32
821.98	227.32
822.30	227.31
822.61	227.36
822.93	227.35
823.25	227.35
823.57	227.35
823.88	227.34
824.20	227.31
824.52	227.31
824.83	227.30
825.15	227.25
825.47	227.23
825.79	227.26
826.10	227.21
826.42	227.24
826.74	227.25
827.05	227.24
827.37	227.19
827.69	227.17
828.00	227.17
828.32	227.16
828.64	227.15
828.95	227.18
829.27	227.14
829.58	227.11
829.90	227.10
830.22	227.09
830.53	227.06
830.85	227.03
831.17	227.02
831.48	227.01
831.80	227.03
832.11	226.99
832.43	226.95
832.75	226.93
833.06	226.98
833.38	226.91
833.69	226.91
834.01	226.90
834.32	226.88
834.64	226.88
834.96	226.85
835.27	226.82
835.59	226.77
835.90	226.72
836.22	226.69
836.53	226.69
836.85	226.67
837.16	226.75
837.48	226.74
837.79	226.75
838.11	226.76
838.42	226.74
838.74	226.75
839.05	226.74
839.37	226.73
839.68	226.65
840.00	226.66
840.31	226.67
840.63	226.65
840.94	226.64
841.26	226.61
841.57	226.61
841.88	226.60
842.20	226.56
842.51	226.54
842.83	226.52
843.14	226.58
843.46	226.57
843.77	226.49
844.08	226.47
844.40	226.42
844.71	226.39
845.03	226.37
845.34	226.34
845.65	226.30
845.97	226.32
846.28	226.31
846.60	226.30
846.91	226.25
847.22	226.25
847.54	226.27
847.85	226.28
848.16	226.26
848.48	226.24
848.79	226.30
849.10	226.32
849.42	226.34
849.73	226.24
850.04	226.23
850.36	226.19
850.67	226.25
850.98	226.27
851.30	226.27
851.61	226.28
851.92	226.32
852.23	226.36
852.55	226.37
852.86	226.40
853.17	226.40
853.49	226.43
853.80	226.45
854.11	226.48
854.42	226.49
854.74	226.49
855.05	226.50
855.36	226.45
855.67	226.45
855.99	226.45
856.30	226.55
856.61	226.55
856.92	226.55
857.23	226.52
857.55	226.53
857.86	226.53
858.17	226.53
858.48	226.51
858.79	226.50
859.11	226.52
859.42	226.50
859.73	226.44
860.04	226.42
860.35	226.40
860.66	226.38
860.98	226.39
861.29	226.38
861.60	226.33
861.91	226.39
862.22	226.40
862.53	226.37
862.84	226.31
863.16	226.35
863.47	226.38
863.78	226.38
864.09	226.35
864.40	226.36
864.71	226.35
865.02	226.36
865.33	226.33
865.64	226.31
865.95	226.29
866.27	226.39
866.58	226.39
866.89	226.38
867.20	226.35
867.51	226.29
867.82	226.28
868.13	226.35
868.44	226.29
868.75	226.26
869.06	226.24
869.37	226.22
869.68	226.21
869.99	226.17
870.30	226.17
870.61	226.18
870.92	226.13
871.23	226.14
871.54	226.09
871.85	226.13
872.16	226.11
872.47	226.07
872.78	226.00
873.09	226.00
873.40	226.03
873.71	226.01
874.02	225.98
874.33	225.98
874.64	225.93
874.95	225.95
875.26	225.94
875.56	225.93
875.87	225.92
876.18	225.88
876.49	226.00
876.80	225.95
877.11	225.93
877.42	225.96
877.73	225.94
878.04	225.96
878.35	225.93
878.66	225.95
878.96	225.97
879.27	225.96
879.58	225.93
879.89	225.88
880.20	225.93
880.51	225.94
880.82	225.91
881.12	225.93
881.43	225.88
881.74	225.88
882.05	225.88
882.36	225.84
882.67	225.85
882.97	225.73
883.28	225.74
883.59	225.72
883.90	225.72
884.21	225.73
884.51	225.72
884.82	225.73
885.13	225.74
885.44	225.73
885.74	225.73
886.05	225.72
886.36	225.74
886.67	225.68
886.98	225.74
887.28	225.79
887.59	225.78
887.90	225.81
888.20	225.80
888.51	225.82
888.82	225.81
889.13	225.83
889.43	225.90
889.74	225.87
890.05	225.91
890.35	225.92
890.66	225.91
890.97	225.87
891.28	225.87
891.58	225.86
891.89	225.86
892.20	225.89
892.50	225.91
892.81	225.89
893.12	225.90
893.42	225.87
893.73	225.88
894.04	225.85
894.34	225.89
894.65	225.91
894.95	225.91
895.26	225.91
895.57	225.92
895.87	225.85
896.18	225.87
896.48	225.90
896.79	225.92
897.10	225.92
897.40	225.97
897.71	225.98
898.01	225.97
898.32	225.99
898.63	225.98
898.93	226.00
899.24	226.03
899.54	226.04
899.85	226.02
900.15	226.02
900.46	226.03
900.76	226.02
901.07	226.00
901.38	225.99
901.68	226.03
901.99	226.00
902.29	226.01
902.60	226.04
902.90	226.02
903.21	225.97
903.51	225.98
903.82	225.99
904.12	225.98
904.43	225.98
904.73	226.00
905.03	225.99
905.34	226.07
905.64	226.07
905.95	226.07
906.25	226.06
906.56	226.05
906.86	226.04
907.17	226.03
907.47	226.06
907.77	226.07
908.08	226.04
908.38	226.05
908.69	226.05
908.99	226.05
909.30	226.04
909.60	226.03
909.90	226.01
910.21	225.99
910.51	225.97
910.81	225.97
911.12	225.97
911.42	225.98
911.73	225.84
912.03	225.84
912.33	225.87
912.64	225.90
912.94	225.90
913.24	225.89
913.55	225.85
913.85	225.81
914.15	225.81
914.46	225.84
914.76	225.81
915.06	225.78
915.37	225.77
915.67	225.74
915.97	225.75
916.27	225.76
916.58	225.78
916.88	225.78
917.18	225.78
917.49	225.82
917.79	225.80
918.09	225.83
918.39	225.86
918.70	225.86
919.00	225.85
919.30	225.87
919.60	225.86
919.91	225.87
920.21	225.89
920.51	225.88
920.81	225.86
921.12	225.89
921.42	225.89
921.72	225.89
922.02	225.92
922.32	225.96
922.63	225.94
922.93	225.98
923.23	225.97
923.53	225.98
923.83	225.91
924.13	225.95
924.44	225.96
924.74	225.96
925.04	225.97
925.34	225.98
925.64	225.94
925.94	225.96
926.24	226.03
926.55	226.02
926.85	226.05
927.15	226.05
927.45	226.05
927.75	226.06
928.05	226.10
928.35	226.07
928.65	226.05
928.95	226.06
929.26	226.01
929.56	226.05
929.86	226.04
930.16	226.03
930.46	226.00
930.76	225.97
931.06	225.93
931.36	225.91
931.66	225.92
931.96	225.93
932.26	225.96
932.56	225.93
932.86	225.96
933.16	225.94
933.46	225.94
933.76	225.94
934.06	225.97
934.36	225.97
934.66	226.00
934.96	226.00
935.26	225.97
935.56	225.96
935.86	225.95
936.16	225.96
936.46	225.95
936.76	225.96
937.06	225.99
937.36	226.00
937.66	225.99
937.96	225.95
938.26	225.92
938.56	225.89
938.86	225.87
939.16	225.90
939.46	225.91
939.76	225.92
940.06	225.89
940.35	225.87
940.65	225.79
940.95	225.78
941.25	225.78
941.55	225.79
941.85	225.80
942.15	225.81
942.45	225.81
942.75	225.78
943.04	225.76
943.34	225.76
943.64	225.76
943.94	225.72
944.24	225.69
944.54	225.70
944.84	225.70
945.13	225.69
945.43	225.63
945.73	225.63
946.03	225.58
946.33	225.57
946.62	225.57
946.92	225.57
947.22	225.54
947.52	225.53
947.82	225.54
948.11	225.54
948.41	225.51
948.71	225.47
949.01	225.47
949.31	225.48
949.60	225.48
949.90	225.48
950.20	225.49
950.50	225.50
950.79	225.46
951.09	225.48
951.39	225.45
951.69	225.45
951.98	225.45
952.28	225.48
952.58	225.48
952.87	225.46
953.17	225.49
953.47	225.49
953.76	225.46
954.06	225.44
954.36	225.41
954.66	225.39
954.95	225.42
955.25	225.45
955.55	225.45
955.84	225.41
956.14	225.41
956.44	225.43
956.73	225.41
957.03	225.43
957.32	225.41
957.62	225.40
957.92	225.38
958.21	225.37
958.51	225.49
958.81	225.47
959.10	225.48
959.40	225.49
959.69	225.48
959.99	225.50
960.29	225.50
960.58	225.52
960.88	225.56
961.17	225.54
961.47	225.54
961.76	225.51
962.06	225.53
962.36	225.53
962.65	225.53
962.95	225.54
963.24	225.53
963.54	225.55
963.83	225.58
964.13	225.61
964.42	225.59
964.72	225.54
965.01	225.57
965.31	225.57
965.60	225.58
965.90	225.65
966.19	225.63
966.49	225.62
966.78	225.61
967.08	225.63
967.37	225.66
967.67	225.65
967.96	225.70
968.26	225.70
968.55	225.70
968.85	225.71
969.14	225.74
969.43	225.76
969.73	225.75
970.02	225.73
970.32	225.71
970.61	225.70
970.91	225.69
971.20	225.66
971.49	225.67
971.79	225.65
972.08	225.61
972.38	225.65
972.67	225.70
972.96	225.72
973.26	225.68
973.55	225.73
973.85	225.75
974.14	225.76
974.43	225.74
974.73	225.73
975.02	225.70
975.31	225.70
975.61	225.70
975.90	225.69
976.19	225.70
976.49	225.72
976.78	225.74
977.07	225.75
977.37	225.79
977.66	225.77
977.95	225.79
978.24	225.81
978.54	225.84
978.83	225.79
979.12	225.78
979.42	225.81
979.71	225.78
980.00	225.78
980.29	225.80
980.59	225.80
980.88	225.82
981.17	225.82
981.46	225.80
981.76	225.77
982.05	225.83
982.34	225.83
982.63	225.81
982.93	225.83
983.22	225.85
983.51	225.87
983.80	225.91
984.09	225.89
984.39	225.86
984.68	225.85
984.97	225.86
985.26	225.87
985.55	225.86
985.85	225.83
986.14	225.84
986.43	225.85
986.72	225.84
987.01	225.83
987.30	225.86
987.59	225.85
987.89	225.90
988.18	225.84
988.47	225.83
988.76	225.85
989.05	225.84
989.34	225.81
989.63	225.80
989.92	225.77
990.22	225.75
990.51	225.74
990.80	225.72
991.09	225.71
991.38	225.69
991.67	225.65
991.96	225.62
992.25	225.64
992.54	225.58
992.83	225.59
993.12	225.60
993.41	225.61
993.70	225.66
993.99	225.65
994.28	225.67
994.58	225.69
994.87	225.66
995.16	225.63
995.45	225.60
995.74	225.57
996.03	225.58
996.32	225.60
996.61	225.62
996.90	225.61
997.19	225.60
997.48	225.60
997.77	225.59
998.06	225.60
998.34	225.57
998.63	225.58
998.92	225.56
999.21	225.57
999.50	225.55
999.79	225.49
1000.08	225.48
1000.37	225.45
1000.66	225.42
1000.95	225.46
1001.24	225.48
1001.53	225.51
1001.82	225.50
1002.11	225.47
1002.40	225.48
1002.68	225.49
1002.97	225.55
1003.26	225.53
1003.55	225.52
1003.84	225.55
1004.13	225.57
1004.42	225.57
1004.71	225.57
1004.99	225.55
1005.28	225.57
1005.57	225.54
1005.86	225.55
1006.15	225.55
1006.44	225.56
1006.72	225.59
1007.01	225.55
1007.30	225.57
1007.59	225.55
1007.88	225.53
1008.17	225.56
1008.45	225.56
1008.74	225.52
1009.03	225.51
1009.32	225.53
1009.60	225.53
1009.89	225.48
1010.18	225.46
1010.47	225.44
1010.76	225.42
1011.04	225.48
1011.33	225.46
1011.62	225.52
1011.91	225.56
1012.19	225.56
1012.48	225.59
1012.77	225.59
1013.05	225.68
1013.34	225.68
1013.63	225.68
1013.92	225.73
1014.20	225.71
1014.49	225.71
1014.78	225.73
1015.06	225.69
1015.35	225.68
1015.64	225.71
1015.92	225.74
1016.21	225.76
1016.50	225.78
1016.78	225.84
1017.07	225.82
1017.36	225.82
1017.64	225.81
1017.93	225.81
1018.22	225.78
1018.50	225.73
1018.79	225.73
1019.08	225.66
1019.36	225.66
1019.65	225.64
1019.93	225.65
1020.22	225.68
1020.51	225.73
1020.79	225.73
1021.08	224.97
1021.36	225.04
1021.65	225.41
1021.94	225.85
1022.22	225.76
1022.51	225.13
1022.79	226.20
1023.08	226.08
1023.36	226.96
1023.65	225.55
>>>>>End Processed Spectral Data<<<<<
