SpectraSuite Data File
++++++++++++++++++++++++++++++++++++
Date: Fri Feb 01 15:55:40 EST 2013
User: group
Dark Spectrum Present: No
Reference Spectrum Present: No
Number of Sampled Component Spectra: 1
Spectrometers: USB2E7196
Integration Time (usec): 35000 (USB2E7196)
Spectra Averaged: 100 (USB2E7196)
Boxcar Smoothing: 10 (USB2E7196)
Correct for Electrical Dark: No (USB2E7196)
Strobe/Lamp Enabled: No (USB2E7196)
Correct for Detector Non-linearity: No (USB2E7196)
Correct for Stray Light: No (USB2E7196)
Number of Pixels in Processed Spectrum: 2048
>>>>>Begin Processed Spectral Data<<<<<
339.09	0.00
339.48	214.10
339.86	215.45
340.24	218.07
340.63	219.06
341.01	222.00
341.39	221.62
341.78	223.46
342.16	224.50
342.54	224.23
342.93	213.04
343.31	223.79
343.69	224.34
344.07	224.82
344.46	225.22
344.84	225.61
345.22	225.83
345.60	226.10
345.99	226.27
346.37	226.41
346.75	226.55
347.13	226.63
347.52	226.69
347.90	226.72
348.28	226.76
348.66	226.84
349.05	226.84
349.43	226.89
349.81	226.95
350.19	227.01
350.57	227.06
350.96	227.16
351.34	227.25
351.72	227.35
352.10	227.46
352.48	227.53
352.87	227.57
353.25	227.63
353.63	227.64
354.01	227.71
354.39	227.76
354.77	227.81
355.15	227.89
355.54	227.94
355.92	227.95
356.30	228.03
356.68	228.15
357.06	228.25
357.44	228.31
357.82	228.38
358.20	228.44
358.58	228.50
358.97	228.58
359.35	228.65
359.73	228.75
360.11	228.81
360.49	228.85
360.87	228.88
361.25	228.92
361.63	229.01
362.01	229.02
362.39	229.07
362.77	229.11
363.15	229.12
363.53	229.15
363.91	229.21
364.29	229.18
364.67	229.06
365.05	229.07
365.43	229.09
365.81	229.12
366.19	229.16
366.57	229.16
366.95	229.17
367.33	229.12
367.71	229.10
368.09	229.09
368.47	229.10
368.85	229.08
369.23	229.11
369.61	229.05
369.99	229.07
370.37	229.05
370.75	229.05
371.13	228.99
371.51	228.94
371.89	228.89
372.27	228.84
372.65	228.79
373.03	228.73
373.41	228.67
373.78	228.59
374.16	228.46
374.54	228.38
374.92	228.26
375.30	228.20
375.68	228.11
376.06	228.05
376.44	227.98
376.82	227.96
377.19	227.87
377.57	227.80
377.95	227.70
378.33	227.59
378.71	227.48
379.09	227.44
379.47	227.40
379.84	227.34
380.22	227.30
380.60	227.28
380.98	227.19
381.36	227.09
381.73	227.04
382.11	227.00
382.49	226.98
382.87	226.94
383.25	226.87
383.62	226.92
384.00	226.84
384.38	226.80
384.76	226.73
385.13	226.75
385.51	226.72
385.89	226.67
386.27	226.66
386.64	226.63
387.02	226.58
387.40	226.51
387.78	226.46
388.15	226.41
388.53	226.36
388.91	226.37
389.29	226.36
389.66	226.34
390.04	226.31
390.42	226.29
390.79	226.26
391.17	226.26
391.55	226.13
391.92	226.12
392.30	226.09
392.68	226.06
393.05	226.02
393.43	226.02
393.81	226.03
394.18	226.01
394.56	226.03
394.94	226.04
395.31	226.09
395.69	226.14
396.06	226.23
396.44	226.25
396.82	226.25
397.19	226.34
397.57	226.35
397.95	226.43
398.32	226.47
398.70	226.52
399.07	226.64
399.45	226.69
399.82	226.79
400.20	226.84
400.58	226.94
400.95	226.97
401.33	227.05
401.70	227.19
402.08	227.29
402.45	227.37
402.83	227.51
403.20	227.58
403.58	227.68
403.95	227.79
404.33	227.93
404.71	228.06
405.08	228.22
405.46	228.40
405.83	228.53
406.21	228.71
406.58	228.84
406.96	229.00
407.33	229.22
407.70	229.39
408.08	229.69
408.45	229.92
408.83	230.18
409.20	230.39
409.58	230.57
409.95	230.85
410.33	231.12
410.70	231.33
411.08	231.65
411.45	231.97
411.82	232.27
412.20	232.65
412.57	233.10
412.95	233.38
413.32	233.75
413.69	234.18
414.07	234.58
414.44	235.09
414.82	235.55
415.19	236.10
415.56	236.66
415.94	237.19
416.31	237.81
416.68	238.44
417.06	239.19
417.43	239.91
417.81	240.64
418.18	241.42
418.55	242.31
418.93	243.17
419.30	244.06
419.67	244.97
420.04	245.93
420.42	246.85
420.79	248.06
421.16	249.23
421.54	250.42
421.91	251.64
422.28	252.88
422.66	254.22
423.03	255.49
423.40	256.79
423.77	258.22
424.15	259.63
424.52	261.13
424.89	262.73
425.26	264.24
425.64	265.70
426.01	267.27
426.38	268.91
426.75	270.60
427.13	272.28
427.50	274.07
427.87	275.96
428.24	277.84
428.61	279.57
428.99	281.48
429.36	283.57
429.73	285.61
430.10	287.62
430.47	289.68
430.85	291.82
431.22	294.09
431.59	296.50
431.96	298.76
432.33	301.24
432.70	303.62
433.08	306.47
433.45	309.10
433.82	311.71
434.19	314.61
434.56	317.39
434.93	320.11
435.30	322.78
435.68	325.65
436.05	328.47
436.42	331.29
436.79	333.81
437.16	336.52
437.53	339.37
437.90	342.21
438.27	344.95
438.64	347.77
439.01	350.35
439.38	352.57
439.75	354.77
440.13	357.22
440.50	359.57
440.87	361.41
441.24	363.37
441.61	365.53
441.98	367.01
442.35	368.80
442.72	370.60
443.09	372.39
443.46	373.36
443.83	373.94
444.20	374.43
444.57	375.28
444.94	375.53
445.31	375.87
445.68	376.21
446.05	376.26
446.42	375.86
446.79	375.45
447.16	374.97
447.53	374.63
447.90	373.50
448.27	372.33
448.64	370.74
449.01	369.56
449.37	367.59
449.74	365.68
450.11	363.46
450.48	361.00
450.85	358.50
451.22	356.42
451.59	354.44
451.96	352.51
452.33	349.93
452.70	347.59
453.07	344.77
453.43	341.88
453.80	339.13
454.17	336.45
454.54	333.91
454.91	331.17
455.28	328.47
455.65	325.97
456.02	323.53
456.38	321.37
456.75	318.75
457.12	316.51
457.49	314.28
457.86	312.09
458.23	310.24
458.59	308.17
458.96	306.05
459.33	304.15
459.70	302.24
460.07	300.74
460.43	299.03
460.80	297.42
461.17	295.96
461.54	294.44
461.91	292.97
462.27	291.54
462.64	290.28
463.01	288.93
463.38	287.61
463.74	286.24
464.11	285.07
464.48	284.04
464.85	282.92
465.21	282.07
465.58	281.15
465.95	280.07
466.32	279.15
466.68	278.28
467.05	277.37
467.42	276.53
467.78	275.60
468.15	274.71
468.52	274.05
468.88	273.17
469.25	272.43
469.62	271.84
469.98	271.18
470.35	270.57
470.72	269.96
471.08	269.32
471.45	268.79
471.82	268.25
472.18	267.65
472.55	267.22
472.92	266.73
473.28	266.26
473.65	265.78
474.02	265.36
474.38	264.99
474.75	264.71
475.11	264.34
475.48	264.05
475.85	263.78
476.21	263.54
476.58	263.38
476.94	263.26
477.31	263.08
477.67	262.92
478.04	262.81
478.41	262.77
478.77	262.78
479.14	262.70
479.50	262.71
479.87	262.76
480.23	262.84
480.60	262.87
480.96	262.97
481.33	263.20
481.69	263.35
482.06	263.52
482.42	263.70
482.79	263.96
483.15	264.27
483.52	264.69
483.88	265.00
484.25	265.40
484.61	265.81
484.98	266.31
485.34	266.88
485.71	267.46
486.07	268.06
486.44	268.67
486.80	269.42
487.17	270.14
487.53	270.97
487.90	271.85
488.26	272.81
488.62	273.81
488.99	274.76
489.35	275.85
489.72	276.99
490.08	278.22
490.44	279.49
490.81	280.83
491.17	282.16
491.54	283.68
491.90	285.21
492.26	286.86
492.63	288.58
492.99	290.32
493.36	292.27
493.72	294.32
494.08	296.47
494.45	298.69
494.81	301.06
495.17	303.51
495.54	306.08
495.90	308.79
496.26	311.62
496.63	314.62
496.99	317.73
497.35	321.01
497.72	324.43
498.08	327.88
498.44	331.56
498.80	335.52
499.17	339.52
499.53	343.73
499.89	348.10
500.26	352.59
500.62	357.27
500.98	362.22
501.34	367.30
501.71	372.56
502.07	377.99
502.43	383.62
502.79	389.54
503.16	395.60
503.52	401.80
503.88	408.21
504.24	414.89
504.60	421.77
504.97	428.81
505.33	436.13
505.69	443.92
506.05	451.70
506.41	459.57
506.78	467.80
507.14	476.22
507.50	484.94
507.86	494.03
508.22	503.26
508.59	512.46
508.95	522.00
509.31	531.85
509.67	541.97
510.03	552.22
510.39	562.69
510.75	573.51
511.12	584.52
511.48	595.77
511.84	607.16
512.20	618.69
512.56	630.68
512.92	642.79
513.28	655.09
513.64	667.53
514.00	680.25
514.37	693.08
514.73	706.15
515.09	719.11
515.45	732.37
515.81	745.92
516.17	759.92
516.53	773.99
516.89	788.13
517.25	802.32
517.61	816.73
517.97	831.12
518.33	845.44
518.69	860.27
519.05	875.28
519.41	890.37
519.77	905.95
520.13	921.38
520.49	936.79
520.85	952.18
521.21	968.01
521.57	984.24
521.93	1000.00
522.29	1016.36
522.65	1032.71
523.01	1048.86
523.37	1064.89
523.73	1081.02
524.09	1097.20
524.45	1113.50
524.81	1130.17
525.17	1146.97
525.53	1163.91
525.89	1180.86
526.25	1197.55
526.61	1213.85
526.97	1230.58
527.33	1246.97
527.68	1263.64
528.04	1280.15
528.40	1296.68
528.76	1313.64
529.12	1330.14
529.48	1346.96
529.84	1362.94
530.20	1379.50
530.56	1396.58
530.91	1413.91
531.27	1430.66
531.63	1447.12
531.99	1463.62
532.35	1479.45
532.71	1495.33
533.07	1511.56
533.42	1527.45
533.78	1543.40
534.14	1559.63
534.50	1574.98
534.86	1590.77
535.21	1605.75
535.57	1621.57
535.93	1637.05
536.29	1651.78
536.65	1666.91
537.00	1681.80
537.36	1697.07
537.72	1711.64
538.08	1725.95
538.44	1739.75
538.79	1753.57
539.15	1767.18
539.51	1780.91
539.87	1795.27
540.22	1809.00
540.58	1822.70
540.94	1835.97
541.29	1848.89
541.65	1861.45
542.01	1874.71
542.37	1887.00
542.72	1899.49
543.08	1911.35
543.44	1923.76
543.79	1934.87
544.15	1945.79
544.51	1957.26
544.87	1968.32
545.22	1979.08
545.58	1989.34
545.94	1999.01
546.29	2008.85
546.65	2018.55
547.01	2027.89
547.36	2036.52
547.72	2045.01
548.07	2052.82
548.43	2061.06
548.79	2069.15
549.14	2076.76
549.50	2084.06
549.86	2091.74
550.21	2098.96
550.57	2105.99
550.92	2112.53
551.28	2119.66
551.64	2126.64
551.99	2133.22
552.35	2139.32
552.70	2145.42
553.06	2151.23
553.41	2157.59
553.77	2163.69
554.13	2169.82
554.48	2175.98
554.84	2181.52
555.19	2186.74
555.55	2191.99
555.90	2196.33
556.26	2201.14
556.61	2205.84
556.97	2210.08
557.32	2214.23
557.68	2218.45
558.03	2222.78
558.39	2226.58
558.74	2231.23
559.10	2235.20
559.45	2238.76
559.81	2243.00
560.16	2246.81
560.52	2250.16
560.87	2253.51
561.23	2256.07
561.58	2259.02
561.94	2261.39
562.29	2263.75
562.64	2266.43
563.00	2268.91
563.35	2272.47
563.71	2275.52
564.06	2278.79
564.42	2281.70
564.77	2284.21
565.12	2286.47
565.48	2288.30
565.83	2290.03
566.19	2291.34
566.54	2292.21
566.89	2293.39
567.25	2293.98
567.60	2295.37
567.96	2297.10
568.31	2298.13
568.66	2299.16
569.02	2299.80
569.37	2300.12
569.72	2300.87
570.08	2301.00
570.43	2301.18
570.78	2300.48
571.14	2298.99
571.49	2297.79
571.84	2297.50
572.20	2296.32
572.55	2295.17
572.90	2293.68
573.26	2292.34
573.61	2290.63
573.96	2288.77
574.31	2285.75
574.67	2282.76
575.02	2279.19
575.37	2275.97
575.72	2272.18
576.08	2268.97
576.43	2265.61
576.78	2262.03
577.13	2258.84
577.49	2255.68
577.84	2252.05
578.19	2248.34
578.54	2244.77
578.90	2240.42
579.25	2234.84
579.60	2229.97
579.95	2225.05
580.30	2220.13
580.66	2215.01
581.01	2210.12
581.36	2205.32
581.71	2201.03
582.06	2196.49
582.42	2191.92
582.77	2186.49
583.12	2181.87
583.47	2177.11
583.82	2172.18
584.17	2166.89
584.53	2161.45
584.88	2155.89
585.23	2150.14
585.58	2144.71
585.93	2139.12
586.28	2134.28
586.63	2129.26
586.98	2124.15
587.34	2119.45
587.69	2114.50
588.04	2109.16
588.39	2103.35
588.74	2096.90
589.09	2090.97
589.44	2084.25
589.79	2078.35
590.14	2072.75
590.49	2066.09
590.84	2059.73
591.19	2053.58
591.54	2047.16
591.89	2039.79
592.25	2033.02
592.60	2025.71
592.95	2018.12
593.30	2010.86
593.65	2003.30
594.00	1996.30
594.35	1989.16
594.70	1981.15
595.05	1973.94
595.40	1966.71
595.75	1959.32
596.10	1953.07
596.45	1946.22
596.80	1940.05
597.15	1933.20
597.50	1926.00
597.85	1919.65
598.19	1913.02
598.54	1905.95
598.89	1899.25
599.24	1893.50
599.59	1886.74
599.94	1880.67
600.29	1874.40
600.64	1867.86
600.99	1860.43
601.34	1853.54
601.69	1846.49
602.04	1839.69
602.39	1832.41
602.74	1825.58
603.08	1818.89
603.43	1812.25
603.78	1804.89
604.13	1797.65
604.48	1790.32
604.83	1783.47
605.18	1776.55
605.53	1768.51
605.87	1760.51
606.22	1753.34
606.57	1745.25
606.92	1738.10
607.27	1730.89
607.62	1723.85
607.96	1716.51
608.31	1709.85
608.66	1702.27
609.01	1694.74
609.36	1687.11
609.70	1678.99
610.05	1670.96
610.40	1663.27
610.75	1654.86
611.10	1647.25
611.44	1638.87
611.79	1631.08
612.14	1622.41
612.49	1613.20
612.83	1604.87
613.18	1596.78
613.53	1588.70
613.88	1580.22
614.22	1571.74
614.57	1563.19
614.92	1555.20
615.27	1547.60
615.61	1539.25
615.96	1531.18
616.31	1523.52
616.65	1516.11
617.00	1508.57
617.35	1500.92
617.70	1492.46
618.04	1483.97
618.39	1475.74
618.74	1468.17
619.08	1459.74
619.43	1452.16
619.78	1445.21
620.12	1438.08
620.47	1430.52
620.82	1422.28
621.16	1414.86
621.51	1407.36
621.85	1399.73
622.20	1391.17
622.55	1382.91
622.89	1375.23
623.24	1367.58
623.59	1360.17
623.93	1352.66
624.28	1345.55
624.62	1337.93
624.97	1330.78
625.32	1324.08
625.66	1317.18
626.01	1309.95
626.35	1302.54
626.70	1294.94
627.04	1287.21
627.39	1279.40
627.73	1272.05
628.08	1265.14
628.43	1257.86
628.77	1250.38
629.12	1242.75
629.46	1235.68
629.81	1228.28
630.15	1220.97
630.50	1213.56
630.84	1205.40
631.19	1197.48
631.53	1189.95
631.88	1182.46
632.22	1174.91
632.57	1167.56
632.91	1159.95
633.26	1152.60
633.60	1145.19
633.95	1138.02
634.29	1131.08
634.64	1124.38
634.98	1117.05
635.32	1109.86
635.67	1103.26
636.01	1096.74
636.36	1089.96
636.70	1083.42
637.05	1076.89
637.39	1070.44
637.73	1063.92
638.08	1058.04
638.42	1052.05
638.77	1045.52
639.11	1038.90
639.45	1032.61
639.80	1025.93
640.14	1019.52
640.49	1012.95
640.83	1006.72
641.17	1000.54
641.52	994.10
641.86	987.67
642.20	981.85
642.55	975.57
642.89	969.12
643.23	962.57
643.58	956.87
643.92	950.67
644.26	944.60
644.61	938.64
644.95	932.61
645.29	926.08
645.64	919.30
645.98	912.98
646.32	907.09
646.66	900.92
647.01	895.11
647.35	889.46
647.69	883.63
648.04	878.06
648.38	872.22
648.72	866.24
649.06	860.12
649.41	854.20
649.75	848.23
650.09	842.26
650.43	836.42
650.78	830.20
651.12	824.27
651.46	818.47
651.80	812.62
652.14	807.21
652.49	801.77
652.83	796.60
653.17	790.92
653.51	785.23
653.85	779.88
654.20	774.20
654.54	768.12
654.88	762.35
655.22	756.43
655.56	750.73
655.90	745.26
656.25	740.04
656.59	734.61
656.93	729.58
657.27	724.41
657.61	719.02
657.95	713.95
658.29	708.77
658.64	703.51
658.98	698.24
659.32	692.80
659.66	687.58
660.00	682.32
660.34	677.32
660.68	672.43
661.02	667.40
661.36	662.74
661.70	658.30
662.05	654.01
662.39	649.70
662.73	645.23
663.07	640.87
663.41	636.43
663.75	631.94
664.09	627.40
664.43	623.01
664.77	618.93
665.11	614.61
665.45	610.54
665.79	606.46
666.13	602.36
666.47	598.29
666.81	594.17
667.15	590.05
667.49	586.22
667.83	582.41
668.17	578.50
668.51	574.41
668.85	570.38
669.19	566.49
669.53	562.70
669.87	558.79
670.21	555.12
670.55	551.41
670.89	548.05
671.23	544.59
671.57	541.05
671.91	537.51
672.25	534.08
672.58	530.56
672.92	527.16
673.26	523.99
673.60	520.80
673.94	517.66
674.28	514.76
674.62	511.80
674.96	508.65
675.30	505.72
675.64	502.81
675.97	500.05
676.31	497.20
676.65	494.26
676.99	491.62
677.33	488.75
677.67	485.96
678.01	482.89
678.34	479.88
678.68	477.03
679.02	474.17
679.36	471.40
679.70	468.71
680.04	466.02
680.37	463.16
680.71	460.35
681.05	457.76
681.39	455.03
681.73	452.37
682.06	449.88
682.40	447.40
682.74	444.80
683.08	442.20
683.42	439.61
683.75	437.07
684.09	434.47
684.43	431.97
684.77	429.54
685.10	427.25
685.44	424.99
685.78	422.70
686.12	420.44
686.45	418.18
686.79	415.85
687.13	413.66
687.46	411.51
687.80	409.42
688.14	407.22
688.48	405.17
688.81	402.94
689.15	400.80
689.49	398.59
689.82	396.54
690.16	394.47
690.50	392.56
690.83	390.64
691.17	388.71
691.51	386.83
691.84	384.97
692.18	383.02
692.52	381.02
692.85	379.09
693.19	377.21
693.52	375.37
693.86	373.58
694.20	371.77
694.53	369.95
694.87	368.07
695.21	366.27
695.54	364.38
695.88	362.64
696.21	360.94
696.55	359.25
696.88	357.55
697.22	355.88
697.56	354.20
697.89	352.54
698.23	350.89
698.56	349.28
698.90	347.70
699.23	346.02
699.57	344.50
699.90	342.93
700.24	341.39
700.58	339.88
700.91	338.39
701.25	336.96
701.58	335.59
701.92	334.25
702.25	332.87
702.59	331.51
702.92	330.20
703.26	328.87
703.59	327.60
703.93	326.43
704.26	325.19
704.60	323.91
704.93	322.65
705.26	321.43
705.60	320.23
705.93	319.04
706.27	318.02
706.60	316.96
706.94	315.92
707.27	314.76
707.61	313.68
707.94	312.66
708.27	311.57
708.61	310.49
708.94	309.47
709.28	308.49
709.61	307.61
709.94	306.67
710.28	305.63
710.61	304.65
710.95	303.58
711.28	302.62
711.61	301.65
711.95	300.74
712.28	299.79
712.61	298.81
712.95	297.90
713.28	297.02
713.61	296.12
713.95	295.21
714.28	294.40
714.61	293.54
714.95	292.68
715.28	291.82
715.61	290.93
715.95	290.08
716.28	289.19
716.61	288.35
716.95	287.52
717.28	286.79
717.61	286.01
717.94	285.27
718.28	284.53
718.61	283.80
718.94	283.09
719.27	282.44
719.61	281.80
719.94	281.15
720.27	280.42
720.60	279.73
720.94	279.10
721.27	278.49
721.60	277.88
721.93	277.24
722.27	276.68
722.60	276.13
722.93	275.54
723.26	275.04
723.59	274.45
723.93	273.89
724.26	273.34
724.59	272.77
724.92	272.26
725.25	271.75
725.59	271.23
725.92	270.70
726.25	270.16
726.58	269.69
726.91	269.16
727.24	268.70
727.57	268.26
727.91	267.79
728.24	267.36
728.57	266.89
728.90	266.45
729.23	265.95
729.56	265.52
729.89	265.08
730.22	264.58
730.55	264.11
730.89	263.67
731.22	263.21
731.55	262.78
731.88	262.35
732.21	261.93
732.54	261.53
732.87	261.15
733.20	260.76
733.53	260.37
733.86	259.98
734.19	259.60
734.52	259.22
734.85	258.88
735.18	258.43
735.51	258.08
735.84	257.70
736.17	257.37
736.50	256.95
736.83	256.76
737.16	256.45
737.49	256.12
737.82	255.77
738.15	255.46
738.48	255.11
738.81	254.76
739.14	254.47
739.47	254.19
739.80	253.85
740.13	253.58
740.46	253.28
740.79	252.97
741.12	252.67
741.45	252.32
741.78	251.97
742.11	251.71
742.44	251.39
742.77	251.12
743.10	250.82
743.43	250.53
743.75	250.09
744.08	249.92
744.41	249.62
744.74	249.36
745.07	249.08
745.40	248.86
745.73	248.65
746.06	248.36
746.39	248.05
746.71	247.81
747.04	247.56
747.37	247.28
747.70	247.05
748.03	246.78
748.36	246.57
748.68	246.35
749.01	246.10
749.34	245.90
749.67	245.67
750.00	245.46
750.33	245.34
750.65	245.16
750.98	244.82
751.31	244.63
751.64	244.45
751.97	244.30
752.29	244.09
752.62	243.83
752.95	243.66
753.28	243.43
753.60	243.22
753.93	243.04
754.26	242.82
754.59	242.61
754.91	242.40
755.24	242.23
755.57	242.04
755.90	241.85
756.22	241.67
756.55	241.48
756.88	241.31
757.20	241.05
757.53	240.85
757.86	240.74
758.19	240.56
758.51	240.36
758.84	240.15
759.17	239.96
759.49	239.80
759.82	239.65
760.15	239.52
760.47	239.36
760.80	239.17
761.13	239.07
761.45	238.89
761.78	238.74
762.11	238.59
762.43	238.45
762.76	238.31
763.08	238.15
763.41	237.99
763.74	237.81
764.06	237.68
764.39	237.53
764.71	237.34
765.04	237.19
765.37	237.04
765.69	236.87
766.02	236.75
766.34	236.62
766.67	236.45
767.00	236.33
767.32	236.27
767.65	236.20
767.97	236.08
768.30	235.94
768.62	235.85
768.95	235.67
769.27	235.53
769.60	235.43
769.92	235.29
770.25	235.17
770.57	235.03
770.90	234.88
771.22	234.76
771.55	234.64
771.87	234.57
772.20	234.45
772.52	234.45
772.85	234.46
773.17	234.39
773.50	234.30
773.82	234.16
774.15	233.98
774.47	233.81
774.80	233.69
775.12	233.62
775.45	233.47
775.77	233.43
776.09	233.37
776.42	233.28
776.74	233.23
777.07	233.16
777.39	233.10
777.72	233.05
778.04	232.98
778.36	232.92
778.69	232.86
779.01	232.81
779.33	232.65
779.66	232.47
779.98	232.39
780.31	232.30
780.63	232.29
780.95	232.29
781.28	232.23
781.60	232.20
781.92	232.18
782.25	232.17
782.57	232.10
782.89	232.05
783.22	232.00
783.54	231.91
783.86	231.88
784.19	231.84
784.51	231.82
784.83	231.77
785.16	231.69
785.48	231.65
785.80	231.62
786.12	231.61
786.45	231.58
786.77	231.56
787.09	231.53
787.42	231.47
787.74	231.42
788.06	231.41
788.38	231.33
788.71	231.24
789.03	231.23
789.35	231.24
789.67	231.20
789.99	231.19
790.32	231.15
790.64	231.12
790.96	231.17
791.28	231.12
791.61	231.10
791.93	231.09
792.25	231.03
792.57	231.05
792.89	231.01
793.21	230.97
793.54	230.89
793.86	230.82
794.18	230.78
794.50	230.73
794.82	230.67
795.14	230.67
795.47	230.67
795.79	230.61
796.11	230.52
796.43	230.47
796.75	230.42
797.07	230.38
797.39	230.33
797.71	230.21
798.04	230.16
798.36	230.12
798.68	230.10
799.00	230.11
799.32	230.02
799.64	229.99
799.96	229.97
800.28	229.96
800.60	229.94
800.92	229.90
801.24	229.88
801.56	229.84
801.89	229.78
802.21	229.77
802.53	229.73
802.85	229.72
803.17	229.72
803.49	229.65
803.81	229.61
804.13	229.57
804.45	229.56
804.77	229.53
805.09	229.50
805.41	229.42
805.73	229.35
806.05	229.29
806.37	229.26
806.69	229.21
807.01	229.20
807.33	229.15
807.65	229.09
807.97	229.10
808.28	229.07
808.60	229.05
808.92	228.99
809.24	229.01
809.56	228.97
809.88	228.93
810.20	228.93
810.52	228.93
810.84	228.90
811.16	228.84
811.48	228.81
811.80	228.82
812.12	228.81
812.43	228.80
812.75	228.79
813.07	228.76
813.39	228.72
813.71	228.66
814.03	228.67
814.35	228.67
814.67	228.57
814.98	228.55
815.30	228.50
815.62	228.48
815.94	228.38
816.26	228.39
816.58	228.36
816.89	228.33
817.21	228.28
817.53	228.27
817.85	228.27
818.17	228.28
818.48	228.23
818.80	228.23
819.12	228.22
819.44	228.18
819.76	228.14
820.07	228.18
820.39	228.16
820.71	228.13
821.03	228.19
821.34	228.21
821.66	228.21
821.98	228.25
822.30	228.24
822.61	228.31
822.93	228.24
823.25	228.21
823.57	228.22
823.88	228.27
824.20	228.26
824.52	228.27
824.83	228.20
825.15	228.20
825.47	228.16
825.79	228.18
826.10	228.16
826.42	228.16
826.74	228.17
827.05	228.13
827.37	228.15
827.69	228.09
828.00	228.09
828.32	228.05
828.64	228.03
828.95	228.07
829.27	228.02
829.58	228.02
829.90	228.04
830.22	228.05
830.53	228.01
830.85	228.02
831.17	227.98
831.48	227.99
831.80	227.98
832.11	227.99
832.43	227.95
832.75	227.95
833.06	228.01
833.38	227.98
833.69	228.00
834.01	227.98
834.32	227.96
834.64	227.93
834.96	227.96
835.27	227.95
835.59	227.90
835.90	227.88
836.22	227.88
836.53	227.86
836.85	227.85
837.16	227.92
837.48	227.87
837.79	227.88
838.11	227.89
838.42	227.87
838.74	227.90
839.05	227.86
839.37	227.84
839.68	227.74
840.00	227.69
840.31	227.67
840.63	227.64
840.94	227.62
841.26	227.59
841.57	227.57
841.88	227.55
842.20	227.51
842.51	227.47
842.83	227.46
843.14	227.51
843.46	227.48
843.77	227.42
844.08	227.44
844.40	227.44
844.71	227.43
845.03	227.40
845.34	227.36
845.65	227.36
845.97	227.37
846.28	227.37
846.60	227.35
846.91	227.34
847.22	227.34
847.54	227.33
847.85	227.32
848.16	227.29
848.48	227.25
848.79	227.27
849.10	227.26
849.42	227.24
849.73	227.15
850.04	227.13
850.36	227.12
850.67	227.10
850.98	227.09
851.30	227.09
851.61	227.12
851.92	227.10
852.23	227.15
852.55	227.12
852.86	227.17
853.17	227.20
853.49	227.25
853.80	227.28
854.11	227.28
854.42	227.31
854.74	227.34
855.05	227.38
855.36	227.35
855.67	227.39
855.99	227.41
856.30	227.54
856.61	227.56
856.92	227.51
857.23	227.53
857.55	227.52
857.86	227.54
858.17	227.53
858.48	227.54
858.79	227.52
859.11	227.56
859.42	227.55
859.73	227.56
860.04	227.57
860.35	227.52
860.66	227.54
860.98	227.55
861.29	227.56
861.60	227.56
861.91	227.59
862.22	227.57
862.53	227.57
862.84	227.46
863.16	227.51
863.47	227.55
863.78	227.56
864.09	227.58
864.40	227.54
864.71	227.55
865.02	227.59
865.33	227.60
865.64	227.58
865.95	227.58
866.27	227.66
866.58	227.60
866.89	227.63
867.20	227.63
867.51	227.63
867.82	227.64
868.13	227.66
868.44	227.66
868.75	227.71
869.06	227.72
869.37	227.76
869.68	227.69
869.99	227.68
870.30	227.65
870.61	227.67
870.92	227.70
871.23	227.68
871.54	227.66
871.85	227.68
872.16	227.70
872.47	227.67
872.78	227.61
873.09	227.68
873.40	227.67
873.71	227.67
874.02	227.65
874.33	227.64
874.64	227.61
874.95	227.60
875.26	227.57
875.56	227.53
875.87	227.49
876.18	227.52
876.49	227.63
876.80	227.62
877.11	227.57
877.42	227.53
877.73	227.52
878.04	227.49
878.35	227.47
878.66	227.43
878.96	227.43
879.27	227.38
879.58	227.31
879.89	227.29
880.20	227.30
880.51	227.30
880.82	227.26
881.12	227.24
881.43	227.21
881.74	227.18
882.05	227.16
882.36	227.17
882.67	227.17
882.97	227.03
883.28	227.04
883.59	227.00
883.90	227.03
884.21	227.02
884.51	227.01
884.82	226.98
885.13	226.96
885.44	226.94
885.74	226.95
886.05	226.96
886.36	226.94
886.67	226.88
886.98	226.90
887.28	226.91
887.59	226.89
887.90	226.87
888.20	226.87
888.51	226.88
888.82	226.84
889.13	226.84
889.43	226.94
889.74	226.90
890.05	226.91
890.35	226.87
890.66	226.86
890.97	226.84
891.28	226.86
891.58	226.86
891.89	226.84
892.20	226.85
892.50	226.79
892.81	226.81
893.12	226.82
893.42	226.78
893.73	226.78
894.04	226.82
894.34	226.88
894.65	226.87
894.95	226.85
895.26	226.84
895.57	226.85
895.87	226.73
896.18	226.74
896.48	226.79
896.79	226.80
897.10	226.80
897.40	226.82
897.71	226.83
898.01	226.85
898.32	226.87
898.63	226.86
898.93	226.93
899.24	226.91
899.54	226.92
899.85	226.94
900.15	226.96
900.46	226.95
900.76	226.94
901.07	226.96
901.38	227.00
901.68	227.03
901.99	226.98
902.29	227.02
902.60	227.06
902.90	227.05
903.21	227.04
903.51	227.10
903.82	227.12
904.12	227.13
904.43	227.16
904.73	227.15
905.03	227.19
905.34	227.32
905.64	227.34
905.95	227.34
906.25	227.37
906.56	227.36
906.86	227.35
907.17	227.37
907.47	227.35
907.77	227.37
908.08	227.37
908.38	227.40
908.69	227.39
908.99	227.41
909.30	227.43
909.60	227.45
909.90	227.43
910.21	227.41
910.51	227.37
910.81	227.38
911.12	227.40
911.42	227.37
911.73	227.26
912.03	227.27
912.33	227.31
912.64	227.26
912.94	227.27
913.24	227.26
913.55	227.20
913.85	227.23
914.15	227.26
914.46	227.27
914.76	227.22
915.06	227.18
915.37	227.12
915.67	227.10
915.97	227.08
916.27	227.02
916.58	227.01
916.88	227.01
917.18	226.97
917.49	227.04
917.79	226.98
918.09	226.94
918.39	226.93
918.70	226.90
919.00	226.89
919.30	226.91
919.60	226.91
919.91	226.90
920.21	226.85
920.51	226.78
920.81	226.75
921.12	226.77
921.42	226.76
921.72	226.77
922.02	226.76
922.32	226.76
922.63	226.75
922.93	226.76
923.23	226.72
923.53	226.71
923.83	226.61
924.13	226.61
924.44	226.61
924.74	226.60
925.04	226.62
925.34	226.60
925.64	226.53
925.94	226.50
926.24	226.53
926.55	226.53
926.85	226.56
927.15	226.54
927.45	226.53
927.75	226.55
928.05	226.57
928.35	226.53
928.65	226.53
928.95	226.57
929.26	226.56
929.56	226.60
929.86	226.61
930.16	226.63
930.46	226.64
930.76	226.65
931.06	226.63
931.36	226.59
931.66	226.61
931.96	226.63
932.26	226.65
932.56	226.64
932.86	226.66
933.16	226.68
933.46	226.69
933.76	226.71
934.06	226.73
934.36	226.75
934.66	226.79
934.96	226.83
935.26	226.83
935.56	226.84
935.86	226.82
936.16	226.81
936.46	226.83
936.76	226.86
937.06	226.85
937.36	226.90
937.66	226.91
937.96	226.94
938.26	226.94
938.56	226.95
938.86	226.98
939.16	227.01
939.46	226.98
939.76	227.02
940.06	227.04
940.35	227.02
940.65	227.02
940.95	227.05
941.25	227.01
941.55	227.01
941.85	227.05
942.15	227.08
942.45	227.14
942.75	227.12
943.04	227.11
943.34	227.15
943.64	227.13
943.94	227.15
944.24	227.15
944.54	227.19
944.84	227.17
945.13	227.17
945.43	227.13
945.73	227.14
946.03	227.10
946.33	227.07
946.62	227.06
946.92	227.05
947.22	227.05
947.52	227.09
947.82	227.11
948.11	227.09
948.41	227.05
948.71	227.02
949.01	227.00
949.31	226.99
949.60	226.96
949.90	226.96
950.20	226.96
950.50	226.94
950.79	226.88
951.09	226.90
951.39	226.88
951.69	226.85
951.98	226.88
952.28	226.88
952.58	226.87
952.87	226.87
953.17	226.85
953.47	226.80
953.76	226.76
954.06	226.72
954.36	226.67
954.66	226.68
954.95	226.68
955.25	226.70
955.55	226.70
955.84	226.69
956.14	226.68
956.44	226.67
956.73	226.65
957.03	226.66
957.32	226.60
957.62	226.55
957.92	226.56
958.21	226.49
958.51	226.57
958.81	226.56
959.10	226.59
959.40	226.61
959.69	226.59
959.99	226.59
960.29	226.55
960.58	226.57
960.88	226.57
961.17	226.53
961.47	226.53
961.76	226.51
962.06	226.55
962.36	226.55
962.65	226.52
962.95	226.50
963.24	226.46
963.54	226.48
963.83	226.51
964.13	226.50
964.42	226.48
964.72	226.42
965.01	226.42
965.31	226.37
965.60	226.34
965.90	226.42
966.19	226.39
966.49	226.42
966.78	226.40
967.08	226.38
967.37	226.41
967.67	226.40
967.96	226.41
968.26	226.36
968.55	226.36
968.85	226.35
969.14	226.35
969.43	226.39
969.73	226.39
970.02	226.43
970.32	226.46
970.61	226.50
970.91	226.51
971.20	226.52
971.49	226.55
971.79	226.58
972.08	226.50
972.38	226.56
972.67	226.56
972.96	226.60
973.26	226.63
973.55	226.65
973.85	226.63
974.14	226.66
974.43	226.69
974.73	226.66
975.02	226.71
975.31	226.76
975.61	226.77
975.90	226.78
976.19	226.81
976.49	226.82
976.78	226.84
977.07	226.83
977.37	226.85
977.66	226.88
977.95	226.89
978.24	226.93
978.54	226.97
978.83	226.97
979.12	226.96
979.42	226.99
979.71	226.99
980.00	227.00
980.29	227.01
980.59	227.05
980.88	227.13
981.17	227.11
981.46	227.10
981.76	227.11
982.05	227.19
982.34	227.17
982.63	227.17
982.93	227.19
983.22	227.20
983.51	227.20
983.80	227.21
984.09	227.19
984.39	227.18
984.68	227.15
984.97	227.16
985.26	227.16
985.55	227.16
985.85	227.13
986.14	227.15
986.43	227.16
986.72	227.11
987.01	227.05
987.30	227.05
987.59	227.07
987.89	227.03
988.18	226.96
988.47	226.90
988.76	226.86
989.05	226.82
989.34	226.78
989.63	226.83
989.92	226.76
990.22	226.76
990.51	226.78
990.80	226.77
991.09	226.79
991.38	226.77
991.67	226.74
991.96	226.74
992.25	226.71
992.54	226.70
992.83	226.68
993.12	226.68
993.41	226.67
993.70	226.63
993.99	226.64
994.28	226.64
994.58	226.67
994.87	226.65
995.16	226.62
995.45	226.61
995.74	226.52
996.03	226.56
996.32	226.51
996.61	226.45
996.90	226.40
997.19	226.35
997.48	226.34
997.77	226.30
998.06	226.28
998.34	226.25
998.63	226.20
998.92	226.19
999.21	226.18
999.50	226.16
999.79	226.14
1000.08	226.17
1000.37	226.16
1000.66	226.13
1000.95	226.17
1001.24	226.18
1001.53	226.19
1001.82	226.21
1002.11	226.17
1002.40	226.19
1002.68	226.21
1002.97	226.30
1003.26	226.31
1003.55	226.27
1003.84	226.33
1004.13	226.36
1004.42	226.39
1004.71	226.42
1004.99	226.42
1005.28	226.47
1005.57	226.48
1005.86	226.48
1006.15	226.46
1006.44	226.44
1006.72	226.46
1007.01	226.46
1007.30	226.44
1007.59	226.42
1007.88	226.45
1008.17	226.47
1008.45	226.46
1008.74	226.46
1009.03	226.42
1009.32	226.47
1009.60	226.50
1009.89	226.47
1010.18	226.44
1010.47	226.46
1010.76	226.47
1011.04	226.47
1011.33	226.49
1011.62	226.49
1011.91	226.51
1012.19	226.56
1012.48	226.59
1012.77	226.63
1013.05	226.67
1013.34	226.72
1013.63	226.75
1013.92	226.78
1014.20	226.76
1014.49	226.76
1014.78	226.75
1015.06	226.73
1015.35	226.71
1015.64	226.74
1015.92	226.79
1016.21	226.83
1016.50	226.81
1016.78	226.84
1017.07	226.88
1017.36	226.84
1017.64	226.85
1017.93	226.87
1018.22	226.85
1018.50	226.85
1018.79	226.83
1019.08	226.81
1019.36	226.80
1019.65	226.75
1019.93	226.75
1020.22	226.80
1020.51	226.89
1020.79	226.90
1021.08	226.90
1021.36	226.58
1021.65	226.79
1021.94	226.73
1022.22	226.91
1022.51	225.93
1022.79	227.04
1023.08	227.08
1023.36	228.14
1023.65	226.53
>>>>>End Processed Spectral Data<<<<<
