SpectraSuite Data File
++++++++++++++++++++++++++++++++++++
Date: Fri Feb 01 16:35:24 EST 2013
User: group
Dark Spectrum Present: No
Reference Spectrum Present: No
Number of Sampled Component Spectra: 1
Spectrometers: USB2E7196
Integration Time (usec): 35000 (USB2E7196)
Spectra Averaged: 100 (USB2E7196)
Boxcar Smoothing: 10 (USB2E7196)
Correct for Electrical Dark: No (USB2E7196)
Strobe/Lamp Enabled: No (USB2E7196)
Correct for Detector Non-linearity: No (USB2E7196)
Correct for Stray Light: No (USB2E7196)
Number of Pixels in Processed Spectrum: 2048
>>>>>Begin Processed Spectral Data<<<<<
339.09	0.00
339.48	213.84
339.86	214.87
340.24	216.70
340.63	217.58
341.01	220.83
341.39	221.42
341.78	222.60
342.16	223.09
342.54	223.98
342.93	212.21
343.31	222.93
343.69	223.47
344.07	223.95
344.46	224.36
344.84	224.75
345.22	224.98
345.60	225.20
345.99	225.35
346.37	225.46
346.75	225.50
347.13	225.57
347.52	225.61
347.90	225.69
348.28	225.70
348.66	225.73
349.05	225.72
349.43	225.74
349.81	225.77
350.19	225.81
350.57	225.86
350.96	225.93
351.34	226.02
351.72	226.09
352.10	226.18
352.48	226.22
352.87	226.28
353.25	226.34
353.63	226.38
354.01	226.43
354.39	226.50
354.77	226.62
355.15	226.71
355.54	226.79
355.92	226.79
356.30	226.87
356.68	227.03
357.06	227.08
357.44	227.15
357.82	227.23
358.20	227.31
358.58	227.37
358.97	227.41
359.35	227.52
359.73	227.59
360.11	227.67
360.49	227.75
360.87	227.82
361.25	227.91
361.63	228.03
362.01	228.11
362.39	228.17
362.77	228.21
363.15	228.24
363.53	228.28
363.91	228.35
364.29	228.35
364.67	228.31
365.05	228.34
365.43	228.40
365.81	228.38
366.19	228.42
366.57	228.47
366.95	228.51
367.33	228.47
367.71	228.48
368.09	228.48
368.47	228.49
368.85	228.49
369.23	228.49
369.61	228.41
369.99	228.42
370.37	228.41
370.75	228.48
371.13	228.42
371.51	228.38
371.89	228.35
372.27	228.32
372.65	228.26
373.03	228.24
373.41	228.17
373.78	228.16
374.16	228.07
374.54	228.01
374.92	227.94
375.30	227.86
375.68	227.78
376.06	227.73
376.44	227.66
376.82	227.58
377.19	227.54
377.57	227.48
377.95	227.35
378.33	227.32
378.71	227.17
379.09	227.14
379.47	227.10
379.84	226.99
380.22	226.97
380.60	226.91
380.98	226.84
381.36	226.77
381.73	226.68
382.11	226.66
382.49	226.60
382.87	226.55
383.25	226.47
383.62	226.54
384.00	226.46
384.38	226.41
384.76	226.40
385.13	226.35
385.51	226.32
385.89	226.29
386.27	226.20
386.64	226.19
387.02	226.12
387.40	226.06
387.78	226.06
388.15	225.97
388.53	225.94
388.91	225.89
389.29	225.87
389.66	225.86
390.04	225.83
390.42	225.78
390.79	225.75
391.17	225.78
391.55	225.66
391.92	225.62
392.30	225.61
392.68	225.57
393.05	225.55
393.43	225.55
393.81	225.52
394.18	225.52
394.56	225.50
394.94	225.54
395.31	225.52
395.69	225.55
396.06	225.60
396.44	225.58
396.82	225.62
397.19	225.67
397.57	225.71
397.95	225.75
398.32	225.75
398.70	225.79
399.07	225.82
399.45	225.85
399.82	225.92
400.20	225.94
400.58	226.00
400.95	226.00
401.33	226.05
401.70	226.19
402.08	226.24
402.45	226.28
402.83	226.34
403.20	226.46
403.58	226.49
403.95	226.60
404.33	226.72
404.71	226.81
405.08	226.96
405.46	227.07
405.83	227.20
406.21	227.37
406.58	227.54
406.96	227.68
407.33	227.83
407.70	228.02
408.08	228.30
408.45	228.50
408.83	228.68
409.20	228.90
409.58	229.10
409.95	229.39
410.33	229.68
410.70	229.93
411.08	230.23
411.45	230.53
411.82	230.85
412.20	231.21
412.57	231.63
412.95	231.94
413.32	232.36
413.69	232.75
414.07	233.18
414.44	233.63
414.82	234.13
415.19	234.70
415.56	235.24
415.94	235.74
416.31	236.39
416.68	237.06
417.06	237.75
417.43	238.42
417.81	239.18
418.18	239.97
418.55	240.81
418.93	241.70
419.30	242.65
419.67	243.60
420.04	244.58
420.42	245.56
420.79	246.74
421.16	247.86
421.54	249.07
421.91	250.31
422.28	251.57
422.66	252.88
423.03	254.17
423.40	255.50
423.77	256.95
424.15	258.38
424.52	259.89
424.89	261.55
425.26	263.12
425.64	264.56
426.01	266.17
426.38	267.83
426.75	269.47
427.13	271.17
427.50	272.93
427.87	274.82
428.24	276.73
428.61	278.45
428.99	280.42
429.36	282.52
429.73	284.56
430.10	286.58
430.47	288.66
430.85	290.74
431.22	293.01
431.59	295.37
431.96	297.61
432.33	300.09
432.70	302.44
433.08	305.24
433.45	307.88
433.82	310.43
434.19	313.30
434.56	316.09
434.93	318.74
435.30	321.36
435.68	324.15
436.05	326.94
436.42	329.72
436.79	332.19
437.16	334.85
437.53	337.66
437.90	340.40
438.27	343.09
438.64	345.97
439.01	348.48
439.38	350.70
439.75	352.81
440.13	355.20
440.50	357.48
440.87	359.29
441.24	361.20
441.61	363.37
441.98	364.88
442.35	366.66
442.72	368.50
443.09	370.25
443.46	371.28
443.83	371.81
444.20	372.32
444.57	373.12
444.94	373.41
445.31	373.76
445.68	374.13
446.05	374.21
446.42	373.78
446.79	373.35
447.16	372.89
447.53	372.57
447.90	371.45
448.27	370.30
448.64	368.73
449.01	367.61
449.37	365.61
449.74	363.68
450.11	361.46
450.48	359.00
450.85	356.54
451.22	354.41
451.59	352.42
451.96	350.48
452.33	347.91
452.70	345.57
453.07	342.75
453.43	339.90
453.80	337.15
454.17	334.49
454.54	332.03
454.91	329.32
455.28	326.67
455.65	324.20
456.02	321.80
456.38	319.64
456.75	316.98
457.12	314.78
457.49	312.59
457.86	310.44
458.23	308.60
458.59	306.56
458.96	304.49
459.33	302.65
459.70	300.79
460.07	299.32
460.43	297.63
460.80	296.03
461.17	294.59
461.54	293.13
461.91	291.73
462.27	290.25
462.64	289.05
463.01	287.75
463.38	286.47
463.74	285.12
464.11	284.01
464.48	282.97
464.85	281.90
465.21	281.05
465.58	280.14
465.95	279.05
466.32	278.15
466.68	277.29
467.05	276.44
467.42	275.60
467.78	274.67
468.15	273.79
468.52	273.11
468.88	272.26
469.25	271.52
469.62	270.91
469.98	270.32
470.35	269.67
470.72	269.08
471.08	268.45
471.45	267.90
471.82	267.37
472.18	266.86
472.55	266.38
472.92	265.88
473.28	265.44
473.65	265.03
474.02	264.58
474.38	264.22
474.75	263.89
475.11	263.54
475.48	263.30
475.85	263.08
476.21	262.86
476.58	262.72
476.94	262.54
477.31	262.35
477.67	262.20
478.04	262.11
478.41	262.02
478.77	262.08
479.14	262.04
479.50	262.05
479.87	262.08
480.23	262.18
480.60	262.20
480.96	262.27
481.33	262.47
481.69	262.67
482.06	262.84
482.42	263.05
482.79	263.30
483.15	263.60
483.52	263.98
483.88	264.31
484.25	264.65
484.61	265.09
484.98	265.53
485.34	266.04
485.71	266.62
486.07	267.25
486.44	267.80
486.80	268.46
487.17	269.17
487.53	269.97
487.90	270.80
488.26	271.76
488.62	272.72
488.99	273.69
489.35	274.75
489.72	275.89
490.08	277.07
490.44	278.26
490.81	279.62
491.17	280.92
491.54	282.42
491.90	283.97
492.26	285.58
492.63	287.34
492.99	289.14
493.36	291.06
493.72	293.07
494.08	295.18
494.45	297.45
494.81	299.84
495.17	302.29
495.54	304.92
495.90	307.61
496.26	310.41
496.63	313.39
496.99	316.49
497.35	319.76
497.72	323.23
498.08	326.81
498.44	330.51
498.80	334.48
499.17	338.56
499.53	342.77
499.89	347.16
500.26	351.67
500.62	356.32
500.98	361.28
501.34	366.40
501.71	371.75
502.07	377.20
502.43	382.81
502.79	388.64
503.16	394.73
503.52	401.05
503.88	407.46
504.24	414.04
504.60	420.98
504.97	428.09
505.33	435.39
505.69	443.06
506.05	450.81
506.41	458.67
506.78	466.83
507.14	475.25
507.50	484.00
507.86	493.01
508.22	502.23
508.59	511.44
508.95	521.01
509.31	530.83
509.67	540.93
510.03	551.19
510.39	561.80
510.75	572.52
511.12	583.43
511.48	594.75
511.84	606.25
512.20	617.80
512.56	629.72
512.92	641.92
513.28	654.28
513.64	666.74
514.00	679.43
514.37	692.35
514.73	705.43
515.09	718.42
515.45	731.68
515.81	745.21
516.17	759.13
516.53	773.18
516.89	787.31
517.25	801.41
517.61	815.79
517.97	830.18
518.33	844.58
518.69	859.28
519.05	874.19
519.41	889.37
519.77	904.73
520.13	920.11
520.49	935.42
520.85	950.70
521.21	966.35
521.57	982.58
521.93	998.28
522.29	1014.59
522.65	1030.82
523.01	1047.02
523.37	1062.98
523.73	1079.13
524.09	1095.23
524.45	1111.48
524.81	1128.17
525.17	1144.90
525.53	1161.62
525.89	1178.34
526.25	1195.05
526.61	1211.43
526.97	1228.07
527.33	1244.53
527.68	1261.11
528.04	1277.51
528.40	1294.03
528.76	1311.13
529.12	1327.54
529.48	1344.39
529.84	1360.27
530.20	1376.73
530.56	1393.45
530.91	1410.93
531.27	1427.64
531.63	1443.95
531.99	1460.43
532.35	1476.25
532.71	1492.11
533.07	1508.30
533.42	1524.30
533.78	1540.28
534.14	1556.32
534.50	1571.58
534.86	1587.25
535.21	1602.31
535.57	1618.02
535.93	1633.24
536.29	1647.68
536.65	1662.62
537.00	1677.18
537.36	1692.30
537.72	1706.67
538.08	1721.04
538.44	1734.46
538.79	1747.98
539.15	1761.41
539.51	1774.77
539.87	1788.90
540.22	1802.19
540.58	1815.66
540.94	1828.52
541.29	1841.23
541.65	1853.78
542.01	1866.70
542.37	1878.83
542.72	1891.05
543.08	1902.75
543.44	1915.26
543.79	1926.41
544.15	1937.19
544.51	1948.55
544.87	1959.38
545.22	1970.27
545.58	1980.46
545.94	1990.13
546.29	2000.11
546.65	2010.04
547.01	2019.46
547.36	2028.10
547.72	2036.79
548.07	2044.84
548.43	2053.23
548.79	2061.09
549.14	2068.88
549.50	2076.18
549.86	2083.81
550.21	2091.09
550.57	2098.25
550.92	2104.70
551.28	2111.83
551.64	2119.08
551.99	2125.70
552.35	2131.96
552.70	2138.13
553.06	2144.13
553.41	2150.57
553.77	2156.42
554.13	2162.35
554.48	2168.25
554.84	2173.90
555.19	2179.04
555.55	2184.06
555.90	2188.53
556.26	2193.69
556.61	2198.25
556.97	2202.80
557.32	2207.00
557.68	2211.17
558.03	2215.40
558.39	2219.10
558.74	2223.64
559.10	2227.32
559.45	2230.96
559.81	2235.19
560.16	2238.85
560.52	2242.06
560.87	2245.47
561.23	2248.27
561.58	2251.34
561.94	2253.99
562.29	2256.17
562.64	2259.17
563.00	2261.74
563.35	2265.23
563.71	2268.31
564.06	2271.39
564.42	2274.01
564.77	2276.63
565.12	2279.06
565.48	2281.14
565.83	2283.07
566.19	2284.51
566.54	2285.57
566.89	2286.93
567.25	2287.71
567.60	2288.95
567.96	2290.69
568.31	2291.59
568.66	2292.72
569.02	2293.17
569.37	2293.65
569.72	2294.59
570.08	2294.62
570.43	2294.89
570.78	2294.29
571.14	2292.69
571.49	2291.43
571.84	2291.14
572.20	2290.07
572.55	2288.95
572.90	2287.20
573.26	2285.86
573.61	2284.06
573.96	2282.53
574.31	2279.52
574.67	2276.50
575.02	2273.09
575.37	2269.68
575.72	2265.95
576.08	2262.65
576.43	2259.41
576.78	2255.99
577.13	2252.67
577.49	2249.56
577.84	2245.98
578.19	2242.21
578.54	2238.64
578.90	2234.57
579.25	2229.23
579.60	2224.38
579.95	2219.42
580.30	2214.58
580.66	2209.57
581.01	2204.72
581.36	2199.69
581.71	2195.53
582.06	2191.21
582.42	2186.84
582.77	2181.75
583.12	2177.35
583.47	2172.70
583.82	2167.89
584.17	2162.60
584.53	2157.31
584.88	2151.71
585.23	2146.11
585.58	2140.80
585.93	2135.51
586.28	2130.56
586.63	2125.53
586.98	2120.52
587.34	2115.79
587.69	2110.90
588.04	2105.76
588.39	2100.20
588.74	2093.84
589.09	2087.63
589.44	2080.92
589.79	2074.72
590.14	2069.02
590.49	2062.52
590.84	2056.19
591.19	2050.15
591.54	2043.71
591.89	2036.52
592.25	2029.90
592.60	2022.84
592.95	2015.49
593.30	2008.12
593.65	2000.65
594.00	1993.59
594.35	1986.47
594.70	1978.50
595.05	1971.49
595.40	1964.16
595.75	1956.79
596.10	1950.67
596.45	1944.21
596.80	1937.99
597.15	1931.68
597.50	1924.91
597.85	1918.33
598.19	1911.84
598.54	1904.95
598.89	1898.39
599.24	1892.52
599.59	1886.07
599.94	1879.70
600.29	1873.26
600.64	1866.71
600.99	1859.53
601.34	1852.76
601.69	1845.58
602.04	1838.94
602.39	1831.63
602.74	1824.88
603.08	1818.19
603.43	1811.34
603.78	1803.85
604.13	1796.73
604.48	1789.47
604.83	1782.56
605.18	1775.85
605.53	1767.86
605.87	1759.74
606.22	1752.30
606.57	1744.16
606.92	1736.56
607.27	1729.49
607.62	1722.67
607.96	1715.47
608.31	1708.88
608.66	1701.38
609.01	1693.96
609.36	1686.26
609.70	1678.29
610.05	1670.29
610.40	1662.63
610.75	1654.36
611.10	1646.81
611.44	1638.30
611.79	1630.17
612.14	1621.45
612.49	1612.12
612.83	1603.68
613.18	1595.61
613.53	1587.67
613.88	1579.43
614.22	1571.29
614.57	1562.63
614.92	1554.56
615.27	1547.17
615.61	1538.86
615.96	1530.76
616.31	1523.11
616.65	1515.82
617.00	1508.17
617.35	1500.33
617.70	1492.09
618.04	1483.74
618.39	1475.41
618.74	1467.91
619.08	1459.62
619.43	1452.03
619.78	1445.16
620.12	1438.03
620.47	1430.52
620.82	1422.29
621.16	1414.82
621.51	1407.15
621.85	1399.47
622.20	1391.09
622.55	1382.62
622.89	1374.72
623.24	1367.14
623.59	1359.74
623.93	1352.21
624.28	1345.14
624.62	1337.76
624.97	1330.51
625.32	1323.66
625.66	1316.70
626.01	1309.51
626.35	1302.23
626.70	1294.54
627.04	1286.89
627.39	1279.10
627.73	1271.65
628.08	1264.79
628.43	1257.62
628.77	1250.33
629.12	1242.91
629.46	1235.71
629.81	1228.31
630.15	1220.99
630.50	1213.65
630.84	1205.49
631.19	1197.51
631.53	1189.91
631.88	1182.22
632.22	1174.61
632.57	1167.20
632.91	1159.67
633.26	1152.37
633.60	1144.89
633.95	1137.68
634.29	1130.60
634.64	1123.85
634.98	1116.57
635.32	1109.50
635.67	1102.72
636.01	1095.96
636.36	1089.22
636.70	1082.66
637.05	1076.02
637.39	1069.65
637.73	1063.13
638.08	1057.27
638.42	1051.32
638.77	1044.83
639.11	1038.47
639.45	1032.10
639.80	1025.56
640.14	1019.25
640.49	1012.72
640.83	1006.38
641.17	1000.26
641.52	993.92
641.86	987.47
642.20	981.53
642.55	975.07
642.89	968.64
643.23	962.12
643.58	956.35
643.92	950.12
644.26	944.12
644.61	938.04
644.95	932.04
645.29	925.47
645.64	918.72
645.98	912.45
646.32	906.35
646.66	900.34
647.01	894.44
647.35	888.73
647.69	882.81
648.04	877.29
648.38	871.46
648.72	865.51
649.06	859.50
649.41	853.62
649.75	847.77
650.09	841.86
650.43	836.14
650.78	829.95
651.12	824.06
651.46	818.32
651.80	812.65
652.14	807.15
652.49	801.83
652.83	796.71
653.17	791.14
653.51	785.55
653.85	780.06
654.20	774.51
654.54	768.43
654.88	762.69
655.22	756.82
655.56	751.11
655.90	745.65
656.25	740.50
656.59	735.16
656.93	730.05
657.27	724.91
657.61	719.43
657.95	714.30
658.29	709.14
658.64	703.83
658.98	698.41
659.32	693.00
659.66	687.80
660.00	682.52
660.34	677.48
660.68	672.54
661.02	667.58
661.36	662.87
661.70	658.36
662.05	654.03
662.39	649.73
662.73	645.22
663.07	640.83
663.41	636.30
663.75	631.85
664.09	627.34
664.43	622.91
664.77	618.84
665.11	614.62
665.45	610.48
665.79	606.46
666.13	602.42
666.47	598.32
666.81	594.15
667.15	589.95
667.49	586.02
667.83	582.14
668.17	578.13
668.51	574.05
668.85	570.02
669.19	566.18
669.53	562.35
669.87	558.47
670.21	554.77
670.55	551.15
670.89	547.69
671.23	544.20
671.57	540.68
671.91	537.19
672.25	533.69
672.58	530.21
672.92	526.78
673.26	523.57
673.60	520.36
673.94	517.26
674.28	514.38
674.62	511.43
674.96	508.39
675.30	505.55
675.64	502.65
675.97	499.86
676.31	496.96
676.65	494.05
676.99	491.44
677.33	488.56
677.67	485.73
678.01	482.75
678.34	479.78
678.68	476.86
679.02	474.04
679.36	471.25
679.70	468.55
680.04	465.81
680.37	462.99
680.71	460.20
681.05	457.54
681.39	454.82
681.73	452.14
682.06	449.66
682.40	447.07
682.74	444.55
683.08	442.03
683.42	439.43
683.75	436.90
684.09	434.24
684.43	431.75
684.77	429.27
685.10	426.86
685.44	424.60
685.78	422.30
686.12	419.95
686.45	417.66
686.79	415.37
687.13	413.15
687.46	411.00
687.80	408.86
688.14	406.61
688.48	404.58
688.81	402.37
689.15	400.14
689.49	398.02
689.82	395.92
690.16	393.81
690.50	391.91
690.83	390.02
691.17	388.01
691.51	386.08
691.84	384.25
692.18	382.32
692.52	380.32
692.85	378.40
693.19	376.59
693.52	374.74
693.86	372.86
694.20	371.07
694.53	369.24
694.87	367.42
695.21	365.63
695.54	363.76
695.88	362.03
696.21	360.33
696.55	358.62
696.88	356.95
697.22	355.26
697.56	353.56
697.89	351.88
698.23	350.32
698.56	348.78
698.90	347.20
699.23	345.59
699.57	344.06
699.90	342.49
700.24	340.93
700.58	339.40
700.91	337.95
701.25	336.52
701.58	335.15
701.92	333.76
702.25	332.44
702.59	331.04
702.92	329.70
703.26	328.40
703.59	327.13
703.93	325.93
704.26	324.70
704.60	323.45
704.93	322.16
705.26	320.93
705.60	319.69
705.93	318.50
706.27	317.44
706.60	316.36
706.94	315.27
707.27	314.12
707.61	313.03
707.94	312.00
708.27	310.88
708.61	309.79
708.94	308.75
709.28	307.72
709.61	306.79
709.94	305.84
710.28	304.80
710.61	303.80
710.95	302.71
711.28	301.79
711.61	300.86
711.95	299.97
712.28	299.03
712.61	298.09
712.95	297.17
713.28	296.30
713.61	295.35
713.95	294.47
714.28	293.64
714.61	292.78
714.95	291.89
715.28	291.03
715.61	290.19
715.95	289.32
716.28	288.47
716.61	287.58
716.95	286.76
717.28	286.03
717.61	285.27
717.94	284.52
718.28	283.74
718.61	282.97
718.94	282.25
719.27	281.60
719.61	280.93
719.94	280.29
720.27	279.58
720.60	278.93
720.94	278.33
721.27	277.74
721.60	277.18
721.93	276.63
722.27	276.11
722.60	275.54
722.93	274.98
723.26	274.46
723.59	273.91
723.93	273.34
724.26	272.75
724.59	272.15
724.92	271.63
725.25	271.14
725.59	270.67
725.92	270.16
726.25	269.64
726.58	269.14
726.91	268.64
727.24	268.16
727.57	267.72
727.91	267.20
728.24	266.71
728.57	266.21
728.90	265.77
729.23	265.26
729.56	264.79
729.89	264.32
730.22	263.84
730.55	263.40
730.89	262.97
731.22	262.56
731.55	262.17
731.88	261.76
732.21	261.30
732.54	260.84
732.87	260.40
733.20	259.99
733.53	259.63
733.86	259.24
734.19	258.84
734.52	258.47
734.85	258.15
735.18	257.76
735.51	257.38
735.84	257.02
736.17	256.68
736.50	256.35
736.83	256.17
737.16	255.85
737.49	255.49
737.82	255.14
738.15	254.82
738.48	254.46
738.81	254.16
739.14	253.85
739.47	253.56
739.80	253.24
740.13	252.91
740.46	252.58
740.79	252.22
741.12	251.90
741.45	251.56
741.78	251.23
742.11	250.94
742.44	250.64
742.77	250.34
743.10	250.02
743.43	249.73
743.75	249.33
744.08	249.17
744.41	248.93
744.74	248.69
745.07	248.42
745.40	248.18
745.73	247.93
746.06	247.66
746.39	247.37
746.71	247.11
747.04	246.83
747.37	246.59
747.70	246.35
748.03	246.11
748.36	245.91
748.68	245.66
749.01	245.41
749.34	245.16
749.67	244.89
750.00	244.68
750.33	244.48
750.65	244.23
750.98	243.86
751.31	243.63
751.64	243.41
751.97	243.22
752.29	242.96
752.62	242.69
752.95	242.50
753.28	242.29
753.60	242.04
753.93	241.88
754.26	241.61
754.59	241.40
754.91	241.20
755.24	241.00
755.57	240.81
755.90	240.62
756.22	240.40
756.55	240.20
756.88	240.03
757.20	239.78
757.53	239.60
757.86	239.43
758.19	239.26
758.51	239.04
758.84	238.83
759.17	238.68
759.49	238.48
759.82	238.36
760.15	238.20
760.47	238.10
760.80	237.89
761.13	237.81
761.45	237.66
761.78	237.51
762.11	237.37
762.43	237.21
762.76	237.04
763.08	236.92
763.41	236.82
763.74	236.66
764.06	236.53
764.39	236.35
764.71	236.18
765.04	236.04
765.37	235.93
765.69	235.77
766.02	235.66
766.34	235.60
766.67	235.41
767.00	235.30
767.32	235.20
767.65	235.15
767.97	235.03
768.30	234.93
768.62	234.85
768.95	234.73
769.27	234.62
769.60	234.55
769.92	234.45
770.25	234.30
770.57	234.16
770.90	234.05
771.22	233.97
771.55	233.92
771.87	233.82
772.20	233.74
772.52	233.76
772.85	233.79
773.17	233.68
773.50	233.60
773.82	233.51
774.15	233.39
774.47	233.28
774.80	233.17
775.12	233.11
775.45	233.01
775.77	232.92
776.09	232.87
776.42	232.76
776.74	232.70
777.07	232.65
777.39	232.60
777.72	232.53
778.04	232.49
778.36	232.42
778.69	232.37
779.01	232.32
779.33	232.14
779.66	231.98
779.98	231.91
780.31	231.85
780.63	231.81
780.95	231.74
781.28	231.68
781.60	231.63
781.92	231.57
782.25	231.49
782.57	231.40
782.89	231.32
783.22	231.29
783.54	231.21
783.86	231.16
784.19	231.11
784.51	231.10
784.83	231.06
785.16	231.01
785.48	230.97
785.80	230.92
786.12	230.88
786.45	230.82
786.77	230.77
787.09	230.74
787.42	230.66
787.74	230.68
788.06	230.63
788.38	230.59
788.71	230.49
789.03	230.44
789.35	230.44
789.67	230.41
789.99	230.38
790.32	230.35
790.64	230.34
790.96	230.36
791.28	230.27
791.61	230.23
791.93	230.17
792.25	230.10
792.57	230.13
792.89	230.10
793.21	230.07
793.54	230.04
793.86	229.97
794.18	229.96
794.50	229.84
794.82	229.83
795.14	229.80
795.47	229.81
795.79	229.82
796.11	229.74
796.43	229.68
796.75	229.62
797.07	229.58
797.39	229.52
797.71	229.43
798.04	229.41
798.36	229.39
798.68	229.34
799.00	229.33
799.32	229.24
799.64	229.23
799.96	229.19
800.28	229.17
800.60	229.16
800.92	229.12
801.24	229.12
801.56	229.08
801.89	229.02
802.21	229.04
802.53	228.98
802.85	229.00
803.17	229.02
803.49	228.98
803.81	228.94
804.13	228.90
804.45	228.85
804.77	228.82
805.09	228.76
805.41	228.72
805.73	228.66
806.05	228.59
806.37	228.53
806.69	228.49
807.01	228.41
807.33	228.38
807.65	228.31
807.97	228.32
808.28	228.23
808.60	228.23
808.92	228.12
809.24	228.14
809.56	228.06
809.88	228.01
810.20	227.96
810.52	227.96
810.84	227.92
811.16	227.90
811.48	227.84
811.80	227.85
812.12	227.86
812.43	227.86
812.75	227.87
813.07	227.81
813.39	227.80
813.71	227.77
814.03	227.77
814.35	227.76
814.67	227.69
814.98	227.70
815.30	227.66
815.62	227.63
815.94	227.52
816.26	227.56
816.58	227.54
816.89	227.52
817.21	227.46
817.53	227.45
817.85	227.42
818.17	227.41
818.48	227.35
818.80	227.34
819.12	227.30
819.44	227.26
819.76	227.23
820.07	227.21
820.39	227.20
820.71	227.17
821.03	227.14
821.34	227.10
821.66	227.12
821.98	227.12
822.30	227.13
822.61	227.18
822.93	227.14
823.25	227.09
823.57	227.08
823.88	227.13
824.20	227.13
824.52	227.18
824.83	227.16
825.15	227.15
825.47	227.13
825.79	227.15
826.10	227.13
826.42	227.15
826.74	227.16
827.05	227.17
827.37	227.17
827.69	227.16
828.00	227.17
828.32	227.13
828.64	227.09
828.95	227.13
829.27	227.10
829.58	227.07
829.90	227.07
830.22	227.08
830.53	227.02
830.85	227.01
831.17	226.97
831.48	226.98
831.80	226.99
832.11	226.99
832.43	226.97
832.75	226.95
833.06	227.00
833.38	226.97
833.69	226.97
834.01	226.95
834.32	226.94
834.64	226.94
834.96	226.94
835.27	226.94
835.59	226.88
835.90	226.86
836.22	226.87
836.53	226.89
836.85	226.89
837.16	226.98
837.48	226.97
837.79	226.97
838.11	226.96
838.42	226.93
838.74	226.95
839.05	226.94
839.37	226.94
839.68	226.90
840.00	226.87
840.31	226.86
840.63	226.83
840.94	226.82
841.26	226.79
841.57	226.77
841.88	226.78
842.20	226.78
842.51	226.75
842.83	226.74
843.14	226.77
843.46	226.74
843.77	226.70
844.08	226.65
844.40	226.63
844.71	226.58
845.03	226.56
845.34	226.52
845.65	226.50
845.97	226.49
846.28	226.46
846.60	226.48
846.91	226.43
847.22	226.42
847.54	226.40
847.85	226.39
848.16	226.40
848.48	226.40
848.79	226.42
849.10	226.45
849.42	226.43
849.73	226.35
850.04	226.34
850.36	226.25
850.67	226.28
850.98	226.26
851.30	226.27
851.61	226.27
851.92	226.28
852.23	226.27
852.55	226.25
852.86	226.23
853.17	226.20
853.49	226.24
853.80	226.23
854.11	226.26
854.42	226.28
854.74	226.25
855.05	226.25
855.36	226.21
855.67	226.22
855.99	226.24
856.30	226.37
856.61	226.36
856.92	226.40
857.23	226.40
857.55	226.36
857.86	226.36
858.17	226.37
858.48	226.29
858.79	226.30
859.11	226.31
859.42	226.31
859.73	226.31
860.04	226.26
860.35	226.24
860.66	226.22
860.98	226.18
861.29	226.18
861.60	226.14
861.91	226.16
862.22	226.10
862.53	226.03
862.84	225.89
863.16	225.96
863.47	225.92
863.78	225.91
864.09	225.94
864.40	225.92
864.71	225.90
865.02	225.93
865.33	225.91
865.64	225.91
865.95	225.92
866.27	225.97
866.58	226.00
866.89	226.03
867.20	226.02
867.51	226.03
867.82	226.03
868.13	226.06
868.44	226.03
868.75	226.06
869.06	226.11
869.37	226.13
869.68	226.05
869.99	226.09
870.30	226.10
870.61	226.12
870.92	226.09
871.23	226.10
871.54	226.15
871.85	226.16
872.16	226.19
872.47	226.18
872.78	226.13
873.09	226.14
873.40	226.14
873.71	226.16
874.02	226.17
874.33	226.15
874.64	226.13
874.95	226.13
875.26	226.10
875.56	226.10
875.87	226.11
876.18	226.10
876.49	226.17
876.80	226.15
877.11	226.15
877.42	226.16
877.73	226.20
878.04	226.17
878.35	226.15
878.66	226.12
878.96	226.11
879.27	226.11
879.58	226.11
879.89	226.10
880.20	226.13
880.51	226.10
880.82	226.11
881.12	226.15
881.43	226.13
881.74	226.12
882.05	226.12
882.36	226.12
882.67	226.14
882.97	226.06
883.28	226.09
883.59	226.06
883.90	226.10
884.21	226.11
884.51	226.12
884.82	226.15
885.13	226.19
885.44	226.21
885.74	226.23
886.05	226.21
886.36	226.22
886.67	226.20
886.98	226.29
887.28	226.30
887.59	226.28
887.90	226.34
888.20	226.37
888.51	226.34
888.82	226.36
889.13	226.35
889.43	226.41
889.74	226.38
890.05	226.38
890.35	226.37
890.66	226.31
890.97	226.31
891.28	226.28
891.58	226.28
891.89	226.29
892.20	226.29
892.50	226.28
892.81	226.25
893.12	226.24
893.42	226.18
893.73	226.16
894.04	226.14
894.34	226.13
894.65	226.15
894.95	226.18
895.26	226.15
895.57	226.20
895.87	226.09
896.18	226.09
896.48	226.10
896.79	226.10
897.10	226.13
897.40	226.12
897.71	226.12
898.01	226.11
898.32	226.10
898.63	226.06
898.93	226.06
899.24	226.07
899.54	226.04
899.85	226.06
900.15	226.07
900.46	226.10
900.76	226.12
901.07	226.09
901.38	226.06
901.68	226.07
901.99	226.02
902.29	226.06
902.60	226.07
902.90	226.05
903.21	226.04
903.51	226.04
903.82	226.03
904.12	226.03
904.43	226.02
904.73	226.01
905.03	226.03
905.34	226.13
905.64	226.11
905.95	226.14
906.25	226.12
906.56	226.12
906.86	226.12
907.17	226.08
907.47	226.07
907.77	226.08
908.08	226.08
908.38	226.09
908.69	226.09
908.99	226.08
909.30	226.11
909.60	226.11
909.90	226.12
910.21	226.11
910.51	226.09
910.81	226.08
911.12	226.08
911.42	226.09
911.73	225.97
912.03	226.00
912.33	226.01
912.64	225.99
912.94	225.95
913.24	225.90
913.55	225.93
913.85	225.92
914.15	225.91
914.46	225.93
914.76	225.92
915.06	225.90
915.37	225.91
915.67	225.88
915.97	225.90
916.27	225.85
916.58	225.86
916.88	225.85
917.18	225.86
917.49	225.94
917.79	225.92
918.09	225.92
918.39	225.95
918.70	225.93
919.00	225.93
919.30	225.97
919.60	225.99
919.91	225.97
920.21	225.96
920.51	225.96
920.81	225.94
921.12	225.97
921.42	225.94
921.72	225.95
922.02	225.95
922.32	225.99
922.63	226.01
922.93	226.07
923.23	226.11
923.53	226.08
923.83	226.02
924.13	226.05
924.44	226.07
924.74	226.10
925.04	226.12
925.34	226.12
925.64	226.10
925.94	226.13
926.24	226.20
926.55	226.19
926.85	226.19
927.15	226.20
927.45	226.21
927.75	226.24
928.05	226.25
928.35	226.26
928.65	226.24
928.95	226.27
929.26	226.23
929.56	226.25
929.86	226.31
930.16	226.32
930.46	226.33
930.76	226.34
931.06	226.26
931.36	226.25
931.66	226.27
931.96	226.28
932.26	226.26
932.56	226.20
932.86	226.24
933.16	226.25
933.46	226.22
933.76	226.18
934.06	226.19
934.36	226.21
934.66	226.19
934.96	226.15
935.26	226.12
935.56	226.10
935.86	226.05
936.16	226.02
936.46	225.99
936.76	225.95
937.06	225.93
937.36	225.99
937.66	226.01
937.96	226.00
938.26	225.99
938.56	225.97
938.86	225.99
939.16	226.00
939.46	226.00
939.76	226.02
940.06	225.99
940.35	225.93
940.65	225.88
940.95	225.90
941.25	225.91
941.55	225.90
941.85	225.91
942.15	225.94
942.45	225.93
942.75	225.89
943.04	225.87
943.34	225.90
943.64	225.83
943.94	225.83
944.24	225.82
944.54	225.83
944.84	225.85
945.13	225.82
945.43	225.79
945.73	225.77
946.03	225.77
946.33	225.78
946.62	225.84
946.92	225.84
947.22	225.81
947.52	225.78
947.82	225.81
948.11	225.80
948.41	225.80
948.71	225.78
949.01	225.82
949.31	225.78
949.60	225.76
949.90	225.78
950.20	225.77
950.50	225.77
950.79	225.78
951.09	225.78
951.39	225.78
951.69	225.76
951.98	225.80
952.28	225.81
952.58	225.82
952.87	225.77
953.17	225.80
953.47	225.83
953.76	225.88
954.06	225.83
954.36	225.82
954.66	225.80
954.95	225.84
955.25	225.87
955.55	225.92
955.84	225.89
956.14	225.87
956.44	225.86
956.73	225.84
957.03	225.80
957.32	225.79
957.62	225.78
957.92	225.78
958.21	225.77
958.51	225.88
958.81	225.87
959.10	225.92
959.40	225.95
959.69	225.93
959.99	225.92
960.29	225.95
960.58	225.92
960.88	225.96
961.17	225.93
961.47	225.91
961.76	225.88
962.06	225.94
962.36	225.94
962.65	225.94
962.95	225.96
963.24	225.98
963.54	225.99
963.83	226.02
964.13	226.05
964.42	226.04
964.72	225.96
965.01	225.97
965.31	225.93
965.60	225.90
965.90	225.98
966.19	225.96
966.49	225.96
966.78	225.96
967.08	225.96
967.37	225.94
967.67	225.93
967.96	225.95
968.26	225.93
968.55	225.96
968.85	225.94
969.14	225.95
969.43	225.93
969.73	225.91
970.02	225.89
970.32	225.87
970.61	225.87
970.91	225.84
971.20	225.84
971.49	225.83
971.79	225.84
972.08	225.76
972.38	225.73
972.67	225.70
972.96	225.75
973.26	225.71
973.55	225.77
973.85	225.76
974.14	225.75
974.43	225.76
974.73	225.74
975.02	225.76
975.31	225.73
975.61	225.72
975.90	225.72
976.19	225.69
976.49	225.70
976.78	225.69
977.07	225.68
977.37	225.62
977.66	225.64
977.95	225.63
978.24	225.63
978.54	225.67
978.83	225.68
979.12	225.66
979.42	225.64
979.71	225.64
980.00	225.64
980.29	225.66
980.59	225.61
980.88	225.60
981.17	225.56
981.46	225.58
981.76	225.57
982.05	225.59
982.34	225.59
982.63	225.56
982.93	225.58
983.22	225.64
983.51	225.68
983.80	225.69
984.09	225.70
984.39	225.71
984.68	225.69
984.97	225.70
985.26	225.69
985.55	225.71
985.85	225.67
986.14	225.70
986.43	225.66
986.72	225.69
987.01	225.66
987.30	225.66
987.59	225.66
987.89	225.67
988.18	225.64
988.47	225.63
988.76	225.63
989.05	225.58
989.34	225.51
989.63	225.53
989.92	225.53
990.22	225.51
990.51	225.49
990.80	225.48
991.09	225.49
991.38	225.51
991.67	225.49
991.96	225.49
992.25	225.50
992.54	225.51
992.83	225.52
993.12	225.53
993.41	225.57
993.70	225.59
993.99	225.62
994.28	225.66
994.58	225.71
994.87	225.70
995.16	225.74
995.45	225.73
995.74	225.68
996.03	225.70
996.32	225.75
996.61	225.79
996.90	225.80
997.19	225.76
997.48	225.74
997.77	225.73
998.06	225.75
998.34	225.74
998.63	225.72
998.92	225.72
999.21	225.73
999.50	225.75
999.79	225.72
1000.08	225.73
1000.37	225.72
1000.66	225.70
1000.95	225.72
1001.24	225.72
1001.53	225.77
1001.82	225.77
1002.11	225.74
1002.40	225.72
1002.68	225.72
1002.97	225.79
1003.26	225.81
1003.55	225.82
1003.84	225.87
1004.13	225.92
1004.42	225.89
1004.71	225.90
1004.99	225.90
1005.28	225.96
1005.57	225.97
1005.86	225.95
1006.15	225.93
1006.44	225.91
1006.72	225.89
1007.01	225.90
1007.30	225.89
1007.59	225.85
1007.88	225.88
1008.17	225.87
1008.45	225.83
1008.74	225.76
1009.03	225.70
1009.32	225.69
1009.60	225.68
1009.89	225.64
1010.18	225.55
1010.47	225.55
1010.76	225.55
1011.04	225.53
1011.33	225.49
1011.62	225.44
1011.91	225.46
1012.19	225.46
1012.48	225.48
1012.77	225.47
1013.05	225.50
1013.34	225.48
1013.63	225.47
1013.92	225.47
1014.20	225.46
1014.49	225.48
1014.78	225.49
1015.06	225.46
1015.35	225.47
1015.64	225.48
1015.92	225.51
1016.21	225.53
1016.50	225.51
1016.78	225.51
1017.07	225.53
1017.36	225.52
1017.64	225.51
1017.93	225.49
1018.22	225.46
1018.50	225.43
1018.79	225.43
1019.08	225.36
1019.36	225.36
1019.65	225.36
1019.93	225.35
1020.22	225.36
1020.51	225.41
1020.79	225.40
1021.08	225.22
1021.36	225.14
1021.65	225.24
1021.94	224.92
1022.22	225.32
1022.51	225.29
1022.79	225.48
1023.08	225.47
1023.36	226.65
1023.65	224.74
>>>>>End Processed Spectral Data<<<<<
