SpectraSuite Data File
++++++++++++++++++++++++++++++++++++
Date: Fri Feb 01 16:27:44 EST 2013
User: group
Dark Spectrum Present: No
Reference Spectrum Present: No
Number of Sampled Component Spectra: 1
Spectrometers: USB2E7196
Integration Time (usec): 35000 (USB2E7196)
Spectra Averaged: 100 (USB2E7196)
Boxcar Smoothing: 10 (USB2E7196)
Correct for Electrical Dark: No (USB2E7196)
Strobe/Lamp Enabled: No (USB2E7196)
Correct for Detector Non-linearity: No (USB2E7196)
Correct for Stray Light: No (USB2E7196)
Number of Pixels in Processed Spectrum: 2048
>>>>>Begin Processed Spectral Data<<<<<
339.09	0.00
339.48	213.97
339.86	215.60
340.24	216.78
340.63	218.41
341.01	220.97
341.39	221.12
341.78	222.32
342.16	223.83
342.54	223.82
342.93	212.45
343.31	223.18
343.69	223.73
344.07	224.19
344.46	224.62
344.84	225.01
345.22	225.26
345.60	225.47
345.99	225.67
346.37	225.79
346.75	225.90
347.13	225.97
347.52	226.04
347.90	226.09
348.28	226.13
348.66	226.18
349.05	226.16
349.43	226.24
349.81	226.30
350.19	226.33
350.57	226.42
350.96	226.47
351.34	226.57
351.72	226.64
352.10	226.74
352.48	226.81
352.87	226.83
353.25	226.89
353.63	226.98
354.01	227.02
354.39	227.09
354.77	227.16
355.15	227.25
355.54	227.35
355.92	227.39
356.30	227.48
356.68	227.60
357.06	227.65
357.44	227.66
357.82	227.69
358.20	227.75
358.58	227.77
358.97	227.84
359.35	227.91
359.73	227.95
360.11	227.99
360.49	228.07
360.87	228.13
361.25	228.18
361.63	228.23
362.01	228.26
362.39	228.27
362.77	228.28
363.15	228.26
363.53	228.23
363.91	228.25
364.29	228.26
364.67	228.19
365.05	228.22
365.43	228.26
365.81	228.28
366.19	228.31
366.57	228.37
366.95	228.35
367.33	228.29
367.71	228.32
368.09	228.33
368.47	228.28
368.85	228.24
369.23	228.23
369.61	228.18
369.99	228.20
370.37	228.20
370.75	228.24
371.13	228.22
371.51	228.18
371.89	228.17
372.27	228.15
372.65	228.10
373.03	228.02
373.41	227.96
373.78	227.93
374.16	227.84
374.54	227.74
374.92	227.66
375.30	227.58
375.68	227.50
376.06	227.45
376.44	227.37
376.82	227.32
377.19	227.27
377.57	227.20
377.95	227.12
378.33	227.06
378.71	226.92
379.09	226.87
379.47	226.83
379.84	226.74
380.22	226.64
380.60	226.54
380.98	226.50
381.36	226.45
381.73	226.38
382.11	226.34
382.49	226.31
382.87	226.28
383.25	226.24
383.62	226.28
384.00	226.20
384.38	226.16
384.76	226.16
385.13	226.13
385.51	226.11
385.89	226.02
386.27	225.95
386.64	225.94
387.02	225.91
387.40	225.87
387.78	225.83
388.15	225.81
388.53	225.81
388.91	225.77
389.29	225.74
389.66	225.70
390.04	225.67
390.42	225.66
390.79	225.66
391.17	225.65
391.55	225.54
391.92	225.49
392.30	225.48
392.68	225.42
393.05	225.40
393.43	225.41
393.81	225.44
394.18	225.45
394.56	225.46
394.94	225.49
395.31	225.49
395.69	225.51
396.06	225.54
396.44	225.57
396.82	225.60
397.19	225.67
397.57	225.72
397.95	225.77
398.32	225.79
398.70	225.83
399.07	225.89
399.45	225.96
399.82	226.04
400.20	226.11
400.58	226.19
400.95	226.23
401.33	226.29
401.70	226.44
402.08	226.53
402.45	226.62
402.83	226.75
403.20	226.85
403.58	226.98
403.95	227.10
404.33	227.25
404.71	227.35
405.08	227.54
405.46	227.67
405.83	227.80
406.21	227.92
406.58	228.10
406.96	228.25
407.33	228.45
407.70	228.65
408.08	228.89
408.45	229.12
408.83	229.37
409.20	229.60
409.58	229.76
409.95	230.04
410.33	230.31
410.70	230.53
411.08	230.84
411.45	231.13
411.82	231.41
412.20	231.76
412.57	232.18
412.95	232.48
413.32	232.90
413.69	233.34
414.07	233.74
414.44	234.19
414.82	234.70
415.19	235.22
415.56	235.77
415.94	236.33
416.31	236.96
416.68	237.60
417.06	238.32
417.43	238.98
417.81	239.71
418.18	240.50
418.55	241.35
418.93	242.20
419.30	243.09
419.67	244.04
420.04	244.95
420.42	245.93
420.79	247.09
421.16	248.19
421.54	249.36
421.91	250.58
422.28	251.82
422.66	253.15
423.03	254.47
423.40	255.79
423.77	257.17
424.15	258.58
424.52	260.06
424.89	261.66
425.26	263.23
425.64	264.67
426.01	266.28
426.38	267.93
426.75	269.59
427.13	271.30
427.50	273.07
427.87	274.96
428.24	276.83
428.61	278.53
428.99	280.50
429.36	282.56
429.73	284.64
430.10	286.68
430.47	288.70
430.85	290.79
431.22	293.05
431.59	295.45
431.96	297.70
432.33	300.16
432.70	302.53
433.08	305.32
433.45	307.98
433.82	310.54
434.19	313.41
434.56	316.24
434.93	318.88
435.30	321.53
435.68	324.37
436.05	327.19
436.42	330.02
436.79	332.54
437.16	335.27
437.53	338.11
437.90	340.86
438.27	343.62
438.64	346.46
439.01	348.97
439.38	351.16
439.75	353.29
440.13	355.81
440.50	358.12
440.87	359.93
441.24	361.86
441.61	364.00
441.98	365.47
442.35	367.22
442.72	369.06
443.09	370.85
443.46	371.88
443.83	372.48
444.20	372.95
444.57	373.75
444.94	374.04
445.31	374.34
445.68	374.74
446.05	374.82
446.42	374.40
446.79	374.02
447.16	373.60
447.53	373.28
447.90	372.09
448.27	370.96
448.64	369.38
449.01	368.26
449.37	366.35
449.74	364.46
450.11	362.26
450.48	359.79
450.85	357.29
451.22	355.16
451.59	353.11
451.96	351.18
452.33	348.58
452.70	346.24
453.07	343.42
453.43	340.49
453.80	337.74
454.17	335.12
454.54	332.59
454.91	329.91
455.28	327.28
455.65	324.83
456.02	322.37
456.38	320.30
456.75	317.64
457.12	315.36
457.49	313.13
457.86	310.94
458.23	309.11
458.59	307.08
458.96	304.98
459.33	303.18
459.70	301.34
460.07	299.87
460.43	298.17
460.80	296.60
461.17	295.16
461.54	293.68
461.91	292.24
462.27	290.84
462.64	289.57
463.01	288.21
463.38	286.91
463.74	285.55
464.11	284.39
464.48	283.37
464.85	282.24
465.21	281.44
465.58	280.54
465.95	279.45
466.32	278.55
466.68	277.70
467.05	276.79
467.42	275.94
467.78	275.03
468.15	274.15
468.52	273.46
468.88	272.62
469.25	271.83
469.62	271.23
469.98	270.52
470.35	269.89
470.72	269.30
471.08	268.64
471.45	268.12
471.82	267.58
472.18	266.96
472.55	266.58
472.92	266.06
473.28	265.57
473.65	265.16
474.02	264.69
474.38	264.30
474.75	263.99
475.11	263.64
475.48	263.31
475.85	263.09
476.21	262.86
476.58	262.74
476.94	262.59
477.31	262.43
477.67	262.28
478.04	262.22
478.41	262.20
478.77	262.26
479.14	262.22
479.50	262.24
479.87	262.36
480.23	262.43
480.60	262.47
480.96	262.62
481.33	262.81
481.69	263.05
482.06	263.23
482.42	263.44
482.79	263.71
483.15	264.12
483.52	264.51
483.88	264.86
484.25	265.20
484.61	265.64
484.98	266.08
485.34	266.66
485.71	267.21
486.07	267.79
486.44	268.33
486.80	269.03
487.17	269.77
487.53	270.59
487.90	271.44
488.26	272.38
488.62	273.36
488.99	274.35
489.35	275.37
489.72	276.54
490.08	277.77
490.44	278.99
490.81	280.29
491.17	281.64
491.54	283.18
491.90	284.76
492.26	286.45
492.63	288.21
492.99	289.99
493.36	291.88
493.72	293.94
494.08	296.05
494.45	298.32
494.81	300.71
495.17	303.11
495.54	305.70
495.90	308.44
496.26	311.26
496.63	314.16
496.99	317.26
497.35	320.54
497.72	323.95
498.08	327.46
498.44	331.16
498.80	335.06
499.17	339.09
499.53	343.27
499.89	347.64
500.26	352.11
500.62	356.80
500.98	361.77
501.34	366.87
501.71	372.24
502.07	377.71
502.43	383.31
502.79	389.16
503.16	395.23
503.52	401.45
503.88	407.83
504.24	414.55
504.60	421.49
504.97	428.65
505.33	435.95
505.69	443.67
506.05	451.41
506.41	459.33
506.78	467.47
507.14	475.96
507.50	484.67
507.86	493.69
508.22	502.92
508.59	512.12
508.95	521.71
509.31	531.54
509.67	541.58
510.03	551.97
510.39	562.57
510.75	573.41
511.12	584.37
511.48	595.75
511.84	607.16
512.20	618.65
512.56	630.59
512.92	642.78
513.28	655.14
513.64	667.63
514.00	680.38
514.37	693.25
514.73	706.20
515.09	719.28
515.45	732.51
515.81	746.06
516.17	760.05
516.53	774.19
516.89	788.22
517.25	802.41
517.61	816.67
517.97	831.06
518.33	845.36
518.69	860.03
519.05	874.91
519.41	890.03
519.77	905.49
520.13	920.76
520.49	936.05
520.85	951.45
521.21	967.11
521.57	983.21
521.93	998.92
522.29	1015.27
522.65	1031.43
523.01	1047.63
523.37	1063.55
523.73	1079.61
524.09	1095.54
524.45	1111.81
524.81	1128.34
525.17	1145.10
525.53	1161.93
525.89	1178.81
526.25	1195.55
526.61	1211.94
526.97	1228.57
527.33	1245.00
527.68	1261.65
528.04	1278.12
528.40	1294.61
528.76	1311.55
529.12	1328.12
529.48	1344.91
529.84	1360.85
530.20	1377.34
530.56	1394.28
530.91	1411.65
531.27	1428.29
531.63	1444.63
531.99	1461.12
532.35	1477.01
532.71	1492.86
533.07	1509.04
533.42	1524.67
533.78	1540.68
534.14	1556.76
534.50	1572.14
534.86	1587.86
535.21	1602.88
535.57	1618.65
535.93	1634.11
536.29	1648.78
536.65	1663.72
537.00	1678.46
537.36	1693.75
537.72	1708.23
538.08	1722.44
538.44	1736.05
538.79	1749.98
539.15	1763.66
539.51	1777.29
539.87	1791.49
540.22	1805.17
540.58	1818.83
540.94	1832.22
541.29	1845.03
541.65	1857.57
542.01	1870.55
542.37	1882.88
542.72	1895.24
543.08	1906.99
543.44	1919.26
543.79	1930.62
544.15	1941.50
544.51	1953.03
544.87	1963.87
545.22	1974.47
545.58	1984.75
545.94	1994.46
546.29	2004.27
546.65	2014.07
547.01	2023.23
547.36	2031.97
547.72	2040.24
548.07	2047.90
548.43	2056.02
548.79	2063.95
549.14	2071.46
549.50	2078.87
549.86	2086.40
550.21	2093.55
550.57	2100.56
550.92	2106.91
551.28	2113.69
551.64	2120.76
551.99	2127.13
552.35	2133.17
552.70	2139.40
553.06	2145.25
553.41	2151.57
553.77	2157.55
554.13	2163.57
554.48	2169.68
554.84	2175.05
555.19	2180.52
555.55	2185.73
555.90	2190.13
556.26	2194.97
556.61	2199.71
556.97	2204.03
557.32	2208.11
557.68	2212.18
558.03	2216.46
558.39	2220.25
558.74	2225.04
559.10	2228.86
559.45	2232.67
559.81	2237.05
560.16	2240.89
560.52	2244.10
560.87	2247.53
561.23	2250.12
561.58	2253.03
561.94	2255.63
562.29	2257.97
562.64	2260.52
563.00	2262.98
563.35	2266.55
563.71	2269.71
564.06	2273.06
564.42	2275.79
564.77	2278.35
565.12	2280.83
565.48	2282.88
565.83	2284.81
566.19	2286.00
566.54	2286.89
566.89	2287.91
567.25	2288.58
567.60	2289.84
567.96	2291.57
568.31	2292.35
568.66	2293.44
569.02	2294.02
569.37	2294.35
569.72	2295.26
570.08	2295.40
570.43	2295.65
570.78	2295.00
571.14	2293.38
571.49	2291.96
571.84	2291.77
572.20	2290.75
572.55	2289.76
572.90	2288.21
573.26	2286.90
573.61	2285.34
573.96	2283.64
574.31	2280.84
574.67	2277.88
575.02	2274.49
575.37	2271.22
575.72	2267.51
576.08	2264.29
576.43	2261.13
576.78	2257.48
577.13	2254.49
577.49	2251.40
577.84	2247.91
578.19	2244.35
578.54	2241.00
578.90	2236.86
579.25	2231.33
579.60	2226.39
579.95	2221.43
580.30	2216.50
580.66	2211.34
581.01	2206.43
581.36	2201.72
581.71	2197.39
582.06	2192.96
582.42	2188.52
582.77	2183.46
583.12	2179.08
583.47	2174.42
583.82	2169.46
584.17	2164.43
584.53	2159.02
584.88	2153.62
585.23	2147.99
585.58	2142.59
585.93	2137.27
586.28	2132.64
586.63	2127.65
586.98	2122.53
587.34	2117.82
587.69	2113.01
588.04	2107.79
588.39	2102.20
588.74	2095.71
589.09	2089.83
589.44	2083.02
589.79	2077.05
590.14	2071.43
590.49	2064.81
590.84	2058.55
591.19	2052.65
591.54	2046.22
591.89	2038.71
592.25	2031.86
592.60	2024.69
592.95	2017.09
593.30	2009.71
593.65	2002.19
594.00	1995.22
594.35	1988.20
594.70	1980.37
595.05	1973.18
595.40	1965.98
595.75	1958.52
596.10	1952.40
596.45	1945.64
596.80	1939.59
597.15	1932.98
597.50	1925.94
597.85	1919.71
598.19	1913.03
598.54	1905.80
598.89	1899.15
599.24	1893.36
599.59	1886.76
599.94	1880.60
600.29	1874.29
600.64	1867.73
600.99	1860.28
601.34	1853.51
601.69	1846.65
602.04	1839.67
602.39	1832.35
602.74	1825.61
603.08	1818.78
603.43	1812.08
603.78	1804.86
604.13	1797.63
604.48	1790.20
604.83	1783.34
605.18	1776.26
605.53	1768.32
605.87	1760.56
606.22	1753.31
606.57	1745.41
606.92	1738.13
607.27	1731.06
607.62	1724.27
607.96	1717.10
608.31	1710.49
608.66	1702.94
609.01	1695.42
609.36	1687.96
609.70	1679.93
610.05	1671.88
610.40	1664.33
610.75	1656.05
611.10	1648.38
611.44	1639.99
611.79	1632.06
612.14	1623.48
612.49	1614.33
612.83	1605.95
613.18	1597.78
613.53	1589.63
613.88	1581.07
614.22	1572.80
614.57	1564.17
614.92	1556.02
615.27	1548.34
615.61	1539.98
615.96	1531.90
616.31	1524.24
616.65	1516.78
617.00	1509.29
617.35	1501.59
617.70	1493.27
618.04	1484.74
618.39	1476.50
618.74	1468.89
619.08	1460.67
619.43	1452.95
619.78	1446.09
620.12	1438.93
620.47	1431.31
620.82	1423.25
621.16	1415.88
621.51	1408.24
621.85	1400.48
622.20	1391.99
622.55	1383.61
622.89	1375.76
623.24	1368.01
623.59	1360.55
623.93	1353.09
624.28	1345.77
624.62	1338.25
624.97	1330.92
625.32	1324.17
625.66	1317.11
626.01	1310.06
626.35	1302.63
626.70	1294.96
627.04	1287.12
627.39	1279.34
627.73	1271.97
628.08	1265.01
628.43	1257.72
628.77	1250.42
629.12	1242.90
629.46	1235.82
629.81	1228.45
630.15	1221.24
630.50	1213.87
630.84	1205.72
631.19	1197.81
631.53	1190.28
631.88	1182.77
632.22	1175.20
632.57	1167.77
632.91	1160.25
633.26	1152.80
633.60	1145.45
633.95	1138.30
634.29	1131.36
634.64	1124.73
634.98	1117.38
635.32	1110.21
635.67	1103.66
636.01	1096.89
636.36	1090.07
636.70	1083.54
637.05	1076.94
637.39	1070.49
637.73	1063.99
638.08	1058.04
638.42	1052.02
638.77	1045.56
639.11	1038.94
639.45	1032.64
639.80	1025.98
640.14	1019.53
640.49	1013.01
640.83	1006.61
641.17	1000.33
641.52	993.98
641.86	987.44
642.20	981.56
642.55	975.36
642.89	968.67
643.23	962.22
643.58	956.43
643.92	950.18
644.26	944.14
644.61	938.02
644.95	932.07
645.29	925.50
645.64	918.70
645.98	912.41
646.32	906.58
646.66	900.48
647.01	894.82
647.35	889.13
647.69	883.18
648.04	877.58
648.38	871.82
648.72	865.77
649.06	859.69
649.41	853.85
649.75	847.85
650.09	842.06
650.43	836.18
650.78	830.14
651.12	824.17
651.46	818.39
651.80	812.62
652.14	807.18
652.49	801.80
652.83	796.63
653.17	790.95
653.51	785.23
653.85	779.88
654.20	774.16
654.54	768.13
654.88	762.42
655.22	756.56
655.56	750.93
655.90	745.49
656.25	740.29
656.59	734.81
656.93	729.70
657.27	724.47
657.61	719.09
657.95	713.95
658.29	708.90
658.64	703.64
658.98	698.41
659.32	692.96
659.66	687.76
660.00	682.51
660.34	677.57
660.68	672.64
661.02	667.54
661.36	662.77
661.70	658.32
662.05	654.00
662.39	649.71
662.73	645.15
663.07	640.77
663.41	636.28
663.75	631.80
664.09	627.16
664.43	622.72
664.77	618.60
665.11	614.29
665.45	610.12
665.79	606.02
666.13	601.86
666.47	597.75
666.81	593.63
667.15	589.47
667.49	585.59
667.83	581.78
668.17	577.91
668.51	573.81
668.85	569.73
669.19	565.91
669.53	562.14
669.87	558.32
670.21	554.62
670.55	550.99
670.89	547.58
671.23	544.19
671.57	540.75
671.91	537.18
672.25	533.69
672.58	530.17
672.92	526.76
673.26	523.64
673.60	520.48
673.94	517.39
674.28	514.52
674.62	511.51
674.96	508.37
675.30	505.43
675.64	502.57
675.97	499.78
676.31	496.89
676.65	493.87
676.99	491.20
677.33	488.32
677.67	485.47
678.01	482.45
678.34	479.52
678.68	476.66
679.02	473.87
679.36	471.16
679.70	468.42
680.04	465.70
680.37	462.80
680.71	460.03
681.05	457.38
681.39	454.65
681.73	452.02
682.06	449.53
682.40	447.01
682.74	444.48
683.08	441.99
683.42	439.39
683.75	436.92
684.09	434.32
684.43	431.96
684.77	429.50
685.10	427.16
685.44	424.82
685.78	422.53
686.12	420.24
686.45	417.93
686.79	415.64
687.13	413.47
687.46	411.35
687.80	409.20
688.14	406.97
688.48	404.85
688.81	402.63
689.15	400.47
689.49	398.28
689.82	396.21
690.16	394.09
690.50	392.15
690.83	390.21
691.17	388.24
691.51	386.21
691.84	384.38
692.18	382.45
692.52	380.49
692.85	378.62
693.19	376.76
693.52	374.90
693.86	373.05
694.20	371.26
694.53	369.45
694.87	367.56
695.21	365.76
695.54	363.98
695.88	362.22
696.21	360.49
696.55	358.81
696.88	357.11
697.22	355.44
697.56	353.78
697.89	352.12
698.23	350.51
698.56	348.95
698.90	347.34
699.23	345.71
699.57	344.13
699.90	342.54
700.24	341.04
700.58	339.51
700.91	338.08
701.25	336.62
701.58	335.18
701.92	333.86
702.25	332.48
702.59	331.09
702.92	329.80
703.26	328.51
703.59	327.25
703.93	326.08
704.26	324.84
704.60	323.54
704.93	322.21
705.26	320.94
705.60	319.73
705.93	318.59
706.27	317.54
706.60	316.49
706.94	315.37
707.27	314.18
707.61	313.14
707.94	312.05
708.27	310.96
708.61	309.88
708.94	308.84
709.28	307.84
709.61	306.89
709.94	305.93
710.28	304.91
710.61	303.89
710.95	302.81
711.28	301.91
711.61	300.97
711.95	300.06
712.28	299.11
712.61	298.16
712.95	297.22
713.28	296.34
713.61	295.46
713.95	294.58
714.28	293.77
714.61	292.90
714.95	292.10
715.28	291.25
715.61	290.41
715.95	289.55
716.28	288.70
716.61	287.88
716.95	287.05
717.28	286.27
717.61	285.50
717.94	284.77
718.28	283.95
718.61	283.22
718.94	282.55
719.27	281.93
719.61	281.30
719.94	280.65
720.27	279.95
720.60	279.29
720.94	278.71
721.27	278.10
721.60	277.52
721.93	276.87
722.27	276.29
722.60	275.73
722.93	275.19
723.26	274.66
723.59	274.08
723.93	273.56
724.26	273.04
724.59	272.47
724.92	271.97
725.25	271.50
725.59	270.98
725.92	270.47
726.25	269.95
726.58	269.43
726.91	268.90
727.24	268.41
727.57	267.94
727.91	267.44
728.24	266.99
728.57	266.50
728.90	266.06
729.23	265.54
729.56	265.10
729.89	264.67
730.22	264.18
730.55	263.73
730.89	263.27
731.22	262.80
731.55	262.39
731.88	261.95
732.21	261.48
732.54	261.08
732.87	260.66
733.20	260.24
733.53	259.84
733.86	259.45
734.19	259.06
734.52	258.66
734.85	258.33
735.18	257.88
735.51	257.52
735.84	257.15
736.17	256.82
736.50	256.41
736.83	256.13
737.16	255.80
737.49	255.45
737.82	255.11
738.15	254.77
738.48	254.43
738.81	254.10
739.14	253.79
739.47	253.46
739.80	253.13
740.13	252.83
740.46	252.53
740.79	252.22
741.12	251.92
741.45	251.60
741.78	251.26
742.11	250.97
742.44	250.63
742.77	250.33
743.10	250.02
743.43	249.71
743.75	249.31
744.08	249.15
744.41	248.86
744.74	248.59
745.07	248.31
745.40	248.05
745.73	247.83
746.06	247.54
746.39	247.26
746.71	246.98
747.04	246.75
747.37	246.45
747.70	246.20
748.03	245.96
748.36	245.71
748.68	245.45
749.01	245.17
749.34	244.97
749.67	244.76
750.00	244.56
750.33	244.43
750.65	244.23
750.98	243.88
751.31	243.69
751.64	243.45
751.97	243.27
752.29	243.06
752.62	242.79
752.95	242.58
753.28	242.38
753.60	242.19
753.93	241.97
754.26	241.75
754.59	241.53
754.91	241.29
755.24	241.10
755.57	240.91
755.90	240.78
756.22	240.57
756.55	240.37
756.88	240.19
757.20	239.92
757.53	239.71
757.86	239.58
758.19	239.41
758.51	239.27
758.84	239.06
759.17	238.88
759.49	238.73
759.82	238.62
760.15	238.46
760.47	238.32
760.80	238.17
761.13	238.05
761.45	237.92
761.78	237.81
762.11	237.66
762.43	237.50
762.76	237.33
763.08	237.22
763.41	237.10
763.74	236.94
764.06	236.85
764.39	236.72
764.71	236.56
765.04	236.43
765.37	236.26
765.69	236.15
766.02	236.02
766.34	235.89
766.67	235.75
767.00	235.64
767.32	235.59
767.65	235.57
767.97	235.47
768.30	235.38
768.62	235.27
768.95	235.16
769.27	235.05
769.60	234.98
769.92	234.85
770.25	234.74
770.57	234.62
770.90	234.51
771.22	234.40
771.55	234.27
771.87	234.17
772.20	234.13
772.52	234.15
772.85	234.19
773.17	234.09
773.50	233.97
773.82	233.91
774.15	233.73
774.47	233.56
774.80	233.46
775.12	233.32
775.45	233.24
775.77	233.18
776.09	233.13
776.42	233.03
776.74	232.95
777.07	232.89
777.39	232.84
777.72	232.76
778.04	232.72
778.36	232.68
778.69	232.59
779.01	232.48
779.33	232.28
779.66	232.12
779.98	232.04
780.31	231.99
780.63	231.90
780.95	231.87
781.28	231.82
781.60	231.74
781.92	231.70
782.25	231.63
782.57	231.55
782.89	231.45
783.22	231.38
783.54	231.34
783.86	231.27
784.19	231.18
784.51	231.14
784.83	231.08
785.16	231.02
785.48	231.00
785.80	230.95
786.12	230.92
786.45	230.84
786.77	230.79
787.09	230.70
787.42	230.66
787.74	230.60
788.06	230.55
788.38	230.50
788.71	230.45
789.03	230.41
789.35	230.39
789.67	230.34
789.99	230.29
790.32	230.21
790.64	230.19
790.96	230.21
791.28	230.14
791.61	230.06
791.93	230.02
792.25	229.98
792.57	230.01
792.89	229.95
793.21	229.91
793.54	229.88
793.86	229.83
794.18	229.77
794.50	229.68
794.82	229.62
795.14	229.59
795.47	229.56
795.79	229.52
796.11	229.42
796.43	229.37
796.75	229.33
797.07	229.32
797.39	229.24
797.71	229.18
798.04	229.14
798.36	229.14
798.68	229.11
799.00	229.09
799.32	229.02
799.64	229.00
799.96	228.99
800.28	228.96
800.60	228.95
800.92	228.96
801.24	228.95
801.56	228.91
801.89	228.88
802.21	228.86
802.53	228.82
802.85	228.84
803.17	228.89
803.49	228.85
803.81	228.79
804.13	228.81
804.45	228.80
804.77	228.82
805.09	228.80
805.41	228.76
805.73	228.72
806.05	228.64
806.37	228.62
806.69	228.58
807.01	228.59
807.33	228.58
807.65	228.47
807.97	228.49
808.28	228.50
808.60	228.51
808.92	228.49
809.24	228.52
809.56	228.51
809.88	228.45
810.20	228.44
810.52	228.44
810.84	228.39
811.16	228.32
811.48	228.27
811.80	228.28
812.12	228.27
812.43	228.25
812.75	228.28
813.07	228.24
813.39	228.25
813.71	228.22
814.03	228.17
814.35	228.17
814.67	228.13
814.98	228.08
815.30	228.04
815.62	227.99
815.94	227.93
816.26	227.94
816.58	227.93
816.89	227.94
817.21	227.92
817.53	227.90
817.85	227.91
818.17	227.87
818.48	227.78
818.80	227.81
819.12	227.77
819.44	227.75
819.76	227.73
820.07	227.73
820.39	227.69
820.71	227.70
821.03	227.72
821.34	227.71
821.66	227.71
821.98	227.72
822.30	227.71
822.61	227.77
822.93	227.71
823.25	227.72
823.57	227.69
823.88	227.72
824.20	227.72
824.52	227.67
824.83	227.68
825.15	227.72
825.47	227.69
825.79	227.69
826.10	227.65
826.42	227.65
826.74	227.64
827.05	227.64
827.37	227.63
827.69	227.62
828.00	227.61
828.32	227.60
828.64	227.59
828.95	227.65
829.27	227.55
829.58	227.54
829.90	227.52
830.22	227.50
830.53	227.44
830.85	227.44
831.17	227.46
831.48	227.46
831.80	227.42
832.11	227.40
832.43	227.37
832.75	227.35
833.06	227.41
833.38	227.35
833.69	227.32
834.01	227.32
834.32	227.29
834.64	227.25
834.96	227.25
835.27	227.21
835.59	227.18
835.90	227.19
836.22	227.16
836.53	227.13
836.85	227.10
837.16	227.19
837.48	227.17
837.79	227.21
838.11	227.23
838.42	227.21
838.74	227.21
839.05	227.22
839.37	227.19
839.68	227.12
840.00	227.11
840.31	227.09
840.63	227.04
840.94	227.05
841.26	227.05
841.57	227.03
841.88	227.03
842.20	226.99
842.51	227.00
842.83	227.03
843.14	227.10
843.46	227.11
843.77	227.05
844.08	227.03
844.40	226.93
844.71	226.88
845.03	226.89
845.34	226.87
845.65	226.85
845.97	226.87
846.28	226.85
846.60	226.84
846.91	226.84
847.22	226.85
847.54	226.84
847.85	226.81
848.16	226.81
848.48	226.77
848.79	226.80
849.10	226.75
849.42	226.70
849.73	226.63
850.04	226.63
850.36	226.57
850.67	226.60
850.98	226.64
851.30	226.65
851.61	226.63
851.92	226.64
852.23	226.65
852.55	226.66
852.86	226.66
853.17	226.70
853.49	226.71
853.80	226.73
854.11	226.73
854.42	226.75
854.74	226.73
855.05	226.76
855.36	226.71
855.67	226.68
855.99	226.70
856.30	226.80
856.61	226.77
856.92	226.77
857.23	226.72
857.55	226.70
857.86	226.66
858.17	226.68
858.48	226.66
858.79	226.64
859.11	226.61
859.42	226.61
859.73	226.57
860.04	226.56
860.35	226.55
860.66	226.51
860.98	226.49
861.29	226.52
861.60	226.52
861.91	226.54
862.22	226.53
862.53	226.49
862.84	226.37
863.16	226.37
863.47	226.36
863.78	226.36
864.09	226.31
864.40	226.35
864.71	226.30
865.02	226.31
865.33	226.29
865.64	226.32
865.95	226.29
866.27	226.37
866.58	226.36
866.89	226.35
867.20	226.32
867.51	226.29
867.82	226.24
868.13	226.26
868.44	226.25
868.75	226.29
869.06	226.32
869.37	226.33
869.68	226.32
869.99	226.32
870.30	226.36
870.61	226.38
870.92	226.40
871.23	226.41
871.54	226.40
871.85	226.42
872.16	226.39
872.47	226.37
872.78	226.31
873.09	226.31
873.40	226.31
873.71	226.38
874.02	226.40
874.33	226.40
874.64	226.39
874.95	226.42
875.26	226.40
875.56	226.40
875.87	226.42
876.18	226.41
876.49	226.52
876.80	226.48
877.11	226.49
877.42	226.46
877.73	226.50
878.04	226.50
878.35	226.50
878.66	226.53
878.96	226.55
879.27	226.55
879.58	226.55
879.89	226.56
880.20	226.55
880.51	226.58
880.82	226.61
881.12	226.60
881.43	226.56
881.74	226.57
882.05	226.55
882.36	226.52
882.67	226.55
882.97	226.46
883.28	226.49
883.59	226.51
883.90	226.54
884.21	226.53
884.51	226.55
884.82	226.51
885.13	226.50
885.44	226.52
885.74	226.53
886.05	226.55
886.36	226.55
886.67	226.52
886.98	226.54
887.28	226.55
887.59	226.53
887.90	226.55
888.20	226.53
888.51	226.56
888.82	226.55
889.13	226.54
889.43	226.62
889.74	226.59
890.05	226.56
890.35	226.55
890.66	226.54
890.97	226.52
891.28	226.50
891.58	226.51
891.89	226.49
892.20	226.46
892.50	226.40
892.81	226.38
893.12	226.37
893.42	226.33
893.73	226.30
894.04	226.27
894.34	226.25
894.65	226.22
894.95	226.20
895.26	226.22
895.57	226.28
895.87	226.17
896.18	226.19
896.48	226.21
896.79	226.19
897.10	226.19
897.40	226.18
897.71	226.23
898.01	226.19
898.32	226.20
898.63	226.19
898.93	226.22
899.24	226.22
899.54	226.21
899.85	226.22
900.15	226.21
900.46	226.22
900.76	226.22
901.07	226.23
901.38	226.20
901.68	226.19
901.99	226.13
902.29	226.13
902.60	226.10
902.90	226.07
903.21	226.07
903.51	226.03
903.82	226.02
904.12	226.00
904.43	226.03
904.73	226.03
905.03	226.06
905.34	226.13
905.64	226.11
905.95	226.09
906.25	226.06
906.56	226.05
906.86	226.07
907.17	226.10
907.47	226.08
907.77	226.10
908.08	226.10
908.38	226.11
908.69	226.11
908.99	226.14
909.30	226.16
909.60	226.16
909.90	226.19
910.21	226.19
910.51	226.18
910.81	226.16
911.12	226.15
911.42	226.15
911.73	226.05
912.03	226.08
912.33	226.11
912.64	226.13
912.94	226.11
913.24	226.11
913.55	226.07
913.85	226.09
914.15	226.14
914.46	226.14
914.76	226.13
915.06	226.13
915.37	226.09
915.67	226.07
915.97	226.09
916.27	226.08
916.58	226.08
916.88	226.08
917.18	226.07
917.49	226.15
917.79	226.16
918.09	226.22
918.39	226.25
918.70	226.26
919.00	226.23
919.30	226.29
919.60	226.29
919.91	226.31
920.21	226.34
920.51	226.31
920.81	226.32
921.12	226.36
921.42	226.38
921.72	226.38
922.02	226.41
922.32	226.41
922.63	226.39
922.93	226.46
923.23	226.47
923.53	226.48
923.83	226.41
924.13	226.38
924.44	226.35
924.74	226.38
925.04	226.38
925.34	226.42
925.64	226.41
925.94	226.41
926.24	226.45
926.55	226.44
926.85	226.41
927.15	226.44
927.45	226.43
927.75	226.43
928.05	226.45
928.35	226.42
928.65	226.46
928.95	226.44
929.26	226.39
929.56	226.40
929.86	226.43
930.16	226.41
930.46	226.42
930.76	226.42
931.06	226.35
931.36	226.31
931.66	226.28
931.96	226.26
932.26	226.27
932.56	226.22
932.86	226.19
933.16	226.23
933.46	226.19
933.76	226.16
934.06	226.17
934.36	226.20
934.66	226.23
934.96	226.22
935.26	226.24
935.56	226.26
935.86	226.21
936.16	226.18
936.46	226.16
936.76	226.17
937.06	226.14
937.36	226.14
937.66	226.17
937.96	226.17
938.26	226.14
938.56	226.16
938.86	226.15
939.16	226.17
939.46	226.14
939.76	226.14
940.06	226.14
940.35	226.10
940.65	226.04
940.95	226.02
941.25	225.97
941.55	225.95
941.85	225.95
942.15	225.95
942.45	225.96
942.75	225.99
943.04	226.00
943.34	226.01
943.64	226.01
943.94	225.98
944.24	225.99
944.54	226.00
944.84	225.98
945.13	225.96
945.43	225.91
945.73	225.90
946.03	225.89
946.33	225.89
946.62	225.85
946.92	225.79
947.22	225.79
947.52	225.81
947.82	225.82
948.11	225.81
948.41	225.83
948.71	225.82
949.01	225.80
949.31	225.80
949.60	225.80
949.90	225.82
950.20	225.82
950.50	225.81
950.79	225.80
951.09	225.82
951.39	225.84
951.69	225.87
951.98	225.90
952.28	225.90
952.58	225.90
952.87	225.93
953.17	225.99
953.47	225.98
953.76	225.97
954.06	225.95
954.36	225.91
954.66	225.90
954.95	225.89
955.25	225.91
955.55	225.91
955.84	225.90
956.14	225.88
956.44	225.87
956.73	225.85
957.03	225.88
957.32	225.84
957.62	225.86
957.92	225.88
958.21	225.87
958.51	225.97
958.81	226.00
959.10	226.02
959.40	226.03
959.69	226.03
959.99	226.07
960.29	226.08
960.58	226.09
960.88	226.14
961.17	226.13
961.47	226.14
961.76	226.14
962.06	226.15
962.36	226.14
962.65	226.17
962.95	226.24
963.24	226.20
963.54	226.22
963.83	226.21
964.13	226.20
964.42	226.17
964.72	226.11
965.01	226.11
965.31	226.10
965.60	226.09
965.90	226.17
966.19	226.15
966.49	226.14
966.78	226.15
967.08	226.12
967.37	226.11
967.67	226.10
967.96	226.10
968.26	226.11
968.55	226.13
968.85	226.11
969.14	226.06
969.43	226.04
969.73	226.06
970.02	226.06
970.32	226.06
970.61	226.07
970.91	226.02
971.20	225.97
971.49	225.96
971.79	225.99
972.08	225.93
972.38	225.92
972.67	225.94
972.96	225.95
973.26	225.92
973.55	225.99
973.85	225.98
974.14	225.96
974.43	225.93
974.73	225.92
975.02	225.93
975.31	225.93
975.61	225.95
975.90	225.89
976.19	225.87
976.49	225.84
976.78	225.83
977.07	225.82
977.37	225.84
977.66	225.83
977.95	225.78
978.24	225.76
978.54	225.77
978.83	225.73
979.12	225.71
979.42	225.73
979.71	225.69
980.00	225.67
980.29	225.68
980.59	225.66
980.88	225.70
981.17	225.71
981.46	225.71
981.76	225.71
982.05	225.79
982.34	225.76
982.63	225.77
982.93	225.77
983.22	225.82
983.51	225.84
983.80	225.86
984.09	225.89
984.39	225.89
984.68	225.87
984.97	225.90
985.26	225.92
985.55	225.92
985.85	225.92
986.14	225.96
986.43	225.98
986.72	226.00
987.01	225.97
987.30	225.96
987.59	225.95
987.89	225.99
988.18	225.97
988.47	226.01
988.76	226.02
989.05	226.03
989.34	226.01
989.63	226.02
989.92	226.04
990.22	226.03
990.51	226.06
990.80	226.08
991.09	226.12
991.38	226.16
991.67	226.14
991.96	226.13
992.25	226.13
992.54	226.09
992.83	226.12
993.12	226.12
993.41	226.15
993.70	226.20
993.99	226.19
994.28	226.19
994.58	226.20
994.87	226.20
995.16	226.20
995.45	226.20
995.74	226.20
996.03	226.20
996.32	226.22
996.61	226.23
996.90	226.21
997.19	226.18
997.48	226.15
997.77	226.14
998.06	226.18
998.34	226.16
998.63	226.20
998.92	226.19
999.21	226.21
999.50	226.18
999.79	226.13
1000.08	226.15
1000.37	226.13
1000.66	226.12
1000.95	226.11
1001.24	226.12
1001.53	226.12
1001.82	226.10
1002.11	226.07
1002.40	226.08
1002.68	226.06
1002.97	226.11
1003.26	226.10
1003.55	226.07
1003.84	226.07
1004.13	226.09
1004.42	226.07
1004.71	226.04
1004.99	226.04
1005.28	226.03
1005.57	226.03
1005.86	226.04
1006.15	226.02
1006.44	226.00
1006.72	226.00
1007.01	225.99
1007.30	225.98
1007.59	225.97
1007.88	225.95
1008.17	225.96
1008.45	225.90
1008.74	225.89
1009.03	225.86
1009.32	225.87
1009.60	225.87
1009.89	225.85
1010.18	225.77
1010.47	225.74
1010.76	225.71
1011.04	225.67
1011.33	225.68
1011.62	225.67
1011.91	225.65
1012.19	225.64
1012.48	225.66
1012.77	225.67
1013.05	225.73
1013.34	225.73
1013.63	225.72
1013.92	225.76
1014.20	225.76
1014.49	225.79
1014.78	225.82
1015.06	225.80
1015.35	225.78
1015.64	225.84
1015.92	225.88
1016.21	225.89
1016.50	225.94
1016.78	225.98
1017.07	226.02
1017.36	226.00
1017.64	226.00
1017.93	226.04
1018.22	226.05
1018.50	226.02
1018.79	226.04
1019.08	225.99
1019.36	226.00
1019.65	226.00
1019.93	226.00
1020.22	225.99
1020.51	226.04
1020.79	226.01
1021.08	225.99
1021.36	225.37
1021.65	226.40
1021.94	225.84
1022.22	226.10
1022.51	225.72
1022.79	226.37
1023.08	225.69
1023.36	226.97
1023.65	225.84
>>>>>End Processed Spectral Data<<<<<
