SpectraSuite Data File
++++++++++++++++++++++++++++++++++++
Date: Fri Feb 01 16:25:40 EST 2013
User: group
Dark Spectrum Present: No
Reference Spectrum Present: No
Number of Sampled Component Spectra: 1
Spectrometers: USB2E7196
Integration Time (usec): 35000 (USB2E7196)
Spectra Averaged: 100 (USB2E7196)
Boxcar Smoothing: 10 (USB2E7196)
Correct for Electrical Dark: No (USB2E7196)
Strobe/Lamp Enabled: No (USB2E7196)
Correct for Detector Non-linearity: No (USB2E7196)
Correct for Stray Light: No (USB2E7196)
Number of Pixels in Processed Spectrum: 2048
>>>>>Begin Processed Spectral Data<<<<<
339.09	0.00
339.48	213.91
339.86	215.38
340.24	216.78
340.63	218.14
341.01	220.93
341.39	220.60
341.78	222.07
342.16	223.39
342.54	223.70
342.93	212.22
343.31	222.95
343.69	223.51
344.07	223.99
344.46	224.42
344.84	224.81
345.22	225.05
345.60	225.32
345.99	225.54
346.37	225.67
346.75	225.77
347.13	225.85
347.52	225.93
347.90	226.04
348.28	226.09
348.66	226.12
349.05	226.11
349.43	226.16
349.81	226.23
350.19	226.33
350.57	226.41
350.96	226.51
351.34	226.60
351.72	226.66
352.10	226.74
352.48	226.82
352.87	226.86
353.25	226.92
353.63	226.99
354.01	227.02
354.39	227.09
354.77	227.19
355.15	227.28
355.54	227.31
355.92	227.31
356.30	227.39
356.68	227.55
357.06	227.65
357.44	227.69
357.82	227.77
358.20	227.84
358.58	227.90
358.97	227.93
359.35	228.02
359.73	228.08
360.11	228.13
360.49	228.18
360.87	228.23
361.25	228.29
361.63	228.36
362.01	228.40
362.39	228.44
362.77	228.45
363.15	228.46
363.53	228.51
363.91	228.55
364.29	228.52
364.67	228.43
365.05	228.43
365.43	228.45
365.81	228.42
366.19	228.44
366.57	228.46
366.95	228.44
367.33	228.41
367.71	228.40
368.09	228.39
368.47	228.36
368.85	228.35
369.23	228.35
369.61	228.27
369.99	228.27
370.37	228.24
370.75	228.23
371.13	228.18
371.51	228.11
371.89	228.05
372.27	228.02
372.65	227.97
373.03	227.93
373.41	227.88
373.78	227.81
374.16	227.68
374.54	227.58
374.92	227.56
375.30	227.50
375.68	227.43
376.06	227.38
376.44	227.30
376.82	227.23
377.19	227.13
377.57	227.07
377.95	226.98
378.33	226.89
378.71	226.78
379.09	226.70
379.47	226.66
379.84	226.58
380.22	226.54
380.60	226.43
380.98	226.34
381.36	226.26
381.73	226.20
382.11	226.19
382.49	226.15
382.87	226.07
383.25	225.99
383.62	226.04
384.00	225.95
384.38	225.93
384.76	225.89
385.13	225.89
385.51	225.85
385.89	225.80
386.27	225.80
386.64	225.80
387.02	225.79
387.40	225.77
387.78	225.75
388.15	225.70
388.53	225.68
388.91	225.66
389.29	225.65
389.66	225.67
390.04	225.61
390.42	225.62
390.79	225.61
391.17	225.62
391.55	225.49
391.92	225.53
392.30	225.57
392.68	225.56
393.05	225.57
393.43	225.59
393.81	225.59
394.18	225.61
394.56	225.62
394.94	225.67
395.31	225.70
395.69	225.75
396.06	225.82
396.44	225.89
396.82	225.92
397.19	226.00
397.57	226.03
397.95	226.10
398.32	226.12
398.70	226.20
399.07	226.29
399.45	226.36
399.82	226.41
400.20	226.44
400.58	226.52
400.95	226.57
401.33	226.66
401.70	226.85
402.08	226.96
402.45	227.06
402.83	227.17
403.20	227.27
403.58	227.38
403.95	227.48
404.33	227.58
404.71	227.68
405.08	227.83
405.46	227.96
405.83	228.12
406.21	228.28
406.58	228.41
406.96	228.53
407.33	228.71
407.70	228.90
408.08	229.16
408.45	229.36
408.83	229.55
409.20	229.76
409.58	229.91
409.95	230.13
410.33	230.36
410.70	230.58
411.08	230.86
411.45	231.15
411.82	231.44
412.20	231.81
412.57	232.24
412.95	232.57
413.32	232.95
413.69	233.34
414.07	233.77
414.44	234.21
414.82	234.69
415.19	235.22
415.56	235.74
415.94	236.27
416.31	236.93
416.68	237.54
417.06	238.23
417.43	238.89
417.81	239.65
418.18	240.44
418.55	241.26
418.93	242.15
419.30	243.03
419.67	243.98
420.04	244.92
420.42	245.89
420.79	247.09
421.16	248.24
421.54	249.44
421.91	250.62
422.28	251.89
422.66	253.21
423.03	254.49
423.40	255.81
423.77	257.20
424.15	258.63
424.52	260.13
424.89	261.72
425.26	263.25
425.64	264.69
426.01	266.31
426.38	267.97
426.75	269.62
427.13	271.35
427.50	273.16
427.87	275.03
428.24	276.91
428.61	278.61
428.99	280.55
429.36	282.63
429.73	284.65
430.10	286.68
430.47	288.74
430.85	290.85
431.22	293.11
431.59	295.48
431.96	297.65
432.33	300.14
432.70	302.53
433.08	305.33
433.45	307.98
433.82	310.54
434.19	313.45
434.56	316.30
434.93	318.95
435.30	321.59
435.68	324.44
436.05	327.23
436.42	330.01
436.79	332.50
437.16	335.22
437.53	338.07
437.90	340.82
438.27	343.63
438.64	346.50
439.01	349.07
439.38	351.28
439.75	353.48
440.13	355.92
440.50	358.28
440.87	360.15
441.24	362.09
441.61	364.24
441.98	365.72
442.35	367.49
442.72	369.33
443.09	371.06
443.46	372.10
443.83	372.68
444.20	373.23
444.57	374.10
444.94	374.35
445.31	374.72
445.68	375.13
446.05	375.11
446.42	374.71
446.79	374.32
447.16	373.89
447.53	373.57
447.90	372.49
448.27	371.30
448.64	369.72
449.01	368.57
449.37	366.59
449.74	364.66
450.11	362.43
450.48	359.95
450.85	357.46
451.22	355.36
451.59	353.36
451.96	351.41
452.33	348.85
452.70	346.51
453.07	343.73
453.43	340.86
453.80	338.16
454.17	335.48
454.54	332.95
454.91	330.23
455.28	327.57
455.65	325.07
456.02	322.62
456.38	320.50
456.75	317.84
457.12	315.63
457.49	313.44
457.86	311.24
458.23	309.46
458.59	307.42
458.96	305.30
459.33	303.48
459.70	301.60
460.07	300.05
460.43	298.34
460.80	296.66
461.17	295.21
461.54	293.71
461.91	292.31
462.27	290.85
462.64	289.62
463.01	288.26
463.38	286.95
463.74	285.61
464.11	284.46
464.48	283.46
464.85	282.35
465.21	281.46
465.58	280.57
465.95	279.44
466.32	278.53
466.68	277.61
467.05	276.69
467.42	275.83
467.78	274.90
468.15	274.01
468.52	273.39
468.88	272.51
469.25	271.73
469.62	271.11
469.98	270.45
470.35	269.80
470.72	269.22
471.08	268.57
471.45	268.03
471.82	267.46
472.18	266.85
472.55	266.44
472.92	265.91
473.28	265.44
473.65	264.96
474.02	264.50
474.38	264.17
474.75	263.85
475.11	263.48
475.48	263.23
475.85	263.01
476.21	262.75
476.58	262.58
476.94	262.46
477.31	262.26
477.67	262.11
478.04	262.05
478.41	261.98
478.77	262.04
479.14	261.99
479.50	262.01
479.87	262.07
480.23	262.14
480.60	262.22
480.96	262.33
481.33	262.59
481.69	262.81
482.06	263.02
482.42	263.23
482.79	263.50
483.15	263.84
483.52	264.24
483.88	264.63
484.25	265.05
484.61	265.50
484.98	266.02
485.34	266.60
485.71	267.16
486.07	267.79
486.44	268.35
486.80	269.08
487.17	269.79
487.53	270.63
487.90	271.46
488.26	272.42
488.62	273.41
488.99	274.36
489.35	275.43
489.72	276.55
490.08	277.75
490.44	278.98
490.81	280.31
491.17	281.64
491.54	283.12
491.90	284.64
492.26	286.30
492.63	288.01
492.99	289.80
493.36	291.72
493.72	293.77
494.08	295.92
494.45	298.11
494.81	300.49
495.17	302.92
495.54	305.54
495.90	308.23
496.26	311.03
496.63	314.01
496.99	317.14
497.35	320.37
497.72	323.81
498.08	327.34
498.44	331.06
498.80	334.96
499.17	339.02
499.53	343.19
499.89	347.56
500.26	352.05
500.62	356.70
500.98	361.71
501.34	366.79
501.71	372.09
502.07	377.60
502.43	383.25
502.79	389.12
503.16	395.14
503.52	401.42
503.88	407.87
504.24	414.54
504.60	421.41
504.97	428.57
505.33	435.90
505.69	443.58
506.05	451.32
506.41	459.24
506.78	467.41
507.14	475.86
507.50	484.59
507.86	493.63
508.22	502.79
508.59	511.95
508.95	521.51
509.31	531.32
509.67	541.40
510.03	551.65
510.39	562.23
510.75	573.05
511.12	584.01
511.48	595.24
511.84	606.73
512.20	618.21
512.56	630.16
512.92	642.33
513.28	654.70
513.64	667.13
514.00	679.79
514.37	692.73
514.73	705.78
515.09	718.66
515.45	731.88
515.81	745.53
516.17	759.52
516.53	773.64
516.89	787.83
517.25	802.02
517.61	816.39
517.97	830.70
518.33	845.00
518.69	859.68
519.05	874.57
519.41	889.64
519.77	905.20
520.13	920.55
520.49	935.87
520.85	951.25
521.21	966.97
521.57	983.19
521.93	998.79
522.29	1015.07
522.65	1031.39
523.01	1047.58
523.37	1063.54
523.73	1079.56
524.09	1095.59
524.45	1111.77
524.81	1128.26
525.17	1145.00
525.53	1161.88
525.89	1178.80
526.25	1195.65
526.61	1211.99
526.97	1228.62
527.33	1244.97
527.68	1261.51
528.04	1277.95
528.40	1294.46
528.76	1311.33
529.12	1327.87
529.48	1344.70
529.84	1360.71
530.20	1377.22
530.56	1394.16
530.91	1411.55
531.27	1428.23
531.63	1444.62
531.99	1461.11
532.35	1477.00
532.71	1492.86
533.07	1509.15
533.42	1524.99
533.78	1540.81
534.14	1557.17
534.50	1572.49
534.86	1588.34
535.21	1603.54
535.57	1619.30
535.93	1634.70
536.29	1649.53
536.65	1664.50
537.00	1679.23
537.36	1694.51
537.72	1709.01
538.08	1723.27
538.44	1736.94
538.79	1750.95
539.15	1764.59
539.51	1778.26
539.87	1792.57
540.22	1806.27
540.58	1819.77
540.94	1832.97
541.29	1845.82
541.65	1858.35
542.01	1871.32
542.37	1883.53
542.72	1895.80
543.08	1907.57
543.44	1919.90
543.79	1931.07
544.15	1941.96
544.51	1953.48
544.87	1964.32
545.22	1975.11
545.58	1985.35
545.94	1995.08
546.29	2004.76
546.65	2014.50
547.01	2023.71
547.36	2032.42
547.72	2040.69
548.07	2048.48
548.43	2056.51
548.79	2064.63
549.14	2072.08
549.50	2079.47
549.86	2087.05
550.21	2094.17
550.57	2101.27
550.92	2107.70
551.28	2114.59
551.64	2121.68
551.99	2128.07
552.35	2134.26
552.70	2140.19
553.06	2146.25
553.41	2152.64
553.77	2158.55
554.13	2164.49
554.48	2170.69
554.84	2176.11
555.19	2181.46
555.55	2186.64
555.90	2191.11
556.26	2195.86
556.61	2200.40
556.97	2204.72
557.32	2208.94
557.68	2213.31
558.03	2217.57
558.39	2221.39
558.74	2226.11
559.10	2229.82
559.45	2233.62
559.81	2237.75
560.16	2241.66
560.52	2244.84
560.87	2248.12
561.23	2250.85
561.58	2253.81
561.94	2256.22
562.29	2258.56
562.64	2261.21
563.00	2263.86
563.35	2267.43
563.71	2270.60
564.06	2274.07
564.42	2276.89
564.77	2279.41
565.12	2281.64
565.48	2283.62
565.83	2285.50
566.19	2286.90
566.54	2287.94
566.89	2289.12
567.25	2289.81
567.60	2291.26
567.96	2292.89
568.31	2293.60
568.66	2294.72
569.02	2295.45
569.37	2295.95
569.72	2296.89
570.08	2297.06
570.43	2297.18
570.78	2296.58
571.14	2295.03
571.49	2293.62
571.84	2293.51
572.20	2292.36
572.55	2291.36
572.90	2289.77
573.26	2288.46
573.61	2286.86
573.96	2285.19
574.31	2282.17
574.67	2279.33
575.02	2275.65
575.37	2272.35
575.72	2268.77
576.08	2265.55
576.43	2262.24
576.78	2258.54
577.13	2255.45
577.49	2252.38
577.84	2248.80
578.19	2245.30
578.54	2241.85
578.90	2237.67
579.25	2232.05
579.60	2227.12
579.95	2222.14
580.30	2217.30
580.66	2212.08
581.01	2207.14
581.36	2202.14
581.71	2197.99
582.06	2193.49
582.42	2189.12
582.77	2183.96
583.12	2179.56
583.47	2174.87
583.82	2170.02
584.17	2164.81
584.53	2159.32
584.88	2153.90
585.23	2148.36
585.58	2142.79
585.93	2137.25
586.28	2132.63
586.63	2127.58
586.98	2122.67
587.34	2118.07
587.69	2113.22
588.04	2107.96
588.39	2102.38
588.74	2096.01
589.09	2090.02
589.44	2083.40
589.79	2077.50
590.14	2071.91
590.49	2065.29
590.84	2059.10
591.19	2053.03
591.54	2046.70
591.89	2039.35
592.25	2032.57
592.60	2025.30
592.95	2017.88
593.30	2010.60
593.65	2003.13
594.00	1996.25
594.35	1988.98
594.70	1980.90
595.05	1973.70
595.40	1966.63
595.75	1959.09
596.10	1953.01
596.45	1946.29
596.80	1940.15
597.15	1933.49
597.50	1926.43
597.85	1920.06
598.19	1913.35
598.54	1906.32
598.89	1899.67
599.24	1893.84
599.59	1887.10
599.94	1881.06
600.29	1874.72
600.64	1868.14
600.99	1860.60
601.34	1853.75
601.69	1846.89
602.04	1840.09
602.39	1832.83
602.74	1825.93
603.08	1819.14
603.43	1812.38
603.78	1804.98
604.13	1797.84
604.48	1790.59
604.83	1783.73
605.18	1776.76
605.53	1768.70
605.87	1760.71
606.22	1753.45
606.57	1745.45
606.92	1738.15
607.27	1730.88
607.62	1723.98
607.96	1716.94
608.31	1710.29
608.66	1702.66
609.01	1695.13
609.36	1687.59
609.70	1679.57
610.05	1671.60
610.40	1664.05
610.75	1655.71
611.10	1648.10
611.44	1639.60
611.79	1631.65
612.14	1623.05
612.49	1613.94
612.83	1605.61
613.18	1597.47
613.53	1589.29
613.88	1580.85
614.22	1572.61
614.57	1564.05
614.92	1556.04
615.27	1548.44
615.61	1540.23
615.96	1532.22
616.31	1524.56
616.65	1517.19
617.00	1509.58
617.35	1501.86
617.70	1493.55
618.04	1485.12
618.39	1476.99
618.74	1469.39
619.08	1460.94
619.43	1453.19
619.78	1446.24
620.12	1439.09
620.47	1431.57
620.82	1423.51
621.16	1416.00
621.51	1408.43
621.85	1400.84
622.20	1392.24
622.55	1383.86
622.89	1376.02
623.24	1368.45
623.59	1361.09
623.93	1353.55
624.28	1346.39
624.62	1338.83
624.97	1331.57
625.32	1324.87
625.66	1317.76
626.01	1310.69
626.35	1303.38
626.70	1295.82
627.04	1288.06
627.39	1280.27
627.73	1273.01
628.08	1266.06
628.43	1258.87
628.77	1251.45
629.12	1243.89
629.46	1236.75
629.81	1229.31
630.15	1221.95
630.50	1214.44
630.84	1206.19
631.19	1198.23
631.53	1190.62
631.88	1183.04
632.22	1175.52
632.57	1168.12
632.91	1160.62
633.26	1153.12
633.60	1145.68
633.95	1138.47
634.29	1131.39
634.64	1124.79
634.98	1117.41
635.32	1110.25
635.67	1103.60
636.01	1096.96
636.36	1090.11
636.70	1083.61
637.05	1076.94
637.39	1070.51
637.73	1064.04
638.08	1058.13
638.42	1052.20
638.77	1045.76
639.11	1039.24
639.45	1032.72
639.80	1026.07
640.14	1019.64
640.49	1013.17
640.83	1006.85
641.17	1000.58
641.52	994.19
641.86	987.61
642.20	981.66
642.55	975.41
642.89	968.87
643.23	962.34
643.58	956.50
643.92	950.28
644.26	944.30
644.61	938.32
644.95	932.27
645.29	925.74
645.64	919.01
645.98	912.70
646.32	906.87
646.66	900.84
647.01	895.00
647.35	889.28
647.69	883.29
648.04	877.78
648.38	872.15
648.72	866.20
649.06	860.22
649.41	854.29
649.75	848.33
650.09	842.44
650.43	836.68
650.78	830.61
651.12	824.58
651.46	818.79
651.80	813.04
652.14	807.65
652.49	802.20
652.83	797.00
653.17	791.29
653.51	785.59
653.85	780.25
654.20	774.64
654.54	768.61
654.88	762.96
655.22	757.05
655.56	751.26
655.90	745.82
656.25	740.55
656.59	735.17
656.93	730.00
657.27	724.85
657.61	719.40
657.95	714.29
658.29	709.31
658.64	704.11
658.98	698.76
659.32	693.33
659.66	688.16
660.00	682.85
660.34	677.94
660.68	673.03
661.02	667.96
661.36	663.21
661.70	658.76
662.05	654.34
662.39	650.07
662.73	645.59
663.07	641.29
663.41	636.82
663.75	632.35
664.09	627.87
664.43	623.48
664.77	619.34
665.11	615.13
665.45	610.96
665.79	606.84
666.13	602.70
666.47	598.57
666.81	594.41
667.15	590.30
667.49	586.40
667.83	582.53
668.17	578.66
668.51	574.60
668.85	570.56
669.19	566.76
669.53	562.85
669.87	559.00
670.21	555.23
670.55	551.58
670.89	548.21
671.23	544.76
671.57	541.22
671.91	537.68
672.25	534.15
672.58	530.66
672.92	527.31
673.26	524.16
673.60	521.01
673.94	517.90
674.28	514.97
674.62	512.02
674.96	508.90
675.30	505.97
675.64	503.02
675.97	500.26
676.31	497.39
676.65	494.47
676.99	491.75
677.33	488.93
677.67	486.09
678.01	482.99
678.34	479.96
678.68	477.10
679.02	474.25
679.36	471.47
679.70	468.78
680.04	465.98
680.37	463.09
680.71	460.30
681.05	457.64
681.39	454.90
681.73	452.24
682.06	449.72
682.40	447.12
682.74	444.58
683.08	441.95
683.42	439.32
683.75	436.83
684.09	434.26
684.43	431.71
684.77	429.27
685.10	426.91
685.44	424.61
685.78	422.27
686.12	420.01
686.45	417.69
686.79	415.32
687.13	413.11
687.46	411.00
687.80	408.79
688.14	406.59
688.48	404.48
688.81	402.22
689.15	400.06
689.49	397.90
689.82	395.82
690.16	393.78
690.50	391.82
690.83	389.84
691.17	387.83
691.51	385.93
691.84	384.00
692.18	382.07
692.52	380.11
692.85	378.16
693.19	376.30
693.52	374.49
693.86	372.69
694.20	370.88
694.53	369.03
694.87	367.22
695.21	365.45
695.54	363.67
695.88	361.92
696.21	360.16
696.55	358.49
696.88	356.78
697.22	355.06
697.56	353.47
697.89	351.82
698.23	350.23
698.56	348.64
698.90	347.12
699.23	345.45
699.57	343.89
699.90	342.41
700.24	340.89
700.58	339.37
700.91	337.86
701.25	336.42
701.58	335.08
701.92	333.71
702.25	332.31
702.59	330.92
702.92	329.57
703.26	328.27
703.59	326.95
703.93	325.79
704.26	324.62
704.60	323.31
704.93	322.06
705.26	320.79
705.60	319.63
705.93	318.42
706.27	317.39
706.60	316.33
706.94	315.21
707.27	314.09
707.61	313.01
707.94	311.97
708.27	310.89
708.61	309.81
708.94	308.82
709.28	307.84
709.61	306.93
709.94	306.00
710.28	304.97
710.61	304.01
710.95	302.92
711.28	301.98
711.61	301.02
711.95	300.12
712.28	299.19
712.61	298.22
712.95	297.31
713.28	296.43
713.61	295.55
713.95	294.68
714.28	293.81
714.61	292.99
714.95	292.16
715.28	291.34
715.61	290.46
715.95	289.60
716.28	288.77
716.61	287.94
716.95	287.11
717.28	286.43
717.61	285.66
717.94	284.96
718.28	284.16
718.61	283.42
718.94	282.69
719.27	282.03
719.61	281.36
719.94	280.72
720.27	280.03
720.60	279.33
720.94	278.70
721.27	278.14
721.60	277.51
721.93	276.90
722.27	276.33
722.60	275.73
722.93	275.17
723.26	274.63
723.59	274.06
723.93	273.52
724.26	272.94
724.59	272.39
724.92	271.85
725.25	271.34
725.59	270.82
725.92	270.37
726.25	269.84
726.58	269.32
726.91	268.79
727.24	268.32
727.57	267.85
727.91	267.31
728.24	266.81
728.57	266.33
728.90	265.84
729.23	265.35
729.56	264.94
729.89	264.43
730.22	263.91
730.55	263.44
730.89	262.96
731.22	262.50
731.55	262.08
731.88	261.61
732.21	261.18
732.54	260.75
732.87	260.29
733.20	259.89
733.53	259.51
733.86	259.13
734.19	258.69
734.52	258.32
734.85	258.02
735.18	257.57
735.51	257.20
735.84	256.85
736.17	256.48
736.50	256.07
736.83	255.87
737.16	255.55
737.49	255.19
737.82	254.85
738.15	254.52
738.48	254.17
738.81	253.87
739.14	253.55
739.47	253.22
739.80	252.90
740.13	252.61
740.46	252.29
740.79	251.99
741.12	251.69
741.45	251.39
741.78	251.00
742.11	250.76
742.44	250.41
742.77	250.12
743.10	249.84
743.43	249.55
743.75	249.10
744.08	248.95
744.41	248.67
744.74	248.42
745.07	248.15
745.40	247.88
745.73	247.64
746.06	247.37
746.39	247.10
746.71	246.83
747.04	246.55
747.37	246.29
747.70	246.05
748.03	245.78
748.36	245.56
748.68	245.37
749.01	245.09
749.34	244.95
749.67	244.74
750.00	244.52
750.33	244.41
750.65	244.27
750.98	243.91
751.31	243.71
751.64	243.51
751.97	243.34
752.29	243.14
752.62	242.93
752.95	242.77
753.28	242.59
753.60	242.37
753.93	242.20
754.26	242.02
754.59	241.82
754.91	241.64
755.24	241.46
755.57	241.30
755.90	241.12
756.22	240.87
756.55	240.68
756.88	240.47
757.20	240.21
757.53	239.97
757.86	239.82
758.19	239.68
758.51	239.50
758.84	239.32
759.17	239.15
759.49	238.99
759.82	238.86
760.15	238.68
760.47	238.55
760.80	238.37
761.13	238.26
761.45	238.06
761.78	237.93
762.11	237.78
762.43	237.62
762.76	237.55
763.08	237.43
763.41	237.28
763.74	237.15
764.06	237.01
764.39	236.88
764.71	236.76
765.04	236.63
765.37	236.51
765.69	236.38
766.02	236.26
766.34	236.14
766.67	235.97
767.00	235.87
767.32	235.80
767.65	235.75
767.97	235.60
768.30	235.52
768.62	235.41
768.95	235.27
769.27	235.13
769.60	234.97
769.92	234.83
770.25	234.72
770.57	234.61
770.90	234.54
771.22	234.43
771.55	234.33
771.87	234.21
772.20	234.11
772.52	234.09
772.85	234.09
773.17	233.97
773.50	233.83
773.82	233.72
774.15	233.59
774.47	233.46
774.80	233.38
775.12	233.29
775.45	233.17
775.77	233.06
776.09	232.99
776.42	232.92
776.74	232.88
777.07	232.80
777.39	232.69
777.72	232.59
778.04	232.51
778.36	232.42
778.69	232.34
779.01	232.26
779.33	232.09
779.66	231.90
779.98	231.84
780.31	231.79
780.63	231.77
780.95	231.72
781.28	231.66
781.60	231.56
781.92	231.49
782.25	231.46
782.57	231.44
782.89	231.34
783.22	231.27
783.54	231.21
783.86	231.13
784.19	231.11
784.51	231.07
784.83	231.01
785.16	230.97
785.48	230.91
785.80	230.90
786.12	230.89
786.45	230.83
786.77	230.76
787.09	230.71
787.42	230.62
787.74	230.55
788.06	230.49
788.38	230.46
788.71	230.39
789.03	230.38
789.35	230.33
789.67	230.31
789.99	230.29
790.32	230.25
790.64	230.24
790.96	230.26
791.28	230.20
791.61	230.19
791.93	230.13
792.25	230.11
792.57	230.11
792.89	230.04
793.21	230.04
793.54	230.01
793.86	229.97
794.18	229.97
794.50	229.95
794.82	229.91
795.14	229.89
795.47	229.90
795.79	229.84
796.11	229.79
796.43	229.74
796.75	229.71
797.07	229.67
797.39	229.63
797.71	229.56
798.04	229.53
798.36	229.49
798.68	229.46
799.00	229.43
799.32	229.32
799.64	229.33
799.96	229.32
800.28	229.30
800.60	229.27
800.92	229.23
801.24	229.17
801.56	229.15
801.89	229.13
802.21	229.10
802.53	229.06
802.85	229.03
803.17	229.06
803.49	229.02
803.81	229.00
804.13	228.95
804.45	228.92
804.77	228.88
805.09	228.81
805.41	228.81
805.73	228.79
806.05	228.78
806.37	228.72
806.69	228.64
807.01	228.64
807.33	228.61
807.65	228.56
807.97	228.61
808.28	228.59
808.60	228.59
808.92	228.54
809.24	228.59
809.56	228.60
809.88	228.53
810.20	228.51
810.52	228.49
810.84	228.48
811.16	228.42
811.48	228.42
811.80	228.45
812.12	228.41
812.43	228.38
812.75	228.30
813.07	228.28
813.39	228.26
813.71	228.21
814.03	228.21
814.35	228.18
814.67	228.10
814.98	228.04
815.30	228.00
815.62	227.97
815.94	227.88
816.26	227.87
816.58	227.84
816.89	227.82
817.21	227.78
817.53	227.75
817.85	227.74
818.17	227.70
818.48	227.63
818.80	227.65
819.12	227.60
819.44	227.64
819.76	227.64
820.07	227.63
820.39	227.59
820.71	227.57
821.03	227.57
821.34	227.53
821.66	227.53
821.98	227.52
822.30	227.51
822.61	227.55
822.93	227.48
823.25	227.47
823.57	227.45
823.88	227.46
824.20	227.44
824.52	227.44
824.83	227.40
825.15	227.39
825.47	227.37
825.79	227.35
826.10	227.32
826.42	227.26
826.74	227.29
827.05	227.28
827.37	227.24
827.69	227.23
828.00	227.22
828.32	227.18
828.64	227.16
828.95	227.19
829.27	227.16
829.58	227.16
829.90	227.17
830.22	227.18
830.53	227.14
830.85	227.13
831.17	227.10
831.48	227.10
831.80	227.08
832.11	227.06
832.43	227.05
832.75	227.06
833.06	227.13
833.38	227.07
833.69	227.07
834.01	227.08
834.32	227.07
834.64	227.05
834.96	227.07
835.27	227.07
835.59	227.06
835.90	227.06
836.22	227.05
836.53	227.01
836.85	227.00
837.16	227.10
837.48	227.11
837.79	227.13
838.11	227.12
838.42	227.14
838.74	227.16
839.05	227.16
839.37	227.15
839.68	227.09
840.00	227.11
840.31	227.11
840.63	227.10
840.94	227.05
841.26	227.04
841.57	227.05
841.88	227.03
842.20	227.00
842.51	226.97
842.83	226.96
843.14	227.07
843.46	227.06
843.77	227.03
844.08	227.02
844.40	227.00
844.71	227.01
845.03	226.99
845.34	226.95
845.65	226.93
845.97	226.92
846.28	226.91
846.60	226.87
846.91	226.87
847.22	226.84
847.54	226.86
847.85	226.87
848.16	226.83
848.48	226.81
848.79	226.85
849.10	226.85
849.42	226.82
849.73	226.73
850.04	226.69
850.36	226.61
850.67	226.61
850.98	226.58
851.30	226.57
851.61	226.57
851.92	226.59
852.23	226.59
852.55	226.62
852.86	226.60
853.17	226.61
853.49	226.63
853.80	226.65
854.11	226.65
854.42	226.64
854.74	226.63
855.05	226.61
855.36	226.56
855.67	226.54
855.99	226.55
856.30	226.63
856.61	226.61
856.92	226.59
857.23	226.58
857.55	226.59
857.86	226.59
858.17	226.59
858.48	226.56
858.79	226.55
859.11	226.53
859.42	226.55
859.73	226.53
860.04	226.50
860.35	226.49
860.66	226.44
860.98	226.44
861.29	226.45
861.60	226.46
861.91	226.47
862.22	226.48
862.53	226.48
862.84	226.37
863.16	226.40
863.47	226.45
863.78	226.41
864.09	226.41
864.40	226.41
864.71	226.43
865.02	226.46
865.33	226.45
865.64	226.44
865.95	226.42
866.27	226.50
866.58	226.53
866.89	226.56
867.20	226.60
867.51	226.58
867.82	226.55
868.13	226.61
868.44	226.59
868.75	226.63
869.06	226.64
869.37	226.66
869.68	226.67
869.99	226.69
870.30	226.75
870.61	226.78
870.92	226.77
871.23	226.79
871.54	226.78
871.85	226.82
872.16	226.85
872.47	226.87
872.78	226.78
873.09	226.75
873.40	226.74
873.71	226.75
874.02	226.77
874.33	226.81
874.64	226.77
874.95	226.80
875.26	226.76
875.56	226.75
875.87	226.77
876.18	226.74
876.49	226.81
876.80	226.75
877.11	226.74
877.42	226.75
877.73	226.73
878.04	226.74
878.35	226.73
878.66	226.71
878.96	226.68
879.27	226.71
879.58	226.72
879.89	226.65
880.20	226.67
880.51	226.68
880.82	226.63
881.12	226.64
881.43	226.63
881.74	226.61
882.05	226.60
882.36	226.59
882.67	226.61
882.97	226.49
883.28	226.49
883.59	226.44
883.90	226.40
884.21	226.38
884.51	226.36
884.82	226.34
885.13	226.30
885.44	226.28
885.74	226.25
886.05	226.25
886.36	226.29
886.67	226.27
886.98	226.27
887.28	226.27
887.59	226.26
887.90	226.23
888.20	226.23
888.51	226.21
888.82	226.17
889.13	226.17
889.43	226.24
889.74	226.27
890.05	226.28
890.35	226.29
890.66	226.26
890.97	226.20
891.28	226.16
891.58	226.19
891.89	226.20
892.20	226.19
892.50	226.17
892.81	226.17
893.12	226.13
893.42	226.07
893.73	226.08
894.04	226.05
894.34	226.05
894.65	226.00
894.95	225.97
895.26	225.98
895.57	226.00
895.87	225.88
896.18	225.88
896.48	225.86
896.79	225.84
897.10	225.84
897.40	225.86
897.71	225.87
898.01	225.86
898.32	225.88
898.63	225.89
898.93	225.89
899.24	225.87
899.54	225.87
899.85	225.89
900.15	225.87
900.46	225.88
900.76	225.90
901.07	225.95
901.38	225.98
901.68	225.97
901.99	225.89
902.29	225.93
902.60	225.90
902.90	225.92
903.21	225.95
903.51	225.97
903.82	225.97
904.12	225.97
904.43	225.99
904.73	225.97
905.03	225.98
905.34	226.08
905.64	226.08
905.95	226.11
906.25	226.13
906.56	226.14
906.86	226.14
907.17	226.14
907.47	226.13
907.77	226.11
908.08	226.12
908.38	226.15
908.69	226.17
908.99	226.22
909.30	226.21
909.60	226.22
909.90	226.22
910.21	226.23
910.51	226.23
910.81	226.23
911.12	226.28
911.42	226.25
911.73	226.17
912.03	226.17
912.33	226.21
912.64	226.18
912.94	226.16
913.24	226.16
913.55	226.14
913.85	226.14
914.15	226.18
914.46	226.19
914.76	226.19
915.06	226.18
915.37	226.14
915.67	226.16
915.97	226.16
916.27	226.15
916.58	226.14
916.88	226.15
917.18	226.13
917.49	226.19
917.79	226.22
918.09	226.22
918.39	226.24
918.70	226.20
919.00	226.23
919.30	226.28
919.60	226.25
919.91	226.26
920.21	226.25
920.51	226.22
920.81	226.20
921.12	226.19
921.42	226.16
921.72	226.16
922.02	226.17
922.32	226.20
922.63	226.22
922.93	226.28
923.23	226.27
923.53	226.28
923.83	226.17
924.13	226.18
924.44	226.15
924.74	226.15
925.04	226.15
925.34	226.14
925.64	226.10
925.94	226.10
926.24	226.12
926.55	226.13
926.85	226.12
927.15	226.12
927.45	226.15
927.75	226.16
928.05	226.13
928.35	226.08
928.65	226.07
928.95	226.04
929.26	225.99
929.56	226.00
929.86	225.99
930.16	225.98
930.46	225.94
930.76	225.94
931.06	225.88
931.36	225.87
931.66	225.86
931.96	225.84
932.26	225.87
932.56	225.83
932.86	225.84
933.16	225.84
933.46	225.82
933.76	225.81
934.06	225.83
934.36	225.90
934.66	225.88
934.96	225.84
935.26	225.86
935.56	225.87
935.86	225.84
936.16	225.80
936.46	225.81
936.76	225.83
937.06	225.82
937.36	225.84
937.66	225.85
937.96	225.86
938.26	225.87
938.56	225.84
938.86	225.84
939.16	225.84
939.46	225.85
939.76	225.89
940.06	225.87
940.35	225.85
940.65	225.79
940.95	225.85
941.25	225.80
941.55	225.80
941.85	225.80
942.15	225.82
942.45	225.88
942.75	225.89
943.04	225.91
943.34	225.98
943.64	226.00
943.94	226.00
944.24	226.00
944.54	226.00
944.84	226.01
945.13	226.00
945.43	225.99
945.73	226.01
946.03	226.01
946.33	226.01
946.62	226.02
946.92	226.03
947.22	226.02
947.52	226.10
947.82	226.12
948.11	226.11
948.41	226.12
948.71	226.10
949.01	226.12
949.31	226.07
949.60	226.04
949.90	226.04
950.20	226.07
950.50	226.07
950.79	226.05
951.09	226.06
951.39	226.07
951.69	226.06
951.98	226.08
952.28	226.06
952.58	226.01
952.87	226.03
953.17	226.02
953.47	226.01
953.76	225.99
954.06	225.96
954.36	225.96
954.66	225.97
954.95	225.99
955.25	225.95
955.55	225.98
955.84	225.98
956.14	225.96
956.44	225.92
956.73	225.93
957.03	225.94
957.32	225.97
957.62	225.94
957.92	225.96
958.21	225.92
958.51	226.02
958.81	226.04
959.10	226.04
959.40	226.07
959.69	226.06
959.99	226.08
960.29	226.06
960.58	226.01
960.88	226.06
961.17	226.02
961.47	226.04
961.76	226.00
962.06	225.97
962.36	225.96
962.65	225.93
962.95	225.90
963.24	225.90
963.54	225.85
963.83	225.86
964.13	225.86
964.42	225.84
964.72	225.75
965.01	225.76
965.31	225.73
965.60	225.72
965.90	225.77
966.19	225.74
966.49	225.74
966.78	225.73
967.08	225.68
967.37	225.68
967.67	225.64
967.96	225.68
968.26	225.67
968.55	225.69
968.85	225.72
969.14	225.75
969.43	225.75
969.73	225.76
970.02	225.77
970.32	225.76
970.61	225.76
970.91	225.77
971.20	225.78
971.49	225.81
971.79	225.81
972.08	225.74
972.38	225.71
972.67	225.70
972.96	225.77
973.26	225.74
973.55	225.78
973.85	225.80
974.14	225.81
974.43	225.83
974.73	225.82
975.02	225.82
975.31	225.80
975.61	225.85
975.90	225.87
976.19	225.90
976.49	225.93
976.78	225.95
977.07	225.94
977.37	225.94
977.66	225.96
977.95	225.93
978.24	225.99
978.54	226.02
978.83	226.02
979.12	226.01
979.42	226.02
979.71	226.01
980.00	225.98
980.29	225.98
980.59	225.96
980.88	225.96
981.17	225.97
981.46	225.97
981.76	225.96
982.05	225.95
982.34	225.94
982.63	225.94
982.93	225.96
983.22	225.99
983.51	226.01
983.80	226.01
984.09	226.05
984.39	226.02
984.68	226.02
984.97	226.04
985.26	226.02
985.55	226.04
985.85	226.01
986.14	226.05
986.43	226.07
986.72	226.08
987.01	226.05
987.30	226.02
987.59	226.02
987.89	225.99
988.18	225.98
988.47	225.95
988.76	225.92
989.05	225.89
989.34	225.86
989.63	225.84
989.92	225.80
990.22	225.78
990.51	225.79
990.80	225.79
991.09	225.79
991.38	225.81
991.67	225.77
991.96	225.78
992.25	225.76
992.54	225.72
992.83	225.71
993.12	225.72
993.41	225.75
993.70	225.78
993.99	225.77
994.28	225.77
994.58	225.78
994.87	225.79
995.16	225.79
995.45	225.78
995.74	225.76
996.03	225.78
996.32	225.78
996.61	225.81
996.90	225.81
997.19	225.78
997.48	225.78
997.77	225.76
998.06	225.75
998.34	225.74
998.63	225.73
998.92	225.75
999.21	225.77
999.50	225.76
999.79	225.73
1000.08	225.74
1000.37	225.75
1000.66	225.72
1000.95	225.75
1001.24	225.73
1001.53	225.73
1001.82	225.71
1002.11	225.68
1002.40	225.70
1002.68	225.71
1002.97	225.74
1003.26	225.77
1003.55	225.75
1003.84	225.79
1004.13	225.83
1004.42	225.82
1004.71	225.83
1004.99	225.81
1005.28	225.82
1005.57	225.82
1005.86	225.78
1006.15	225.77
1006.44	225.76
1006.72	225.76
1007.01	225.75
1007.30	225.76
1007.59	225.76
1007.88	225.78
1008.17	225.78
1008.45	225.75
1008.74	225.70
1009.03	225.68
1009.32	225.67
1009.60	225.71
1009.89	225.72
1010.18	225.68
1010.47	225.70
1010.76	225.70
1011.04	225.70
1011.33	225.79
1011.62	225.78
1011.91	225.85
1012.19	225.85
1012.48	225.88
1012.77	225.89
1013.05	225.94
1013.34	225.96
1013.63	225.97
1013.92	226.00
1014.20	226.02
1014.49	226.04
1014.78	226.08
1015.06	226.04
1015.35	226.04
1015.64	226.02
1015.92	226.05
1016.21	226.06
1016.50	226.07
1016.78	226.10
1017.07	226.12
1017.36	226.04
1017.64	226.03
1017.93	226.04
1018.22	226.04
1018.50	226.05
1018.79	226.07
1019.08	226.03
1019.36	226.04
1019.65	226.04
1019.93	226.07
1020.22	226.08
1020.51	226.11
1020.79	226.07
1021.08	225.92
1021.36	226.04
1021.65	226.17
1021.94	226.03
1022.22	226.49
1022.51	225.92
1022.79	226.80
1023.08	226.05
1023.36	226.75
1023.65	225.61
>>>>>End Processed Spectral Data<<<<<
