SpectraSuite Data File
++++++++++++++++++++++++++++++++++++
Date: Fri Feb 01 15:09:56 EST 2013
User: group
Dark Spectrum Present: No
Reference Spectrum Present: No
Number of Sampled Component Spectra: 1
Spectrometers: USB2E7196
Integration Time (usec): 35000 (USB2E7196)
Spectra Averaged: 100 (USB2E7196)
Boxcar Smoothing: 10 (USB2E7196)
Correct for Electrical Dark: No (USB2E7196)
Strobe/Lamp Enabled: No (USB2E7196)
Correct for Detector Non-linearity: No (USB2E7196)
Correct for Stray Light: No (USB2E7196)
Number of Pixels in Processed Spectrum: 2048
>>>>>Begin Processed Spectral Data<<<<<
339.09	0.00
339.48	215.36
339.86	216.74
340.24	217.85
340.63	219.74
341.01	222.70
341.39	222.33
341.78	222.89
342.16	224.77
342.54	225.23
342.93	213.50
343.31	224.27
343.69	224.77
344.07	225.22
344.46	225.63
344.84	225.99
345.22	226.18
345.60	226.44
345.99	226.66
346.37	226.79
346.75	226.86
347.13	226.92
347.52	226.96
347.90	227.02
348.28	227.03
348.66	227.07
349.05	227.07
349.43	227.13
349.81	227.16
350.19	227.22
350.57	227.29
350.96	227.36
351.34	227.43
351.72	227.52
352.10	227.63
352.48	227.73
352.87	227.75
353.25	227.83
353.63	227.88
354.01	227.97
354.39	228.02
354.77	228.12
355.15	228.20
355.54	228.28
355.92	228.33
356.30	228.42
356.68	228.58
357.06	228.65
357.44	228.69
357.82	228.77
358.20	228.85
358.58	228.89
358.97	228.96
359.35	229.05
359.73	229.15
360.11	229.21
360.49	229.25
360.87	229.33
361.25	229.39
361.63	229.41
362.01	229.44
362.39	229.49
362.77	229.52
363.15	229.55
363.53	229.56
363.91	229.57
364.29	229.56
364.67	229.48
365.05	229.47
365.43	229.49
365.81	229.49
366.19	229.53
366.57	229.58
366.95	229.59
367.33	229.54
367.71	229.52
368.09	229.50
368.47	229.49
368.85	229.45
369.23	229.44
369.61	229.44
369.99	229.42
370.37	229.40
370.75	229.40
371.13	229.36
371.51	229.33
371.89	229.31
372.27	229.27
372.65	229.18
373.03	229.15
373.41	229.12
373.78	229.07
374.16	228.95
374.54	228.92
374.92	228.84
375.30	228.82
375.68	228.73
376.06	228.66
376.44	228.58
376.82	228.53
377.19	228.44
377.57	228.33
377.95	228.23
378.33	228.13
378.71	227.97
379.09	227.90
379.47	227.80
379.84	227.69
380.22	227.61
380.60	227.53
380.98	227.45
381.36	227.35
381.73	227.28
382.11	227.24
382.49	227.10
382.87	227.03
383.25	226.94
383.62	226.98
384.00	226.94
384.38	226.88
384.76	226.83
385.13	226.83
385.51	226.78
385.89	226.69
386.27	226.66
386.64	226.65
387.02	226.61
387.40	226.55
387.78	226.51
388.15	226.46
388.53	226.42
388.91	226.38
389.29	226.33
389.66	226.30
390.04	226.27
390.42	226.28
390.79	226.23
391.17	226.23
391.55	226.11
391.92	226.07
392.30	226.09
392.68	226.06
393.05	226.06
393.43	226.06
393.81	226.10
394.18	226.11
394.56	226.15
394.94	226.17
395.31	226.21
395.69	226.26
396.06	226.34
396.44	226.38
396.82	226.41
397.19	226.51
397.57	226.54
397.95	226.63
398.32	226.62
398.70	226.67
399.07	226.78
399.45	226.86
399.82	226.92
400.20	226.97
400.58	227.03
400.95	227.05
401.33	227.16
401.70	227.34
402.08	227.42
402.45	227.51
402.83	227.67
403.20	227.79
403.58	227.92
403.95	228.02
404.33	228.17
404.71	228.32
405.08	228.50
405.46	228.66
405.83	228.80
406.21	229.00
406.58	229.20
406.96	229.32
407.33	229.50
407.70	229.74
408.08	230.06
408.45	230.29
408.83	230.56
409.20	230.77
409.58	230.95
409.95	231.27
410.33	231.54
410.70	231.81
411.08	232.10
411.45	232.42
411.82	232.75
412.20	233.11
412.57	233.53
412.95	233.83
413.32	234.26
413.69	234.68
414.07	235.12
414.44	235.60
414.82	236.10
415.19	236.65
415.56	237.20
415.94	237.71
416.31	238.38
416.68	238.98
417.06	239.72
417.43	240.40
417.81	241.17
418.18	241.95
418.55	242.77
418.93	243.65
419.30	244.56
419.67	245.52
420.04	246.49
420.42	247.48
420.79	248.70
421.16	249.82
421.54	251.03
421.91	252.28
422.28	253.54
422.66	254.91
423.03	256.18
423.40	257.50
423.77	258.87
424.15	260.29
424.52	261.81
424.89	263.41
425.26	264.98
425.64	266.40
426.01	267.98
426.38	269.63
426.75	271.34
427.13	273.06
427.50	274.83
427.87	276.72
428.24	278.60
428.61	280.35
428.99	282.32
429.36	284.39
429.73	286.43
430.10	288.45
430.47	290.51
430.85	292.65
431.22	294.87
431.59	297.31
431.96	299.54
432.33	302.01
432.70	304.38
433.08	307.17
433.45	309.85
433.82	312.48
434.19	315.37
434.56	318.16
434.93	320.82
435.30	323.47
435.68	326.32
436.05	329.14
436.42	331.91
436.79	334.43
437.16	337.18
437.53	340.04
437.90	342.83
438.27	345.56
438.64	348.39
439.01	351.03
439.38	353.27
439.75	355.46
440.13	357.97
440.50	360.32
440.87	362.14
441.24	364.10
441.61	366.28
441.98	367.79
442.35	369.59
442.72	371.46
443.09	373.26
443.46	374.28
443.83	374.86
444.20	375.33
444.57	376.12
444.94	376.36
445.31	376.69
445.68	377.08
446.05	377.12
446.42	376.78
446.79	376.34
447.16	375.89
447.53	375.55
447.90	374.39
448.27	373.20
448.64	371.63
449.01	370.45
449.37	368.44
449.74	366.53
450.11	364.26
450.48	361.77
450.85	359.23
451.22	357.09
451.59	355.07
451.96	353.15
452.33	350.58
452.70	348.20
453.07	345.37
453.43	342.44
453.80	339.67
454.17	336.94
454.54	334.35
454.91	331.60
455.28	328.94
455.65	326.45
456.02	324.00
456.38	321.88
456.75	319.21
457.12	316.98
457.49	314.72
457.86	312.57
458.23	310.69
458.59	308.65
458.96	306.57
459.33	304.73
459.70	302.85
460.07	301.37
460.43	299.65
460.80	298.02
461.17	296.59
461.54	295.08
461.91	293.66
462.27	292.24
462.64	291.02
463.01	289.68
463.38	288.38
463.74	287.04
464.11	285.86
464.48	284.82
464.85	283.69
465.21	282.84
465.58	281.90
465.95	280.82
466.32	279.90
466.68	278.94
467.05	278.06
467.42	277.20
467.78	276.21
468.15	275.36
468.52	274.66
468.88	273.78
469.25	273.00
469.62	272.36
469.98	271.69
470.35	271.04
470.72	270.38
471.08	269.73
471.45	269.17
471.82	268.59
472.18	268.01
472.55	267.55
472.92	267.03
473.28	266.53
473.65	266.06
474.02	265.59
474.38	265.24
474.75	264.91
475.11	264.51
475.48	264.26
475.85	264.03
476.21	263.79
476.58	263.64
476.94	263.49
477.31	263.31
477.67	263.11
478.04	262.99
478.41	262.93
478.77	262.96
479.14	262.89
479.50	262.92
479.87	262.95
480.23	263.01
480.60	263.11
480.96	263.20
481.33	263.46
481.69	263.66
482.06	263.85
482.42	264.02
482.79	264.30
483.15	264.62
483.52	264.97
483.88	265.33
484.25	265.69
484.61	266.10
484.98	266.53
485.34	267.15
485.71	267.74
486.07	268.33
486.44	268.86
486.80	269.55
487.17	270.23
487.53	271.04
487.90	271.86
488.26	272.74
488.62	273.71
488.99	274.59
489.35	275.62
489.72	276.72
490.08	277.91
490.44	279.14
490.81	280.43
491.17	281.72
491.54	283.19
491.90	284.75
492.26	286.36
492.63	288.10
492.99	289.87
493.36	291.71
493.72	293.72
494.08	295.84
494.45	298.06
494.81	300.42
495.17	302.86
495.54	305.47
495.90	308.14
496.26	310.91
496.63	313.88
496.99	316.97
497.35	320.23
497.72	323.57
498.08	327.07
498.44	330.74
498.80	334.65
499.17	338.64
499.53	342.73
499.89	347.12
500.26	351.63
500.62	356.28
500.98	361.23
501.34	366.32
501.71	371.59
502.07	377.03
502.43	382.64
502.79	388.41
503.16	394.43
503.52	400.68
503.88	407.08
504.24	413.71
504.60	420.55
504.97	427.67
505.33	435.03
505.69	442.74
506.05	450.49
506.41	458.39
506.78	466.59
507.14	475.06
507.50	483.77
507.86	492.78
508.22	501.98
508.59	511.20
508.95	520.83
509.31	530.65
509.67	540.70
510.03	550.98
510.39	561.50
510.75	572.33
511.12	583.29
511.48	594.57
511.84	605.98
512.20	617.56
512.56	629.54
512.92	641.75
513.28	654.07
513.64	666.59
514.00	679.32
514.37	692.23
514.73	705.30
515.09	718.28
515.45	731.56
515.81	745.17
516.17	759.19
516.53	773.32
516.89	787.55
517.25	801.69
517.61	816.22
517.97	830.79
518.33	845.27
518.69	860.06
519.05	875.11
519.41	890.33
519.77	905.94
520.13	921.36
520.49	936.73
520.85	952.25
521.21	968.00
521.57	984.28
521.93	1000.18
522.29	1016.72
522.65	1033.07
523.01	1049.43
523.37	1065.44
523.73	1081.69
524.09	1097.85
524.45	1114.25
524.81	1131.08
525.17	1147.90
525.53	1164.78
525.89	1181.74
526.25	1198.58
526.61	1215.02
526.97	1231.84
527.33	1248.33
527.68	1264.99
528.04	1281.71
528.40	1298.47
528.76	1315.69
529.12	1332.32
529.48	1349.24
529.84	1365.32
530.20	1382.05
530.56	1399.13
530.91	1416.68
531.27	1433.50
531.63	1450.15
531.99	1466.65
532.35	1482.59
532.71	1498.59
533.07	1515.02
533.42	1530.89
533.78	1547.05
534.14	1563.42
534.50	1578.82
534.86	1594.67
535.21	1609.99
535.57	1625.88
535.93	1641.30
536.29	1656.05
536.65	1671.16
537.00	1685.99
537.36	1701.31
537.72	1715.90
538.08	1730.33
538.44	1744.19
538.79	1757.98
539.15	1771.65
539.51	1785.56
539.87	1800.14
540.22	1813.92
540.58	1827.73
540.94	1841.22
541.29	1854.26
541.65	1866.99
542.01	1880.36
542.37	1892.83
542.72	1905.33
543.08	1917.14
543.44	1929.59
543.79	1940.86
544.15	1951.78
544.51	1963.33
544.87	1974.34
545.22	1985.12
545.58	1995.42
545.94	2005.14
546.29	2015.17
546.65	2024.94
547.01	2034.17
547.36	2042.89
547.72	2051.40
548.07	2059.32
548.43	2067.56
548.79	2075.66
549.14	2083.16
549.50	2090.47
549.86	2098.29
550.21	2105.65
550.57	2112.82
550.92	2119.44
551.28	2126.63
551.64	2133.88
551.99	2140.48
552.35	2146.60
552.70	2152.67
553.06	2158.58
553.41	2164.98
553.77	2170.96
554.13	2177.12
554.48	2183.28
554.84	2188.61
555.19	2193.85
555.55	2198.81
555.90	2203.12
556.26	2207.81
556.61	2212.58
556.97	2216.64
557.32	2220.65
557.68	2224.60
558.03	2228.81
558.39	2232.53
558.74	2237.05
559.10	2240.84
559.45	2244.32
559.81	2248.66
560.16	2252.59
560.52	2255.76
560.87	2259.26
561.23	2261.92
561.58	2264.86
561.94	2267.25
562.29	2269.74
562.64	2272.25
563.00	2274.96
563.35	2278.52
563.71	2281.70
564.06	2284.95
564.42	2287.91
564.77	2290.32
565.12	2292.45
565.48	2294.19
565.83	2295.88
566.19	2297.01
566.54	2298.04
566.89	2299.14
567.25	2299.60
567.60	2300.78
567.96	2302.45
568.31	2303.03
568.66	2304.03
569.02	2304.44
569.37	2304.81
569.72	2305.53
570.08	2305.71
570.43	2305.47
570.78	2304.65
571.14	2302.99
571.49	2301.52
571.84	2301.06
572.20	2299.77
572.55	2298.77
572.90	2297.30
573.26	2295.85
573.61	2294.17
573.96	2292.01
574.31	2288.95
574.67	2285.90
575.02	2282.19
575.37	2278.64
575.72	2274.75
576.08	2271.40
576.43	2268.04
576.78	2264.24
577.13	2260.91
577.49	2257.72
577.84	2254.20
578.19	2250.40
578.54	2246.69
578.90	2242.21
579.25	2236.61
579.60	2231.51
579.95	2226.35
580.30	2221.25
580.66	2216.01
581.01	2210.86
581.36	2206.02
581.71	2201.66
582.06	2197.02
582.42	2192.42
582.77	2187.05
583.12	2182.35
583.47	2177.39
583.82	2172.03
584.17	2166.58
584.53	2160.94
584.88	2155.24
585.23	2149.32
585.58	2143.71
585.93	2138.18
586.28	2133.43
586.63	2128.32
586.98	2123.15
587.34	2118.30
587.69	2113.33
588.04	2107.90
588.39	2102.11
588.74	2095.50
589.09	2089.28
589.44	2082.35
589.79	2076.30
590.14	2070.65
590.49	2063.95
590.84	2057.48
591.19	2051.42
591.54	2045.04
591.89	2037.42
592.25	2030.42
592.60	2023.20
592.95	2015.54
593.30	2008.11
593.65	2000.35
594.00	1993.24
594.35	1986.01
594.70	1978.05
595.05	1970.68
595.40	1963.31
595.75	1955.77
596.10	1949.39
596.45	1942.56
596.80	1936.36
597.15	1929.51
597.50	1922.26
597.85	1916.00
598.19	1909.30
598.54	1902.21
598.89	1895.46
599.24	1889.73
599.59	1882.94
599.94	1876.82
600.29	1870.48
600.64	1863.81
600.99	1856.33
601.34	1849.32
601.69	1842.29
602.04	1835.32
602.39	1828.01
602.74	1821.17
603.08	1814.52
603.43	1807.84
603.78	1800.56
604.13	1793.41
604.48	1786.10
604.83	1779.25
605.18	1771.99
605.53	1763.90
605.87	1755.90
606.22	1748.61
606.57	1740.63
606.92	1733.42
607.27	1725.97
607.62	1719.00
607.96	1711.60
608.31	1704.96
608.66	1697.39
609.01	1689.84
609.36	1682.29
609.70	1674.15
610.05	1666.00
610.40	1658.22
610.75	1649.91
611.10	1642.30
611.44	1634.03
611.79	1626.27
612.14	1617.68
612.49	1608.77
612.83	1600.52
613.18	1592.46
613.53	1584.33
613.88	1575.72
614.22	1567.48
614.57	1559.05
614.92	1551.02
615.27	1543.46
615.61	1535.21
615.96	1527.19
616.31	1519.63
616.65	1512.31
617.00	1504.81
617.35	1497.23
617.70	1488.86
618.04	1480.32
618.39	1472.01
618.74	1464.33
619.08	1456.01
619.43	1448.56
619.78	1441.59
620.12	1434.38
620.47	1426.80
620.82	1418.67
621.16	1411.28
621.51	1403.64
621.85	1396.09
622.20	1387.53
622.55	1379.33
622.89	1371.48
623.24	1363.98
623.59	1356.52
623.93	1348.90
624.28	1341.67
624.62	1334.13
624.97	1327.01
625.32	1320.33
625.66	1313.47
626.01	1306.14
626.35	1298.56
626.70	1290.67
627.04	1282.94
627.39	1275.16
627.73	1267.76
628.08	1260.88
628.43	1253.60
628.77	1246.17
629.12	1238.51
629.46	1231.43
629.81	1224.04
630.15	1216.80
630.50	1209.37
630.84	1201.27
631.19	1193.43
631.53	1186.00
631.88	1178.51
632.22	1170.95
632.57	1163.68
632.91	1156.14
633.26	1148.81
633.60	1141.56
633.95	1134.55
634.29	1127.50
634.64	1120.90
634.98	1113.54
635.32	1106.44
635.67	1100.02
636.01	1093.50
636.36	1086.81
636.70	1080.33
637.05	1073.81
637.39	1067.45
637.73	1060.92
638.08	1055.09
638.42	1049.10
638.77	1042.61
639.11	1035.98
639.45	1029.67
639.80	1023.05
640.14	1016.63
640.49	1010.12
640.83	1003.84
641.17	997.59
641.52	991.39
641.86	985.12
642.20	979.36
642.55	973.15
642.89	966.62
643.23	960.10
643.58	954.30
643.92	948.09
644.26	941.99
644.61	935.98
644.95	930.01
645.29	923.38
645.64	916.71
645.98	910.46
646.32	904.66
646.66	898.58
647.01	892.78
647.35	887.11
647.69	881.28
648.04	875.82
648.38	870.10
648.72	864.04
649.06	857.93
649.41	852.05
649.75	846.00
650.09	840.04
650.43	834.26
650.78	828.11
651.12	822.17
651.46	816.54
651.80	810.80
652.14	805.32
652.49	799.93
652.83	794.77
653.17	789.04
653.51	783.32
653.85	777.94
654.20	772.23
654.54	766.28
654.88	760.60
655.22	754.74
655.56	749.07
655.90	743.65
656.25	738.38
656.59	733.09
656.93	728.07
657.27	722.92
657.61	717.52
657.95	712.45
658.29	707.42
658.64	702.11
658.98	696.91
659.32	691.53
659.66	686.36
660.00	680.98
660.34	676.10
660.68	671.24
661.02	666.26
661.36	661.59
661.70	657.10
662.05	652.75
662.39	648.34
662.73	643.85
663.07	639.46
663.41	635.01
663.75	630.49
664.09	625.93
664.43	621.57
664.77	617.46
665.11	613.26
665.45	609.12
665.79	605.12
666.13	600.95
666.47	596.86
666.81	592.73
667.15	588.68
667.49	584.79
667.83	581.07
668.17	577.13
668.51	573.07
668.85	569.07
669.19	565.23
669.53	561.45
669.87	557.58
670.21	553.91
670.55	550.27
670.89	546.83
671.23	543.38
671.57	539.91
671.91	536.36
672.25	532.88
672.58	529.44
672.92	525.96
673.26	522.77
673.60	519.63
673.94	516.53
674.28	513.68
674.62	510.78
674.96	507.62
675.30	504.65
675.64	501.77
675.97	498.96
676.31	496.16
676.65	493.22
676.99	490.53
677.33	487.72
677.67	484.92
678.01	481.90
678.34	478.95
678.68	476.07
679.02	473.28
679.36	470.47
679.70	467.77
680.04	465.05
680.37	462.20
680.71	459.44
681.05	456.86
681.39	454.16
681.73	451.48
682.06	449.00
682.40	446.47
682.74	443.98
683.08	441.47
683.42	438.84
683.75	436.36
684.09	433.84
684.43	431.36
684.77	428.96
685.10	426.63
685.44	424.35
685.78	422.14
686.12	419.93
686.45	417.64
686.79	415.37
687.13	413.21
687.46	411.09
687.80	408.94
688.14	406.72
688.48	404.65
688.81	402.41
689.15	400.28
689.49	398.17
689.82	396.10
690.16	394.02
690.50	392.08
690.83	390.15
691.17	388.20
691.51	386.32
691.84	384.44
692.18	382.51
692.52	380.55
692.85	378.60
693.19	376.73
693.52	374.94
693.86	373.15
694.20	371.36
694.53	369.54
694.87	367.71
695.21	365.94
695.54	364.13
695.88	362.46
696.21	360.68
696.55	359.04
696.88	357.34
697.22	355.70
697.56	354.12
697.89	352.50
698.23	350.87
698.56	349.23
698.90	347.63
699.23	346.01
699.57	344.45
699.90	342.93
700.24	341.36
700.58	339.82
700.91	338.30
701.25	336.90
701.58	335.55
701.92	334.18
702.25	332.81
702.59	331.46
702.92	330.12
703.26	328.87
703.59	327.61
703.93	326.45
704.26	325.24
704.60	323.93
704.93	322.60
705.26	321.41
705.60	320.29
705.93	319.18
706.27	318.17
706.60	317.12
706.94	316.01
707.27	314.89
707.61	313.88
707.94	312.82
708.27	311.71
708.61	310.63
708.94	309.65
709.28	308.67
709.61	307.72
709.94	306.75
710.28	305.72
710.61	304.72
710.95	303.65
711.28	302.68
711.61	301.74
711.95	300.88
712.28	299.86
712.61	298.89
712.95	297.96
713.28	297.07
713.61	296.20
713.95	295.33
714.28	294.51
714.61	293.59
714.95	292.75
715.28	291.87
715.61	291.03
715.95	290.19
716.28	289.39
716.61	288.56
716.95	287.77
717.28	287.06
717.61	286.29
717.94	285.54
718.28	284.76
718.61	284.03
718.94	283.32
719.27	282.71
719.61	282.05
719.94	281.38
720.27	280.68
720.60	279.99
720.94	279.41
721.27	278.85
721.60	278.29
721.93	277.72
722.27	277.24
722.60	276.67
722.93	276.10
723.26	275.53
723.59	275.01
723.93	274.47
724.26	273.88
724.59	273.35
724.92	272.84
725.25	272.32
725.59	271.82
725.92	271.34
726.25	270.85
726.58	270.36
726.91	269.88
727.24	269.40
727.57	268.94
727.91	268.41
728.24	267.91
728.57	267.42
728.90	266.95
729.23	266.42
729.56	265.99
729.89	265.51
730.22	265.02
730.55	264.54
730.89	264.10
731.22	263.69
731.55	263.26
731.88	262.87
732.21	262.47
732.54	262.04
732.87	261.58
733.20	261.17
733.53	260.76
733.86	260.37
734.19	259.96
734.52	259.58
734.85	259.27
735.18	258.86
735.51	258.57
735.84	258.22
736.17	257.86
736.50	257.42
736.83	257.16
737.16	256.85
737.49	256.52
737.82	256.16
738.15	255.81
738.48	255.45
738.81	255.09
739.14	254.75
739.47	254.44
739.80	254.16
740.13	253.84
740.46	253.51
740.79	253.20
741.12	252.89
741.45	252.56
741.78	252.21
742.11	251.91
742.44	251.53
742.77	251.24
743.10	250.94
743.43	250.67
743.75	250.33
744.08	250.18
744.41	249.87
744.74	249.62
745.07	249.33
745.40	249.10
745.73	248.86
746.06	248.57
746.39	248.28
746.71	247.97
747.04	247.67
747.37	247.42
747.70	247.14
748.03	246.87
748.36	246.65
748.68	246.43
749.01	246.17
749.34	245.93
749.67	245.69
750.00	245.47
750.33	245.34
750.65	245.10
750.98	244.74
751.31	244.54
751.64	244.30
751.97	244.15
752.29	243.93
752.62	243.72
752.95	243.54
753.28	243.37
753.60	243.22
753.93	243.06
754.26	242.85
754.59	242.64
754.91	242.45
755.24	242.27
755.57	242.07
755.90	241.89
756.22	241.71
756.55	241.55
756.88	241.36
757.20	241.12
757.53	240.93
757.86	240.76
758.19	240.61
758.51	240.47
758.84	240.25
759.17	240.08
759.49	239.89
759.82	239.74
760.15	239.59
760.47	239.40
760.80	239.24
761.13	239.12
761.45	239.00
761.78	238.87
762.11	238.72
762.43	238.57
762.76	238.46
763.08	238.34
763.41	238.20
763.74	238.10
764.06	237.95
764.39	237.81
764.71	237.69
765.04	237.56
765.37	237.41
765.69	237.28
766.02	237.16
766.34	237.05
766.67	236.95
767.00	236.81
767.32	236.76
767.65	236.75
767.97	236.61
768.30	236.47
768.62	236.35
768.95	236.23
769.27	236.09
769.60	235.99
769.92	235.82
770.25	235.73
770.57	235.58
770.90	235.47
771.22	235.37
771.55	235.30
771.87	235.17
772.20	235.08
772.52	235.08
772.85	235.10
773.17	234.98
773.50	234.85
773.82	234.75
774.15	234.62
774.47	234.44
774.80	234.35
775.12	234.25
775.45	234.16
775.77	234.08
776.09	234.03
776.42	233.94
776.74	233.90
777.07	233.76
777.39	233.69
777.72	233.61
778.04	233.52
778.36	233.40
778.69	233.34
779.01	233.31
779.33	233.13
779.66	232.97
779.98	232.89
780.31	232.83
780.63	232.80
780.95	232.74
781.28	232.68
781.60	232.60
781.92	232.54
782.25	232.48
782.57	232.41
782.89	232.34
783.22	232.26
783.54	232.18
783.86	232.15
784.19	232.07
784.51	232.03
784.83	232.02
785.16	231.99
785.48	231.95
785.80	231.87
786.12	231.82
786.45	231.77
786.77	231.72
787.09	231.68
787.42	231.59
787.74	231.56
788.06	231.51
788.38	231.49
788.71	231.46
789.03	231.43
789.35	231.40
789.67	231.35
789.99	231.33
790.32	231.31
790.64	231.28
790.96	231.37
791.28	231.30
791.61	231.24
791.93	231.20
792.25	231.13
792.57	231.13
792.89	231.07
793.21	231.04
793.54	231.00
793.86	230.94
794.18	230.91
794.50	230.87
794.82	230.84
795.14	230.83
795.47	230.81
795.79	230.78
796.11	230.75
796.43	230.72
796.75	230.69
797.07	230.63
797.39	230.60
797.71	230.50
798.04	230.48
798.36	230.43
798.68	230.38
799.00	230.36
799.32	230.30
799.64	230.31
799.96	230.27
800.28	230.28
800.60	230.28
800.92	230.29
801.24	230.26
801.56	230.25
801.89	230.17
802.21	230.13
802.53	230.09
802.85	230.07
803.17	230.07
803.49	230.02
803.81	230.02
804.13	229.97
804.45	229.91
804.77	229.90
805.09	229.89
805.41	229.90
805.73	229.85
806.05	229.83
806.37	229.77
806.69	229.75
807.01	229.72
807.33	229.70
807.65	229.62
807.97	229.64
808.28	229.62
808.60	229.63
808.92	229.62
809.24	229.65
809.56	229.61
809.88	229.57
810.20	229.58
810.52	229.56
810.84	229.52
811.16	229.47
811.48	229.41
811.80	229.40
812.12	229.33
812.43	229.34
812.75	229.33
813.07	229.30
813.39	229.27
813.71	229.25
814.03	229.18
814.35	229.17
814.67	229.09
814.98	229.05
815.30	229.05
815.62	228.98
815.94	228.89
816.26	228.90
816.58	228.86
816.89	228.85
817.21	228.83
817.53	228.82
817.85	228.82
818.17	228.80
818.48	228.75
818.80	228.79
819.12	228.75
819.44	228.73
819.76	228.74
820.07	228.72
820.39	228.70
820.71	228.68
821.03	228.63
821.34	228.60
821.66	228.59
821.98	228.56
822.30	228.54
822.61	228.58
822.93	228.49
823.25	228.46
823.57	228.40
823.88	228.36
824.20	228.37
824.52	228.37
824.83	228.38
825.15	228.38
825.47	228.35
825.79	228.37
826.10	228.30
826.42	228.26
826.74	228.25
827.05	228.21
827.37	228.22
827.69	228.23
828.00	228.23
828.32	228.19
828.64	228.19
828.95	228.23
829.27	228.20
829.58	228.22
829.90	228.23
830.22	228.27
830.53	228.24
830.85	228.22
831.17	228.21
831.48	228.21
831.80	228.20
832.11	228.19
832.43	228.20
832.75	228.20
833.06	228.27
833.38	228.25
833.69	228.25
834.01	228.28
834.32	228.27
834.64	228.28
834.96	228.31
835.27	228.30
835.59	228.27
835.90	228.26
836.22	228.26
836.53	228.25
836.85	228.21
837.16	228.34
837.48	228.34
837.79	228.36
838.11	228.38
838.42	228.38
838.74	228.37
839.05	228.33
839.37	228.34
839.68	228.29
840.00	228.29
840.31	228.32
840.63	228.28
840.94	228.28
841.26	228.28
841.57	228.25
841.88	228.24
842.20	228.25
842.51	228.24
842.83	228.23
843.14	228.30
843.46	228.30
843.77	228.25
844.08	228.23
844.40	228.18
844.71	228.13
845.03	228.11
845.34	228.11
845.65	228.13
845.97	228.14
846.28	228.13
846.60	228.17
846.91	228.15
847.22	228.15
847.54	228.17
847.85	228.12
848.16	228.14
848.48	228.13
848.79	228.15
849.10	228.16
849.42	228.14
849.73	228.06
850.04	228.05
850.36	228.00
850.67	228.01
850.98	228.02
851.30	228.05
851.61	228.06
851.92	228.06
852.23	228.06
852.55	228.03
852.86	228.02
853.17	227.98
853.49	228.00
853.80	228.00
854.11	228.00
854.42	228.03
854.74	228.00
855.05	228.00
855.36	227.94
855.67	227.91
855.99	227.92
856.30	227.99
856.61	227.98
856.92	227.98
857.23	227.95
857.55	227.93
857.86	227.88
858.17	227.87
858.48	227.83
858.79	227.83
859.11	227.82
859.42	227.79
859.73	227.75
860.04	227.69
860.35	227.65
860.66	227.61
860.98	227.59
861.29	227.61
861.60	227.56
861.91	227.58
862.22	227.57
862.53	227.56
862.84	227.46
863.16	227.50
863.47	227.47
863.78	227.45
864.09	227.41
864.40	227.43
864.71	227.43
865.02	227.43
865.33	227.37
865.64	227.35
865.95	227.33
866.27	227.41
866.58	227.42
866.89	227.44
867.20	227.45
867.51	227.39
867.82	227.35
868.13	227.41
868.44	227.37
868.75	227.38
869.06	227.35
869.37	227.34
869.68	227.27
869.99	227.28
870.30	227.29
870.61	227.35
870.92	227.35
871.23	227.34
871.54	227.36
871.85	227.38
872.16	227.39
872.47	227.37
872.78	227.32
873.09	227.35
873.40	227.34
873.71	227.32
874.02	227.36
874.33	227.41
874.64	227.42
874.95	227.44
875.26	227.43
875.56	227.44
875.87	227.47
876.18	227.50
876.49	227.59
876.80	227.62
877.11	227.58
877.42	227.60
877.73	227.61
878.04	227.60
878.35	227.62
878.66	227.66
878.96	227.69
879.27	227.72
879.58	227.71
879.89	227.72
880.20	227.76
880.51	227.76
880.82	227.75
881.12	227.73
881.43	227.75
881.74	227.74
882.05	227.77
882.36	227.79
882.67	227.82
882.97	227.75
883.28	227.74
883.59	227.75
883.90	227.72
884.21	227.76
884.51	227.74
884.82	227.75
885.13	227.73
885.44	227.74
885.74	227.71
886.05	227.69
886.36	227.68
886.67	227.67
886.98	227.73
887.28	227.76
887.59	227.77
887.90	227.75
888.20	227.76
888.51	227.78
888.82	227.75
889.13	227.72
889.43	227.78
889.74	227.74
890.05	227.72
890.35	227.75
890.66	227.70
890.97	227.70
891.28	227.66
891.58	227.66
891.89	227.65
892.20	227.62
892.50	227.63
892.81	227.63
893.12	227.62
893.42	227.57
893.73	227.58
894.04	227.55
894.34	227.54
894.65	227.54
894.95	227.49
895.26	227.50
895.57	227.55
895.87	227.47
896.18	227.51
896.48	227.51
896.79	227.50
897.10	227.49
897.40	227.50
897.71	227.50
898.01	227.46
898.32	227.45
898.63	227.48
898.93	227.48
899.24	227.43
899.54	227.44
899.85	227.39
900.15	227.34
900.46	227.33
900.76	227.33
901.07	227.33
901.38	227.35
901.68	227.35
901.99	227.30
902.29	227.25
902.60	227.23
902.90	227.21
903.21	227.18
903.51	227.16
903.82	227.17
904.12	227.18
904.43	227.17
904.73	227.17
905.03	227.13
905.34	227.20
905.64	227.20
905.95	227.17
906.25	227.20
906.56	227.19
906.86	227.18
907.17	227.17
907.47	227.15
907.77	227.11
908.08	227.06
908.38	227.05
908.69	227.06
908.99	227.08
909.30	227.08
909.60	227.07
909.90	227.10
910.21	227.08
910.51	227.07
910.81	227.09
911.12	227.10
911.42	227.13
911.73	227.07
912.03	227.09
912.33	227.11
912.64	227.09
912.94	227.10
913.24	227.08
913.55	227.11
913.85	227.11
914.15	227.14
914.46	227.16
914.76	227.15
915.06	227.16
915.37	227.15
915.67	227.16
915.97	227.18
916.27	227.14
916.58	227.13
916.88	227.14
917.18	227.15
917.49	227.22
917.79	227.22
918.09	227.19
918.39	227.24
918.70	227.26
919.00	227.25
919.30	227.28
919.60	227.30
919.91	227.30
920.21	227.31
920.51	227.30
920.81	227.31
921.12	227.34
921.42	227.35
921.72	227.37
922.02	227.37
922.32	227.42
922.63	227.46
922.93	227.54
923.23	227.50
923.53	227.49
923.83	227.44
924.13	227.48
924.44	227.52
924.74	227.51
925.04	227.51
925.34	227.54
925.64	227.53
925.94	227.53
926.24	227.52
926.55	227.52
926.85	227.54
927.15	227.54
927.45	227.57
927.75	227.57
928.05	227.59
928.35	227.60
928.65	227.55
928.95	227.55
929.26	227.50
929.56	227.56
929.86	227.56
930.16	227.57
930.46	227.54
930.76	227.49
931.06	227.47
931.36	227.44
931.66	227.45
931.96	227.42
932.26	227.40
932.56	227.40
932.86	227.40
933.16	227.37
933.46	227.35
933.76	227.30
934.06	227.29
934.36	227.28
934.66	227.27
934.96	227.30
935.26	227.30
935.56	227.31
935.86	227.25
936.16	227.24
936.46	227.15
936.76	227.13
937.06	227.14
937.36	227.11
937.66	227.13
937.96	227.10
938.26	227.08
938.56	227.11
938.86	227.07
939.16	227.08
939.46	227.10
939.76	227.12
940.06	227.10
940.35	227.08
940.65	227.03
940.95	226.99
941.25	226.94
941.55	226.90
941.85	226.89
942.15	226.94
942.45	226.96
942.75	227.02
943.04	227.05
943.34	227.09
943.64	227.09
943.94	227.05
944.24	227.06
944.54	227.06
944.84	227.04
945.13	227.05
945.43	227.02
945.73	227.01
946.03	227.00
946.33	227.00
946.62	227.02
946.92	227.02
947.22	227.04
947.52	227.04
947.82	227.07
948.11	227.08
948.41	227.04
948.71	227.02
949.01	227.01
949.31	226.98
949.60	226.94
949.90	226.95
950.20	226.95
950.50	226.98
950.79	226.96
951.09	226.98
951.39	226.95
951.69	226.97
951.98	226.99
952.28	226.97
952.58	226.95
952.87	226.93
953.17	226.95
953.47	226.98
953.76	227.04
954.06	227.03
954.36	227.01
954.66	227.02
954.95	227.03
955.25	227.03
955.55	227.07
955.84	227.08
956.14	227.11
956.44	227.14
956.73	227.10
957.03	227.14
957.32	227.17
957.62	227.18
957.92	227.21
958.21	227.20
958.51	227.33
958.81	227.37
959.10	227.39
959.40	227.41
959.69	227.40
959.99	227.37
960.29	227.36
960.58	227.35
960.88	227.39
961.17	227.38
961.47	227.39
961.76	227.33
962.06	227.31
962.36	227.29
962.65	227.27
962.95	227.28
963.24	227.27
963.54	227.24
963.83	227.25
964.13	227.21
964.42	227.19
964.72	227.11
965.01	227.11
965.31	227.09
965.60	227.09
965.90	227.13
966.19	227.10
966.49	227.16
966.78	227.15
967.08	227.14
967.37	227.15
967.67	227.14
967.96	227.18
968.26	227.18
968.55	227.21
968.85	227.21
969.14	227.20
969.43	227.19
969.73	227.19
970.02	227.19
970.32	227.19
970.61	227.16
970.91	227.16
971.20	227.14
971.49	227.16
971.79	227.15
972.08	227.12
972.38	227.13
972.67	227.08
972.96	227.10
973.26	227.04
973.55	227.05
973.85	227.02
974.14	226.98
974.43	226.98
974.73	226.97
975.02	226.97
975.31	226.98
975.61	226.98
975.90	226.98
976.19	226.98
976.49	226.99
976.78	227.02
977.07	227.00
977.37	227.00
977.66	227.00
977.95	226.99
978.24	226.97
978.54	227.00
978.83	227.01
979.12	227.02
979.42	227.06
979.71	227.04
980.00	227.06
980.29	227.09
980.59	227.08
980.88	227.09
981.17	227.08
981.46	227.08
981.76	227.06
982.05	227.10
982.34	227.09
982.63	227.09
982.93	227.10
983.22	227.12
983.51	227.11
983.80	227.12
984.09	227.14
984.39	227.11
984.68	227.10
984.97	227.08
985.26	227.05
985.55	227.01
985.85	226.99
986.14	226.97
986.43	227.00
986.72	227.00
987.01	226.96
987.30	226.94
987.59	226.96
987.89	226.97
988.18	226.89
988.47	226.88
988.76	226.87
989.05	226.83
989.34	226.79
989.63	226.85
989.92	226.83
990.22	226.83
990.51	226.85
990.80	226.79
991.09	226.83
991.38	226.86
991.67	226.88
991.96	226.87
992.25	226.89
992.54	226.87
992.83	226.88
993.12	226.89
993.41	226.92
993.70	226.92
993.99	226.94
994.28	226.98
994.58	227.02
994.87	227.01
995.16	227.00
995.45	227.03
995.74	226.98
996.03	226.97
996.32	226.98
996.61	227.00
996.90	227.04
997.19	227.01
997.48	226.99
997.77	226.97
998.06	226.98
998.34	226.97
998.63	226.95
998.92	226.97
999.21	226.96
999.50	226.93
999.79	226.90
1000.08	226.90
1000.37	226.91
1000.66	226.87
1000.95	226.91
1001.24	226.93
1001.53	226.93
1001.82	226.93
1002.11	226.92
1002.40	226.92
1002.68	226.93
1002.97	227.00
1003.26	226.97
1003.55	226.96
1003.84	226.96
1004.13	227.00
1004.42	227.01
1004.71	227.04
1004.99	227.01
1005.28	227.08
1005.57	227.10
1005.86	227.08
1006.15	227.08
1006.44	227.08
1006.72	227.08
1007.01	227.07
1007.30	227.06
1007.59	227.05
1007.88	227.06
1008.17	227.04
1008.45	227.03
1008.74	226.99
1009.03	226.95
1009.32	226.96
1009.60	226.98
1009.89	227.01
1010.18	226.95
1010.47	226.92
1010.76	226.90
1011.04	226.89
1011.33	226.89
1011.62	226.91
1011.91	226.93
1012.19	226.94
1012.48	226.92
1012.77	226.94
1013.05	226.95
1013.34	226.96
1013.63	226.98
1013.92	226.98
1014.20	226.99
1014.49	226.98
1014.78	227.01
1015.06	226.98
1015.35	226.97
1015.64	226.96
1015.92	226.94
1016.21	226.95
1016.50	226.96
1016.78	226.95
1017.07	226.98
1017.36	226.96
1017.64	226.94
1017.93	226.96
1018.22	226.93
1018.50	226.96
1018.79	226.94
1019.08	226.92
1019.36	226.90
1019.65	226.87
1019.93	226.89
1020.22	226.92
1020.51	226.97
1020.79	226.92
1021.08	227.05
1021.36	227.20
1021.65	226.73
1021.94	226.96
1022.22	226.60
1022.51	226.88
1022.79	227.02
1023.08	227.36
1023.36	228.03
1023.65	226.19
>>>>>End Processed Spectral Data<<<<<
