SpectraSuite Data File
++++++++++++++++++++++++++++++++++++
Date: Fri Feb 01 15:37:05 EST 2013
User: group
Dark Spectrum Present: No
Reference Spectrum Present: No
Number of Sampled Component Spectra: 1
Spectrometers: USB2E7196
Integration Time (usec): 35000 (USB2E7196)
Spectra Averaged: 100 (USB2E7196)
Boxcar Smoothing: 10 (USB2E7196)
Correct for Electrical Dark: No (USB2E7196)
Strobe/Lamp Enabled: No (USB2E7196)
Correct for Detector Non-linearity: No (USB2E7196)
Correct for Stray Light: No (USB2E7196)
Number of Pixels in Processed Spectrum: 2048
>>>>>Begin Processed Spectral Data<<<<<
339.09	0.00
339.48	215.00
339.86	216.30
340.24	217.56
340.63	218.95
341.01	221.80
341.39	221.87
341.78	222.75
342.16	224.46
342.54	224.84
342.93	213.19
343.31	223.99
343.69	224.54
344.07	225.01
344.46	225.45
344.84	225.84
345.22	226.04
345.60	226.26
345.99	226.46
346.37	226.58
346.75	226.68
347.13	226.75
347.52	226.81
347.90	226.90
348.28	226.92
348.66	226.98
349.05	227.02
349.43	227.04
349.81	227.06
350.19	227.09
350.57	227.14
350.96	227.22
351.34	227.29
351.72	227.34
352.10	227.43
352.48	227.51
352.87	227.55
353.25	227.64
353.63	227.73
354.01	227.81
354.39	227.88
354.77	227.96
355.15	228.03
355.54	228.07
355.92	228.09
356.30	228.16
356.68	228.27
357.06	228.30
357.44	228.34
357.82	228.39
358.20	228.42
358.58	228.47
358.97	228.53
359.35	228.57
359.73	228.67
360.11	228.72
360.49	228.75
360.87	228.81
361.25	228.86
361.63	228.96
362.01	228.99
362.39	229.06
362.77	229.08
363.15	229.09
363.53	229.14
363.91	229.17
364.29	229.19
364.67	229.11
365.05	229.12
365.43	229.16
365.81	229.18
366.19	229.26
366.57	229.29
366.95	229.29
367.33	229.25
367.71	229.23
368.09	229.24
368.47	229.21
368.85	229.20
369.23	229.19
369.61	229.11
369.99	229.10
370.37	229.08
370.75	229.09
371.13	229.07
371.51	229.00
371.89	228.96
372.27	228.92
372.65	228.90
373.03	228.86
373.41	228.82
373.78	228.75
374.16	228.65
374.54	228.57
374.92	228.47
375.30	228.42
375.68	228.36
376.06	228.27
376.44	228.20
376.82	228.14
377.19	228.06
377.57	227.96
377.95	227.86
378.33	227.77
378.71	227.64
379.09	227.61
379.47	227.56
379.84	227.49
380.22	227.40
380.60	227.29
380.98	227.23
381.36	227.13
381.73	227.10
382.11	227.03
382.49	226.98
382.87	226.93
383.25	226.89
383.62	226.91
384.00	226.86
384.38	226.82
384.76	226.77
385.13	226.75
385.51	226.73
385.89	226.69
386.27	226.62
386.64	226.57
387.02	226.51
387.40	226.44
387.78	226.41
388.15	226.39
388.53	226.36
388.91	226.33
389.29	226.30
389.66	226.25
390.04	226.23
390.42	226.22
390.79	226.22
391.17	226.17
391.55	226.07
391.92	226.07
392.30	226.05
392.68	226.02
393.05	226.01
393.43	226.01
393.81	226.02
394.18	226.05
394.56	226.09
394.94	226.15
395.31	226.17
395.69	226.24
396.06	226.27
396.44	226.31
396.82	226.34
397.19	226.43
397.57	226.47
397.95	226.55
398.32	226.60
398.70	226.67
399.07	226.77
399.45	226.83
399.82	226.91
400.20	226.98
400.58	227.10
400.95	227.15
401.33	227.25
401.70	227.38
402.08	227.47
402.45	227.58
402.83	227.69
403.20	227.79
403.58	227.89
403.95	228.01
404.33	228.15
404.71	228.31
405.08	228.52
405.46	228.65
405.83	228.80
406.21	228.97
406.58	229.13
406.96	229.27
407.33	229.46
407.70	229.66
408.08	229.94
408.45	230.15
408.83	230.39
409.20	230.61
409.58	230.80
409.95	231.09
410.33	231.35
410.70	231.60
411.08	231.94
411.45	232.23
411.82	232.54
412.20	232.91
412.57	233.29
412.95	233.57
413.32	234.00
413.69	234.42
414.07	234.86
414.44	235.32
414.82	235.86
415.19	236.39
415.56	236.93
415.94	237.47
416.31	238.10
416.68	238.72
417.06	239.43
417.43	240.16
417.81	240.92
418.18	241.68
418.55	242.51
418.93	243.38
419.30	244.28
419.67	245.24
420.04	246.17
420.42	247.16
420.79	248.35
421.16	249.52
421.54	250.72
421.91	251.96
422.28	253.21
422.66	254.48
423.03	255.80
423.40	257.13
423.77	258.52
424.15	259.96
424.52	261.45
424.89	263.06
425.26	264.57
425.64	266.02
426.01	267.61
426.38	269.25
426.75	270.91
427.13	272.61
427.50	274.38
427.87	276.24
428.24	278.07
428.61	279.80
428.99	281.70
429.36	283.76
429.73	285.74
430.10	287.78
430.47	289.86
430.85	291.95
431.22	294.22
431.59	296.61
431.96	298.82
432.33	301.29
432.70	303.65
433.08	306.44
433.45	309.06
433.82	311.68
434.19	314.61
434.56	317.42
434.93	320.03
435.30	322.68
435.68	325.60
436.05	328.50
436.42	331.30
436.79	333.85
437.16	336.54
437.53	339.35
437.90	342.18
438.27	344.93
438.64	347.73
439.01	350.29
439.38	352.55
439.75	354.69
440.13	357.19
440.50	359.51
440.87	361.39
441.24	363.37
441.61	365.50
441.98	367.01
442.35	368.82
442.72	370.74
443.09	372.58
443.46	373.53
443.83	374.09
444.20	374.60
444.57	375.42
444.94	375.70
445.31	376.07
445.68	376.39
446.05	376.49
446.42	376.12
446.79	375.75
447.16	375.29
447.53	375.00
447.90	373.82
448.27	372.69
448.64	371.05
449.01	369.89
449.37	367.94
449.74	365.99
450.11	363.73
450.48	361.24
450.85	358.65
451.22	356.53
451.59	354.51
451.96	352.57
452.33	349.96
452.70	347.62
453.07	344.80
453.43	341.92
453.80	339.15
454.17	336.50
454.54	333.89
454.91	331.18
455.28	328.51
455.65	326.04
456.02	323.59
456.38	321.48
456.75	318.82
457.12	316.56
457.49	314.35
457.86	312.19
458.23	310.36
458.59	308.34
458.96	306.28
459.33	304.44
459.70	302.58
460.07	301.09
460.43	299.37
460.80	297.77
461.17	296.29
461.54	294.76
461.91	293.34
462.27	291.92
462.64	290.65
463.01	289.29
463.38	287.99
463.74	286.64
464.11	285.46
464.48	284.39
464.85	283.23
465.21	282.40
465.58	281.47
465.95	280.36
466.32	279.46
466.68	278.54
467.05	277.61
467.42	276.71
467.78	275.80
468.15	274.93
468.52	274.21
468.88	273.36
469.25	272.61
469.62	271.99
469.98	271.31
470.35	270.69
470.72	270.07
471.08	269.41
471.45	268.84
471.82	268.30
472.18	267.74
472.55	267.35
472.92	266.78
473.28	266.33
473.65	265.85
474.02	265.35
474.38	264.99
474.75	264.72
475.11	264.33
475.48	264.05
475.85	263.82
476.21	263.62
476.58	263.44
476.94	263.27
477.31	263.06
477.67	262.89
478.04	262.74
478.41	262.73
478.77	262.75
479.14	262.71
479.50	262.70
479.87	262.75
480.23	262.86
480.60	262.92
480.96	263.02
481.33	263.25
481.69	263.44
482.06	263.61
482.42	263.76
482.79	264.07
483.15	264.38
483.52	264.76
483.88	265.11
484.25	265.46
484.61	265.88
484.98	266.33
485.34	266.91
485.71	267.52
486.07	268.13
486.44	268.72
486.80	269.40
487.17	270.15
487.53	270.98
487.90	271.81
488.26	272.76
488.62	273.77
488.99	274.75
489.35	275.82
489.72	276.98
490.08	278.19
490.44	279.44
490.81	280.78
491.17	282.14
491.54	283.64
491.90	285.25
492.26	286.91
492.63	288.66
492.99	290.44
493.36	292.36
493.72	294.38
494.08	296.48
494.45	298.74
494.81	301.14
495.17	303.62
495.54	306.21
495.90	308.88
496.26	311.66
496.63	314.63
496.99	317.72
497.35	320.98
497.72	324.39
498.08	327.92
498.44	331.61
498.80	335.51
499.17	339.59
499.53	343.72
499.89	348.12
500.26	352.63
500.62	357.37
500.98	362.35
501.34	367.40
501.71	372.73
502.07	378.14
502.43	383.73
502.79	389.49
503.16	395.50
503.52	401.77
503.88	408.20
504.24	414.84
504.60	421.75
504.97	428.83
505.33	436.17
505.69	443.88
506.05	451.63
506.41	459.54
506.78	467.66
507.14	476.13
507.50	484.83
507.86	493.89
508.22	503.00
508.59	512.21
508.95	521.84
509.31	531.70
509.67	541.83
510.03	552.11
510.39	562.69
510.75	573.56
511.12	584.51
511.48	595.82
511.84	607.21
512.20	618.72
512.56	630.76
512.92	642.93
513.28	655.21
513.64	667.73
514.00	680.42
514.37	693.29
514.73	706.40
515.09	719.48
515.45	732.78
515.81	746.35
516.17	760.33
516.53	774.45
516.89	788.62
517.25	802.75
517.61	817.17
517.97	831.60
518.33	845.99
518.69	860.75
519.05	875.77
519.41	891.07
519.77	906.71
520.13	922.13
520.49	937.52
520.85	953.04
521.21	968.75
521.57	985.04
521.93	1000.89
522.29	1017.18
522.65	1033.34
523.01	1049.49
523.37	1065.57
523.73	1081.72
524.09	1097.72
524.45	1113.96
524.81	1130.70
525.17	1147.61
525.53	1164.61
525.89	1181.47
526.25	1198.42
526.61	1214.77
526.97	1231.49
527.33	1247.87
527.68	1264.44
528.04	1280.99
528.40	1297.55
528.76	1314.56
529.12	1331.21
529.48	1348.07
529.84	1364.22
530.20	1380.88
530.56	1397.98
530.91	1415.51
531.27	1432.36
531.63	1448.85
531.99	1465.47
532.35	1481.35
532.71	1497.22
533.07	1513.47
533.42	1529.45
533.78	1545.39
534.14	1561.82
534.50	1577.22
534.86	1593.12
535.21	1608.39
535.57	1624.25
535.93	1639.74
536.29	1654.67
536.65	1669.77
537.00	1684.60
537.36	1699.99
537.72	1714.65
538.08	1729.06
538.44	1742.73
538.79	1756.64
539.15	1770.51
539.51	1784.39
539.87	1798.74
540.22	1812.48
540.58	1826.29
540.94	1839.63
541.29	1852.56
541.65	1865.19
542.01	1878.33
542.37	1890.80
542.72	1903.28
543.08	1915.23
543.44	1927.64
543.79	1938.81
544.15	1949.79
544.51	1961.30
544.87	1972.17
545.22	1983.03
545.58	1993.18
545.94	2003.02
546.29	2012.86
546.65	2022.63
547.01	2031.84
547.36	2040.64
547.72	2049.02
548.07	2056.91
548.43	2065.07
548.79	2073.31
549.14	2080.79
549.50	2088.13
549.86	2095.87
550.21	2103.10
550.57	2110.14
550.92	2116.72
551.28	2123.83
551.64	2130.85
551.99	2137.41
552.35	2143.54
552.70	2149.58
553.06	2155.51
553.41	2161.95
553.77	2167.92
554.13	2173.97
554.48	2180.11
554.84	2185.48
555.19	2190.88
555.55	2195.92
555.90	2200.39
556.26	2205.01
556.61	2209.75
556.97	2214.08
557.32	2218.06
557.68	2222.25
558.03	2226.64
558.39	2230.45
558.74	2234.87
559.10	2238.79
559.45	2242.41
559.81	2246.77
560.16	2250.58
560.52	2253.81
560.87	2257.15
561.23	2259.80
561.58	2262.93
561.94	2265.33
562.29	2267.77
562.64	2270.38
563.00	2273.04
563.35	2276.49
563.71	2279.61
564.06	2282.83
564.42	2285.51
564.77	2287.96
565.12	2290.11
565.48	2291.97
565.83	2293.66
566.19	2295.03
566.54	2295.87
566.89	2297.08
567.25	2297.58
567.60	2298.88
567.96	2300.63
568.31	2301.51
568.66	2302.68
569.02	2303.08
569.37	2303.55
569.72	2304.29
570.08	2304.42
570.43	2304.44
570.78	2303.90
571.14	2302.38
571.49	2301.00
571.84	2300.78
572.20	2299.55
572.55	2298.47
572.90	2296.96
573.26	2295.53
573.61	2293.82
573.96	2291.99
574.31	2288.93
574.67	2285.87
575.02	2282.16
575.37	2278.82
575.72	2274.85
576.08	2271.47
576.43	2268.14
576.78	2264.31
577.13	2261.29
577.49	2258.09
577.84	2254.46
578.19	2250.72
578.54	2247.05
578.90	2242.66
579.25	2237.07
579.60	2232.17
579.95	2227.17
580.30	2221.97
580.66	2216.85
581.01	2211.95
581.36	2206.92
581.71	2202.74
582.06	2198.21
582.42	2193.77
582.77	2188.52
583.12	2183.90
583.47	2179.07
583.82	2173.86
584.17	2168.58
584.53	2163.00
584.88	2157.44
585.23	2151.66
585.58	2146.07
585.93	2140.58
586.28	2135.84
586.63	2130.65
586.98	2125.51
587.34	2120.83
587.69	2115.92
588.04	2110.59
588.39	2104.84
588.74	2098.41
589.09	2092.20
589.44	2085.42
589.79	2079.46
590.14	2073.72
590.49	2067.28
590.84	2060.92
591.19	2054.95
591.54	2048.44
591.89	2040.97
592.25	2034.04
592.60	2026.88
592.95	2019.24
593.30	2011.95
593.65	2004.36
594.00	1997.33
594.35	1990.30
594.70	1982.10
595.05	1974.86
595.40	1967.59
595.75	1960.02
596.10	1953.76
596.45	1946.89
596.80	1940.75
597.15	1933.93
597.50	1926.74
597.85	1920.26
598.19	1913.59
598.54	1906.47
598.89	1899.94
599.24	1894.04
599.59	1887.34
599.94	1881.03
600.29	1874.77
600.64	1868.12
600.99	1860.55
601.34	1853.73
601.69	1846.52
602.04	1839.64
602.39	1832.20
602.74	1825.33
603.08	1818.70
603.43	1811.92
603.78	1804.65
604.13	1797.45
604.48	1790.11
604.83	1783.28
605.18	1776.18
605.53	1768.17
605.87	1760.11
606.22	1752.83
606.57	1744.77
606.92	1737.46
607.27	1730.29
607.62	1723.20
607.96	1715.83
608.31	1709.19
608.66	1701.54
609.01	1693.98
609.36	1686.53
609.70	1678.56
610.05	1670.43
610.40	1662.58
610.75	1654.21
611.10	1646.46
611.44	1638.02
611.79	1630.07
612.14	1621.34
612.49	1612.22
612.83	1603.78
613.18	1595.70
613.53	1587.59
613.88	1579.17
614.22	1570.86
614.57	1562.27
614.92	1554.28
615.27	1546.61
615.61	1538.39
615.96	1530.49
616.31	1522.84
616.65	1515.47
617.00	1507.82
617.35	1500.27
617.70	1491.97
618.04	1483.44
618.39	1475.31
618.74	1467.62
619.08	1459.40
619.43	1451.82
619.78	1444.85
620.12	1437.60
620.47	1429.98
620.82	1421.88
621.16	1414.48
621.51	1406.97
621.85	1399.25
622.20	1390.68
622.55	1382.54
622.89	1374.67
623.24	1366.98
623.59	1359.63
623.93	1352.02
624.28	1344.84
624.62	1337.20
624.97	1330.06
625.32	1323.47
625.66	1316.47
626.01	1309.28
626.35	1301.83
626.70	1294.06
627.04	1286.37
627.39	1278.73
627.73	1271.41
628.08	1264.30
628.43	1256.86
628.77	1249.41
629.12	1241.87
629.46	1234.81
629.81	1227.38
630.15	1220.14
630.50	1212.66
630.84	1204.53
631.19	1196.67
631.53	1189.19
631.88	1181.72
632.22	1174.09
632.57	1166.74
632.91	1159.22
633.26	1151.83
633.60	1144.41
633.95	1137.40
634.29	1130.37
634.64	1123.65
634.98	1116.28
635.32	1109.27
635.67	1102.79
636.01	1096.16
636.36	1089.42
636.70	1082.92
637.05	1076.32
637.39	1069.86
637.73	1063.34
638.08	1057.41
638.42	1051.40
638.77	1045.02
639.11	1038.32
639.45	1031.93
639.80	1025.27
640.14	1018.81
640.49	1012.29
640.83	1006.04
641.17	999.84
641.52	993.58
641.86	987.19
642.20	981.27
642.55	974.97
642.89	968.49
643.23	961.98
643.58	956.22
643.92	950.02
644.26	943.91
644.61	937.90
644.95	931.92
645.29	925.31
645.64	918.58
645.98	912.20
646.32	906.38
646.66	900.35
647.01	894.54
647.35	888.86
647.69	883.02
648.04	877.44
648.38	871.53
648.72	865.47
649.06	859.37
649.41	853.64
649.75	847.63
650.09	841.71
650.43	835.94
650.78	829.80
651.12	823.78
651.46	818.10
651.80	812.35
652.14	806.98
652.49	801.57
652.83	796.35
653.17	790.56
653.51	784.87
653.85	779.45
654.20	773.85
654.54	767.89
654.88	762.17
655.22	756.31
655.56	750.68
655.90	745.28
656.25	740.04
656.59	734.63
656.93	729.60
657.27	724.37
657.61	718.97
657.95	713.83
658.29	708.74
658.64	703.52
658.98	698.23
659.32	692.76
659.66	687.54
660.00	682.23
660.34	677.42
660.68	672.53
661.02	667.55
661.36	662.75
661.70	658.23
662.05	653.92
662.39	649.57
662.73	645.07
663.07	640.59
663.41	636.12
663.75	631.61
664.09	626.99
664.43	622.64
664.77	618.43
665.11	614.16
665.45	610.06
665.79	605.93
666.13	601.81
666.47	597.73
666.81	593.58
667.15	589.49
667.49	585.57
667.83	581.78
668.17	577.80
668.51	573.79
668.85	569.77
669.19	565.90
669.53	562.09
669.87	558.19
670.21	554.51
670.55	550.88
670.89	547.42
671.23	544.04
671.57	540.49
671.91	536.98
672.25	533.56
672.58	530.11
672.92	526.74
673.26	523.61
673.60	520.47
673.94	517.38
674.28	514.46
674.62	511.48
674.96	508.40
675.30	505.49
675.64	502.58
675.97	499.85
676.31	496.98
676.65	494.02
676.99	491.38
677.33	488.53
677.67	485.75
678.01	482.77
678.34	479.74
678.68	476.94
679.02	474.15
679.36	471.41
679.70	468.65
680.04	465.87
680.37	463.01
680.71	460.29
681.05	457.73
681.39	455.06
681.73	452.42
682.06	449.86
682.40	447.40
682.74	444.88
683.08	442.29
683.42	439.71
683.75	437.25
684.09	434.70
684.43	432.25
684.77	429.86
685.10	427.53
685.44	425.28
685.78	422.97
686.12	420.71
686.45	418.40
686.79	416.12
687.13	413.97
687.46	411.78
687.80	409.58
688.14	407.32
688.48	405.23
688.81	403.03
689.15	400.90
689.49	398.75
689.82	396.64
690.16	394.56
690.50	392.62
690.83	390.69
691.17	388.74
691.51	386.84
691.84	384.93
692.18	382.93
692.52	380.90
692.85	378.96
693.19	377.11
693.52	375.28
693.86	373.45
694.20	371.66
694.53	369.89
694.87	368.03
695.21	366.25
695.54	364.42
695.88	362.69
696.21	360.94
696.55	359.25
696.88	357.55
697.22	355.89
697.56	354.28
697.89	352.57
698.23	350.93
698.56	349.29
698.90	347.67
699.23	346.04
699.57	344.52
699.90	342.99
700.24	341.43
700.58	339.87
700.91	338.33
701.25	336.87
701.58	335.43
701.92	334.06
702.25	332.66
702.59	331.29
702.92	329.93
703.26	328.62
703.59	327.32
703.93	326.17
704.26	324.91
704.60	323.57
704.93	322.33
705.26	321.11
705.60	319.96
705.93	318.83
706.27	317.83
706.60	316.77
706.94	315.67
707.27	314.55
707.61	313.49
707.94	312.47
708.27	311.37
708.61	310.34
708.94	309.36
709.28	308.42
709.61	307.47
709.94	306.55
710.28	305.51
710.61	304.52
710.95	303.46
711.28	302.61
711.61	301.72
711.95	300.81
712.28	299.82
712.61	298.84
712.95	297.92
713.28	297.03
713.61	296.13
713.95	295.26
714.28	294.46
714.61	293.64
714.95	292.84
715.28	292.04
715.61	291.18
715.95	290.34
716.28	289.47
716.61	288.65
716.95	287.83
717.28	287.15
717.61	286.42
717.94	285.64
718.28	284.81
718.61	284.07
718.94	283.41
719.27	282.82
719.61	282.20
719.94	281.54
720.27	280.86
720.60	280.21
720.94	279.59
721.27	278.95
721.60	278.35
721.93	277.77
722.27	277.22
722.60	276.67
722.93	276.12
723.26	275.60
723.59	275.03
723.93	274.52
724.26	273.96
724.59	273.39
724.92	272.93
725.25	272.44
725.59	271.91
725.92	271.39
726.25	270.88
726.58	270.37
726.91	269.86
727.24	269.38
727.57	268.93
727.91	268.41
728.24	267.94
728.57	267.50
728.90	267.06
729.23	266.55
729.56	266.14
729.89	265.66
730.22	265.22
730.55	264.75
730.89	264.29
731.22	263.85
731.55	263.40
731.88	262.95
732.21	262.52
732.54	262.10
732.87	261.68
733.20	261.26
733.53	260.88
733.86	260.52
734.19	260.10
734.52	259.71
734.85	259.41
735.18	259.02
735.51	258.63
735.84	258.19
736.17	257.84
736.50	257.41
736.83	257.11
737.16	256.73
737.49	256.42
737.82	256.01
738.15	255.67
738.48	255.34
738.81	255.01
739.14	254.67
739.47	254.35
739.80	254.02
740.13	253.72
740.46	253.36
740.79	253.01
741.12	252.71
741.45	252.38
741.78	251.99
742.11	251.68
742.44	251.31
742.77	251.02
743.10	250.73
743.43	250.43
743.75	250.09
744.08	249.93
744.41	249.64
744.74	249.41
745.07	249.12
745.40	248.87
745.73	248.62
746.06	248.33
746.39	248.06
746.71	247.79
747.04	247.50
747.37	247.25
747.70	247.01
748.03	246.75
748.36	246.52
748.68	246.27
749.01	246.03
749.34	245.81
749.67	245.59
750.00	245.35
750.33	245.18
750.65	244.97
750.98	244.63
751.31	244.42
751.64	244.20
751.97	244.04
752.29	243.83
752.62	243.57
752.95	243.37
753.28	243.18
753.60	242.97
753.93	242.80
754.26	242.61
754.59	242.40
754.91	242.23
755.24	242.04
755.57	241.85
755.90	241.69
756.22	241.53
756.55	241.32
756.88	241.13
757.20	240.91
757.53	240.71
757.86	240.56
758.19	240.39
758.51	240.24
758.84	240.04
759.17	239.86
759.49	239.72
759.82	239.60
760.15	239.46
760.47	239.30
760.80	239.11
761.13	238.98
761.45	238.84
761.78	238.64
762.11	238.51
762.43	238.41
762.76	238.26
763.08	238.12
763.41	238.01
763.74	237.88
764.06	237.69
764.39	237.56
764.71	237.41
765.04	237.30
765.37	237.16
765.69	237.04
766.02	236.93
766.34	236.80
766.67	236.66
767.00	236.57
767.32	236.49
767.65	236.44
767.97	236.31
768.30	236.21
768.62	236.14
768.95	236.03
769.27	235.91
769.60	235.84
769.92	235.72
770.25	235.60
770.57	235.50
770.90	235.44
771.22	235.34
771.55	235.27
771.87	235.17
772.20	235.09
772.52	235.08
772.85	235.07
773.17	235.00
773.50	234.90
773.82	234.79
774.15	234.67
774.47	234.52
774.80	234.41
775.12	234.33
775.45	234.24
775.77	234.12
776.09	234.03
776.42	233.94
776.74	233.88
777.07	233.80
777.39	233.74
777.72	233.64
778.04	233.58
778.36	233.48
778.69	233.38
779.01	233.30
779.33	233.14
779.66	232.98
779.98	232.88
780.31	232.81
780.63	232.73
780.95	232.65
781.28	232.58
781.60	232.51
781.92	232.40
782.25	232.31
782.57	232.24
782.89	232.16
783.22	232.06
783.54	232.01
783.86	231.93
784.19	231.86
784.51	231.83
784.83	231.73
785.16	231.65
785.48	231.58
785.80	231.56
786.12	231.54
786.45	231.49
786.77	231.47
787.09	231.43
787.42	231.37
787.74	231.36
788.06	231.32
788.38	231.28
788.71	231.25
789.03	231.23
789.35	231.20
789.67	231.17
789.99	231.14
790.32	231.07
790.64	231.07
790.96	231.10
791.28	231.05
791.61	231.02
791.93	231.04
792.25	231.02
792.57	231.00
792.89	230.92
793.21	230.89
793.54	230.84
793.86	230.79
794.18	230.77
794.50	230.72
794.82	230.69
795.14	230.67
795.47	230.63
795.79	230.61
796.11	230.58
796.43	230.56
796.75	230.56
797.07	230.53
797.39	230.49
797.71	230.38
798.04	230.35
798.36	230.30
798.68	230.23
799.00	230.22
799.32	230.18
799.64	230.18
799.96	230.17
800.28	230.13
800.60	230.10
800.92	230.09
801.24	230.06
801.56	230.04
801.89	229.99
802.21	229.98
802.53	229.94
802.85	229.91
803.17	229.93
803.49	229.86
803.81	229.80
804.13	229.78
804.45	229.74
804.77	229.72
805.09	229.75
805.41	229.70
805.73	229.64
806.05	229.59
806.37	229.54
806.69	229.49
807.01	229.50
807.33	229.51
807.65	229.44
807.97	229.45
808.28	229.42
808.60	229.41
808.92	229.36
809.24	229.39
809.56	229.36
809.88	229.29
810.20	229.30
810.52	229.33
810.84	229.30
811.16	229.31
811.48	229.27
811.80	229.25
812.12	229.25
812.43	229.28
812.75	229.27
813.07	229.20
813.39	229.16
813.71	229.13
814.03	229.08
814.35	229.09
814.67	229.03
814.98	229.00
815.30	228.97
815.62	228.96
815.94	228.87
816.26	228.86
816.58	228.83
816.89	228.81
817.21	228.74
817.53	228.72
817.85	228.70
818.17	228.70
818.48	228.65
818.80	228.65
819.12	228.57
819.44	228.50
819.76	228.51
820.07	228.52
820.39	228.47
820.71	228.43
821.03	228.40
821.34	228.38
821.66	228.36
821.98	228.37
822.30	228.36
822.61	228.37
822.93	228.36
823.25	228.35
823.57	228.31
823.88	228.32
824.20	228.29
824.52	228.28
824.83	228.26
825.15	228.23
825.47	228.21
825.79	228.24
826.10	228.22
826.42	228.24
826.74	228.19
827.05	228.20
827.37	228.23
827.69	228.20
828.00	228.18
828.32	228.17
828.64	228.16
828.95	228.20
829.27	228.18
829.58	228.16
829.90	228.18
830.22	228.19
830.53	228.16
830.85	228.15
831.17	228.12
831.48	228.08
831.80	228.08
832.11	228.07
832.43	228.05
832.75	228.07
833.06	228.10
833.38	228.09
833.69	228.06
834.01	228.05
834.32	228.06
834.64	228.03
834.96	228.04
835.27	228.02
835.59	227.96
835.90	227.94
836.22	227.95
836.53	227.90
836.85	227.85
837.16	227.96
837.48	227.95
837.79	227.99
838.11	228.03
838.42	228.02
838.74	228.04
839.05	228.03
839.37	228.01
839.68	227.96
840.00	227.95
840.31	227.96
840.63	227.94
840.94	227.92
841.26	227.94
841.57	227.90
841.88	227.87
842.20	227.89
842.51	227.87
842.83	227.85
843.14	227.92
843.46	227.95
843.77	227.88
844.08	227.88
844.40	227.85
844.71	227.80
845.03	227.80
845.34	227.76
845.65	227.72
845.97	227.72
846.28	227.70
846.60	227.73
846.91	227.69
847.22	227.69
847.54	227.70
847.85	227.67
848.16	227.68
848.48	227.66
848.79	227.66
849.10	227.67
849.42	227.65
849.73	227.55
850.04	227.55
850.36	227.51
850.67	227.50
850.98	227.47
851.30	227.49
851.61	227.45
851.92	227.48
852.23	227.53
852.55	227.52
852.86	227.50
853.17	227.49
853.49	227.50
853.80	227.50
854.11	227.49
854.42	227.51
854.74	227.48
855.05	227.48
855.36	227.48
855.67	227.45
855.99	227.45
856.30	227.56
856.61	227.54
856.92	227.54
857.23	227.54
857.55	227.53
857.86	227.49
858.17	227.52
858.48	227.47
858.79	227.44
859.11	227.44
859.42	227.43
859.73	227.41
860.04	227.44
860.35	227.40
860.66	227.37
860.98	227.36
861.29	227.36
861.60	227.38
861.91	227.36
862.22	227.39
862.53	227.39
862.84	227.29
863.16	227.31
863.47	227.28
863.78	227.25
864.09	227.25
864.40	227.24
864.71	227.27
865.02	227.31
865.33	227.32
865.64	227.31
865.95	227.34
866.27	227.41
866.58	227.37
866.89	227.40
867.20	227.39
867.51	227.41
867.82	227.43
868.13	227.44
868.44	227.42
868.75	227.44
869.06	227.43
869.37	227.44
869.68	227.42
869.99	227.45
870.30	227.50
870.61	227.54
870.92	227.55
871.23	227.51
871.54	227.53
871.85	227.53
872.16	227.56
872.47	227.55
872.78	227.46
873.09	227.45
873.40	227.45
873.71	227.45
874.02	227.44
874.33	227.43
874.64	227.41
874.95	227.39
875.26	227.34
875.56	227.32
875.87	227.29
876.18	227.27
876.49	227.35
876.80	227.33
877.11	227.26
877.42	227.26
877.73	227.24
878.04	227.20
878.35	227.19
878.66	227.14
878.96	227.12
879.27	227.11
879.58	227.12
879.89	227.09
880.20	227.10
880.51	227.09
880.82	227.05
881.12	227.06
881.43	227.04
881.74	227.03
882.05	227.02
882.36	227.04
882.67	227.07
882.97	226.95
883.28	226.94
883.59	226.95
883.90	226.95
884.21	226.97
884.51	226.94
884.82	226.90
885.13	226.91
885.44	226.91
885.74	226.91
886.05	226.89
886.36	226.89
886.67	226.85
886.98	226.88
887.28	226.89
887.59	226.88
887.90	226.92
888.20	226.92
888.51	226.92
888.82	226.89
889.13	226.88
889.43	226.95
889.74	226.92
890.05	226.92
890.35	226.90
890.66	226.89
890.97	226.89
891.28	226.88
891.58	226.87
891.89	226.86
892.20	226.86
892.50	226.85
892.81	226.82
893.12	226.81
893.42	226.77
893.73	226.77
894.04	226.75
894.34	226.75
894.65	226.77
894.95	226.78
895.26	226.76
895.57	226.80
895.87	226.74
896.18	226.77
896.48	226.74
896.79	226.75
897.10	226.76
897.40	226.78
897.71	226.79
898.01	226.80
898.32	226.82
898.63	226.81
898.93	226.84
899.24	226.85
899.54	226.84
899.85	226.81
900.15	226.79
900.46	226.80
900.76	226.80
901.07	226.77
901.38	226.75
901.68	226.79
901.99	226.75
902.29	226.73
902.60	226.74
902.90	226.79
903.21	226.79
903.51	226.80
903.82	226.81
904.12	226.82
904.43	226.83
904.73	226.84
905.03	226.86
905.34	226.95
905.64	226.98
905.95	227.03
906.25	227.07
906.56	227.08
906.86	227.12
907.17	227.11
907.47	227.13
907.77	227.15
908.08	227.15
908.38	227.15
908.69	227.20
908.99	227.21
909.30	227.22
909.60	227.22
909.90	227.21
910.21	227.20
910.51	227.17
910.81	227.16
911.12	227.18
911.42	227.19
911.73	227.09
912.03	227.09
912.33	227.10
912.64	227.11
912.94	227.12
913.24	227.08
913.55	227.08
913.85	227.05
914.15	227.07
914.46	227.06
914.76	227.06
915.06	227.04
915.37	227.01
915.67	227.00
915.97	227.00
916.27	227.00
916.58	226.99
916.88	227.04
917.18	227.03
917.49	227.07
917.79	227.04
918.09	227.06
918.39	227.09
918.70	227.09
919.00	227.08
919.30	227.11
919.60	227.11
919.91	227.08
920.21	227.12
920.51	227.06
920.81	227.06
921.12	227.05
921.42	227.07
921.72	227.05
922.02	227.05
922.32	227.06
922.63	227.04
922.93	227.10
923.23	227.08
923.53	227.10
923.83	227.01
924.13	227.02
924.44	227.00
924.74	226.99
925.04	227.00
925.34	227.00
925.64	226.96
925.94	226.96
926.24	227.00
926.55	226.97
926.85	227.02
927.15	227.01
927.45	226.99
927.75	226.93
928.05	226.93
928.35	226.89
928.65	226.89
928.95	226.88
929.26	226.83
929.56	226.80
929.86	226.81
930.16	226.79
930.46	226.78
930.76	226.78
931.06	226.71
931.36	226.65
931.66	226.66
931.96	226.66
932.26	226.66
932.56	226.62
932.86	226.60
933.16	226.63
933.46	226.59
933.76	226.57
934.06	226.62
934.36	226.67
934.66	226.66
934.96	226.67
935.26	226.67
935.56	226.67
935.86	226.68
936.16	226.65
936.46	226.67
936.76	226.66
937.06	226.66
937.36	226.69
937.66	226.72
937.96	226.68
938.26	226.69
938.56	226.71
938.86	226.72
939.16	226.77
939.46	226.75
939.76	226.75
940.06	226.77
940.35	226.78
940.65	226.75
940.95	226.79
941.25	226.77
941.55	226.78
941.85	226.80
942.15	226.80
942.45	226.84
942.75	226.86
943.04	226.90
943.34	226.92
943.64	226.89
943.94	226.91
944.24	226.97
944.54	226.96
944.84	226.94
945.13	226.95
945.43	226.96
945.73	226.96
946.03	226.98
946.33	227.02
946.62	226.99
946.92	226.99
947.22	226.97
947.52	226.98
947.82	227.02
948.11	227.03
948.41	227.04
948.71	226.98
949.01	226.98
949.31	226.99
949.60	227.00
949.90	227.04
950.20	227.03
950.50	227.01
950.79	226.98
951.09	227.02
951.39	227.01
951.69	226.98
951.98	227.01
952.28	227.04
952.58	226.98
952.87	226.99
953.17	227.06
953.47	227.06
953.76	227.07
954.06	227.05
954.36	227.03
954.66	227.05
954.95	227.10
955.25	227.10
955.55	227.11
955.84	227.03
956.14	227.05
956.44	227.06
956.73	227.02
957.03	227.03
957.32	227.02
957.62	227.00
957.92	227.00
958.21	226.98
958.51	227.06
958.81	227.11
959.10	227.11
959.40	227.05
959.69	227.05
959.99	227.04
960.29	227.01
960.58	226.97
960.88	226.98
961.17	226.91
961.47	226.94
961.76	226.90
962.06	226.94
962.36	226.91
962.65	226.86
962.95	226.85
963.24	226.87
963.54	226.85
963.83	226.88
964.13	226.89
964.42	226.85
964.72	226.78
965.01	226.73
965.31	226.72
965.60	226.70
965.90	226.75
966.19	226.70
966.49	226.72
966.78	226.70
967.08	226.66
967.37	226.66
967.67	226.62
967.96	226.63
968.26	226.59
968.55	226.59
968.85	226.63
969.14	226.63
969.43	226.61
969.73	226.60
970.02	226.57
970.32	226.54
970.61	226.53
970.91	226.47
971.20	226.47
971.49	226.45
971.79	226.45
972.08	226.37
972.38	226.40
972.67	226.39
972.96	226.40
973.26	226.43
973.55	226.49
973.85	226.50
974.14	226.48
974.43	226.49
974.73	226.47
975.02	226.48
975.31	226.48
975.61	226.45
975.90	226.45
976.19	226.43
976.49	226.44
976.78	226.45
977.07	226.45
977.37	226.49
977.66	226.51
977.95	226.50
978.24	226.53
978.54	226.58
978.83	226.58
979.12	226.63
979.42	226.61
979.71	226.57
980.00	226.60
980.29	226.66
980.59	226.67
980.88	226.70
981.17	226.69
981.46	226.73
981.76	226.77
982.05	226.81
982.34	226.86
982.63	226.86
982.93	226.90
983.22	226.95
983.51	226.95
983.80	226.95
984.09	226.99
984.39	226.98
984.68	226.94
984.97	226.96
985.26	226.96
985.55	226.99
985.85	227.02
986.14	227.03
986.43	227.00
986.72	227.00
987.01	227.03
987.30	227.02
987.59	227.00
987.89	227.00
988.18	226.99
988.47	226.97
988.76	227.00
989.05	226.98
989.34	227.01
989.63	227.04
989.92	227.05
990.22	227.03
990.51	227.04
990.80	227.07
991.09	227.09
991.38	227.06
991.67	227.03
991.96	227.01
992.25	227.00
992.54	226.99
992.83	226.99
993.12	226.95
993.41	226.97
993.70	227.01
993.99	227.02
994.28	227.04
994.58	227.05
994.87	227.02
995.16	227.00
995.45	226.95
995.74	226.89
996.03	226.90
996.32	226.89
996.61	226.88
996.90	226.86
997.19	226.82
997.48	226.82
997.77	226.82
998.06	226.83
998.34	226.83
998.63	226.80
998.92	226.79
999.21	226.78
999.50	226.79
999.79	226.73
1000.08	226.70
1000.37	226.69
1000.66	226.66
1000.95	226.66
1001.24	226.67
1001.53	226.64
1001.82	226.65
1002.11	226.61
1002.40	226.61
1002.68	226.63
1002.97	226.68
1003.26	226.68
1003.55	226.64
1003.84	226.63
1004.13	226.61
1004.42	226.60
1004.71	226.60
1004.99	226.60
1005.28	226.62
1005.57	226.59
1005.86	226.57
1006.15	226.59
1006.44	226.56
1006.72	226.56
1007.01	226.58
1007.30	226.59
1007.59	226.61
1007.88	226.61
1008.17	226.63
1008.45	226.61
1008.74	226.59
1009.03	226.54
1009.32	226.50
1009.60	226.53
1009.89	226.52
1010.18	226.51
1010.47	226.49
1010.76	226.51
1011.04	226.51
1011.33	226.49
1011.62	226.51
1011.91	226.56
1012.19	226.57
1012.48	226.57
1012.77	226.61
1013.05	226.63
1013.34	226.62
1013.63	226.60
1013.92	226.64
1014.20	226.66
1014.49	226.65
1014.78	226.67
1015.06	226.63
1015.35	226.67
1015.64	226.69
1015.92	226.71
1016.21	226.74
1016.50	226.75
1016.78	226.78
1017.07	226.81
1017.36	226.83
1017.64	226.83
1017.93	226.83
1018.22	226.83
1018.50	226.86
1018.79	226.84
1019.08	226.82
1019.36	226.87
1019.65	226.86
1019.93	226.88
1020.22	226.90
1020.51	227.00
1020.79	227.02
1021.08	226.92
1021.36	227.06
1021.65	226.75
1021.94	227.06
1022.22	227.50
1022.51	226.37
1022.79	227.50
1023.08	227.41
1023.36	228.50
1023.65	227.11
>>>>>End Processed Spectral Data<<<<<
