SpectraSuite Data File
++++++++++++++++++++++++++++++++++++
Date: Fri Feb 01 15:14:29 EST 2013
User: group
Dark Spectrum Present: No
Reference Spectrum Present: No
Number of Sampled Component Spectra: 1
Spectrometers: USB2E7196
Integration Time (usec): 35000 (USB2E7196)
Spectra Averaged: 100 (USB2E7196)
Boxcar Smoothing: 10 (USB2E7196)
Correct for Electrical Dark: No (USB2E7196)
Strobe/Lamp Enabled: No (USB2E7196)
Correct for Detector Non-linearity: No (USB2E7196)
Correct for Stray Light: No (USB2E7196)
Number of Pixels in Processed Spectrum: 2048
>>>>>Begin Processed Spectral Data<<<<<
339.09	0.00
339.48	214.79
339.86	216.96
340.24	217.83
340.63	219.65
341.01	222.65
341.39	221.81
341.78	223.64
342.16	225.11
342.54	225.04
342.93	213.50
343.31	224.30
343.69	224.86
344.07	225.34
344.46	225.80
344.84	226.16
345.22	226.36
345.60	226.61
345.99	226.81
346.37	226.90
346.75	227.03
347.13	227.06
347.52	227.13
347.90	227.22
348.28	227.28
348.66	227.33
349.05	227.36
349.43	227.38
349.81	227.39
350.19	227.45
350.57	227.49
350.96	227.53
351.34	227.58
351.72	227.67
352.10	227.72
352.48	227.76
352.87	227.80
353.25	227.88
353.63	227.97
354.01	227.98
354.39	228.08
354.77	228.13
355.15	228.26
355.54	228.33
355.92	228.37
356.30	228.44
356.68	228.59
357.06	228.63
357.44	228.70
357.82	228.77
358.20	228.83
358.58	228.88
358.97	228.96
359.35	229.05
359.73	229.09
360.11	229.13
360.49	229.19
360.87	229.26
361.25	229.31
361.63	229.38
362.01	229.45
362.39	229.44
362.77	229.49
363.15	229.52
363.53	229.54
363.91	229.55
364.29	229.54
364.67	229.46
365.05	229.47
365.43	229.50
365.81	229.52
366.19	229.54
366.57	229.59
366.95	229.58
367.33	229.55
367.71	229.55
368.09	229.55
368.47	229.52
368.85	229.49
369.23	229.48
369.61	229.39
369.99	229.39
370.37	229.36
370.75	229.33
371.13	229.25
371.51	229.21
371.89	229.17
372.27	229.14
372.65	229.09
373.03	229.04
373.41	228.99
373.78	228.92
374.16	228.81
374.54	228.69
374.92	228.62
375.30	228.55
375.68	228.44
376.06	228.38
376.44	228.29
376.82	228.24
377.19	228.16
377.57	228.09
377.95	227.96
378.33	227.92
378.71	227.80
379.09	227.75
379.47	227.66
379.84	227.57
380.22	227.49
380.60	227.37
380.98	227.28
381.36	227.21
381.73	227.16
382.11	227.14
382.49	227.09
382.87	227.03
383.25	226.96
383.62	227.03
384.00	226.95
384.38	226.90
384.76	226.86
385.13	226.84
385.51	226.79
385.89	226.76
386.27	226.70
386.64	226.68
387.02	226.62
387.40	226.58
387.78	226.54
388.15	226.51
388.53	226.50
388.91	226.49
389.29	226.46
389.66	226.47
390.04	226.39
390.42	226.40
390.79	226.37
391.17	226.37
391.55	226.26
391.92	226.25
392.30	226.29
392.68	226.23
393.05	226.20
393.43	226.22
393.81	226.21
394.18	226.24
394.56	226.25
394.94	226.30
395.31	226.32
395.69	226.40
396.06	226.42
396.44	226.46
396.82	226.44
397.19	226.52
397.57	226.51
397.95	226.59
398.32	226.62
398.70	226.71
399.07	226.78
399.45	226.87
399.82	226.93
400.20	226.97
400.58	227.11
400.95	227.16
401.33	227.26
401.70	227.45
402.08	227.53
402.45	227.64
402.83	227.74
403.20	227.87
403.58	227.96
403.95	228.10
404.33	228.22
404.71	228.41
405.08	228.59
405.46	228.74
405.83	228.88
406.21	229.03
406.58	229.20
406.96	229.37
407.33	229.56
407.70	229.79
408.08	230.07
408.45	230.26
408.83	230.55
409.20	230.78
409.58	230.94
409.95	231.21
410.33	231.45
410.70	231.74
411.08	232.02
411.45	232.34
411.82	232.66
412.20	233.01
412.57	233.43
412.95	233.68
413.32	234.13
413.69	234.53
414.07	235.00
414.44	235.48
414.82	235.97
415.19	236.51
415.56	237.05
415.94	237.61
416.31	238.26
416.68	238.84
417.06	239.54
417.43	240.25
417.81	241.04
418.18	241.84
418.55	242.66
418.93	243.57
419.30	244.48
419.67	245.41
420.04	246.39
420.42	247.38
420.79	248.60
421.16	249.70
421.54	250.90
421.91	252.09
422.28	253.34
422.66	254.61
423.03	255.94
423.40	257.30
423.77	258.70
424.15	260.16
424.52	261.70
424.89	263.30
425.26	264.86
425.64	266.25
426.01	267.87
426.38	269.53
426.75	271.21
427.13	272.95
427.50	274.77
427.87	276.67
428.24	278.58
428.61	280.35
428.99	282.34
429.36	284.48
429.73	286.58
430.10	288.62
430.47	290.72
430.85	292.82
431.22	295.06
431.59	297.43
431.96	299.63
432.33	302.11
432.70	304.49
433.08	307.30
433.45	309.99
433.82	312.56
434.19	315.43
434.56	318.22
434.93	320.82
435.30	323.43
435.68	326.30
436.05	329.12
436.42	331.89
436.79	334.43
437.16	337.14
437.53	339.97
437.90	342.79
438.27	345.57
438.64	348.40
439.01	351.00
439.38	353.22
439.75	355.43
440.13	357.94
440.50	360.29
440.87	362.11
441.24	364.06
441.61	366.25
441.98	367.79
442.35	369.56
442.72	371.45
443.09	373.31
443.46	374.35
443.83	374.92
444.20	375.42
444.57	376.21
444.94	376.44
445.31	376.77
445.68	377.12
446.05	377.18
446.42	376.81
446.79	376.38
447.16	375.94
447.53	375.61
447.90	374.41
448.27	373.24
448.64	371.70
449.01	370.57
449.37	368.61
449.74	366.69
450.11	364.47
450.48	362.01
450.85	359.44
451.22	357.28
451.59	355.26
451.96	353.35
452.33	350.74
452.70	348.42
453.07	345.62
453.43	342.72
453.80	339.92
454.17	337.24
454.54	334.66
454.91	331.98
455.28	329.32
455.65	326.87
456.02	324.41
456.38	322.27
456.75	319.56
457.12	317.29
457.49	315.07
457.86	312.91
458.23	311.06
458.59	309.02
458.96	306.89
459.33	305.00
459.70	303.09
460.07	301.64
460.43	299.90
460.80	298.25
461.17	296.78
461.54	295.29
461.91	293.85
462.27	292.44
462.64	291.17
463.01	289.78
463.38	288.45
463.74	287.05
464.11	285.89
464.48	284.89
464.85	283.81
465.21	282.93
465.58	282.01
465.95	280.86
466.32	279.95
466.68	279.08
467.05	278.19
467.42	277.31
467.78	276.31
468.15	275.45
468.52	274.75
468.88	273.88
469.25	273.08
469.62	272.46
469.98	271.75
470.35	271.09
470.72	270.50
471.08	269.86
471.45	269.35
471.82	268.76
472.18	268.16
472.55	267.69
472.92	267.15
473.28	266.69
473.65	266.24
474.02	265.78
474.38	265.41
474.75	265.07
475.11	264.72
475.48	264.52
475.85	264.24
476.21	264.02
476.58	263.83
476.94	263.70
477.31	263.54
477.67	263.40
478.04	263.26
478.41	263.15
478.77	263.19
479.14	263.07
479.50	263.07
479.87	263.11
480.23	263.17
480.60	263.25
480.96	263.32
481.33	263.57
481.69	263.77
482.06	263.95
482.42	264.12
482.79	264.38
483.15	264.64
483.52	265.02
483.88	265.34
484.25	265.75
484.61	266.19
484.98	266.61
485.34	267.17
485.71	267.78
486.07	268.42
486.44	268.98
486.80	269.70
487.17	270.42
487.53	271.22
487.90	272.07
488.26	273.01
488.62	273.95
488.99	274.86
489.35	275.86
489.72	276.97
490.08	278.21
490.44	279.44
490.81	280.78
491.17	282.14
491.54	283.62
491.90	285.15
492.26	286.80
492.63	288.55
492.99	290.30
493.36	292.20
493.72	294.22
494.08	296.29
494.45	298.54
494.81	300.89
495.17	303.30
495.54	305.84
495.90	308.47
496.26	311.28
496.63	314.26
496.99	317.38
497.35	320.58
497.72	323.94
498.08	327.45
498.44	331.09
498.80	334.97
499.17	338.95
499.53	343.12
499.89	347.39
500.26	351.82
500.62	356.47
500.98	361.42
501.34	366.47
501.71	371.79
502.07	377.22
502.43	382.83
502.79	388.67
503.16	394.70
503.52	401.00
503.88	407.37
504.24	413.96
504.60	420.84
504.97	428.04
505.33	435.39
505.69	443.08
506.05	450.95
506.41	458.91
506.78	467.08
507.14	475.50
507.50	484.30
507.86	493.39
508.22	502.64
508.59	511.81
508.95	521.38
509.31	531.19
509.67	541.27
510.03	551.54
510.39	562.14
510.75	573.02
511.12	583.93
511.48	595.26
511.84	606.75
512.20	618.29
512.56	630.20
512.92	642.38
513.28	654.75
513.64	667.16
514.00	679.85
514.37	692.87
514.73	706.00
515.09	719.10
515.45	732.39
515.81	745.90
516.17	759.97
516.53	774.05
516.89	788.25
517.25	802.44
517.61	816.92
517.97	831.31
518.33	845.72
518.69	860.53
519.05	875.58
519.41	890.84
519.77	906.39
520.13	921.91
520.49	937.37
520.85	952.79
521.21	968.62
521.57	984.87
521.93	1000.64
522.29	1017.05
522.65	1033.24
523.01	1049.52
523.37	1065.68
523.73	1081.70
524.09	1097.88
524.45	1114.29
524.81	1130.99
525.17	1147.95
525.53	1164.99
525.89	1181.93
526.25	1198.83
526.61	1215.22
526.97	1232.04
527.33	1248.59
527.68	1265.31
528.04	1281.71
528.40	1298.47
528.76	1315.51
529.12	1332.17
529.48	1348.97
529.84	1365.05
530.20	1381.91
530.56	1399.01
530.91	1416.42
531.27	1433.33
531.63	1449.94
531.99	1466.51
532.35	1482.45
532.71	1498.29
533.07	1514.51
533.42	1530.47
533.78	1546.58
534.14	1562.94
534.50	1578.26
534.86	1594.14
535.21	1609.23
535.57	1625.30
535.93	1640.72
536.29	1655.59
536.65	1670.72
537.00	1685.73
537.36	1701.05
537.72	1715.50
538.08	1729.99
538.44	1743.98
538.79	1758.04
539.15	1771.82
539.51	1785.64
539.87	1800.19
540.22	1814.06
540.58	1828.00
540.94	1841.49
541.29	1854.43
541.65	1867.27
542.01	1880.47
542.37	1892.88
542.72	1905.43
543.08	1917.43
543.44	1930.00
543.79	1941.22
544.15	1952.20
544.51	1963.78
544.87	1974.80
545.22	1985.73
545.58	1995.93
545.94	2005.59
546.29	2015.45
546.65	2025.11
547.01	2034.44
547.36	2043.23
547.72	2051.67
548.07	2059.48
548.43	2067.71
548.79	2075.82
549.14	2083.34
549.50	2090.90
549.86	2098.63
550.21	2106.09
550.57	2113.22
550.92	2119.80
551.28	2127.01
551.64	2134.23
551.99	2140.73
552.35	2146.96
552.70	2153.10
553.06	2159.05
553.41	2165.45
553.77	2171.53
554.13	2177.69
554.48	2183.79
554.84	2189.02
555.19	2194.51
555.55	2199.67
555.90	2204.02
556.26	2208.75
556.61	2213.50
556.97	2217.68
557.32	2221.83
557.68	2225.84
558.03	2230.20
558.39	2233.88
558.74	2238.43
559.10	2242.24
559.45	2245.89
559.81	2250.18
560.16	2253.92
560.52	2257.17
560.87	2260.60
561.23	2263.29
561.58	2266.36
561.94	2268.91
562.29	2271.55
562.64	2274.19
563.00	2276.73
563.35	2280.21
563.71	2283.46
564.06	2286.62
564.42	2289.43
564.77	2291.86
565.12	2294.05
565.48	2295.70
565.83	2297.57
566.19	2298.75
566.54	2299.74
566.89	2300.94
567.25	2301.24
567.60	2302.63
567.96	2304.16
568.31	2304.93
568.66	2305.90
569.02	2306.47
569.37	2306.70
569.72	2307.28
570.08	2307.14
570.43	2307.12
570.78	2306.47
571.14	2304.80
571.49	2303.37
571.84	2302.93
572.20	2301.70
572.55	2300.64
572.90	2298.99
573.26	2297.42
573.61	2295.68
573.96	2293.64
574.31	2290.47
574.67	2287.66
575.02	2283.85
575.37	2280.36
575.72	2276.48
576.08	2273.19
576.43	2269.64
576.78	2265.81
577.13	2262.68
577.49	2259.57
577.84	2255.88
578.19	2251.91
578.54	2248.11
578.90	2243.66
579.25	2238.05
579.60	2232.98
579.95	2227.93
580.30	2222.92
580.66	2217.78
581.01	2212.74
581.36	2207.76
581.71	2203.46
582.06	2198.76
582.42	2194.11
582.77	2188.79
583.12	2184.04
583.47	2179.08
583.82	2173.91
584.17	2168.69
584.53	2163.01
584.88	2157.24
585.23	2151.43
585.58	2146.04
585.93	2140.57
586.28	2135.80
586.63	2130.58
586.98	2125.47
587.34	2120.70
587.69	2115.61
588.04	2110.24
588.39	2104.43
588.74	2097.92
589.09	2091.68
589.44	2084.82
589.79	2078.79
590.14	2073.11
590.49	2066.50
590.84	2059.98
591.19	2053.88
591.54	2047.14
591.89	2039.55
592.25	2032.60
592.60	2025.31
592.95	2017.59
593.30	2010.11
593.65	2002.40
594.00	1995.27
594.35	1987.94
594.70	1979.84
595.05	1972.55
595.40	1965.14
595.75	1957.67
596.10	1951.32
596.45	1944.45
596.80	1938.25
597.15	1931.58
597.50	1924.41
597.85	1917.88
598.19	1911.21
598.54	1904.11
598.89	1897.63
599.24	1891.89
599.59	1885.20
599.94	1879.00
600.29	1872.69
600.64	1866.11
600.99	1858.62
601.34	1851.75
601.69	1844.75
602.04	1837.63
602.39	1830.32
602.74	1823.45
603.08	1816.64
603.43	1809.81
603.78	1802.52
604.13	1795.19
604.48	1787.75
604.83	1781.02
605.18	1774.02
605.53	1765.93
605.87	1757.86
606.22	1750.64
606.57	1742.54
606.92	1735.26
607.27	1727.95
607.62	1720.93
607.96	1713.60
608.31	1706.94
608.66	1699.30
609.01	1691.75
609.36	1684.21
609.70	1676.11
610.05	1668.04
610.40	1660.36
610.75	1652.07
611.10	1644.38
611.44	1636.19
611.79	1628.27
612.14	1619.39
612.49	1610.31
612.83	1601.99
613.18	1593.92
613.53	1585.76
613.88	1577.25
614.22	1568.93
614.57	1560.46
614.92	1552.40
615.27	1544.83
615.61	1536.50
615.96	1528.56
616.31	1520.89
616.65	1513.49
617.00	1505.91
617.35	1498.22
617.70	1489.89
618.04	1481.26
618.39	1473.07
618.74	1465.37
619.08	1457.06
619.43	1449.58
619.78	1442.55
620.12	1435.44
620.47	1427.90
620.82	1419.75
621.16	1412.37
621.51	1404.87
621.85	1397.32
622.20	1388.86
622.55	1380.51
622.89	1372.73
623.24	1365.13
623.59	1357.88
623.93	1350.48
624.28	1343.31
624.62	1335.67
624.97	1328.49
625.32	1321.86
625.66	1314.88
626.01	1307.68
626.35	1300.19
626.70	1292.46
627.04	1284.86
627.39	1277.22
627.73	1269.85
628.08	1262.82
628.43	1255.49
628.77	1248.04
629.12	1240.29
629.46	1233.11
629.81	1225.78
630.15	1218.50
630.50	1211.14
630.84	1202.87
631.19	1194.93
631.53	1187.47
631.88	1180.03
632.22	1172.45
632.57	1165.18
632.91	1157.68
633.26	1150.31
633.60	1143.08
633.95	1136.16
634.29	1129.08
634.64	1122.28
634.98	1114.87
635.32	1107.77
635.67	1101.24
636.01	1094.65
636.36	1088.03
636.70	1081.60
637.05	1074.97
637.39	1068.63
637.73	1062.06
638.08	1056.16
638.42	1050.13
638.77	1043.65
639.11	1037.06
639.45	1030.69
639.80	1024.10
640.14	1017.70
640.49	1011.20
640.83	1004.88
641.17	998.51
641.52	992.19
641.86	985.79
642.20	980.03
642.55	973.81
642.89	967.34
643.23	960.76
643.58	954.95
643.92	948.75
644.26	942.73
644.61	936.67
644.95	930.57
645.29	923.97
645.64	917.28
645.98	910.98
646.32	905.18
646.66	899.15
647.01	893.37
647.35	887.63
647.69	881.75
648.04	876.20
648.38	870.41
648.72	864.44
649.06	858.29
649.41	852.39
649.75	846.38
650.09	840.38
650.43	834.59
650.78	828.43
651.12	822.47
651.46	816.69
651.80	810.92
652.14	805.63
652.49	800.37
652.83	795.25
653.17	789.56
653.51	783.85
653.85	778.49
654.20	772.78
654.54	766.77
654.88	761.09
655.22	755.26
655.56	749.56
655.90	744.13
656.25	738.94
656.59	733.62
656.93	728.57
657.27	723.50
657.61	718.07
657.95	712.96
658.29	707.85
658.64	702.67
658.98	697.36
659.32	691.86
659.66	686.59
660.00	681.29
660.34	676.42
660.68	671.52
661.02	666.40
661.36	661.72
661.70	657.27
662.05	652.94
662.39	648.62
662.73	644.23
663.07	639.79
663.41	635.41
663.75	630.87
664.09	626.35
664.43	621.95
664.77	617.91
665.11	613.72
665.45	609.65
665.79	605.54
666.13	601.49
666.47	597.48
666.81	593.37
667.15	589.21
667.49	585.27
667.83	581.54
668.17	577.69
668.51	573.60
668.85	569.63
669.19	565.73
669.53	561.86
669.87	557.98
670.21	554.31
670.55	550.63
670.89	547.23
671.23	543.77
671.57	540.26
671.91	536.72
672.25	533.27
672.58	529.79
672.92	526.49
673.26	523.34
673.60	520.18
673.94	517.04
674.28	514.20
674.62	511.25
674.96	508.05
675.30	505.09
675.64	502.20
675.97	499.40
676.31	496.59
676.65	493.69
676.99	490.98
677.33	488.10
677.67	485.34
678.01	482.31
678.34	479.35
678.68	476.52
679.02	473.69
679.36	470.95
679.70	468.23
680.04	465.44
680.37	462.54
680.71	459.80
681.05	457.14
681.39	454.43
681.73	451.74
682.06	449.28
682.40	446.78
682.74	444.23
683.08	441.70
683.42	439.14
683.75	436.66
684.09	434.17
684.43	431.74
684.77	429.29
685.10	426.98
685.44	424.65
685.78	422.37
686.12	420.15
686.45	417.87
686.79	415.57
687.13	413.36
687.46	411.20
687.80	409.03
688.14	406.92
688.48	404.89
688.81	402.72
689.15	400.56
689.49	398.49
689.82	396.47
690.16	394.38
690.50	392.45
690.83	390.46
691.17	388.47
691.51	386.59
691.84	384.74
692.18	382.79
692.52	380.88
692.85	378.96
693.19	377.11
693.52	375.24
693.86	373.44
694.20	371.69
694.53	369.90
694.87	368.02
695.21	366.19
695.54	364.37
695.88	362.64
696.21	360.90
696.55	359.17
696.88	357.49
697.22	355.84
697.56	354.19
697.89	352.55
698.23	350.91
698.56	349.33
698.90	347.75
699.23	346.09
699.57	344.55
699.90	342.99
700.24	341.42
700.58	339.88
700.91	338.39
701.25	336.96
701.58	335.59
701.92	334.28
702.25	332.93
702.59	331.59
702.92	330.30
703.26	329.02
703.59	327.73
703.93	326.57
704.26	325.33
704.60	324.05
704.93	322.78
705.26	321.55
705.60	320.37
705.93	319.19
706.27	318.21
706.60	317.14
706.94	316.05
707.27	314.91
707.61	313.91
707.94	312.87
708.27	311.76
708.61	310.66
708.94	309.65
709.28	308.69
709.61	307.68
709.94	306.74
710.28	305.69
710.61	304.74
710.95	303.62
711.28	302.71
711.61	301.78
711.95	300.85
712.28	299.91
712.61	298.93
712.95	297.97
713.28	297.05
713.61	296.13
713.95	295.27
714.28	294.46
714.61	293.56
714.95	292.72
715.28	291.87
715.61	291.02
715.95	290.17
716.28	289.33
716.61	288.50
716.95	287.69
717.28	286.99
717.61	286.22
717.94	285.53
718.28	284.74
718.61	284.02
718.94	283.34
719.27	282.73
719.61	282.09
719.94	281.47
720.27	280.81
720.60	280.18
720.94	279.58
721.27	278.97
721.60	278.43
721.93	277.82
722.27	277.31
722.60	276.76
722.93	276.19
723.26	275.63
723.59	275.09
723.93	274.51
724.26	273.95
724.59	273.36
724.92	272.83
725.25	272.31
725.59	271.84
725.92	271.31
726.25	270.77
726.58	270.27
726.91	269.77
727.24	269.26
727.57	268.79
727.91	268.23
728.24	267.81
728.57	267.28
728.90	266.87
729.23	266.35
729.56	265.92
729.89	265.49
730.22	265.00
730.55	264.55
730.89	264.12
731.22	263.66
731.55	263.24
731.88	262.77
732.21	262.34
732.54	261.88
732.87	261.47
733.20	261.08
733.53	260.71
733.86	260.31
734.19	259.88
734.52	259.48
734.85	259.21
735.18	258.77
735.51	258.42
735.84	258.04
736.17	257.74
736.50	257.34
736.83	257.11
737.16	256.81
737.49	256.45
737.82	256.11
738.15	255.81
738.48	255.48
738.81	255.20
739.14	254.91
739.47	254.62
739.80	254.35
740.13	254.02
740.46	253.68
740.79	253.38
741.12	253.09
741.45	252.79
741.78	252.43
742.11	252.14
742.44	251.84
742.77	251.55
743.10	251.22
743.43	250.93
743.75	250.53
744.08	250.35
744.41	250.09
744.74	249.79
745.07	249.49
745.40	249.26
745.73	249.02
746.06	248.72
746.39	248.45
746.71	248.15
747.04	247.87
747.37	247.63
747.70	247.41
748.03	247.20
748.36	247.01
748.68	246.77
749.01	246.55
749.34	246.29
749.67	246.05
750.00	245.82
750.33	245.66
750.65	245.45
750.98	245.11
751.31	244.89
751.64	244.73
751.97	244.63
752.29	244.41
752.62	244.16
752.95	243.98
753.28	243.75
753.60	243.54
753.93	243.42
754.26	243.23
754.59	243.01
754.91	242.77
755.24	242.52
755.57	242.35
755.90	242.14
756.22	241.94
756.55	241.75
756.88	241.55
757.20	241.33
757.53	241.12
757.86	240.96
758.19	240.80
758.51	240.63
758.84	240.39
759.17	240.19
759.49	240.02
759.82	239.87
760.15	239.74
760.47	239.61
760.80	239.39
761.13	239.25
761.45	239.05
761.78	238.91
762.11	238.80
762.43	238.61
762.76	238.47
763.08	238.34
763.41	238.20
763.74	238.10
764.06	237.94
764.39	237.78
764.71	237.63
765.04	237.47
765.37	237.33
765.69	237.15
766.02	237.01
766.34	236.88
766.67	236.71
767.00	236.60
767.32	236.54
767.65	236.52
767.97	236.41
768.30	236.32
768.62	236.20
768.95	236.05
769.27	235.94
769.60	235.86
769.92	235.73
770.25	235.62
770.57	235.50
770.90	235.40
771.22	235.34
771.55	235.26
771.87	235.14
772.20	235.05
772.52	235.06
772.85	235.10
773.17	235.03
773.50	234.94
773.82	234.79
774.15	234.62
774.47	234.43
774.80	234.30
775.12	234.19
775.45	234.10
775.77	234.03
776.09	233.94
776.42	233.84
776.74	233.82
777.07	233.73
777.39	233.68
777.72	233.59
778.04	233.53
778.36	233.46
778.69	233.43
779.01	233.33
779.33	233.20
779.66	233.02
779.98	232.95
780.31	232.90
780.63	232.88
780.95	232.84
781.28	232.79
781.60	232.72
781.92	232.72
782.25	232.68
782.57	232.59
782.89	232.54
783.22	232.48
783.54	232.42
783.86	232.39
784.19	232.31
784.51	232.31
784.83	232.25
785.16	232.20
785.48	232.16
785.80	232.14
786.12	232.09
786.45	232.09
786.77	232.03
787.09	231.98
787.42	231.95
787.74	231.91
788.06	231.87
788.38	231.85
788.71	231.77
789.03	231.72
789.35	231.75
789.67	231.72
789.99	231.70
790.32	231.65
790.64	231.59
790.96	231.64
791.28	231.56
791.61	231.50
791.93	231.46
792.25	231.38
792.57	231.45
792.89	231.42
793.21	231.39
793.54	231.36
793.86	231.30
794.18	231.23
794.50	231.18
794.82	231.14
795.14	231.13
795.47	231.12
795.79	231.08
796.11	230.99
796.43	230.96
796.75	230.94
797.07	230.86
797.39	230.86
797.71	230.78
798.04	230.73
798.36	230.74
798.68	230.67
799.00	230.68
799.32	230.57
799.64	230.56
799.96	230.51
800.28	230.49
800.60	230.47
800.92	230.50
801.24	230.47
801.56	230.48
801.89	230.42
802.21	230.40
802.53	230.37
802.85	230.41
803.17	230.41
803.49	230.34
803.81	230.34
804.13	230.30
804.45	230.24
804.77	230.25
805.09	230.19
805.41	230.20
805.73	230.11
806.05	230.04
806.37	230.00
806.69	229.93
807.01	229.90
807.33	229.87
807.65	229.77
807.97	229.80
808.28	229.72
808.60	229.69
808.92	229.64
809.24	229.69
809.56	229.59
809.88	229.52
810.20	229.53
810.52	229.52
810.84	229.43
811.16	229.39
811.48	229.33
811.80	229.33
812.12	229.30
812.43	229.30
812.75	229.29
813.07	229.26
813.39	229.24
813.71	229.20
814.03	229.17
814.35	229.17
814.67	229.09
814.98	229.07
815.30	229.07
815.62	229.06
815.94	228.96
816.26	228.98
816.58	228.95
816.89	228.92
817.21	228.88
817.53	228.92
817.85	228.90
818.17	228.86
818.48	228.83
818.80	228.87
819.12	228.83
819.44	228.79
819.76	228.77
820.07	228.78
820.39	228.76
820.71	228.75
821.03	228.73
821.34	228.70
821.66	228.71
821.98	228.67
822.30	228.63
822.61	228.67
822.93	228.64
823.25	228.63
823.57	228.59
823.88	228.60
824.20	228.55
824.52	228.55
824.83	228.56
825.15	228.55
825.47	228.48
825.79	228.50
826.10	228.48
826.42	228.45
826.74	228.44
827.05	228.42
827.37	228.43
827.69	228.42
828.00	228.43
828.32	228.38
828.64	228.37
828.95	228.44
829.27	228.42
829.58	228.35
829.90	228.39
830.22	228.38
830.53	228.37
830.85	228.37
831.17	228.33
831.48	228.36
831.80	228.35
832.11	228.34
832.43	228.31
832.75	228.33
833.06	228.36
833.38	228.34
833.69	228.33
834.01	228.30
834.32	228.28
834.64	228.27
834.96	228.30
835.27	228.30
835.59	228.28
835.90	228.23
836.22	228.27
836.53	228.21
836.85	228.23
837.16	228.29
837.48	228.29
837.79	228.37
838.11	228.35
838.42	228.32
838.74	228.33
839.05	228.31
839.37	228.29
839.68	228.25
840.00	228.22
840.31	228.26
840.63	228.26
840.94	228.22
841.26	228.18
841.57	228.16
841.88	228.14
842.20	228.09
842.51	228.11
842.83	228.13
843.14	228.19
843.46	228.17
843.77	228.12
844.08	228.09
844.40	228.01
844.71	227.98
845.03	228.00
845.34	227.99
845.65	227.99
845.97	228.01
846.28	228.00
846.60	227.99
846.91	227.97
847.22	227.97
847.54	228.00
847.85	228.04
848.16	228.03
848.48	228.01
848.79	228.06
849.10	228.03
849.42	228.01
849.73	227.92
850.04	227.90
850.36	227.86
850.67	227.91
850.98	227.92
851.30	227.91
851.61	227.84
851.92	227.82
852.23	227.83
852.55	227.81
852.86	227.83
853.17	227.84
853.49	227.85
853.80	227.84
854.11	227.86
854.42	227.86
854.74	227.82
855.05	227.85
855.36	227.77
855.67	227.74
855.99	227.75
856.30	227.84
856.61	227.85
856.92	227.88
857.23	227.83
857.55	227.81
857.86	227.84
858.17	227.88
858.48	227.86
858.79	227.84
859.11	227.83
859.42	227.77
859.73	227.75
860.04	227.74
860.35	227.71
860.66	227.66
860.98	227.64
861.29	227.67
861.60	227.65
861.91	227.68
862.22	227.70
862.53	227.66
862.84	227.54
863.16	227.57
863.47	227.54
863.78	227.54
864.09	227.55
864.40	227.52
864.71	227.51
865.02	227.53
865.33	227.53
865.64	227.52
865.95	227.53
866.27	227.63
866.58	227.63
866.89	227.65
867.20	227.64
867.51	227.60
867.82	227.59
868.13	227.61
868.44	227.58
868.75	227.61
869.06	227.64
869.37	227.65
869.68	227.62
869.99	227.64
870.30	227.63
870.61	227.64
870.92	227.63
871.23	227.61
871.54	227.64
871.85	227.63
872.16	227.63
872.47	227.63
872.78	227.54
873.09	227.53
873.40	227.52
873.71	227.56
874.02	227.57
874.33	227.57
874.64	227.51
874.95	227.54
875.26	227.51
875.56	227.50
875.87	227.49
876.18	227.49
876.49	227.58
876.80	227.58
877.11	227.56
877.42	227.56
877.73	227.59
878.04	227.60
878.35	227.59
878.66	227.62
878.96	227.60
879.27	227.61
879.58	227.60
879.89	227.58
880.20	227.57
880.51	227.60
880.82	227.58
881.12	227.62
881.43	227.58
881.74	227.58
882.05	227.56
882.36	227.56
882.67	227.57
882.97	227.45
883.28	227.45
883.59	227.43
883.90	227.46
884.21	227.46
884.51	227.42
884.82	227.43
885.13	227.43
885.44	227.42
885.74	227.40
886.05	227.39
886.36	227.41
886.67	227.36
886.98	227.41
887.28	227.44
887.59	227.45
887.90	227.46
888.20	227.46
888.51	227.48
888.82	227.45
889.13	227.43
889.43	227.52
889.74	227.50
890.05	227.52
890.35	227.48
890.66	227.48
890.97	227.47
891.28	227.45
891.58	227.42
891.89	227.42
892.20	227.41
892.50	227.41
892.81	227.40
893.12	227.42
893.42	227.33
893.73	227.30
894.04	227.25
894.34	227.26
894.65	227.23
894.95	227.21
895.26	227.24
895.57	227.30
895.87	227.23
896.18	227.22
896.48	227.22
896.79	227.24
897.10	227.24
897.40	227.26
897.71	227.29
898.01	227.31
898.32	227.33
898.63	227.32
898.93	227.34
899.24	227.32
899.54	227.32
899.85	227.37
900.15	227.40
900.46	227.43
900.76	227.44
901.07	227.45
901.38	227.47
901.68	227.46
901.99	227.41
902.29	227.41
902.60	227.44
902.90	227.44
903.21	227.42
903.51	227.42
903.82	227.44
904.12	227.41
904.43	227.41
904.73	227.40
905.03	227.42
905.34	227.51
905.64	227.51
905.95	227.50
906.25	227.46
906.56	227.44
906.86	227.45
907.17	227.41
907.47	227.44
907.77	227.44
908.08	227.42
908.38	227.41
908.69	227.39
908.99	227.39
909.30	227.38
909.60	227.42
909.90	227.41
910.21	227.37
910.51	227.37
910.81	227.37
911.12	227.34
911.42	227.35
911.73	227.27
912.03	227.30
912.33	227.31
912.64	227.32
912.94	227.30
913.24	227.27
913.55	227.28
913.85	227.29
914.15	227.29
914.46	227.31
914.76	227.31
915.06	227.33
915.37	227.29
915.67	227.29
915.97	227.25
916.27	227.23
916.58	227.24
916.88	227.20
917.18	227.18
917.49	227.25
917.79	227.23
918.09	227.23
918.39	227.24
918.70	227.23
919.00	227.22
919.30	227.30
919.60	227.29
919.91	227.29
920.21	227.27
920.51	227.23
920.81	227.22
921.12	227.25
921.42	227.26
921.72	227.27
922.02	227.26
922.32	227.26
922.63	227.24
922.93	227.28
923.23	227.34
923.53	227.34
923.83	227.28
924.13	227.29
924.44	227.27
924.74	227.28
925.04	227.29
925.34	227.29
925.64	227.23
925.94	227.24
926.24	227.29
926.55	227.28
926.85	227.32
927.15	227.31
927.45	227.28
927.75	227.24
928.05	227.24
928.35	227.27
928.65	227.27
928.95	227.29
929.26	227.23
929.56	227.24
929.86	227.25
930.16	227.22
930.46	227.19
930.76	227.21
931.06	227.15
931.36	227.14
931.66	227.12
931.96	227.13
932.26	227.12
932.56	227.06
932.86	227.03
933.16	227.02
933.46	226.99
933.76	226.97
934.06	226.99
934.36	227.01
934.66	226.98
934.96	226.97
935.26	226.97
935.56	226.99
935.86	226.95
936.16	226.93
936.46	226.93
936.76	226.91
937.06	226.89
937.36	226.88
937.66	226.89
937.96	226.91
938.26	226.87
938.56	226.84
938.86	226.88
939.16	226.92
939.46	226.94
939.76	226.96
940.06	226.95
940.35	226.94
940.65	226.91
940.95	226.91
941.25	226.89
941.55	226.91
941.85	226.87
942.15	226.91
942.45	226.95
942.75	226.98
943.04	227.02
943.34	227.05
943.64	227.08
943.94	227.02
944.24	227.04
944.54	227.08
944.84	227.11
945.13	227.08
945.43	227.07
945.73	227.06
946.03	227.07
946.33	227.06
946.62	227.07
946.92	227.07
947.22	227.09
947.52	227.13
947.82	227.13
948.11	227.15
948.41	227.13
948.71	227.07
949.01	227.07
949.31	227.11
949.60	227.06
949.90	227.08
950.20	227.12
950.50	227.10
950.79	227.09
951.09	227.09
951.39	227.09
951.69	227.05
951.98	227.08
952.28	227.10
952.58	227.13
952.87	227.14
953.17	227.16
953.47	227.16
953.76	227.14
954.06	227.13
954.36	227.12
954.66	227.12
954.95	227.15
955.25	227.13
955.55	227.11
955.84	227.13
956.14	227.11
956.44	227.11
956.73	227.13
957.03	227.16
957.32	227.18
957.62	227.18
957.92	227.25
958.21	227.24
958.51	227.32
958.81	227.33
959.10	227.34
959.40	227.36
959.69	227.36
959.99	227.39
960.29	227.42
960.58	227.42
960.88	227.43
961.17	227.45
961.47	227.49
961.76	227.47
962.06	227.49
962.36	227.48
962.65	227.48
962.95	227.49
963.24	227.46
963.54	227.45
963.83	227.47
964.13	227.45
964.42	227.43
964.72	227.33
965.01	227.32
965.31	227.32
965.60	227.29
965.90	227.35
966.19	227.30
966.49	227.27
966.78	227.29
967.08	227.28
967.37	227.27
967.67	227.21
967.96	227.25
968.26	227.22
968.55	227.21
968.85	227.22
969.14	227.23
969.43	227.23
969.73	227.20
970.02	227.17
970.32	227.13
970.61	227.10
970.91	227.09
971.20	227.08
971.49	227.05
971.79	227.06
972.08	226.99
972.38	226.99
972.67	226.97
972.96	226.97
973.26	226.95
973.55	226.98
973.85	226.98
974.14	226.96
974.43	226.97
974.73	226.96
975.02	226.95
975.31	226.93
975.61	226.92
975.90	226.90
976.19	226.89
976.49	226.92
976.78	226.93
977.07	226.92
977.37	226.93
977.66	226.94
977.95	226.89
978.24	226.89
978.54	226.89
978.83	226.92
979.12	226.88
979.42	226.91
979.71	226.89
980.00	226.90
980.29	226.89
980.59	226.84
980.88	226.88
981.17	226.89
981.46	226.89
981.76	226.90
982.05	226.93
982.34	226.94
982.63	226.94
982.93	226.95
983.22	226.98
983.51	226.99
983.80	227.00
984.09	227.05
984.39	227.08
984.68	227.11
984.97	227.09
985.26	227.14
985.55	227.14
985.85	227.11
986.14	227.13
986.43	227.16
986.72	227.18
987.01	227.15
987.30	227.13
987.59	227.13
987.89	227.15
988.18	227.13
988.47	227.11
988.76	227.09
989.05	227.12
989.34	227.11
989.63	227.15
989.92	227.13
990.22	227.10
990.51	227.08
990.80	227.05
991.09	227.07
991.38	227.07
991.67	227.06
991.96	227.10
992.25	227.09
992.54	227.07
992.83	227.10
993.12	227.11
993.41	227.13
993.70	227.17
993.99	227.18
994.28	227.21
994.58	227.24
994.87	227.25
995.16	227.25
995.45	227.27
995.74	227.21
996.03	227.25
996.32	227.28
996.61	227.31
996.90	227.32
997.19	227.31
997.48	227.32
997.77	227.31
998.06	227.29
998.34	227.29
998.63	227.26
998.92	227.24
999.21	227.28
999.50	227.29
999.79	227.24
1000.08	227.25
1000.37	227.25
1000.66	227.24
1000.95	227.29
1001.24	227.27
1001.53	227.26
1001.82	227.27
1002.11	227.21
1002.40	227.25
1002.68	227.25
1002.97	227.30
1003.26	227.32
1003.55	227.26
1003.84	227.27
1004.13	227.30
1004.42	227.30
1004.71	227.33
1004.99	227.32
1005.28	227.33
1005.57	227.29
1005.86	227.27
1006.15	227.26
1006.44	227.24
1006.72	227.26
1007.01	227.23
1007.30	227.22
1007.59	227.20
1007.88	227.21
1008.17	227.25
1008.45	227.22
1008.74	227.18
1009.03	227.14
1009.32	227.08
1009.60	227.12
1009.89	227.11
1010.18	227.06
1010.47	227.06
1010.76	227.06
1011.04	227.08
1011.33	227.08
1011.62	227.08
1011.91	227.10
1012.19	227.09
1012.48	227.07
1012.77	227.02
1013.05	227.07
1013.34	227.08
1013.63	227.05
1013.92	226.98
1014.20	226.95
1014.49	226.94
1014.78	226.93
1015.06	226.89
1015.35	226.93
1015.64	226.94
1015.92	226.95
1016.21	226.96
1016.50	226.93
1016.78	226.93
1017.07	226.93
1017.36	226.89
1017.64	226.89
1017.93	226.89
1018.22	226.87
1018.50	226.86
1018.79	226.89
1019.08	226.86
1019.36	226.83
1019.65	226.85
1019.93	226.93
1020.22	226.95
1020.51	226.98
1020.79	227.01
1021.08	226.58
1021.36	226.48
1021.65	227.05
1021.94	227.46
1022.22	226.48
1022.51	226.71
1022.79	227.42
1023.08	227.30
1023.36	228.14
1023.65	227.24
>>>>>End Processed Spectral Data<<<<<
