SpectraSuite Data File
++++++++++++++++++++++++++++++++++++
Date: Fri Feb 01 15:49:18 EST 2013
User: group
Dark Spectrum Present: No
Reference Spectrum Present: No
Number of Sampled Component Spectra: 1
Spectrometers: USB2E7196
Integration Time (usec): 35000 (USB2E7196)
Spectra Averaged: 100 (USB2E7196)
Boxcar Smoothing: 10 (USB2E7196)
Correct for Electrical Dark: No (USB2E7196)
Strobe/Lamp Enabled: No (USB2E7196)
Correct for Detector Non-linearity: No (USB2E7196)
Correct for Stray Light: No (USB2E7196)
Number of Pixels in Processed Spectrum: 2048
>>>>>Begin Processed Spectral Data<<<<<
339.09	0.00
339.48	215.53
339.86	216.82
340.24	217.63
340.63	218.93
341.01	221.90
341.39	221.65
341.78	222.98
342.16	223.93
342.54	224.75
342.93	213.09
343.31	223.86
343.69	224.35
344.07	224.80
344.46	225.22
344.84	225.61
345.22	225.85
345.60	226.13
345.99	226.31
346.37	226.43
346.75	226.51
347.13	226.59
347.52	226.67
347.90	226.73
348.28	226.78
348.66	226.82
349.05	226.85
349.43	226.85
349.81	226.90
350.19	226.95
350.57	227.01
350.96	227.10
351.34	227.17
351.72	227.26
352.10	227.36
352.48	227.43
352.87	227.49
353.25	227.55
353.63	227.59
354.01	227.69
354.39	227.78
354.77	227.90
355.15	228.01
355.54	228.06
355.92	228.13
356.30	228.16
356.68	228.30
357.06	228.36
357.44	228.43
357.82	228.49
358.20	228.58
358.58	228.65
358.97	228.71
359.35	228.80
359.73	228.88
360.11	228.94
360.49	229.03
360.87	229.06
361.25	229.11
361.63	229.19
362.01	229.20
362.39	229.23
362.77	229.24
363.15	229.26
363.53	229.32
363.91	229.34
364.29	229.38
364.67	229.35
365.05	229.37
365.43	229.41
365.81	229.39
366.19	229.39
366.57	229.40
366.95	229.40
367.33	229.38
367.71	229.36
368.09	229.33
368.47	229.30
368.85	229.31
369.23	229.29
369.61	229.19
369.99	229.19
370.37	229.17
370.75	229.23
371.13	229.16
371.51	229.10
371.89	229.08
372.27	229.05
372.65	229.00
373.03	228.93
373.41	228.86
373.78	228.83
374.16	228.75
374.54	228.68
374.92	228.60
375.30	228.54
375.68	228.46
376.06	228.40
376.44	228.33
376.82	228.21
377.19	228.14
377.57	228.09
377.95	228.00
378.33	227.95
378.71	227.82
379.09	227.79
379.47	227.72
379.84	227.63
380.22	227.54
380.60	227.43
380.98	227.36
381.36	227.27
381.73	227.19
382.11	227.13
382.49	227.06
382.87	226.98
383.25	226.90
383.62	226.93
384.00	226.87
384.38	226.80
384.76	226.80
385.13	226.79
385.51	226.73
385.89	226.70
386.27	226.59
386.64	226.56
387.02	226.52
387.40	226.47
387.78	226.46
388.15	226.43
388.53	226.37
388.91	226.36
389.29	226.38
389.66	226.37
390.04	226.32
390.42	226.33
390.79	226.31
391.17	226.32
391.55	226.21
391.92	226.22
392.30	226.20
392.68	226.19
393.05	226.20
393.43	226.21
393.81	226.20
394.18	226.22
394.56	226.21
394.94	226.20
395.31	226.22
395.69	226.24
396.06	226.25
396.44	226.32
396.82	226.35
397.19	226.42
397.57	226.47
397.95	226.55
398.32	226.56
398.70	226.62
399.07	226.70
399.45	226.77
399.82	226.80
400.20	226.88
400.58	226.94
400.95	226.98
401.33	227.09
401.70	227.24
402.08	227.35
402.45	227.45
402.83	227.61
403.20	227.71
403.58	227.82
403.95	227.98
404.33	228.12
404.71	228.24
405.08	228.42
405.46	228.52
405.83	228.67
406.21	228.85
406.58	229.05
406.96	229.22
407.33	229.40
407.70	229.62
408.08	229.90
408.45	230.12
408.83	230.37
409.20	230.57
409.58	230.77
409.95	231.02
410.33	231.28
410.70	231.52
411.08	231.82
411.45	232.10
411.82	232.40
412.20	232.77
412.57	233.19
412.95	233.47
413.32	233.90
413.69	234.30
414.07	234.74
414.44	235.18
414.82	235.67
415.19	236.21
415.56	236.75
415.94	237.26
416.31	237.88
416.68	238.53
417.06	239.23
417.43	239.92
417.81	240.73
418.18	241.51
418.55	242.34
418.93	243.24
419.30	244.17
419.67	245.10
420.04	246.04
420.42	246.98
420.79	248.18
421.16	249.35
421.54	250.53
421.91	251.77
422.28	253.01
422.66	254.33
423.03	255.65
423.40	257.01
423.77	258.46
424.15	259.89
424.52	261.32
424.89	262.93
425.26	264.49
425.64	265.91
426.01	267.52
426.38	269.13
426.75	270.77
427.13	272.47
427.50	274.28
427.87	276.13
428.24	278.02
428.61	279.74
428.99	281.65
429.36	283.75
429.73	285.77
430.10	287.81
430.47	289.85
430.85	291.92
431.22	294.12
431.59	296.50
431.96	298.74
432.33	301.25
432.70	303.64
433.08	306.42
433.45	309.06
433.82	311.64
434.19	314.58
434.56	317.37
434.93	320.04
435.30	322.67
435.68	325.56
436.05	328.40
436.42	331.21
436.79	333.73
437.16	336.43
437.53	339.28
437.90	342.05
438.27	344.80
438.64	347.66
439.01	350.26
439.38	352.51
439.75	354.69
440.13	357.15
440.50	359.46
440.87	361.31
441.24	363.26
441.61	365.40
441.98	366.87
442.35	368.71
442.72	370.54
443.09	372.36
443.46	373.38
443.83	373.94
444.20	374.42
444.57	375.25
444.94	375.53
445.31	375.88
445.68	376.23
446.05	376.33
446.42	375.93
446.79	375.49
447.16	374.98
447.53	374.62
447.90	373.50
448.27	372.36
448.64	370.76
449.01	369.57
449.37	367.60
449.74	365.71
450.11	363.48
450.48	361.04
450.85	358.50
451.22	356.35
451.59	354.34
451.96	352.44
452.33	349.83
452.70	347.47
453.07	344.65
453.43	341.79
453.80	339.00
454.17	336.36
454.54	333.81
454.91	331.12
455.28	328.52
455.65	326.03
456.02	323.59
456.38	321.42
456.75	318.76
457.12	316.52
457.49	314.33
457.86	312.11
458.23	310.26
458.59	308.20
458.96	306.11
459.33	304.25
459.70	302.34
460.07	300.85
460.43	299.15
460.80	297.51
461.17	296.10
461.54	294.59
461.91	293.18
462.27	291.77
462.64	290.54
463.01	289.16
463.38	287.85
463.74	286.47
464.11	285.36
464.48	284.37
464.85	283.28
465.21	282.39
465.58	281.52
465.95	280.40
466.32	279.48
466.68	278.59
467.05	277.69
467.42	276.83
467.78	275.91
468.15	275.00
468.52	274.35
468.88	273.47
469.25	272.71
469.62	272.05
469.98	271.34
470.35	270.70
470.72	270.13
471.08	269.50
471.45	268.96
471.82	268.41
472.18	267.80
472.55	267.34
472.92	266.81
473.28	266.32
473.65	265.89
474.02	265.46
474.38	265.08
474.75	264.81
475.11	264.45
475.48	264.17
475.85	263.96
476.21	263.70
476.58	263.55
476.94	263.39
477.31	263.25
477.67	263.10
478.04	262.99
478.41	262.90
478.77	262.92
479.14	262.88
479.50	262.88
479.87	262.96
480.23	263.06
480.60	263.14
480.96	263.20
481.33	263.39
481.69	263.59
482.06	263.79
482.42	263.98
482.79	264.26
483.15	264.58
483.52	264.97
483.88	265.34
484.25	265.71
484.61	266.13
484.98	266.60
485.34	267.20
485.71	267.77
486.07	268.41
486.44	268.98
486.80	269.66
487.17	270.37
487.53	271.17
487.90	272.01
488.26	272.92
488.62	273.95
488.99	274.97
489.35	276.01
489.72	277.12
490.08	278.29
490.44	279.51
490.81	280.81
491.17	282.14
491.54	283.64
491.90	285.18
492.26	286.84
492.63	288.53
492.99	290.25
493.36	292.13
493.72	294.11
494.08	296.16
494.45	298.40
494.81	300.80
495.17	303.24
495.54	305.80
495.90	308.49
496.26	311.25
496.63	314.18
496.99	317.32
497.35	320.58
497.72	323.99
498.08	327.52
498.44	331.23
498.80	335.15
499.17	339.15
499.53	343.36
499.89	347.77
500.26	352.31
500.62	357.01
500.98	362.00
501.34	367.12
501.71	372.51
502.07	377.97
502.43	383.55
502.79	389.35
503.16	395.39
503.52	401.69
503.88	408.13
504.24	414.77
504.60	421.63
504.97	428.72
505.33	436.04
505.69	443.77
506.05	451.55
506.41	459.47
506.78	467.70
507.14	476.12
507.50	484.84
507.86	493.87
508.22	503.05
508.59	512.27
508.95	521.84
509.31	531.66
509.67	541.79
510.03	552.13
510.39	562.74
510.75	573.57
511.12	584.47
511.48	595.74
511.84	607.14
512.20	618.75
512.56	630.80
512.92	643.02
513.28	655.43
513.64	667.90
514.00	680.56
514.37	693.54
514.73	706.62
515.09	719.63
515.45	732.93
515.81	746.56
516.17	760.51
516.53	774.67
516.89	788.79
517.25	802.91
517.61	817.32
517.97	831.78
518.33	846.19
518.69	861.05
519.05	876.11
519.41	891.34
519.77	906.90
520.13	922.21
520.49	937.57
520.85	952.82
521.21	968.69
521.57	984.95
521.93	1000.61
522.29	1016.89
522.65	1033.17
523.01	1049.29
523.37	1065.26
523.73	1081.44
524.09	1097.47
524.45	1113.73
524.81	1130.44
525.17	1147.31
525.53	1164.21
525.89	1181.06
526.25	1197.81
526.61	1214.16
526.97	1230.84
527.33	1247.20
527.68	1263.83
528.04	1280.42
528.40	1297.07
528.76	1313.95
529.12	1330.57
529.48	1347.45
529.84	1363.55
530.20	1380.14
530.56	1397.21
530.91	1414.57
531.27	1431.32
531.63	1447.82
531.99	1464.50
532.35	1480.40
532.71	1496.15
533.07	1512.40
533.42	1528.32
533.78	1544.44
534.14	1560.72
534.50	1576.08
534.86	1591.87
535.21	1607.05
535.57	1622.88
535.93	1638.37
536.29	1653.25
536.65	1668.27
537.00	1683.02
537.36	1698.33
537.72	1712.86
538.08	1727.18
538.44	1741.13
538.79	1754.80
539.15	1768.46
539.51	1782.14
539.87	1796.37
540.22	1810.06
540.58	1823.77
540.94	1837.14
541.29	1849.94
541.65	1862.61
542.01	1875.82
542.37	1888.17
542.72	1900.54
543.08	1912.24
543.44	1924.58
543.79	1935.81
544.15	1946.75
544.51	1958.46
544.87	1969.36
545.22	1980.10
545.58	1990.40
545.94	1999.98
546.29	2010.15
546.65	2019.93
547.01	2029.13
547.36	2037.88
547.72	2046.36
548.07	2054.18
548.43	2062.27
548.79	2070.34
549.14	2077.73
549.50	2085.09
549.86	2092.81
550.21	2100.27
550.57	2107.42
550.92	2114.02
551.28	2121.02
551.64	2128.11
551.99	2134.42
552.35	2140.52
552.70	2146.66
553.06	2152.70
553.41	2159.10
553.77	2164.98
554.13	2171.18
554.48	2177.30
554.84	2182.75
555.19	2188.23
555.55	2193.36
555.90	2197.89
556.26	2202.79
556.61	2207.65
556.97	2211.81
557.32	2215.89
557.68	2220.07
558.03	2224.27
558.39	2227.92
558.74	2232.46
559.10	2236.42
559.45	2240.18
559.81	2244.51
560.16	2248.45
560.52	2251.54
560.87	2255.02
561.23	2257.82
561.58	2260.72
561.94	2263.45
562.29	2265.88
562.64	2268.37
563.00	2271.01
563.35	2274.60
563.71	2277.69
564.06	2280.90
564.42	2283.88
564.77	2286.43
565.12	2288.65
565.48	2290.71
565.83	2292.53
566.19	2293.95
566.54	2294.73
566.89	2295.72
567.25	2296.31
567.60	2297.45
567.96	2299.11
568.31	2299.95
568.66	2301.05
569.02	2301.66
569.37	2301.95
569.72	2302.84
570.08	2303.05
570.43	2303.12
570.78	2302.48
571.14	2300.97
571.49	2299.62
571.84	2299.18
572.20	2298.06
572.55	2296.89
572.90	2295.39
573.26	2294.10
573.61	2292.46
573.96	2290.73
574.31	2287.86
574.67	2284.92
575.02	2281.34
575.37	2278.07
575.72	2274.23
576.08	2270.80
576.43	2267.37
576.78	2263.57
577.13	2260.34
577.49	2257.19
577.84	2253.52
578.19	2249.78
578.54	2246.01
578.90	2241.73
579.25	2236.25
579.60	2231.20
579.95	2226.17
580.30	2221.15
580.66	2216.04
581.01	2210.89
581.36	2205.98
581.71	2201.81
582.06	2197.26
582.42	2192.79
582.77	2187.50
583.12	2182.85
583.47	2178.17
583.82	2173.16
584.17	2167.94
584.53	2162.43
584.88	2156.86
585.23	2151.26
585.58	2145.68
585.93	2140.22
586.28	2135.45
586.63	2130.34
586.98	2125.35
587.34	2120.75
587.69	2115.72
588.04	2110.31
588.39	2104.76
588.74	2098.34
589.09	2092.21
589.44	2085.46
589.79	2079.53
590.14	2073.87
590.49	2067.36
590.84	2060.81
591.19	2054.85
591.54	2048.30
591.89	2040.86
592.25	2034.04
592.60	2026.71
592.95	2019.08
593.30	2011.81
593.65	2004.19
594.00	1997.27
594.35	1989.93
594.70	1981.86
595.05	1974.64
595.40	1967.49
595.75	1959.92
596.10	1953.71
596.45	1946.94
596.80	1940.72
597.15	1933.90
597.50	1926.75
597.85	1920.28
598.19	1913.70
598.54	1906.54
598.89	1899.92
599.24	1894.17
599.59	1887.43
599.94	1881.32
600.29	1875.10
600.64	1868.50
600.99	1861.06
601.34	1854.10
601.69	1847.18
602.04	1840.26
602.39	1832.97
602.74	1826.10
603.08	1819.35
603.43	1812.53
603.78	1805.21
604.13	1798.06
604.48	1790.83
604.83	1784.05
605.18	1777.01
605.53	1769.10
605.87	1761.09
606.22	1753.86
606.57	1745.94
606.92	1738.64
607.27	1731.52
607.62	1724.62
607.96	1717.26
608.31	1710.66
608.66	1702.98
609.01	1695.39
609.36	1687.92
609.70	1679.92
610.05	1671.74
610.40	1664.04
610.75	1655.72
611.10	1648.10
611.44	1639.77
611.79	1631.85
612.14	1623.12
612.49	1614.09
612.83	1605.61
613.18	1597.50
613.53	1589.50
613.88	1580.87
614.22	1572.54
614.57	1563.79
614.92	1555.59
615.27	1548.06
615.61	1539.79
615.96	1531.80
616.31	1524.18
616.65	1516.70
617.00	1509.07
617.35	1501.53
617.70	1493.19
618.04	1484.62
618.39	1476.33
618.74	1468.67
619.08	1460.33
619.43	1452.74
619.78	1445.72
620.12	1438.55
620.47	1431.03
620.82	1422.83
621.16	1415.47
621.51	1407.86
621.85	1400.23
622.20	1391.77
622.55	1383.37
622.89	1375.46
623.24	1367.90
623.59	1360.53
623.93	1353.05
624.28	1345.85
624.62	1338.31
624.97	1331.19
625.32	1324.59
625.66	1317.58
626.01	1310.35
626.35	1302.93
626.70	1295.19
627.04	1287.53
627.39	1279.82
627.73	1272.31
628.08	1265.43
628.43	1258.01
628.77	1250.72
629.12	1243.14
629.46	1235.99
629.81	1228.64
630.15	1221.40
630.50	1214.02
630.84	1205.79
631.19	1197.78
631.53	1190.17
631.88	1182.59
632.22	1174.88
632.57	1167.54
632.91	1159.93
633.26	1152.59
633.60	1145.22
633.95	1138.13
634.29	1131.07
634.64	1124.40
634.98	1117.10
635.32	1109.84
635.67	1103.35
636.01	1096.69
636.36	1089.85
636.70	1083.28
637.05	1076.69
637.39	1070.25
637.73	1063.70
638.08	1057.85
638.42	1051.98
638.77	1045.56
639.11	1038.91
639.45	1032.57
639.80	1025.83
640.14	1019.49
640.49	1012.96
640.83	1006.61
641.17	1000.40
641.52	994.01
641.86	987.52
642.20	981.65
642.55	975.37
642.89	968.81
643.23	962.26
643.58	956.55
643.92	950.41
644.26	944.34
644.61	938.34
644.95	932.31
645.29	925.74
645.64	918.90
645.98	912.67
646.32	906.94
646.66	901.00
647.01	895.16
647.35	889.42
647.69	883.53
648.04	878.06
648.38	872.21
648.72	866.29
649.06	860.22
649.41	854.35
649.75	848.34
650.09	842.42
650.43	836.65
650.78	830.52
651.12	824.52
651.46	818.88
651.80	813.07
652.14	807.66
652.49	802.24
652.83	797.05
653.17	791.33
653.51	785.60
653.85	780.16
654.20	774.59
654.54	768.61
654.88	762.87
655.22	756.97
655.56	751.31
655.90	745.85
656.25	740.63
656.59	735.23
656.93	730.22
657.27	725.06
657.61	719.59
657.95	714.45
658.29	709.46
658.64	704.12
658.98	698.88
659.32	693.42
659.66	688.19
660.00	682.90
660.34	677.98
660.68	673.06
661.02	667.99
661.36	663.26
661.70	658.80
662.05	654.46
662.39	650.15
662.73	645.67
663.07	641.27
663.41	636.79
663.75	632.33
664.09	627.71
664.43	623.35
664.77	619.24
665.11	615.04
665.45	610.87
665.79	606.87
666.13	602.69
666.47	598.59
666.81	594.44
667.15	590.37
667.49	586.42
667.83	582.56
668.17	578.62
668.51	574.55
668.85	570.51
669.19	566.68
669.53	562.79
669.87	558.93
670.21	555.25
670.55	551.62
670.89	548.21
671.23	544.80
671.57	541.29
671.91	537.72
672.25	534.20
672.58	530.72
672.92	527.26
673.26	524.12
673.60	520.97
673.94	517.86
674.28	514.95
674.62	512.03
674.96	508.93
675.30	506.02
675.64	503.07
675.97	500.24
676.31	497.32
676.65	494.37
676.99	491.68
677.33	488.85
677.67	486.03
678.01	482.98
678.34	480.00
678.68	477.08
679.02	474.29
679.36	471.45
679.70	468.68
680.04	465.89
680.37	463.00
680.71	460.23
681.05	457.65
681.39	454.89
681.73	452.23
682.06	449.76
682.40	447.18
682.74	444.64
683.08	442.12
683.42	439.54
683.75	437.02
684.09	434.42
684.43	431.88
684.77	429.40
685.10	427.09
685.44	424.77
685.78	422.53
686.12	420.30
686.45	418.11
686.79	415.82
687.13	413.69
687.46	411.52
687.80	409.36
688.14	407.14
688.48	405.14
688.81	402.89
689.15	400.70
689.49	398.58
689.82	396.52
690.16	394.46
690.50	392.47
690.83	390.56
691.17	388.64
691.51	386.77
691.84	384.93
692.18	382.97
692.52	381.01
692.85	379.08
693.19	377.14
693.52	375.24
693.86	373.41
694.20	371.58
694.53	369.81
694.87	367.96
695.21	366.19
695.54	364.35
695.88	362.61
696.21	360.90
696.55	359.27
696.88	357.59
697.22	355.91
697.56	354.30
697.89	352.60
698.23	350.99
698.56	349.36
698.90	347.76
699.23	346.14
699.57	344.61
699.90	343.06
700.24	341.59
700.58	340.07
700.91	338.63
701.25	337.24
701.58	335.85
701.92	334.52
702.25	333.15
702.59	331.80
702.92	330.50
703.26	329.20
703.59	327.89
703.93	326.71
704.26	325.45
704.60	324.14
704.93	322.89
705.26	321.64
705.60	320.47
705.93	319.31
706.27	318.27
706.60	317.20
706.94	316.13
707.27	314.98
707.61	313.95
707.94	312.95
708.27	311.82
708.61	310.80
708.94	309.80
709.28	308.83
709.61	307.85
709.94	306.89
710.28	305.87
710.61	304.87
710.95	303.81
711.28	302.90
711.61	301.98
711.95	301.09
712.28	300.13
712.61	299.15
712.95	298.23
713.28	297.28
713.61	296.37
713.95	295.50
714.28	294.65
714.61	293.79
714.95	292.88
715.28	292.03
715.61	291.09
715.95	290.18
716.28	289.29
716.61	288.43
716.95	287.61
717.28	286.90
717.61	286.16
717.94	285.41
718.28	284.58
718.61	283.89
718.94	283.19
719.27	282.57
719.61	281.94
719.94	281.26
720.27	280.60
720.60	279.96
720.94	279.33
721.27	278.74
721.60	278.14
721.93	277.59
722.27	277.06
722.60	276.51
722.93	275.97
723.26	275.43
723.59	274.88
723.93	274.33
724.26	273.71
724.59	273.14
724.92	272.64
725.25	272.20
725.59	271.66
725.92	271.13
726.25	270.61
726.58	270.11
726.91	269.65
727.24	269.17
727.57	268.70
727.91	268.20
728.24	267.70
728.57	267.21
728.90	266.74
729.23	266.25
729.56	265.82
729.89	265.37
730.22	264.88
730.55	264.46
730.89	264.00
731.22	263.61
731.55	263.19
731.88	262.75
732.21	262.28
732.54	261.85
732.87	261.41
733.20	261.02
733.53	260.63
733.86	260.23
734.19	259.85
734.52	259.48
734.85	259.16
735.18	258.77
735.51	258.42
735.84	258.05
736.17	257.70
736.50	257.30
736.83	257.08
737.16	256.75
737.49	256.39
737.82	256.06
738.15	255.71
738.48	255.38
738.81	255.06
739.14	254.75
739.47	254.44
739.80	254.15
740.13	253.84
740.46	253.53
740.79	253.19
741.12	252.86
741.45	252.54
741.78	252.13
742.11	251.83
742.44	251.51
742.77	251.22
743.10	250.91
743.43	250.59
743.75	250.18
744.08	250.03
744.41	249.72
744.74	249.47
745.07	249.18
745.40	248.91
745.73	248.69
746.06	248.39
746.39	248.12
746.71	247.83
747.04	247.57
747.37	247.29
747.70	247.08
748.03	246.82
748.36	246.57
748.68	246.38
749.01	246.15
749.34	245.95
749.67	245.73
750.00	245.52
750.33	245.42
750.65	245.24
750.98	244.91
751.31	244.73
751.64	244.50
751.97	244.32
752.29	244.11
752.62	243.85
752.95	243.67
753.28	243.48
753.60	243.30
753.93	243.10
754.26	242.91
754.59	242.69
754.91	242.51
755.24	242.30
755.57	242.12
755.90	241.92
756.22	241.73
756.55	241.52
756.88	241.32
757.20	241.09
757.53	240.87
757.86	240.70
758.19	240.53
758.51	240.37
758.84	240.16
759.17	239.99
759.49	239.85
759.82	239.75
760.15	239.59
760.47	239.46
760.80	239.28
761.13	239.16
761.45	238.99
761.78	238.86
762.11	238.74
762.43	238.59
762.76	238.43
763.08	238.30
763.41	238.18
763.74	238.06
764.06	237.90
764.39	237.77
764.71	237.64
765.04	237.51
765.37	237.37
765.69	237.29
766.02	237.17
766.34	237.03
766.67	236.83
767.00	236.72
767.32	236.62
767.65	236.61
767.97	236.48
768.30	236.38
768.62	236.26
768.95	236.12
769.27	236.02
769.60	235.93
769.92	235.78
770.25	235.62
770.57	235.48
770.90	235.36
771.22	235.25
771.55	235.13
771.87	235.05
772.20	234.95
772.52	234.92
772.85	234.93
773.17	234.84
773.50	234.76
773.82	234.68
774.15	234.53
774.47	234.39
774.80	234.32
775.12	234.23
775.45	234.15
775.77	234.11
776.09	234.02
776.42	233.95
776.74	233.89
777.07	233.83
777.39	233.78
777.72	233.74
778.04	233.68
778.36	233.61
778.69	233.54
779.01	233.47
779.33	233.30
779.66	233.11
779.98	233.00
780.31	232.94
780.63	232.89
780.95	232.87
781.28	232.78
781.60	232.69
781.92	232.62
782.25	232.54
782.57	232.46
782.89	232.39
783.22	232.29
783.54	232.22
783.86	232.18
784.19	232.09
784.51	232.05
784.83	231.98
785.16	231.93
785.48	231.83
785.80	231.77
786.12	231.73
786.45	231.68
786.77	231.67
787.09	231.60
787.42	231.52
787.74	231.46
788.06	231.41
788.38	231.36
788.71	231.29
789.03	231.26
789.35	231.21
789.67	231.15
789.99	231.15
790.32	231.11
790.64	231.09
790.96	231.15
791.28	231.05
791.61	230.97
791.93	230.97
792.25	230.95
792.57	230.95
792.89	230.90
793.21	230.90
793.54	230.85
793.86	230.81
794.18	230.81
794.50	230.71
794.82	230.72
795.14	230.69
795.47	230.70
795.79	230.69
796.11	230.64
796.43	230.60
796.75	230.55
797.07	230.56
797.39	230.53
797.71	230.42
798.04	230.43
798.36	230.45
798.68	230.35
799.00	230.32
799.32	230.27
799.64	230.28
799.96	230.22
800.28	230.20
800.60	230.13
800.92	230.11
801.24	230.14
801.56	230.09
801.89	230.06
802.21	230.03
802.53	229.98
802.85	229.97
803.17	230.01
803.49	229.96
803.81	229.87
804.13	229.81
804.45	229.79
804.77	229.75
805.09	229.74
805.41	229.72
805.73	229.69
806.05	229.65
806.37	229.59
806.69	229.55
807.01	229.53
807.33	229.55
807.65	229.46
807.97	229.46
808.28	229.42
808.60	229.39
808.92	229.33
809.24	229.35
809.56	229.29
809.88	229.22
810.20	229.23
810.52	229.30
810.84	229.28
811.16	229.22
811.48	229.19
811.80	229.21
812.12	229.17
812.43	229.14
812.75	229.07
813.07	229.06
813.39	229.03
813.71	228.98
814.03	228.96
814.35	228.94
814.67	228.90
814.98	228.83
815.30	228.80
815.62	228.77
815.94	228.68
816.26	228.69
816.58	228.65
816.89	228.61
817.21	228.53
817.53	228.51
817.85	228.45
818.17	228.42
818.48	228.32
818.80	228.36
819.12	228.32
819.44	228.33
819.76	228.29
820.07	228.27
820.39	228.24
820.71	228.20
821.03	228.19
821.34	228.11
821.66	228.10
821.98	228.10
822.30	228.09
822.61	228.14
822.93	228.07
823.25	228.06
823.57	228.03
823.88	228.03
824.20	227.99
824.52	228.04
824.83	228.01
825.15	228.00
825.47	227.98
825.79	227.99
826.10	227.96
826.42	227.95
826.74	227.95
827.05	227.96
827.37	227.98
827.69	227.97
828.00	228.00
828.32	228.03
828.64	228.00
828.95	228.02
829.27	227.98
829.58	228.00
829.90	228.02
830.22	228.03
830.53	227.97
830.85	227.98
831.17	227.96
831.48	227.98
831.80	227.96
832.11	227.92
832.43	227.89
832.75	227.91
833.06	227.97
833.38	227.95
833.69	227.94
834.01	227.90
834.32	227.89
834.64	227.89
834.96	227.87
835.27	227.89
835.59	227.88
835.90	227.84
836.22	227.85
836.53	227.82
836.85	227.81
837.16	227.93
837.48	227.93
837.79	227.92
838.11	227.95
838.42	227.97
838.74	228.00
839.05	227.99
839.37	228.00
839.68	227.94
840.00	227.97
840.31	227.98
840.63	228.00
840.94	227.98
841.26	227.97
841.57	227.98
841.88	227.99
842.20	227.97
842.51	227.98
842.83	227.98
843.14	228.06
843.46	228.06
843.77	227.98
844.08	227.99
844.40	227.97
844.71	227.94
845.03	227.88
845.34	227.85
845.65	227.83
845.97	227.82
846.28	227.81
846.60	227.80
846.91	227.77
847.22	227.74
847.54	227.75
847.85	227.75
848.16	227.73
848.48	227.67
848.79	227.69
849.10	227.68
849.42	227.65
849.73	227.53
850.04	227.53
850.36	227.47
850.67	227.47
850.98	227.43
851.30	227.43
851.61	227.41
851.92	227.39
852.23	227.42
852.55	227.39
852.86	227.37
853.17	227.34
853.49	227.34
853.80	227.35
854.11	227.36
854.42	227.32
854.74	227.29
855.05	227.27
855.36	227.22
855.67	227.22
855.99	227.20
856.30	227.32
856.61	227.29
856.92	227.32
857.23	227.31
857.55	227.32
857.86	227.28
858.17	227.33
858.48	227.31
858.79	227.28
859.11	227.29
859.42	227.30
859.73	227.28
860.04	227.27
860.35	227.23
860.66	227.19
860.98	227.19
861.29	227.20
861.60	227.20
861.91	227.24
862.22	227.20
862.53	227.19
862.84	227.09
863.16	227.11
863.47	227.03
863.78	227.04
864.09	227.03
864.40	227.05
864.71	227.04
865.02	227.05
865.33	227.05
865.64	227.01
865.95	227.02
866.27	227.11
866.58	227.10
866.89	227.11
867.20	227.11
867.51	227.13
867.82	227.11
868.13	227.15
868.44	227.14
868.75	227.19
869.06	227.23
869.37	227.23
869.68	227.19
869.99	227.23
870.30	227.22
870.61	227.24
870.92	227.25
871.23	227.24
871.54	227.26
871.85	227.29
872.16	227.33
872.47	227.31
872.78	227.26
873.09	227.26
873.40	227.25
873.71	227.24
874.02	227.21
874.33	227.21
874.64	227.20
874.95	227.19
875.26	227.12
875.56	227.12
875.87	227.12
876.18	227.15
876.49	227.29
876.80	227.26
877.11	227.25
877.42	227.22
877.73	227.22
878.04	227.21
878.35	227.20
878.66	227.21
878.96	227.23
879.27	227.22
879.58	227.24
879.89	227.23
880.20	227.27
880.51	227.27
880.82	227.25
881.12	227.22
881.43	227.19
881.74	227.23
882.05	227.23
882.36	227.19
882.67	227.19
882.97	227.10
883.28	227.09
883.59	227.08
883.90	227.13
884.21	227.15
884.51	227.16
884.82	227.13
885.13	227.12
885.44	227.10
885.74	227.10
886.05	227.08
886.36	227.10
886.67	227.06
886.98	227.14
887.28	227.17
887.59	227.20
887.90	227.20
888.20	227.18
888.51	227.18
888.82	227.18
889.13	227.15
889.43	227.20
889.74	227.21
890.05	227.18
890.35	227.16
890.66	227.13
890.97	227.13
891.28	227.14
891.58	227.12
891.89	227.12
892.20	227.09
892.50	227.13
892.81	227.10
893.12	227.11
893.42	227.05
893.73	227.05
894.04	227.02
894.34	227.03
894.65	227.06
894.95	227.02
895.26	227.05
895.57	227.11
895.87	227.03
896.18	227.02
896.48	227.03
896.79	226.99
897.10	226.99
897.40	226.98
897.71	226.98
898.01	226.98
898.32	226.99
898.63	227.03
898.93	227.01
899.24	227.02
899.54	227.01
899.85	226.98
900.15	226.98
900.46	227.00
900.76	227.00
901.07	226.98
901.38	227.00
901.68	227.00
901.99	226.95
902.29	226.96
902.60	226.98
902.90	226.99
903.21	227.01
903.51	227.04
903.82	227.06
904.12	227.05
904.43	227.06
904.73	227.06
905.03	227.08
905.34	227.15
905.64	227.15
905.95	227.17
906.25	227.17
906.56	227.16
906.86	227.17
907.17	227.16
907.47	227.17
907.77	227.18
908.08	227.18
908.38	227.22
908.69	227.24
908.99	227.28
909.30	227.30
909.60	227.31
909.90	227.32
910.21	227.30
910.51	227.30
910.81	227.28
911.12	227.27
911.42	227.27
911.73	227.17
912.03	227.19
912.33	227.22
912.64	227.26
912.94	227.24
913.24	227.21
913.55	227.20
913.85	227.20
914.15	227.18
914.46	227.21
914.76	227.19
915.06	227.14
915.37	227.09
915.67	227.07
915.97	227.07
916.27	227.05
916.58	227.05
916.88	227.05
917.18	227.06
917.49	227.13
917.79	227.10
918.09	227.10
918.39	227.14
918.70	227.11
919.00	227.10
919.30	227.18
919.60	227.19
919.91	227.16
920.21	227.16
920.51	227.18
920.81	227.14
921.12	227.15
921.42	227.17
921.72	227.20
922.02	227.21
922.32	227.22
922.63	227.22
922.93	227.28
923.23	227.28
923.53	227.26
923.83	227.17
924.13	227.19
924.44	227.20
924.74	227.21
925.04	227.22
925.34	227.19
925.64	227.14
925.94	227.13
926.24	227.18
926.55	227.17
926.85	227.13
927.15	227.12
927.45	227.09
927.75	227.07
928.05	227.02
928.35	227.01
928.65	227.00
928.95	227.00
929.26	226.98
929.56	227.01
929.86	227.02
930.16	227.04
930.46	227.02
930.76	227.01
931.06	226.96
931.36	226.91
931.66	226.93
931.96	226.91
932.26	226.94
932.56	226.88
932.86	226.88
933.16	226.88
933.46	226.87
933.76	226.89
934.06	226.92
934.36	226.97
934.66	226.95
934.96	226.91
935.26	226.90
935.56	226.89
935.86	226.82
936.16	226.81
936.46	226.79
936.76	226.82
937.06	226.80
937.36	226.77
937.66	226.79
937.96	226.78
938.26	226.79
938.56	226.78
938.86	226.83
939.16	226.83
939.46	226.83
939.76	226.86
940.06	226.85
940.35	226.82
940.65	226.78
940.95	226.78
941.25	226.78
941.55	226.75
941.85	226.73
942.15	226.76
942.45	226.78
942.75	226.75
943.04	226.71
943.34	226.74
943.64	226.73
943.94	226.73
944.24	226.75
944.54	226.75
944.84	226.75
945.13	226.72
945.43	226.74
945.73	226.76
946.03	226.75
946.33	226.73
946.62	226.73
946.92	226.74
947.22	226.78
947.52	226.80
947.82	226.82
948.11	226.83
948.41	226.79
948.71	226.80
949.01	226.82
949.31	226.82
949.60	226.80
949.90	226.85
950.20	226.84
950.50	226.82
950.79	226.78
951.09	226.77
951.39	226.75
951.69	226.76
951.98	226.75
952.28	226.77
952.58	226.80
952.87	226.81
953.17	226.83
953.47	226.80
953.76	226.79
954.06	226.76
954.36	226.74
954.66	226.75
954.95	226.74
955.25	226.74
955.55	226.74
955.84	226.71
956.14	226.70
956.44	226.69
956.73	226.67
957.03	226.70
957.32	226.71
957.62	226.68
957.92	226.70
958.21	226.71
958.51	226.79
958.81	226.81
959.10	226.79
959.40	226.81
959.69	226.82
959.99	226.81
960.29	226.84
960.58	226.81
960.88	226.87
961.17	226.84
961.47	226.84
961.76	226.84
962.06	226.88
962.36	226.85
962.65	226.87
962.95	226.89
963.24	226.86
963.54	226.87
963.83	226.89
964.13	226.88
964.42	226.85
964.72	226.77
965.01	226.76
965.31	226.75
965.60	226.71
965.90	226.77
966.19	226.76
966.49	226.74
966.78	226.75
967.08	226.75
967.37	226.74
967.67	226.73
967.96	226.74
968.26	226.74
968.55	226.76
968.85	226.76
969.14	226.73
969.43	226.75
969.73	226.73
970.02	226.71
970.32	226.68
970.61	226.66
970.91	226.64
971.20	226.62
971.49	226.61
971.79	226.62
972.08	226.56
972.38	226.55
972.67	226.59
972.96	226.61
973.26	226.58
973.55	226.62
973.85	226.62
974.14	226.60
974.43	226.57
974.73	226.55
975.02	226.51
975.31	226.51
975.61	226.50
975.90	226.49
976.19	226.51
976.49	226.52
976.78	226.53
977.07	226.52
977.37	226.52
977.66	226.55
977.95	226.55
978.24	226.55
978.54	226.58
978.83	226.55
979.12	226.52
979.42	226.51
979.71	226.49
980.00	226.49
980.29	226.50
980.59	226.52
980.88	226.57
981.17	226.58
981.46	226.60
981.76	226.59
982.05	226.60
982.34	226.58
982.63	226.59
982.93	226.60
983.22	226.63
983.51	226.62
983.80	226.62
984.09	226.63
984.39	226.60
984.68	226.58
984.97	226.56
985.26	226.58
985.55	226.57
985.85	226.56
986.14	226.59
986.43	226.58
986.72	226.58
987.01	226.53
987.30	226.56
987.59	226.56
987.89	226.57
988.18	226.54
988.47	226.57
988.76	226.56
989.05	226.54
989.34	226.51
989.63	226.52
989.92	226.49
990.22	226.49
990.51	226.50
990.80	226.49
991.09	226.52
991.38	226.52
991.67	226.53
991.96	226.52
992.25	226.51
992.54	226.49
992.83	226.45
993.12	226.43
993.41	226.42
993.70	226.48
993.99	226.48
994.28	226.52
994.58	226.53
994.87	226.50
995.16	226.51
995.45	226.52
995.74	226.52
996.03	226.56
996.32	226.55
996.61	226.57
996.90	226.56
997.19	226.55
997.48	226.57
997.77	226.54
998.06	226.54
998.34	226.51
998.63	226.54
998.92	226.53
999.21	226.58
999.50	226.58
999.79	226.51
1000.08	226.54
1000.37	226.53
1000.66	226.48
1000.95	226.52
1001.24	226.51
1001.53	226.52
1001.82	226.51
1002.11	226.45
1002.40	226.47
1002.68	226.51
1002.97	226.55
1003.26	226.54
1003.55	226.53
1003.84	226.56
1004.13	226.58
1004.42	226.60
1004.71	226.54
1004.99	226.56
1005.28	226.58
1005.57	226.57
1005.86	226.56
1006.15	226.54
1006.44	226.52
1006.72	226.56
1007.01	226.55
1007.30	226.58
1007.59	226.56
1007.88	226.55
1008.17	226.58
1008.45	226.51
1008.74	226.44
1009.03	226.46
1009.32	226.47
1009.60	226.44
1009.89	226.39
1010.18	226.35
1010.47	226.37
1010.76	226.40
1011.04	226.39
1011.33	226.38
1011.62	226.35
1011.91	226.39
1012.19	226.38
1012.48	226.37
1012.77	226.37
1013.05	226.39
1013.34	226.36
1013.63	226.34
1013.92	226.37
1014.20	226.38
1014.49	226.41
1014.78	226.45
1015.06	226.38
1015.35	226.37
1015.64	226.40
1015.92	226.41
1016.21	226.43
1016.50	226.43
1016.78	226.44
1017.07	226.48
1017.36	226.46
1017.64	226.47
1017.93	226.43
1018.22	226.46
1018.50	226.47
1018.79	226.48
1019.08	226.44
1019.36	226.46
1019.65	226.47
1019.93	226.47
1020.22	226.46
1020.51	226.53
1020.79	226.50
1021.08	226.77
1021.36	226.39
1021.65	226.86
1021.94	226.39
1022.22	226.74
1022.51	226.22
1022.79	226.82
1023.08	226.45
1023.36	227.99
1023.65	226.09
>>>>>End Processed Spectral Data<<<<<
