SpectraSuite Data File
++++++++++++++++++++++++++++++++++++
Date: Fri Feb 01 18:04:06 EST 2013
User: group
Dark Spectrum Present: No
Reference Spectrum Present: No
Number of Sampled Component Spectra: 1
Spectrometers: USB2E7196
Integration Time (usec): 35000 (USB2E7196)
Spectra Averaged: 100 (USB2E7196)
Boxcar Smoothing: 10 (USB2E7196)
Correct for Electrical Dark: No (USB2E7196)
Strobe/Lamp Enabled: No (USB2E7196)
Correct for Detector Non-linearity: No (USB2E7196)
Correct for Stray Light: No (USB2E7196)
Number of Pixels in Processed Spectrum: 2048
>>>>>Begin Processed Spectral Data<<<<<
339.09	0.00
339.48	213.16
339.86	214.37
340.24	215.83
340.63	217.04
341.01	220.00
341.39	219.95
341.78	221.79
342.16	223.11
342.54	222.41
342.93	211.41
343.31	222.09
343.69	222.62
344.07	223.07
344.46	223.52
344.84	223.91
345.22	224.18
345.60	224.44
345.99	224.58
346.37	224.69
346.75	224.82
347.13	224.91
347.52	224.97
347.90	225.06
348.28	225.09
348.66	225.12
349.05	225.13
349.43	225.20
349.81	225.24
350.19	225.30
350.57	225.36
350.96	225.45
351.34	225.53
351.72	225.62
352.10	225.72
352.48	225.76
352.87	225.79
353.25	225.84
353.63	225.90
354.01	225.99
354.39	226.03
354.77	226.10
355.15	226.19
355.54	226.26
355.92	226.26
356.30	226.34
356.68	226.50
357.06	226.56
357.44	226.59
357.82	226.67
358.20	226.72
358.58	226.77
358.97	226.82
359.35	226.89
359.73	226.96
360.11	226.99
360.49	227.04
360.87	227.13
361.25	227.19
361.63	227.26
362.01	227.30
362.39	227.36
362.77	227.40
363.15	227.40
363.53	227.43
363.91	227.49
364.29	227.50
364.67	227.39
365.05	227.41
365.43	227.44
365.81	227.45
366.19	227.49
366.57	227.52
366.95	227.53
367.33	227.52
367.71	227.48
368.09	227.49
368.47	227.45
368.85	227.41
369.23	227.39
369.61	227.31
369.99	227.27
370.37	227.26
370.75	227.26
371.13	227.21
371.51	227.18
371.89	227.10
372.27	227.09
372.65	227.06
373.03	226.99
373.41	226.93
373.78	226.87
374.16	226.79
374.54	226.72
374.92	226.67
375.30	226.58
375.68	226.55
376.06	226.51
376.44	226.47
376.82	226.42
377.19	226.36
377.57	226.27
377.95	226.24
378.33	226.14
378.71	226.05
379.09	226.04
379.47	226.00
379.84	225.93
380.22	225.84
380.60	225.77
380.98	225.70
381.36	225.66
381.73	225.60
382.11	225.58
382.49	225.49
382.87	225.43
383.25	225.41
383.62	225.42
384.00	225.35
384.38	225.30
384.76	225.28
385.13	225.27
385.51	225.24
385.89	225.18
386.27	225.17
386.64	225.12
387.02	225.06
387.40	225.00
387.78	224.98
388.15	224.92
388.53	224.91
388.91	224.91
389.29	224.82
389.66	224.82
390.04	224.75
390.42	224.74
390.79	224.73
391.17	224.72
391.55	224.64
391.92	224.68
392.30	224.68
392.68	224.66
393.05	224.65
393.43	224.66
393.81	224.68
394.18	224.66
394.56	224.68
394.94	224.70
395.31	224.71
395.69	224.76
396.06	224.81
396.44	224.83
396.82	224.87
397.19	224.98
397.57	224.99
397.95	225.08
398.32	225.13
398.70	225.16
399.07	225.23
399.45	225.26
399.82	225.29
400.20	225.35
400.58	225.45
400.95	225.48
401.33	225.58
401.70	225.71
402.08	225.83
402.45	225.90
402.83	226.01
403.20	226.12
403.58	226.19
403.95	226.35
404.33	226.47
404.71	226.61
405.08	226.83
405.46	226.98
405.83	227.13
406.21	227.31
406.58	227.47
406.96	227.64
407.33	227.87
407.70	228.10
408.08	228.42
408.45	228.66
408.83	228.98
409.20	229.24
409.58	229.48
409.95	229.78
410.33	230.15
410.70	230.46
411.08	230.86
411.45	231.25
411.82	231.62
412.20	232.10
412.57	232.62
412.95	233.03
413.32	233.55
413.69	234.08
414.07	234.63
414.44	235.27
414.82	235.89
415.19	236.61
415.56	237.33
415.94	238.09
416.31	238.95
416.68	239.77
417.06	240.70
417.43	241.61
417.81	242.64
418.18	243.64
418.55	244.80
418.93	245.97
419.30	247.23
419.67	248.50
420.04	249.77
420.42	251.12
420.79	252.64
421.16	254.22
421.54	255.82
421.91	257.48
422.28	259.18
422.66	261.02
423.03	262.75
423.40	264.56
423.77	266.45
424.15	268.40
424.52	270.46
424.89	272.63
425.26	274.77
425.64	276.78
426.01	278.96
426.38	281.22
426.75	283.50
427.13	285.82
427.50	288.29
427.87	290.86
428.24	293.40
428.61	295.85
428.99	298.46
429.36	301.36
429.73	304.15
430.10	306.92
430.47	309.68
430.85	312.60
431.22	315.63
431.59	318.80
431.96	321.86
432.33	325.23
432.70	328.51
433.08	332.30
433.45	335.87
433.82	339.42
434.19	343.35
434.56	347.17
434.93	350.84
435.30	354.39
435.68	358.31
436.05	362.13
436.42	365.94
436.79	369.34
437.16	373.05
437.53	376.87
437.90	380.63
438.27	384.39
438.64	388.23
439.01	391.76
439.38	394.87
439.75	397.76
440.13	401.14
440.50	404.32
440.87	406.82
441.24	409.48
441.61	412.49
441.98	414.48
442.35	416.96
442.72	419.42
443.09	421.89
443.46	423.29
443.83	424.12
444.20	424.82
444.57	426.03
444.94	426.40
445.31	426.94
445.68	427.41
446.05	427.55
446.42	427.06
446.79	426.53
447.16	425.93
447.53	425.50
447.90	423.91
448.27	422.34
448.64	420.21
449.01	418.67
449.37	415.93
449.74	413.35
450.11	410.28
450.48	406.91
450.85	403.47
451.22	400.51
451.59	397.77
451.96	395.10
452.33	391.56
452.70	388.37
453.07	384.50
453.43	380.65
453.80	376.88
454.17	373.26
454.54	369.79
454.91	366.11
455.28	362.48
455.65	359.09
456.02	355.70
456.38	352.80
456.75	349.15
457.12	346.08
457.49	343.06
457.86	340.07
458.23	337.54
458.59	334.76
458.96	331.91
459.33	329.37
459.70	326.80
460.07	324.70
460.43	322.31
460.80	320.04
461.17	317.98
461.54	315.92
461.91	313.91
462.27	311.87
462.64	310.14
463.01	308.30
463.38	306.51
463.74	304.67
464.11	303.01
464.48	301.58
464.85	300.07
465.21	298.88
465.58	297.62
465.95	296.11
466.32	294.82
466.68	293.60
467.05	292.34
467.42	291.13
467.78	289.85
468.15	288.64
468.52	287.73
468.88	286.59
469.25	285.51
469.62	284.63
469.98	283.72
470.35	282.81
470.72	281.97
471.08	281.08
471.45	280.31
471.82	279.58
472.18	278.74
472.55	278.12
472.92	277.39
473.28	276.75
473.65	276.13
474.02	275.50
474.38	274.95
474.75	274.49
475.11	274.01
475.48	273.65
475.85	273.30
476.21	272.97
476.58	272.69
476.94	272.45
477.31	272.22
477.67	271.97
478.04	271.75
478.41	271.59
478.77	271.57
479.14	271.43
479.50	271.36
479.87	271.40
480.23	271.40
480.60	271.39
480.96	271.42
481.33	271.61
481.69	271.81
482.06	272.01
482.42	272.18
482.79	272.42
483.15	272.70
483.52	273.08
483.88	273.38
484.25	273.78
484.61	274.19
484.98	274.59
485.34	275.16
485.71	275.80
486.07	276.40
486.44	276.94
486.80	277.67
487.17	278.46
487.53	279.29
487.90	280.19
488.26	281.18
488.62	282.22
488.99	283.19
489.35	284.25
489.72	285.39
490.08	286.65
490.44	287.90
490.81	289.28
491.17	290.69
491.54	292.25
491.90	293.84
492.26	295.56
492.63	297.40
492.99	299.29
493.36	301.25
493.72	303.44
494.08	305.67
494.45	308.05
494.81	310.52
495.17	313.04
495.54	315.70
495.90	318.53
496.26	321.46
496.63	324.59
496.99	327.87
497.35	331.34
497.72	334.94
498.08	338.71
498.44	342.55
498.80	346.73
499.17	350.98
499.53	355.46
499.89	360.12
500.26	364.89
500.62	369.81
500.98	375.06
501.34	380.45
501.71	386.13
502.07	391.89
502.43	397.85
502.79	404.08
503.16	410.57
503.52	417.22
503.88	424.05
504.24	431.09
504.60	438.48
504.97	446.05
505.33	453.89
505.69	462.09
506.05	470.41
506.41	478.84
506.78	487.58
507.14	496.53
507.50	505.79
507.86	515.42
508.22	525.23
508.59	535.10
508.95	545.37
509.31	555.83
509.67	566.59
510.03	577.69
510.39	588.99
510.75	600.57
511.12	612.29
511.48	624.36
511.84	636.68
512.20	649.00
512.56	661.84
512.92	674.83
513.28	688.09
513.64	701.52
514.00	715.11
514.37	729.09
514.73	743.20
515.09	757.25
515.45	771.52
515.81	786.26
516.17	801.31
516.53	816.60
516.89	831.96
517.25	847.39
517.61	862.98
517.97	878.69
518.33	894.26
518.69	910.38
519.05	926.69
519.41	943.23
519.77	960.10
520.13	976.94
520.49	993.86
520.85	1010.66
521.21	1027.81
521.57	1045.50
521.93	1062.65
522.29	1080.54
522.65	1098.40
523.01	1116.22
523.37	1133.82
523.73	1151.64
524.09	1169.30
524.45	1187.19
524.81	1205.47
525.17	1223.92
525.53	1242.53
525.89	1261.20
526.25	1279.76
526.61	1297.90
526.97	1316.37
527.33	1334.74
527.68	1353.22
528.04	1371.48
528.40	1389.89
528.76	1408.80
529.12	1427.35
529.48	1446.32
529.84	1464.25
530.20	1482.80
530.56	1501.81
530.91	1521.30
531.27	1540.08
531.63	1558.51
531.99	1577.17
532.35	1595.24
532.71	1613.28
533.07	1631.67
533.42	1649.86
533.78	1668.03
534.14	1686.52
534.50	1704.00
534.86	1721.97
535.21	1739.33
535.57	1757.41
535.93	1775.17
536.29	1792.14
536.65	1809.55
537.00	1826.40
537.36	1843.96
537.72	1860.75
538.08	1877.62
538.44	1893.48
538.79	1909.61
539.15	1925.53
539.51	1941.48
539.87	1958.02
540.22	1974.02
540.58	1990.03
540.94	2005.36
541.29	2020.53
541.65	2035.48
542.01	2050.99
542.37	2065.64
542.72	2080.30
543.08	2094.32
543.44	2109.06
543.79	2122.61
544.15	2135.64
544.51	2149.59
544.87	2162.73
545.22	2175.87
545.58	2188.32
545.94	2200.43
546.29	2212.53
546.65	2224.70
547.01	2236.23
547.36	2247.16
547.72	2257.68
548.07	2267.67
548.43	2278.19
548.79	2288.30
549.14	2297.92
549.50	2307.33
549.86	2317.05
550.21	2326.44
550.57	2335.82
550.92	2344.34
551.28	2353.61
551.64	2362.73
551.99	2371.20
552.35	2379.47
552.70	2387.65
553.06	2395.50
553.41	2403.81
553.77	2411.60
554.13	2419.51
554.48	2427.56
554.84	2434.96
555.19	2442.03
555.55	2449.15
555.90	2455.19
556.26	2462.03
556.61	2468.57
556.97	2474.71
557.32	2480.54
557.68	2486.39
558.03	2492.26
558.39	2497.47
558.74	2503.58
559.10	2509.12
559.45	2514.31
559.81	2520.07
560.16	2525.33
560.52	2529.95
560.87	2534.80
561.23	2538.90
561.58	2543.22
561.94	2547.11
562.29	2550.68
562.64	2554.78
563.00	2558.45
563.35	2563.56
563.71	2567.89
564.06	2572.36
564.42	2576.52
564.77	2580.40
565.12	2583.96
565.48	2586.97
565.83	2590.18
566.19	2592.75
566.54	2594.62
566.89	2596.98
567.25	2598.68
567.60	2600.90
567.96	2603.83
568.31	2605.71
568.66	2607.97
569.02	2609.55
569.37	2610.71
569.72	2612.57
570.08	2613.59
570.43	2614.46
570.78	2614.54
571.14	2613.52
571.49	2612.61
571.84	2613.03
572.20	2612.62
572.55	2612.10
572.90	2610.96
573.26	2610.11
573.61	2608.70
573.96	2607.55
574.31	2604.89
574.67	2602.07
575.02	2598.64
575.37	2595.35
575.72	2591.81
576.08	2588.54
576.43	2585.20
576.78	2581.70
577.13	2578.61
577.49	2575.52
577.84	2572.14
578.19	2568.33
578.54	2564.94
578.90	2560.95
579.25	2554.94
579.60	2549.61
579.95	2544.30
580.30	2539.08
580.66	2533.59
581.01	2528.28
581.36	2523.02
581.71	2518.58
582.06	2514.09
582.42	2509.55
582.77	2503.88
583.12	2498.86
583.47	2493.90
583.82	2488.80
584.17	2483.13
584.53	2477.23
584.88	2471.07
585.23	2464.83
585.58	2458.76
585.93	2452.73
586.28	2447.26
586.63	2441.77
586.98	2436.26
587.34	2430.97
587.69	2425.55
588.04	2419.83
588.39	2413.73
588.74	2406.51
589.09	2399.61
589.44	2392.04
589.79	2385.13
590.14	2378.87
590.49	2371.47
590.84	2364.21
591.19	2357.19
591.54	2349.80
591.89	2341.57
592.25	2334.13
592.60	2325.94
592.95	2317.45
593.30	2308.95
593.65	2300.43
594.00	2292.34
594.35	2283.90
594.70	2274.79
595.05	2266.82
595.40	2258.41
595.75	2249.77
596.10	2242.59
596.45	2234.88
596.80	2227.67
597.15	2220.17
597.50	2212.29
597.85	2204.85
598.19	2197.37
598.54	2189.55
598.89	2182.02
599.24	2175.20
599.59	2167.60
599.94	2160.41
600.29	2153.17
600.64	2145.54
600.99	2137.00
601.34	2129.26
601.69	2121.28
602.04	2113.41
602.39	2104.78
602.74	2096.99
603.08	2089.27
603.43	2081.57
603.78	2072.95
604.13	2064.53
604.48	2056.24
604.83	2048.02
605.18	2040.07
605.53	2030.75
605.87	2021.18
606.22	2012.66
606.57	2003.21
606.92	1994.33
607.27	1985.98
607.62	1977.77
607.96	1969.36
608.31	1961.62
608.66	1952.74
609.01	1943.90
609.36	1934.97
609.70	1925.63
610.05	1916.08
610.40	1906.97
610.75	1897.11
611.10	1888.30
611.44	1878.43
611.79	1868.75
612.14	1858.57
612.49	1847.73
612.83	1837.71
613.18	1828.14
613.53	1818.67
613.88	1808.70
614.22	1799.03
614.57	1788.72
614.92	1779.36
615.27	1770.63
615.61	1760.87
615.96	1751.30
616.31	1742.27
616.65	1733.65
617.00	1724.73
617.35	1715.55
617.70	1705.83
618.04	1695.90
618.39	1686.14
618.74	1677.16
619.08	1667.45
619.43	1658.45
619.78	1650.17
620.12	1641.84
620.47	1632.97
620.82	1623.16
621.16	1614.28
621.51	1605.22
621.85	1596.33
622.20	1586.26
622.55	1576.26
622.89	1566.88
623.24	1557.83
623.59	1549.06
623.93	1540.04
624.28	1531.50
624.62	1522.68
624.97	1514.16
625.32	1505.95
625.66	1497.42
626.01	1488.99
626.35	1480.30
626.70	1471.06
627.04	1461.94
627.39	1452.56
627.73	1443.80
628.08	1435.77
628.43	1427.34
628.77	1418.77
629.12	1409.89
629.46	1401.37
629.81	1392.44
630.15	1383.90
630.50	1375.19
630.84	1365.63
631.19	1356.27
631.53	1347.39
631.88	1338.51
632.22	1329.48
632.57	1320.89
632.91	1312.20
633.26	1303.49
633.60	1294.76
633.95	1286.40
634.29	1278.15
634.64	1270.34
634.98	1261.71
635.32	1253.34
635.67	1245.42
636.01	1237.60
636.36	1229.65
636.70	1222.04
637.05	1214.45
637.39	1206.85
637.73	1199.17
638.08	1192.12
638.42	1185.10
638.77	1177.46
639.11	1169.76
639.45	1162.34
639.80	1154.61
640.14	1147.03
640.49	1139.37
640.83	1131.90
641.17	1124.68
641.52	1117.22
641.86	1109.60
642.20	1102.73
642.55	1095.20
642.89	1087.63
643.23	1079.87
643.58	1073.08
643.92	1065.84
644.26	1058.78
644.61	1051.69
644.95	1044.79
645.29	1037.23
645.64	1029.44
645.98	1022.14
646.32	1015.15
646.66	1008.06
647.01	1001.34
647.35	994.73
647.69	987.83
648.04	981.35
648.38	974.58
648.72	967.68
649.06	960.78
649.41	953.90
649.75	947.05
650.09	940.20
650.43	933.52
650.78	926.41
651.12	919.46
651.46	912.79
651.80	906.17
652.14	899.77
652.49	893.53
652.83	887.55
653.17	880.94
653.51	874.44
653.85	868.14
654.20	861.55
654.54	854.52
654.88	847.86
655.22	841.07
655.56	834.51
655.90	828.08
656.25	821.96
656.59	815.76
656.93	809.85
657.27	803.84
657.61	797.49
657.95	791.54
658.29	785.65
658.64	779.50
658.98	773.28
659.32	766.96
659.66	760.84
660.00	754.62
660.34	748.87
660.68	743.14
661.02	737.27
661.36	731.91
661.70	726.70
662.05	721.69
662.39	716.64
662.73	711.39
663.07	706.29
663.41	701.11
663.75	695.95
664.09	690.64
664.43	685.53
664.77	680.79
665.11	675.86
665.45	670.98
665.79	666.20
666.13	661.46
666.47	656.75
666.81	651.92
667.15	647.17
667.49	642.62
667.83	638.14
668.17	633.65
668.51	628.96
668.85	624.41
669.19	619.84
669.53	615.45
669.87	610.98
670.21	606.78
670.55	602.52
670.89	598.53
671.23	594.56
671.57	590.49
671.91	586.44
672.25	582.37
672.58	578.28
672.92	574.36
673.26	570.64
673.60	566.95
673.94	563.37
674.28	559.98
674.62	556.59
674.96	552.98
675.30	549.55
675.64	546.09
675.97	542.80
676.31	539.53
676.65	536.16
676.99	533.03
677.33	529.69
677.67	526.44
678.01	522.88
678.34	519.44
678.68	516.12
679.02	512.88
679.36	509.63
679.70	506.57
680.04	503.41
680.37	500.17
680.71	496.96
681.05	493.93
681.39	490.82
681.73	487.70
682.06	484.83
682.40	481.95
682.74	479.01
683.08	476.05
683.42	473.03
683.75	470.11
684.09	467.15
684.43	464.27
684.77	461.40
685.10	458.77
685.44	456.08
685.78	453.45
686.12	450.77
686.45	448.13
686.79	445.45
687.13	442.88
687.46	440.32
687.80	437.80
688.14	435.22
688.48	432.80
688.81	430.25
689.15	427.70
689.49	425.19
689.82	422.73
690.16	420.28
690.50	418.04
690.83	415.79
691.17	413.49
691.51	411.24
691.84	409.13
692.18	406.79
692.52	404.48
692.85	402.18
693.19	400.03
693.52	397.90
693.86	395.76
694.20	393.67
694.53	391.59
694.87	389.43
695.21	387.37
695.54	385.18
695.88	383.19
696.21	381.20
696.55	379.22
696.88	377.26
697.22	375.34
697.56	373.38
697.89	371.45
698.23	369.57
698.56	367.72
698.90	365.86
699.23	364.03
699.57	362.26
699.90	360.50
700.24	358.68
700.58	356.89
700.91	355.17
701.25	353.51
701.58	351.88
701.92	350.29
702.25	348.71
702.59	347.18
702.92	345.58
703.26	344.10
703.59	342.59
703.93	341.23
704.26	339.83
704.60	338.41
704.93	336.95
705.26	335.48
705.60	334.12
705.93	332.76
706.27	331.50
706.60	330.24
706.94	328.96
707.27	327.67
707.61	326.45
707.94	325.24
708.27	323.96
708.61	322.72
708.94	321.56
709.28	320.37
709.61	319.21
709.94	318.07
710.28	316.87
710.61	315.77
710.95	314.52
711.28	313.41
711.61	312.25
711.95	311.19
712.28	310.13
712.61	309.00
712.95	307.95
713.28	306.90
713.61	305.86
713.95	304.85
714.28	303.88
714.61	302.87
714.95	301.88
715.28	300.87
715.61	299.85
715.95	298.85
716.28	297.87
716.61	296.92
716.95	295.98
717.28	295.10
717.61	294.17
717.94	293.32
718.28	292.39
718.61	291.55
718.94	290.71
719.27	289.91
719.61	289.16
719.94	288.35
720.27	287.54
720.60	286.75
720.94	286.01
721.27	285.30
721.60	284.63
721.93	283.93
722.27	283.30
722.60	282.68
722.93	282.02
723.26	281.41
723.59	280.76
723.93	280.13
724.26	279.45
724.59	278.83
724.92	278.23
725.25	277.65
725.59	277.03
725.92	276.44
726.25	275.84
726.58	275.23
726.91	274.66
727.24	274.13
727.57	273.62
727.91	273.01
728.24	272.41
728.57	271.85
728.90	271.32
729.23	270.72
729.56	270.23
729.89	269.67
730.22	269.10
730.55	268.59
730.89	268.10
731.22	267.60
731.55	267.05
731.88	266.51
732.21	265.99
732.54	265.49
732.87	265.01
733.20	264.53
733.53	264.10
733.86	263.67
734.19	263.19
734.52	262.72
734.85	262.37
735.18	261.93
735.51	261.47
735.84	261.04
736.17	260.65
736.50	260.14
736.83	259.88
737.16	259.47
737.49	259.04
737.82	258.61
738.15	258.18
738.48	257.82
738.81	257.44
739.14	257.08
739.47	256.70
739.80	256.35
740.13	256.03
740.46	255.64
740.79	255.23
741.12	254.86
741.45	254.51
741.78	254.12
742.11	253.82
742.44	253.46
742.77	253.12
743.10	252.76
743.43	252.44
743.75	251.98
744.08	251.79
744.41	251.50
744.74	251.22
745.07	250.91
745.40	250.61
745.73	250.33
746.06	249.99
746.39	249.71
746.71	249.36
747.04	249.02
747.37	248.72
747.70	248.47
748.03	248.14
748.36	247.87
748.68	247.57
749.01	247.25
749.34	247.00
749.67	246.70
750.00	246.39
750.33	246.23
750.65	245.97
750.98	245.58
751.31	245.28
751.64	244.97
751.97	244.80
752.29	244.50
752.62	244.22
752.95	244.00
753.28	243.75
753.60	243.54
753.93	243.30
754.26	243.03
754.59	242.73
754.91	242.52
755.24	242.27
755.57	242.06
755.90	241.85
756.22	241.61
756.55	241.41
756.88	241.22
757.20	240.94
757.53	240.74
757.86	240.55
758.19	240.38
758.51	240.22
758.84	239.97
759.17	239.81
759.49	239.64
759.82	239.48
760.15	239.30
760.47	239.16
760.80	238.97
761.13	238.86
761.45	238.72
761.78	238.51
762.11	238.36
762.43	238.16
762.76	238.02
763.08	237.87
763.41	237.74
763.74	237.59
764.06	237.44
764.39	237.27
764.71	237.13
765.04	236.99
765.37	236.85
765.69	236.70
766.02	236.56
766.34	236.42
766.67	236.26
767.00	236.16
767.32	236.05
767.65	235.99
767.97	235.87
768.30	235.75
768.62	235.68
768.95	235.55
769.27	235.47
769.60	235.32
769.92	235.18
770.25	235.05
770.57	234.93
770.90	234.77
771.22	234.66
771.55	234.56
771.87	234.46
772.20	234.36
772.52	234.36
772.85	234.36
773.17	234.28
773.50	234.15
773.82	234.02
774.15	233.86
774.47	233.71
774.80	233.58
775.12	233.49
775.45	233.37
775.77	233.29
776.09	233.18
776.42	233.11
776.74	233.05
777.07	232.96
777.39	232.84
777.72	232.76
778.04	232.72
778.36	232.61
778.69	232.52
779.01	232.43
779.33	232.25
779.66	232.06
779.98	231.97
780.31	231.91
780.63	231.91
780.95	231.83
781.28	231.74
781.60	231.67
781.92	231.60
782.25	231.55
782.57	231.51
782.89	231.41
783.22	231.33
783.54	231.26
783.86	231.19
784.19	231.13
784.51	231.09
784.83	230.99
785.16	230.93
785.48	230.84
785.80	230.78
786.12	230.74
786.45	230.67
786.77	230.61
787.09	230.52
787.42	230.42
787.74	230.36
788.06	230.33
788.38	230.25
788.71	230.17
789.03	230.11
789.35	230.05
789.67	230.01
789.99	229.96
790.32	229.88
790.64	229.82
790.96	229.86
791.28	229.75
791.61	229.70
791.93	229.66
792.25	229.60
792.57	229.61
792.89	229.53
793.21	229.50
793.54	229.44
793.86	229.37
794.18	229.34
794.50	229.27
794.82	229.23
795.14	229.21
795.47	229.18
795.79	229.11
796.11	229.02
796.43	228.97
796.75	228.89
797.07	228.84
797.39	228.80
797.71	228.67
798.04	228.70
798.36	228.63
798.68	228.61
799.00	228.57
799.32	228.48
799.64	228.45
799.96	228.39
800.28	228.38
800.60	228.34
800.92	228.27
801.24	228.27
801.56	228.23
801.89	228.19
802.21	228.17
802.53	228.16
802.85	228.15
803.17	228.15
803.49	228.16
803.81	228.12
804.13	228.12
804.45	228.07
804.77	228.03
805.09	227.99
805.41	227.93
805.73	227.91
806.05	227.86
806.37	227.82
806.69	227.77
807.01	227.71
807.33	227.68
807.65	227.65
807.97	227.63
808.28	227.59
808.60	227.54
808.92	227.51
809.24	227.54
809.56	227.53
809.88	227.47
810.20	227.46
810.52	227.45
810.84	227.36
811.16	227.35
811.48	227.30
811.80	227.36
812.12	227.32
812.43	227.30
812.75	227.24
813.07	227.21
813.39	227.21
813.71	227.19
814.03	227.19
814.35	227.18
814.67	227.14
814.98	227.10
815.30	227.06
815.62	227.00
815.94	226.89
816.26	226.88
816.58	226.85
816.89	226.81
817.21	226.76
817.53	226.76
817.85	226.74
818.17	226.71
818.48	226.62
818.80	226.65
819.12	226.62
819.44	226.61
819.76	226.59
820.07	226.54
820.39	226.51
820.71	226.49
821.03	226.44
821.34	226.42
821.66	226.43
821.98	226.44
822.30	226.44
822.61	226.50
822.93	226.45
823.25	226.44
823.57	226.43
823.88	226.46
824.20	226.47
824.52	226.45
824.83	226.44
825.15	226.37
825.47	226.35
825.79	226.34
826.10	226.35
826.42	226.34
826.74	226.36
827.05	226.38
827.37	226.36
827.69	226.36
828.00	226.35
828.32	226.33
828.64	226.29
828.95	226.35
829.27	226.31
829.58	226.29
829.90	226.25
830.22	226.25
830.53	226.21
830.85	226.18
831.17	226.16
831.48	226.16
831.80	226.20
832.11	226.18
832.43	226.17
832.75	226.14
833.06	226.20
833.38	226.17
833.69	226.17
834.01	226.16
834.32	226.15
834.64	226.13
834.96	226.12
835.27	226.13
835.59	226.05
835.90	226.00
836.22	225.96
836.53	225.97
836.85	225.94
837.16	226.02
837.48	226.02
837.79	226.04
838.11	226.05
838.42	226.03
838.74	226.04
839.05	226.03
839.37	226.01
839.68	225.93
840.00	225.91
840.31	225.87
840.63	225.87
840.94	225.84
841.26	225.81
841.57	225.81
841.88	225.79
842.20	225.76
842.51	225.79
842.83	225.82
843.14	225.90
843.46	225.88
843.77	225.82
844.08	225.81
844.40	225.80
844.71	225.78
845.03	225.76
845.34	225.74
845.65	225.74
845.97	225.74
846.28	225.74
846.60	225.77
846.91	225.79
847.22	225.79
847.54	225.80
847.85	225.79
848.16	225.76
848.48	225.76
848.79	225.83
849.10	225.82
849.42	225.83
849.73	225.70
850.04	225.69
850.36	225.68
850.67	225.71
850.98	225.71
851.30	225.70
851.61	225.72
851.92	225.71
852.23	225.75
852.55	225.78
852.86	225.80
853.17	225.77
853.49	225.78
853.80	225.80
854.11	225.80
854.42	225.87
854.74	225.89
855.05	225.92
855.36	225.86
855.67	225.86
855.99	225.86
856.30	226.04
856.61	226.06
856.92	226.03
857.23	226.01
857.55	226.00
857.86	226.03
858.17	226.01
858.48	225.97
858.79	225.95
859.11	225.95
859.42	225.92
859.73	225.94
860.04	225.95
860.35	225.91
860.66	225.89
860.98	225.86
861.29	225.88
861.60	225.83
861.91	225.84
862.22	225.84
862.53	225.82
862.84	225.67
863.16	225.69
863.47	225.68
863.78	225.67
864.09	225.68
864.40	225.65
864.71	225.65
865.02	225.68
865.33	225.64
865.64	225.61
865.95	225.61
866.27	225.65
866.58	225.65
866.89	225.65
867.20	225.65
867.51	225.66
867.82	225.64
868.13	225.70
868.44	225.68
868.75	225.68
869.06	225.68
869.37	225.70
869.68	225.65
869.99	225.67
870.30	225.67
870.61	225.66
870.92	225.67
871.23	225.65
871.54	225.68
871.85	225.70
872.16	225.71
872.47	225.71
872.78	225.66
873.09	225.63
873.40	225.62
873.71	225.61
874.02	225.60
874.33	225.57
874.64	225.54
874.95	225.56
875.26	225.51
875.56	225.50
875.87	225.45
876.18	225.46
876.49	225.58
876.80	225.53
877.11	225.52
877.42	225.52
877.73	225.53
878.04	225.51
878.35	225.52
878.66	225.48
878.96	225.46
879.27	225.43
879.58	225.44
879.89	225.41
880.20	225.44
880.51	225.42
880.82	225.42
881.12	225.38
881.43	225.34
881.74	225.33
882.05	225.32
882.36	225.36
882.67	225.36
882.97	225.23
883.28	225.21
883.59	225.19
883.90	225.19
884.21	225.16
884.51	225.16
884.82	225.12
885.13	225.16
885.44	225.15
885.74	225.15
886.05	225.13
886.36	225.15
886.67	225.13
886.98	225.20
887.28	225.23
887.59	225.28
887.90	225.28
888.20	225.29
888.51	225.30
888.82	225.28
889.13	225.27
889.43	225.33
889.74	225.34
890.05	225.35
890.35	225.34
890.66	225.35
890.97	225.32
891.28	225.32
891.58	225.29
891.89	225.28
892.20	225.27
892.50	225.26
892.81	225.25
893.12	225.23
893.42	225.16
893.73	225.17
894.04	225.13
894.34	225.17
894.65	225.18
894.95	225.17
895.26	225.13
895.57	225.16
895.87	225.11
896.18	225.15
896.48	225.13
896.79	225.13
897.10	225.13
897.40	225.13
897.71	225.11
898.01	225.14
898.32	225.18
898.63	225.20
898.93	225.19
899.24	225.19
899.54	225.22
899.85	225.21
900.15	225.19
900.46	225.21
900.76	225.19
901.07	225.21
901.38	225.23
901.68	225.29
901.99	225.25
902.29	225.27
902.60	225.26
902.90	225.26
903.21	225.24
903.51	225.25
903.82	225.28
904.12	225.30
904.43	225.30
904.73	225.28
905.03	225.29
905.34	225.41
905.64	225.40
905.95	225.40
906.25	225.39
906.56	225.38
906.86	225.37
907.17	225.34
907.47	225.37
907.77	225.34
908.08	225.32
908.38	225.32
908.69	225.28
908.99	225.29
909.30	225.31
909.60	225.31
909.90	225.27
910.21	225.25
910.51	225.23
910.81	225.24
911.12	225.25
911.42	225.24
911.73	225.13
912.03	225.13
912.33	225.14
912.64	225.13
912.94	225.15
913.24	225.12
913.55	225.12
913.85	225.08
914.15	225.09
914.46	225.12
914.76	225.12
915.06	225.14
915.37	225.11
915.67	225.10
915.97	225.11
916.27	225.12
916.58	225.13
916.88	225.13
917.18	225.11
917.49	225.15
917.79	225.14
918.09	225.13
918.39	225.16
918.70	225.14
919.00	225.13
919.30	225.16
919.60	225.14
919.91	225.11
920.21	225.12
920.51	225.09
920.81	225.06
921.12	225.06
921.42	225.05
921.72	225.04
922.02	225.05
922.32	225.06
922.63	225.05
922.93	225.11
923.23	225.09
923.53	225.06
923.83	224.98
924.13	224.98
924.44	225.00
924.74	225.00
925.04	225.04
925.34	225.02
925.64	224.98
925.94	225.01
926.24	225.05
926.55	225.03
926.85	225.07
927.15	225.09
927.45	225.06
927.75	225.06
928.05	225.06
928.35	225.05
928.65	225.06
928.95	225.07
929.26	225.00
929.56	225.04
929.86	225.09
930.16	225.08
930.46	225.08
930.76	225.05
931.06	225.00
931.36	224.93
931.66	224.97
931.96	224.96
932.26	224.95
932.56	224.92
932.86	224.93
933.16	224.93
933.46	224.89
933.76	224.89
934.06	224.90
934.36	224.93
934.66	224.92
934.96	224.89
935.26	224.88
935.56	224.93
935.86	224.88
936.16	224.84
936.46	224.84
936.76	224.85
937.06	224.86
937.36	224.91
937.66	224.94
937.96	224.91
938.26	224.90
938.56	224.87
938.86	224.91
939.16	224.92
939.46	224.93
939.76	224.94
940.06	224.90
940.35	224.89
940.65	224.83
940.95	224.83
941.25	224.83
941.55	224.85
941.85	224.82
942.15	224.87
942.45	224.92
942.75	224.89
943.04	224.89
943.34	224.91
943.64	224.87
943.94	224.87
944.24	224.88
944.54	224.90
944.84	224.91
945.13	224.84
945.43	224.85
945.73	224.79
946.03	224.78
946.33	224.83
946.62	224.83
946.92	224.84
947.22	224.84
947.52	224.87
947.82	224.89
948.11	224.87
948.41	224.85
948.71	224.80
949.01	224.81
949.31	224.80
949.60	224.77
949.90	224.78
950.20	224.77
950.50	224.80
950.79	224.77
951.09	224.79
951.39	224.80
951.69	224.77
951.98	224.82
952.28	224.84
952.58	224.80
952.87	224.81
953.17	224.82
953.47	224.80
953.76	224.78
954.06	224.70
954.36	224.67
954.66	224.66
954.95	224.71
955.25	224.74
955.55	224.75
955.84	224.76
956.14	224.79
956.44	224.77
956.73	224.74
957.03	224.75
957.32	224.75
957.62	224.78
957.92	224.77
958.21	224.76
958.51	224.88
958.81	224.90
959.10	224.88
959.40	224.90
959.69	224.93
959.99	224.94
960.29	224.98
960.58	224.99
960.88	225.05
961.17	225.01
961.47	225.01
961.76	225.02
962.06	225.00
962.36	224.95
962.65	224.95
962.95	224.93
963.24	224.92
963.54	224.95
963.83	224.97
964.13	224.97
964.42	224.94
964.72	224.85
965.01	224.84
965.31	224.83
965.60	224.83
965.90	224.88
966.19	224.86
966.49	224.83
966.78	224.86
967.08	224.79
967.37	224.80
967.67	224.79
967.96	224.77
968.26	224.78
968.55	224.81
968.85	224.80
969.14	224.82
969.43	224.80
969.73	224.78
970.02	224.72
970.32	224.69
970.61	224.70
970.91	224.66
971.20	224.67
971.49	224.69
971.79	224.69
972.08	224.64
972.38	224.67
972.67	224.69
972.96	224.72
973.26	224.74
973.55	224.80
973.85	224.79
974.14	224.79
974.43	224.80
974.73	224.79
975.02	224.78
975.31	224.77
975.61	224.79
975.90	224.79
976.19	224.82
976.49	224.88
976.78	224.90
977.07	224.93
977.37	224.93
977.66	224.96
977.95	224.92
978.24	224.94
978.54	224.95
978.83	224.94
979.12	224.92
979.42	224.91
979.71	224.88
980.00	224.90
980.29	224.92
980.59	224.91
980.88	224.96
981.17	224.97
981.46	224.99
981.76	225.00
982.05	225.03
982.34	225.03
982.63	225.02
982.93	225.01
983.22	225.01
983.51	225.03
983.80	225.04
984.09	225.09
984.39	225.04
984.68	225.01
984.97	225.03
985.26	225.00
985.55	225.03
985.85	224.99
986.14	225.00
986.43	225.04
986.72	225.03
987.01	224.98
987.30	224.99
987.59	224.99
987.89	224.98
988.18	224.94
988.47	224.92
988.76	224.91
989.05	224.90
989.34	224.88
989.63	224.87
989.92	224.83
990.22	224.82
990.51	224.80
990.80	224.82
991.09	224.81
991.38	224.83
991.67	224.81
991.96	224.78
992.25	224.76
992.54	224.72
992.83	224.71
993.12	224.70
993.41	224.71
993.70	224.76
993.99	224.76
994.28	224.80
994.58	224.80
994.87	224.82
995.16	224.77
995.45	224.75
995.74	224.72
996.03	224.74
996.32	224.72
996.61	224.76
996.90	224.74
997.19	224.76
997.48	224.74
997.77	224.75
998.06	224.77
998.34	224.78
998.63	224.74
998.92	224.74
999.21	224.75
999.50	224.75
999.79	224.69
1000.08	224.70
1000.37	224.67
1000.66	224.66
1000.95	224.66
1001.24	224.72
1001.53	224.76
1001.82	224.77
1002.11	224.71
1002.40	224.75
1002.68	224.76
1002.97	224.81
1003.26	224.77
1003.55	224.78
1003.84	224.81
1004.13	224.83
1004.42	224.80
1004.71	224.82
1004.99	224.79
1005.28	224.81
1005.57	224.79
1005.86	224.78
1006.15	224.79
1006.44	224.78
1006.72	224.76
1007.01	224.73
1007.30	224.72
1007.59	224.71
1007.88	224.73
1008.17	224.76
1008.45	224.73
1008.74	224.70
1009.03	224.68
1009.32	224.68
1009.60	224.66
1009.89	224.62
1010.18	224.59
1010.47	224.59
1010.76	224.61
1011.04	224.64
1011.33	224.66
1011.62	224.68
1011.91	224.70
1012.19	224.69
1012.48	224.70
1012.77	224.73
1013.05	224.81
1013.34	224.80
1013.63	224.79
1013.92	224.77
1014.20	224.76
1014.49	224.79
1014.78	224.77
1015.06	224.75
1015.35	224.78
1015.64	224.80
1015.92	224.81
1016.21	224.84
1016.50	224.85
1016.78	224.85
1017.07	224.84
1017.36	224.81
1017.64	224.80
1017.93	224.83
1018.22	224.81
1018.50	224.83
1018.79	224.83
1019.08	224.77
1019.36	224.79
1019.65	224.80
1019.93	224.86
1020.22	224.89
1020.51	224.92
1020.79	224.93
1021.08	224.42
1021.36	225.07
1021.65	224.90
1021.94	224.57
1022.22	225.29
1022.51	224.81
1022.79	225.65
1023.08	225.23
1023.36	225.89
1023.65	224.34
>>>>>End Processed Spectral Data<<<<<
