SpectraSuite Data File
++++++++++++++++++++++++++++++++++++
Date: Fri Feb 01 15:09:27 EST 2013
User: group
Dark Spectrum Present: No
Reference Spectrum Present: No
Number of Sampled Component Spectra: 1
Spectrometers: USB2E7196
Integration Time (usec): 35000 (USB2E7196)
Spectra Averaged: 100 (USB2E7196)
Boxcar Smoothing: 10 (USB2E7196)
Correct for Electrical Dark: No (USB2E7196)
Strobe/Lamp Enabled: No (USB2E7196)
Correct for Detector Non-linearity: No (USB2E7196)
Correct for Stray Light: No (USB2E7196)
Number of Pixels in Processed Spectrum: 2048
>>>>>Begin Processed Spectral Data<<<<<
339.09	0.00
339.48	215.15
339.86	217.11
340.24	218.36
340.63	219.54
341.01	222.34
341.39	222.28
341.78	223.61
342.16	224.54
342.54	225.22
342.93	213.54
343.31	224.33
343.69	224.91
344.07	225.33
344.46	225.73
344.84	226.11
345.22	226.36
345.60	226.60
345.99	226.77
346.37	226.93
346.75	227.03
347.13	227.10
347.52	227.13
347.90	227.18
348.28	227.20
348.66	227.26
349.05	227.22
349.43	227.25
349.81	227.30
350.19	227.34
350.57	227.41
350.96	227.46
351.34	227.54
351.72	227.57
352.10	227.67
352.48	227.72
352.87	227.77
353.25	227.82
353.63	227.87
354.01	227.93
354.39	227.96
354.77	228.05
355.15	228.14
355.54	228.22
355.92	228.23
356.30	228.32
356.68	228.43
357.06	228.54
357.44	228.60
357.82	228.65
358.20	228.75
358.58	228.80
358.97	228.90
359.35	228.95
359.73	229.01
360.11	229.05
360.49	229.11
360.87	229.15
361.25	229.19
361.63	229.26
362.01	229.30
362.39	229.33
362.77	229.37
363.15	229.40
363.53	229.42
363.91	229.46
364.29	229.50
364.67	229.39
365.05	229.38
365.43	229.40
365.81	229.43
366.19	229.46
366.57	229.52
366.95	229.52
367.33	229.49
367.71	229.49
368.09	229.48
368.47	229.48
368.85	229.45
369.23	229.45
369.61	229.41
369.99	229.41
370.37	229.39
370.75	229.38
371.13	229.31
371.51	229.26
371.89	229.22
372.27	229.18
372.65	229.17
373.03	229.14
373.41	229.09
373.78	228.98
374.16	228.87
374.54	228.73
374.92	228.63
375.30	228.59
375.68	228.51
376.06	228.47
376.44	228.37
376.82	228.30
377.19	228.23
377.57	228.08
377.95	227.99
378.33	227.89
378.71	227.76
379.09	227.69
379.47	227.63
379.84	227.52
380.22	227.40
380.60	227.26
380.98	227.20
381.36	227.13
381.73	227.07
382.11	227.04
382.49	227.01
382.87	226.90
383.25	226.83
383.62	226.86
384.00	226.76
384.38	226.72
384.76	226.71
385.13	226.67
385.51	226.65
385.89	226.60
386.27	226.56
386.64	226.56
387.02	226.51
387.40	226.48
387.78	226.47
388.15	226.46
388.53	226.46
388.91	226.39
389.29	226.33
389.66	226.31
390.04	226.26
390.42	226.25
390.79	226.26
391.17	226.25
391.55	226.14
391.92	226.14
392.30	226.15
392.68	226.12
393.05	226.13
393.43	226.18
393.81	226.16
394.18	226.14
394.56	226.13
394.94	226.21
395.31	226.22
395.69	226.28
396.06	226.32
396.44	226.35
396.82	226.37
397.19	226.48
397.57	226.54
397.95	226.61
398.32	226.65
398.70	226.72
399.07	226.81
399.45	226.86
399.82	226.93
400.20	227.00
400.58	227.09
400.95	227.12
401.33	227.20
401.70	227.40
402.08	227.52
402.45	227.61
402.83	227.71
403.20	227.84
403.58	227.97
403.95	228.12
404.33	228.28
404.71	228.41
405.08	228.57
405.46	228.71
405.83	228.84
406.21	228.97
406.58	229.10
406.96	229.28
407.33	229.47
407.70	229.70
408.08	230.00
408.45	230.22
408.83	230.48
409.20	230.72
409.58	230.88
409.95	231.14
410.33	231.44
410.70	231.72
411.08	232.00
411.45	232.29
411.82	232.57
412.20	232.92
412.57	233.40
412.95	233.71
413.32	234.13
413.69	234.53
414.07	234.97
414.44	235.44
414.82	235.92
415.19	236.48
415.56	236.99
415.94	237.53
416.31	238.17
416.68	238.80
417.06	239.49
417.43	240.20
417.81	240.97
418.18	241.72
418.55	242.52
418.93	243.41
419.30	244.30
419.67	245.27
420.04	246.25
420.42	247.23
420.79	248.43
421.16	249.59
421.54	250.81
421.91	252.04
422.28	253.32
422.66	254.66
423.03	256.01
423.40	257.38
423.77	258.80
424.15	260.26
424.52	261.77
424.89	263.37
425.26	264.93
425.64	266.40
426.01	268.05
426.38	269.73
426.75	271.39
427.13	273.12
427.50	274.93
427.87	276.80
428.24	278.66
428.61	280.37
428.99	282.29
429.36	284.41
429.73	286.55
430.10	288.60
430.47	290.67
430.85	292.75
431.22	294.96
431.59	297.32
431.96	299.55
432.33	302.02
432.70	304.47
433.08	307.30
433.45	309.89
433.82	312.54
434.19	315.45
434.56	318.29
434.93	320.97
435.30	323.59
435.68	326.47
436.05	329.29
436.42	332.08
436.79	334.62
437.16	337.29
437.53	340.08
437.90	342.89
438.27	345.66
438.64	348.55
439.01	351.20
439.38	353.47
439.75	355.65
440.13	358.10
440.50	360.38
440.87	362.23
441.24	364.19
441.61	366.28
441.98	367.76
442.35	369.59
442.72	371.40
443.09	373.21
443.46	374.21
443.83	374.77
444.20	375.33
444.57	376.19
444.94	376.46
445.31	376.81
445.68	377.19
446.05	377.18
446.42	376.73
446.79	376.30
447.16	375.82
447.53	375.47
447.90	374.31
448.27	373.13
448.64	371.52
449.01	370.40
449.37	368.41
449.74	366.51
450.11	364.20
450.48	361.73
450.85	359.21
451.22	357.05
451.59	355.06
451.96	353.08
452.33	350.43
452.70	348.11
453.07	345.21
453.43	342.25
453.80	339.51
454.17	336.84
454.54	334.29
454.91	331.56
455.28	328.88
455.65	326.42
456.02	324.02
456.38	321.86
456.75	319.21
457.12	316.96
457.49	314.72
457.86	312.53
458.23	310.67
458.59	308.63
458.96	306.53
459.33	304.63
459.70	302.78
460.07	301.28
460.43	299.54
460.80	297.92
461.17	296.48
461.54	294.99
461.91	293.58
462.27	292.12
462.64	290.88
463.01	289.52
463.38	288.23
463.74	286.82
464.11	285.68
464.48	284.63
464.85	283.51
465.21	282.63
465.58	281.76
465.95	280.66
466.32	279.74
466.68	278.86
467.05	277.97
467.42	277.09
467.78	276.17
468.15	275.33
468.52	274.66
468.88	273.81
469.25	273.08
469.62	272.46
469.98	271.76
470.35	271.12
470.72	270.50
471.08	269.81
471.45	269.26
471.82	268.70
472.18	268.11
472.55	267.70
472.92	267.22
473.28	266.72
473.65	266.25
474.02	265.78
474.38	265.39
474.75	265.10
475.11	264.76
475.48	264.46
475.85	264.21
476.21	263.96
476.58	263.78
476.94	263.59
477.31	263.40
477.67	263.27
478.04	263.10
478.41	263.04
478.77	263.09
479.14	263.00
479.50	262.99
479.87	263.04
480.23	263.07
480.60	263.11
480.96	263.20
481.33	263.39
481.69	263.59
482.06	263.78
482.42	263.96
482.79	264.15
483.15	264.46
483.52	264.77
483.88	265.14
484.25	265.54
484.61	265.98
484.98	266.43
485.34	266.98
485.71	267.60
486.07	268.22
486.44	268.80
486.80	269.53
487.17	270.24
487.53	271.07
487.90	271.93
488.26	272.87
488.62	273.83
488.99	274.82
489.35	275.86
489.72	276.99
490.08	278.17
490.44	279.44
490.81	280.79
491.17	282.18
491.54	283.62
491.90	285.09
492.26	286.72
492.63	288.44
492.99	290.19
493.36	292.04
493.72	294.13
494.08	296.22
494.45	298.44
494.81	300.79
495.17	303.18
495.54	305.73
495.90	308.40
496.26	311.20
496.63	314.12
496.99	317.24
497.35	320.44
497.72	323.83
498.08	327.34
498.44	330.98
498.80	334.89
499.17	338.93
499.53	343.10
499.89	347.41
500.26	351.91
500.62	356.58
500.98	361.58
501.34	366.57
501.71	371.86
502.07	377.27
502.43	382.86
502.79	388.70
503.16	394.73
503.52	400.96
503.88	407.39
504.24	414.05
504.60	420.90
504.97	428.12
505.33	435.42
505.69	443.12
506.05	450.90
506.41	458.78
506.78	466.96
507.14	475.41
507.50	484.14
507.86	493.13
508.22	502.25
508.59	511.32
508.95	520.91
509.31	530.72
509.67	540.89
510.03	551.15
510.39	561.62
510.75	572.44
511.12	583.41
511.48	594.75
511.84	606.14
512.20	617.67
512.56	629.54
512.92	641.75
513.28	654.04
513.64	666.48
514.00	679.22
514.37	692.18
514.73	705.20
515.09	718.28
515.45	731.52
515.81	745.14
516.17	759.29
516.53	773.36
516.89	787.56
517.25	801.69
517.61	816.19
517.97	830.76
518.33	845.26
518.69	860.07
519.05	875.08
519.41	890.38
519.77	905.96
520.13	921.44
520.49	936.87
520.85	952.40
521.21	968.25
521.57	984.53
521.93	1000.38
522.29	1016.79
522.65	1033.05
523.01	1049.42
523.37	1065.64
523.73	1081.90
524.09	1098.13
524.45	1114.55
524.81	1131.22
525.17	1147.99
525.53	1165.02
525.89	1181.93
526.25	1198.75
526.61	1215.05
526.97	1231.72
527.33	1248.24
527.68	1264.92
528.04	1281.48
528.40	1298.13
528.76	1315.10
529.12	1331.67
529.48	1348.59
529.84	1364.77
530.20	1381.49
530.56	1398.57
530.91	1415.90
531.27	1432.69
531.63	1449.21
531.99	1465.81
532.35	1481.90
532.71	1497.94
533.07	1514.17
533.42	1530.08
533.78	1546.19
534.14	1562.67
534.50	1578.12
534.86	1594.11
535.21	1609.38
535.57	1625.36
535.93	1640.95
536.29	1655.89
536.65	1671.16
537.00	1686.05
537.36	1701.50
537.72	1716.11
538.08	1730.53
538.44	1744.48
538.79	1758.45
539.15	1772.26
539.51	1786.11
539.87	1800.60
540.22	1814.52
540.58	1828.36
540.94	1841.87
541.29	1854.92
541.65	1867.58
542.01	1881.00
542.37	1893.27
542.72	1905.59
543.08	1917.30
543.44	1929.76
543.79	1941.01
544.15	1951.97
544.51	1963.47
544.87	1974.33
545.22	1985.08
545.58	1995.47
545.94	2005.41
546.29	2015.21
546.65	2024.93
547.01	2034.16
547.36	2042.91
547.72	2051.34
548.07	2059.24
548.43	2067.37
548.79	2075.48
549.14	2083.15
549.50	2090.47
549.86	2098.20
550.21	2105.61
550.57	2112.93
550.92	2119.54
551.28	2126.64
551.64	2133.78
551.99	2140.45
552.35	2146.67
552.70	2152.91
553.06	2158.80
553.41	2164.94
553.77	2171.08
554.13	2177.34
554.48	2183.41
554.84	2188.73
555.19	2194.08
555.55	2199.13
555.90	2203.61
556.26	2208.23
556.61	2212.86
556.97	2216.95
557.32	2221.09
557.68	2225.41
558.03	2229.66
558.39	2233.42
558.74	2238.02
559.10	2241.68
559.45	2245.19
559.81	2249.54
560.16	2253.36
560.52	2256.62
560.87	2260.04
561.23	2262.70
561.58	2265.59
561.94	2268.11
562.29	2270.69
562.64	2273.17
563.00	2275.86
563.35	2279.44
563.71	2282.61
564.06	2285.85
564.42	2288.91
564.77	2291.40
565.12	2293.39
565.48	2295.19
565.83	2296.68
566.19	2297.95
566.54	2299.10
566.89	2300.22
567.25	2300.62
567.60	2301.84
567.96	2303.46
568.31	2304.27
568.66	2305.18
569.02	2305.60
569.37	2305.86
569.72	2306.40
570.08	2306.39
570.43	2306.25
570.78	2305.38
571.14	2303.78
571.49	2302.34
571.84	2301.77
572.20	2300.41
572.55	2299.33
572.90	2297.75
573.26	2296.43
573.61	2294.63
573.96	2292.55
574.31	2289.47
574.67	2286.41
575.02	2282.76
575.37	2279.22
575.72	2275.27
576.08	2271.81
576.43	2268.39
576.78	2264.58
577.13	2261.34
577.49	2258.20
577.84	2254.61
578.19	2250.70
578.54	2246.87
578.90	2242.45
579.25	2236.72
579.60	2231.75
579.95	2226.73
580.30	2221.56
580.66	2216.21
581.01	2211.20
581.36	2206.14
581.71	2201.85
582.06	2197.22
582.42	2192.51
582.77	2187.15
583.12	2182.47
583.47	2177.56
583.82	2172.49
584.17	2167.11
584.53	2161.46
584.88	2155.77
585.23	2149.87
585.58	2144.49
585.93	2139.01
586.28	2134.21
586.63	2129.09
586.98	2123.88
587.34	2119.11
587.69	2114.09
588.04	2108.72
588.39	2102.86
588.74	2096.44
589.09	2090.21
589.44	2083.45
589.79	2077.38
590.14	2071.48
590.49	2064.83
590.84	2058.43
591.19	2052.20
591.54	2045.75
591.89	2038.18
592.25	2031.18
592.60	2023.84
592.95	2016.10
593.30	2008.70
593.65	2001.00
594.00	1993.98
594.35	1986.74
594.70	1978.47
595.05	1971.03
595.40	1963.74
595.75	1956.32
596.10	1949.94
596.45	1943.00
596.80	1936.71
597.15	1929.92
597.50	1922.89
597.85	1916.37
598.19	1909.69
598.54	1902.60
598.89	1895.88
599.24	1890.12
599.59	1883.34
599.94	1877.13
600.29	1870.71
600.64	1864.02
600.99	1856.47
601.34	1849.42
601.69	1842.38
602.04	1835.35
602.39	1828.11
602.74	1821.32
603.08	1814.38
603.43	1807.67
603.78	1800.41
604.13	1793.15
604.48	1785.84
604.83	1778.98
605.18	1772.03
605.53	1763.96
605.87	1755.93
606.22	1748.74
606.57	1740.72
606.92	1733.49
607.27	1726.25
607.62	1719.32
607.96	1712.01
608.31	1705.37
608.66	1697.80
609.01	1690.20
609.36	1682.78
609.70	1674.75
610.05	1666.60
610.40	1658.97
610.75	1650.51
611.10	1642.84
611.44	1634.56
611.79	1626.55
612.14	1617.90
612.49	1608.70
612.83	1600.44
613.18	1592.39
613.53	1584.24
613.88	1575.76
614.22	1567.53
614.57	1559.06
614.92	1551.08
615.27	1543.45
615.61	1535.11
615.96	1527.20
616.31	1519.60
616.65	1512.29
617.00	1504.74
617.35	1497.08
617.70	1488.71
618.04	1480.32
618.39	1471.95
618.74	1464.21
619.08	1456.02
619.43	1448.45
619.78	1441.53
620.12	1434.17
620.47	1426.50
620.82	1418.36
621.16	1410.97
621.51	1403.32
621.85	1395.76
622.20	1387.28
622.55	1379.10
622.89	1371.36
623.24	1363.83
623.59	1356.52
623.93	1348.94
624.28	1341.67
624.62	1334.20
624.97	1327.05
625.32	1320.24
625.66	1313.41
626.01	1306.35
626.35	1298.85
626.70	1291.06
627.04	1283.30
627.39	1275.60
627.73	1268.30
628.08	1261.43
628.43	1254.10
628.77	1246.71
629.12	1239.05
629.46	1231.87
629.81	1224.50
630.15	1217.28
630.50	1209.76
630.84	1201.49
631.19	1193.65
631.53	1186.25
631.88	1178.73
632.22	1171.18
632.57	1163.96
632.91	1156.35
633.26	1148.94
633.60	1141.63
633.95	1134.67
634.29	1127.69
634.64	1121.19
634.98	1113.81
635.32	1106.65
635.67	1100.19
636.01	1093.55
636.36	1086.80
636.70	1080.35
637.05	1073.83
637.39	1067.40
637.73	1060.96
638.08	1055.17
638.42	1049.09
638.77	1042.65
639.11	1035.97
639.45	1029.56
639.80	1022.87
640.14	1016.44
640.49	1009.98
640.83	1003.70
641.17	997.48
641.52	991.23
641.86	984.83
642.20	979.00
642.55	972.77
642.89	966.20
643.23	959.75
643.58	953.97
643.92	947.75
644.26	941.54
644.61	935.49
644.95	929.41
645.29	922.74
645.64	916.06
645.98	909.81
646.32	904.13
646.66	898.18
647.01	892.44
647.35	886.81
647.69	880.87
648.04	875.35
648.38	869.50
648.72	863.42
649.06	857.34
649.41	851.54
649.75	845.53
650.09	839.59
650.43	833.83
650.78	827.72
651.12	821.75
651.46	816.16
651.80	810.46
652.14	805.11
652.49	799.89
652.83	794.81
653.17	789.05
653.51	783.30
653.85	777.90
654.20	772.27
654.54	766.33
654.88	760.66
655.22	754.81
655.56	749.16
655.90	743.79
656.25	738.50
656.59	733.16
656.93	728.14
657.27	723.04
657.61	717.57
657.95	712.51
658.29	707.43
658.64	702.21
658.98	696.92
659.32	691.52
659.66	686.26
660.00	680.96
660.34	676.10
660.68	671.18
661.02	666.18
661.36	661.45
661.70	656.98
662.05	652.61
662.39	648.27
662.73	643.81
663.07	639.45
663.41	635.04
663.75	630.50
664.09	625.82
664.43	621.41
664.77	617.33
665.11	613.09
665.45	609.04
665.79	604.96
666.13	600.84
666.47	596.77
666.81	592.60
667.15	588.49
667.49	584.60
667.83	580.89
668.17	576.95
668.51	572.95
668.85	568.93
669.19	565.15
669.53	561.32
669.87	557.50
670.21	553.77
670.55	550.16
670.89	546.79
671.23	543.50
671.57	540.07
671.91	536.53
672.25	533.07
672.58	529.53
672.92	526.15
673.26	523.00
673.60	519.77
673.94	516.70
674.28	513.87
674.62	510.92
674.96	507.79
675.30	504.87
675.64	501.91
675.97	499.21
676.31	496.28
676.65	493.40
676.99	490.64
677.33	487.83
677.67	484.98
678.01	481.93
678.34	478.90
678.68	476.00
679.02	473.22
679.36	470.44
679.70	467.70
680.04	464.94
680.37	462.03
680.71	459.29
681.05	456.71
681.39	453.92
681.73	451.31
682.06	448.82
682.40	446.27
682.74	443.78
683.08	441.18
683.42	438.66
683.75	436.20
684.09	433.72
684.43	431.28
684.77	428.85
685.10	426.57
685.44	424.30
685.78	422.07
686.12	419.85
686.45	417.61
686.79	415.36
687.13	413.18
687.46	411.11
687.80	409.02
688.14	406.79
688.48	404.72
688.81	402.45
689.15	400.28
689.49	398.21
689.82	396.14
690.16	394.08
690.50	392.07
690.83	390.14
691.17	388.21
691.51	386.29
691.84	384.45
692.18	382.51
692.52	380.58
692.85	378.64
693.19	376.70
693.52	374.89
693.86	373.13
694.20	371.38
694.53	369.54
694.87	367.69
695.21	365.94
695.54	364.12
695.88	362.41
696.21	360.71
696.55	359.00
696.88	357.34
697.22	355.69
697.56	354.11
697.89	352.48
698.23	350.85
698.56	349.28
698.90	347.71
699.23	346.06
699.57	344.47
699.90	342.96
700.24	341.45
700.58	339.91
700.91	338.38
701.25	336.91
701.58	335.56
701.92	334.20
702.25	332.78
702.59	331.48
702.92	330.17
703.26	328.85
703.59	327.58
703.93	326.38
704.26	325.17
704.60	323.92
704.93	322.64
705.26	321.40
705.60	320.21
705.93	319.07
706.27	318.03
706.60	317.01
706.94	315.91
707.27	314.81
707.61	313.77
707.94	312.79
708.27	311.72
708.61	310.65
708.94	309.67
709.28	308.74
709.61	307.73
709.94	306.77
710.28	305.76
710.61	304.81
710.95	303.76
711.28	302.87
711.61	301.90
711.95	300.97
712.28	300.02
712.61	299.04
712.95	298.10
713.28	297.24
713.61	296.34
713.95	295.50
714.28	294.65
714.61	293.77
714.95	292.96
715.28	292.14
715.61	291.26
715.95	290.41
716.28	289.58
716.61	288.78
716.95	287.99
717.28	287.28
717.61	286.49
717.94	285.75
718.28	284.91
718.61	284.18
718.94	283.50
719.27	282.88
719.61	282.23
719.94	281.57
720.27	280.87
720.60	280.22
720.94	279.58
721.27	279.01
721.60	278.45
721.93	277.82
722.27	277.26
722.60	276.72
722.93	276.17
723.26	275.61
723.59	275.05
723.93	274.50
724.26	273.94
724.59	273.39
724.92	272.89
725.25	272.42
725.59	271.94
725.92	271.48
726.25	270.94
726.58	270.49
726.91	270.02
727.24	269.54
727.57	269.08
727.91	268.58
728.24	268.10
728.57	267.63
728.90	267.18
729.23	266.67
729.56	266.24
729.89	265.80
730.22	265.31
730.55	264.87
730.89	264.42
731.22	263.98
731.55	263.59
731.88	263.17
732.21	262.72
732.54	262.26
732.87	261.80
733.20	261.45
733.53	261.06
733.86	260.67
734.19	260.26
734.52	259.88
734.85	259.56
735.18	259.15
735.51	258.79
735.84	258.41
736.17	258.06
736.50	257.67
736.83	257.41
737.16	257.06
737.49	256.74
737.82	256.39
738.15	256.06
738.48	255.65
738.81	255.30
739.14	255.01
739.47	254.69
739.80	254.40
740.13	254.06
740.46	253.71
740.79	253.35
741.12	253.03
741.45	252.72
741.78	252.37
742.11	252.11
742.44	251.75
742.77	251.46
743.10	251.16
743.43	250.89
743.75	250.48
744.08	250.34
744.41	250.04
744.74	249.74
745.07	249.44
745.40	249.23
745.73	249.01
746.06	248.72
746.39	248.48
746.71	248.18
747.04	247.89
747.37	247.63
747.70	247.42
748.03	247.18
748.36	246.92
748.68	246.67
749.01	246.39
749.34	246.18
749.67	245.94
750.00	245.73
750.33	245.57
750.65	245.38
750.98	245.05
751.31	244.84
751.64	244.62
751.97	244.48
752.29	244.24
752.62	243.95
752.95	243.70
753.28	243.47
753.60	243.28
753.93	243.12
754.26	242.96
754.59	242.73
754.91	242.54
755.24	242.35
755.57	242.18
755.90	242.00
756.22	241.82
756.55	241.62
756.88	241.41
757.20	241.15
757.53	240.94
757.86	240.81
758.19	240.65
758.51	240.50
758.84	240.27
759.17	240.14
759.49	240.03
759.82	239.95
760.15	239.81
760.47	239.69
760.80	239.52
761.13	239.38
761.45	239.23
761.78	239.08
762.11	238.94
762.43	238.79
762.76	238.68
763.08	238.53
763.41	238.43
763.74	238.30
764.06	238.13
764.39	237.98
764.71	237.80
765.04	237.65
765.37	237.51
765.69	237.40
766.02	237.27
766.34	237.11
766.67	236.93
767.00	236.85
767.32	236.78
767.65	236.73
767.97	236.63
768.30	236.50
768.62	236.41
768.95	236.30
769.27	236.20
769.60	236.09
769.92	236.00
770.25	235.88
770.57	235.78
770.90	235.72
771.22	235.60
771.55	235.54
771.87	235.46
772.20	235.38
772.52	235.36
772.85	235.40
773.17	235.31
773.50	235.25
773.82	235.17
774.15	235.00
774.47	234.86
774.80	234.72
775.12	234.65
775.45	234.57
775.77	234.50
776.09	234.40
776.42	234.30
776.74	234.21
777.07	234.09
777.39	234.01
777.72	233.93
778.04	233.87
778.36	233.74
778.69	233.68
779.01	233.61
779.33	233.45
779.66	233.22
779.98	233.18
780.31	233.08
780.63	233.00
780.95	232.96
781.28	232.88
781.60	232.83
781.92	232.76
782.25	232.69
782.57	232.60
782.89	232.53
783.22	232.49
783.54	232.43
783.86	232.39
784.19	232.33
784.51	232.32
784.83	232.28
785.16	232.23
785.48	232.15
785.80	232.08
786.12	232.03
786.45	231.99
786.77	231.93
787.09	231.90
787.42	231.82
787.74	231.78
788.06	231.76
788.38	231.69
788.71	231.63
789.03	231.56
789.35	231.56
789.67	231.52
789.99	231.46
790.32	231.40
790.64	231.37
790.96	231.40
791.28	231.32
791.61	231.26
791.93	231.28
792.25	231.25
792.57	231.31
792.89	231.27
793.21	231.27
793.54	231.22
793.86	231.16
794.18	231.13
794.50	231.05
794.82	230.97
795.14	230.98
795.47	230.98
795.79	230.96
796.11	230.91
796.43	230.88
796.75	230.88
797.07	230.88
797.39	230.83
797.71	230.72
798.04	230.67
798.36	230.64
798.68	230.54
799.00	230.55
799.32	230.46
799.64	230.46
799.96	230.41
800.28	230.40
800.60	230.39
800.92	230.39
801.24	230.37
801.56	230.37
801.89	230.30
802.21	230.29
802.53	230.25
802.85	230.23
803.17	230.25
803.49	230.17
803.81	230.11
804.13	230.09
804.45	230.07
804.77	230.08
805.09	230.06
805.41	230.05
805.73	229.98
806.05	229.93
806.37	229.93
806.69	229.89
807.01	229.86
807.33	229.82
807.65	229.76
807.97	229.80
808.28	229.77
808.60	229.76
808.92	229.70
809.24	229.74
809.56	229.74
809.88	229.70
810.20	229.66
810.52	229.66
810.84	229.62
811.16	229.58
811.48	229.54
811.80	229.55
812.12	229.53
812.43	229.53
812.75	229.49
813.07	229.42
813.39	229.38
813.71	229.33
814.03	229.32
814.35	229.28
814.67	229.21
814.98	229.17
815.30	229.15
815.62	229.14
815.94	229.04
816.26	229.01
816.58	228.99
816.89	228.98
817.21	228.94
817.53	228.93
817.85	228.89
818.17	228.87
818.48	228.80
818.80	228.80
819.12	228.76
819.44	228.74
819.76	228.72
820.07	228.72
820.39	228.72
820.71	228.70
821.03	228.67
821.34	228.63
821.66	228.62
821.98	228.60
822.30	228.58
822.61	228.63
822.93	228.58
823.25	228.52
823.57	228.50
823.88	228.50
824.20	228.48
824.52	228.50
824.83	228.49
825.15	228.44
825.47	228.43
825.79	228.42
826.10	228.39
826.42	228.36
826.74	228.35
827.05	228.33
827.37	228.30
827.69	228.27
828.00	228.25
828.32	228.23
828.64	228.22
828.95	228.22
829.27	228.20
829.58	228.15
829.90	228.19
830.22	228.20
830.53	228.15
830.85	228.13
831.17	228.12
831.48	228.10
831.80	228.13
832.11	228.08
832.43	228.08
832.75	228.09
833.06	228.14
833.38	228.11
833.69	228.09
834.01	228.13
834.32	228.14
834.64	228.12
834.96	228.12
835.27	228.10
835.59	228.07
835.90	228.00
836.22	228.02
836.53	227.99
836.85	227.98
837.16	228.10
837.48	228.06
837.79	228.06
838.11	228.08
838.42	228.08
838.74	228.11
839.05	228.09
839.37	228.10
839.68	228.06
840.00	228.07
840.31	228.11
840.63	228.07
840.94	228.09
841.26	228.10
841.57	228.09
841.88	228.11
842.20	228.10
842.51	228.12
842.83	228.16
843.14	228.24
843.46	228.27
843.77	228.19
844.08	228.25
844.40	228.23
844.71	228.23
845.03	228.23
845.34	228.23
845.65	228.25
845.97	228.23
846.28	228.25
846.60	228.22
846.91	228.20
847.22	228.20
847.54	228.21
847.85	228.21
848.16	228.24
848.48	228.21
848.79	228.28
849.10	228.31
849.42	228.29
849.73	228.23
850.04	228.20
850.36	228.19
850.67	228.18
850.98	228.14
851.30	228.12
851.61	228.13
851.92	228.11
852.23	228.09
852.55	228.10
852.86	228.10
853.17	228.11
853.49	228.11
853.80	228.12
854.11	228.12
854.42	228.14
854.74	228.10
855.05	228.09
855.36	228.01
855.67	228.01
855.99	227.98
856.30	228.07
856.61	228.09
856.92	228.11
857.23	228.09
857.55	228.10
857.86	228.12
858.17	228.09
858.48	228.07
858.79	228.07
859.11	228.08
859.42	228.06
859.73	228.06
860.04	228.04
860.35	228.00
860.66	227.95
860.98	227.93
861.29	227.93
861.60	227.92
861.91	227.95
862.22	227.89
862.53	227.90
862.84	227.76
863.16	227.73
863.47	227.69
863.78	227.70
864.09	227.68
864.40	227.65
864.71	227.65
865.02	227.65
865.33	227.61
865.64	227.54
865.95	227.50
866.27	227.54
866.58	227.50
866.89	227.53
867.20	227.52
867.51	227.50
867.82	227.48
868.13	227.49
868.44	227.45
868.75	227.47
869.06	227.42
869.37	227.43
869.68	227.39
869.99	227.37
870.30	227.32
870.61	227.31
870.92	227.28
871.23	227.27
871.54	227.30
871.85	227.30
872.16	227.33
872.47	227.33
872.78	227.28
873.09	227.31
873.40	227.27
873.71	227.27
874.02	227.27
874.33	227.25
874.64	227.25
874.95	227.28
875.26	227.25
875.56	227.26
875.87	227.24
876.18	227.25
876.49	227.38
876.80	227.40
877.11	227.40
877.42	227.43
877.73	227.42
878.04	227.39
878.35	227.40
878.66	227.38
878.96	227.41
879.27	227.37
879.58	227.34
879.89	227.37
880.20	227.42
880.51	227.44
880.82	227.46
881.12	227.47
881.43	227.45
881.74	227.44
882.05	227.44
882.36	227.43
882.67	227.46
882.97	227.36
883.28	227.36
883.59	227.37
883.90	227.38
884.21	227.42
884.51	227.45
884.82	227.47
885.13	227.49
885.44	227.47
885.74	227.49
886.05	227.51
886.36	227.50
886.67	227.47
886.98	227.51
887.28	227.52
887.59	227.51
887.90	227.52
888.20	227.54
888.51	227.60
888.82	227.63
889.13	227.63
889.43	227.69
889.74	227.72
890.05	227.70
890.35	227.71
890.66	227.69
890.97	227.65
891.28	227.65
891.58	227.64
891.89	227.66
892.20	227.64
892.50	227.63
892.81	227.62
893.12	227.64
893.42	227.59
893.73	227.60
894.04	227.59
894.34	227.60
894.65	227.57
894.95	227.53
895.26	227.52
895.57	227.55
895.87	227.46
896.18	227.44
896.48	227.43
896.79	227.43
897.10	227.43
897.40	227.45
897.71	227.47
898.01	227.48
898.32	227.49
898.63	227.52
898.93	227.54
899.24	227.55
899.54	227.53
899.85	227.51
900.15	227.51
900.46	227.52
900.76	227.51
901.07	227.50
901.38	227.49
901.68	227.48
901.99	227.44
902.29	227.41
902.60	227.38
902.90	227.37
903.21	227.35
903.51	227.32
903.82	227.29
904.12	227.23
904.43	227.20
904.73	227.20
905.03	227.17
905.34	227.24
905.64	227.24
905.95	227.22
906.25	227.21
906.56	227.21
906.86	227.18
907.17	227.16
907.47	227.19
907.77	227.18
908.08	227.18
908.38	227.18
908.69	227.19
908.99	227.21
909.30	227.22
909.60	227.22
909.90	227.21
910.21	227.20
910.51	227.20
910.81	227.24
911.12	227.22
911.42	227.24
911.73	227.16
912.03	227.13
912.33	227.17
912.64	227.19
912.94	227.15
913.24	227.15
913.55	227.14
913.85	227.09
914.15	227.11
914.46	227.09
914.76	227.07
915.06	227.10
915.37	227.09
915.67	227.13
915.97	227.12
916.27	227.12
916.58	227.16
916.88	227.17
917.18	227.17
917.49	227.26
917.79	227.27
918.09	227.25
918.39	227.29
918.70	227.29
919.00	227.29
919.30	227.37
919.60	227.36
919.91	227.35
920.21	227.38
920.51	227.38
920.81	227.40
921.12	227.43
921.42	227.43
921.72	227.45
922.02	227.44
922.32	227.45
922.63	227.46
922.93	227.48
923.23	227.49
923.53	227.43
923.83	227.39
924.13	227.39
924.44	227.39
924.74	227.41
925.04	227.42
925.34	227.40
925.64	227.36
925.94	227.39
926.24	227.45
926.55	227.45
926.85	227.44
927.15	227.44
927.45	227.46
927.75	227.43
928.05	227.45
928.35	227.41
928.65	227.44
928.95	227.44
929.26	227.42
929.56	227.44
929.86	227.51
930.16	227.48
930.46	227.45
930.76	227.42
931.06	227.38
931.36	227.33
931.66	227.32
931.96	227.35
932.26	227.35
932.56	227.28
932.86	227.31
933.16	227.32
933.46	227.30
933.76	227.25
934.06	227.29
934.36	227.31
934.66	227.34
934.96	227.33
935.26	227.34
935.56	227.34
935.86	227.30
936.16	227.24
936.46	227.24
936.76	227.24
937.06	227.26
937.36	227.26
937.66	227.28
937.96	227.32
938.26	227.27
938.56	227.26
938.86	227.31
939.16	227.32
939.46	227.32
939.76	227.34
940.06	227.36
940.35	227.31
940.65	227.25
940.95	227.25
941.25	227.21
941.55	227.21
941.85	227.22
942.15	227.23
942.45	227.27
942.75	227.23
943.04	227.23
943.34	227.27
943.64	227.27
943.94	227.25
944.24	227.23
944.54	227.20
944.84	227.22
945.13	227.15
945.43	227.13
945.73	227.10
946.03	227.06
946.33	227.04
946.62	227.06
946.92	227.07
947.22	227.07
947.52	227.05
947.82	227.05
948.11	227.01
948.41	226.99
948.71	226.95
949.01	226.98
949.31	226.98
949.60	226.94
949.90	226.95
950.20	226.92
950.50	226.89
950.79	226.90
951.09	226.88
951.39	226.90
951.69	226.89
951.98	226.90
952.28	226.93
952.58	226.95
952.87	226.96
953.17	226.98
953.47	226.93
953.76	226.95
954.06	226.92
954.36	226.92
954.66	226.90
954.95	226.96
955.25	226.98
955.55	226.97
955.84	226.98
956.14	227.00
956.44	227.03
956.73	227.04
957.03	227.06
957.32	227.08
957.62	227.07
957.92	227.09
958.21	227.13
958.51	227.19
958.81	227.19
959.10	227.18
959.40	227.21
959.69	227.25
959.99	227.30
960.29	227.30
960.58	227.31
960.88	227.39
961.17	227.37
961.47	227.38
961.76	227.39
962.06	227.41
962.36	227.40
962.65	227.43
962.95	227.43
963.24	227.41
963.54	227.41
963.83	227.42
964.13	227.42
964.42	227.38
964.72	227.33
965.01	227.35
965.31	227.35
965.60	227.32
965.90	227.39
966.19	227.35
966.49	227.36
966.78	227.35
967.08	227.31
967.37	227.32
967.67	227.27
967.96	227.31
968.26	227.29
968.55	227.27
968.85	227.27
969.14	227.28
969.43	227.33
969.73	227.32
970.02	227.34
970.32	227.34
970.61	227.33
970.91	227.32
971.20	227.30
971.49	227.29
971.79	227.30
972.08	227.19
972.38	227.20
972.67	227.18
972.96	227.18
973.26	227.19
973.55	227.21
973.85	227.21
974.14	227.14
974.43	227.15
974.73	227.16
975.02	227.09
975.31	227.08
975.61	227.03
975.90	227.01
976.19	226.97
976.49	226.97
976.78	226.99
977.07	226.99
977.37	226.97
977.66	226.98
977.95	226.96
978.24	227.00
978.54	226.99
978.83	227.00
979.12	226.99
979.42	226.95
979.71	226.89
980.00	226.89
980.29	226.90
980.59	226.86
980.88	226.89
981.17	226.88
981.46	226.88
981.76	226.87
982.05	226.92
982.34	226.90
982.63	226.88
982.93	226.86
983.22	226.86
983.51	226.86
983.80	226.85
984.09	226.85
984.39	226.83
984.68	226.83
984.97	226.84
985.26	226.84
985.55	226.86
985.85	226.84
986.14	226.84
986.43	226.84
986.72	226.84
987.01	226.81
987.30	226.85
987.59	226.84
987.89	226.85
988.18	226.82
988.47	226.84
988.76	226.84
989.05	226.85
989.34	226.81
989.63	226.85
989.92	226.85
990.22	226.84
990.51	226.83
990.80	226.82
991.09	226.80
991.38	226.78
991.67	226.78
991.96	226.77
992.25	226.78
992.54	226.78
992.83	226.83
993.12	226.83
993.41	226.85
993.70	226.91
993.99	226.94
994.28	226.97
994.58	226.96
994.87	226.94
995.16	226.92
995.45	226.94
995.74	226.91
996.03	226.93
996.32	226.94
996.61	226.96
996.90	226.97
997.19	227.00
997.48	227.02
997.77	227.06
998.06	227.09
998.34	227.11
998.63	227.11
998.92	227.09
999.21	227.08
999.50	227.06
999.79	227.02
1000.08	227.02
1000.37	226.99
1000.66	226.99
1000.95	227.01
1001.24	227.03
1001.53	227.05
1001.82	227.06
1002.11	227.06
1002.40	227.10
1002.68	227.13
1002.97	227.22
1003.26	227.24
1003.55	227.23
1003.84	227.20
1004.13	227.24
1004.42	227.22
1004.71	227.24
1004.99	227.26
1005.28	227.28
1005.57	227.29
1005.86	227.29
1006.15	227.31
1006.44	227.31
1006.72	227.34
1007.01	227.35
1007.30	227.33
1007.59	227.31
1007.88	227.30
1008.17	227.26
1008.45	227.21
1008.74	227.15
1009.03	227.07
1009.32	227.03
1009.60	227.02
1009.89	227.04
1010.18	226.97
1010.47	226.98
1010.76	226.98
1011.04	226.95
1011.33	226.99
1011.62	226.98
1011.91	226.96
1012.19	226.93
1012.48	226.95
1012.77	226.91
1013.05	226.97
1013.34	226.97
1013.63	226.96
1013.92	226.97
1014.20	227.00
1014.49	226.99
1014.78	227.03
1015.06	227.01
1015.35	227.03
1015.64	227.04
1015.92	227.03
1016.21	227.01
1016.50	227.01
1016.78	226.99
1017.07	227.02
1017.36	226.96
1017.64	226.95
1017.93	226.99
1018.22	226.96
1018.50	226.94
1018.79	226.96
1019.08	226.93
1019.36	226.97
1019.65	226.93
1019.93	226.93
1020.22	226.98
1020.51	227.04
1020.79	227.01
1021.08	226.44
1021.36	226.83
1021.65	227.14
1021.94	227.51
1022.22	227.31
1022.51	226.02
1022.79	227.12
1023.08	228.07
1023.36	228.07
1023.65	226.62
>>>>>End Processed Spectral Data<<<<<
