SpectraSuite Data File
++++++++++++++++++++++++++++++++++++
Date: Fri Feb 01 15:08:54 EST 2013
User: group
Dark Spectrum Present: No
Reference Spectrum Present: No
Number of Sampled Component Spectra: 1
Spectrometers: USB2E7196
Integration Time (usec): 35000 (USB2E7196)
Spectra Averaged: 100 (USB2E7196)
Boxcar Smoothing: 10 (USB2E7196)
Correct for Electrical Dark: No (USB2E7196)
Strobe/Lamp Enabled: No (USB2E7196)
Correct for Detector Non-linearity: No (USB2E7196)
Correct for Stray Light: No (USB2E7196)
Number of Pixels in Processed Spectrum: 2048
>>>>>Begin Processed Spectral Data<<<<<
339.09	0.00
339.48	215.03
339.86	216.32
340.24	217.86
340.63	219.43
341.01	221.65
341.39	222.21
341.78	223.21
342.16	224.49
342.54	225.18
342.93	213.38
343.31	224.16
343.69	224.72
344.07	225.22
344.46	225.63
344.84	225.99
345.22	226.24
345.60	226.49
345.99	226.68
346.37	226.82
346.75	226.92
347.13	226.98
347.52	227.03
347.90	227.07
348.28	227.14
348.66	227.15
349.05	227.16
349.43	227.21
349.81	227.24
350.19	227.30
350.57	227.34
350.96	227.42
351.34	227.52
351.72	227.61
352.10	227.67
352.48	227.78
352.87	227.83
353.25	227.90
353.63	227.96
354.01	228.03
354.39	228.12
354.77	228.21
355.15	228.32
355.54	228.37
355.92	228.42
356.30	228.47
356.68	228.65
357.06	228.70
357.44	228.77
357.82	228.84
358.20	228.93
358.58	228.99
358.97	229.05
359.35	229.10
359.73	229.14
360.11	229.19
360.49	229.26
360.87	229.28
361.25	229.33
361.63	229.40
362.01	229.48
362.39	229.47
362.77	229.52
363.15	229.53
363.53	229.57
363.91	229.59
364.29	229.61
364.67	229.52
365.05	229.55
365.43	229.56
365.81	229.59
366.19	229.62
366.57	229.66
366.95	229.64
367.33	229.65
367.71	229.66
368.09	229.67
368.47	229.64
368.85	229.63
369.23	229.63
369.61	229.56
369.99	229.52
370.37	229.48
370.75	229.44
371.13	229.38
371.51	229.33
371.89	229.28
372.27	229.26
372.65	229.21
373.03	229.14
373.41	229.07
373.78	229.00
374.16	228.85
374.54	228.73
374.92	228.67
375.30	228.60
375.68	228.51
376.06	228.43
376.44	228.35
376.82	228.30
377.19	228.22
377.57	228.16
377.95	228.03
378.33	227.98
378.71	227.87
379.09	227.80
379.47	227.72
379.84	227.63
380.22	227.51
380.60	227.44
380.98	227.39
381.36	227.29
381.73	227.19
382.11	227.16
382.49	227.10
382.87	227.01
383.25	226.94
383.62	227.00
384.00	226.92
384.38	226.85
384.76	226.80
385.13	226.78
385.51	226.70
385.89	226.66
386.27	226.59
386.64	226.56
387.02	226.54
387.40	226.48
387.78	226.46
388.15	226.43
388.53	226.41
388.91	226.32
389.29	226.32
389.66	226.31
390.04	226.28
390.42	226.27
390.79	226.25
391.17	226.24
391.55	226.15
391.92	226.13
392.30	226.14
392.68	226.14
393.05	226.13
393.43	226.18
393.81	226.21
394.18	226.21
394.56	226.21
394.94	226.22
395.31	226.25
395.69	226.30
396.06	226.38
396.44	226.41
396.82	226.50
397.19	226.59
397.57	226.62
397.95	226.67
398.32	226.73
398.70	226.83
399.07	226.93
399.45	226.98
399.82	227.05
400.20	227.12
400.58	227.20
400.95	227.25
401.33	227.38
401.70	227.54
402.08	227.65
402.45	227.77
402.83	227.90
403.20	228.03
403.58	228.15
403.95	228.25
404.33	228.40
404.71	228.52
405.08	228.68
405.46	228.85
405.83	229.03
406.21	229.19
406.58	229.36
406.96	229.51
407.33	229.71
407.70	229.91
408.08	230.20
408.45	230.41
408.83	230.66
409.20	230.83
409.58	231.03
409.95	231.28
410.33	231.56
410.70	231.83
411.08	232.11
411.45	232.41
411.82	232.74
412.20	233.08
412.57	233.51
412.95	233.81
413.32	234.23
413.69	234.66
414.07	235.07
414.44	235.55
414.82	236.00
415.19	236.53
415.56	237.09
415.94	237.59
416.31	238.24
416.68	238.87
417.06	239.60
417.43	240.27
417.81	241.09
418.18	241.86
418.55	242.67
418.93	243.56
419.30	244.46
419.67	245.41
420.04	246.37
420.42	247.34
420.79	248.54
421.16	249.69
421.54	250.86
421.91	252.11
422.28	253.30
422.66	254.64
423.03	255.92
423.40	257.25
423.77	258.68
424.15	260.11
424.52	261.59
424.89	263.21
425.26	264.77
425.64	266.17
426.01	267.79
426.38	269.45
426.75	271.11
427.13	272.85
427.50	274.63
427.87	276.52
428.24	278.40
428.61	280.11
428.99	282.02
429.36	284.12
429.73	286.19
430.10	288.24
430.47	290.31
430.85	292.44
431.22	294.69
431.59	297.08
431.96	299.32
432.33	301.82
432.70	304.20
433.08	307.00
433.45	309.66
433.82	312.28
434.19	315.19
434.56	318.00
434.93	320.65
435.30	323.27
435.68	326.19
436.05	328.99
436.42	331.86
436.79	334.39
437.16	337.12
437.53	339.98
437.90	342.83
438.27	345.56
438.64	348.41
439.01	350.98
439.38	353.19
439.75	355.36
440.13	357.84
440.50	360.13
440.87	362.01
441.24	364.00
441.61	366.15
441.98	367.60
442.35	369.39
442.72	371.28
443.09	373.06
443.46	374.03
443.83	374.65
444.20	375.13
444.57	375.99
444.94	376.24
445.31	376.57
445.68	376.92
446.05	377.01
446.42	376.63
446.79	376.24
447.16	375.84
447.53	375.56
447.90	374.42
448.27	373.26
448.64	371.70
449.01	370.47
449.37	368.50
449.74	366.60
450.11	364.37
450.48	361.87
450.85	359.36
451.22	357.22
451.59	355.16
451.96	353.22
452.33	350.57
452.70	348.21
453.07	345.35
453.43	342.40
453.80	339.66
454.17	336.99
454.54	334.43
454.91	331.65
455.28	328.95
455.65	326.44
456.02	324.01
456.38	321.82
456.75	319.17
457.12	316.90
457.49	314.72
457.86	312.57
458.23	310.74
458.59	308.74
458.96	306.65
459.33	304.82
459.70	302.94
460.07	301.47
460.43	299.77
460.80	298.15
461.17	296.75
461.54	295.23
461.91	293.78
462.27	292.36
462.64	291.13
463.01	289.78
463.38	288.49
463.74	287.12
464.11	285.95
464.48	284.96
464.85	283.86
465.21	282.98
465.58	282.03
465.95	280.92
466.32	279.99
466.68	279.08
467.05	278.21
467.42	277.29
467.78	276.32
468.15	275.46
468.52	274.78
468.88	273.91
469.25	273.13
469.62	272.51
469.98	271.79
470.35	271.17
470.72	270.56
471.08	269.91
471.45	269.35
471.82	268.83
472.18	268.20
472.55	267.73
472.92	267.20
473.28	266.72
473.65	266.23
474.02	265.78
474.38	265.41
474.75	265.07
475.11	264.72
475.48	264.49
475.85	264.24
476.21	264.00
476.58	263.78
476.94	263.61
477.31	263.40
477.67	263.27
478.04	263.14
478.41	263.06
478.77	263.08
479.14	263.02
479.50	263.02
479.87	263.10
480.23	263.18
480.60	263.25
480.96	263.36
481.33	263.56
481.69	263.76
482.06	263.91
482.42	264.10
482.79	264.36
483.15	264.64
483.52	264.99
483.88	265.33
484.25	265.74
484.61	266.16
484.98	266.62
485.34	267.16
485.71	267.72
486.07	268.34
486.44	268.87
486.80	269.54
487.17	270.27
487.53	271.08
487.90	271.89
488.26	272.82
488.62	273.82
488.99	274.74
489.35	275.73
489.72	276.86
490.08	278.06
490.44	279.26
490.81	280.58
491.17	281.95
491.54	283.42
491.90	284.98
492.26	286.60
492.63	288.33
492.99	290.08
493.36	291.94
493.72	293.92
494.08	296.05
494.45	298.29
494.81	300.63
495.17	303.04
495.54	305.60
495.90	308.23
496.26	310.98
496.63	313.97
496.99	317.11
497.35	320.33
497.72	323.71
498.08	327.20
498.44	330.86
498.80	334.71
499.17	338.77
499.53	342.85
499.89	347.26
500.26	351.75
500.62	356.44
500.98	361.40
501.34	366.49
501.71	371.82
502.07	377.27
502.43	382.89
502.79	388.71
503.16	394.78
503.52	401.05
503.88	407.48
504.24	414.12
504.60	421.03
504.97	428.21
505.33	435.47
505.69	443.22
506.05	451.03
506.41	458.91
506.78	467.01
507.14	475.51
507.50	484.17
507.86	493.23
508.22	502.40
508.59	511.62
508.95	521.18
509.31	530.94
509.67	541.04
510.03	551.24
510.39	561.85
510.75	572.69
511.12	583.59
511.48	594.84
511.84	606.29
512.20	617.81
512.56	629.69
512.92	641.95
513.28	654.31
513.64	666.76
514.00	679.54
514.37	692.52
514.73	705.51
515.09	718.64
515.45	731.88
515.81	745.50
516.17	759.50
516.53	773.57
516.89	787.82
517.25	802.03
517.61	816.56
517.97	830.97
518.33	845.47
518.69	860.34
519.05	875.45
519.41	890.70
519.77	906.23
520.13	921.81
520.49	937.17
520.85	952.59
521.21	968.39
521.57	984.56
521.93	1000.41
522.29	1016.88
522.65	1033.22
523.01	1049.55
523.37	1065.62
523.73	1081.84
524.09	1098.08
524.45	1114.52
524.81	1131.12
525.17	1147.92
525.53	1164.89
525.89	1181.72
526.25	1198.54
526.61	1214.90
526.97	1231.52
527.33	1248.08
527.68	1264.74
528.04	1281.25
528.40	1297.89
528.76	1314.95
529.12	1331.67
529.48	1348.52
529.84	1364.59
530.20	1381.22
530.56	1398.27
530.91	1415.68
531.27	1432.39
531.63	1449.01
531.99	1465.60
532.35	1481.64
532.71	1497.58
533.07	1513.78
533.42	1529.70
533.78	1545.81
534.14	1562.07
534.50	1577.61
534.86	1593.52
535.21	1608.62
535.57	1624.65
535.93	1640.32
536.29	1655.14
536.65	1670.32
537.00	1685.28
537.36	1700.75
537.72	1715.43
538.08	1729.84
538.44	1743.71
538.79	1757.75
539.15	1771.43
539.51	1785.12
539.87	1799.72
540.22	1813.62
540.58	1827.62
540.94	1841.12
541.29	1854.24
541.65	1867.13
542.01	1880.47
542.37	1892.81
542.72	1905.36
543.08	1917.22
543.44	1929.64
543.79	1941.04
544.15	1951.97
544.51	1963.45
544.87	1974.45
545.22	1985.11
545.58	1995.37
545.94	2005.27
546.29	2015.23
546.65	2025.16
547.01	2034.44
547.36	2043.08
547.72	2051.57
548.07	2059.39
548.43	2067.63
548.79	2075.53
549.14	2083.14
549.50	2090.29
549.86	2098.11
550.21	2105.50
550.57	2112.67
550.92	2119.24
551.28	2126.21
551.64	2133.32
551.99	2139.90
552.35	2146.03
552.70	2152.21
553.06	2158.17
553.41	2164.40
553.77	2170.37
554.13	2176.33
554.48	2182.54
554.84	2188.02
555.19	2193.45
555.55	2198.50
555.90	2202.91
556.26	2207.75
556.61	2212.39
556.97	2216.69
557.32	2220.82
557.68	2224.91
558.03	2229.20
558.39	2233.00
558.74	2237.68
559.10	2241.51
559.45	2245.28
559.81	2249.42
560.16	2253.25
560.52	2256.50
560.87	2260.00
561.23	2262.64
561.58	2265.65
561.94	2268.09
562.29	2270.49
562.64	2272.95
563.00	2275.58
563.35	2279.11
563.71	2282.51
564.06	2285.63
564.42	2288.55
564.77	2290.91
565.12	2293.01
565.48	2294.75
565.83	2296.38
566.19	2297.56
566.54	2298.52
566.89	2299.46
567.25	2300.07
567.60	2301.43
567.96	2303.00
568.31	2303.75
568.66	2304.69
569.02	2305.15
569.37	2305.32
569.72	2305.91
570.08	2305.90
570.43	2305.79
570.78	2304.88
571.14	2303.04
571.49	2301.72
571.84	2301.28
572.20	2300.04
572.55	2299.00
572.90	2297.46
573.26	2295.96
573.61	2294.14
573.96	2292.19
574.31	2289.13
574.67	2286.08
575.02	2282.26
575.37	2278.76
575.72	2274.83
576.08	2271.57
576.43	2268.06
576.78	2264.43
577.13	2261.26
577.49	2258.13
577.84	2254.60
578.19	2250.83
578.54	2247.03
578.90	2242.49
579.25	2236.81
579.60	2231.63
579.95	2226.52
580.30	2221.21
580.66	2215.94
581.01	2210.93
581.36	2205.88
581.71	2201.53
582.06	2196.84
582.42	2192.27
582.77	2186.98
583.12	2182.17
583.47	2177.22
583.82	2172.07
584.17	2166.65
584.53	2161.02
584.88	2155.19
585.23	2149.22
585.58	2143.73
585.93	2138.15
586.28	2133.17
586.63	2128.06
586.98	2122.89
587.34	2118.16
587.69	2113.23
588.04	2107.89
588.39	2101.94
588.74	2095.37
589.09	2089.08
589.44	2082.18
589.79	2076.09
590.14	2070.33
590.49	2063.73
590.84	2057.15
591.19	2051.13
591.54	2044.65
591.89	2037.07
592.25	2030.18
592.60	2022.99
592.95	2015.26
593.30	2007.64
593.65	2000.15
594.00	1992.95
594.35	1985.79
594.70	1977.58
595.05	1970.19
595.40	1962.94
595.75	1955.37
596.10	1948.95
596.45	1942.05
596.80	1935.85
597.15	1929.09
597.50	1921.93
597.85	1915.57
598.19	1909.00
598.54	1901.83
598.89	1895.08
599.24	1889.28
599.59	1882.52
599.94	1876.18
600.29	1869.86
600.64	1863.52
600.99	1855.98
601.34	1849.03
601.69	1841.85
602.04	1834.84
602.39	1827.57
602.74	1820.56
603.08	1813.96
603.43	1807.30
603.78	1800.18
604.13	1792.90
604.48	1785.60
604.83	1778.73
605.18	1771.50
605.53	1763.46
605.87	1755.37
606.22	1748.18
606.57	1740.18
606.92	1732.97
607.27	1725.71
607.62	1718.83
607.96	1711.41
608.31	1704.75
608.66	1697.13
609.01	1689.75
609.36	1682.26
609.70	1674.18
610.05	1666.21
610.40	1658.50
610.75	1650.19
611.10	1642.50
611.44	1634.10
611.79	1626.08
612.14	1617.34
612.49	1608.43
612.83	1600.09
613.18	1592.01
613.53	1583.88
613.88	1575.25
614.22	1566.85
614.57	1558.35
614.92	1550.26
615.27	1542.68
615.61	1534.41
615.96	1526.55
616.31	1518.86
616.65	1511.43
617.00	1504.03
617.35	1496.44
617.70	1488.11
618.04	1479.57
618.39	1471.34
618.74	1463.78
619.08	1455.56
619.43	1448.08
619.78	1441.15
620.12	1434.00
620.47	1426.51
620.82	1418.32
621.16	1411.04
621.51	1403.50
621.85	1396.01
622.20	1387.52
622.55	1379.28
622.89	1371.50
623.24	1363.94
623.59	1356.57
623.93	1349.20
624.28	1341.90
624.62	1334.23
624.97	1327.07
625.32	1320.39
625.66	1313.37
626.01	1306.17
626.35	1298.69
626.70	1290.96
627.04	1283.09
627.39	1275.24
627.73	1267.82
628.08	1260.93
628.43	1253.54
628.77	1246.21
629.12	1238.59
629.46	1231.42
629.81	1223.90
630.15	1216.78
630.50	1209.37
630.84	1201.19
631.19	1193.26
631.53	1185.94
631.88	1178.50
632.22	1170.88
632.57	1163.53
632.91	1156.03
633.26	1148.65
633.60	1141.18
633.95	1134.20
634.29	1127.34
634.64	1120.72
634.98	1113.34
635.32	1106.28
635.67	1099.83
636.01	1093.21
636.36	1086.40
636.70	1080.04
637.05	1073.65
637.39	1067.06
637.73	1060.52
638.08	1054.75
638.42	1048.85
638.77	1042.34
639.11	1035.71
639.45	1029.56
639.80	1022.97
640.14	1016.61
640.49	1010.17
640.83	1004.03
641.17	997.68
641.52	991.31
641.86	984.97
642.20	979.21
642.55	972.92
642.89	966.40
643.23	959.91
643.58	954.13
643.92	947.80
644.26	941.72
644.61	935.83
644.95	929.74
645.29	923.10
645.64	916.32
645.98	909.94
646.32	904.25
646.66	898.03
647.01	892.30
647.35	886.55
647.69	880.76
648.04	875.27
648.38	869.49
648.72	863.47
649.06	857.36
649.41	851.51
649.75	845.53
650.09	839.57
650.43	833.82
650.78	827.70
651.12	821.83
651.46	816.09
651.80	810.27
652.14	804.89
652.49	799.56
652.83	794.44
653.17	788.81
653.51	783.00
653.85	777.73
654.20	772.05
654.54	766.08
654.88	760.35
655.22	754.48
655.56	748.86
655.90	743.53
656.25	738.34
656.59	732.98
656.93	727.91
657.27	722.82
657.61	717.36
657.95	712.30
658.29	707.21
658.64	702.00
658.98	696.78
659.32	691.38
659.66	686.11
660.00	680.72
660.34	675.82
660.68	670.99
661.02	665.91
661.36	661.27
661.70	656.83
662.05	652.48
662.39	648.16
662.73	643.71
663.07	639.31
663.41	634.85
663.75	630.39
664.09	625.91
664.43	621.55
664.77	617.44
665.11	613.23
665.45	609.05
665.79	605.04
666.13	600.95
666.47	596.96
666.81	592.86
667.15	588.81
667.49	584.89
667.83	581.11
668.17	577.19
668.51	573.12
668.85	569.09
669.19	565.20
669.53	561.35
669.87	557.47
670.21	553.80
670.55	550.19
670.89	546.79
671.23	543.33
671.57	539.82
671.91	536.34
672.25	532.86
672.58	529.47
672.92	526.04
673.26	522.88
673.60	519.70
673.94	516.58
674.28	513.77
674.62	510.88
674.96	507.72
675.30	504.82
675.64	501.88
675.97	499.13
676.31	496.37
676.65	493.51
676.99	490.87
677.33	488.03
677.67	485.16
678.01	482.13
678.34	479.16
678.68	476.32
679.02	473.52
679.36	470.77
679.70	467.99
680.04	465.22
680.37	462.35
680.71	459.58
681.05	456.99
681.39	454.25
681.73	451.66
682.06	449.21
682.40	446.71
682.74	444.24
683.08	441.74
683.42	439.16
683.75	436.71
684.09	434.20
684.43	431.77
684.77	429.37
685.10	427.07
685.44	424.78
685.78	422.55
686.12	420.36
686.45	418.14
686.79	415.87
687.13	413.71
687.46	411.56
687.80	409.46
688.14	407.31
688.48	405.25
688.81	402.99
689.15	400.84
689.49	398.74
689.82	396.61
690.16	394.52
690.50	392.52
690.83	390.48
691.17	388.52
691.51	386.59
691.84	384.76
692.18	382.80
692.52	380.83
692.85	378.92
693.19	377.04
693.52	375.18
693.86	373.42
694.20	371.65
694.53	369.84
694.87	368.00
695.21	366.20
695.54	364.36
695.88	362.62
696.21	360.89
696.55	359.19
696.88	357.53
697.22	355.89
697.56	354.32
697.89	352.72
698.23	351.11
698.56	349.53
698.90	347.95
699.23	346.33
699.57	344.77
699.90	343.18
700.24	341.62
700.58	340.08
700.91	338.59
701.25	337.11
701.58	335.77
701.92	334.37
702.25	332.96
702.59	331.59
702.92	330.25
703.26	328.98
703.59	327.68
703.93	326.52
704.26	325.26
704.60	323.97
704.93	322.73
705.26	321.47
705.60	320.31
705.93	319.13
706.27	318.07
706.60	317.03
706.94	315.96
707.27	314.83
707.61	313.79
707.94	312.79
708.27	311.74
708.61	310.66
708.94	309.66
709.28	308.71
709.61	307.75
709.94	306.82
710.28	305.76
710.61	304.78
710.95	303.71
711.28	302.87
711.61	301.89
711.95	300.99
712.28	300.00
712.61	299.01
712.95	298.09
713.28	297.27
713.61	296.37
713.95	295.52
714.28	294.69
714.61	293.85
714.95	292.99
715.28	292.12
715.61	291.23
715.95	290.40
716.28	289.54
716.61	288.76
716.95	287.94
717.28	287.24
717.61	286.51
717.94	285.77
718.28	284.94
718.61	284.24
718.94	283.52
719.27	282.90
719.61	282.24
719.94	281.57
720.27	280.84
720.60	280.19
720.94	279.54
721.27	278.92
721.60	278.31
721.93	277.73
722.27	277.20
722.60	276.70
722.93	276.11
723.26	275.59
723.59	275.01
723.93	274.50
724.26	273.96
724.59	273.41
724.92	272.89
725.25	272.39
725.59	271.87
725.92	271.38
726.25	270.87
726.58	270.41
726.91	269.92
727.24	269.44
727.57	268.96
727.91	268.44
728.24	268.01
728.57	267.55
728.90	267.09
729.23	266.59
729.56	266.13
729.89	265.69
730.22	265.20
730.55	264.72
730.89	264.25
731.22	263.81
731.55	263.35
731.88	262.97
732.21	262.53
732.54	262.07
732.87	261.65
733.20	261.20
733.53	260.79
733.86	260.43
734.19	260.02
734.52	259.66
734.85	259.37
735.18	258.93
735.51	258.58
735.84	258.19
736.17	257.85
736.50	257.47
736.83	257.24
737.16	256.90
737.49	256.60
737.82	256.25
738.15	255.89
738.48	255.59
738.81	255.21
739.14	254.88
739.47	254.56
739.80	254.23
740.13	253.96
740.46	253.66
740.79	253.32
741.12	253.01
741.45	252.72
741.78	252.37
742.11	252.08
742.44	251.70
742.77	251.44
743.10	251.13
743.43	250.83
743.75	250.40
744.08	250.26
744.41	249.99
744.74	249.73
745.07	249.44
745.40	249.16
745.73	248.93
746.06	248.70
746.39	248.48
746.71	248.22
747.04	247.96
747.37	247.67
747.70	247.44
748.03	247.20
748.36	246.97
748.68	246.71
749.01	246.46
749.34	246.25
749.67	246.01
750.00	245.80
750.33	245.63
750.65	245.46
750.98	245.08
751.31	244.84
751.64	244.61
751.97	244.45
752.29	244.25
752.62	244.03
752.95	243.79
753.28	243.57
753.60	243.35
753.93	243.19
754.26	243.03
754.59	242.80
754.91	242.58
755.24	242.33
755.57	242.16
755.90	241.97
756.22	241.80
756.55	241.59
756.88	241.38
757.20	241.15
757.53	240.97
757.86	240.80
758.19	240.66
758.51	240.50
758.84	240.31
759.17	240.16
759.49	240.00
759.82	239.89
760.15	239.76
760.47	239.64
760.80	239.47
761.13	239.30
761.45	239.14
761.78	239.01
762.11	238.89
762.43	238.73
762.76	238.61
763.08	238.46
763.41	238.35
763.74	238.22
764.06	238.10
764.39	237.95
764.71	237.84
765.04	237.69
765.37	237.56
765.69	237.43
766.02	237.28
766.34	237.14
766.67	237.00
767.00	236.88
767.32	236.80
767.65	236.76
767.97	236.64
768.30	236.55
768.62	236.44
768.95	236.32
769.27	236.22
769.60	236.15
769.92	236.07
770.25	235.94
770.57	235.85
770.90	235.75
771.22	235.68
771.55	235.59
771.87	235.51
772.20	235.44
772.52	235.45
772.85	235.46
773.17	235.37
773.50	235.27
773.82	235.15
774.15	235.02
774.47	234.83
774.80	234.75
775.12	234.63
775.45	234.54
775.77	234.48
776.09	234.40
776.42	234.29
776.74	234.20
777.07	234.10
777.39	234.01
777.72	233.90
778.04	233.83
778.36	233.72
778.69	233.65
779.01	233.56
779.33	233.37
779.66	233.19
779.98	233.13
780.31	233.04
780.63	233.02
780.95	232.97
781.28	232.92
781.60	232.83
781.92	232.79
782.25	232.75
782.57	232.67
782.89	232.61
783.22	232.51
783.54	232.42
783.86	232.37
784.19	232.27
784.51	232.25
784.83	232.20
785.16	232.16
785.48	232.10
785.80	232.06
786.12	232.03
786.45	232.00
786.77	231.95
787.09	231.90
787.42	231.82
787.74	231.76
788.06	231.75
788.38	231.72
788.71	231.68
789.03	231.63
789.35	231.61
789.67	231.54
789.99	231.51
790.32	231.46
790.64	231.43
790.96	231.47
791.28	231.38
791.61	231.33
791.93	231.32
792.25	231.30
792.57	231.34
792.89	231.30
793.21	231.27
793.54	231.22
793.86	231.16
794.18	231.13
794.50	231.11
794.82	231.08
795.14	231.04
795.47	231.03
795.79	230.97
796.11	230.90
796.43	230.87
796.75	230.86
797.07	230.87
797.39	230.87
797.71	230.78
798.04	230.78
798.36	230.78
798.68	230.74
799.00	230.70
799.32	230.59
799.64	230.56
799.96	230.50
800.28	230.52
800.60	230.51
800.92	230.50
801.24	230.46
801.56	230.38
801.89	230.36
802.21	230.34
802.53	230.34
802.85	230.34
803.17	230.39
803.49	230.35
803.81	230.30
804.13	230.28
804.45	230.26
804.77	230.24
805.09	230.19
805.41	230.12
805.73	230.08
806.05	230.03
806.37	230.00
806.69	229.98
807.01	229.95
807.33	229.96
807.65	229.91
807.97	229.94
808.28	229.92
808.60	229.88
808.92	229.82
809.24	229.85
809.56	229.83
809.88	229.77
810.20	229.73
810.52	229.74
810.84	229.65
811.16	229.62
811.48	229.61
811.80	229.60
812.12	229.58
812.43	229.59
812.75	229.58
813.07	229.55
813.39	229.55
813.71	229.53
814.03	229.44
814.35	229.42
814.67	229.33
814.98	229.31
815.30	229.31
815.62	229.28
815.94	229.18
816.26	229.20
816.58	229.14
816.89	229.15
817.21	229.12
817.53	229.11
817.85	229.09
818.17	229.04
818.48	229.02
818.80	229.05
819.12	228.99
819.44	228.98
819.76	228.94
820.07	228.93
820.39	228.86
820.71	228.88
821.03	228.85
821.34	228.84
821.66	228.82
821.98	228.80
822.30	228.78
822.61	228.79
822.93	228.72
823.25	228.73
823.57	228.72
823.88	228.72
824.20	228.74
824.52	228.73
824.83	228.70
825.15	228.66
825.47	228.59
825.79	228.59
826.10	228.55
826.42	228.57
826.74	228.51
827.05	228.53
827.37	228.49
827.69	228.45
828.00	228.42
828.32	228.45
828.64	228.42
828.95	228.45
829.27	228.43
829.58	228.41
829.90	228.38
830.22	228.38
830.53	228.34
830.85	228.33
831.17	228.30
831.48	228.29
831.80	228.32
832.11	228.32
832.43	228.29
832.75	228.31
833.06	228.33
833.38	228.33
833.69	228.29
834.01	228.32
834.32	228.31
834.64	228.33
834.96	228.29
835.27	228.31
835.59	228.28
835.90	228.26
836.22	228.25
836.53	228.24
836.85	228.24
837.16	228.32
837.48	228.30
837.79	228.31
838.11	228.33
838.42	228.28
838.74	228.29
839.05	228.33
839.37	228.31
839.68	228.23
840.00	228.20
840.31	228.21
840.63	228.21
840.94	228.22
841.26	228.20
841.57	228.19
841.88	228.19
842.20	228.15
842.51	228.13
842.83	228.14
843.14	228.23
843.46	228.22
843.77	228.15
844.08	228.13
844.40	228.11
844.71	228.08
845.03	228.06
845.34	228.02
845.65	227.98
845.97	227.97
846.28	228.00
846.60	228.00
846.91	227.99
847.22	227.99
847.54	228.00
847.85	227.98
848.16	227.95
848.48	227.93
848.79	227.98
849.10	228.01
849.42	227.99
849.73	227.89
850.04	227.84
850.36	227.81
850.67	227.83
850.98	227.83
851.30	227.84
851.61	227.84
851.92	227.82
852.23	227.84
852.55	227.85
852.86	227.84
853.17	227.86
853.49	227.85
853.80	227.86
854.11	227.85
854.42	227.84
854.74	227.81
855.05	227.81
855.36	227.74
855.67	227.70
855.99	227.70
856.30	227.84
856.61	227.82
856.92	227.82
857.23	227.80
857.55	227.79
857.86	227.78
858.17	227.81
858.48	227.81
858.79	227.76
859.11	227.74
859.42	227.66
859.73	227.63
860.04	227.61
860.35	227.56
860.66	227.52
860.98	227.52
861.29	227.54
861.60	227.51
861.91	227.56
862.22	227.54
862.53	227.52
862.84	227.39
863.16	227.40
863.47	227.38
863.78	227.36
864.09	227.37
864.40	227.35
864.71	227.33
865.02	227.33
865.33	227.34
865.64	227.33
865.95	227.38
866.27	227.45
866.58	227.44
866.89	227.44
867.20	227.44
867.51	227.43
867.82	227.44
868.13	227.50
868.44	227.43
868.75	227.47
869.06	227.45
869.37	227.45
869.68	227.44
869.99	227.46
870.30	227.49
870.61	227.49
870.92	227.48
871.23	227.49
871.54	227.52
871.85	227.55
872.16	227.56
872.47	227.56
872.78	227.54
873.09	227.57
873.40	227.58
873.71	227.62
874.02	227.63
874.33	227.61
874.64	227.58
874.95	227.60
875.26	227.57
875.56	227.60
875.87	227.63
876.18	227.65
876.49	227.72
876.80	227.68
877.11	227.64
877.42	227.63
877.73	227.62
878.04	227.60
878.35	227.60
878.66	227.60
878.96	227.58
879.27	227.56
879.58	227.54
879.89	227.53
880.20	227.55
880.51	227.55
880.82	227.57
881.12	227.58
881.43	227.56
881.74	227.54
882.05	227.54
882.36	227.47
882.67	227.48
882.97	227.39
883.28	227.38
883.59	227.39
883.90	227.42
884.21	227.40
884.51	227.39
884.82	227.37
885.13	227.35
885.44	227.38
885.74	227.34
886.05	227.33
886.36	227.30
886.67	227.26
886.98	227.31
887.28	227.29
887.59	227.27
887.90	227.29
888.20	227.29
888.51	227.27
888.82	227.29
889.13	227.27
889.43	227.31
889.74	227.33
890.05	227.34
890.35	227.30
890.66	227.31
890.97	227.34
891.28	227.35
891.58	227.33
891.89	227.32
892.20	227.33
892.50	227.34
892.81	227.40
893.12	227.41
893.42	227.34
893.73	227.36
894.04	227.37
894.34	227.39
894.65	227.42
894.95	227.45
895.26	227.47
895.57	227.52
895.87	227.46
896.18	227.47
896.48	227.47
896.79	227.49
897.10	227.47
897.40	227.46
897.71	227.47
898.01	227.48
898.32	227.48
898.63	227.50
898.93	227.50
899.24	227.45
899.54	227.45
899.85	227.46
900.15	227.47
900.46	227.45
900.76	227.42
901.07	227.39
901.38	227.39
901.68	227.40
901.99	227.38
902.29	227.37
902.60	227.35
902.90	227.34
903.21	227.36
903.51	227.36
903.82	227.36
904.12	227.35
904.43	227.39
904.73	227.42
905.03	227.41
905.34	227.52
905.64	227.53
905.95	227.49
906.25	227.49
906.56	227.48
906.86	227.49
907.17	227.53
907.47	227.57
907.77	227.54
908.08	227.52
908.38	227.52
908.69	227.55
908.99	227.56
909.30	227.59
909.60	227.57
909.90	227.59
910.21	227.58
910.51	227.55
910.81	227.55
911.12	227.52
911.42	227.56
911.73	227.41
912.03	227.41
912.33	227.48
912.64	227.49
912.94	227.49
913.24	227.48
913.55	227.47
913.85	227.44
914.15	227.45
914.46	227.45
914.76	227.45
915.06	227.46
915.37	227.45
915.67	227.44
915.97	227.41
916.27	227.41
916.58	227.41
916.88	227.43
917.18	227.42
917.49	227.50
917.79	227.47
918.09	227.53
918.39	227.55
918.70	227.52
919.00	227.50
919.30	227.51
919.60	227.50
919.91	227.50
920.21	227.49
920.51	227.47
920.81	227.43
921.12	227.45
921.42	227.42
921.72	227.43
922.02	227.42
922.32	227.46
922.63	227.44
922.93	227.48
923.23	227.49
923.53	227.46
923.83	227.39
924.13	227.39
924.44	227.38
924.74	227.42
925.04	227.44
925.34	227.44
925.64	227.44
925.94	227.44
926.24	227.48
926.55	227.48
926.85	227.49
927.15	227.51
927.45	227.48
927.75	227.50
928.05	227.49
928.35	227.50
928.65	227.51
928.95	227.53
929.26	227.48
929.56	227.51
929.86	227.49
930.16	227.44
930.46	227.42
930.76	227.41
931.06	227.35
931.36	227.31
931.66	227.35
931.96	227.32
932.26	227.33
932.56	227.28
932.86	227.29
933.16	227.28
933.46	227.27
933.76	227.26
934.06	227.27
934.36	227.29
934.66	227.29
934.96	227.26
935.26	227.25
935.56	227.24
935.86	227.22
936.16	227.24
936.46	227.28
936.76	227.26
937.06	227.25
937.36	227.27
937.66	227.29
937.96	227.26
938.26	227.27
938.56	227.24
938.86	227.27
939.16	227.28
939.46	227.31
939.76	227.31
940.06	227.29
940.35	227.26
940.65	227.24
940.95	227.25
941.25	227.23
941.55	227.21
941.85	227.21
942.15	227.22
942.45	227.25
942.75	227.26
943.04	227.27
943.34	227.28
943.64	227.30
943.94	227.30
944.24	227.34
944.54	227.33
944.84	227.33
945.13	227.28
945.43	227.26
945.73	227.27
946.03	227.29
946.33	227.30
946.62	227.29
946.92	227.25
947.22	227.28
947.52	227.27
947.82	227.28
948.11	227.29
948.41	227.26
948.71	227.21
949.01	227.18
949.31	227.20
949.60	227.14
949.90	227.13
950.20	227.11
950.50	227.08
950.79	227.07
951.09	227.12
951.39	227.13
951.69	227.09
951.98	227.08
952.28	227.06
952.58	227.07
952.87	227.09
953.17	227.14
953.47	227.09
953.76	227.10
954.06	227.09
954.36	227.11
954.66	227.07
954.95	227.10
955.25	227.10
955.55	227.11
955.84	227.15
956.14	227.15
956.44	227.15
956.73	227.10
957.03	227.09
957.32	227.07
957.62	227.04
957.92	227.06
958.21	227.05
958.51	227.14
958.81	227.13
959.10	227.12
959.40	227.11
959.69	227.12
959.99	227.15
960.29	227.17
960.58	227.15
960.88	227.20
961.17	227.19
961.47	227.21
961.76	227.16
962.06	227.16
962.36	227.11
962.65	227.08
962.95	227.07
963.24	227.05
963.54	227.03
963.83	227.06
964.13	227.07
964.42	227.07
964.72	227.03
965.01	227.06
965.31	227.07
965.60	227.03
965.90	227.10
966.19	227.05
966.49	227.04
966.78	227.01
967.08	227.02
967.37	227.01
967.67	227.03
967.96	227.07
968.26	227.07
968.55	227.10
968.85	227.13
969.14	227.16
969.43	227.20
969.73	227.22
970.02	227.22
970.32	227.23
970.61	227.21
970.91	227.15
971.20	227.09
971.49	227.08
971.79	227.11
972.08	227.05
972.38	227.07
972.67	227.07
972.96	227.10
973.26	227.06
973.55	227.10
973.85	227.07
974.14	227.05
974.43	227.06
974.73	227.07
975.02	227.04
975.31	227.06
975.61	227.06
975.90	227.04
976.19	227.04
976.49	227.05
976.78	227.04
977.07	227.07
977.37	227.08
977.66	227.09
977.95	227.09
978.24	227.08
978.54	227.13
978.83	227.13
979.12	227.18
979.42	227.20
979.71	227.18
980.00	227.19
980.29	227.19
980.59	227.21
980.88	227.25
981.17	227.26
981.46	227.27
981.76	227.28
982.05	227.33
982.34	227.31
982.63	227.34
982.93	227.34
983.22	227.34
983.51	227.37
983.80	227.39
984.09	227.38
984.39	227.38
984.68	227.36
984.97	227.36
985.26	227.30
985.55	227.30
985.85	227.28
986.14	227.30
986.43	227.33
986.72	227.33
987.01	227.29
987.30	227.29
987.59	227.25
987.89	227.26
988.18	227.19
988.47	227.21
988.76	227.18
989.05	227.19
989.34	227.20
989.63	227.19
989.92	227.14
990.22	227.12
990.51	227.10
990.80	227.08
991.09	227.07
991.38	227.10
991.67	227.10
991.96	227.09
992.25	227.10
992.54	227.09
992.83	227.04
993.12	227.00
993.41	227.01
993.70	227.08
993.99	227.10
994.28	227.13
994.58	227.12
994.87	227.12
995.16	227.13
995.45	227.07
995.74	227.05
996.03	227.05
996.32	227.07
996.61	227.10
996.90	227.09
997.19	227.08
997.48	227.03
997.77	227.01
998.06	227.01
998.34	226.98
998.63	226.96
998.92	226.98
999.21	227.00
999.50	227.00
999.79	226.95
1000.08	226.92
1000.37	226.90
1000.66	226.89
1000.95	226.88
1001.24	226.90
1001.53	226.93
1001.82	226.97
1002.11	226.97
1002.40	226.97
1002.68	227.03
1002.97	227.07
1003.26	227.06
1003.55	227.06
1003.84	227.04
1004.13	227.05
1004.42	227.05
1004.71	227.03
1004.99	227.01
1005.28	227.05
1005.57	227.04
1005.86	227.00
1006.15	226.98
1006.44	226.95
1006.72	226.99
1007.01	226.99
1007.30	226.98
1007.59	226.96
1007.88	226.92
1008.17	226.92
1008.45	226.92
1008.74	226.86
1009.03	226.86
1009.32	226.89
1009.60	226.90
1009.89	226.91
1010.18	226.88
1010.47	226.84
1010.76	226.86
1011.04	226.86
1011.33	226.87
1011.62	226.87
1011.91	226.92
1012.19	226.96
1012.48	226.99
1012.77	226.95
1013.05	227.02
1013.34	227.01
1013.63	226.98
1013.92	227.00
1014.20	226.99
1014.49	227.01
1014.78	226.96
1015.06	226.94
1015.35	226.91
1015.64	226.93
1015.92	226.98
1016.21	226.97
1016.50	226.99
1016.78	226.98
1017.07	227.00
1017.36	226.96
1017.64	226.94
1017.93	226.94
1018.22	226.91
1018.50	226.84
1018.79	226.87
1019.08	226.81
1019.36	226.82
1019.65	226.85
1019.93	226.86
1020.22	226.89
1020.51	226.92
1020.79	226.97
1021.08	226.75
1021.36	225.85
1021.65	227.01
1021.94	227.12
1022.22	227.28
1022.51	226.87
1022.79	227.26
1023.08	227.39
1023.36	227.89
1023.65	227.14
>>>>>End Processed Spectral Data<<<<<
