SpectraSuite Data File
++++++++++++++++++++++++++++++++++++
Date: Fri Feb 01 15:22:45 EST 2013
User: group
Dark Spectrum Present: No
Reference Spectrum Present: No
Number of Sampled Component Spectra: 1
Spectrometers: USB2E7196
Integration Time (usec): 35000 (USB2E7196)
Spectra Averaged: 100 (USB2E7196)
Boxcar Smoothing: 10 (USB2E7196)
Correct for Electrical Dark: No (USB2E7196)
Strobe/Lamp Enabled: No (USB2E7196)
Correct for Detector Non-linearity: No (USB2E7196)
Correct for Stray Light: No (USB2E7196)
Number of Pixels in Processed Spectrum: 2048
>>>>>Begin Processed Spectral Data<<<<<
339.09	0.00
339.48	214.76
339.86	216.80
340.24	218.41
340.63	218.84
341.01	221.87
341.39	221.69
341.78	223.42
342.16	224.19
342.54	225.16
342.93	213.44
343.31	224.25
343.69	224.81
344.07	225.28
344.46	225.70
344.84	226.07
345.22	226.31
345.60	226.59
345.99	226.75
346.37	226.88
346.75	226.96
347.13	227.00
347.52	227.05
347.90	227.12
348.28	227.18
348.66	227.19
349.05	227.18
349.43	227.24
349.81	227.30
350.19	227.36
350.57	227.38
350.96	227.44
351.34	227.52
351.72	227.60
352.10	227.67
352.48	227.71
352.87	227.78
353.25	227.84
353.63	227.86
354.01	227.92
354.39	228.04
354.77	228.11
355.15	228.21
355.54	228.27
355.92	228.28
356.30	228.31
356.68	228.44
357.06	228.51
357.44	228.54
357.82	228.58
358.20	228.64
358.58	228.71
358.97	228.79
359.35	228.83
359.73	228.90
360.11	228.95
360.49	228.99
360.87	229.04
361.25	229.10
361.63	229.20
362.01	229.27
362.39	229.29
362.77	229.32
363.15	229.34
363.53	229.36
363.91	229.41
364.29	229.44
364.67	229.37
365.05	229.40
365.43	229.41
365.81	229.42
366.19	229.46
366.57	229.47
366.95	229.42
367.33	229.41
367.71	229.38
368.09	229.39
368.47	229.40
368.85	229.37
369.23	229.38
369.61	229.30
369.99	229.27
370.37	229.23
370.75	229.25
371.13	229.20
371.51	229.14
371.89	229.08
372.27	229.06
372.65	229.01
373.03	228.93
373.41	228.87
373.78	228.80
374.16	228.70
374.54	228.64
374.92	228.58
375.30	228.51
375.68	228.43
376.06	228.35
376.44	228.28
376.82	228.23
377.19	228.18
377.57	228.09
377.95	227.99
378.33	227.92
378.71	227.80
379.09	227.73
379.47	227.69
379.84	227.60
380.22	227.52
380.60	227.42
380.98	227.36
381.36	227.32
381.73	227.25
382.11	227.18
382.49	227.13
382.87	227.08
383.25	227.02
383.62	227.11
384.00	227.05
384.38	226.99
384.76	226.96
385.13	226.89
385.51	226.86
385.89	226.82
386.27	226.76
386.64	226.73
387.02	226.70
387.40	226.64
387.78	226.61
388.15	226.59
388.53	226.55
388.91	226.52
389.29	226.47
389.66	226.43
390.04	226.44
390.42	226.42
390.79	226.41
391.17	226.40
391.55	226.23
391.92	226.21
392.30	226.19
392.68	226.20
393.05	226.21
393.43	226.23
393.81	226.24
394.18	226.24
394.56	226.25
394.94	226.31
395.31	226.33
395.69	226.40
396.06	226.46
396.44	226.54
396.82	226.58
397.19	226.69
397.57	226.78
397.95	226.81
398.32	226.83
398.70	226.89
399.07	226.97
399.45	227.07
399.82	227.16
400.20	227.24
400.58	227.26
400.95	227.34
401.33	227.46
401.70	227.63
402.08	227.74
402.45	227.84
402.83	227.93
403.20	228.03
403.58	228.12
403.95	228.20
404.33	228.29
404.71	228.44
405.08	228.60
405.46	228.72
405.83	228.90
406.21	229.07
406.58	229.23
406.96	229.41
407.33	229.56
407.70	229.73
408.08	230.01
408.45	230.29
408.83	230.52
409.20	230.68
409.58	230.86
409.95	231.15
410.33	231.42
410.70	231.70
411.08	232.03
411.45	232.32
411.82	232.67
412.20	233.04
412.57	233.45
412.95	233.77
413.32	234.17
413.69	234.56
414.07	235.02
414.44	235.47
414.82	235.94
415.19	236.50
415.56	237.06
415.94	237.62
416.31	238.25
416.68	238.87
417.06	239.58
417.43	240.28
417.81	241.01
418.18	241.78
418.55	242.60
418.93	243.44
419.30	244.34
419.67	245.27
420.04	246.26
420.42	247.25
420.79	248.40
421.16	249.56
421.54	250.80
421.91	252.01
422.28	253.30
422.66	254.65
423.03	256.00
423.40	257.36
423.77	258.75
424.15	260.15
424.52	261.65
424.89	263.26
425.26	264.82
425.64	266.27
426.01	267.91
426.38	269.58
426.75	271.25
427.13	273.01
427.50	274.84
427.87	276.68
428.24	278.57
428.61	280.32
428.99	282.24
429.36	284.34
429.73	286.39
430.10	288.38
430.47	290.43
430.85	292.58
431.22	294.80
431.59	297.21
431.96	299.48
432.33	301.97
432.70	304.39
433.08	307.16
433.45	309.85
433.82	312.42
434.19	315.32
434.56	318.18
434.93	320.83
435.30	323.47
435.68	326.45
436.05	329.27
436.42	332.14
436.79	334.68
437.16	337.39
437.53	340.26
437.90	343.11
438.27	345.87
438.64	348.66
439.01	351.30
439.38	353.49
439.75	355.67
440.13	358.15
440.50	360.48
440.87	362.35
441.24	364.28
441.61	366.48
441.98	367.96
442.35	369.75
442.72	371.59
443.09	373.35
443.46	374.32
443.83	374.92
444.20	375.41
444.57	376.28
444.94	376.56
445.31	376.82
445.68	377.16
446.05	377.22
446.42	376.79
446.79	376.32
447.16	375.87
447.53	375.51
447.90	374.34
448.27	373.16
448.64	371.59
449.01	370.42
449.37	368.43
449.74	366.55
450.11	364.28
450.48	361.84
450.85	359.32
451.22	357.14
451.59	355.11
451.96	353.12
452.33	350.47
452.70	348.08
453.07	345.29
453.43	342.36
453.80	339.54
454.17	336.87
454.54	334.32
454.91	331.60
455.28	328.93
455.65	326.46
456.02	324.00
456.38	321.84
456.75	319.20
457.12	316.96
457.49	314.72
457.86	312.54
458.23	310.64
458.59	308.59
458.96	306.52
459.33	304.65
459.70	302.74
460.07	301.23
460.43	299.51
460.80	297.88
461.17	296.46
461.54	295.01
461.91	293.60
462.27	292.20
462.64	290.97
463.01	289.61
463.38	288.33
463.74	286.98
464.11	285.81
464.48	284.76
464.85	283.62
465.21	282.72
465.58	281.82
465.95	280.74
466.32	279.82
466.68	278.88
467.05	277.98
467.42	277.13
467.78	276.19
468.15	275.35
468.52	274.71
468.88	273.80
469.25	272.99
469.62	272.32
469.98	271.61
470.35	271.00
470.72	270.40
471.08	269.68
471.45	269.10
471.82	268.53
472.18	267.92
472.55	267.47
472.92	266.96
473.28	266.45
473.65	265.98
474.02	265.56
474.38	265.19
474.75	264.86
475.11	264.53
475.48	264.27
475.85	264.04
476.21	263.76
476.58	263.65
476.94	263.52
477.31	263.39
477.67	263.24
478.04	263.12
478.41	263.05
478.77	263.13
479.14	263.09
479.50	263.10
479.87	263.19
480.23	263.30
480.60	263.36
480.96	263.47
481.33	263.71
481.69	263.89
482.06	264.09
482.42	264.33
482.79	264.58
483.15	264.92
483.52	265.25
483.88	265.61
484.25	265.97
484.61	266.43
484.98	266.84
485.34	267.41
485.71	267.97
486.07	268.58
486.44	269.13
486.80	269.84
487.17	270.59
487.53	271.41
487.90	272.22
488.26	273.16
488.62	274.12
488.99	275.08
489.35	276.13
489.72	277.25
490.08	278.42
490.44	279.66
490.81	281.00
491.17	282.36
491.54	283.85
491.90	285.37
492.26	286.99
492.63	288.73
492.99	290.53
493.36	292.40
493.72	294.47
494.08	296.59
494.45	298.82
494.81	301.15
495.17	303.55
495.54	306.16
495.90	308.86
496.26	311.65
496.63	314.61
496.99	317.73
497.35	320.96
497.72	324.34
498.08	327.86
498.44	331.49
498.80	335.40
499.17	339.43
499.53	343.60
499.89	347.95
500.26	352.51
500.62	357.16
500.98	362.16
501.34	367.19
501.71	372.48
502.07	377.93
502.43	383.59
502.79	389.41
503.16	395.49
503.52	401.68
503.88	408.14
504.24	414.76
504.60	421.65
504.97	428.78
505.33	436.07
505.69	443.72
506.05	451.48
506.41	459.39
506.78	467.58
507.14	476.03
507.50	484.78
507.86	493.79
508.22	502.97
508.59	512.13
508.95	521.71
509.31	531.52
509.67	541.66
510.03	551.93
510.39	562.53
510.75	573.28
511.12	584.30
511.48	595.62
511.84	607.13
512.20	618.70
512.56	630.68
512.92	642.96
513.28	655.35
513.64	667.76
514.00	680.50
514.37	693.41
514.73	706.46
515.09	719.49
515.45	732.74
515.81	746.34
516.17	760.38
516.53	774.47
516.89	788.74
517.25	802.90
517.61	817.41
517.97	831.84
518.33	846.37
518.69	861.15
519.05	876.20
519.41	891.41
519.77	907.00
520.13	922.42
520.49	937.81
520.85	953.31
521.21	969.18
521.57	985.44
521.93	1001.23
522.29	1017.62
522.65	1033.97
523.01	1050.26
523.37	1066.37
523.73	1082.63
524.09	1098.87
524.45	1115.14
524.81	1131.87
525.17	1148.78
525.53	1165.80
525.89	1182.72
526.25	1199.55
526.61	1215.96
526.97	1232.66
527.33	1249.14
527.68	1265.84
528.04	1282.43
528.40	1299.06
528.76	1316.20
529.12	1332.77
529.48	1349.71
529.84	1365.83
530.20	1382.48
530.56	1399.60
530.91	1417.08
531.27	1433.88
531.63	1450.42
531.99	1467.10
532.35	1483.10
532.71	1498.93
533.07	1515.19
533.42	1531.13
533.78	1547.24
534.14	1563.50
534.50	1578.95
534.86	1594.83
535.21	1610.05
535.57	1625.99
535.93	1641.61
536.29	1656.52
536.65	1671.80
537.00	1686.71
537.36	1702.04
537.72	1716.66
538.08	1731.12
538.44	1744.88
538.79	1758.85
539.15	1772.63
539.51	1786.36
539.87	1800.87
540.22	1814.59
540.58	1828.34
540.94	1841.85
541.29	1854.93
541.65	1867.79
542.01	1881.21
542.37	1893.61
542.72	1906.16
543.08	1917.84
543.44	1930.22
543.79	1941.40
544.15	1952.45
544.51	1963.95
544.87	1975.11
545.22	1985.96
545.58	1996.24
545.94	2006.10
546.29	2016.03
546.65	2025.78
547.01	2035.06
547.36	2043.74
547.72	2052.29
548.07	2060.20
548.43	2068.52
548.79	2076.54
549.14	2084.07
549.50	2091.33
549.86	2099.04
550.21	2106.50
550.57	2113.77
550.92	2120.24
551.28	2127.28
551.64	2134.25
551.99	2140.88
552.35	2146.89
552.70	2153.17
553.06	2159.03
553.41	2165.36
553.77	2171.39
554.13	2177.58
554.48	2183.81
554.84	2189.26
555.19	2194.69
555.55	2199.87
555.90	2204.16
556.26	2208.97
556.61	2213.61
556.97	2217.81
557.32	2222.02
557.68	2225.98
558.03	2230.38
558.39	2234.33
558.74	2238.99
559.10	2242.90
559.45	2246.56
559.81	2250.96
560.16	2254.74
560.52	2258.11
560.87	2261.58
561.23	2264.22
561.58	2267.10
561.94	2269.56
562.29	2271.97
562.64	2274.62
563.00	2277.27
563.35	2280.61
563.71	2283.73
564.06	2287.05
564.42	2289.83
564.77	2292.17
565.12	2294.27
565.48	2295.97
565.83	2297.63
566.19	2298.82
566.54	2299.77
566.89	2300.87
567.25	2301.32
567.60	2302.60
567.96	2304.20
568.31	2304.87
568.66	2305.96
569.02	2306.46
569.37	2306.64
569.72	2307.39
570.08	2307.37
570.43	2307.25
570.78	2306.75
571.14	2305.12
571.49	2303.75
571.84	2303.40
572.20	2302.04
572.55	2301.05
572.90	2299.66
573.26	2298.13
573.61	2296.36
573.96	2294.52
574.31	2291.55
574.67	2288.40
575.02	2284.67
575.37	2281.22
575.72	2277.48
576.08	2274.06
576.43	2270.77
576.78	2267.21
577.13	2263.97
577.49	2260.89
577.84	2257.45
578.19	2253.63
578.54	2249.95
578.90	2245.44
579.25	2239.91
579.60	2235.08
579.95	2230.05
580.30	2224.83
580.66	2219.63
581.01	2214.70
581.36	2209.66
581.71	2205.27
582.06	2200.85
582.42	2196.12
582.77	2190.73
583.12	2185.95
583.47	2181.00
583.82	2175.71
584.17	2170.40
584.53	2164.84
584.88	2159.14
585.23	2153.08
585.58	2147.47
585.93	2141.89
586.28	2137.14
586.63	2131.90
586.98	2126.81
587.34	2122.00
587.69	2117.04
588.04	2111.78
588.39	2106.00
588.74	2099.38
589.09	2093.16
589.44	2086.19
589.79	2080.31
590.14	2074.67
590.49	2068.12
590.84	2061.80
591.19	2055.74
591.54	2049.11
591.89	2041.49
592.25	2034.59
592.60	2027.56
592.95	2019.91
593.30	2012.57
593.65	2004.99
594.00	1998.02
594.35	1990.60
594.70	1982.52
595.05	1975.03
595.40	1967.65
595.75	1960.09
596.10	1953.77
596.45	1946.92
596.80	1940.86
597.15	1934.03
597.50	1926.80
597.85	1920.34
598.19	1913.45
598.54	1906.17
598.89	1899.51
599.24	1893.74
599.59	1886.98
599.94	1880.55
600.29	1874.36
600.64	1867.64
600.99	1859.99
601.34	1852.95
601.69	1845.97
602.04	1839.06
602.39	1831.82
602.74	1824.97
603.08	1818.27
603.43	1811.65
603.78	1804.40
604.13	1797.14
604.48	1789.71
604.83	1782.92
605.18	1775.83
605.53	1767.84
605.87	1759.85
606.22	1752.60
606.57	1744.52
606.92	1737.19
607.27	1730.04
607.62	1722.90
607.96	1715.63
608.31	1709.01
608.66	1701.38
609.01	1693.88
609.36	1686.20
609.70	1678.18
610.05	1670.08
610.40	1662.23
610.75	1653.77
611.10	1645.98
611.44	1637.49
611.79	1629.67
612.14	1620.98
612.49	1611.85
612.83	1603.60
613.18	1595.59
613.53	1587.47
613.88	1578.92
614.22	1570.68
614.57	1562.10
614.92	1553.99
615.27	1546.38
615.61	1538.05
615.96	1530.06
616.31	1522.40
616.65	1515.12
617.00	1507.66
617.35	1500.00
617.70	1491.64
618.04	1483.10
618.39	1474.88
618.74	1467.33
619.08	1459.03
619.43	1451.46
619.78	1444.60
620.12	1437.34
620.47	1429.76
620.82	1421.69
621.16	1414.46
621.51	1406.81
621.85	1399.06
622.20	1390.66
622.55	1382.48
622.89	1374.66
623.24	1367.08
623.59	1359.71
623.93	1352.10
624.28	1344.78
624.62	1337.30
624.97	1330.21
625.32	1323.56
625.66	1316.58
626.01	1309.31
626.35	1301.73
626.70	1294.04
627.04	1286.16
627.39	1278.46
627.73	1271.07
628.08	1264.09
628.43	1256.64
628.77	1249.22
629.12	1241.70
629.46	1234.47
629.81	1226.92
630.15	1219.64
630.50	1212.23
630.84	1204.02
631.19	1196.24
631.53	1188.78
631.88	1181.19
632.22	1173.54
632.57	1166.19
632.91	1158.72
633.26	1151.40
633.60	1144.14
633.95	1137.00
634.29	1130.05
634.64	1123.29
634.98	1115.95
635.32	1108.79
635.67	1102.26
636.01	1095.57
636.36	1088.86
636.70	1082.38
637.05	1075.89
637.39	1069.47
637.73	1062.97
638.08	1057.11
638.42	1051.02
638.77	1044.56
639.11	1037.97
639.45	1031.68
639.80	1025.03
640.14	1018.47
640.49	1011.87
640.83	1005.57
641.17	999.18
641.52	992.81
641.86	986.46
642.20	980.65
642.55	974.34
642.89	967.82
643.23	961.38
643.58	955.57
643.92	949.40
644.26	943.27
644.61	937.30
644.95	931.26
645.29	924.66
645.64	917.92
645.98	911.58
646.32	905.81
646.66	899.75
647.01	893.95
647.35	888.33
647.69	882.56
648.04	877.02
648.38	871.35
648.72	865.35
649.06	859.22
649.41	853.35
649.75	847.42
650.09	841.47
650.43	835.61
650.78	829.40
651.12	823.46
651.46	817.82
651.80	812.07
652.14	806.67
652.49	801.30
652.83	796.13
653.17	790.41
653.51	784.63
653.85	779.29
654.20	773.67
654.54	767.69
654.88	761.96
655.22	756.12
655.56	750.36
655.90	744.96
656.25	739.73
656.59	734.34
656.93	729.19
657.27	724.05
657.61	718.62
657.95	713.57
658.29	708.44
658.64	703.19
658.98	697.90
659.32	692.48
659.66	687.23
660.00	681.91
660.34	677.00
660.68	672.15
661.02	667.11
661.36	662.44
661.70	657.92
662.05	653.52
662.39	649.17
662.73	644.78
663.07	640.38
663.41	635.97
663.75	631.48
664.09	626.94
664.43	622.56
664.77	618.53
665.11	614.30
665.45	610.25
665.79	606.18
666.13	602.02
666.47	597.91
666.81	593.77
667.15	589.66
667.49	585.83
667.83	582.04
668.17	578.08
668.51	573.98
668.85	569.98
669.19	566.18
669.53	562.30
669.87	558.40
670.21	554.71
670.55	551.10
670.89	547.67
671.23	544.27
671.57	540.77
671.91	537.17
672.25	533.68
672.58	530.15
672.92	526.70
673.26	523.55
673.60	520.44
673.94	517.37
674.28	514.48
674.62	511.50
674.96	508.31
675.30	505.40
675.64	502.44
675.97	499.70
676.31	496.80
676.65	493.92
676.99	491.27
677.33	488.41
677.67	485.62
678.01	482.57
678.34	479.54
678.68	476.69
679.02	473.96
679.36	471.21
679.70	468.44
680.04	465.67
680.37	462.78
680.71	459.94
681.05	457.31
681.39	454.62
681.73	451.98
682.06	449.51
682.40	446.98
682.74	444.51
683.08	441.93
683.42	439.39
683.75	436.92
684.09	434.36
684.43	431.96
684.77	429.46
685.10	427.17
685.44	424.91
685.78	422.66
686.12	420.38
686.45	418.09
686.79	415.89
687.13	413.75
687.46	411.65
687.80	409.51
688.14	407.32
688.48	405.32
688.81	403.09
689.15	400.92
689.49	398.80
689.82	396.70
690.16	394.62
690.50	392.66
690.83	390.70
691.17	388.74
691.51	386.78
691.84	384.92
692.18	383.00
692.52	381.04
692.85	379.14
693.19	377.27
693.52	375.43
693.86	373.62
694.20	371.81
694.53	370.00
694.87	368.20
695.21	366.44
695.54	364.54
695.88	362.79
696.21	361.10
696.55	359.42
696.88	357.73
697.22	356.11
697.56	354.52
697.89	352.84
698.23	351.20
698.56	349.59
698.90	347.97
699.23	346.31
699.57	344.71
699.90	343.18
700.24	341.64
700.58	340.12
700.91	338.60
701.25	337.16
701.58	335.77
701.92	334.42
702.25	333.03
702.59	331.67
702.92	330.35
703.26	329.08
703.59	327.81
703.93	326.60
704.26	325.34
704.60	324.01
704.93	322.74
705.26	321.53
705.60	320.36
705.93	319.24
706.27	318.21
706.60	317.19
706.94	316.06
707.27	314.87
707.61	313.82
707.94	312.79
708.27	311.70
708.61	310.65
708.94	309.64
709.28	308.70
709.61	307.78
709.94	306.85
710.28	305.78
710.61	304.80
710.95	303.70
711.28	302.78
711.61	301.84
711.95	300.95
712.28	299.97
712.61	298.98
712.95	298.04
713.28	297.20
713.61	296.29
713.95	295.40
714.28	294.60
714.61	293.77
714.95	292.94
715.28	292.10
715.61	291.19
715.95	290.29
716.28	289.40
716.61	288.57
716.95	287.74
717.28	287.01
717.61	286.25
717.94	285.61
718.28	284.83
718.61	284.13
718.94	283.46
719.27	282.88
719.61	282.28
719.94	281.66
720.27	280.93
720.60	280.31
720.94	279.71
721.27	279.11
721.60	278.51
721.93	277.91
722.27	277.35
722.60	276.85
722.93	276.33
723.26	275.79
723.59	275.24
723.93	274.71
724.26	274.17
724.59	273.59
724.92	273.06
725.25	272.55
725.59	272.03
725.92	271.53
726.25	270.99
726.58	270.47
726.91	269.94
727.24	269.49
727.57	269.00
727.91	268.50
728.24	268.05
728.57	267.59
728.90	267.12
729.23	266.64
729.56	266.21
729.89	265.72
730.22	265.23
730.55	264.76
730.89	264.30
731.22	263.85
731.55	263.44
731.88	262.98
732.21	262.55
732.54	262.13
732.87	261.68
733.20	261.27
733.53	260.92
733.86	260.56
734.19	260.16
734.52	259.78
734.85	259.48
735.18	259.08
735.51	258.73
735.84	258.39
736.17	258.05
736.50	257.62
736.83	257.39
737.16	257.06
737.49	256.71
737.82	256.39
738.15	256.10
738.48	255.75
738.81	255.44
739.14	255.14
739.47	254.84
739.80	254.53
740.13	254.21
740.46	253.85
740.79	253.57
741.12	253.23
741.45	252.89
741.78	252.54
742.11	252.22
742.44	251.86
742.77	251.56
743.10	251.24
743.43	250.97
743.75	250.59
744.08	250.45
744.41	250.16
744.74	249.87
745.07	249.56
745.40	249.32
745.73	249.08
746.06	248.76
746.39	248.46
746.71	248.19
747.04	247.96
747.37	247.72
747.70	247.46
748.03	247.19
748.36	246.98
748.68	246.74
749.01	246.49
749.34	246.26
749.67	245.99
750.00	245.78
750.33	245.60
750.65	245.39
750.98	245.03
751.31	244.82
751.64	244.62
751.97	244.45
752.29	244.21
752.62	243.95
752.95	243.79
753.28	243.57
753.60	243.35
753.93	243.17
754.26	242.94
754.59	242.65
754.91	242.44
755.24	242.25
755.57	242.04
755.90	241.87
756.22	241.70
756.55	241.54
756.88	241.31
757.20	241.11
757.53	240.94
757.86	240.79
758.19	240.64
758.51	240.47
758.84	240.24
759.17	240.07
759.49	239.93
759.82	239.77
760.15	239.62
760.47	239.50
760.80	239.30
761.13	239.18
761.45	239.05
761.78	238.93
762.11	238.76
762.43	238.65
762.76	238.51
763.08	238.39
763.41	238.27
763.74	238.13
764.06	237.96
764.39	237.80
764.71	237.63
765.04	237.47
765.37	237.28
765.69	237.16
766.02	237.00
766.34	236.88
766.67	236.75
767.00	236.65
767.32	236.58
767.65	236.51
767.97	236.37
768.30	236.27
768.62	236.17
768.95	236.07
769.27	235.93
769.60	235.85
769.92	235.68
770.25	235.53
770.57	235.45
770.90	235.39
771.22	235.28
771.55	235.19
771.87	235.13
772.20	235.09
772.52	235.09
772.85	235.13
773.17	235.01
773.50	234.90
773.82	234.82
774.15	234.67
774.47	234.54
774.80	234.46
775.12	234.39
775.45	234.32
775.77	234.25
776.09	234.20
776.42	234.09
776.74	234.06
777.07	233.99
777.39	233.90
777.72	233.80
778.04	233.73
778.36	233.68
778.69	233.62
779.01	233.56
779.33	233.45
779.66	233.28
779.98	233.21
780.31	233.18
780.63	233.15
780.95	233.11
781.28	233.06
781.60	233.00
781.92	232.96
782.25	232.89
782.57	232.85
782.89	232.78
783.22	232.71
783.54	232.66
783.86	232.61
784.19	232.58
784.51	232.58
784.83	232.51
785.16	232.46
785.48	232.38
785.80	232.33
786.12	232.26
786.45	232.23
786.77	232.20
787.09	232.13
787.42	232.06
787.74	232.04
788.06	231.98
788.38	231.96
788.71	231.88
789.03	231.81
789.35	231.79
789.67	231.72
789.99	231.70
790.32	231.62
790.64	231.58
790.96	231.58
791.28	231.49
791.61	231.42
791.93	231.37
792.25	231.34
792.57	231.34
792.89	231.28
793.21	231.22
793.54	231.16
793.86	231.10
794.18	231.03
794.50	230.95
794.82	230.88
795.14	230.85
795.47	230.81
795.79	230.78
796.11	230.69
796.43	230.63
796.75	230.59
797.07	230.56
797.39	230.55
797.71	230.47
798.04	230.43
798.36	230.43
798.68	230.39
799.00	230.34
799.32	230.23
799.64	230.22
799.96	230.19
800.28	230.17
800.60	230.13
800.92	230.11
801.24	230.07
801.56	230.05
801.89	229.97
802.21	229.97
802.53	229.91
802.85	229.89
803.17	229.94
803.49	229.90
803.81	229.86
804.13	229.80
804.45	229.75
804.77	229.70
805.09	229.68
805.41	229.66
805.73	229.63
806.05	229.59
806.37	229.55
806.69	229.53
807.01	229.48
807.33	229.49
807.65	229.46
807.97	229.45
808.28	229.41
808.60	229.41
808.92	229.34
809.24	229.40
809.56	229.37
809.88	229.29
810.20	229.26
810.52	229.26
810.84	229.21
811.16	229.19
811.48	229.19
811.80	229.17
812.12	229.15
812.43	229.14
812.75	229.14
813.07	229.10
813.39	229.09
813.71	229.07
814.03	229.04
814.35	229.05
814.67	229.03
814.98	229.02
815.30	229.01
815.62	228.99
815.94	228.90
816.26	228.95
816.58	228.93
816.89	228.92
817.21	228.87
817.53	228.87
817.85	228.87
818.17	228.83
818.48	228.77
818.80	228.77
819.12	228.76
819.44	228.75
819.76	228.76
820.07	228.74
820.39	228.72
820.71	228.70
821.03	228.66
821.34	228.61
821.66	228.60
821.98	228.60
822.30	228.56
822.61	228.59
822.93	228.54
823.25	228.53
823.57	228.53
823.88	228.56
824.20	228.55
824.52	228.54
824.83	228.56
825.15	228.58
825.47	228.55
825.79	228.55
826.10	228.52
826.42	228.45
826.74	228.46
827.05	228.46
827.37	228.44
827.69	228.44
828.00	228.46
828.32	228.49
828.64	228.44
828.95	228.54
829.27	228.49
829.58	228.47
829.90	228.44
830.22	228.46
830.53	228.38
830.85	228.38
831.17	228.34
831.48	228.30
831.80	228.26
832.11	228.24
832.43	228.20
832.75	228.19
833.06	228.27
833.38	228.21
833.69	228.20
834.01	228.18
834.32	228.19
834.64	228.17
834.96	228.10
835.27	228.09
835.59	228.02
835.90	227.97
836.22	227.94
836.53	227.96
836.85	227.90
837.16	228.00
837.48	227.97
837.79	227.99
838.11	227.99
838.42	227.96
838.74	227.97
839.05	227.99
839.37	227.96
839.68	227.89
840.00	227.87
840.31	227.85
840.63	227.87
840.94	227.85
841.26	227.83
841.57	227.84
841.88	227.85
842.20	227.82
842.51	227.80
842.83	227.84
843.14	227.90
843.46	227.89
843.77	227.84
844.08	227.86
844.40	227.81
844.71	227.80
845.03	227.81
845.34	227.79
845.65	227.75
845.97	227.78
846.28	227.76
846.60	227.77
846.91	227.77
847.22	227.74
847.54	227.74
847.85	227.74
848.16	227.73
848.48	227.71
848.79	227.75
849.10	227.76
849.42	227.74
849.73	227.63
850.04	227.65
850.36	227.62
850.67	227.63
850.98	227.65
851.30	227.65
851.61	227.63
851.92	227.64
852.23	227.67
852.55	227.69
852.86	227.70
853.17	227.71
853.49	227.74
853.80	227.76
854.11	227.76
854.42	227.79
854.74	227.77
855.05	227.79
855.36	227.75
855.67	227.78
855.99	227.79
856.30	227.94
856.61	227.95
856.92	227.92
857.23	227.91
857.55	227.90
857.86	227.92
858.17	227.97
858.48	227.99
858.79	227.96
859.11	227.96
859.42	227.98
859.73	227.97
860.04	227.96
860.35	227.94
860.66	227.92
860.98	227.91
861.29	227.93
861.60	227.94
861.91	227.95
862.22	227.94
862.53	227.90
862.84	227.76
863.16	227.75
863.47	227.80
863.78	227.79
864.09	227.80
864.40	227.78
864.71	227.75
865.02	227.70
865.33	227.68
865.64	227.64
865.95	227.62
866.27	227.66
866.58	227.65
866.89	227.65
867.20	227.65
867.51	227.61
867.82	227.59
868.13	227.59
868.44	227.56
868.75	227.54
869.06	227.56
869.37	227.55
869.68	227.50
869.99	227.48
870.30	227.45
870.61	227.44
870.92	227.40
871.23	227.36
871.54	227.41
871.85	227.44
872.16	227.44
872.47	227.42
872.78	227.35
873.09	227.34
873.40	227.30
873.71	227.31
874.02	227.30
874.33	227.29
874.64	227.26
874.95	227.25
875.26	227.22
875.56	227.21
875.87	227.19
876.18	227.20
876.49	227.28
876.80	227.26
877.11	227.24
877.42	227.26
877.73	227.27
878.04	227.21
878.35	227.20
878.66	227.20
878.96	227.20
879.27	227.20
879.58	227.20
879.89	227.19
880.20	227.17
880.51	227.14
880.82	227.13
881.12	227.12
881.43	227.12
881.74	227.14
882.05	227.11
882.36	227.14
882.67	227.15
882.97	227.03
883.28	227.04
883.59	227.04
883.90	227.05
884.21	227.04
884.51	227.04
884.82	227.03
885.13	227.00
885.44	226.98
885.74	226.97
886.05	226.97
886.36	227.01
886.67	227.00
886.98	227.06
887.28	227.05
887.59	227.07
887.90	227.07
888.20	227.08
888.51	227.11
888.82	227.10
889.13	227.11
889.43	227.21
889.74	227.21
890.05	227.23
890.35	227.19
890.66	227.21
890.97	227.24
891.28	227.25
891.58	227.28
891.89	227.31
892.20	227.33
892.50	227.33
892.81	227.32
893.12	227.32
893.42	227.28
893.73	227.31
894.04	227.29
894.34	227.32
894.65	227.30
894.95	227.29
895.26	227.30
895.57	227.32
895.87	227.23
896.18	227.26
896.48	227.27
896.79	227.32
897.10	227.32
897.40	227.36
897.71	227.35
898.01	227.36
898.32	227.38
898.63	227.36
898.93	227.35
899.24	227.37
899.54	227.38
899.85	227.39
900.15	227.40
900.46	227.42
900.76	227.43
901.07	227.44
901.38	227.43
901.68	227.42
901.99	227.40
902.29	227.40
902.60	227.38
902.90	227.35
903.21	227.34
903.51	227.34
903.82	227.32
904.12	227.32
904.43	227.31
904.73	227.30
905.03	227.33
905.34	227.42
905.64	227.37
905.95	227.36
906.25	227.36
906.56	227.35
906.86	227.33
907.17	227.30
907.47	227.28
907.77	227.25
908.08	227.25
908.38	227.27
908.69	227.28
908.99	227.30
909.30	227.31
909.60	227.30
909.90	227.27
910.21	227.23
910.51	227.23
910.81	227.21
911.12	227.18
911.42	227.20
911.73	227.08
912.03	227.10
912.33	227.12
912.64	227.09
912.94	227.10
913.24	227.05
913.55	227.04
913.85	227.03
914.15	227.05
914.46	227.07
914.76	227.05
915.06	227.05
915.37	227.02
915.67	226.99
915.97	227.00
916.27	226.98
916.58	226.98
916.88	226.98
917.18	226.99
917.49	227.05
917.79	227.02
918.09	227.04
918.39	227.08
918.70	227.09
919.00	227.12
919.30	227.15
919.60	227.19
919.91	227.19
920.21	227.21
920.51	227.21
920.81	227.22
921.12	227.21
921.42	227.21
921.72	227.24
922.02	227.31
922.32	227.31
922.63	227.34
922.93	227.41
923.23	227.41
923.53	227.45
923.83	227.39
924.13	227.40
924.44	227.40
924.74	227.39
925.04	227.41
925.34	227.41
925.64	227.38
925.94	227.38
926.24	227.46
926.55	227.49
926.85	227.49
927.15	227.48
927.45	227.50
927.75	227.50
928.05	227.49
928.35	227.44
928.65	227.47
928.95	227.51
929.26	227.50
929.56	227.53
929.86	227.52
930.16	227.53
930.46	227.52
930.76	227.54
931.06	227.54
931.36	227.51
931.66	227.56
931.96	227.58
932.26	227.58
932.56	227.55
932.86	227.53
933.16	227.53
933.46	227.50
933.76	227.49
934.06	227.51
934.36	227.55
934.66	227.58
934.96	227.57
935.26	227.55
935.56	227.54
935.86	227.48
936.16	227.47
936.46	227.46
936.76	227.46
937.06	227.41
937.36	227.41
937.66	227.45
937.96	227.41
938.26	227.38
938.56	227.36
938.86	227.36
939.16	227.35
939.46	227.36
939.76	227.40
940.06	227.38
940.35	227.34
940.65	227.29
940.95	227.30
941.25	227.24
941.55	227.20
941.85	227.18
942.15	227.22
942.45	227.22
942.75	227.23
943.04	227.21
943.34	227.26
943.64	227.24
943.94	227.17
944.24	227.20
944.54	227.20
944.84	227.22
945.13	227.20
945.43	227.19
945.73	227.18
946.03	227.18
946.33	227.20
946.62	227.20
946.92	227.20
947.22	227.16
947.52	227.17
947.82	227.19
948.11	227.16
948.41	227.14
948.71	227.13
949.01	227.13
949.31	227.14
949.60	227.09
949.90	227.11
950.20	227.09
950.50	227.06
950.79	227.04
951.09	227.05
951.39	227.00
951.69	227.00
951.98	226.98
952.28	226.94
952.58	226.89
952.87	226.88
953.17	226.84
953.47	226.87
953.76	226.86
954.06	226.84
954.36	226.80
954.66	226.79
954.95	226.80
955.25	226.78
955.55	226.80
955.84	226.80
956.14	226.79
956.44	226.80
956.73	226.78
957.03	226.80
957.32	226.78
957.62	226.80
957.92	226.83
958.21	226.85
958.51	226.95
958.81	227.00
959.10	226.99
959.40	227.05
959.69	227.05
959.99	227.09
960.29	227.10
960.58	227.14
960.88	227.18
961.17	227.18
961.47	227.22
961.76	227.18
962.06	227.21
962.36	227.20
962.65	227.22
962.95	227.26
963.24	227.26
963.54	227.26
963.83	227.25
964.13	227.25
964.42	227.23
964.72	227.17
965.01	227.17
965.31	227.19
965.60	227.18
965.90	227.24
966.19	227.21
966.49	227.23
966.78	227.20
967.08	227.21
967.37	227.21
967.67	227.20
967.96	227.24
968.26	227.24
968.55	227.27
968.85	227.31
969.14	227.30
969.43	227.33
969.73	227.35
970.02	227.34
970.32	227.31
970.61	227.32
970.91	227.31
971.20	227.34
971.49	227.35
971.79	227.36
972.08	227.32
972.38	227.35
972.67	227.33
972.96	227.37
973.26	227.33
973.55	227.41
973.85	227.42
974.14	227.39
974.43	227.38
974.73	227.41
975.02	227.37
975.31	227.35
975.61	227.33
975.90	227.33
976.19	227.34
976.49	227.33
976.78	227.32
977.07	227.30
977.37	227.28
977.66	227.25
977.95	227.26
978.24	227.22
978.54	227.22
978.83	227.19
979.12	227.16
979.42	227.17
979.71	227.10
980.00	227.07
980.29	227.09
980.59	227.10
980.88	227.07
981.17	227.06
981.46	227.05
981.76	227.04
982.05	227.03
982.34	227.04
982.63	227.07
982.93	227.07
983.22	227.07
983.51	227.07
983.80	227.11
984.09	227.09
984.39	227.11
984.68	227.10
984.97	227.11
985.26	227.09
985.55	227.08
985.85	227.07
986.14	227.09
986.43	227.06
986.72	227.03
987.01	226.99
987.30	226.98
987.59	226.96
987.89	226.95
988.18	226.92
988.47	226.91
988.76	226.90
989.05	226.90
989.34	226.89
989.63	226.89
989.92	226.83
990.22	226.80
990.51	226.77
990.80	226.76
991.09	226.78
991.38	226.79
991.67	226.80
991.96	226.78
992.25	226.77
992.54	226.75
992.83	226.76
993.12	226.73
993.41	226.79
993.70	226.83
993.99	226.86
994.28	226.88
994.58	226.87
994.87	226.87
995.16	226.84
995.45	226.86
995.74	226.84
996.03	226.88
996.32	226.90
996.61	226.95
996.90	226.94
997.19	226.94
997.48	226.97
997.77	226.96
998.06	226.97
998.34	226.98
998.63	227.03
998.92	227.05
999.21	227.08
999.50	227.03
999.79	227.05
1000.08	227.06
1000.37	227.07
1000.66	227.07
1000.95	227.09
1001.24	227.16
1001.53	227.14
1001.82	227.17
1002.11	227.18
1002.40	227.19
1002.68	227.19
1002.97	227.29
1003.26	227.30
1003.55	227.27
1003.84	227.26
1004.13	227.29
1004.42	227.28
1004.71	227.27
1004.99	227.26
1005.28	227.29
1005.57	227.33
1005.86	227.29
1006.15	227.28
1006.44	227.28
1006.72	227.31
1007.01	227.28
1007.30	227.28
1007.59	227.30
1007.88	227.29
1008.17	227.29
1008.45	227.28
1008.74	227.21
1009.03	227.18
1009.32	227.20
1009.60	227.20
1009.89	227.21
1010.18	227.20
1010.47	227.21
1010.76	227.23
1011.04	227.24
1011.33	227.23
1011.62	227.21
1011.91	227.21
1012.19	227.21
1012.48	227.20
1012.77	227.17
1013.05	227.21
1013.34	227.19
1013.63	227.15
1013.92	227.14
1014.20	227.13
1014.49	227.16
1014.78	227.18
1015.06	227.13
1015.35	227.11
1015.64	227.10
1015.92	227.11
1016.21	227.12
1016.50	227.09
1016.78	227.07
1017.07	227.08
1017.36	227.08
1017.64	227.03
1017.93	227.01
1018.22	227.02
1018.50	227.00
1018.79	226.99
1019.08	226.95
1019.36	226.95
1019.65	226.95
1019.93	226.97
1020.22	226.96
1020.51	226.97
1020.79	226.96
1021.08	227.22
1021.36	226.82
1021.65	226.56
1021.94	226.91
1022.22	226.88
1022.51	226.75
1022.79	227.25
1023.08	226.84
1023.36	227.88
1023.65	226.54
>>>>>End Processed Spectral Data<<<<<
