SpectraSuite Data File
++++++++++++++++++++++++++++++++++++
Date: Fri Feb 01 14:56:36 EST 2013
User: group
Dark Spectrum Present: No
Reference Spectrum Present: No
Number of Sampled Component Spectra: 1
Spectrometers: USB2E7196
Integration Time (usec): 35000 (USB2E7196)
Spectra Averaged: 100 (USB2E7196)
Boxcar Smoothing: 10 (USB2E7196)
Correct for Electrical Dark: No (USB2E7196)
Strobe/Lamp Enabled: No (USB2E7196)
Correct for Detector Non-linearity: No (USB2E7196)
Correct for Stray Light: No (USB2E7196)
Number of Pixels in Processed Spectrum: 2048
>>>>>Begin Processed Spectral Data<<<<<
339.09	0.00
339.48	215.01
339.86	216.70
340.24	218.09
340.63	219.82
341.01	222.35
341.39	221.73
341.78	223.49
342.16	224.64
342.54	225.29
342.93	213.57
343.31	224.37
343.69	224.95
344.07	225.40
344.46	225.84
344.84	226.22
345.22	226.47
345.60	226.75
345.99	226.93
346.37	227.08
346.75	227.19
347.13	227.24
347.52	227.28
347.90	227.34
348.28	227.33
348.66	227.37
349.05	227.37
349.43	227.41
349.81	227.45
350.19	227.51
350.57	227.55
350.96	227.64
351.34	227.70
351.72	227.77
352.10	227.89
352.48	227.94
352.87	227.97
353.25	228.01
353.63	228.07
354.01	228.11
354.39	228.20
354.77	228.29
355.15	228.39
355.54	228.46
355.92	228.51
356.30	228.62
356.68	228.75
357.06	228.82
357.44	228.86
357.82	228.93
358.20	228.99
358.58	229.04
358.97	229.11
359.35	229.17
359.73	229.23
360.11	229.25
360.49	229.28
360.87	229.32
361.25	229.36
361.63	229.41
362.01	229.48
362.39	229.47
362.77	229.48
363.15	229.50
363.53	229.50
363.91	229.48
364.29	229.49
364.67	229.41
365.05	229.46
365.43	229.48
365.81	229.49
366.19	229.51
366.57	229.53
366.95	229.50
367.33	229.50
367.71	229.46
368.09	229.46
368.47	229.48
368.85	229.42
369.23	229.43
369.61	229.35
369.99	229.34
370.37	229.31
370.75	229.33
371.13	229.24
371.51	229.21
371.89	229.19
372.27	229.14
372.65	229.08
373.03	229.00
373.41	228.96
373.78	228.89
374.16	228.77
374.54	228.68
374.92	228.61
375.30	228.51
375.68	228.44
376.06	228.41
376.44	228.31
376.82	228.29
377.19	228.20
377.57	228.16
377.95	228.07
378.33	227.99
378.71	227.87
379.09	227.80
379.47	227.70
379.84	227.62
380.22	227.55
380.60	227.48
380.98	227.38
381.36	227.26
381.73	227.18
382.11	227.13
382.49	227.10
382.87	227.04
383.25	226.98
383.62	227.06
384.00	226.96
384.38	226.92
384.76	226.85
385.13	226.83
385.51	226.73
385.89	226.66
386.27	226.59
386.64	226.54
387.02	226.48
387.40	226.43
387.78	226.39
388.15	226.34
388.53	226.29
388.91	226.25
389.29	226.25
389.66	226.24
390.04	226.19
390.42	226.18
390.79	226.17
391.17	226.17
391.55	226.06
391.92	226.06
392.30	226.08
392.68	226.08
393.05	226.09
393.43	226.12
393.81	226.15
394.18	226.19
394.56	226.20
394.94	226.27
395.31	226.34
395.69	226.41
396.06	226.46
396.44	226.53
396.82	226.57
397.19	226.68
397.57	226.73
397.95	226.85
398.32	226.90
398.70	226.95
399.07	227.02
399.45	227.09
399.82	227.17
400.20	227.22
400.58	227.31
400.95	227.37
401.33	227.53
401.70	227.65
402.08	227.74
402.45	227.85
402.83	227.98
403.20	228.10
403.58	228.20
403.95	228.35
404.33	228.48
404.71	228.64
405.08	228.84
405.46	228.99
405.83	229.10
406.21	229.21
406.58	229.40
406.96	229.57
407.33	229.74
407.70	229.97
408.08	230.23
408.45	230.46
408.83	230.72
409.20	230.92
409.58	231.13
409.95	231.42
410.33	231.70
410.70	231.96
411.08	232.26
411.45	232.57
411.82	232.89
412.20	233.25
412.57	233.68
412.95	233.95
413.32	234.35
413.69	234.79
414.07	235.26
414.44	235.71
414.82	236.19
415.19	236.73
415.56	237.25
415.94	237.80
416.31	238.44
416.68	239.04
417.06	239.74
417.43	240.43
417.81	241.19
418.18	242.00
418.55	242.83
418.93	243.69
419.30	244.57
419.67	245.50
420.04	246.45
420.42	247.40
420.79	248.55
421.16	249.73
421.54	250.89
421.91	252.08
422.28	253.33
422.66	254.67
423.03	255.98
423.40	257.31
423.77	258.74
424.15	260.12
424.52	261.60
424.89	263.19
425.26	264.78
425.64	266.20
426.01	267.77
426.38	269.42
426.75	271.09
427.13	272.82
427.50	274.63
427.87	276.51
428.24	278.39
428.61	280.13
428.99	282.07
429.36	284.18
429.73	286.22
430.10	288.24
430.47	290.30
430.85	292.41
431.22	294.65
431.59	296.98
431.96	299.27
432.33	301.81
432.70	304.16
433.08	306.92
433.45	309.58
433.82	312.20
434.19	315.12
434.56	317.97
434.93	320.65
435.30	323.27
435.68	326.15
436.05	328.99
436.42	331.82
436.79	334.35
437.16	337.08
437.53	340.01
437.90	342.86
438.27	345.62
438.64	348.47
439.01	351.11
439.38	353.36
439.75	355.55
440.13	358.04
440.50	360.39
440.87	362.28
441.24	364.20
441.61	366.39
441.98	367.90
442.35	369.68
442.72	371.52
443.09	373.37
443.46	374.39
443.83	374.99
444.20	375.53
444.57	376.39
444.94	376.65
445.31	376.96
445.68	377.32
446.05	377.41
446.42	377.03
446.79	376.60
447.16	376.20
447.53	375.82
447.90	374.64
448.27	373.51
448.64	371.93
449.01	370.84
449.37	368.84
449.74	366.92
450.11	364.69
450.48	362.23
450.85	359.68
451.22	357.53
451.59	355.47
451.96	353.50
452.33	350.90
452.70	348.54
453.07	345.69
453.43	342.75
453.80	339.98
454.17	337.28
454.54	334.75
454.91	332.04
455.28	329.39
455.65	326.94
456.02	324.50
456.38	322.34
456.75	319.66
457.12	317.41
457.49	315.15
457.86	312.91
458.23	311.06
458.59	309.01
458.96	306.91
459.33	305.05
459.70	303.17
460.07	301.65
460.43	299.95
460.80	298.32
461.17	296.88
461.54	295.39
461.91	293.96
462.27	292.44
462.64	291.19
463.01	289.83
463.38	288.49
463.74	287.12
464.11	285.96
464.48	284.92
464.85	283.78
465.21	282.91
465.58	282.04
465.95	280.97
466.32	280.05
466.68	279.13
467.05	278.25
467.42	277.35
467.78	276.38
468.15	275.47
468.52	274.79
468.88	273.92
469.25	273.10
469.62	272.45
469.98	271.76
470.35	271.10
470.72	270.47
471.08	269.78
471.45	269.22
471.82	268.60
472.18	267.99
472.55	267.58
472.92	267.02
473.28	266.51
473.65	265.99
474.02	265.51
474.38	265.12
474.75	264.78
475.11	264.40
475.48	264.12
475.85	263.86
476.21	263.63
476.58	263.41
476.94	263.24
477.31	263.08
477.67	262.94
478.04	262.78
478.41	262.71
478.77	262.77
479.14	262.68
479.50	262.72
479.87	262.78
480.23	262.80
480.60	262.87
480.96	262.97
481.33	263.17
481.69	263.36
482.06	263.52
482.42	263.70
482.79	263.94
483.15	264.28
483.52	264.67
483.88	265.01
484.25	265.43
484.61	265.86
484.98	266.29
485.34	266.85
485.71	267.43
486.07	268.03
486.44	268.58
486.80	269.29
487.17	270.01
487.53	270.82
487.90	271.65
488.26	272.58
488.62	273.53
488.99	274.53
489.35	275.55
489.72	276.68
490.08	277.88
490.44	279.12
490.81	280.41
491.17	281.76
491.54	283.26
491.90	284.73
492.26	286.36
492.63	288.11
492.99	289.87
493.36	291.77
493.72	293.81
494.08	295.87
494.45	298.07
494.81	300.41
495.17	302.81
495.54	305.38
495.90	308.06
496.26	310.86
496.63	313.75
496.99	316.86
497.35	320.15
497.72	323.54
498.08	327.10
498.44	330.75
498.80	334.70
499.17	338.70
499.53	342.88
499.89	347.26
500.26	351.73
500.62	356.41
500.98	361.35
501.34	366.35
501.71	371.70
502.07	377.16
502.43	382.74
502.79	388.56
503.16	394.62
503.52	400.85
503.88	407.25
504.24	413.86
504.60	420.75
504.97	427.79
505.33	435.13
505.69	442.78
506.05	450.57
506.41	458.39
506.78	466.46
507.14	474.91
507.50	483.62
507.86	492.64
508.22	501.79
508.59	510.93
508.95	520.57
509.31	530.34
509.67	540.46
510.03	550.68
510.39	561.24
510.75	571.98
511.12	582.99
511.48	594.30
511.84	605.76
512.20	617.26
512.56	629.28
512.92	641.33
513.28	653.56
513.64	665.98
514.00	678.63
514.37	691.55
514.73	704.60
515.09	717.63
515.45	730.92
515.81	744.47
516.17	758.56
516.53	772.61
516.89	786.77
517.25	800.95
517.61	815.38
517.97	829.90
518.33	844.38
518.69	859.12
519.05	874.09
519.41	889.28
519.77	904.88
520.13	920.33
520.49	935.74
520.85	951.32
521.21	967.15
521.57	983.50
521.93	999.46
522.29	1015.94
522.65	1032.18
523.01	1048.42
523.37	1064.53
523.73	1080.75
524.09	1096.98
524.45	1113.45
524.81	1130.14
525.17	1147.14
525.53	1164.09
525.89	1181.03
526.25	1197.88
526.61	1214.35
526.97	1231.18
527.33	1247.71
527.68	1264.42
528.04	1280.96
528.40	1297.56
528.76	1314.65
529.12	1331.29
529.48	1348.17
529.84	1364.28
530.20	1381.07
530.56	1398.19
530.91	1415.67
531.27	1432.44
531.63	1449.07
531.99	1465.66
532.35	1481.67
532.71	1497.62
533.07	1513.89
533.42	1529.82
533.78	1545.93
534.14	1562.30
534.50	1577.66
534.86	1593.65
535.21	1608.91
535.57	1625.03
535.93	1640.57
536.29	1655.57
536.65	1670.85
537.00	1685.76
537.36	1701.17
537.72	1715.75
538.08	1730.18
538.44	1744.13
538.79	1758.13
539.15	1771.89
539.51	1785.64
539.87	1800.03
540.22	1813.81
540.58	1827.79
540.94	1841.31
541.29	1854.42
541.65	1867.37
542.01	1880.84
542.37	1893.13
542.72	1905.60
543.08	1917.47
543.44	1929.99
543.79	1941.24
544.15	1952.16
544.51	1963.72
544.87	1974.77
545.22	1985.66
545.58	1995.97
545.94	2005.70
546.29	2015.73
546.65	2025.40
547.01	2034.80
547.36	2043.56
547.72	2052.15
548.07	2059.90
548.43	2068.20
548.79	2076.28
549.14	2083.69
549.50	2091.00
549.86	2098.89
550.21	2106.19
550.57	2113.42
550.92	2120.10
551.28	2127.10
551.64	2134.18
551.99	2140.83
552.35	2146.85
552.70	2152.93
553.06	2158.90
553.41	2165.28
553.77	2171.26
554.13	2177.30
554.48	2183.38
554.84	2188.84
555.19	2194.16
555.55	2199.20
555.90	2203.56
556.26	2208.30
556.61	2212.95
556.97	2217.03
557.32	2221.10
557.68	2225.18
558.03	2229.40
558.39	2233.07
558.74	2237.66
559.10	2241.39
559.45	2244.89
559.81	2249.15
560.16	2252.93
560.52	2256.03
560.87	2259.25
561.23	2261.80
561.58	2264.82
561.94	2267.33
562.29	2269.67
562.64	2272.17
563.00	2274.87
563.35	2278.24
563.71	2281.23
564.06	2284.24
564.42	2287.00
564.77	2289.22
565.12	2291.29
565.48	2293.00
565.83	2294.76
566.19	2295.97
566.54	2296.93
566.89	2297.98
567.25	2298.38
567.60	2299.60
567.96	2301.18
568.31	2302.03
568.66	2302.88
569.02	2303.40
569.37	2303.47
569.72	2304.00
570.08	2303.79
570.43	2303.50
570.78	2302.56
571.14	2300.89
571.49	2299.45
571.84	2298.97
572.20	2297.62
572.55	2296.50
572.90	2294.70
573.26	2293.01
573.61	2291.22
573.96	2289.18
574.31	2285.94
574.67	2282.82
575.02	2278.97
575.37	2275.43
575.72	2271.40
576.08	2268.07
576.43	2264.50
576.78	2260.71
577.13	2257.48
577.49	2254.43
577.84	2250.96
578.19	2247.30
578.54	2243.43
578.90	2239.03
579.25	2233.31
579.60	2228.29
579.95	2223.08
580.30	2217.94
580.66	2212.68
581.01	2207.46
581.36	2202.40
581.71	2198.02
582.06	2193.44
582.42	2188.79
582.77	2183.45
583.12	2178.59
583.47	2173.49
583.82	2168.32
584.17	2162.98
584.53	2157.31
584.88	2151.44
585.23	2145.40
585.58	2139.79
585.93	2134.25
586.28	2129.39
586.63	2124.28
586.98	2119.02
587.34	2114.25
587.69	2109.29
588.04	2103.73
588.39	2097.94
588.74	2091.37
589.09	2085.26
589.44	2078.21
589.79	2072.17
590.14	2066.42
590.49	2059.86
590.84	2053.54
591.19	2047.27
591.54	2040.56
591.89	2033.07
592.25	2026.15
592.60	2018.81
592.95	2011.01
593.30	2003.59
593.65	1995.85
594.00	1988.69
594.35	1981.45
594.70	1973.41
595.05	1966.12
595.40	1958.94
595.75	1951.43
596.10	1945.07
596.45	1938.14
596.80	1931.87
597.15	1925.09
597.50	1917.81
597.85	1911.37
598.19	1904.48
598.54	1897.48
598.89	1890.80
599.24	1884.84
599.59	1878.17
599.94	1871.96
600.29	1865.59
600.64	1858.86
600.99	1851.38
601.34	1844.45
601.69	1837.42
602.04	1830.36
602.39	1822.89
602.74	1816.01
603.08	1809.17
603.43	1802.33
603.78	1795.00
604.13	1787.81
604.48	1780.43
604.83	1773.65
605.18	1766.52
605.53	1758.36
605.87	1750.29
606.22	1743.12
606.57	1735.18
606.92	1727.88
607.27	1720.67
607.62	1713.76
607.96	1706.48
608.31	1699.78
608.66	1692.09
609.01	1684.48
609.36	1676.94
609.70	1668.97
610.05	1660.91
610.40	1653.23
610.75	1645.04
611.10	1637.40
611.44	1629.11
611.79	1621.21
612.14	1612.52
612.49	1603.57
612.83	1595.43
613.18	1587.26
613.53	1579.06
613.88	1570.49
614.22	1562.21
614.57	1553.63
614.92	1545.71
615.27	1538.14
615.61	1529.82
615.96	1522.09
616.31	1514.51
616.65	1507.21
617.00	1499.68
617.35	1491.93
617.70	1483.53
618.04	1474.96
618.39	1466.85
618.74	1459.29
619.08	1450.98
619.43	1443.46
619.78	1436.56
620.12	1429.56
620.47	1422.11
620.82	1414.04
621.16	1406.81
621.51	1399.37
621.85	1391.82
622.20	1383.32
622.55	1375.18
622.89	1367.44
623.24	1359.76
623.59	1352.52
623.93	1345.02
624.28	1337.92
624.62	1330.57
624.97	1323.56
625.32	1316.95
625.66	1309.94
626.01	1302.74
626.35	1295.41
626.70	1287.73
627.04	1280.04
627.39	1272.28
627.73	1264.96
628.08	1258.25
628.43	1250.99
628.77	1243.47
629.12	1235.94
629.46	1228.80
629.81	1221.47
630.15	1214.37
630.50	1207.03
630.84	1198.80
631.19	1190.97
631.53	1183.53
631.88	1176.06
632.22	1168.44
632.57	1161.26
632.91	1153.78
633.26	1146.40
633.60	1139.14
633.95	1132.09
634.29	1125.11
634.64	1118.41
634.98	1111.07
635.32	1103.88
635.67	1097.37
636.01	1090.83
636.36	1084.09
636.70	1077.71
637.05	1071.19
637.39	1064.72
637.73	1058.23
638.08	1052.45
638.42	1046.52
638.77	1040.05
639.11	1033.48
639.45	1027.15
639.80	1020.44
640.14	1014.06
640.49	1007.60
640.83	1001.29
641.17	995.10
641.52	988.80
641.86	982.48
642.20	976.65
642.55	970.51
642.89	963.99
643.23	957.53
643.58	951.75
643.92	945.47
644.26	939.36
644.61	933.46
644.95	927.45
645.29	920.84
645.64	914.14
645.98	907.83
646.32	902.09
646.66	896.18
647.01	890.46
647.35	884.80
647.69	879.05
648.04	873.58
648.38	867.74
648.72	861.71
649.06	855.59
649.41	849.73
649.75	843.69
650.09	837.71
650.43	831.95
650.78	825.86
651.12	819.99
651.46	814.30
651.80	808.54
652.14	803.19
652.49	797.83
652.83	792.69
653.17	787.09
653.51	781.27
653.85	775.90
654.20	770.14
654.54	764.14
654.88	758.42
655.22	752.55
655.56	746.99
655.90	741.61
656.25	736.49
656.59	731.26
656.93	726.25
657.27	721.18
657.61	715.77
657.95	710.69
658.29	705.64
658.64	700.42
658.98	695.20
659.32	689.79
659.66	684.65
660.00	679.35
660.34	674.43
660.68	669.66
661.02	664.61
661.36	660.03
661.70	655.58
662.05	651.30
662.39	647.04
662.73	642.54
663.07	638.17
663.41	633.67
663.75	629.17
664.09	624.61
664.43	620.26
664.77	616.24
665.11	612.02
665.45	607.90
665.79	603.88
666.13	599.72
666.47	595.68
666.81	591.52
667.15	587.50
667.49	583.63
667.83	579.84
668.17	575.93
668.51	571.91
668.85	567.92
669.19	564.04
669.53	560.21
669.87	556.45
670.21	552.78
670.55	549.20
670.89	545.85
671.23	542.42
671.57	538.96
671.91	535.43
672.25	531.98
672.58	528.52
672.92	525.15
673.26	522.11
673.60	518.98
673.94	515.87
674.28	512.94
674.62	510.06
674.96	506.99
675.30	504.16
675.64	501.31
675.97	498.61
676.31	495.82
676.65	492.92
676.99	490.17
677.33	487.32
677.67	484.53
678.01	481.46
678.34	478.52
678.68	475.72
679.02	472.89
679.36	470.13
679.70	467.46
680.04	464.67
680.37	461.74
680.71	458.98
681.05	456.44
681.39	453.74
681.73	451.02
682.06	448.45
682.40	445.86
682.74	443.29
683.08	440.69
683.42	438.11
683.75	435.67
684.09	433.17
684.43	430.78
684.77	428.35
685.10	426.01
685.44	423.77
685.78	421.46
686.12	419.29
686.45	417.06
686.79	414.78
687.13	412.62
687.46	410.48
687.80	408.40
688.14	406.23
688.48	404.21
688.81	401.99
689.15	399.88
689.49	397.76
689.82	395.72
690.16	393.64
690.50	391.69
690.83	389.72
691.17	387.71
691.51	385.81
691.84	383.97
692.18	382.06
692.52	380.07
692.85	378.14
693.19	376.19
693.52	374.35
693.86	372.57
694.20	370.82
694.53	369.02
694.87	367.16
695.21	365.35
695.54	363.50
695.88	361.82
696.21	360.07
696.55	358.39
696.88	356.68
697.22	355.10
697.56	353.52
697.89	351.87
698.23	350.35
698.56	348.71
698.90	347.10
699.23	345.47
699.57	343.95
699.90	342.46
700.24	340.95
700.58	339.43
700.91	337.92
701.25	336.49
701.58	335.15
701.92	333.76
702.25	332.40
702.59	331.05
702.92	329.74
703.26	328.48
703.59	327.24
703.93	326.08
704.26	324.84
704.60	323.53
704.93	322.30
705.26	320.99
705.60	319.88
705.93	318.78
706.27	317.79
706.60	316.75
706.94	315.66
707.27	314.55
707.61	313.54
707.94	312.54
708.27	311.43
708.61	310.41
708.94	309.45
709.28	308.49
709.61	307.53
709.94	306.57
710.28	305.57
710.61	304.59
710.95	303.54
711.28	302.68
711.61	301.76
711.95	300.85
712.28	299.96
712.61	298.97
712.95	298.06
713.28	297.20
713.61	296.32
713.95	295.48
714.28	294.67
714.61	293.77
714.95	292.92
715.28	292.14
715.61	291.24
715.95	290.35
716.28	289.57
716.61	288.77
716.95	288.01
717.28	287.28
717.61	286.50
717.94	285.76
718.28	284.94
718.61	284.25
718.94	283.58
719.27	282.93
719.61	282.31
719.94	281.66
720.27	280.90
720.60	280.20
720.94	279.54
721.27	278.95
721.60	278.41
721.93	277.85
722.27	277.26
722.60	276.70
722.93	276.15
723.26	275.55
723.59	274.97
723.93	274.43
724.26	273.87
724.59	273.38
724.92	272.86
725.25	272.34
725.59	271.80
725.92	271.29
726.25	270.77
726.58	270.29
726.91	269.77
727.24	269.35
727.57	268.88
727.91	268.36
728.24	267.88
728.57	267.36
728.90	266.87
729.23	266.34
729.56	265.91
729.89	265.45
730.22	264.96
730.55	264.53
730.89	264.06
731.22	263.59
731.55	263.12
731.88	262.68
732.21	262.24
732.54	261.81
732.87	261.37
733.20	261.00
733.53	260.58
733.86	260.20
734.19	259.81
734.52	259.43
734.85	259.15
735.18	258.73
735.51	258.40
735.84	258.01
736.17	257.74
736.50	257.31
736.83	257.04
737.16	256.72
737.49	256.39
737.82	256.03
738.15	255.70
738.48	255.36
738.81	255.00
739.14	254.67
739.47	254.35
739.80	254.04
740.13	253.71
740.46	253.37
740.79	253.02
741.12	252.67
741.45	252.35
741.78	251.94
742.11	251.65
742.44	251.29
742.77	251.04
743.10	250.71
743.43	250.42
743.75	250.06
744.08	249.91
744.41	249.61
744.74	249.35
745.07	249.08
745.40	248.84
745.73	248.66
746.06	248.40
746.39	248.14
746.71	247.87
747.04	247.64
747.37	247.40
747.70	247.17
748.03	246.91
748.36	246.70
748.68	246.51
749.01	246.27
749.34	246.07
749.67	245.84
750.00	245.62
750.33	245.51
750.65	245.34
750.98	244.99
751.31	244.79
751.64	244.58
751.97	244.43
752.29	244.23
752.62	243.97
752.95	243.76
753.28	243.54
753.60	243.34
753.93	243.19
754.26	242.95
754.59	242.76
754.91	242.60
755.24	242.40
755.57	242.22
755.90	242.05
756.22	241.86
756.55	241.69
756.88	241.48
757.20	241.26
757.53	241.06
757.86	240.93
758.19	240.76
758.51	240.63
758.84	240.44
759.17	240.28
759.49	240.17
759.82	240.04
760.15	239.92
760.47	239.78
760.80	239.55
761.13	239.46
761.45	239.31
761.78	239.15
762.11	239.01
762.43	238.86
762.76	238.75
763.08	238.63
763.41	238.49
763.74	238.39
764.06	238.26
764.39	238.15
764.71	238.00
765.04	237.87
765.37	237.73
765.69	237.60
766.02	237.46
766.34	237.32
766.67	237.20
767.00	237.12
767.32	237.06
767.65	237.02
767.97	236.90
768.30	236.77
768.62	236.67
768.95	236.55
769.27	236.43
769.60	236.33
769.92	236.21
770.25	236.07
770.57	235.95
770.90	235.83
771.22	235.70
771.55	235.61
771.87	235.51
772.20	235.39
772.52	235.37
772.85	235.37
773.17	235.25
773.50	235.13
773.82	235.01
774.15	234.84
774.47	234.70
774.80	234.58
775.12	234.45
775.45	234.32
775.77	234.25
776.09	234.16
776.42	234.06
776.74	233.98
777.07	233.90
777.39	233.79
777.72	233.69
778.04	233.60
778.36	233.53
778.69	233.46
779.01	233.38
779.33	233.23
779.66	233.07
779.98	233.01
780.31	232.94
780.63	232.88
780.95	232.85
781.28	232.76
781.60	232.72
781.92	232.69
782.25	232.64
782.57	232.56
782.89	232.51
783.22	232.42
783.54	232.36
783.86	232.33
784.19	232.27
784.51	232.21
784.83	232.16
785.16	232.07
785.48	232.01
785.80	231.99
786.12	231.97
786.45	231.91
786.77	231.85
787.09	231.82
787.42	231.77
787.74	231.72
788.06	231.68
788.38	231.63
788.71	231.61
789.03	231.59
789.35	231.60
789.67	231.53
789.99	231.53
790.32	231.49
790.64	231.46
790.96	231.54
791.28	231.52
791.61	231.52
791.93	231.52
792.25	231.50
792.57	231.53
792.89	231.48
793.21	231.42
793.54	231.40
793.86	231.36
794.18	231.34
794.50	231.28
794.82	231.26
795.14	231.24
795.47	231.19
795.79	231.17
796.11	231.09
796.43	231.08
796.75	231.05
797.07	231.04
797.39	231.03
797.71	230.90
798.04	230.89
798.36	230.81
798.68	230.76
799.00	230.73
799.32	230.65
799.64	230.61
799.96	230.59
800.28	230.59
800.60	230.57
800.92	230.56
801.24	230.54
801.56	230.52
801.89	230.48
802.21	230.47
802.53	230.44
802.85	230.42
803.17	230.43
803.49	230.37
803.81	230.33
804.13	230.27
804.45	230.24
804.77	230.20
805.09	230.20
805.41	230.19
805.73	230.15
806.05	230.10
806.37	230.11
806.69	230.08
807.01	230.00
807.33	229.97
807.65	229.92
807.97	229.90
808.28	229.84
808.60	229.80
808.92	229.74
809.24	229.74
809.56	229.69
809.88	229.62
810.20	229.60
810.52	229.57
810.84	229.51
811.16	229.46
811.48	229.42
811.80	229.42
812.12	229.39
812.43	229.38
812.75	229.33
813.07	229.23
813.39	229.19
813.71	229.17
814.03	229.11
814.35	229.07
814.67	229.05
814.98	229.07
815.30	229.05
815.62	229.01
815.94	228.93
816.26	228.98
816.58	228.94
816.89	228.92
817.21	228.87
817.53	228.86
817.85	228.84
818.17	228.79
818.48	228.74
818.80	228.74
819.12	228.71
819.44	228.68
819.76	228.68
820.07	228.71
820.39	228.68
820.71	228.68
821.03	228.65
821.34	228.59
821.66	228.57
821.98	228.58
822.30	228.57
822.61	228.64
822.93	228.56
823.25	228.56
823.57	228.53
823.88	228.56
824.20	228.53
824.52	228.55
824.83	228.53
825.15	228.49
825.47	228.45
825.79	228.47
826.10	228.48
826.42	228.46
826.74	228.44
827.05	228.44
827.37	228.41
827.69	228.40
828.00	228.45
828.32	228.45
828.64	228.43
828.95	228.47
829.27	228.43
829.58	228.45
829.90	228.45
830.22	228.48
830.53	228.44
830.85	228.47
831.17	228.47
831.48	228.48
831.80	228.48
832.11	228.51
832.43	228.47
832.75	228.47
833.06	228.52
833.38	228.49
833.69	228.47
834.01	228.51
834.32	228.52
834.64	228.51
834.96	228.49
835.27	228.49
835.59	228.48
835.90	228.45
836.22	228.43
836.53	228.43
836.85	228.41
837.16	228.49
837.48	228.45
837.79	228.47
838.11	228.49
838.42	228.48
838.74	228.48
839.05	228.47
839.37	228.46
839.68	228.40
840.00	228.40
840.31	228.39
840.63	228.40
840.94	228.37
841.26	228.31
841.57	228.31
841.88	228.29
842.20	228.26
842.51	228.22
842.83	228.24
843.14	228.31
843.46	228.29
843.77	228.25
844.08	228.25
844.40	228.18
844.71	228.15
845.03	228.10
845.34	228.07
845.65	228.05
845.97	228.04
846.28	228.03
846.60	228.02
846.91	228.02
847.22	227.96
847.54	227.96
847.85	227.94
848.16	227.93
848.48	227.90
848.79	227.90
849.10	227.92
849.42	227.88
849.73	227.77
850.04	227.75
850.36	227.72
850.67	227.72
850.98	227.74
851.30	227.75
851.61	227.75
851.92	227.76
852.23	227.80
852.55	227.83
852.86	227.85
853.17	227.88
853.49	227.87
853.80	227.89
854.11	227.90
854.42	227.93
854.74	227.91
855.05	227.94
855.36	227.89
855.67	227.86
855.99	227.88
856.30	227.99
856.61	227.99
856.92	227.96
857.23	227.97
857.55	227.93
857.86	227.93
858.17	227.96
858.48	227.93
858.79	227.87
859.11	227.84
859.42	227.82
859.73	227.80
860.04	227.81
860.35	227.79
860.66	227.75
860.98	227.77
861.29	227.78
861.60	227.79
861.91	227.83
862.22	227.81
862.53	227.82
862.84	227.70
863.16	227.77
863.47	227.77
863.78	227.77
864.09	227.83
864.40	227.82
864.71	227.82
865.02	227.86
865.33	227.89
865.64	227.88
865.95	227.89
866.27	227.96
866.58	227.94
866.89	227.96
867.20	227.97
867.51	227.95
867.82	227.96
868.13	227.99
868.44	227.95
868.75	227.98
869.06	227.96
869.37	228.00
869.68	227.91
869.99	227.92
870.30	227.93
870.61	227.91
870.92	227.93
871.23	227.90
871.54	227.89
871.85	227.91
872.16	227.93
872.47	227.92
872.78	227.86
873.09	227.88
873.40	227.87
873.71	227.85
874.02	227.85
874.33	227.82
874.64	227.79
874.95	227.82
875.26	227.79
875.56	227.79
875.87	227.78
876.18	227.79
876.49	227.89
876.80	227.89
877.11	227.89
877.42	227.88
877.73	227.86
878.04	227.87
878.35	227.85
878.66	227.84
878.96	227.82
879.27	227.81
879.58	227.80
879.89	227.80
880.20	227.84
880.51	227.82
880.82	227.82
881.12	227.79
881.43	227.78
881.74	227.78
882.05	227.79
882.36	227.76
882.67	227.76
882.97	227.65
883.28	227.63
883.59	227.58
883.90	227.56
884.21	227.58
884.51	227.52
884.82	227.51
885.13	227.49
885.44	227.47
885.74	227.45
886.05	227.41
886.36	227.38
886.67	227.33
886.98	227.37
887.28	227.39
887.59	227.40
887.90	227.40
888.20	227.38
888.51	227.39
888.82	227.36
889.13	227.38
889.43	227.45
889.74	227.44
890.05	227.45
890.35	227.44
890.66	227.44
890.97	227.42
891.28	227.41
891.58	227.43
891.89	227.46
892.20	227.43
892.50	227.41
892.81	227.44
893.12	227.44
893.42	227.37
893.73	227.34
894.04	227.33
894.34	227.34
894.65	227.32
894.95	227.31
895.26	227.31
895.57	227.33
895.87	227.24
896.18	227.27
896.48	227.27
896.79	227.29
897.10	227.26
897.40	227.28
897.71	227.27
898.01	227.24
898.32	227.24
898.63	227.24
898.93	227.25
899.24	227.27
899.54	227.27
899.85	227.30
900.15	227.30
900.46	227.28
900.76	227.26
901.07	227.28
901.38	227.25
901.68	227.28
901.99	227.23
902.29	227.25
902.60	227.21
902.90	227.23
903.21	227.24
903.51	227.25
903.82	227.25
904.12	227.27
904.43	227.28
904.73	227.30
905.03	227.35
905.34	227.46
905.64	227.46
905.95	227.48
906.25	227.47
906.56	227.49
906.86	227.50
907.17	227.52
907.47	227.53
907.77	227.56
908.08	227.57
908.38	227.61
908.69	227.61
908.99	227.65
909.30	227.66
909.60	227.65
909.90	227.68
910.21	227.69
910.51	227.66
910.81	227.70
911.12	227.68
911.42	227.66
911.73	227.56
912.03	227.59
912.33	227.58
912.64	227.59
912.94	227.55
913.24	227.57
913.55	227.54
913.85	227.55
914.15	227.57
914.46	227.56
914.76	227.53
915.06	227.52
915.37	227.49
915.67	227.47
915.97	227.46
916.27	227.42
916.58	227.40
916.88	227.40
917.18	227.37
917.49	227.43
917.79	227.43
918.09	227.45
918.39	227.45
918.70	227.46
919.00	227.43
919.30	227.51
919.60	227.48
919.91	227.47
920.21	227.48
920.51	227.43
920.81	227.45
921.12	227.42
921.42	227.42
921.72	227.44
922.02	227.44
922.32	227.44
922.63	227.48
922.93	227.54
923.23	227.52
923.53	227.51
923.83	227.43
924.13	227.44
924.44	227.44
924.74	227.41
925.04	227.41
925.34	227.42
925.64	227.33
925.94	227.33
926.24	227.38
926.55	227.33
926.85	227.35
927.15	227.32
927.45	227.35
927.75	227.34
928.05	227.31
928.35	227.27
928.65	227.31
928.95	227.25
929.26	227.21
929.56	227.27
929.86	227.26
930.16	227.24
930.46	227.21
930.76	227.19
931.06	227.16
931.36	227.13
931.66	227.14
931.96	227.17
932.26	227.20
932.56	227.14
932.86	227.16
933.16	227.14
933.46	227.13
933.76	227.10
934.06	227.13
934.36	227.15
934.66	227.15
934.96	227.11
935.26	227.15
935.56	227.14
935.86	227.07
936.16	227.06
936.46	227.04
936.76	227.06
937.06	227.04
937.36	227.05
937.66	227.07
937.96	227.08
938.26	227.04
938.56	227.01
938.86	227.08
939.16	227.11
939.46	227.14
939.76	227.15
940.06	227.18
940.35	227.16
940.65	227.14
940.95	227.21
941.25	227.22
941.55	227.22
941.85	227.24
942.15	227.29
942.45	227.35
942.75	227.37
943.04	227.36
943.34	227.40
943.64	227.39
943.94	227.40
944.24	227.39
944.54	227.40
944.84	227.42
945.13	227.38
945.43	227.38
945.73	227.38
946.03	227.39
946.33	227.35
946.62	227.35
946.92	227.35
947.22	227.34
947.52	227.34
947.82	227.34
948.11	227.33
948.41	227.32
948.71	227.31
949.01	227.33
949.31	227.38
949.60	227.35
949.90	227.40
950.20	227.38
950.50	227.40
950.79	227.42
951.09	227.44
951.39	227.44
951.69	227.43
951.98	227.43
952.28	227.45
952.58	227.47
952.87	227.46
953.17	227.49
953.47	227.46
953.76	227.44
954.06	227.42
954.36	227.41
954.66	227.38
954.95	227.38
955.25	227.37
955.55	227.32
955.84	227.28
956.14	227.29
956.44	227.30
956.73	227.28
957.03	227.28
957.32	227.23
957.62	227.23
957.92	227.24
958.21	227.23
958.51	227.32
958.81	227.34
959.10	227.35
959.40	227.33
959.69	227.31
959.99	227.34
960.29	227.36
960.58	227.34
960.88	227.36
961.17	227.35
961.47	227.34
961.76	227.31
962.06	227.35
962.36	227.31
962.65	227.28
962.95	227.29
963.24	227.25
963.54	227.29
963.83	227.26
964.13	227.23
964.42	227.21
964.72	227.11
965.01	227.05
965.31	227.02
965.60	227.01
965.90	227.07
966.19	227.02
966.49	226.99
966.78	226.96
967.08	226.97
967.37	226.95
967.67	226.93
967.96	226.94
968.26	226.95
968.55	226.94
968.85	226.95
969.14	226.92
969.43	226.91
969.73	226.91
970.02	226.94
970.32	226.92
970.61	226.90
970.91	226.89
971.20	226.91
971.49	226.91
971.79	226.89
972.08	226.82
972.38	226.83
972.67	226.86
972.96	226.86
973.26	226.82
973.55	226.87
973.85	226.90
974.14	226.92
974.43	226.92
974.73	226.93
975.02	226.95
975.31	226.98
975.61	226.98
975.90	226.98
976.19	226.97
976.49	226.99
976.78	227.02
977.07	227.03
977.37	227.05
977.66	227.08
977.95	227.13
978.24	227.16
978.54	227.19
978.83	227.19
979.12	227.23
979.42	227.26
979.71	227.25
980.00	227.26
980.29	227.28
980.59	227.26
980.88	227.27
981.17	227.24
981.46	227.25
981.76	227.29
982.05	227.31
982.34	227.33
982.63	227.35
982.93	227.38
983.22	227.38
983.51	227.39
983.80	227.44
984.09	227.42
984.39	227.40
984.68	227.40
984.97	227.40
985.26	227.37
985.55	227.36
985.85	227.35
986.14	227.34
986.43	227.36
986.72	227.38
987.01	227.38
987.30	227.40
987.59	227.40
987.89	227.38
988.18	227.36
988.47	227.35
988.76	227.33
989.05	227.29
989.34	227.30
989.63	227.31
989.92	227.27
990.22	227.25
990.51	227.26
990.80	227.26
991.09	227.26
991.38	227.28
991.67	227.26
991.96	227.25
992.25	227.26
992.54	227.21
992.83	227.20
993.12	227.18
993.41	227.18
993.70	227.17
993.99	227.17
994.28	227.17
994.58	227.19
994.87	227.21
995.16	227.19
995.45	227.18
995.74	227.12
996.03	227.09
996.32	227.11
996.61	227.14
996.90	227.11
997.19	227.10
997.48	227.08
997.77	227.08
998.06	227.07
998.34	227.06
998.63	227.03
998.92	227.01
999.21	226.98
999.50	226.96
999.79	226.93
1000.08	226.91
1000.37	226.90
1000.66	226.82
1000.95	226.81
1001.24	226.83
1001.53	226.84
1001.82	226.82
1002.11	226.81
1002.40	226.77
1002.68	226.78
1002.97	226.84
1003.26	226.80
1003.55	226.81
1003.84	226.78
1004.13	226.77
1004.42	226.74
1004.71	226.75
1004.99	226.76
1005.28	226.82
1005.57	226.83
1005.86	226.80
1006.15	226.81
1006.44	226.81
1006.72	226.85
1007.01	226.82
1007.30	226.83
1007.59	226.81
1007.88	226.82
1008.17	226.84
1008.45	226.86
1008.74	226.81
1009.03	226.75
1009.32	226.76
1009.60	226.76
1009.89	226.80
1010.18	226.79
1010.47	226.81
1010.76	226.85
1011.04	226.85
1011.33	226.84
1011.62	226.84
1011.91	226.91
1012.19	226.91
1012.48	226.90
1012.77	226.89
1013.05	226.97
1013.34	226.98
1013.63	226.98
1013.92	227.01
1014.20	227.00
1014.49	227.00
1014.78	227.03
1015.06	227.03
1015.35	227.09
1015.64	227.11
1015.92	227.10
1016.21	227.12
1016.50	227.18
1016.78	227.19
1017.07	227.22
1017.36	227.20
1017.64	227.22
1017.93	227.20
1018.22	227.22
1018.50	227.27
1018.79	227.28
1019.08	227.23
1019.36	227.25
1019.65	227.27
1019.93	227.28
1020.22	227.29
1020.51	227.37
1020.79	227.39
1021.08	227.18
1021.36	227.51
1021.65	226.96
1021.94	227.29
1022.22	227.41
1022.51	227.21
1022.79	227.57
1023.08	226.94
1023.36	228.84
1023.65	227.65
>>>>>End Processed Spectral Data<<<<<
