SpectraSuite Data File
++++++++++++++++++++++++++++++++++++
Date: Fri Feb 01 15:14:07 EST 2013
User: group
Dark Spectrum Present: No
Reference Spectrum Present: No
Number of Sampled Component Spectra: 1
Spectrometers: USB2E7196
Integration Time (usec): 35000 (USB2E7196)
Spectra Averaged: 100 (USB2E7196)
Boxcar Smoothing: 10 (USB2E7196)
Correct for Electrical Dark: No (USB2E7196)
Strobe/Lamp Enabled: No (USB2E7196)
Correct for Detector Non-linearity: No (USB2E7196)
Correct for Stray Light: No (USB2E7196)
Number of Pixels in Processed Spectrum: 2048
>>>>>Begin Processed Spectral Data<<<<<
339.09	0.00
339.48	215.22
339.86	216.58
340.24	217.65
340.63	219.50
341.01	222.23
341.39	222.10
341.78	223.40
342.16	224.53
342.54	225.17
342.93	213.48
343.31	224.27
343.69	224.79
344.07	225.28
344.46	225.72
344.84	226.11
345.22	226.34
345.60	226.58
345.99	226.76
346.37	226.89
346.75	226.96
347.13	227.00
347.52	227.04
347.90	227.08
348.28	227.12
348.66	227.16
349.05	227.13
349.43	227.18
349.81	227.25
350.19	227.28
350.57	227.32
350.96	227.41
351.34	227.48
351.72	227.57
352.10	227.65
352.48	227.72
352.87	227.76
353.25	227.79
353.63	227.84
354.01	227.88
354.39	227.93
354.77	228.05
355.15	228.17
355.54	228.22
355.92	228.26
356.30	228.34
356.68	228.45
357.06	228.53
357.44	228.52
357.82	228.55
358.20	228.64
358.58	228.66
358.97	228.73
359.35	228.82
359.73	228.87
360.11	228.95
360.49	228.99
360.87	229.05
361.25	229.14
361.63	229.21
362.01	229.26
362.39	229.30
362.77	229.34
363.15	229.35
363.53	229.35
363.91	229.39
364.29	229.43
364.67	229.36
365.05	229.30
365.43	229.33
365.81	229.32
366.19	229.37
366.57	229.44
366.95	229.42
367.33	229.40
367.71	229.42
368.09	229.37
368.47	229.34
368.85	229.29
369.23	229.25
369.61	229.17
369.99	229.22
370.37	229.22
370.75	229.20
371.13	229.15
371.51	229.12
371.89	229.08
372.27	229.01
372.65	228.96
373.03	228.96
373.41	228.90
373.78	228.88
374.16	228.74
374.54	228.62
374.92	228.54
375.30	228.46
375.68	228.36
376.06	228.31
376.44	228.23
376.82	228.19
377.19	228.10
377.57	228.07
377.95	227.92
378.33	227.80
378.71	227.69
379.09	227.61
379.47	227.55
379.84	227.46
380.22	227.40
380.60	227.32
380.98	227.25
381.36	227.16
381.73	227.09
382.11	227.05
382.49	227.00
382.87	226.95
383.25	226.89
383.62	226.95
384.00	226.84
384.38	226.80
384.76	226.75
385.13	226.74
385.51	226.69
385.89	226.67
386.27	226.62
386.64	226.54
387.02	226.51
387.40	226.43
387.78	226.40
388.15	226.33
388.53	226.28
388.91	226.24
389.29	226.26
389.66	226.26
390.04	226.21
390.42	226.21
390.79	226.21
391.17	226.21
391.55	226.06
391.92	226.09
392.30	226.09
392.68	226.08
393.05	226.09
393.43	226.11
393.81	226.13
394.18	226.15
394.56	226.22
394.94	226.27
395.31	226.32
395.69	226.38
396.06	226.43
396.44	226.53
396.82	226.59
397.19	226.67
397.57	226.68
397.95	226.75
398.32	226.78
398.70	226.82
399.07	226.89
399.45	227.00
399.82	227.04
400.20	227.11
400.58	227.20
400.95	227.26
401.33	227.35
401.70	227.48
402.08	227.60
402.45	227.69
402.83	227.81
403.20	227.93
403.58	228.06
403.95	228.20
404.33	228.31
404.71	228.43
405.08	228.65
405.46	228.84
405.83	228.98
406.21	229.16
406.58	229.34
406.96	229.50
407.33	229.69
407.70	229.88
408.08	230.17
408.45	230.38
408.83	230.62
409.20	230.85
409.58	231.06
409.95	231.31
410.33	231.55
410.70	231.81
411.08	232.08
411.45	232.39
411.82	232.68
412.20	233.05
412.57	233.49
412.95	233.74
413.32	234.14
413.69	234.60
414.07	235.04
414.44	235.54
414.82	236.03
415.19	236.58
415.56	237.18
415.94	237.71
416.31	238.33
416.68	238.94
417.06	239.67
417.43	240.36
417.81	241.12
418.18	241.96
418.55	242.79
418.93	243.69
419.30	244.57
419.67	245.53
420.04	246.50
420.42	247.47
420.79	248.66
421.16	249.79
421.54	250.98
421.91	252.21
422.28	253.46
422.66	254.77
423.03	256.08
423.40	257.42
423.77	258.86
424.15	260.31
424.52	261.81
424.89	263.36
425.26	264.89
425.64	266.32
426.01	267.87
426.38	269.54
426.75	271.21
427.13	272.94
427.50	274.73
427.87	276.58
428.24	278.44
428.61	280.15
428.99	282.10
429.36	284.18
429.73	286.22
430.10	288.24
430.47	290.32
430.85	292.41
431.22	294.63
431.59	296.99
431.96	299.23
432.33	301.70
432.70	304.11
433.08	306.99
433.45	309.66
433.82	312.32
434.19	315.22
434.56	318.07
434.93	320.71
435.30	323.37
435.68	326.30
436.05	329.16
436.42	332.02
436.79	334.55
437.16	337.26
437.53	340.12
437.90	342.90
438.27	345.69
438.64	348.54
439.01	351.12
439.38	353.32
439.75	355.53
440.13	358.03
440.50	360.37
440.87	362.17
441.24	364.13
441.61	366.31
441.98	367.77
442.35	369.54
442.72	371.40
443.09	373.23
443.46	374.19
443.83	374.75
444.20	375.19
444.57	376.01
444.94	376.29
445.31	376.58
445.68	376.96
446.05	377.00
446.42	376.65
446.79	376.25
447.16	375.82
447.53	375.47
447.90	374.31
448.27	373.15
448.64	371.59
449.01	370.45
449.37	368.45
449.74	366.53
450.11	364.31
450.48	361.84
450.85	359.24
451.22	357.11
451.59	355.11
451.96	353.15
452.33	350.50
452.70	348.14
453.07	345.30
453.43	342.39
453.80	339.60
454.17	336.88
454.54	334.31
454.91	331.60
455.28	328.94
455.65	326.44
456.02	323.99
456.38	321.84
456.75	319.16
457.12	316.89
457.49	314.65
457.86	312.50
458.23	310.63
458.59	308.62
458.96	306.51
459.33	304.65
459.70	302.85
460.07	301.38
460.43	299.67
460.80	298.06
461.17	296.62
461.54	295.14
461.91	293.70
462.27	292.23
462.64	290.96
463.01	289.59
463.38	288.31
463.74	286.93
464.11	285.73
464.48	284.69
464.85	283.58
465.21	282.75
465.58	281.80
465.95	280.70
466.32	279.77
466.68	278.87
467.05	277.96
467.42	277.01
467.78	276.08
468.15	275.19
468.52	274.52
468.88	273.67
469.25	272.87
469.62	272.24
469.98	271.58
470.35	270.96
470.72	270.35
471.08	269.69
471.45	269.13
471.82	268.59
472.18	268.00
472.55	267.56
472.92	266.99
473.28	266.49
473.65	266.02
474.02	265.56
474.38	265.18
474.75	264.84
475.11	264.53
475.48	264.26
475.85	264.01
476.21	263.79
476.58	263.59
476.94	263.44
477.31	263.27
477.67	263.13
478.04	263.03
478.41	263.00
478.77	263.03
479.14	262.97
479.50	262.95
479.87	263.02
480.23	263.10
480.60	263.14
480.96	263.23
481.33	263.45
481.69	263.64
482.06	263.83
482.42	264.05
482.79	264.29
483.15	264.58
483.52	264.99
483.88	265.34
484.25	265.73
484.61	266.14
484.98	266.57
485.34	267.14
485.71	267.70
486.07	268.28
486.44	268.82
486.80	269.51
487.17	270.28
487.53	271.07
487.90	271.91
488.26	272.90
488.62	273.88
488.99	274.89
489.35	275.93
489.72	277.10
490.08	278.29
490.44	279.51
490.81	280.85
491.17	282.17
491.54	283.61
491.90	285.17
492.26	286.85
492.63	288.56
492.99	290.33
493.36	292.22
493.72	294.25
494.08	296.34
494.45	298.61
494.81	300.96
495.17	303.42
495.54	306.00
495.90	308.68
496.26	311.49
496.63	314.41
496.99	317.52
497.35	320.70
497.72	324.12
498.08	327.60
498.44	331.28
498.80	335.18
499.17	339.19
499.53	343.30
499.89	347.63
500.26	352.16
500.62	356.85
500.98	361.83
501.34	366.91
501.71	372.23
502.07	377.62
502.43	383.24
502.79	389.05
503.16	395.13
503.52	401.34
503.88	407.75
504.24	414.39
504.60	421.28
504.97	428.49
505.33	435.83
505.69	443.53
506.05	451.27
506.41	459.18
506.78	467.31
507.14	475.75
507.50	484.54
507.86	493.51
508.22	502.64
508.59	511.84
508.95	521.46
509.31	531.31
509.67	541.44
510.03	551.67
510.39	562.23
510.75	573.00
511.12	583.99
511.48	595.27
511.84	606.72
512.20	618.24
512.56	630.10
512.92	642.21
513.28	654.55
513.64	667.14
514.00	679.75
514.37	692.66
514.73	705.77
515.09	718.72
515.45	732.07
515.81	745.66
516.17	759.72
516.53	773.75
516.89	787.88
517.25	802.10
517.61	816.53
517.97	830.95
518.33	845.32
518.69	860.13
519.05	875.18
519.41	890.47
519.77	905.97
520.13	921.46
520.49	936.98
520.85	952.40
521.21	968.03
521.57	984.35
521.93	1000.32
522.29	1016.70
522.65	1033.03
523.01	1049.35
523.37	1065.47
523.73	1081.63
524.09	1097.78
524.45	1114.21
524.81	1130.85
525.17	1147.71
525.53	1164.73
525.89	1181.81
526.25	1198.65
526.61	1214.95
526.97	1231.68
527.33	1248.27
527.68	1265.00
528.04	1281.56
528.40	1298.29
528.76	1315.43
529.12	1332.11
529.48	1349.05
529.84	1365.23
530.20	1381.96
530.56	1399.10
530.91	1416.60
531.27	1433.46
531.63	1450.07
531.99	1466.67
532.35	1482.84
532.71	1498.81
533.07	1515.12
533.42	1531.09
533.78	1547.25
534.14	1563.68
534.50	1579.02
534.86	1595.00
535.21	1610.21
535.57	1626.20
535.93	1641.74
536.29	1656.66
536.65	1671.87
537.00	1686.64
537.36	1702.00
537.72	1716.61
538.08	1731.03
538.44	1744.87
538.79	1758.76
539.15	1772.59
539.51	1786.49
539.87	1800.79
540.22	1814.70
540.58	1828.52
540.94	1841.90
541.29	1854.98
541.65	1867.80
542.01	1881.07
542.37	1893.50
542.72	1906.10
543.08	1917.91
543.44	1930.46
543.79	1941.68
544.15	1952.73
544.51	1964.33
544.87	1975.38
545.22	1986.17
545.58	1996.27
545.94	2006.17
546.29	2016.20
546.65	2025.97
547.01	2035.30
547.36	2044.15
547.72	2052.60
548.07	2060.45
548.43	2068.67
548.79	2076.59
549.14	2084.14
549.50	2091.59
549.86	2099.21
550.21	2106.48
550.57	2113.71
550.92	2120.16
551.28	2127.23
551.64	2134.21
551.99	2140.77
552.35	2146.85
552.70	2152.94
553.06	2158.97
553.41	2165.19
553.77	2171.09
554.13	2177.18
554.48	2183.15
554.84	2188.48
555.19	2193.86
555.55	2199.07
555.90	2203.40
556.26	2208.21
556.61	2212.90
556.97	2217.03
557.32	2221.18
557.68	2225.23
558.03	2229.44
558.39	2233.21
558.74	2237.73
559.10	2241.52
559.45	2245.16
559.81	2249.62
560.16	2253.54
560.52	2256.85
560.87	2260.26
561.23	2262.93
561.58	2265.80
561.94	2268.33
562.29	2270.74
562.64	2273.34
563.00	2275.98
563.35	2279.70
563.71	2282.82
564.06	2285.92
564.42	2288.82
564.77	2291.20
565.12	2293.38
565.48	2295.16
565.83	2296.94
566.19	2298.21
566.54	2299.16
566.89	2300.22
567.25	2300.49
567.60	2301.66
567.96	2303.31
568.31	2304.25
568.66	2305.13
569.02	2305.64
569.37	2305.84
569.72	2306.52
570.08	2306.51
570.43	2306.36
570.78	2305.40
571.14	2303.76
571.49	2302.35
571.84	2302.00
572.20	2300.70
572.55	2299.61
572.90	2298.10
573.26	2296.64
573.61	2294.94
573.96	2293.04
574.31	2290.04
574.67	2287.05
575.02	2283.39
575.37	2279.75
575.72	2275.66
576.08	2272.29
576.43	2268.95
576.78	2265.18
577.13	2261.97
577.49	2258.89
577.84	2255.38
578.19	2251.71
578.54	2247.99
578.90	2243.67
579.25	2238.05
579.60	2233.09
579.95	2228.02
580.30	2222.85
580.66	2217.56
581.01	2212.57
581.36	2207.62
581.71	2203.22
582.06	2198.72
582.42	2194.05
582.77	2188.87
583.12	2184.26
583.47	2179.50
583.82	2174.30
584.17	2169.05
584.53	2163.58
584.88	2157.86
585.23	2151.89
585.58	2146.27
585.93	2140.75
586.28	2135.94
586.63	2130.66
586.98	2125.54
587.34	2120.80
587.69	2115.85
588.04	2110.51
588.39	2104.69
588.74	2098.24
589.09	2092.13
589.44	2085.25
589.79	2079.25
590.14	2073.48
590.49	2066.91
590.84	2060.54
591.19	2054.43
591.54	2047.91
591.89	2040.24
592.25	2033.17
592.60	2025.84
592.95	2018.13
593.30	2010.71
593.65	2003.02
594.00	1996.06
594.35	1988.76
594.70	1980.59
595.05	1973.13
595.40	1965.84
595.75	1958.34
596.10	1951.71
596.45	1944.72
596.80	1938.38
597.15	1931.59
597.50	1924.36
597.85	1917.84
598.19	1910.93
598.54	1903.85
598.89	1897.18
599.24	1891.32
599.59	1884.76
599.94	1878.44
600.29	1872.14
600.64	1865.57
600.99	1858.11
601.34	1851.02
601.69	1843.96
602.04	1836.91
602.39	1829.63
602.74	1822.68
603.08	1816.03
603.43	1809.52
603.78	1802.26
604.13	1795.01
604.48	1787.67
604.83	1780.84
605.18	1773.75
605.53	1765.73
605.87	1757.65
606.22	1750.26
606.57	1742.28
606.92	1734.94
607.27	1727.77
607.62	1720.83
607.96	1713.38
608.31	1706.73
608.66	1699.14
609.01	1691.57
609.36	1684.18
609.70	1676.16
610.05	1668.07
610.40	1660.11
610.75	1651.80
611.10	1644.15
611.44	1635.80
611.79	1627.85
612.14	1619.16
612.49	1610.13
612.83	1601.88
613.18	1593.72
613.53	1585.75
613.88	1577.23
614.22	1568.82
614.57	1560.31
614.92	1552.16
615.27	1544.72
615.61	1536.43
615.96	1528.54
616.31	1520.98
616.65	1513.55
617.00	1506.02
617.35	1498.42
617.70	1490.10
618.04	1481.52
618.39	1473.28
618.74	1465.64
619.08	1457.34
619.43	1449.77
619.78	1442.82
620.12	1435.57
620.47	1428.09
620.82	1419.89
621.16	1412.51
621.51	1404.94
621.85	1397.39
622.20	1388.95
622.55	1380.57
622.89	1372.72
623.24	1365.12
623.59	1357.69
623.93	1350.13
624.28	1342.81
624.62	1335.22
624.97	1328.08
625.32	1321.42
625.66	1314.49
626.01	1307.25
626.35	1299.82
626.70	1292.08
627.04	1284.24
627.39	1276.56
627.73	1269.12
628.08	1262.20
628.43	1254.81
628.77	1247.39
629.12	1239.80
629.46	1232.70
629.81	1225.30
630.15	1218.15
630.50	1210.76
630.84	1202.73
631.19	1194.79
631.53	1187.40
631.88	1179.90
632.22	1172.35
632.57	1164.97
632.91	1157.34
633.26	1149.96
633.60	1142.69
633.95	1135.64
634.29	1128.67
634.64	1121.92
634.98	1114.64
635.32	1107.51
635.67	1101.07
636.01	1094.48
636.36	1087.74
636.70	1081.21
637.05	1074.75
637.39	1068.15
637.73	1061.69
638.08	1055.66
638.42	1049.74
638.77	1043.25
639.11	1036.72
639.45	1030.35
639.80	1023.68
640.14	1017.35
640.49	1010.87
640.83	1004.61
641.17	998.39
641.52	992.13
641.86	985.73
642.20	979.91
642.55	973.65
642.89	967.08
643.23	960.61
643.58	954.76
643.92	948.50
644.26	942.40
644.61	936.43
644.95	930.27
645.29	923.67
645.64	916.91
645.98	910.64
646.32	904.76
646.66	898.70
647.01	892.96
647.35	887.24
647.69	881.52
648.04	875.96
648.38	870.21
648.72	864.16
649.06	858.19
649.41	852.28
649.75	846.27
650.09	840.34
650.43	834.53
650.78	828.48
651.12	822.56
651.46	816.80
651.80	811.02
652.14	805.65
652.49	800.36
652.83	795.20
653.17	789.51
653.51	783.83
653.85	778.48
654.20	772.84
654.54	766.81
654.88	761.00
655.22	755.08
655.56	749.35
655.90	743.91
656.25	738.61
656.59	733.33
656.93	728.29
657.27	723.17
657.61	717.81
657.95	712.66
658.29	707.58
658.64	702.31
658.98	697.09
659.32	691.67
659.66	686.40
660.00	681.16
660.34	676.21
660.68	671.30
661.02	666.22
661.36	661.54
661.70	657.12
662.05	652.83
662.39	648.58
662.73	644.20
663.07	639.84
663.41	635.40
663.75	630.95
664.09	626.41
664.43	622.07
664.77	617.90
665.11	613.64
665.45	609.55
665.79	605.59
666.13	601.43
666.47	597.34
666.81	593.25
667.15	589.09
667.49	585.27
667.83	581.50
668.17	577.63
668.51	573.59
668.85	569.62
669.19	565.75
669.53	561.89
669.87	557.95
670.21	554.25
670.55	550.65
670.89	547.22
671.23	543.79
671.57	540.23
671.91	536.69
672.25	533.27
672.58	529.75
672.92	526.34
673.26	523.21
673.60	520.06
673.94	516.96
674.28	514.09
674.62	511.11
674.96	507.99
675.30	505.11
675.64	502.14
675.97	499.36
676.31	496.48
676.65	493.57
676.99	490.86
677.33	488.04
677.67	485.17
678.01	482.11
678.34	479.10
678.68	476.27
679.02	473.49
679.36	470.69
679.70	467.98
680.04	465.20
680.37	462.36
680.71	459.58
681.05	456.96
681.39	454.29
681.73	451.62
682.06	449.07
682.40	446.49
682.74	444.05
683.08	441.51
683.42	438.96
683.75	436.44
684.09	433.95
684.43	431.49
684.77	429.07
685.10	426.72
685.44	424.45
685.78	422.19
686.12	420.01
686.45	417.72
686.79	415.46
687.13	413.27
687.46	411.16
687.80	409.06
688.14	406.86
688.48	404.75
688.81	402.48
689.15	400.36
689.49	398.26
689.82	396.17
690.16	394.08
690.50	392.08
690.83	390.16
691.17	388.13
691.51	386.27
691.84	384.41
692.18	382.49
692.52	380.50
692.85	378.58
693.19	376.63
693.52	374.86
693.86	373.02
694.20	371.28
694.53	369.43
694.87	367.57
695.21	365.80
695.54	364.01
695.88	362.33
696.21	360.60
696.55	358.90
696.88	357.20
697.22	355.61
697.56	354.00
697.89	352.36
698.23	350.80
698.56	349.17
698.90	347.60
699.23	345.97
699.57	344.45
699.90	342.92
700.24	341.43
700.58	339.88
700.91	338.37
701.25	336.92
701.58	335.55
701.92	334.19
702.25	332.80
702.59	331.43
702.92	330.13
703.26	328.85
703.59	327.59
703.93	326.43
704.26	325.17
704.60	323.91
704.93	322.63
705.26	321.38
705.60	320.22
705.93	319.08
706.27	318.08
706.60	316.99
706.94	315.94
707.27	314.81
707.61	313.77
707.94	312.78
708.27	311.70
708.61	310.65
708.94	309.68
709.28	308.72
709.61	307.80
709.94	306.85
710.28	305.86
710.61	304.92
710.95	303.89
711.28	302.99
711.61	302.06
711.95	301.22
712.28	300.25
712.61	299.31
712.95	298.36
713.28	297.50
713.61	296.66
713.95	295.77
714.28	294.94
714.61	294.06
714.95	293.24
715.28	292.40
715.61	291.49
715.95	290.61
716.28	289.77
716.61	288.94
716.95	288.14
717.28	287.42
717.61	286.65
717.94	285.91
718.28	285.13
718.61	284.40
718.94	283.68
719.27	283.07
719.61	282.39
719.94	281.76
720.27	281.05
720.60	280.35
720.94	279.72
721.27	279.12
721.60	278.58
721.93	277.99
722.27	277.42
722.60	276.87
722.93	276.30
723.26	275.76
723.59	275.20
723.93	274.65
724.26	274.06
724.59	273.52
724.92	272.97
725.25	272.45
725.59	271.93
725.92	271.40
726.25	270.88
726.58	270.41
726.91	269.89
727.24	269.37
727.57	268.92
727.91	268.35
728.24	267.86
728.57	267.32
728.90	266.90
729.23	266.43
729.56	266.06
729.89	265.59
730.22	265.12
730.55	264.62
730.89	264.16
731.22	263.71
731.55	263.24
731.88	262.80
732.21	262.34
732.54	261.88
732.87	261.46
733.20	261.06
733.53	260.66
733.86	260.30
734.19	259.92
734.52	259.50
734.85	259.21
735.18	258.79
735.51	258.46
735.84	258.04
736.17	257.69
736.50	257.25
736.83	257.02
737.16	256.65
737.49	256.34
737.82	256.01
738.15	255.68
738.48	255.37
738.81	255.05
739.14	254.76
739.47	254.42
739.80	254.12
740.13	253.80
740.46	253.46
740.79	253.12
741.12	252.82
741.45	252.51
741.78	252.16
742.11	251.89
742.44	251.55
742.77	251.28
743.10	250.95
743.43	250.68
743.75	250.30
744.08	250.19
744.41	249.91
744.74	249.66
745.07	249.39
745.40	249.13
745.73	248.89
746.06	248.58
746.39	248.37
746.71	248.12
747.04	247.83
747.37	247.58
747.70	247.33
748.03	247.08
748.36	246.88
748.68	246.68
749.01	246.44
749.34	246.23
749.67	246.00
750.00	245.78
750.33	245.62
750.65	245.42
750.98	245.06
751.31	244.83
751.64	244.63
751.97	244.48
752.29	244.28
752.62	244.01
752.95	243.82
753.28	243.59
753.60	243.39
753.93	243.26
754.26	243.09
754.59	242.88
754.91	242.66
755.24	242.45
755.57	242.24
755.90	242.05
756.22	241.82
756.55	241.59
756.88	241.41
757.20	241.22
757.53	241.03
757.86	240.88
758.19	240.75
758.51	240.56
758.84	240.31
759.17	240.14
759.49	239.98
759.82	239.88
760.15	239.76
760.47	239.61
760.80	239.40
761.13	239.26
761.45	239.10
761.78	238.97
762.11	238.83
762.43	238.69
762.76	238.56
763.08	238.49
763.41	238.40
763.74	238.26
764.06	238.12
764.39	237.96
764.71	237.79
765.04	237.61
765.37	237.49
765.69	237.40
766.02	237.25
766.34	237.12
766.67	236.94
767.00	236.84
767.32	236.73
767.65	236.68
767.97	236.53
768.30	236.41
768.62	236.31
768.95	236.18
769.27	236.08
769.60	235.95
769.92	235.79
770.25	235.67
770.57	235.56
770.90	235.41
771.22	235.31
771.55	235.22
771.87	235.11
772.20	235.01
772.52	235.00
772.85	235.02
773.17	234.93
773.50	234.85
773.82	234.77
774.15	234.65
774.47	234.47
774.80	234.38
775.12	234.31
775.45	234.18
775.77	234.10
776.09	234.00
776.42	233.93
776.74	233.86
777.07	233.78
777.39	233.71
777.72	233.65
778.04	233.59
778.36	233.52
778.69	233.49
779.01	233.40
779.33	233.21
779.66	233.05
779.98	232.95
780.31	232.87
780.63	232.80
780.95	232.72
781.28	232.66
781.60	232.61
781.92	232.54
782.25	232.48
782.57	232.41
782.89	232.32
783.22	232.24
783.54	232.18
783.86	232.13
784.19	232.07
784.51	232.01
784.83	231.96
785.16	231.88
785.48	231.82
785.80	231.80
786.12	231.79
786.45	231.74
786.77	231.72
787.09	231.67
787.42	231.60
787.74	231.61
788.06	231.61
788.38	231.54
788.71	231.51
789.03	231.50
789.35	231.51
789.67	231.47
789.99	231.47
790.32	231.43
790.64	231.40
790.96	231.45
791.28	231.40
791.61	231.37
791.93	231.38
792.25	231.34
792.57	231.37
792.89	231.31
793.21	231.30
793.54	231.27
793.86	231.24
794.18	231.21
794.50	231.15
794.82	231.11
795.14	231.12
795.47	231.11
795.79	231.09
796.11	231.03
796.43	231.03
796.75	230.98
797.07	230.97
797.39	230.94
797.71	230.87
798.04	230.85
798.36	230.83
798.68	230.77
799.00	230.74
799.32	230.68
799.64	230.69
799.96	230.64
800.28	230.64
800.60	230.62
800.92	230.59
801.24	230.59
801.56	230.57
801.89	230.54
802.21	230.53
802.53	230.47
802.85	230.46
803.17	230.48
803.49	230.46
803.81	230.40
804.13	230.35
804.45	230.26
804.77	230.24
805.09	230.20
805.41	230.18
805.73	230.14
806.05	230.07
806.37	230.02
806.69	230.01
807.01	229.96
807.33	229.93
807.65	229.87
807.97	229.85
808.28	229.81
808.60	229.76
808.92	229.68
809.24	229.71
809.56	229.68
809.88	229.61
810.20	229.57
810.52	229.58
810.84	229.51
811.16	229.50
811.48	229.46
811.80	229.45
812.12	229.43
812.43	229.40
812.75	229.36
813.07	229.34
813.39	229.28
813.71	229.24
814.03	229.18
814.35	229.15
814.67	229.10
814.98	229.06
815.30	229.03
815.62	229.00
815.94	228.91
816.26	228.92
816.58	228.87
816.89	228.86
817.21	228.75
817.53	228.76
817.85	228.74
818.17	228.75
818.48	228.70
818.80	228.66
819.12	228.66
819.44	228.60
819.76	228.55
820.07	228.51
820.39	228.50
820.71	228.50
821.03	228.46
821.34	228.41
821.66	228.41
821.98	228.43
822.30	228.40
822.61	228.43
822.93	228.37
823.25	228.35
823.57	228.33
823.88	228.40
824.20	228.40
824.52	228.42
824.83	228.36
825.15	228.35
825.47	228.34
825.79	228.34
826.10	228.33
826.42	228.35
826.74	228.38
827.05	228.36
827.37	228.34
827.69	228.35
828.00	228.37
828.32	228.36
828.64	228.33
828.95	228.39
829.27	228.36
829.58	228.35
829.90	228.40
830.22	228.39
830.53	228.35
830.85	228.32
831.17	228.29
831.48	228.32
831.80	228.34
832.11	228.34
832.43	228.31
832.75	228.34
833.06	228.39
833.38	228.37
833.69	228.35
834.01	228.35
834.32	228.35
834.64	228.36
834.96	228.39
835.27	228.36
835.59	228.30
835.90	228.29
836.22	228.29
836.53	228.28
836.85	228.27
837.16	228.35
837.48	228.35
837.79	228.39
838.11	228.36
838.42	228.33
838.74	228.33
839.05	228.34
839.37	228.32
839.68	228.24
840.00	228.22
840.31	228.23
840.63	228.24
840.94	228.24
841.26	228.21
841.57	228.16
841.88	228.18
842.20	228.18
842.51	228.16
842.83	228.15
843.14	228.18
843.46	228.17
843.77	228.14
844.08	228.13
844.40	228.09
844.71	228.08
845.03	228.08
845.34	228.07
845.65	228.03
845.97	228.04
846.28	228.08
846.60	228.08
846.91	228.08
847.22	228.07
847.54	228.09
847.85	228.09
848.16	228.06
848.48	228.07
848.79	228.12
849.10	228.11
849.42	228.11
849.73	228.04
850.04	228.00
850.36	227.93
850.67	227.95
850.98	227.91
851.30	227.93
851.61	227.94
851.92	227.92
852.23	227.97
852.55	227.94
852.86	227.91
853.17	227.90
853.49	227.90
853.80	227.88
854.11	227.84
854.42	227.83
854.74	227.81
855.05	227.75
855.36	227.68
855.67	227.67
855.99	227.68
856.30	227.80
856.61	227.82
856.92	227.80
857.23	227.79
857.55	227.79
857.86	227.76
858.17	227.74
858.48	227.71
858.79	227.65
859.11	227.66
859.42	227.64
859.73	227.59
860.04	227.57
860.35	227.54
860.66	227.51
860.98	227.49
861.29	227.52
861.60	227.52
861.91	227.52
862.22	227.51
862.53	227.49
862.84	227.34
863.16	227.31
863.47	227.33
863.78	227.31
864.09	227.31
864.40	227.30
864.71	227.28
865.02	227.30
865.33	227.28
865.64	227.28
865.95	227.29
866.27	227.42
866.58	227.40
866.89	227.44
867.20	227.44
867.51	227.43
867.82	227.44
868.13	227.49
868.44	227.47
868.75	227.48
869.06	227.46
869.37	227.49
869.68	227.50
869.99	227.51
870.30	227.50
870.61	227.52
870.92	227.53
871.23	227.54
871.54	227.54
871.85	227.59
872.16	227.60
872.47	227.58
872.78	227.50
873.09	227.51
873.40	227.49
873.71	227.52
874.02	227.53
874.33	227.53
874.64	227.49
874.95	227.49
875.26	227.50
875.56	227.51
875.87	227.50
876.18	227.49
876.49	227.59
876.80	227.58
877.11	227.58
877.42	227.59
877.73	227.59
878.04	227.59
878.35	227.58
878.66	227.55
878.96	227.60
879.27	227.59
879.58	227.56
879.89	227.52
880.20	227.55
880.51	227.57
880.82	227.55
881.12	227.55
881.43	227.54
881.74	227.50
882.05	227.48
882.36	227.45
882.67	227.45
882.97	227.33
883.28	227.31
883.59	227.29
883.90	227.28
884.21	227.28
884.51	227.30
884.82	227.30
885.13	227.32
885.44	227.28
885.74	227.27
886.05	227.29
886.36	227.32
886.67	227.30
886.98	227.31
887.28	227.30
887.59	227.28
887.90	227.28
888.20	227.26
888.51	227.31
888.82	227.32
889.13	227.32
889.43	227.41
889.74	227.40
890.05	227.39
890.35	227.40
890.66	227.38
890.97	227.33
891.28	227.33
891.58	227.31
891.89	227.29
892.20	227.28
892.50	227.27
892.81	227.23
893.12	227.18
893.42	227.12
893.73	227.16
894.04	227.16
894.34	227.18
894.65	227.18
894.95	227.15
895.26	227.17
895.57	227.19
895.87	227.08
896.18	227.12
896.48	227.13
896.79	227.10
897.10	227.14
897.40	227.13
897.71	227.12
898.01	227.09
898.32	227.13
898.63	227.15
898.93	227.16
899.24	227.17
899.54	227.21
899.85	227.26
900.15	227.25
900.46	227.28
900.76	227.28
901.07	227.27
901.38	227.25
901.68	227.28
901.99	227.26
902.29	227.28
902.60	227.29
902.90	227.27
903.21	227.29
903.51	227.28
903.82	227.33
904.12	227.31
904.43	227.35
904.73	227.30
905.03	227.32
905.34	227.43
905.64	227.45
905.95	227.46
906.25	227.43
906.56	227.43
906.86	227.43
907.17	227.43
907.47	227.47
907.77	227.52
908.08	227.50
908.38	227.54
908.69	227.53
908.99	227.53
909.30	227.54
909.60	227.52
909.90	227.55
910.21	227.52
910.51	227.55
910.81	227.53
911.12	227.56
911.42	227.58
911.73	227.44
912.03	227.47
912.33	227.49
912.64	227.51
912.94	227.50
913.24	227.49
913.55	227.48
913.85	227.49
914.15	227.46
914.46	227.52
914.76	227.51
915.06	227.51
915.37	227.52
915.67	227.55
915.97	227.57
916.27	227.53
916.58	227.54
916.88	227.55
917.18	227.57
917.49	227.65
917.79	227.61
918.09	227.66
918.39	227.67
918.70	227.65
919.00	227.62
919.30	227.66
919.60	227.65
919.91	227.65
920.21	227.61
920.51	227.60
920.81	227.57
921.12	227.56
921.42	227.59
921.72	227.59
922.02	227.58
922.32	227.59
922.63	227.58
922.93	227.62
923.23	227.58
923.53	227.56
923.83	227.48
924.13	227.47
924.44	227.44
924.74	227.42
925.04	227.42
925.34	227.46
925.64	227.42
925.94	227.41
926.24	227.44
926.55	227.44
926.85	227.42
927.15	227.40
927.45	227.38
927.75	227.35
928.05	227.32
928.35	227.30
928.65	227.27
928.95	227.27
929.26	227.19
929.56	227.19
929.86	227.20
930.16	227.16
930.46	227.18
930.76	227.19
931.06	227.15
931.36	227.10
931.66	227.08
931.96	227.07
932.26	227.04
932.56	227.01
932.86	227.01
933.16	226.99
933.46	226.92
933.76	226.91
934.06	226.92
934.36	226.96
934.66	226.95
934.96	226.95
935.26	226.97
935.56	227.00
935.86	227.02
936.16	226.98
936.46	226.99
936.76	226.98
937.06	226.94
937.36	226.91
937.66	226.89
937.96	226.91
938.26	226.88
938.56	226.89
938.86	226.87
939.16	226.89
939.46	226.96
939.76	226.98
940.06	226.98
940.35	226.94
940.65	226.89
940.95	226.90
941.25	226.87
941.55	226.87
941.85	226.83
942.15	226.85
942.45	226.91
942.75	226.90
943.04	226.91
943.34	226.97
943.64	226.98
943.94	227.00
944.24	226.97
944.54	226.98
944.84	227.01
945.13	227.04
945.43	227.03
945.73	226.98
946.03	227.03
946.33	227.07
946.62	227.08
946.92	227.06
947.22	227.05
947.52	227.09
947.82	227.10
948.11	227.11
948.41	227.08
948.71	227.04
949.01	227.06
949.31	227.07
949.60	227.06
949.90	227.10
950.20	227.11
950.50	227.11
950.79	227.11
951.09	227.09
951.39	227.07
951.69	227.07
951.98	227.11
952.28	227.07
952.58	227.02
952.87	227.02
953.17	227.04
953.47	227.07
953.76	227.06
954.06	227.02
954.36	227.04
954.66	227.03
954.95	227.06
955.25	227.07
955.55	227.07
955.84	227.04
956.14	227.05
956.44	227.08
956.73	227.08
957.03	227.13
957.32	227.13
957.62	227.11
957.92	227.11
958.21	227.10
958.51	227.23
958.81	227.26
959.10	227.27
959.40	227.31
959.69	227.30
959.99	227.29
960.29	227.31
960.58	227.30
960.88	227.35
961.17	227.34
961.47	227.34
961.76	227.32
962.06	227.30
962.36	227.30
962.65	227.28
962.95	227.29
963.24	227.23
963.54	227.27
963.83	227.30
964.13	227.32
964.42	227.29
964.72	227.23
965.01	227.25
965.31	227.25
965.60	227.21
965.90	227.29
966.19	227.29
966.49	227.31
966.78	227.28
967.08	227.26
967.37	227.24
967.67	227.22
967.96	227.22
968.26	227.25
968.55	227.25
968.85	227.22
969.14	227.23
969.43	227.24
969.73	227.20
970.02	227.18
970.32	227.14
970.61	227.11
970.91	227.05
971.20	227.04
971.49	227.01
971.79	227.03
972.08	226.96
972.38	226.96
972.67	226.93
972.96	226.93
973.26	226.95
973.55	226.98
973.85	226.96
974.14	226.95
974.43	226.96
974.73	226.93
975.02	226.95
975.31	226.93
975.61	226.95
975.90	226.94
976.19	226.92
976.49	226.94
976.78	226.98
977.07	226.98
977.37	226.98
977.66	227.02
977.95	226.99
978.24	226.98
978.54	227.00
978.83	227.01
979.12	227.00
979.42	226.97
979.71	226.95
980.00	226.93
980.29	226.94
980.59	226.88
980.88	226.98
981.17	226.96
981.46	226.96
981.76	226.96
982.05	227.00
982.34	227.01
982.63	227.00
982.93	227.01
983.22	227.04
983.51	227.03
983.80	227.03
984.09	227.03
984.39	227.06
984.68	227.05
984.97	227.06
985.26	227.08
985.55	227.09
985.85	227.11
986.14	227.15
986.43	227.17
986.72	227.18
987.01	227.12
987.30	227.11
987.59	227.11
987.89	227.12
988.18	227.10
988.47	227.12
988.76	227.12
989.05	227.11
989.34	227.10
989.63	227.11
989.92	227.10
990.22	227.09
990.51	227.08
990.80	227.05
991.09	227.05
991.38	227.07
991.67	227.07
991.96	227.04
992.25	227.05
992.54	227.02
992.83	227.04
993.12	227.01
993.41	227.04
993.70	227.08
993.99	227.09
994.28	227.07
994.58	227.09
994.87	227.06
995.16	227.06
995.45	227.03
995.74	227.04
996.03	227.01
996.32	227.02
996.61	227.02
996.90	227.02
997.19	227.03
997.48	227.01
997.77	226.98
998.06	226.98
998.34	226.98
998.63	226.98
998.92	226.98
999.21	227.01
999.50	227.01
999.79	226.96
1000.08	226.95
1000.37	226.98
1000.66	226.92
1000.95	226.97
1001.24	226.99
1001.53	227.03
1001.82	227.01
1002.11	227.04
1002.40	227.06
1002.68	227.08
1002.97	227.18
1003.26	227.19
1003.55	227.21
1003.84	227.20
1004.13	227.24
1004.42	227.21
1004.71	227.22
1004.99	227.26
1005.28	227.26
1005.57	227.24
1005.86	227.22
1006.15	227.21
1006.44	227.16
1006.72	227.21
1007.01	227.19
1007.30	227.19
1007.59	227.15
1007.88	227.17
1008.17	227.16
1008.45	227.15
1008.74	227.11
1009.03	227.06
1009.32	227.06
1009.60	227.03
1009.89	227.02
1010.18	226.99
1010.47	227.00
1010.76	226.98
1011.04	226.93
1011.33	226.95
1011.62	226.97
1011.91	227.00
1012.19	227.00
1012.48	227.05
1012.77	227.06
1013.05	227.12
1013.34	227.13
1013.63	227.15
1013.92	227.14
1014.20	227.16
1014.49	227.14
1014.78	227.15
1015.06	227.09
1015.35	227.05
1015.64	227.07
1015.92	227.11
1016.21	227.07
1016.50	227.06
1016.78	227.08
1017.07	227.11
1017.36	227.09
1017.64	227.05
1017.93	227.09
1018.22	227.10
1018.50	227.07
1018.79	227.06
1019.08	226.95
1019.36	226.96
1019.65	226.94
1019.93	226.99
1020.22	227.00
1020.51	227.07
1020.79	227.09
1021.08	227.29
1021.36	226.81
1021.65	227.10
1021.94	226.38
1022.22	227.52
1022.51	226.45
1022.79	228.15
1023.08	227.56
1023.36	228.28
1023.65	227.40
>>>>>End Processed Spectral Data<<<<<
