SpectraSuite Data File
++++++++++++++++++++++++++++++++++++
Date: Fri Feb 01 16:30:08 EST 2013
User: group
Dark Spectrum Present: No
Reference Spectrum Present: No
Number of Sampled Component Spectra: 1
Spectrometers: USB2E7196
Integration Time (usec): 35000 (USB2E7196)
Spectra Averaged: 100 (USB2E7196)
Boxcar Smoothing: 10 (USB2E7196)
Correct for Electrical Dark: No (USB2E7196)
Strobe/Lamp Enabled: No (USB2E7196)
Correct for Detector Non-linearity: No (USB2E7196)
Correct for Stray Light: No (USB2E7196)
Number of Pixels in Processed Spectrum: 2048
>>>>>Begin Processed Spectral Data<<<<<
339.09	0.00
339.48	213.90
339.86	215.36
340.24	217.56
340.63	218.73
341.01	221.09
341.39	221.03
341.78	222.41
342.16	223.52
342.54	224.37
342.93	212.59
343.31	223.34
343.69	223.90
344.07	224.36
344.46	224.76
344.84	225.15
345.22	225.41
345.60	225.67
345.99	225.85
346.37	225.99
346.75	226.08
347.13	226.13
347.52	226.20
347.90	226.28
348.28	226.30
348.66	226.32
349.05	226.32
349.43	226.37
349.81	226.43
350.19	226.46
350.57	226.48
350.96	226.52
351.34	226.58
351.72	226.63
352.10	226.71
352.48	226.75
352.87	226.77
353.25	226.83
353.63	226.88
354.01	226.96
354.39	227.03
354.77	227.09
355.15	227.22
355.54	227.25
355.92	227.27
356.30	227.33
356.68	227.48
357.06	227.51
357.44	227.53
357.82	227.57
358.20	227.63
358.58	227.69
358.97	227.72
359.35	227.83
359.73	227.91
360.11	227.97
360.49	228.04
360.87	228.09
361.25	228.14
361.63	228.19
362.01	228.23
362.39	228.24
362.77	228.28
363.15	228.31
363.53	228.37
363.91	228.35
364.29	228.37
364.67	228.26
365.05	228.29
365.43	228.33
365.81	228.36
366.19	228.36
366.57	228.39
366.95	228.40
367.33	228.34
367.71	228.34
368.09	228.31
368.47	228.30
368.85	228.27
369.23	228.25
369.61	228.19
369.99	228.19
370.37	228.18
370.75	228.19
371.13	228.13
371.51	228.05
371.89	228.05
372.27	228.02
372.65	228.01
373.03	227.97
373.41	227.92
373.78	227.85
374.16	227.79
374.54	227.70
374.92	227.66
375.30	227.60
375.68	227.48
376.06	227.47
376.44	227.40
376.82	227.33
377.19	227.23
377.57	227.18
377.95	227.07
378.33	227.01
378.71	226.91
379.09	226.86
379.47	226.80
379.84	226.71
380.22	226.63
380.60	226.50
380.98	226.45
381.36	226.38
381.73	226.31
382.11	226.28
382.49	226.26
382.87	226.16
383.25	226.15
383.62	226.25
384.00	226.15
384.38	226.11
384.76	226.08
385.13	226.09
385.51	226.03
385.89	226.02
386.27	225.95
386.64	225.90
387.02	225.87
387.40	225.84
387.78	225.82
388.15	225.79
388.53	225.79
388.91	225.75
389.29	225.71
389.66	225.70
390.04	225.64
390.42	225.64
390.79	225.66
391.17	225.59
391.55	225.48
391.92	225.50
392.30	225.49
392.68	225.47
393.05	225.47
393.43	225.52
393.81	225.51
394.18	225.51
394.56	225.56
394.94	225.55
395.31	225.52
395.69	225.58
396.06	225.64
396.44	225.67
396.82	225.71
397.19	225.79
397.57	225.82
397.95	225.86
398.32	225.85
398.70	225.88
399.07	225.97
399.45	226.01
399.82	226.05
400.20	226.10
400.58	226.16
400.95	226.16
401.33	226.21
401.70	226.32
402.08	226.42
402.45	226.45
402.83	226.55
403.20	226.66
403.58	226.71
403.95	226.82
404.33	226.94
404.71	227.03
405.08	227.22
405.46	227.31
405.83	227.47
406.21	227.63
406.58	227.79
406.96	227.92
407.33	228.09
407.70	228.27
408.08	228.52
408.45	228.71
408.83	228.95
409.20	229.16
409.58	229.34
409.95	229.59
410.33	229.90
410.70	230.14
411.08	230.44
411.45	230.76
411.82	231.05
412.20	231.39
412.57	231.82
412.95	232.10
413.32	232.51
413.69	232.91
414.07	233.33
414.44	233.78
414.82	234.28
415.19	234.83
415.56	235.39
415.94	235.97
416.31	236.59
416.68	237.23
417.06	237.93
417.43	238.62
417.81	239.40
418.18	240.16
418.55	241.02
418.93	241.87
419.30	242.75
419.67	243.70
420.04	244.66
420.42	245.64
420.79	246.84
421.16	247.99
421.54	249.22
421.91	250.42
422.28	251.69
422.66	253.03
423.03	254.34
423.40	255.68
423.77	257.07
424.15	258.53
424.52	260.02
424.89	261.62
425.26	263.20
425.64	264.62
426.01	266.21
426.38	267.85
426.75	269.53
427.13	271.27
427.50	273.11
427.87	274.96
428.24	276.83
428.61	278.53
428.99	280.45
429.36	282.51
429.73	284.59
430.10	286.58
430.47	288.66
430.85	290.75
431.22	292.99
431.59	295.37
431.96	297.63
432.33	300.12
432.70	302.51
433.08	305.31
433.45	307.93
433.82	310.56
434.19	313.48
434.56	316.28
434.93	318.91
435.30	321.50
435.68	324.41
436.05	327.18
436.42	330.02
436.79	332.56
437.16	335.27
437.53	338.12
437.90	340.97
438.27	343.71
438.64	346.56
439.01	349.16
439.38	351.38
439.75	353.53
440.13	355.95
440.50	358.28
440.87	360.16
441.24	362.13
441.61	364.20
441.98	365.63
442.35	367.43
442.72	369.28
443.09	371.06
443.46	372.05
443.83	372.68
444.20	373.14
444.57	373.97
444.94	374.21
445.31	374.54
445.68	374.89
446.05	374.91
446.42	374.51
446.79	374.08
447.16	373.65
447.53	373.35
447.90	372.26
448.27	371.09
448.64	369.45
449.01	368.28
449.37	366.34
449.74	364.45
450.11	362.24
450.48	359.77
450.85	357.25
451.22	355.12
451.59	353.12
451.96	351.17
452.33	348.57
452.70	346.23
453.07	343.39
453.43	340.47
453.80	337.74
454.17	335.09
454.54	332.52
454.91	329.78
455.28	327.09
455.65	324.58
456.02	322.12
456.38	319.99
456.75	317.36
457.12	315.15
457.49	312.94
457.86	310.76
458.23	308.92
458.59	306.86
458.96	304.79
459.33	302.93
459.70	301.11
460.07	299.61
460.43	297.94
460.80	296.33
461.17	294.89
461.54	293.37
461.91	291.97
462.27	290.55
462.64	289.32
463.01	287.98
463.38	286.70
463.74	285.34
464.11	284.18
464.48	283.19
464.85	282.10
465.21	281.27
465.58	280.36
465.95	279.30
466.32	278.40
466.68	277.51
467.05	276.65
467.42	275.75
467.78	274.85
468.15	274.01
468.52	273.34
468.88	272.53
469.25	271.79
469.62	271.17
469.98	270.52
470.35	269.90
470.72	269.28
471.08	268.61
471.45	268.10
471.82	267.59
472.18	266.97
472.55	266.54
472.92	266.02
473.28	265.55
473.65	265.17
474.02	264.74
474.38	264.38
474.75	264.04
475.11	263.72
475.48	263.47
475.85	263.25
476.21	263.02
476.58	262.82
476.94	262.66
477.31	262.52
477.67	262.36
478.04	262.28
478.41	262.27
478.77	262.39
479.14	262.31
479.50	262.32
479.87	262.42
480.23	262.51
480.60	262.58
480.96	262.71
481.33	262.92
481.69	263.12
482.06	263.32
482.42	263.53
482.79	263.82
483.15	264.15
483.52	264.52
483.88	264.87
484.25	265.28
484.61	265.71
484.98	266.12
485.34	266.69
485.71	267.29
486.07	267.89
486.44	268.48
486.80	269.23
487.17	269.93
487.53	270.71
487.90	271.56
488.26	272.50
488.62	273.49
488.99	274.44
489.35	275.54
489.72	276.64
490.08	277.84
490.44	279.07
490.81	280.40
491.17	281.80
491.54	283.31
491.90	284.84
492.26	286.48
492.63	288.29
492.99	290.12
493.36	292.00
493.72	294.04
494.08	296.10
494.45	298.36
494.81	300.78
495.17	303.23
495.54	305.79
495.90	308.45
496.26	311.26
496.63	314.22
496.99	317.31
497.35	320.60
497.72	324.04
498.08	327.55
498.44	331.23
498.80	335.11
499.17	339.14
499.53	343.33
499.89	347.78
500.26	352.22
500.62	356.89
500.98	361.89
501.34	366.97
501.71	372.27
502.07	377.68
502.43	383.31
502.79	389.15
503.16	395.18
503.52	401.51
503.88	407.92
504.24	414.59
504.60	421.48
504.97	428.67
505.33	435.98
505.69	443.66
506.05	451.41
506.41	459.28
506.78	467.47
507.14	475.95
507.50	484.62
507.86	493.65
508.22	502.82
508.59	512.00
508.95	521.60
509.31	531.44
509.67	541.57
510.03	551.82
510.39	562.37
510.75	573.23
511.12	584.14
511.48	595.45
511.84	606.86
512.20	618.35
512.56	630.21
512.92	642.30
513.28	654.72
513.64	667.22
514.00	679.87
514.37	692.69
514.73	705.69
515.09	718.67
515.45	732.00
515.81	745.54
516.17	759.42
516.53	773.50
516.89	787.66
517.25	801.79
517.61	816.15
517.97	830.66
518.33	845.02
518.69	859.79
519.05	874.67
519.41	889.78
519.77	905.31
520.13	920.69
520.49	936.13
520.85	951.40
521.21	967.15
521.57	983.45
521.93	999.22
522.29	1015.54
522.65	1031.75
523.01	1047.89
523.37	1063.95
523.73	1080.08
524.09	1096.05
524.45	1112.30
524.81	1128.76
525.17	1145.51
525.53	1162.25
525.89	1179.00
526.25	1195.80
526.61	1212.25
526.97	1228.92
527.33	1245.27
527.68	1261.77
528.04	1278.22
528.40	1294.80
528.76	1311.57
529.12	1328.09
529.48	1344.92
529.84	1360.83
530.20	1377.44
530.56	1394.35
530.91	1411.63
531.27	1428.37
531.63	1444.75
531.99	1461.28
532.35	1477.38
532.71	1493.21
533.07	1509.50
533.42	1525.34
533.78	1541.20
534.14	1557.23
534.50	1572.51
534.86	1588.38
535.21	1603.59
535.57	1619.33
535.93	1634.77
536.29	1649.53
536.65	1664.45
537.00	1678.96
537.36	1694.15
537.72	1708.62
538.08	1722.87
538.44	1736.53
538.79	1750.26
539.15	1763.86
539.51	1777.39
539.87	1791.63
540.22	1805.27
540.58	1818.76
540.94	1831.97
541.29	1844.87
541.65	1857.43
542.01	1870.38
542.37	1882.60
542.72	1894.93
543.08	1906.78
543.44	1919.01
543.79	1930.26
544.15	1941.19
544.51	1952.77
544.87	1963.64
545.22	1974.21
545.58	1984.38
545.94	1994.08
546.29	2003.84
546.65	2013.65
547.01	2022.96
547.36	2031.41
547.72	2039.81
548.07	2047.57
548.43	2055.68
548.79	2063.53
549.14	2071.06
549.50	2078.49
549.86	2086.02
550.21	2093.14
550.57	2100.02
550.92	2106.50
551.28	2113.31
551.64	2120.22
551.99	2126.70
552.35	2132.97
552.70	2139.18
553.06	2145.12
553.41	2151.43
553.77	2157.50
554.13	2163.54
554.48	2169.52
554.84	2175.02
555.19	2180.27
555.55	2185.53
555.90	2190.22
556.26	2195.07
556.61	2199.68
556.97	2203.92
557.32	2208.10
557.68	2212.20
558.03	2216.56
558.39	2220.28
558.74	2225.14
559.10	2229.13
559.45	2232.81
559.81	2237.01
560.16	2240.71
560.52	2243.85
560.87	2247.18
561.23	2249.89
561.58	2252.94
561.94	2255.62
562.29	2258.06
562.64	2260.76
563.00	2263.25
563.35	2266.47
563.71	2269.61
564.06	2272.94
564.42	2275.81
564.77	2278.30
565.12	2280.70
565.48	2282.68
565.83	2284.62
566.19	2285.80
566.54	2286.61
566.89	2287.76
567.25	2288.46
567.60	2289.89
567.96	2291.71
568.31	2292.55
568.66	2293.68
569.02	2294.18
569.37	2294.34
569.72	2295.28
570.08	2295.41
570.43	2295.66
570.78	2295.31
571.14	2293.89
571.49	2292.71
571.84	2292.45
572.20	2291.51
572.55	2290.54
572.90	2288.94
573.26	2287.68
573.61	2286.02
573.96	2284.43
574.31	2281.57
574.67	2278.64
575.02	2275.09
575.37	2271.97
575.72	2268.40
576.08	2265.11
576.43	2261.97
576.78	2258.53
577.13	2255.22
577.49	2252.28
577.84	2248.78
578.19	2245.03
578.54	2241.48
578.90	2237.24
579.25	2231.86
579.60	2226.87
579.95	2221.91
580.30	2216.99
580.66	2211.83
581.01	2206.92
581.36	2202.04
581.71	2197.93
582.06	2193.45
582.42	2189.13
582.77	2183.77
583.12	2179.23
583.47	2174.52
583.82	2169.45
584.17	2164.12
584.53	2158.79
584.88	2153.16
585.23	2147.38
585.58	2141.99
585.93	2136.63
586.28	2131.89
586.63	2126.80
586.98	2121.88
587.34	2117.14
587.69	2112.26
588.04	2107.02
588.39	2101.63
588.74	2095.16
589.09	2089.08
589.44	2082.35
589.79	2076.33
590.14	2070.85
590.49	2064.34
590.84	2058.06
591.19	2052.05
591.54	2045.68
591.89	2038.46
592.25	2031.78
592.60	2024.81
592.95	2017.20
593.30	2009.71
593.65	2002.19
594.00	1995.17
594.35	1987.99
594.70	1980.13
595.05	1973.18
595.40	1965.96
595.75	1958.31
596.10	1952.25
596.45	1945.48
596.80	1939.37
597.15	1932.83
597.50	1925.77
597.85	1919.40
598.19	1912.66
598.54	1905.62
598.89	1898.98
599.24	1893.15
599.59	1886.52
599.94	1880.31
600.29	1874.10
600.64	1867.72
600.99	1860.33
601.34	1853.68
601.69	1846.65
602.04	1839.75
602.39	1832.31
602.74	1825.40
603.08	1818.80
603.43	1812.00
603.78	1804.76
604.13	1797.59
604.48	1790.29
604.83	1783.40
605.18	1776.36
605.53	1768.45
605.87	1760.51
606.22	1753.34
606.57	1745.31
606.92	1737.97
607.27	1730.76
607.62	1723.91
607.96	1716.57
608.31	1710.07
608.66	1702.43
609.01	1694.85
609.36	1687.37
609.70	1679.41
610.05	1671.48
610.40	1663.82
610.75	1655.54
611.10	1647.91
611.44	1639.52
611.79	1631.55
612.14	1622.87
612.49	1613.80
612.83	1605.52
613.18	1597.42
613.53	1589.41
613.88	1580.86
614.22	1572.58
614.57	1563.95
614.92	1555.86
615.27	1548.22
615.61	1539.76
615.96	1531.64
616.31	1524.08
616.65	1516.64
617.00	1509.09
617.35	1501.50
617.70	1493.09
618.04	1484.62
618.39	1476.35
618.74	1468.72
619.08	1460.52
619.43	1452.98
619.78	1446.02
620.12	1438.80
620.47	1431.21
620.82	1423.10
621.16	1415.76
621.51	1408.16
621.85	1400.54
622.20	1392.05
622.55	1383.77
622.89	1376.05
623.24	1368.51
623.59	1361.08
623.93	1353.63
624.28	1346.40
624.62	1338.87
624.97	1331.71
625.32	1324.94
625.66	1318.01
626.01	1310.93
626.35	1303.44
626.70	1295.64
627.04	1287.98
627.39	1280.28
627.73	1272.95
628.08	1266.01
628.43	1258.68
628.77	1251.28
629.12	1243.72
629.46	1236.52
629.81	1229.12
630.15	1221.78
630.50	1214.38
630.84	1206.22
631.19	1198.26
631.53	1190.76
631.88	1183.21
632.22	1175.64
632.57	1168.35
632.91	1160.77
633.26	1153.23
633.60	1145.78
633.95	1138.67
634.29	1131.70
634.64	1125.02
634.98	1117.57
635.32	1110.34
635.67	1103.69
636.01	1097.04
636.36	1090.25
636.70	1083.72
637.05	1077.15
637.39	1070.74
637.73	1064.14
638.08	1058.17
638.42	1052.16
638.77	1045.66
639.11	1039.02
639.45	1032.60
639.80	1025.93
640.14	1019.59
640.49	1013.14
640.83	1006.81
641.17	1000.64
641.52	994.19
641.86	987.66
642.20	981.83
642.55	975.54
642.89	969.09
643.23	962.58
643.58	956.86
643.92	950.70
644.26	944.63
644.61	938.62
644.95	932.65
645.29	926.09
645.64	919.31
645.98	912.96
646.32	907.14
646.66	901.03
647.01	895.24
647.35	889.45
647.69	883.58
648.04	878.07
648.38	872.20
648.72	866.27
649.06	860.20
649.41	854.35
649.75	848.41
650.09	842.41
650.43	836.61
650.78	830.41
651.12	824.45
651.46	818.74
651.80	813.01
652.14	807.62
652.49	802.31
652.83	797.15
653.17	791.44
653.51	785.67
653.85	780.31
654.20	774.61
654.54	768.64
654.88	762.89
655.22	756.99
655.56	751.26
655.90	745.77
656.25	740.56
656.59	735.16
656.93	730.14
657.27	725.11
657.61	719.65
657.95	714.45
658.29	709.39
658.64	704.13
658.98	698.74
659.32	693.25
659.66	687.98
660.00	682.68
660.34	677.76
660.68	672.82
661.02	667.77
661.36	663.06
661.70	658.57
662.05	654.25
662.39	649.96
662.73	645.56
663.07	641.18
663.41	636.72
663.75	632.20
664.09	627.59
664.43	623.14
664.77	618.98
665.11	614.78
665.45	610.69
665.79	606.58
666.13	602.47
666.47	598.38
666.81	594.19
667.15	590.09
667.49	586.20
667.83	582.42
668.17	578.49
668.51	574.42
668.85	570.33
669.19	566.48
669.53	562.56
669.87	558.66
670.21	555.01
670.55	551.35
670.89	547.94
671.23	544.43
671.57	540.90
671.91	537.41
672.25	533.94
672.58	530.36
672.92	526.94
673.26	523.73
673.60	520.55
673.94	517.48
674.28	514.57
674.62	511.60
674.96	508.49
675.30	505.61
675.64	502.62
675.97	499.83
676.31	496.94
676.65	494.02
676.99	491.33
677.33	488.48
677.67	485.60
678.01	482.59
678.34	479.62
678.68	476.75
679.02	473.92
679.36	471.15
679.70	468.42
680.04	465.64
680.37	462.80
680.71	460.05
681.05	457.40
681.39	454.61
681.73	451.87
682.06	449.31
682.40	446.78
682.74	444.30
683.08	441.77
683.42	439.16
683.75	436.67
684.09	434.12
684.43	431.58
684.77	429.22
685.10	426.82
685.44	424.53
685.78	422.24
686.12	419.99
686.45	417.66
686.79	415.33
687.13	413.16
687.46	411.01
687.80	408.84
688.14	406.70
688.48	404.68
688.81	402.49
689.15	400.37
689.49	398.21
689.82	396.14
690.16	394.06
690.50	392.10
690.83	390.13
691.17	388.10
691.51	386.21
691.84	384.33
692.18	382.45
692.52	380.49
692.85	378.55
693.19	376.68
693.52	374.88
693.86	373.07
694.20	371.28
694.53	369.45
694.87	367.61
695.21	365.75
695.54	363.91
695.88	362.18
696.21	360.45
696.55	358.79
696.88	357.11
697.22	355.42
697.56	353.81
697.89	352.22
698.23	350.65
698.56	349.06
698.90	347.45
699.23	345.80
699.57	344.21
699.90	342.70
700.24	341.17
700.58	339.57
700.91	338.10
701.25	336.65
701.58	335.29
701.92	333.87
702.25	332.53
702.59	331.16
702.92	329.82
703.26	328.52
703.59	327.18
703.93	325.98
704.26	324.69
704.60	323.37
704.93	322.09
705.26	320.84
705.60	319.64
705.93	318.49
706.27	317.45
706.60	316.38
706.94	315.25
707.27	314.16
707.61	313.15
707.94	312.10
708.27	310.98
708.61	309.89
708.94	308.92
709.28	307.90
709.61	306.93
709.94	305.99
710.28	304.92
710.61	303.97
710.95	302.91
711.28	302.08
711.61	301.16
711.95	300.22
712.28	299.27
712.61	298.25
712.95	297.30
713.28	296.38
713.61	295.50
713.95	294.61
714.28	293.75
714.61	292.86
714.95	292.03
715.28	291.17
715.61	290.29
715.95	289.42
716.28	288.58
716.61	287.76
716.95	286.95
717.28	286.26
717.61	285.50
717.94	284.79
718.28	283.96
718.61	283.21
718.94	282.50
719.27	281.79
719.61	281.18
719.94	280.55
720.27	279.85
720.60	279.18
720.94	278.62
721.27	278.01
721.60	277.45
721.93	276.86
722.27	276.32
722.60	275.77
722.93	275.17
723.26	274.63
723.59	274.07
723.93	273.55
724.26	273.01
724.59	272.40
724.92	271.86
725.25	271.35
725.59	270.87
725.92	270.35
726.25	269.88
726.58	269.39
726.91	268.88
727.24	268.44
727.57	268.01
727.91	267.49
728.24	267.04
728.57	266.55
728.90	266.09
729.23	265.62
729.56	265.21
729.89	264.79
730.22	264.31
730.55	263.85
730.89	263.39
731.22	262.94
731.55	262.56
731.88	262.12
732.21	261.70
732.54	261.25
732.87	260.86
733.20	260.47
733.53	260.08
733.86	259.72
734.19	259.31
734.52	258.90
734.85	258.56
735.18	258.14
735.51	257.76
735.84	257.40
736.17	257.07
736.50	256.66
736.83	256.42
737.16	256.10
737.49	255.76
737.82	255.42
738.15	255.06
738.48	254.71
738.81	254.41
739.14	254.07
739.47	253.76
739.80	253.43
740.13	253.10
740.46	252.76
740.79	252.42
741.12	252.09
741.45	251.80
741.78	251.42
742.11	251.12
742.44	250.77
742.77	250.49
743.10	250.17
743.43	249.83
743.75	249.43
744.08	249.26
744.41	248.98
744.74	248.69
745.07	248.40
745.40	248.16
745.73	247.92
746.06	247.66
746.39	247.39
746.71	247.10
747.04	246.83
747.37	246.55
747.70	246.32
748.03	246.08
748.36	245.84
748.68	245.62
749.01	245.35
749.34	245.19
749.67	244.94
750.00	244.73
750.33	244.60
750.65	244.38
750.98	244.02
751.31	243.82
751.64	243.61
751.97	243.47
752.29	243.21
752.62	242.95
752.95	242.71
753.28	242.46
753.60	242.28
753.93	242.07
754.26	241.82
754.59	241.58
754.91	241.36
755.24	241.17
755.57	240.95
755.90	240.78
756.22	240.55
756.55	240.34
756.88	240.15
757.20	239.91
757.53	239.74
757.86	239.60
758.19	239.42
758.51	239.24
758.84	239.03
759.17	238.87
759.49	238.70
759.82	238.61
760.15	238.48
760.47	238.34
760.80	238.23
761.13	238.14
761.45	237.98
761.78	237.87
762.11	237.71
762.43	237.61
762.76	237.47
763.08	237.37
763.41	237.22
763.74	237.08
764.06	236.93
764.39	236.82
764.71	236.69
765.04	236.56
765.37	236.46
765.69	236.33
766.02	236.21
766.34	236.10
766.67	235.96
767.00	235.85
767.32	235.76
767.65	235.71
767.97	235.63
768.30	235.52
768.62	235.39
768.95	235.31
769.27	235.17
769.60	235.09
769.92	234.97
770.25	234.87
770.57	234.74
770.90	234.65
771.22	234.51
771.55	234.39
771.87	234.32
772.20	234.22
772.52	234.20
772.85	234.26
773.17	234.16
773.50	234.06
773.82	233.99
774.15	233.87
774.47	233.68
774.80	233.58
775.12	233.51
775.45	233.43
775.77	233.31
776.09	233.26
776.42	233.17
776.74	233.10
777.07	233.02
777.39	232.95
777.72	232.88
778.04	232.82
778.36	232.76
778.69	232.69
779.01	232.61
779.33	232.46
779.66	232.22
779.98	232.16
780.31	232.11
780.63	232.06
780.95	232.02
781.28	231.99
781.60	231.93
781.92	231.84
782.25	231.76
782.57	231.72
782.89	231.60
783.22	231.49
783.54	231.43
783.86	231.41
784.19	231.34
784.51	231.29
784.83	231.21
785.16	231.14
785.48	231.05
785.80	231.03
786.12	230.95
786.45	230.94
786.77	230.86
787.09	230.83
787.42	230.69
787.74	230.62
788.06	230.58
788.38	230.48
788.71	230.45
789.03	230.41
789.35	230.39
789.67	230.35
789.99	230.35
790.32	230.27
790.64	230.20
790.96	230.26
791.28	230.21
791.61	230.19
791.93	230.18
792.25	230.12
792.57	230.15
792.89	230.12
793.21	230.05
793.54	230.05
793.86	229.96
794.18	229.97
794.50	229.92
794.82	229.85
795.14	229.85
795.47	229.82
795.79	229.80
796.11	229.70
796.43	229.72
796.75	229.67
797.07	229.65
797.39	229.63
797.71	229.52
798.04	229.49
798.36	229.48
798.68	229.42
799.00	229.42
799.32	229.33
799.64	229.34
799.96	229.34
800.28	229.30
800.60	229.26
800.92	229.25
801.24	229.18
801.56	229.20
801.89	229.15
802.21	229.13
802.53	229.07
802.85	229.08
803.17	229.06
803.49	229.05
803.81	229.03
804.13	229.00
804.45	229.00
804.77	228.94
805.09	228.91
805.41	228.90
805.73	228.84
806.05	228.78
806.37	228.72
806.69	228.70
807.01	228.70
807.33	228.71
807.65	228.65
807.97	228.69
808.28	228.64
808.60	228.62
808.92	228.57
809.24	228.61
809.56	228.58
809.88	228.53
810.20	228.51
810.52	228.50
810.84	228.46
811.16	228.41
811.48	228.41
811.80	228.41
812.12	228.39
812.43	228.42
812.75	228.42
813.07	228.41
813.39	228.39
813.71	228.32
814.03	228.31
814.35	228.27
814.67	228.24
814.98	228.23
815.30	228.21
815.62	228.22
815.94	228.14
816.26	228.19
816.58	228.15
816.89	228.12
817.21	228.07
817.53	228.12
817.85	228.10
818.17	228.08
818.48	228.04
818.80	228.03
819.12	228.01
819.44	227.97
819.76	227.92
820.07	227.90
820.39	227.90
820.71	227.90
821.03	227.89
821.34	227.87
821.66	227.86
821.98	227.90
822.30	227.85
822.61	227.89
822.93	227.83
823.25	227.81
823.57	227.79
823.88	227.82
824.20	227.74
824.52	227.73
824.83	227.72
825.15	227.69
825.47	227.66
825.79	227.61
826.10	227.55
826.42	227.55
826.74	227.53
827.05	227.48
827.37	227.43
827.69	227.39
828.00	227.37
828.32	227.36
828.64	227.30
828.95	227.33
829.27	227.29
829.58	227.23
829.90	227.23
830.22	227.23
830.53	227.18
830.85	227.13
831.17	227.10
831.48	227.08
831.80	227.04
832.11	226.99
832.43	226.97
832.75	226.96
833.06	226.99
833.38	226.95
833.69	226.94
834.01	226.94
834.32	226.94
834.64	226.90
834.96	226.89
835.27	226.87
835.59	226.81
835.90	226.80
836.22	226.83
836.53	226.81
836.85	226.76
837.16	226.87
837.48	226.89
837.79	226.93
838.11	226.91
838.42	226.91
838.74	226.93
839.05	226.92
839.37	226.97
839.68	226.90
840.00	226.89
840.31	226.89
840.63	226.88
840.94	226.88
841.26	226.88
841.57	226.85
841.88	226.85
842.20	226.83
842.51	226.80
842.83	226.75
843.14	226.82
843.46	226.82
843.77	226.74
844.08	226.72
844.40	226.68
844.71	226.68
845.03	226.70
845.34	226.70
845.65	226.73
845.97	226.70
846.28	226.70
846.60	226.75
846.91	226.76
847.22	226.75
847.54	226.74
847.85	226.76
848.16	226.77
848.48	226.75
848.79	226.79
849.10	226.81
849.42	226.89
849.73	226.81
850.04	226.81
850.36	226.80
850.67	226.83
850.98	226.82
851.30	226.82
851.61	226.83
851.92	226.83
852.23	226.85
852.55	226.87
852.86	226.88
853.17	226.86
853.49	226.86
853.80	226.86
854.11	226.88
854.42	226.89
854.74	226.92
855.05	226.91
855.36	226.87
855.67	226.83
855.99	226.80
856.30	226.89
856.61	226.90
856.92	226.90
857.23	226.91
857.55	226.92
857.86	226.93
858.17	226.92
858.48	226.92
858.79	226.89
859.11	226.89
859.42	226.88
859.73	226.86
860.04	226.86
860.35	226.84
860.66	226.80
860.98	226.81
861.29	226.82
861.60	226.82
861.91	226.85
862.22	226.88
862.53	226.88
862.84	226.78
863.16	226.76
863.47	226.72
863.78	226.67
864.09	226.67
864.40	226.66
864.71	226.65
865.02	226.61
865.33	226.57
865.64	226.54
865.95	226.50
866.27	226.54
866.58	226.51
866.89	226.55
867.20	226.52
867.51	226.48
867.82	226.45
868.13	226.45
868.44	226.41
868.75	226.42
869.06	226.41
869.37	226.40
869.68	226.38
869.99	226.36
870.30	226.37
870.61	226.33
870.92	226.29
871.23	226.25
871.54	226.27
871.85	226.27
872.16	226.28
872.47	226.30
872.78	226.21
873.09	226.21
873.40	226.17
873.71	226.17
874.02	226.14
874.33	226.11
874.64	226.11
874.95	226.10
875.26	226.06
875.56	226.03
875.87	226.02
876.18	226.00
876.49	226.14
876.80	226.14
877.11	226.11
877.42	226.11
877.73	226.12
878.04	226.07
878.35	226.07
878.66	226.10
878.96	226.06
879.27	226.13
879.58	226.11
879.89	226.08
880.20	226.09
880.51	226.07
880.82	226.06
881.12	226.05
881.43	226.05
881.74	226.03
882.05	226.03
882.36	226.04
882.67	226.07
882.97	225.94
883.28	225.92
883.59	225.94
883.90	225.97
884.21	225.98
884.51	226.01
884.82	225.99
885.13	225.95
885.44	225.98
885.74	225.94
886.05	225.97
886.36	226.00
886.67	225.99
886.98	226.08
887.28	226.09
887.59	226.09
887.90	226.12
888.20	226.13
888.51	226.16
888.82	226.15
889.13	226.12
889.43	226.20
889.74	226.21
890.05	226.19
890.35	226.17
890.66	226.16
890.97	226.17
891.28	226.20
891.58	226.21
891.89	226.19
892.20	226.19
892.50	226.20
892.81	226.20
893.12	226.19
893.42	226.14
893.73	226.14
894.04	226.15
894.34	226.12
894.65	226.09
894.95	226.09
895.26	226.08
895.57	226.11
895.87	226.03
896.18	226.07
896.48	226.10
896.79	226.14
897.10	226.17
897.40	226.19
897.71	226.20
898.01	226.17
898.32	226.20
898.63	226.23
898.93	226.20
899.24	226.19
899.54	226.21
899.85	226.23
900.15	226.26
900.46	226.25
900.76	226.27
901.07	226.29
901.38	226.27
901.68	226.31
901.99	226.27
902.29	226.28
902.60	226.28
902.90	226.24
903.21	226.20
903.51	226.16
903.82	226.14
904.12	226.12
904.43	226.13
904.73	226.11
905.03	226.08
905.34	226.16
905.64	226.17
905.95	226.14
906.25	226.11
906.56	226.08
906.86	226.09
907.17	226.06
907.47	226.05
907.77	226.05
908.08	225.99
908.38	225.98
908.69	226.00
908.99	226.00
909.30	226.03
909.60	226.03
909.90	226.05
910.21	226.04
910.51	226.05
910.81	226.04
911.12	226.06
911.42	226.07
911.73	225.98
912.03	225.98
912.33	226.01
912.64	226.02
912.94	226.03
913.24	226.04
913.55	226.06
913.85	226.06
914.15	226.07
914.46	226.08
914.76	226.12
915.06	226.11
915.37	226.07
915.67	226.08
915.97	226.08
916.27	226.05
916.58	226.06
916.88	226.05
917.18	226.08
917.49	226.12
917.79	226.11
918.09	226.14
918.39	226.17
918.70	226.16
919.00	226.15
919.30	226.19
919.60	226.17
919.91	226.12
920.21	226.14
920.51	226.14
920.81	226.18
921.12	226.19
921.42	226.14
921.72	226.15
922.02	226.12
922.32	226.12
922.63	226.12
922.93	226.17
923.23	226.16
923.53	226.12
923.83	226.05
924.13	226.05
924.44	226.04
924.74	226.05
925.04	226.08
925.34	226.10
925.64	226.08
925.94	226.07
926.24	226.14
926.55	226.13
926.85	226.15
927.15	226.10
927.45	226.10
927.75	226.16
928.05	226.18
928.35	226.20
928.65	226.26
928.95	226.25
929.26	226.22
929.56	226.27
929.86	226.31
930.16	226.33
930.46	226.34
930.76	226.33
931.06	226.28
931.36	226.22
931.66	226.22
931.96	226.21
932.26	226.20
932.56	226.19
932.86	226.18
933.16	226.16
933.46	226.18
933.76	226.21
934.06	226.20
934.36	226.19
934.66	226.19
934.96	226.17
935.26	226.21
935.56	226.21
935.86	226.16
936.16	226.14
936.46	226.11
936.76	226.08
937.06	226.08
937.36	226.08
937.66	226.13
937.96	226.12
938.26	226.11
938.56	226.13
938.86	226.11
939.16	226.11
939.46	226.12
939.76	226.14
940.06	226.10
940.35	226.08
940.65	226.08
940.95	226.05
941.25	226.03
941.55	225.99
941.85	225.97
942.15	225.98
942.45	226.04
942.75	226.06
943.04	226.05
943.34	226.09
943.64	226.12
943.94	226.09
944.24	226.08
944.54	226.10
944.84	226.11
945.13	226.09
945.43	226.08
945.73	226.08
946.03	226.06
946.33	226.07
946.62	226.08
946.92	226.07
947.22	226.09
947.52	226.09
947.82	226.12
948.11	226.11
948.41	226.13
948.71	226.07
949.01	226.08
949.31	226.08
949.60	226.07
949.90	226.07
950.20	226.07
950.50	226.09
950.79	226.07
951.09	226.08
951.39	226.06
951.69	226.09
951.98	226.10
952.28	226.11
952.58	226.09
952.87	226.09
953.17	226.06
953.47	226.06
953.76	226.06
954.06	226.01
954.36	226.01
954.66	225.98
954.95	225.99
955.25	225.98
955.55	226.00
955.84	225.98
956.14	225.99
956.44	226.00
956.73	225.97
957.03	225.97
957.32	225.95
957.62	225.96
957.92	225.95
958.21	225.93
958.51	226.02
958.81	226.03
959.10	226.00
959.40	226.06
959.69	226.05
959.99	226.07
960.29	226.07
960.58	226.06
960.88	226.10
961.17	226.07
961.47	226.06
961.76	226.00
962.06	226.02
962.36	226.00
962.65	225.99
962.95	226.00
963.24	225.98
963.54	225.99
963.83	226.00
964.13	226.00
964.42	225.97
964.72	225.89
965.01	225.89
965.31	225.90
965.60	225.87
965.90	225.95
966.19	225.93
966.49	225.93
966.78	225.97
967.08	225.92
967.37	225.91
967.67	225.90
967.96	225.94
968.26	225.94
968.55	225.95
968.85	225.94
969.14	225.91
969.43	225.92
969.73	225.86
970.02	225.87
970.32	225.86
970.61	225.88
970.91	225.87
971.20	225.88
971.49	225.86
971.79	225.84
972.08	225.76
972.38	225.74
972.67	225.76
972.96	225.74
973.26	225.78
973.55	225.82
973.85	225.81
974.14	225.80
974.43	225.81
974.73	225.80
975.02	225.79
975.31	225.82
975.61	225.78
975.90	225.80
976.19	225.79
976.49	225.79
976.78	225.78
977.07	225.75
977.37	225.77
977.66	225.78
977.95	225.77
978.24	225.80
978.54	225.85
978.83	225.80
979.12	225.79
979.42	225.78
979.71	225.75
980.00	225.81
980.29	225.85
980.59	225.83
980.88	225.85
981.17	225.84
981.46	225.83
981.76	225.86
982.05	225.89
982.34	225.90
982.63	225.91
982.93	225.91
983.22	225.95
983.51	225.92
983.80	225.93
984.09	225.95
984.39	225.91
984.68	225.89
984.97	225.92
985.26	225.90
985.55	225.90
985.85	225.91
986.14	225.87
986.43	225.85
986.72	225.86
987.01	225.83
987.30	225.84
987.59	225.84
987.89	225.85
988.18	225.83
988.47	225.81
988.76	225.79
989.05	225.78
989.34	225.74
989.63	225.76
989.92	225.74
990.22	225.73
990.51	225.75
990.80	225.72
991.09	225.73
991.38	225.78
991.67	225.76
991.96	225.75
992.25	225.79
992.54	225.80
992.83	225.77
993.12	225.76
993.41	225.77
993.70	225.83
993.99	225.84
994.28	225.84
994.58	225.85
994.87	225.84
995.16	225.84
995.45	225.82
995.74	225.79
996.03	225.83
996.32	225.86
996.61	225.87
996.90	225.88
997.19	225.86
997.48	225.86
997.77	225.86
998.06	225.88
998.34	225.83
998.63	225.82
998.92	225.81
999.21	225.82
999.50	225.85
999.79	225.78
1000.08	225.77
1000.37	225.76
1000.66	225.77
1000.95	225.80
1001.24	225.80
1001.53	225.85
1001.82	225.84
1002.11	225.78
1002.40	225.78
1002.68	225.85
1002.97	225.92
1003.26	225.94
1003.55	225.91
1003.84	225.93
1004.13	225.96
1004.42	225.95
1004.71	225.92
1004.99	225.92
1005.28	225.96
1005.57	225.94
1005.86	225.97
1006.15	225.97
1006.44	225.99
1006.72	226.00
1007.01	225.98
1007.30	226.00
1007.59	225.98
1007.88	226.01
1008.17	226.03
1008.45	226.03
1008.74	225.94
1009.03	225.90
1009.32	225.89
1009.60	225.92
1009.89	225.91
1010.18	225.87
1010.47	225.89
1010.76	225.93
1011.04	225.95
1011.33	225.96
1011.62	225.96
1011.91	225.96
1012.19	225.98
1012.48	225.97
1012.77	225.99
1013.05	226.07
1013.34	226.06
1013.63	226.05
1013.92	226.04
1014.20	226.06
1014.49	226.07
1014.78	226.11
1015.06	226.07
1015.35	226.07
1015.64	226.07
1015.92	226.08
1016.21	226.09
1016.50	226.09
1016.78	226.10
1017.07	226.10
1017.36	226.08
1017.64	226.07
1017.93	226.05
1018.22	226.07
1018.50	226.08
1018.79	226.04
1019.08	225.99
1019.36	226.02
1019.65	226.02
1019.93	226.05
1020.22	226.00
1020.51	226.06
1020.79	226.05
1021.08	226.22
1021.36	225.97
1021.65	226.01
1021.94	226.33
1022.22	226.28
1022.51	225.79
1022.79	226.42
1023.08	225.31
1023.36	227.32
1023.65	226.02
>>>>>End Processed Spectral Data<<<<<
