SpectraSuite Data File
++++++++++++++++++++++++++++++++++++
Date: Fri Feb 01 18:07:33 EST 2013
User: group
Dark Spectrum Present: No
Reference Spectrum Present: No
Number of Sampled Component Spectra: 1
Spectrometers: USB2E7196
Integration Time (usec): 35000 (USB2E7196)
Spectra Averaged: 100 (USB2E7196)
Boxcar Smoothing: 10 (USB2E7196)
Correct for Electrical Dark: No (USB2E7196)
Strobe/Lamp Enabled: No (USB2E7196)
Correct for Detector Non-linearity: No (USB2E7196)
Correct for Stray Light: No (USB2E7196)
Number of Pixels in Processed Spectrum: 2048
>>>>>Begin Processed Spectral Data<<<<<
339.09	0.00
339.48	212.80
339.86	213.93
340.24	215.59
340.63	217.03
341.01	219.66
341.39	220.32
341.78	220.97
342.16	222.42
342.54	222.97
342.93	211.31
343.31	222.00
343.69	222.54
344.07	223.02
344.46	223.45
344.84	223.84
345.22	224.08
345.60	224.30
345.99	224.48
346.37	224.65
346.75	224.73
347.13	224.77
347.52	224.83
347.90	224.91
348.28	224.98
348.66	225.00
349.05	225.01
349.43	225.06
349.81	225.09
350.19	225.14
350.57	225.21
350.96	225.32
351.34	225.41
351.72	225.53
352.10	225.64
352.48	225.73
352.87	225.78
353.25	225.87
353.63	225.96
354.01	226.06
354.39	226.12
354.77	226.21
355.15	226.35
355.54	226.41
355.92	226.47
356.30	226.53
356.68	226.69
357.06	226.75
357.44	226.83
357.82	226.92
358.20	227.01
358.58	227.07
358.97	227.14
359.35	227.22
359.73	227.28
360.11	227.35
360.49	227.41
360.87	227.49
361.25	227.58
361.63	227.63
362.01	227.69
362.39	227.71
362.77	227.74
363.15	227.77
363.53	227.80
363.91	227.82
364.29	227.82
364.67	227.71
365.05	227.77
365.43	227.80
365.81	227.82
366.19	227.86
366.57	227.92
366.95	227.91
367.33	227.87
367.71	227.85
368.09	227.87
368.47	227.88
368.85	227.86
369.23	227.82
369.61	227.78
369.99	227.79
370.37	227.77
370.75	227.82
371.13	227.77
371.51	227.73
371.89	227.71
372.27	227.71
372.65	227.69
373.03	227.63
373.41	227.56
373.78	227.52
374.16	227.43
374.54	227.34
374.92	227.26
375.30	227.21
375.68	227.14
376.06	227.02
376.44	226.91
376.82	226.86
377.19	226.79
377.57	226.73
377.95	226.60
378.33	226.54
378.71	226.40
379.09	226.35
379.47	226.33
379.84	226.27
380.22	226.18
380.60	226.09
380.98	226.02
381.36	225.96
381.73	225.85
382.11	225.81
382.49	225.76
382.87	225.68
383.25	225.63
383.62	225.69
384.00	225.65
384.38	225.63
384.76	225.58
385.13	225.58
385.51	225.54
385.89	225.51
386.27	225.48
386.64	225.48
387.02	225.45
387.40	225.38
387.78	225.33
388.15	225.29
388.53	225.27
388.91	225.24
389.29	225.20
389.66	225.20
390.04	225.16
390.42	225.14
390.79	225.13
391.17	225.11
391.55	224.97
391.92	224.94
392.30	224.93
392.68	224.93
393.05	224.91
393.43	224.90
393.81	224.91
394.18	224.89
394.56	224.89
394.94	224.89
395.31	224.90
395.69	224.98
396.06	225.06
396.44	225.08
396.82	225.11
397.19	225.22
397.57	225.26
397.95	225.31
398.32	225.34
398.70	225.36
399.07	225.45
399.45	225.50
399.82	225.57
400.20	225.65
400.58	225.71
400.95	225.77
401.33	225.86
401.70	226.01
402.08	226.09
402.45	226.18
402.83	226.31
403.20	226.45
403.58	226.52
403.95	226.64
404.33	226.82
404.71	226.98
405.08	227.17
405.46	227.29
405.83	227.47
406.21	227.66
406.58	227.90
406.96	228.08
407.33	228.31
407.70	228.57
408.08	228.87
408.45	229.14
408.83	229.38
409.20	229.67
409.58	229.89
409.95	230.24
410.33	230.61
410.70	230.90
411.08	231.26
411.45	231.64
411.82	232.02
412.20	232.43
412.57	232.96
412.95	233.36
413.32	233.92
413.69	234.43
414.07	234.99
414.44	235.58
414.82	236.23
415.19	236.96
415.56	237.67
415.94	238.40
416.31	239.24
416.68	240.11
417.06	241.06
417.43	241.96
417.81	242.95
418.18	243.99
418.55	245.10
418.93	246.28
419.30	247.49
419.67	248.73
420.04	250.03
420.42	251.33
420.79	252.85
421.16	254.38
421.54	255.98
421.91	257.61
422.28	259.33
422.66	261.11
423.03	262.86
423.40	264.66
423.77	266.56
424.15	268.48
424.52	270.48
424.89	272.62
425.26	274.77
425.64	276.79
426.01	278.96
426.38	281.21
426.75	283.46
427.13	285.81
427.50	288.27
427.87	290.84
428.24	293.40
428.61	295.85
428.99	298.49
429.36	301.41
429.73	304.25
430.10	307.02
430.47	309.84
430.85	312.76
431.22	315.80
431.59	319.06
431.96	322.15
432.33	325.57
432.70	328.81
433.08	332.59
433.45	336.12
433.82	339.66
434.19	343.62
434.56	347.43
434.93	351.05
435.30	354.63
435.68	358.58
436.05	362.44
436.42	366.26
436.79	369.70
437.16	373.36
437.53	377.23
437.90	381.04
438.27	384.78
438.64	388.60
439.01	392.13
439.38	395.20
439.75	398.12
440.13	401.55
440.50	404.76
440.87	407.32
441.24	410.05
441.61	413.02
441.98	415.09
442.35	417.60
442.72	420.14
443.09	422.61
443.46	423.97
443.83	424.80
444.20	425.48
444.57	426.63
444.94	427.07
445.31	427.56
445.68	428.03
446.05	428.11
446.42	427.62
446.79	427.08
447.16	426.50
447.53	426.13
447.90	424.53
448.27	423.01
448.64	420.85
449.01	419.26
449.37	416.55
449.74	413.97
450.11	410.88
450.48	407.52
450.85	404.11
451.22	401.20
451.59	398.46
451.96	395.85
452.33	392.33
452.70	389.09
453.07	385.19
453.43	381.28
453.80	377.53
454.17	373.93
454.54	370.47
454.91	366.76
455.28	363.10
455.65	359.73
456.02	356.26
456.38	353.38
456.75	349.69
457.12	346.61
457.49	343.55
457.86	340.61
458.23	338.01
458.59	335.20
458.96	332.31
459.33	329.76
459.70	327.14
460.07	325.06
460.43	322.69
460.80	320.44
461.17	318.44
461.54	316.36
461.91	314.37
462.27	312.37
462.64	310.63
463.01	308.78
463.38	306.95
463.74	305.15
464.11	303.50
464.48	302.13
464.85	300.60
465.21	299.42
465.58	298.13
465.95	296.65
466.32	295.35
466.68	294.10
467.05	292.85
467.42	291.66
467.78	290.36
468.15	289.13
468.52	288.25
468.88	287.06
469.25	286.00
469.62	285.13
469.98	284.22
470.35	283.33
470.72	282.44
471.08	281.58
471.45	280.81
471.82	280.04
472.18	279.22
472.55	278.61
472.92	277.81
473.28	277.14
473.65	276.50
474.02	275.91
474.38	275.37
474.75	274.87
475.11	274.33
475.48	273.94
475.85	273.59
476.21	273.21
476.58	272.93
476.94	272.65
477.31	272.38
477.67	272.06
478.04	271.82
478.41	271.67
478.77	271.57
479.14	271.41
479.50	271.34
479.87	271.35
480.23	271.40
480.60	271.42
480.96	271.47
481.33	271.61
481.69	271.74
482.06	271.86
482.42	272.04
482.79	272.24
483.15	272.49
483.52	272.87
483.88	273.18
484.25	273.54
484.61	273.98
484.98	274.39
485.34	274.95
485.71	275.55
486.07	276.16
486.44	276.71
486.80	277.40
487.17	278.13
487.53	278.95
487.90	279.77
488.26	280.72
488.62	281.72
488.99	282.75
489.35	283.89
489.72	285.09
490.08	286.34
490.44	287.65
490.81	289.09
491.17	290.49
491.54	292.07
491.90	293.68
492.26	295.38
492.63	297.22
492.99	299.11
493.36	301.11
493.72	303.27
494.08	305.51
494.45	307.90
494.81	310.43
495.17	313.03
495.54	315.74
495.90	318.61
496.26	321.56
496.63	324.70
496.99	327.99
497.35	331.46
497.72	335.06
498.08	338.80
498.44	342.70
498.80	346.86
499.17	351.15
499.53	355.59
499.89	360.24
500.26	365.03
500.62	370.01
500.98	375.27
501.34	380.66
501.71	386.37
502.07	392.18
502.43	398.18
502.79	404.35
503.16	410.88
503.52	417.55
503.88	424.39
504.24	431.46
504.60	438.73
504.97	446.31
505.33	454.14
505.69	462.38
506.05	470.66
506.41	479.09
506.78	487.76
507.14	496.82
507.50	506.14
507.86	515.79
508.22	525.63
508.59	535.54
508.95	545.81
509.31	556.28
509.67	567.08
510.03	578.10
510.39	589.39
510.75	600.94
511.12	612.69
511.48	624.84
511.84	637.20
512.20	649.61
512.56	662.47
512.92	675.49
513.28	688.81
513.64	702.24
514.00	715.95
514.37	729.88
514.73	744.03
515.09	758.20
515.45	772.53
515.81	787.19
516.17	802.27
516.53	817.61
516.89	833.01
517.25	848.35
517.61	864.00
517.97	879.74
518.33	895.42
518.69	911.43
519.05	927.65
519.41	944.09
519.77	961.05
520.13	977.85
520.49	994.66
520.85	1011.43
521.21	1028.60
521.57	1046.33
521.93	1063.61
522.29	1081.40
522.65	1099.16
523.01	1116.97
523.37	1134.68
523.73	1152.54
524.09	1170.21
524.45	1188.12
524.81	1206.51
525.17	1224.91
525.53	1243.61
525.89	1262.30
526.25	1281.02
526.61	1299.26
526.97	1317.85
527.33	1336.24
527.68	1354.74
528.04	1373.13
528.40	1391.61
528.76	1410.67
529.12	1429.19
529.48	1448.18
529.84	1466.13
530.20	1484.72
530.56	1503.79
530.91	1523.27
531.27	1542.10
531.63	1560.59
531.99	1579.21
532.35	1597.40
532.71	1615.54
533.07	1633.88
533.42	1651.85
533.78	1670.03
534.14	1688.58
534.50	1706.16
534.86	1724.23
535.21	1741.48
535.57	1759.66
535.93	1777.45
536.29	1794.39
536.65	1811.78
537.00	1828.65
537.36	1846.25
537.72	1862.94
538.08	1879.70
538.44	1895.76
538.79	1911.86
539.15	1927.72
539.51	1943.73
539.87	1960.27
540.22	1976.27
540.58	1992.45
540.94	2008.19
541.29	2023.27
541.65	2038.26
542.01	2053.77
542.37	2068.42
542.72	2083.39
543.08	2097.59
543.44	2112.43
543.79	2126.07
544.15	2139.21
544.51	2153.10
544.87	2166.44
545.22	2179.71
545.58	2192.06
545.94	2203.93
546.29	2215.95
546.65	2228.12
547.01	2239.86
547.36	2250.63
547.72	2261.43
548.07	2271.44
548.43	2281.63
548.79	2291.82
549.14	2301.44
549.50	2310.74
549.86	2320.46
550.21	2329.90
550.57	2339.03
550.92	2347.52
551.28	2356.39
551.64	2365.57
551.99	2374.16
552.35	2382.37
552.70	2390.42
553.06	2398.43
553.41	2406.90
553.77	2415.02
554.13	2423.04
554.48	2431.02
554.84	2438.70
555.19	2445.58
555.55	2452.37
555.90	2458.75
556.26	2465.48
556.61	2471.83
556.97	2477.97
557.32	2483.74
557.68	2489.36
558.03	2495.40
558.39	2500.78
558.74	2507.28
559.10	2512.84
559.45	2518.15
559.81	2523.93
560.16	2529.47
560.52	2534.26
560.87	2539.04
561.23	2543.13
561.58	2547.56
561.94	2551.43
562.29	2554.95
562.64	2559.05
563.00	2562.97
563.35	2567.80
563.71	2572.38
564.06	2577.01
564.42	2581.29
564.77	2585.19
565.12	2588.87
565.48	2591.99
565.83	2595.07
566.19	2597.57
566.54	2599.26
566.89	2601.44
567.25	2603.03
567.60	2605.32
567.96	2608.11
568.31	2610.00
568.66	2612.27
569.02	2613.74
569.37	2614.96
569.72	2616.73
570.08	2617.80
570.43	2618.81
570.78	2619.22
571.14	2618.15
571.49	2617.39
571.84	2617.76
572.20	2617.20
572.55	2616.71
572.90	2615.45
573.26	2614.54
573.61	2613.18
573.96	2612.13
574.31	2609.43
574.67	2606.82
575.02	2603.39
575.37	2600.06
575.72	2596.38
576.08	2592.80
576.43	2589.60
576.78	2586.14
577.13	2583.02
577.49	2579.98
577.84	2576.44
578.19	2572.59
578.54	2569.11
578.90	2564.79
579.25	2558.85
579.60	2553.80
579.95	2548.56
580.30	2543.37
580.66	2537.93
581.01	2532.71
581.36	2527.37
581.71	2523.22
582.06	2518.55
582.42	2513.76
582.77	2508.21
583.12	2503.38
583.47	2498.57
583.82	2493.31
584.17	2487.46
584.53	2481.54
584.88	2475.40
585.23	2469.11
585.58	2463.01
585.93	2457.11
586.28	2451.85
586.63	2446.43
586.98	2440.68
587.34	2435.39
587.69	2430.03
588.04	2424.29
588.39	2418.04
588.74	2410.90
589.09	2403.98
589.44	2396.42
589.79	2389.60
590.14	2383.26
590.49	2375.73
590.84	2368.48
591.19	2361.65
591.54	2354.39
591.89	2346.27
592.25	2338.68
592.60	2330.56
592.95	2322.08
593.30	2313.58
593.65	2305.06
594.00	2296.95
594.35	2288.72
594.70	2279.56
595.05	2271.40
595.40	2263.09
595.75	2254.51
596.10	2247.46
596.45	2239.74
596.80	2232.64
597.15	2225.18
597.50	2217.18
597.85	2209.66
598.19	2201.92
598.54	2193.75
598.89	2186.02
599.24	2179.03
599.59	2171.41
599.94	2164.28
600.29	2156.85
600.64	2149.18
600.99	2140.55
601.34	2132.58
601.69	2124.45
602.04	2116.45
602.39	2107.81
602.74	2099.78
603.08	2091.93
603.43	2083.90
603.78	2075.26
604.13	2066.76
604.48	2058.18
604.83	2050.10
605.18	2042.37
605.53	2033.20
605.87	2023.81
606.22	2015.42
606.57	2006.21
606.92	1997.34
607.27	1988.92
607.62	1980.86
607.96	1972.52
608.31	1964.79
608.66	1955.97
609.01	1947.18
609.36	1938.19
609.70	1928.83
610.05	1919.44
610.40	1910.33
610.75	1900.60
611.10	1891.54
611.44	1881.65
611.79	1872.29
612.14	1862.07
612.49	1851.05
612.83	1841.03
613.18	1831.45
613.53	1821.89
613.88	1811.71
614.22	1802.06
614.57	1791.84
614.92	1782.24
615.27	1773.29
615.61	1763.51
615.96	1753.94
616.31	1744.85
616.65	1736.26
617.00	1727.40
617.35	1718.22
617.70	1708.51
618.04	1698.50
618.39	1688.75
618.74	1679.75
619.08	1669.87
619.43	1660.82
619.78	1652.63
620.12	1644.27
620.47	1635.38
620.82	1625.62
621.16	1616.79
621.51	1607.65
621.85	1598.68
622.20	1588.66
622.55	1578.61
622.89	1569.33
623.24	1560.29
623.59	1551.40
623.93	1542.62
624.28	1533.98
624.62	1525.04
624.97	1516.38
625.32	1508.35
625.66	1500.07
626.01	1491.63
626.35	1482.96
626.70	1473.81
627.04	1464.62
627.39	1455.30
627.73	1446.52
628.08	1438.39
628.43	1430.03
628.77	1421.50
629.12	1412.62
629.46	1404.18
629.81	1395.35
630.15	1386.72
630.50	1377.96
630.84	1368.37
631.19	1358.96
631.53	1350.12
631.88	1341.12
632.22	1332.23
632.57	1323.58
632.91	1314.67
633.26	1305.92
633.60	1296.99
633.95	1288.61
634.29	1280.45
634.64	1272.60
634.98	1263.96
635.32	1255.45
635.67	1247.46
636.01	1239.56
636.36	1231.49
636.70	1223.76
637.05	1216.04
637.39	1208.40
637.73	1200.79
638.08	1193.92
638.42	1186.80
638.77	1179.19
639.11	1171.52
639.45	1163.98
639.80	1156.20
640.14	1148.65
640.49	1140.98
640.83	1133.60
641.17	1126.27
641.52	1118.79
641.86	1111.14
642.20	1104.29
642.55	1096.86
642.89	1089.28
643.23	1081.64
643.58	1074.90
643.92	1067.60
644.26	1060.61
644.61	1053.45
644.95	1046.40
645.29	1038.66
645.64	1030.72
645.98	1023.26
646.32	1016.49
646.66	1009.44
647.01	1002.59
647.35	995.90
647.69	988.95
648.04	982.52
648.38	975.83
648.72	968.85
649.06	961.84
649.41	954.89
649.75	948.02
650.09	941.12
650.43	934.28
650.78	927.04
651.12	920.07
651.46	913.38
651.80	906.83
652.14	900.49
652.49	894.28
652.83	888.38
653.17	881.90
653.51	875.13
653.85	868.81
654.20	862.39
654.54	855.39
654.88	848.76
655.22	841.86
655.56	835.18
655.90	828.77
656.25	822.65
656.59	816.44
656.93	810.57
657.27	804.54
657.61	798.31
657.95	792.46
658.29	786.63
658.64	780.44
658.98	774.25
659.32	767.97
659.66	761.90
660.00	755.69
660.34	749.89
660.68	744.25
661.02	738.46
661.36	732.89
661.70	727.66
662.05	722.53
662.39	717.52
662.73	712.32
663.07	707.23
663.41	702.11
663.75	696.95
664.09	691.61
664.43	686.51
664.77	681.73
665.11	676.78
665.45	671.96
665.79	667.26
666.13	662.44
666.47	657.72
666.81	652.89
667.15	648.12
667.49	643.55
667.83	639.10
668.17	634.51
668.51	629.79
668.85	625.21
669.19	620.75
669.53	616.40
669.87	611.96
670.21	607.72
670.55	603.49
670.89	599.43
671.23	595.46
671.57	591.42
671.91	587.33
672.25	583.26
672.58	579.14
672.92	575.16
673.26	571.51
673.60	567.77
673.94	564.19
674.28	560.79
674.62	557.36
674.96	553.75
675.30	550.41
675.64	547.09
675.97	543.85
676.31	540.59
676.65	537.20
676.99	534.00
677.33	530.67
677.67	527.41
678.01	523.95
678.34	520.49
678.68	517.23
679.02	513.92
679.36	510.70
679.70	507.57
680.04	504.46
680.37	501.15
680.71	497.92
681.05	494.95
681.39	491.84
681.73	488.82
682.06	485.97
682.40	483.02
682.74	480.01
683.08	477.01
683.42	473.99
683.75	471.05
684.09	468.11
684.43	465.23
684.77	462.37
685.10	459.63
685.44	456.97
685.78	454.18
686.12	451.59
686.45	448.89
686.79	446.19
687.13	443.54
687.46	440.98
687.80	438.45
688.14	435.75
688.48	433.28
688.81	430.61
689.15	427.98
689.49	425.42
689.82	423.03
690.16	420.58
690.50	418.28
690.83	416.02
691.17	413.67
691.51	411.45
691.84	409.30
692.18	407.07
692.52	404.80
692.85	402.57
693.19	400.35
693.52	398.20
693.86	396.12
694.20	394.04
694.53	391.94
694.87	389.80
695.21	387.73
695.54	385.64
695.88	383.68
696.21	381.72
696.55	379.77
696.88	377.75
697.22	375.76
697.56	373.92
697.89	372.01
698.23	370.18
698.56	368.30
698.90	366.45
699.23	364.50
699.57	362.66
699.90	360.88
700.24	359.08
700.58	357.35
700.91	355.55
701.25	353.89
701.58	352.32
701.92	350.74
702.25	349.17
702.59	347.58
702.92	346.03
703.26	344.55
703.59	343.04
703.93	341.69
704.26	340.27
704.60	338.73
704.93	337.22
705.26	335.76
705.60	334.33
705.93	332.96
706.27	331.73
706.60	330.51
706.94	329.25
707.27	327.91
707.61	326.66
707.94	325.52
708.27	324.26
708.61	322.97
708.94	321.79
709.28	320.61
709.61	319.49
709.94	318.36
710.28	317.13
710.61	316.01
710.95	314.76
711.28	313.70
711.61	312.59
711.95	311.49
712.28	310.37
712.61	309.26
712.95	308.14
713.28	307.17
713.61	306.09
713.95	305.04
714.28	304.06
714.61	303.02
714.95	302.02
715.28	301.02
715.61	300.02
715.95	299.01
716.28	297.98
716.61	297.01
716.95	296.01
717.28	295.10
717.61	294.17
717.94	293.33
718.28	292.41
718.61	291.58
718.94	290.78
719.27	290.03
719.61	289.28
719.94	288.52
720.27	287.64
720.60	286.88
720.94	286.14
721.27	285.47
721.60	284.79
721.93	284.07
722.27	283.42
722.60	282.78
722.93	282.14
723.26	281.55
723.59	280.91
723.93	280.27
724.26	279.63
724.59	278.97
724.92	278.35
725.25	277.76
725.59	277.15
725.92	276.54
726.25	275.93
726.58	275.36
726.91	274.77
727.24	274.24
727.57	273.70
727.91	273.12
728.24	272.58
728.57	272.00
728.90	271.50
729.23	270.90
729.56	270.39
729.89	269.81
730.22	269.23
730.55	268.69
730.89	268.20
731.22	267.69
731.55	267.21
731.88	266.70
732.21	266.21
732.54	265.73
732.87	265.23
733.20	264.74
733.53	264.25
733.86	263.82
734.19	263.31
734.52	262.83
734.85	262.48
735.18	261.97
735.51	261.56
735.84	261.08
736.17	260.68
736.50	260.23
736.83	259.97
737.16	259.59
737.49	259.18
737.82	258.77
738.15	258.38
738.48	257.98
738.81	257.59
739.14	257.16
739.47	256.78
739.80	256.45
740.13	256.10
740.46	255.74
740.79	255.34
741.12	255.01
741.45	254.64
741.78	254.20
742.11	253.88
742.44	253.51
742.77	253.19
743.10	252.87
743.43	252.52
743.75	252.06
744.08	251.86
744.41	251.54
744.74	251.25
745.07	250.92
745.40	250.62
745.73	250.33
746.06	250.03
746.39	249.71
746.71	249.40
747.04	249.12
747.37	248.82
747.70	248.56
748.03	248.28
748.36	248.06
748.68	247.79
749.01	247.48
749.34	247.22
749.67	246.96
750.00	246.67
750.33	246.44
750.65	246.20
750.98	245.84
751.31	245.58
751.64	245.31
751.97	245.12
752.29	244.89
752.62	244.62
752.95	244.40
753.28	244.18
753.60	243.92
753.93	243.70
754.26	243.43
754.59	243.17
754.91	242.92
755.24	242.64
755.57	242.41
755.90	242.21
756.22	241.98
756.55	241.72
756.88	241.51
757.20	241.25
757.53	241.02
757.86	240.81
758.19	240.64
758.51	240.44
758.84	240.20
759.17	239.98
759.49	239.77
759.82	239.62
760.15	239.42
760.47	239.27
760.80	239.03
761.13	238.93
761.45	238.74
761.78	238.53
762.11	238.38
762.43	238.18
762.76	237.97
763.08	237.84
763.41	237.71
763.74	237.51
764.06	237.37
764.39	237.19
764.71	237.01
765.04	236.85
765.37	236.70
765.69	236.53
766.02	236.37
766.34	236.24
766.67	236.07
767.00	235.95
767.32	235.83
767.65	235.79
767.97	235.67
768.30	235.55
768.62	235.46
768.95	235.29
769.27	235.20
769.60	235.10
769.92	234.93
770.25	234.76
770.57	234.64
770.90	234.50
771.22	234.39
771.55	234.30
771.87	234.17
772.20	234.06
772.52	234.03
772.85	234.04
773.17	233.92
773.50	233.77
773.82	233.67
774.15	233.55
774.47	233.38
774.80	233.26
775.12	233.17
775.45	233.08
775.77	233.00
776.09	232.89
776.42	232.80
776.74	232.76
777.07	232.72
777.39	232.61
777.72	232.54
778.04	232.46
778.36	232.34
778.69	232.28
779.01	232.16
779.33	231.99
779.66	231.80
779.98	231.73
780.31	231.70
780.63	231.64
780.95	231.55
781.28	231.47
781.60	231.38
781.92	231.32
782.25	231.23
782.57	231.18
782.89	231.14
783.22	231.07
783.54	230.99
783.86	230.94
784.19	230.93
784.51	230.91
784.83	230.84
785.16	230.85
785.48	230.78
785.80	230.78
786.12	230.76
786.45	230.71
786.77	230.67
787.09	230.59
787.42	230.47
787.74	230.42
788.06	230.38
788.38	230.33
788.71	230.25
789.03	230.20
789.35	230.15
789.67	230.09
789.99	230.08
790.32	230.02
790.64	229.96
790.96	229.95
791.28	229.88
791.61	229.81
791.93	229.74
792.25	229.69
792.57	229.70
792.89	229.61
793.21	229.57
793.54	229.52
793.86	229.48
794.18	229.46
794.50	229.44
794.82	229.40
795.14	229.36
795.47	229.34
795.79	229.31
796.11	229.25
796.43	229.17
796.75	229.13
797.07	229.09
797.39	229.04
797.71	228.95
798.04	228.91
798.36	228.92
798.68	228.88
799.00	228.85
799.32	228.75
799.64	228.74
799.96	228.73
800.28	228.69
800.60	228.66
800.92	228.67
801.24	228.61
801.56	228.58
801.89	228.53
802.21	228.47
802.53	228.42
802.85	228.41
803.17	228.43
803.49	228.36
803.81	228.33
804.13	228.30
804.45	228.24
804.77	228.22
805.09	228.17
805.41	228.13
805.73	228.07
806.05	228.03
806.37	227.99
806.69	227.96
807.01	227.92
807.33	227.91
807.65	227.82
807.97	227.85
808.28	227.80
808.60	227.79
808.92	227.80
809.24	227.84
809.56	227.81
809.88	227.77
810.20	227.77
810.52	227.77
810.84	227.69
811.16	227.67
811.48	227.65
811.80	227.65
812.12	227.62
812.43	227.64
812.75	227.62
813.07	227.62
813.39	227.58
813.71	227.59
814.03	227.56
814.35	227.53
814.67	227.45
814.98	227.43
815.30	227.42
815.62	227.39
815.94	227.32
816.26	227.31
816.58	227.25
816.89	227.25
817.21	227.20
817.53	227.20
817.85	227.22
818.17	227.17
818.48	227.10
818.80	227.10
819.12	227.06
819.44	227.06
819.76	227.01
820.07	227.02
820.39	227.00
820.71	226.95
821.03	226.95
821.34	226.94
821.66	226.93
821.98	226.88
822.30	226.87
822.61	226.89
822.93	226.82
823.25	226.82
823.57	226.78
823.88	226.75
824.20	226.75
824.52	226.72
824.83	226.72
825.15	226.70
825.47	226.67
825.79	226.67
826.10	226.60
826.42	226.57
826.74	226.53
827.05	226.46
827.37	226.47
827.69	226.41
828.00	226.42
828.32	226.41
828.64	226.39
828.95	226.40
829.27	226.34
829.58	226.32
829.90	226.31
830.22	226.29
830.53	226.28
830.85	226.23
831.17	226.19
831.48	226.15
831.80	226.13
832.11	226.10
832.43	226.06
832.75	226.09
833.06	226.17
833.38	226.14
833.69	226.13
834.01	226.11
834.32	226.13
834.64	226.07
834.96	226.01
835.27	226.02
835.59	225.97
835.90	225.95
836.22	225.93
836.53	225.88
836.85	225.87
837.16	225.95
837.48	225.96
837.79	226.01
838.11	225.98
838.42	225.95
838.74	225.95
839.05	225.90
839.37	225.84
839.68	225.75
840.00	225.74
840.31	225.74
840.63	225.71
840.94	225.68
841.26	225.69
841.57	225.67
841.88	225.64
842.20	225.61
842.51	225.61
842.83	225.61
843.14	225.68
843.46	225.68
843.77	225.60
844.08	225.58
844.40	225.51
844.71	225.52
845.03	225.52
845.34	225.50
845.65	225.49
845.97	225.50
846.28	225.51
846.60	225.49
846.91	225.48
847.22	225.46
847.54	225.48
847.85	225.48
848.16	225.51
848.48	225.50
848.79	225.56
849.10	225.55
849.42	225.54
849.73	225.45
850.04	225.43
850.36	225.41
850.67	225.42
850.98	225.43
851.30	225.44
851.61	225.44
851.92	225.43
852.23	225.47
852.55	225.46
852.86	225.47
853.17	225.48
853.49	225.52
853.80	225.56
854.11	225.54
854.42	225.52
854.74	225.52
855.05	225.53
855.36	225.46
855.67	225.46
855.99	225.50
856.30	225.67
856.61	225.68
856.92	225.66
857.23	225.63
857.55	225.61
857.86	225.58
858.17	225.61
858.48	225.61
858.79	225.57
859.11	225.55
859.42	225.55
859.73	225.56
860.04	225.53
860.35	225.51
860.66	225.49
860.98	225.49
861.29	225.48
861.60	225.47
861.91	225.50
862.22	225.49
862.53	225.47
862.84	225.33
863.16	225.37
863.47	225.39
863.78	225.40
864.09	225.43
864.40	225.45
864.71	225.42
865.02	225.47
865.33	225.47
865.64	225.47
865.95	225.47
866.27	225.54
866.58	225.55
866.89	225.55
867.20	225.55
867.51	225.55
867.82	225.53
868.13	225.54
868.44	225.56
868.75	225.57
869.06	225.57
869.37	225.58
869.68	225.53
869.99	225.52
870.30	225.51
870.61	225.51
870.92	225.48
871.23	225.48
871.54	225.45
871.85	225.47
872.16	225.48
872.47	225.42
872.78	225.31
873.09	225.32
873.40	225.29
873.71	225.31
874.02	225.30
874.33	225.29
874.64	225.26
874.95	225.25
875.26	225.24
875.56	225.23
875.87	225.22
876.18	225.24
876.49	225.32
876.80	225.33
877.11	225.32
877.42	225.31
877.73	225.31
878.04	225.29
878.35	225.27
878.66	225.25
878.96	225.27
879.27	225.26
879.58	225.24
879.89	225.25
880.20	225.23
880.51	225.22
880.82	225.22
881.12	225.25
881.43	225.20
881.74	225.15
882.05	225.10
882.36	225.11
882.67	225.06
882.97	224.98
883.28	224.94
883.59	224.93
883.90	224.97
884.21	224.98
884.51	224.97
884.82	224.97
885.13	224.97
885.44	224.99
885.74	225.00
886.05	224.99
886.36	224.97
886.67	224.94
886.98	224.98
887.28	225.00
887.59	224.99
887.90	225.00
888.20	225.03
888.51	225.05
888.82	225.03
889.13	225.08
889.43	225.13
889.74	225.14
890.05	225.11
890.35	225.10
890.66	225.09
890.97	225.11
891.28	225.07
891.58	225.09
891.89	225.08
892.20	225.10
892.50	225.09
892.81	225.08
893.12	225.11
893.42	225.06
893.73	225.05
894.04	225.04
894.34	225.05
894.65	225.05
894.95	225.03
895.26	225.03
895.57	225.05
895.87	224.98
896.18	224.98
896.48	224.99
896.79	224.97
897.10	224.98
897.40	224.98
897.71	225.01
898.01	225.01
898.32	225.00
898.63	224.98
898.93	225.02
899.24	225.03
899.54	225.01
899.85	225.06
900.15	225.06
900.46	225.06
900.76	225.07
901.07	225.08
901.38	225.09
901.68	225.12
901.99	225.09
902.29	225.09
902.60	225.08
902.90	225.09
903.21	225.10
903.51	225.10
903.82	225.13
904.12	225.13
904.43	225.11
904.73	225.09
905.03	225.10
905.34	225.17
905.64	225.16
905.95	225.17
906.25	225.12
906.56	225.10
906.86	225.12
907.17	225.11
907.47	225.09
907.77	225.10
908.08	225.08
908.38	225.08
908.69	225.11
908.99	225.14
909.30	225.15
909.60	225.17
909.90	225.14
910.21	225.08
910.51	225.07
910.81	225.05
911.12	225.08
911.42	225.10
911.73	225.00
912.03	225.00
912.33	225.03
912.64	225.04
912.94	225.07
913.24	225.02
913.55	225.01
913.85	224.99
914.15	224.97
914.46	224.98
914.76	224.95
915.06	224.92
915.37	224.92
915.67	224.89
915.97	224.86
916.27	224.85
916.58	224.86
916.88	224.87
917.18	224.89
917.49	224.96
917.79	224.93
918.09	224.96
918.39	224.99
918.70	224.97
919.00	224.97
919.30	225.03
919.60	225.06
919.91	225.05
920.21	225.06
920.51	225.05
920.81	225.03
921.12	225.08
921.42	225.06
921.72	225.06
922.02	225.07
922.32	225.09
922.63	225.10
922.93	225.15
923.23	225.15
923.53	225.16
923.83	225.09
924.13	225.07
924.44	225.07
924.74	225.07
925.04	225.10
925.34	225.10
925.64	225.03
925.94	225.03
926.24	225.08
926.55	225.10
926.85	225.12
927.15	225.13
927.45	225.10
927.75	225.14
928.05	225.13
928.35	225.12
928.65	225.12
928.95	225.15
929.26	225.11
929.56	225.12
929.86	225.11
930.16	225.08
930.46	225.11
930.76	225.10
931.06	225.07
931.36	225.06
931.66	225.06
931.96	225.06
932.26	225.07
932.56	225.03
932.86	225.01
933.16	225.03
933.46	225.03
933.76	225.00
934.06	225.02
934.36	225.05
934.66	225.05
934.96	225.05
935.26	225.02
935.56	225.04
935.86	225.01
936.16	225.04
936.46	225.09
936.76	225.10
937.06	225.10
937.36	225.08
937.66	225.07
937.96	225.07
938.26	225.07
938.56	225.08
938.86	225.09
939.16	225.13
939.46	225.15
939.76	225.16
940.06	225.16
940.35	225.14
940.65	225.10
940.95	225.10
941.25	225.08
941.55	225.07
941.85	225.05
942.15	225.08
942.45	225.08
942.75	225.06
943.04	225.05
943.34	225.05
943.64	225.05
943.94	225.02
944.24	225.01
944.54	225.02
944.84	224.98
945.13	224.94
945.43	224.90
945.73	224.88
946.03	224.85
946.33	224.87
946.62	224.84
946.92	224.84
947.22	224.83
947.52	224.85
947.82	224.89
948.11	224.87
948.41	224.85
948.71	224.82
949.01	224.80
949.31	224.80
949.60	224.75
949.90	224.76
950.20	224.75
950.50	224.75
950.79	224.74
951.09	224.75
951.39	224.77
951.69	224.78
951.98	224.78
952.28	224.79
952.58	224.75
952.87	224.75
953.17	224.74
953.47	224.73
953.76	224.72
954.06	224.66
954.36	224.64
954.66	224.62
954.95	224.63
955.25	224.63
955.55	224.62
955.84	224.65
956.14	224.64
956.44	224.66
956.73	224.65
957.03	224.61
957.32	224.61
957.62	224.58
957.92	224.56
958.21	224.52
958.51	224.62
958.81	224.66
959.10	224.66
959.40	224.68
959.69	224.66
959.99	224.67
960.29	224.67
960.58	224.68
960.88	224.72
961.17	224.70
961.47	224.75
961.76	224.72
962.06	224.75
962.36	224.74
962.65	224.73
962.95	224.74
963.24	224.74
963.54	224.74
963.83	224.75
964.13	224.78
964.42	224.78
964.72	224.73
965.01	224.73
965.31	224.75
965.60	224.75
965.90	224.83
966.19	224.81
966.49	224.84
966.78	224.84
967.08	224.84
967.37	224.86
967.67	224.83
967.96	224.85
968.26	224.86
968.55	224.91
968.85	224.90
969.14	224.95
969.43	225.00
969.73	225.00
970.02	225.02
970.32	224.99
970.61	225.00
970.91	224.95
971.20	224.94
971.49	224.95
971.79	224.97
972.08	224.93
972.38	224.95
972.67	224.92
972.96	224.93
973.26	224.91
973.55	224.95
973.85	224.96
974.14	224.99
974.43	225.00
974.73	224.97
975.02	224.97
975.31	224.96
975.61	224.93
975.90	224.92
976.19	224.90
976.49	224.94
976.78	224.94
977.07	224.97
977.37	224.96
977.66	224.94
977.95	224.92
978.24	224.88
978.54	224.86
978.83	224.86
979.12	224.85
979.42	224.86
979.71	224.83
980.00	224.80
980.29	224.78
980.59	224.73
980.88	224.76
981.17	224.76
981.46	224.76
981.76	224.75
982.05	224.76
982.34	224.79
982.63	224.78
982.93	224.75
983.22	224.77
983.51	224.77
983.80	224.77
984.09	224.79
984.39	224.80
984.68	224.79
984.97	224.81
985.26	224.80
985.55	224.79
985.85	224.77
986.14	224.80
986.43	224.80
986.72	224.80
987.01	224.76
987.30	224.74
987.59	224.69
987.89	224.69
988.18	224.66
988.47	224.62
988.76	224.59
989.05	224.56
989.34	224.53
989.63	224.56
989.92	224.54
990.22	224.51
990.51	224.50
990.80	224.52
991.09	224.51
991.38	224.50
991.67	224.47
991.96	224.45
992.25	224.43
992.54	224.42
992.83	224.42
993.12	224.40
993.41	224.42
993.70	224.49
993.99	224.49
994.28	224.49
994.58	224.50
994.87	224.48
995.16	224.51
995.45	224.50
995.74	224.44
996.03	224.45
996.32	224.48
996.61	224.51
996.90	224.51
997.19	224.55
997.48	224.56
997.77	224.55
998.06	224.55
998.34	224.54
998.63	224.54
998.92	224.53
999.21	224.58
999.50	224.59
999.79	224.53
1000.08	224.53
1000.37	224.54
1000.66	224.52
1000.95	224.59
1001.24	224.60
1001.53	224.66
1001.82	224.68
1002.11	224.67
1002.40	224.67
1002.68	224.71
1002.97	224.78
1003.26	224.74
1003.55	224.77
1003.84	224.81
1004.13	224.88
1004.42	224.87
1004.71	224.89
1004.99	224.89
1005.28	224.91
1005.57	224.91
1005.86	224.90
1006.15	224.92
1006.44	224.91
1006.72	224.94
1007.01	224.90
1007.30	224.91
1007.59	224.89
1007.88	224.91
1008.17	224.95
1008.45	224.93
1008.74	224.87
1009.03	224.81
1009.32	224.82
1009.60	224.80
1009.89	224.80
1010.18	224.74
1010.47	224.76
1010.76	224.75
1011.04	224.77
1011.33	224.79
1011.62	224.78
1011.91	224.82
1012.19	224.79
1012.48	224.84
1012.77	224.85
1013.05	224.90
1013.34	224.88
1013.63	224.86
1013.92	224.88
1014.20	224.84
1014.49	224.82
1014.78	224.83
1015.06	224.79
1015.35	224.80
1015.64	224.78
1015.92	224.79
1016.21	224.79
1016.50	224.79
1016.78	224.80
1017.07	224.78
1017.36	224.77
1017.64	224.76
1017.93	224.77
1018.22	224.80
1018.50	224.78
1018.79	224.76
1019.08	224.73
1019.36	224.77
1019.65	224.76
1019.93	224.81
1020.22	224.82
1020.51	224.86
1020.79	224.86
1021.08	224.94
1021.36	224.79
1021.65	224.34
1021.94	225.00
1022.22	225.29
1022.51	224.62
1022.79	226.01
1023.08	224.68
1023.36	225.37
1023.65	224.83
>>>>>End Processed Spectral Data<<<<<
