SpectraSuite Data File
++++++++++++++++++++++++++++++++++++
Date: Fri Feb 01 15:08:22 EST 2013
User: group
Dark Spectrum Present: No
Reference Spectrum Present: No
Number of Sampled Component Spectra: 1
Spectrometers: USB2E7196
Integration Time (usec): 35000 (USB2E7196)
Spectra Averaged: 100 (USB2E7196)
Boxcar Smoothing: 10 (USB2E7196)
Correct for Electrical Dark: No (USB2E7196)
Strobe/Lamp Enabled: No (USB2E7196)
Correct for Detector Non-linearity: No (USB2E7196)
Correct for Stray Light: No (USB2E7196)
Number of Pixels in Processed Spectrum: 2048
>>>>>Begin Processed Spectral Data<<<<<
339.09	0.00
339.48	214.89
339.86	216.85
340.24	218.53
340.63	219.02
341.01	222.16
341.39	222.07
341.78	222.97
342.16	224.83
342.54	225.04
342.93	213.56
343.31	224.35
343.69	224.92
344.07	225.38
344.46	225.79
344.84	226.20
345.22	226.43
345.60	226.69
345.99	226.92
346.37	227.02
346.75	227.12
347.13	227.18
347.52	227.23
347.90	227.32
348.28	227.36
348.66	227.40
349.05	227.38
349.43	227.42
349.81	227.42
350.19	227.47
350.57	227.56
350.96	227.62
351.34	227.73
351.72	227.80
352.10	227.90
352.48	227.98
352.87	228.04
353.25	228.10
353.63	228.16
354.01	228.23
354.39	228.32
354.77	228.40
355.15	228.48
355.54	228.54
355.92	228.55
356.30	228.64
356.68	228.76
357.06	228.85
357.44	228.89
357.82	228.95
358.20	229.05
358.58	229.06
358.97	229.11
359.35	229.18
359.73	229.26
360.11	229.30
360.49	229.34
360.87	229.38
361.25	229.46
361.63	229.55
362.01	229.57
362.39	229.60
362.77	229.65
363.15	229.67
363.53	229.69
363.91	229.74
364.29	229.72
364.67	229.66
365.05	229.65
365.43	229.64
365.81	229.68
366.19	229.69
366.57	229.73
366.95	229.72
367.33	229.65
367.71	229.61
368.09	229.62
368.47	229.58
368.85	229.52
369.23	229.47
369.61	229.38
369.99	229.36
370.37	229.34
370.75	229.30
371.13	229.23
371.51	229.13
371.89	229.09
372.27	229.05
372.65	228.98
373.03	228.89
373.41	228.82
373.78	228.74
374.16	228.62
374.54	228.52
374.92	228.43
375.30	228.36
375.68	228.27
376.06	228.21
376.44	228.13
376.82	228.07
377.19	228.00
377.57	227.92
377.95	227.82
378.33	227.69
378.71	227.57
379.09	227.55
379.47	227.51
379.84	227.41
380.22	227.34
380.60	227.27
380.98	227.25
381.36	227.18
381.73	227.07
382.11	227.01
382.49	226.95
382.87	226.87
383.25	226.81
383.62	226.85
384.00	226.75
384.38	226.67
384.76	226.64
385.13	226.61
385.51	226.55
385.89	226.51
386.27	226.48
386.64	226.44
387.02	226.37
387.40	226.33
387.78	226.30
388.15	226.26
388.53	226.24
388.91	226.18
389.29	226.16
389.66	226.16
390.04	226.16
390.42	226.16
390.79	226.15
391.17	226.15
391.55	226.04
391.92	226.04
392.30	226.06
392.68	226.01
393.05	226.03
393.43	226.08
393.81	226.10
394.18	226.12
394.56	226.19
394.94	226.23
395.31	226.27
395.69	226.32
396.06	226.37
396.44	226.38
396.82	226.44
397.19	226.55
397.57	226.63
397.95	226.69
398.32	226.72
398.70	226.78
399.07	226.89
399.45	227.00
399.82	227.09
400.20	227.19
400.58	227.27
400.95	227.32
401.33	227.40
401.70	227.58
402.08	227.69
402.45	227.77
402.83	227.93
403.20	228.06
403.58	228.16
403.95	228.31
404.33	228.47
404.71	228.62
405.08	228.78
405.46	228.91
405.83	229.04
406.21	229.21
406.58	229.44
406.96	229.58
407.33	229.78
407.70	230.00
408.08	230.28
408.45	230.57
408.83	230.82
409.20	231.06
409.58	231.24
409.95	231.53
410.33	231.81
410.70	232.03
411.08	232.31
411.45	232.67
411.82	232.97
412.20	233.32
412.57	233.73
412.95	234.04
413.32	234.43
413.69	234.89
414.07	235.36
414.44	235.81
414.82	236.30
415.19	236.82
415.56	237.35
415.94	237.87
416.31	238.48
416.68	239.10
417.06	239.81
417.43	240.47
417.81	241.21
418.18	241.99
418.55	242.83
418.93	243.71
419.30	244.55
419.67	245.50
420.04	246.46
420.42	247.43
420.79	248.64
421.16	249.82
421.54	250.97
421.91	252.16
422.28	253.43
422.66	254.76
423.03	256.06
423.40	257.35
423.77	258.75
424.15	260.17
424.52	261.67
424.89	263.28
425.26	264.82
425.64	266.24
426.01	267.85
426.38	269.51
426.75	271.16
427.13	272.92
427.50	274.70
427.87	276.55
428.24	278.39
428.61	280.12
428.99	282.08
429.36	284.17
429.73	286.19
430.10	288.18
430.47	290.23
430.85	292.34
431.22	294.64
431.59	297.03
431.96	299.31
432.33	301.80
432.70	304.16
433.08	307.01
433.45	309.67
433.82	312.26
434.19	315.14
434.56	317.94
434.93	320.61
435.30	323.22
435.68	326.15
436.05	328.99
436.42	331.78
436.79	334.25
437.16	336.98
437.53	339.86
437.90	342.70
438.27	345.48
438.64	348.30
439.01	350.88
439.38	353.13
439.75	355.27
440.13	357.74
440.50	360.12
440.87	361.96
441.24	363.88
441.61	366.06
441.98	367.54
442.35	369.41
442.72	371.23
443.09	373.06
443.46	374.06
443.83	374.68
444.20	375.20
444.57	376.04
444.94	376.36
445.31	376.69
445.68	377.04
446.05	377.10
446.42	376.75
446.79	376.30
447.16	375.81
447.53	375.47
447.90	374.31
448.27	373.13
448.64	371.57
449.01	370.45
449.37	368.47
449.74	366.60
450.11	364.32
450.48	361.91
450.85	359.38
451.22	357.24
451.59	355.24
451.96	353.31
452.33	350.75
452.70	348.34
453.07	345.51
453.43	342.61
453.80	339.83
454.17	337.13
454.54	334.60
454.91	331.91
455.28	329.25
455.65	326.76
456.02	324.31
456.38	322.14
456.75	319.45
457.12	317.21
457.49	314.96
457.86	312.81
458.23	310.92
458.59	308.89
458.96	306.81
459.33	304.89
459.70	303.04
460.07	301.46
460.43	299.78
460.80	298.17
461.17	296.68
461.54	295.19
461.91	293.79
462.27	292.38
462.64	291.14
463.01	289.80
463.38	288.53
463.74	287.15
464.11	286.01
464.48	284.99
464.85	283.86
465.21	282.98
465.58	282.01
465.95	280.88
466.32	279.98
466.68	279.02
467.05	278.12
467.42	277.18
467.78	276.25
468.15	275.33
468.52	274.64
468.88	273.78
469.25	272.97
469.62	272.33
469.98	271.59
470.35	270.95
470.72	270.31
471.08	269.57
471.45	269.02
471.82	268.44
472.18	267.83
472.55	267.42
472.92	266.87
473.28	266.42
473.65	265.97
474.02	265.43
474.38	265.02
474.75	264.69
475.11	264.34
475.48	264.05
475.85	263.84
476.21	263.62
476.58	263.41
476.94	263.29
477.31	263.13
477.67	262.98
478.04	262.85
478.41	262.78
478.77	262.83
479.14	262.76
479.50	262.75
479.87	262.79
480.23	262.87
480.60	262.92
480.96	263.00
481.33	263.19
481.69	263.44
482.06	263.67
482.42	263.85
482.79	264.12
483.15	264.43
483.52	264.81
483.88	265.13
484.25	265.55
484.61	265.96
484.98	266.38
485.34	266.95
485.71	267.54
486.07	268.16
486.44	268.71
486.80	269.40
487.17	270.12
487.53	270.95
487.90	271.76
488.26	272.73
488.62	273.75
488.99	274.73
489.35	275.76
489.72	276.90
490.08	278.16
490.44	279.36
490.81	280.69
491.17	282.02
491.54	283.51
491.90	285.00
492.26	286.63
492.63	288.37
492.99	290.13
493.36	292.00
493.72	294.03
494.08	296.20
494.45	298.47
494.81	300.86
495.17	303.31
495.54	305.87
495.90	308.56
496.26	311.28
496.63	314.27
496.99	317.40
497.35	320.65
497.72	324.07
498.08	327.64
498.44	331.32
498.80	335.24
499.17	339.25
499.53	343.44
499.89	347.81
500.26	352.35
500.62	357.05
500.98	361.99
501.34	367.01
501.71	372.28
502.07	377.74
502.43	383.30
502.79	389.09
503.16	395.14
503.52	401.35
503.88	407.80
504.24	414.42
504.60	421.25
504.97	428.37
505.33	435.59
505.69	443.28
506.05	451.05
506.41	458.91
506.78	467.12
507.14	475.56
507.50	484.28
507.86	493.27
508.22	502.39
508.59	511.58
508.95	521.19
509.31	530.92
509.67	540.93
510.03	551.19
510.39	561.76
510.75	572.58
511.12	583.56
511.48	594.81
511.84	606.21
512.20	617.73
512.56	629.63
512.92	641.86
513.28	654.14
513.64	666.59
514.00	679.29
514.37	692.11
514.73	705.15
515.09	718.06
515.45	731.38
515.81	745.00
516.17	758.89
516.53	773.07
516.89	787.25
517.25	801.47
517.61	815.92
517.97	830.37
518.33	844.80
518.69	859.62
519.05	874.68
519.41	889.93
519.77	905.45
520.13	920.90
520.49	936.28
520.85	951.82
521.21	967.67
521.57	984.07
521.93	999.93
522.29	1016.41
522.65	1032.79
523.01	1049.08
523.37	1065.23
523.73	1081.60
524.09	1097.63
524.45	1114.06
524.81	1130.80
525.17	1147.74
525.53	1164.69
525.89	1181.67
526.25	1198.44
526.61	1214.92
526.97	1231.68
527.33	1248.33
527.68	1265.12
528.04	1281.70
528.40	1298.26
528.76	1315.26
529.12	1331.80
529.48	1348.67
529.84	1364.74
530.20	1381.47
530.56	1398.53
530.91	1415.96
531.27	1432.75
531.63	1449.34
531.99	1466.03
532.35	1482.01
532.71	1497.90
533.07	1514.26
533.42	1530.21
533.78	1546.30
534.14	1562.67
534.50	1578.09
534.86	1594.04
535.21	1609.31
535.57	1625.35
535.93	1640.91
536.29	1655.94
536.65	1671.06
537.00	1686.10
537.36	1701.55
537.72	1716.07
538.08	1730.63
538.44	1744.54
538.79	1758.50
539.15	1772.38
539.51	1786.11
539.87	1800.53
540.22	1814.42
540.58	1828.40
540.94	1841.84
541.29	1854.92
541.65	1867.61
542.01	1880.99
542.37	1893.32
542.72	1905.71
543.08	1917.64
543.44	1930.28
543.79	1941.49
544.15	1952.62
544.51	1964.10
544.87	1975.14
545.22	1986.03
545.58	1996.25
545.94	2006.06
546.29	2016.05
546.65	2025.73
547.01	2035.05
547.36	2043.96
547.72	2052.36
548.07	2060.10
548.43	2068.42
548.79	2076.58
549.14	2084.14
549.50	2091.51
549.86	2099.44
550.21	2106.77
550.57	2113.78
550.92	2120.31
551.28	2127.33
551.64	2134.40
551.99	2141.07
552.35	2147.13
552.70	2153.36
553.06	2159.37
553.41	2165.61
553.77	2171.63
554.13	2177.89
554.48	2184.01
554.84	2189.33
555.19	2194.74
555.55	2199.84
555.90	2204.13
556.26	2208.80
556.61	2213.49
556.97	2217.45
557.32	2221.44
557.68	2225.55
558.03	2229.95
558.39	2233.65
558.74	2238.28
559.10	2242.16
559.45	2245.67
559.81	2250.10
560.16	2253.87
560.52	2256.86
560.87	2260.37
561.23	2262.89
561.58	2265.73
561.94	2268.31
562.29	2270.73
562.64	2273.34
563.00	2275.88
563.35	2279.34
563.71	2282.51
564.06	2285.64
564.42	2288.65
564.77	2290.90
565.12	2293.18
565.48	2294.85
565.83	2296.52
566.19	2297.64
566.54	2298.44
566.89	2299.50
567.25	2299.78
567.60	2301.01
567.96	2302.62
568.31	2303.38
568.66	2304.32
569.02	2304.83
569.37	2304.93
569.72	2305.43
570.08	2305.42
570.43	2305.35
570.78	2304.60
571.14	2303.08
571.49	2301.75
571.84	2301.33
572.20	2300.16
572.55	2298.97
572.90	2297.46
573.26	2295.94
573.61	2294.26
573.96	2292.34
574.31	2289.26
574.67	2286.22
575.02	2282.51
575.37	2279.08
575.72	2275.03
576.08	2271.79
576.43	2268.37
576.78	2264.58
577.13	2261.43
577.49	2258.26
577.84	2254.64
578.19	2250.92
578.54	2246.88
578.90	2242.43
579.25	2236.72
579.60	2231.61
579.95	2226.57
580.30	2221.34
580.66	2216.16
581.01	2211.15
581.36	2206.01
581.71	2201.76
582.06	2197.08
582.42	2192.45
582.77	2187.10
583.12	2182.42
583.47	2177.41
583.82	2172.24
584.17	2167.04
584.53	2161.44
584.88	2155.81
585.23	2149.98
585.58	2144.37
585.93	2139.05
586.28	2134.30
586.63	2129.20
586.98	2123.90
587.34	2118.95
587.69	2114.07
588.04	2108.65
588.39	2102.82
588.74	2096.40
589.09	2090.07
589.44	2083.33
589.79	2077.35
590.14	2071.76
590.49	2065.12
590.84	2058.60
591.19	2052.39
591.54	2045.77
591.89	2038.27
592.25	2031.35
592.60	2023.94
592.95	2016.24
593.30	2008.68
593.65	2001.01
594.00	1993.92
594.35	1986.80
594.70	1978.84
595.05	1971.41
595.40	1964.09
595.75	1956.56
596.10	1950.20
596.45	1943.31
596.80	1936.95
597.15	1930.13
597.50	1922.82
597.85	1916.44
598.19	1909.81
598.54	1902.74
598.89	1896.06
599.24	1890.14
599.59	1883.25
599.94	1877.13
600.29	1870.70
600.64	1864.15
600.99	1856.40
601.34	1849.41
601.69	1842.36
602.04	1835.28
602.39	1828.05
602.74	1821.16
603.08	1814.46
603.43	1807.66
603.78	1800.47
604.13	1793.38
604.48	1786.00
604.83	1779.20
605.18	1772.03
605.53	1763.98
605.87	1755.87
606.22	1748.58
606.57	1740.62
606.92	1733.32
607.27	1726.13
607.62	1719.25
607.96	1711.81
608.31	1705.30
608.66	1697.62
609.01	1690.07
609.36	1682.54
609.70	1674.38
610.05	1666.35
610.40	1658.52
610.75	1650.22
611.10	1642.54
611.44	1634.20
611.79	1626.22
612.14	1617.43
612.49	1608.42
612.83	1600.13
613.18	1592.16
613.53	1583.99
613.88	1575.54
614.22	1567.16
614.57	1558.54
614.92	1550.39
615.27	1542.90
615.61	1534.57
615.96	1526.62
616.31	1518.95
616.65	1511.67
617.00	1504.16
617.35	1496.52
617.70	1488.12
618.04	1479.65
618.39	1471.32
618.74	1463.60
619.08	1455.43
619.43	1447.91
619.78	1440.96
620.12	1433.72
620.47	1426.10
620.82	1417.93
621.16	1410.53
621.51	1403.08
621.85	1395.51
622.20	1387.10
622.55	1378.82
622.89	1371.07
623.24	1363.54
623.59	1356.32
623.93	1348.73
624.28	1341.57
624.62	1334.06
624.97	1326.99
625.32	1320.25
625.66	1313.31
626.01	1306.10
626.35	1298.52
626.70	1290.80
627.04	1283.04
627.39	1275.34
627.73	1267.94
628.08	1261.21
628.43	1253.82
628.77	1246.48
629.12	1238.89
629.46	1231.72
629.81	1224.38
630.15	1217.14
630.50	1209.81
630.84	1201.60
631.19	1193.74
631.53	1186.19
631.88	1178.61
632.22	1170.94
632.57	1163.68
632.91	1156.22
633.26	1148.91
633.60	1141.67
633.95	1134.66
634.29	1127.74
634.64	1121.07
634.98	1113.86
635.32	1106.71
635.67	1100.29
636.01	1093.65
636.36	1086.87
636.70	1080.54
637.05	1073.89
637.39	1067.54
637.73	1061.00
638.08	1055.20
638.42	1049.27
638.77	1042.90
639.11	1036.28
639.45	1030.06
639.80	1023.40
640.14	1016.99
640.49	1010.46
640.83	1004.19
641.17	997.93
641.52	991.62
641.86	985.28
642.20	979.40
642.55	973.16
642.89	966.69
643.23	960.28
643.58	954.54
643.92	948.23
644.26	942.18
644.61	936.12
644.95	930.06
645.29	923.40
645.64	916.62
645.98	910.28
646.32	904.51
646.66	898.43
647.01	892.69
647.35	887.05
647.69	881.20
648.04	875.74
648.38	869.99
648.72	863.90
649.06	857.82
649.41	851.94
649.75	845.84
650.09	839.85
650.43	833.88
650.78	827.72
651.12	821.74
651.46	816.05
651.80	810.23
652.14	804.79
652.49	799.40
652.83	794.21
653.17	788.55
653.51	782.79
653.85	777.43
654.20	771.73
654.54	765.72
654.88	760.02
655.22	754.12
655.56	748.46
655.90	743.05
656.25	737.81
656.59	732.52
656.93	727.47
657.27	722.32
657.61	716.97
657.95	711.89
658.29	706.88
658.64	701.71
658.98	696.45
659.32	691.02
659.66	685.83
660.00	680.54
660.34	675.59
660.68	670.77
661.02	665.77
661.36	661.10
661.70	656.60
662.05	652.25
662.39	647.94
662.73	643.45
663.07	639.14
663.41	634.71
663.75	630.13
664.09	625.65
664.43	621.29
664.77	617.26
665.11	613.01
665.45	608.86
665.79	604.80
666.13	600.72
666.47	596.71
666.81	592.55
667.15	588.45
667.49	584.58
667.83	580.78
668.17	576.86
668.51	572.84
668.85	568.89
669.19	565.13
669.53	561.31
669.87	557.43
670.21	553.79
670.55	550.21
670.89	546.83
671.23	543.41
671.57	539.93
671.91	536.36
672.25	532.92
672.58	529.48
672.92	526.08
673.26	522.95
673.60	519.85
673.94	516.80
674.28	514.00
674.62	511.12
674.96	508.00
675.30	505.11
675.64	502.23
675.97	499.47
676.31	496.55
676.65	493.62
676.99	491.02
677.33	488.12
677.67	485.29
678.01	482.27
678.34	479.32
678.68	476.46
679.02	473.62
679.36	470.84
679.70	468.15
680.04	465.37
680.37	462.47
680.71	459.66
681.05	457.06
681.39	454.30
681.73	451.62
682.06	449.17
682.40	446.66
682.74	444.10
683.08	441.59
683.42	439.07
683.75	436.61
684.09	434.07
684.43	431.60
684.77	429.17
685.10	426.88
685.44	424.58
685.78	422.32
686.12	420.12
686.45	417.89
686.79	415.58
687.13	413.40
687.46	411.23
687.80	409.10
688.14	406.87
688.48	404.84
688.81	402.59
689.15	400.40
689.49	398.22
689.82	396.16
690.16	394.05
690.50	392.07
690.83	390.10
691.17	388.08
691.51	386.22
691.84	384.33
692.18	382.39
692.52	380.34
692.85	378.39
693.19	376.48
693.52	374.64
693.86	372.87
694.20	371.13
694.53	369.37
694.87	367.51
695.21	365.75
695.54	363.92
695.88	362.17
696.21	360.45
696.55	358.80
696.88	357.12
697.22	355.44
697.56	353.84
697.89	352.20
698.23	350.59
698.56	348.93
698.90	347.32
699.23	345.72
699.57	344.26
699.90	342.75
700.24	341.21
700.58	339.66
700.91	338.15
701.25	336.71
701.58	335.32
701.92	333.98
702.25	332.63
702.59	331.30
702.92	330.00
703.26	328.72
703.59	327.45
703.93	326.28
704.26	325.06
704.60	323.76
704.93	322.51
705.26	321.29
705.60	320.19
705.93	319.10
706.27	318.09
706.60	317.02
706.94	315.96
707.27	314.89
707.61	313.86
707.94	312.84
708.27	311.75
708.61	310.71
708.94	309.76
709.28	308.75
709.61	307.78
709.94	306.86
710.28	305.85
710.61	304.88
710.95	303.84
711.28	302.97
711.61	302.07
711.95	301.18
712.28	300.22
712.61	299.22
712.95	298.28
713.28	297.41
713.61	296.51
713.95	295.64
714.28	294.79
714.61	293.95
714.95	293.12
715.28	292.25
715.61	291.36
715.95	290.51
716.28	289.71
716.61	288.84
716.95	288.03
717.28	287.28
717.61	286.52
717.94	285.72
718.28	284.92
718.61	284.16
718.94	283.47
719.27	282.86
719.61	282.22
719.94	281.56
720.27	280.83
720.60	280.19
720.94	279.54
721.27	278.94
721.60	278.38
721.93	277.76
722.27	277.26
722.60	276.76
722.93	276.15
723.26	275.61
723.59	275.09
723.93	274.54
724.26	274.02
724.59	273.45
724.92	272.96
725.25	272.44
725.59	271.92
725.92	271.39
726.25	270.85
726.58	270.31
726.91	269.81
727.24	269.31
727.57	268.82
727.91	268.33
728.24	267.88
728.57	267.39
728.90	266.95
729.23	266.40
729.56	265.95
729.89	265.50
730.22	264.99
730.55	264.52
730.89	264.08
731.22	263.60
731.55	263.16
731.88	262.74
732.21	262.33
732.54	261.85
732.87	261.40
733.20	261.03
733.53	260.67
733.86	260.26
734.19	259.86
734.52	259.47
734.85	259.13
735.18	258.72
735.51	258.34
735.84	257.93
736.17	257.60
736.50	257.16
736.83	256.89
737.16	256.59
737.49	256.25
737.82	255.88
738.15	255.54
738.48	255.19
738.81	254.85
739.14	254.48
739.47	254.19
739.80	253.90
740.13	253.57
740.46	253.22
740.79	252.92
741.12	252.64
741.45	252.34
741.78	252.00
742.11	251.70
742.44	251.40
742.77	251.12
743.10	250.86
743.43	250.57
743.75	250.18
744.08	250.00
744.41	249.72
744.74	249.49
745.07	249.23
745.40	248.99
745.73	248.73
746.06	248.47
746.39	248.21
746.71	247.95
747.04	247.66
747.37	247.45
747.70	247.21
748.03	246.94
748.36	246.71
748.68	246.50
749.01	246.23
749.34	245.97
749.67	245.76
750.00	245.52
750.33	245.41
750.65	245.23
750.98	244.93
751.31	244.70
751.64	244.49
751.97	244.36
752.29	244.16
752.62	243.95
752.95	243.80
753.28	243.63
753.60	243.41
753.93	243.26
754.26	243.05
754.59	242.84
754.91	242.65
755.24	242.47
755.57	242.27
755.90	242.14
756.22	241.96
756.55	241.76
756.88	241.60
757.20	241.35
757.53	241.16
757.86	240.97
758.19	240.82
758.51	240.65
758.84	240.42
759.17	240.26
759.49	240.11
759.82	239.98
760.15	239.81
760.47	239.68
760.80	239.49
761.13	239.39
761.45	239.24
761.78	239.12
762.11	238.97
762.43	238.85
762.76	238.69
763.08	238.61
763.41	238.50
763.74	238.33
764.06	238.24
764.39	238.10
764.71	237.93
765.04	237.83
765.37	237.72
765.69	237.61
766.02	237.46
766.34	237.33
766.67	237.15
767.00	237.05
767.32	236.98
767.65	236.91
767.97	236.76
768.30	236.67
768.62	236.55
768.95	236.39
769.27	236.24
769.60	236.13
769.92	235.98
770.25	235.86
770.57	235.73
770.90	235.60
771.22	235.49
771.55	235.40
771.87	235.30
772.20	235.16
772.52	235.11
772.85	235.14
773.17	235.03
773.50	234.92
773.82	234.81
774.15	234.68
774.47	234.56
774.80	234.46
775.12	234.35
775.45	234.24
775.77	234.16
776.09	234.08
776.42	234.00
776.74	233.92
777.07	233.83
777.39	233.74
777.72	233.62
778.04	233.53
778.36	233.47
778.69	233.34
779.01	233.30
779.33	233.17
779.66	233.00
779.98	232.91
780.31	232.82
780.63	232.79
780.95	232.74
781.28	232.66
781.60	232.59
781.92	232.54
782.25	232.48
782.57	232.45
782.89	232.40
783.22	232.34
783.54	232.29
783.86	232.23
784.19	232.20
784.51	232.17
784.83	232.13
785.16	232.03
785.48	232.02
785.80	231.97
786.12	231.90
786.45	231.87
786.77	231.85
787.09	231.86
787.42	231.79
787.74	231.72
788.06	231.69
788.38	231.64
788.71	231.58
789.03	231.54
789.35	231.50
789.67	231.45
789.99	231.40
790.32	231.34
790.64	231.33
790.96	231.38
791.28	231.30
791.61	231.28
791.93	231.27
792.25	231.22
792.57	231.24
792.89	231.18
793.21	231.16
793.54	231.12
793.86	231.05
794.18	231.02
794.50	231.00
794.82	230.98
795.14	231.01
795.47	230.99
795.79	231.00
796.11	230.96
796.43	230.94
796.75	230.95
797.07	230.93
797.39	230.89
797.71	230.80
798.04	230.80
798.36	230.77
798.68	230.78
799.00	230.74
799.32	230.68
799.64	230.71
799.96	230.66
800.28	230.65
800.60	230.64
800.92	230.61
801.24	230.57
801.56	230.54
801.89	230.50
802.21	230.51
802.53	230.45
802.85	230.47
803.17	230.50
803.49	230.43
803.81	230.40
804.13	230.37
804.45	230.34
804.77	230.33
805.09	230.33
805.41	230.28
805.73	230.24
806.05	230.21
806.37	230.20
806.69	230.20
807.01	230.14
807.33	230.12
807.65	230.08
807.97	230.12
808.28	230.07
808.60	230.03
808.92	229.99
809.24	230.00
809.56	229.96
809.88	229.90
810.20	229.89
810.52	229.90
810.84	229.85
811.16	229.78
811.48	229.75
811.80	229.74
812.12	229.71
812.43	229.73
812.75	229.70
813.07	229.60
813.39	229.55
813.71	229.53
814.03	229.50
814.35	229.42
814.67	229.33
814.98	229.34
815.30	229.29
815.62	229.22
815.94	229.13
816.26	229.12
816.58	229.08
816.89	229.10
817.21	229.04
817.53	229.04
817.85	229.02
818.17	229.00
818.48	228.93
818.80	228.91
819.12	228.87
819.44	228.82
819.76	228.82
820.07	228.79
820.39	228.76
820.71	228.73
821.03	228.75
821.34	228.73
821.66	228.72
821.98	228.70
822.30	228.70
822.61	228.74
822.93	228.64
823.25	228.60
823.57	228.53
823.88	228.54
824.20	228.51
824.52	228.50
824.83	228.46
825.15	228.45
825.47	228.45
825.79	228.44
826.10	228.41
826.42	228.41
826.74	228.42
827.05	228.40
827.37	228.41
827.69	228.40
828.00	228.39
828.32	228.40
828.64	228.40
828.95	228.43
829.27	228.41
829.58	228.45
829.90	228.44
830.22	228.45
830.53	228.41
830.85	228.37
831.17	228.39
831.48	228.37
831.80	228.36
832.11	228.32
832.43	228.29
832.75	228.29
833.06	228.34
833.38	228.32
833.69	228.34
834.01	228.36
834.32	228.34
834.64	228.35
834.96	228.31
835.27	228.31
835.59	228.29
835.90	228.24
836.22	228.25
836.53	228.23
836.85	228.22
837.16	228.32
837.48	228.35
837.79	228.35
838.11	228.36
838.42	228.37
838.74	228.40
839.05	228.42
839.37	228.41
839.68	228.33
840.00	228.31
840.31	228.29
840.63	228.23
840.94	228.24
841.26	228.20
841.57	228.21
841.88	228.21
842.20	228.18
842.51	228.19
842.83	228.17
843.14	228.27
843.46	228.28
843.77	228.23
844.08	228.23
844.40	228.20
844.71	228.19
845.03	228.16
845.34	228.17
845.65	228.14
845.97	228.15
846.28	228.18
846.60	228.18
846.91	228.17
847.22	228.19
847.54	228.20
847.85	228.24
848.16	228.19
848.48	228.13
848.79	228.16
849.10	228.16
849.42	228.14
849.73	228.07
850.04	228.05
850.36	227.99
850.67	227.98
850.98	227.95
851.30	227.94
851.61	227.95
851.92	227.90
852.23	227.94
852.55	227.89
852.86	227.85
853.17	227.83
853.49	227.84
853.80	227.84
854.11	227.84
854.42	227.82
854.74	227.82
855.05	227.84
855.36	227.79
855.67	227.76
855.99	227.76
856.30	227.84
856.61	227.82
856.92	227.80
857.23	227.78
857.55	227.77
857.86	227.77
858.17	227.76
858.48	227.73
858.79	227.66
859.11	227.70
859.42	227.69
859.73	227.69
860.04	227.68
860.35	227.64
860.66	227.56
860.98	227.53
861.29	227.53
861.60	227.54
861.91	227.55
862.22	227.54
862.53	227.50
862.84	227.37
863.16	227.38
863.47	227.38
863.78	227.39
864.09	227.39
864.40	227.38
864.71	227.41
865.02	227.46
865.33	227.45
865.64	227.42
865.95	227.43
866.27	227.49
866.58	227.49
866.89	227.52
867.20	227.53
867.51	227.52
867.82	227.52
868.13	227.50
868.44	227.50
868.75	227.51
869.06	227.55
869.37	227.58
869.68	227.57
869.99	227.59
870.30	227.57
870.61	227.57
870.92	227.55
871.23	227.52
871.54	227.54
871.85	227.56
872.16	227.58
872.47	227.56
872.78	227.50
873.09	227.51
873.40	227.47
873.71	227.52
874.02	227.53
874.33	227.54
874.64	227.55
874.95	227.56
875.26	227.54
875.56	227.52
875.87	227.51
876.18	227.51
876.49	227.61
876.80	227.62
877.11	227.64
877.42	227.68
877.73	227.68
878.04	227.70
878.35	227.73
878.66	227.76
878.96	227.77
879.27	227.79
879.58	227.80
879.89	227.83
880.20	227.87
880.51	227.86
880.82	227.86
881.12	227.84
881.43	227.82
881.74	227.81
882.05	227.83
882.36	227.84
882.67	227.86
882.97	227.79
883.28	227.79
883.59	227.77
883.90	227.77
884.21	227.78
884.51	227.75
884.82	227.70
885.13	227.68
885.44	227.66
885.74	227.63
886.05	227.62
886.36	227.61
886.67	227.53
886.98	227.58
887.28	227.56
887.59	227.56
887.90	227.55
888.20	227.54
888.51	227.54
888.82	227.54
889.13	227.54
889.43	227.58
889.74	227.55
890.05	227.55
890.35	227.49
890.66	227.45
890.97	227.42
891.28	227.40
891.58	227.41
891.89	227.42
892.20	227.40
892.50	227.37
892.81	227.33
893.12	227.31
893.42	227.27
893.73	227.27
894.04	227.27
894.34	227.28
894.65	227.27
894.95	227.23
895.26	227.20
895.57	227.23
895.87	227.12
896.18	227.11
896.48	227.08
896.79	227.09
897.10	227.13
897.40	227.13
897.71	227.15
898.01	227.10
898.32	227.11
898.63	227.13
898.93	227.12
899.24	227.13
899.54	227.14
899.85	227.13
900.15	227.13
900.46	227.13
900.76	227.15
901.07	227.14
901.38	227.17
901.68	227.19
901.99	227.13
902.29	227.13
902.60	227.12
902.90	227.13
903.21	227.14
903.51	227.13
903.82	227.16
904.12	227.16
904.43	227.19
904.73	227.21
905.03	227.19
905.34	227.31
905.64	227.32
905.95	227.35
906.25	227.35
906.56	227.33
906.86	227.34
907.17	227.30
907.47	227.35
907.77	227.33
908.08	227.31
908.38	227.30
908.69	227.31
908.99	227.36
909.30	227.37
909.60	227.37
909.90	227.36
910.21	227.32
910.51	227.31
910.81	227.31
911.12	227.31
911.42	227.32
911.73	227.23
912.03	227.24
912.33	227.27
912.64	227.28
912.94	227.30
913.24	227.28
913.55	227.28
913.85	227.25
914.15	227.28
914.46	227.28
914.76	227.29
915.06	227.31
915.37	227.33
915.67	227.35
915.97	227.36
916.27	227.35
916.58	227.36
916.88	227.35
917.18	227.37
917.49	227.43
917.79	227.44
918.09	227.46
918.39	227.45
918.70	227.43
919.00	227.45
919.30	227.47
919.60	227.47
919.91	227.47
920.21	227.46
920.51	227.45
920.81	227.45
921.12	227.47
921.42	227.45
921.72	227.44
922.02	227.41
922.32	227.43
922.63	227.45
922.93	227.50
923.23	227.51
923.53	227.47
923.83	227.44
924.13	227.42
924.44	227.42
924.74	227.46
925.04	227.49
925.34	227.47
925.64	227.45
925.94	227.46
926.24	227.52
926.55	227.54
926.85	227.53
927.15	227.51
927.45	227.50
927.75	227.52
928.05	227.52
928.35	227.51
928.65	227.52
928.95	227.50
929.26	227.46
929.56	227.47
929.86	227.49
930.16	227.41
930.46	227.39
930.76	227.38
931.06	227.32
931.36	227.26
931.66	227.29
931.96	227.29
932.26	227.31
932.56	227.23
932.86	227.20
933.16	227.20
933.46	227.20
933.76	227.20
934.06	227.19
934.36	227.19
934.66	227.16
934.96	227.12
935.26	227.10
935.56	227.11
935.86	227.08
936.16	227.03
936.46	227.04
936.76	227.04
937.06	227.02
937.36	227.00
937.66	227.01
937.96	226.97
938.26	226.91
938.56	226.88
938.86	226.91
939.16	226.95
939.46	226.96
939.76	226.95
940.06	226.94
940.35	226.91
940.65	226.87
940.95	226.88
941.25	226.86
941.55	226.85
941.85	226.85
942.15	226.87
942.45	226.94
942.75	226.94
943.04	226.93
943.34	226.95
943.64	226.96
943.94	226.93
944.24	226.92
944.54	226.94
944.84	226.94
945.13	226.93
945.43	226.90
945.73	226.91
946.03	226.91
946.33	226.91
946.62	226.92
946.92	226.96
947.22	226.96
947.52	226.97
947.82	227.00
948.11	226.97
948.41	226.96
948.71	226.92
949.01	226.90
949.31	226.92
949.60	226.94
949.90	226.95
950.20	226.97
950.50	226.99
950.79	226.97
951.09	226.97
951.39	226.98
951.69	227.01
951.98	227.01
952.28	227.00
952.58	227.00
952.87	227.01
953.17	226.98
953.47	227.00
953.76	227.02
954.06	227.03
954.36	227.04
954.66	227.06
954.95	227.10
955.25	227.15
955.55	227.14
955.84	227.11
956.14	227.12
956.44	227.10
956.73	227.10
957.03	227.13
957.32	227.15
957.62	227.15
957.92	227.15
958.21	227.16
958.51	227.29
958.81	227.33
959.10	227.34
959.40	227.39
959.69	227.39
959.99	227.43
960.29	227.41
960.58	227.41
960.88	227.46
961.17	227.44
961.47	227.46
961.76	227.50
962.06	227.49
962.36	227.50
962.65	227.53
962.95	227.52
963.24	227.50
963.54	227.52
963.83	227.51
964.13	227.50
964.42	227.47
964.72	227.39
965.01	227.36
965.31	227.34
965.60	227.32
965.90	227.37
966.19	227.30
966.49	227.32
966.78	227.31
967.08	227.26
967.37	227.23
967.67	227.20
967.96	227.18
968.26	227.20
968.55	227.22
968.85	227.21
969.14	227.23
969.43	227.23
969.73	227.19
970.02	227.19
970.32	227.16
970.61	227.15
970.91	227.11
971.20	227.09
971.49	227.08
971.79	227.09
972.08	227.01
972.38	227.04
972.67	227.00
972.96	227.02
973.26	226.99
973.55	227.03
973.85	227.01
974.14	226.96
974.43	226.92
974.73	226.85
975.02	226.83
975.31	226.80
975.61	226.79
975.90	226.79
976.19	226.78
976.49	226.76
976.78	226.76
977.07	226.73
977.37	226.75
977.66	226.74
977.95	226.70
978.24	226.73
978.54	226.75
978.83	226.75
979.12	226.72
979.42	226.71
979.71	226.68
980.00	226.70
980.29	226.70
980.59	226.72
980.88	226.75
981.17	226.73
981.46	226.75
981.76	226.75
982.05	226.79
982.34	226.80
982.63	226.85
982.93	226.88
983.22	226.92
983.51	226.93
983.80	227.00
984.09	227.04
984.39	227.03
984.68	227.00
984.97	227.00
985.26	226.99
985.55	227.02
985.85	227.03
986.14	227.03
986.43	227.06
986.72	227.03
987.01	227.01
987.30	227.05
987.59	227.06
987.89	227.07
988.18	227.06
988.47	227.06
988.76	227.04
989.05	227.00
989.34	226.98
989.63	226.99
989.92	226.94
990.22	226.93
990.51	226.95
990.80	226.99
991.09	227.05
991.38	227.09
991.67	227.07
991.96	227.06
992.25	227.08
992.54	227.06
992.83	227.11
993.12	227.09
993.41	227.11
993.70	227.12
993.99	227.12
994.28	227.14
994.58	227.16
994.87	227.17
995.16	227.17
995.45	227.19
995.74	227.19
996.03	227.24
996.32	227.23
996.61	227.25
996.90	227.22
997.19	227.18
997.48	227.17
997.77	227.17
998.06	227.18
998.34	227.19
998.63	227.19
998.92	227.15
999.21	227.19
999.50	227.21
999.79	227.18
1000.08	227.19
1000.37	227.18
1000.66	227.19
1000.95	227.21
1001.24	227.24
1001.53	227.21
1001.82	227.18
1002.11	227.15
1002.40	227.17
1002.68	227.16
1002.97	227.25
1003.26	227.24
1003.55	227.23
1003.84	227.23
1004.13	227.26
1004.42	227.24
1004.71	227.25
1004.99	227.27
1005.28	227.29
1005.57	227.27
1005.86	227.27
1006.15	227.27
1006.44	227.24
1006.72	227.20
1007.01	227.18
1007.30	227.18
1007.59	227.19
1007.88	227.16
1008.17	227.13
1008.45	227.13
1008.74	227.09
1009.03	227.03
1009.32	227.04
1009.60	227.03
1009.89	227.01
1010.18	226.96
1010.47	226.97
1010.76	226.97
1011.04	226.98
1011.33	226.99
1011.62	226.97
1011.91	226.95
1012.19	226.96
1012.48	226.96
1012.77	226.98
1013.05	227.00
1013.34	227.02
1013.63	227.02
1013.92	227.04
1014.20	227.04
1014.49	227.03
1014.78	227.05
1015.06	227.03
1015.35	227.00
1015.64	227.01
1015.92	227.03
1016.21	227.02
1016.50	227.04
1016.78	227.01
1017.07	227.02
1017.36	227.00
1017.64	227.03
1017.93	227.03
1018.22	227.02
1018.50	227.05
1018.79	227.07
1019.08	227.02
1019.36	226.98
1019.65	226.97
1019.93	227.03
1020.22	227.05
1020.51	227.10
1020.79	227.08
1021.08	226.80
1021.36	227.56
1021.65	227.27
1021.94	226.91
1022.22	226.62
1022.51	226.98
1022.79	227.88
1023.08	227.31
1023.36	228.11
1023.65	226.89
>>>>>End Processed Spectral Data<<<<<
