SpectraSuite Data File
++++++++++++++++++++++++++++++++++++
Date: Fri Feb 01 18:04:22 EST 2013
User: group
Dark Spectrum Present: No
Reference Spectrum Present: No
Number of Sampled Component Spectra: 1
Spectrometers: USB2E7196
Integration Time (usec): 35000 (USB2E7196)
Spectra Averaged: 100 (USB2E7196)
Boxcar Smoothing: 10 (USB2E7196)
Correct for Electrical Dark: No (USB2E7196)
Strobe/Lamp Enabled: No (USB2E7196)
Correct for Detector Non-linearity: No (USB2E7196)
Correct for Stray Light: No (USB2E7196)
Number of Pixels in Processed Spectrum: 2048
>>>>>Begin Processed Spectral Data<<<<<
339.09	0.00
339.48	212.68
339.86	214.67
340.24	215.40
340.63	216.57
341.01	219.82
341.39	220.07
341.78	221.41
342.16	221.99
342.54	221.91
342.93	211.15
343.31	221.80
343.69	222.33
344.07	222.77
344.46	223.23
344.84	223.62
345.22	223.83
345.60	224.06
345.99	224.23
346.37	224.41
346.75	224.55
347.13	224.62
347.52	224.73
347.90	224.83
348.28	224.87
348.66	224.91
349.05	224.92
349.43	224.96
349.81	225.04
350.19	225.10
350.57	225.16
350.96	225.24
351.34	225.35
351.72	225.46
352.10	225.55
352.48	225.61
352.87	225.68
353.25	225.76
353.63	225.83
354.01	225.85
354.39	225.88
354.77	225.96
355.15	226.06
355.54	226.10
355.92	226.10
356.30	226.16
356.68	226.29
357.06	226.34
357.44	226.37
357.82	226.41
358.20	226.48
358.58	226.52
358.97	226.58
359.35	226.68
359.73	226.71
360.11	226.78
360.49	226.81
360.87	226.86
361.25	226.91
361.63	226.99
362.01	227.10
362.39	227.16
362.77	227.19
363.15	227.20
363.53	227.24
363.91	227.32
364.29	227.35
364.67	227.29
365.05	227.34
365.43	227.40
365.81	227.47
366.19	227.54
366.57	227.59
366.95	227.61
367.33	227.56
367.71	227.58
368.09	227.61
368.47	227.61
368.85	227.60
369.23	227.61
369.61	227.58
369.99	227.57
370.37	227.55
370.75	227.62
371.13	227.61
371.51	227.56
371.89	227.50
372.27	227.46
372.65	227.40
373.03	227.35
373.41	227.28
373.78	227.20
374.16	227.11
374.54	227.08
374.92	226.99
375.30	226.95
375.68	226.93
376.06	226.87
376.44	226.82
376.82	226.77
377.19	226.71
377.57	226.66
377.95	226.58
378.33	226.52
378.71	226.38
379.09	226.33
379.47	226.30
379.84	226.22
380.22	226.18
380.60	226.13
380.98	226.06
381.36	226.01
381.73	225.98
382.11	225.94
382.49	225.83
382.87	225.77
383.25	225.72
383.62	225.75
384.00	225.65
384.38	225.63
384.76	225.61
385.13	225.60
385.51	225.54
385.89	225.48
386.27	225.47
386.64	225.41
387.02	225.35
387.40	225.31
387.78	225.31
388.15	225.28
388.53	225.26
388.91	225.25
389.29	225.23
389.66	225.20
390.04	225.19
390.42	225.20
390.79	225.19
391.17	225.19
391.55	225.08
391.92	225.11
392.30	225.08
392.68	225.04
393.05	225.01
393.43	225.00
393.81	225.04
394.18	225.00
394.56	225.02
394.94	225.08
395.31	225.07
395.69	225.10
396.06	225.11
396.44	225.13
396.82	225.13
397.19	225.18
397.57	225.21
397.95	225.26
398.32	225.27
398.70	225.32
399.07	225.40
399.45	225.44
399.82	225.48
400.20	225.54
400.58	225.61
400.95	225.65
401.33	225.76
401.70	225.88
402.08	225.97
402.45	226.09
402.83	226.23
403.20	226.37
403.58	226.51
403.95	226.64
404.33	226.80
404.71	226.97
405.08	227.16
405.46	227.32
405.83	227.49
406.21	227.67
406.58	227.90
406.96	228.08
407.33	228.30
407.70	228.54
408.08	228.86
408.45	229.14
408.83	229.45
409.20	229.71
409.58	229.96
409.95	230.25
410.33	230.57
410.70	230.83
411.08	231.16
411.45	231.54
411.82	231.92
412.20	232.40
412.57	232.92
412.95	233.32
413.32	233.87
413.69	234.40
414.07	234.95
414.44	235.53
414.82	236.14
415.19	236.85
415.56	237.55
415.94	238.30
416.31	239.15
416.68	239.99
417.06	240.93
417.43	241.84
417.81	242.90
418.18	243.92
418.55	245.09
418.93	246.30
419.30	247.51
419.67	248.79
420.04	250.03
420.42	251.34
420.79	252.93
421.16	254.44
421.54	256.04
421.91	257.68
422.28	259.40
422.66	261.21
423.03	262.94
423.40	264.77
423.77	266.65
424.15	268.58
424.52	270.57
424.89	272.76
425.26	274.85
425.64	276.82
426.01	279.01
426.38	281.24
426.75	283.46
427.13	285.78
427.50	288.25
427.87	290.78
428.24	293.31
428.61	295.67
428.99	298.31
429.36	301.18
429.73	303.94
430.10	306.67
430.47	309.45
430.85	312.37
431.22	315.41
431.59	318.65
431.96	321.67
432.33	325.03
432.70	328.24
433.08	332.08
433.45	335.64
433.82	339.17
434.19	343.08
434.56	346.88
434.93	350.49
435.30	354.07
435.68	358.01
436.05	361.84
436.42	365.67
436.79	369.09
437.16	372.76
437.53	376.65
437.90	380.43
438.27	384.18
438.64	388.02
439.01	391.52
439.38	394.50
439.75	397.51
440.13	400.94
440.50	404.14
440.87	406.62
441.24	409.30
441.61	412.25
441.98	414.34
442.35	416.82
442.72	419.31
443.09	421.72
443.46	423.10
443.83	423.93
444.20	424.58
444.57	425.75
444.94	426.15
445.31	426.63
445.68	427.12
446.05	427.24
446.42	426.70
446.79	426.17
447.16	425.67
447.53	425.21
447.90	423.65
448.27	422.05
448.64	419.92
449.01	418.35
449.37	415.67
449.74	413.07
450.11	409.97
450.48	406.67
450.85	403.25
451.22	400.34
451.59	397.61
451.96	395.02
452.33	391.50
452.70	388.31
453.07	384.48
453.43	380.60
453.80	376.84
454.17	373.28
454.54	369.77
454.91	366.05
455.28	362.42
455.65	359.02
456.02	355.62
456.38	352.75
456.75	349.12
457.12	346.06
457.49	343.03
457.86	340.13
458.23	337.56
458.59	334.76
458.96	331.89
459.33	329.31
459.70	326.75
460.07	324.65
460.43	322.31
460.80	320.10
461.17	318.11
461.54	316.04
461.91	314.05
462.27	312.14
462.64	310.41
463.01	308.55
463.38	306.74
463.74	304.95
464.11	303.33
464.48	301.97
464.85	300.42
465.21	299.21
465.58	297.93
465.95	296.47
466.32	295.23
466.68	294.00
467.05	292.81
467.42	291.59
467.78	290.35
468.15	289.13
468.52	288.19
468.88	287.03
469.25	285.98
469.62	285.14
469.98	284.18
470.35	283.28
470.72	282.47
471.08	281.57
471.45	280.82
471.82	280.03
472.18	279.17
472.55	278.56
472.92	277.85
473.28	277.21
473.65	276.54
474.02	275.90
474.38	275.39
474.75	274.91
475.11	274.40
475.48	273.94
475.85	273.56
476.21	273.19
476.58	272.85
476.94	272.61
477.31	272.31
477.67	272.05
478.04	271.84
478.41	271.71
478.77	271.70
479.14	271.54
479.50	271.51
479.87	271.51
480.23	271.55
480.60	271.54
480.96	271.55
481.33	271.73
481.69	271.88
482.06	272.01
482.42	272.15
482.79	272.36
483.15	272.70
483.52	273.07
483.88	273.37
484.25	273.74
484.61	274.15
484.98	274.58
485.34	275.11
485.71	275.72
486.07	276.32
486.44	276.85
486.80	277.59
487.17	278.31
487.53	279.17
487.90	280.03
488.26	280.97
488.62	281.97
488.99	282.99
489.35	284.09
489.72	285.27
490.08	286.51
490.44	287.82
490.81	289.13
491.17	290.52
491.54	292.10
491.90	293.69
492.26	295.42
492.63	297.21
492.99	299.08
493.36	301.05
493.72	303.20
494.08	305.46
494.45	307.78
494.81	310.29
495.17	312.81
495.54	315.53
495.90	318.41
496.26	321.37
496.63	324.55
496.99	327.84
497.35	331.27
497.72	334.91
498.08	338.63
498.44	342.58
498.80	346.73
499.17	351.04
499.53	355.51
499.89	360.17
500.26	364.96
500.62	369.91
500.98	375.17
501.34	380.53
501.71	386.22
502.07	392.01
502.43	397.99
502.79	404.25
503.16	410.68
503.52	417.33
503.88	424.17
504.24	431.16
504.60	438.50
504.97	446.14
505.33	453.90
505.69	462.16
506.05	470.42
506.41	478.84
506.78	487.50
507.14	496.45
507.50	505.69
507.86	515.32
508.22	525.10
508.59	534.99
508.95	545.19
509.31	555.64
509.67	566.45
510.03	577.45
510.39	588.70
510.75	600.26
511.12	611.94
511.48	624.04
511.84	636.42
512.20	648.81
512.56	661.55
512.92	674.69
513.28	687.96
513.64	701.41
514.00	715.13
514.37	729.13
514.73	743.28
515.09	757.38
515.45	771.74
515.81	786.44
516.17	801.60
516.53	816.97
516.89	832.40
517.25	847.85
517.61	863.49
517.97	879.19
518.33	894.79
518.69	910.88
519.05	927.13
519.41	943.53
519.77	960.44
520.13	977.34
520.49	994.16
520.85	1010.90
521.21	1027.94
521.57	1045.67
521.93	1062.89
522.29	1080.77
522.65	1098.57
523.01	1116.32
523.37	1134.05
523.73	1151.69
524.09	1169.33
524.45	1187.14
524.81	1205.45
525.17	1223.89
525.53	1242.53
525.89	1261.32
526.25	1279.97
526.61	1298.13
526.97	1316.73
527.33	1335.09
527.68	1353.47
528.04	1371.74
528.40	1390.23
528.76	1409.38
529.12	1427.85
529.48	1446.74
529.84	1464.66
530.20	1483.25
530.56	1502.27
530.91	1521.64
531.27	1540.66
531.63	1559.21
531.99	1577.94
532.35	1595.89
532.71	1613.94
533.07	1632.32
533.42	1650.19
533.78	1668.30
534.14	1686.80
534.50	1704.10
534.86	1722.04
535.21	1739.37
535.57	1757.46
535.93	1775.15
536.29	1792.02
536.65	1809.35
537.00	1826.24
537.36	1843.82
537.72	1860.60
538.08	1877.29
538.44	1893.25
538.79	1909.18
539.15	1924.96
539.51	1940.89
539.87	1957.45
540.22	1973.30
540.58	1989.33
540.94	2004.92
541.29	2020.04
541.65	2034.95
542.01	2050.65
542.37	2065.33
542.72	2080.05
543.08	2094.17
543.44	2108.89
543.79	2122.47
544.15	2135.71
544.51	2149.63
544.87	2162.84
545.22	2176.01
545.58	2188.51
545.94	2200.58
546.29	2212.77
546.65	2224.99
547.01	2236.60
547.36	2247.56
547.72	2258.22
548.07	2268.26
548.43	2278.55
548.79	2288.59
549.14	2298.31
549.50	2307.61
549.86	2317.29
550.21	2326.70
550.57	2335.81
550.92	2344.33
551.28	2353.36
551.64	2362.42
551.99	2370.87
552.35	2379.04
552.70	2387.01
553.06	2394.88
553.41	2403.18
553.77	2411.03
554.13	2418.96
554.48	2426.92
554.84	2434.34
555.19	2441.52
555.55	2448.43
555.90	2454.63
556.26	2461.56
556.61	2467.92
556.97	2474.11
557.32	2479.90
557.68	2485.69
558.03	2491.73
558.39	2497.09
558.74	2503.57
559.10	2509.00
559.45	2514.18
559.81	2520.08
560.16	2525.37
560.52	2530.14
560.87	2534.90
561.23	2538.87
561.58	2543.21
561.94	2547.09
562.29	2550.75
562.64	2554.92
563.00	2558.75
563.35	2563.91
563.71	2568.30
564.06	2572.91
564.42	2577.04
564.77	2581.03
565.12	2584.73
565.48	2587.89
565.83	2590.98
566.19	2593.39
566.54	2595.34
566.89	2597.71
567.25	2599.30
567.60	2601.81
567.96	2604.65
568.31	2606.58
568.66	2608.90
569.02	2610.42
569.37	2611.59
569.72	2613.38
570.08	2614.25
570.43	2615.19
570.78	2615.26
571.14	2614.30
571.49	2613.35
571.84	2613.71
572.20	2613.14
572.55	2612.44
572.90	2611.22
573.26	2610.23
573.61	2608.66
573.96	2607.48
574.31	2604.73
574.67	2601.93
575.02	2598.45
575.37	2595.02
575.72	2591.36
576.08	2588.09
576.43	2584.83
576.78	2581.35
577.13	2578.13
577.49	2574.91
577.84	2571.55
578.19	2567.78
578.54	2564.16
578.90	2560.06
579.25	2554.16
579.60	2548.95
579.95	2543.79
580.30	2538.51
580.66	2533.04
581.01	2527.86
581.36	2522.55
581.71	2518.19
582.06	2513.64
582.42	2508.89
582.77	2503.38
583.12	2498.52
583.47	2493.47
583.82	2488.13
584.17	2482.50
584.53	2476.60
584.88	2470.80
585.23	2464.42
585.58	2458.39
585.93	2452.31
586.28	2447.06
586.63	2441.74
586.98	2436.14
587.34	2430.94
587.69	2425.64
588.04	2420.05
588.39	2413.92
588.74	2406.69
589.09	2399.85
589.44	2392.26
589.79	2385.40
590.14	2379.12
590.49	2371.70
590.84	2364.59
591.19	2357.83
591.54	2350.51
591.89	2342.37
592.25	2334.63
592.60	2326.49
592.95	2317.94
593.30	2309.72
593.65	2301.08
594.00	2292.85
594.35	2284.57
594.70	2275.38
595.05	2267.29
595.40	2258.88
595.75	2250.15
596.10	2243.06
596.45	2235.47
596.80	2228.38
597.15	2220.87
597.50	2212.85
597.85	2205.39
598.19	2197.66
598.54	2189.69
598.89	2181.96
599.24	2175.04
599.59	2167.51
599.94	2160.23
600.29	2152.98
600.64	2145.36
600.99	2136.76
601.34	2128.90
601.69	2120.72
602.04	2112.80
602.39	2104.11
602.74	2096.28
603.08	2088.59
603.43	2080.80
603.78	2072.27
604.13	2063.84
604.48	2055.48
604.83	2047.43
605.18	2039.33
605.53	2030.05
605.87	2020.61
606.22	2012.02
606.57	2002.71
606.92	1993.74
607.27	1985.41
607.62	1977.23
607.96	1968.73
608.31	1961.11
608.66	1952.31
609.01	1943.49
609.36	1934.49
609.70	1925.11
610.05	1915.71
610.40	1906.66
610.75	1896.98
611.10	1887.99
611.44	1878.04
611.79	1868.49
612.14	1858.31
612.49	1847.54
612.83	1837.67
613.18	1827.99
613.53	1818.47
613.88	1808.38
614.22	1798.79
614.57	1788.57
614.92	1779.06
615.27	1770.29
615.61	1760.48
615.96	1750.89
616.31	1741.89
616.65	1733.28
617.00	1724.48
617.35	1715.18
617.70	1705.39
618.04	1695.24
618.39	1685.35
618.74	1676.39
619.08	1666.76
619.43	1657.80
619.78	1649.66
620.12	1641.15
620.47	1632.25
620.82	1622.73
621.16	1613.98
621.51	1604.96
621.85	1596.04
622.20	1586.10
622.55	1576.06
622.89	1566.69
623.24	1557.61
623.59	1548.82
623.93	1539.97
624.28	1531.36
624.62	1522.56
624.97	1514.09
625.32	1506.06
625.66	1497.78
626.01	1489.43
626.35	1480.67
626.70	1471.51
627.04	1462.42
627.39	1453.20
627.73	1444.43
628.08	1436.19
628.43	1427.74
628.77	1419.16
629.12	1410.16
629.46	1401.72
629.81	1392.91
630.15	1384.45
630.50	1375.74
630.84	1366.19
631.19	1356.84
631.53	1347.96
631.88	1339.05
632.22	1330.06
632.57	1321.49
632.91	1312.56
633.26	1303.71
633.60	1294.87
633.95	1286.37
634.29	1277.98
634.64	1270.17
634.98	1261.59
635.32	1253.17
635.67	1245.27
636.01	1237.40
636.36	1229.49
636.70	1221.69
637.05	1214.00
637.39	1206.31
637.73	1198.64
638.08	1191.74
638.42	1184.58
638.77	1177.07
639.11	1169.43
639.45	1161.97
639.80	1154.14
640.14	1146.73
640.49	1139.14
640.83	1131.79
641.17	1124.53
641.52	1117.23
641.86	1109.56
642.20	1102.72
642.55	1095.36
642.89	1087.84
643.23	1080.13
643.58	1073.44
643.92	1066.29
644.26	1059.33
644.61	1052.24
644.95	1045.36
645.29	1037.63
645.64	1029.78
645.98	1022.32
646.32	1015.43
646.66	1008.36
647.01	1001.63
647.35	994.93
647.69	988.07
648.04	981.63
648.38	974.89
648.72	967.99
649.06	961.04
649.41	954.18
649.75	947.32
650.09	940.39
650.43	933.70
650.78	926.46
651.12	919.47
651.46	912.70
651.80	906.13
652.14	899.86
652.49	893.68
652.83	887.71
653.17	881.19
653.51	874.53
653.85	868.16
654.20	861.66
654.54	854.66
654.88	847.98
655.22	841.11
655.56	834.54
655.90	828.08
656.25	822.01
656.59	815.76
656.93	809.80
657.27	803.83
657.61	797.46
657.95	791.61
658.29	785.74
658.64	779.62
658.98	773.36
659.32	766.89
659.66	760.85
660.00	754.76
660.34	748.98
660.68	743.27
661.02	737.56
661.36	732.07
661.70	726.86
662.05	721.75
662.39	716.78
662.73	711.59
663.07	706.50
663.41	701.33
663.75	696.16
664.09	690.85
664.43	685.78
664.77	681.07
665.11	676.18
665.45	671.45
665.79	666.78
666.13	662.04
666.47	657.32
666.81	652.50
667.15	647.69
667.49	643.18
667.83	638.72
668.17	634.13
668.51	629.43
668.85	624.83
669.19	620.42
669.53	616.00
669.87	611.56
670.21	607.31
670.55	603.08
670.89	599.05
671.23	595.05
671.57	590.96
671.91	586.94
672.25	582.84
672.58	578.67
672.92	574.71
673.26	571.01
673.60	567.32
673.94	563.73
674.28	560.36
674.62	556.91
674.96	553.35
675.30	550.00
675.64	546.57
675.97	543.30
676.31	540.00
676.65	536.56
676.99	533.40
677.33	530.06
677.67	526.79
678.01	523.39
678.34	520.01
678.68	516.64
679.02	513.32
679.36	510.10
679.70	506.97
680.04	503.79
680.37	500.57
680.71	497.40
681.05	494.33
681.39	491.16
681.73	488.11
682.06	485.17
682.40	482.15
682.74	479.21
683.08	476.27
683.42	473.26
683.75	470.32
684.09	467.29
684.43	464.41
684.77	461.54
685.10	458.75
685.44	455.99
685.78	453.33
686.12	450.70
686.45	448.07
686.79	445.41
687.13	442.88
687.46	440.26
687.80	437.69
688.14	435.04
688.48	432.65
688.81	430.01
689.15	427.50
689.49	424.98
689.82	422.54
690.16	420.08
690.50	417.76
690.83	415.58
691.17	413.31
691.51	411.11
691.84	409.01
692.18	406.80
692.52	404.54
692.85	402.25
693.19	400.05
693.52	397.90
693.86	395.81
694.20	393.66
694.53	391.62
694.87	389.54
695.21	387.52
695.54	385.36
695.88	383.36
696.21	381.36
696.55	379.46
696.88	377.53
697.22	375.62
697.56	373.75
697.89	371.81
698.23	369.88
698.56	368.01
698.90	366.17
699.23	364.25
699.57	362.49
699.90	360.73
700.24	358.96
700.58	357.15
700.91	355.40
701.25	353.69
701.58	352.10
701.92	350.52
702.25	348.92
702.59	347.38
702.92	345.86
703.26	344.37
703.59	342.91
703.93	341.51
704.26	340.06
704.60	338.55
704.93	337.06
705.26	335.62
705.60	334.25
705.93	332.92
706.27	331.68
706.60	330.44
706.94	329.15
707.27	327.81
707.61	326.60
707.94	325.37
708.27	324.10
708.61	322.83
708.94	321.61
709.28	320.46
709.61	319.31
709.94	318.24
710.28	317.02
710.61	315.79
710.95	314.57
711.28	313.51
711.61	312.41
711.95	311.34
712.28	310.28
712.61	309.13
712.95	307.99
713.28	306.96
713.61	305.93
713.95	304.93
714.28	303.95
714.61	302.98
714.95	302.00
715.28	301.03
715.61	299.99
715.95	299.01
716.28	297.97
716.61	297.00
716.95	296.01
717.28	295.12
717.61	294.28
717.94	293.35
718.28	292.38
718.61	291.52
718.94	290.71
719.27	289.92
719.61	289.16
719.94	288.41
720.27	287.54
720.60	286.73
720.94	285.97
721.27	285.24
721.60	284.50
721.93	283.81
722.27	283.17
722.60	282.53
722.93	281.85
723.26	281.25
723.59	280.59
723.93	279.93
724.26	279.30
724.59	278.62
724.92	278.02
725.25	277.44
725.59	276.84
725.92	276.24
726.25	275.67
726.58	275.07
726.91	274.47
727.24	273.93
727.57	273.39
727.91	272.83
728.24	272.31
728.57	271.75
728.90	271.22
729.23	270.65
729.56	270.15
729.89	269.59
730.22	269.02
730.55	268.50
730.89	267.99
731.22	267.47
731.55	267.00
731.88	266.50
732.21	266.00
732.54	265.51
732.87	265.01
733.20	264.53
733.53	264.10
733.86	263.69
734.19	263.25
734.52	262.80
734.85	262.39
735.18	261.92
735.51	261.52
735.84	261.10
736.17	260.70
736.50	260.23
736.83	259.95
737.16	259.59
737.49	259.20
737.82	258.77
738.15	258.38
738.48	257.97
738.81	257.61
739.14	257.23
739.47	256.88
739.80	256.55
740.13	256.19
740.46	255.77
740.79	255.36
741.12	254.97
741.45	254.58
741.78	254.18
742.11	253.84
742.44	253.42
742.77	253.07
743.10	252.71
743.43	252.35
743.75	251.92
744.08	251.73
744.41	251.39
744.74	251.07
745.07	250.76
745.40	250.49
745.73	250.21
746.06	249.89
746.39	249.58
746.71	249.24
747.04	248.87
747.37	248.59
747.70	248.30
748.03	248.02
748.36	247.78
748.68	247.50
749.01	247.19
749.34	246.94
749.67	246.66
750.00	246.38
750.33	246.20
750.65	245.93
750.98	245.53
751.31	245.26
751.64	245.03
751.97	244.77
752.29	244.47
752.62	244.18
752.95	243.93
753.28	243.64
753.60	243.39
753.93	243.21
754.26	242.94
754.59	242.70
754.91	242.44
755.24	242.18
755.57	241.94
755.90	241.75
756.22	241.52
756.55	241.29
756.88	241.05
757.20	240.79
757.53	240.57
757.86	240.34
758.19	240.18
758.51	239.94
758.84	239.74
759.17	239.56
759.49	239.38
759.82	239.27
760.15	239.11
760.47	238.94
760.80	238.74
761.13	238.62
761.45	238.44
761.78	238.28
762.11	238.14
762.43	237.98
762.76	237.80
763.08	237.65
763.41	237.51
763.74	237.39
764.06	237.22
764.39	237.04
764.71	236.94
765.04	236.78
765.37	236.67
765.69	236.56
766.02	236.40
766.34	236.25
766.67	236.05
767.00	235.94
767.32	235.87
767.65	235.80
767.97	235.66
768.30	235.55
768.62	235.42
768.95	235.28
769.27	235.20
769.60	235.10
769.92	234.99
770.25	234.82
770.57	234.70
770.90	234.61
771.22	234.51
771.55	234.41
771.87	234.32
772.20	234.23
772.52	234.21
772.85	234.28
773.17	234.19
773.50	234.10
773.82	234.00
774.15	233.85
774.47	233.70
774.80	233.57
775.12	233.46
775.45	233.41
775.77	233.32
776.09	233.23
776.42	233.17
776.74	233.11
777.07	233.05
777.39	232.95
777.72	232.85
778.04	232.83
778.36	232.72
778.69	232.65
779.01	232.60
779.33	232.42
779.66	232.22
779.98	232.17
780.31	232.09
780.63	232.07
780.95	232.04
781.28	231.96
781.60	231.95
781.92	231.91
782.25	231.83
782.57	231.76
782.89	231.68
783.22	231.59
783.54	231.52
783.86	231.46
784.19	231.39
784.51	231.34
784.83	231.25
785.16	231.21
785.48	231.11
785.80	231.01
786.12	230.96
786.45	230.89
786.77	230.80
787.09	230.77
787.42	230.65
787.74	230.56
788.06	230.52
788.38	230.42
788.71	230.35
789.03	230.25
789.35	230.22
789.67	230.18
789.99	230.10
790.32	230.03
790.64	229.98
790.96	230.00
791.28	229.91
791.61	229.84
791.93	229.81
792.25	229.74
792.57	229.73
792.89	229.64
793.21	229.58
793.54	229.53
793.86	229.44
794.18	229.38
794.50	229.32
794.82	229.25
795.14	229.23
795.47	229.19
795.79	229.17
796.11	229.07
796.43	229.00
796.75	228.98
797.07	228.92
797.39	228.86
797.71	228.73
798.04	228.69
798.36	228.63
798.68	228.58
799.00	228.57
799.32	228.51
799.64	228.50
799.96	228.45
800.28	228.42
800.60	228.39
800.92	228.36
801.24	228.33
801.56	228.31
801.89	228.27
802.21	228.23
802.53	228.16
802.85	228.17
803.17	228.19
803.49	228.10
803.81	228.10
804.13	228.07
804.45	228.08
804.77	228.09
805.09	228.07
805.41	227.99
805.73	227.96
806.05	227.90
806.37	227.88
806.69	227.84
807.01	227.78
807.33	227.75
807.65	227.69
807.97	227.71
808.28	227.68
808.60	227.64
808.92	227.62
809.24	227.66
809.56	227.63
809.88	227.56
810.20	227.56
810.52	227.56
810.84	227.55
811.16	227.53
811.48	227.50
811.80	227.52
812.12	227.52
812.43	227.52
812.75	227.50
813.07	227.50
813.39	227.54
813.71	227.50
814.03	227.49
814.35	227.50
814.67	227.42
814.98	227.40
815.30	227.41
815.62	227.35
815.94	227.28
816.26	227.29
816.58	227.29
816.89	227.29
817.21	227.23
817.53	227.21
817.85	227.19
818.17	227.12
818.48	227.09
818.80	227.10
819.12	227.05
819.44	227.04
819.76	227.02
820.07	226.96
820.39	227.00
820.71	227.01
821.03	227.00
821.34	226.99
821.66	227.02
821.98	226.98
822.30	226.99
822.61	227.04
822.93	227.01
823.25	226.96
823.57	226.93
823.88	226.93
824.20	226.92
824.52	226.89
824.83	226.90
825.15	226.87
825.47	226.83
825.79	226.84
826.10	226.80
826.42	226.78
826.74	226.79
827.05	226.76
827.37	226.70
827.69	226.65
828.00	226.65
828.32	226.60
828.64	226.56
828.95	226.58
829.27	226.52
829.58	226.51
829.90	226.53
830.22	226.49
830.53	226.44
830.85	226.40
831.17	226.39
831.48	226.37
831.80	226.34
832.11	226.32
832.43	226.30
832.75	226.29
833.06	226.27
833.38	226.22
833.69	226.19
834.01	226.18
834.32	226.17
834.64	226.16
834.96	226.13
835.27	226.14
835.59	226.07
835.90	226.01
836.22	225.98
836.53	225.95
836.85	225.97
837.16	226.08
837.48	226.04
837.79	226.07
838.11	226.05
838.42	226.03
838.74	226.03
839.05	225.99
839.37	225.96
839.68	225.94
840.00	225.93
840.31	225.93
840.63	225.93
840.94	225.92
841.26	225.86
841.57	225.87
841.88	225.86
842.20	225.84
842.51	225.84
842.83	225.81
843.14	225.89
843.46	225.88
843.77	225.82
844.08	225.85
844.40	225.80
844.71	225.78
845.03	225.80
845.34	225.79
845.65	225.78
845.97	225.80
846.28	225.80
846.60	225.82
846.91	225.77
847.22	225.78
847.54	225.78
847.85	225.79
848.16	225.77
848.48	225.75
848.79	225.81
849.10	225.81
849.42	225.83
849.73	225.72
850.04	225.71
850.36	225.67
850.67	225.66
850.98	225.67
851.30	225.70
851.61	225.65
851.92	225.66
852.23	225.69
852.55	225.66
852.86	225.67
853.17	225.68
853.49	225.74
853.80	225.76
854.11	225.77
854.42	225.80
854.74	225.78
855.05	225.81
855.36	225.75
855.67	225.74
855.99	225.70
856.30	225.82
856.61	225.82
856.92	225.80
857.23	225.81
857.55	225.80
857.86	225.78
858.17	225.83
858.48	225.81
858.79	225.78
859.11	225.81
859.42	225.80
859.73	225.76
860.04	225.75
860.35	225.71
860.66	225.67
860.98	225.66
861.29	225.67
861.60	225.64
861.91	225.65
862.22	225.65
862.53	225.65
862.84	225.55
863.16	225.57
863.47	225.55
863.78	225.52
864.09	225.53
864.40	225.51
864.71	225.49
865.02	225.50
865.33	225.51
865.64	225.48
865.95	225.45
866.27	225.52
866.58	225.53
866.89	225.53
867.20	225.52
867.51	225.48
867.82	225.47
868.13	225.49
868.44	225.48
868.75	225.49
869.06	225.51
869.37	225.49
869.68	225.45
869.99	225.48
870.30	225.48
870.61	225.48
870.92	225.49
871.23	225.47
871.54	225.51
871.85	225.54
872.16	225.54
872.47	225.52
872.78	225.46
873.09	225.43
873.40	225.46
873.71	225.44
874.02	225.48
874.33	225.47
874.64	225.46
874.95	225.50
875.26	225.45
875.56	225.45
875.87	225.43
876.18	225.42
876.49	225.50
876.80	225.48
877.11	225.49
877.42	225.47
877.73	225.46
878.04	225.40
878.35	225.35
878.66	225.34
878.96	225.34
879.27	225.31
879.58	225.31
879.89	225.28
880.20	225.32
880.51	225.28
880.82	225.28
881.12	225.29
881.43	225.24
881.74	225.24
882.05	225.23
882.36	225.23
882.67	225.26
882.97	225.15
883.28	225.13
883.59	225.11
883.90	225.09
884.21	225.11
884.51	225.07
884.82	225.06
885.13	225.07
885.44	225.05
885.74	225.08
886.05	225.06
886.36	225.05
886.67	225.05
886.98	225.10
887.28	225.10
887.59	225.08
887.90	225.07
888.20	225.07
888.51	225.06
888.82	225.06
889.13	225.06
889.43	225.14
889.74	225.16
890.05	225.13
890.35	225.14
890.66	225.12
890.97	225.13
891.28	225.11
891.58	225.13
891.89	225.14
892.20	225.14
892.50	225.12
892.81	225.12
893.12	225.06
893.42	225.00
893.73	225.00
894.04	224.98
894.34	225.01
894.65	225.02
894.95	225.02
895.26	225.02
895.57	225.05
895.87	224.94
896.18	224.95
896.48	224.99
896.79	224.99
897.10	225.01
897.40	225.06
897.71	225.09
898.01	225.08
898.32	225.10
898.63	225.06
898.93	225.08
899.24	225.10
899.54	225.12
899.85	225.15
900.15	225.16
900.46	225.16
900.76	225.16
901.07	225.15
901.38	225.16
901.68	225.16
901.99	225.09
902.29	225.10
902.60	225.07
902.90	225.04
903.21	225.00
903.51	225.02
903.82	225.01
904.12	225.01
904.43	225.02
904.73	225.02
905.03	225.02
905.34	225.12
905.64	225.08
905.95	225.06
906.25	225.03
906.56	225.04
906.86	225.06
907.17	225.07
907.47	225.10
907.77	225.09
908.08	225.09
908.38	225.10
908.69	225.13
908.99	225.16
909.30	225.17
909.60	225.22
909.90	225.18
910.21	225.17
910.51	225.13
910.81	225.13
911.12	225.12
911.42	225.12
911.73	225.03
912.03	225.04
912.33	225.09
912.64	225.14
912.94	225.11
913.24	225.06
913.55	225.05
913.85	225.02
914.15	225.03
914.46	225.03
914.76	225.04
915.06	225.03
915.37	225.03
915.67	225.03
915.97	225.03
916.27	225.01
916.58	225.03
916.88	225.04
917.18	225.02
917.49	225.10
917.79	225.13
918.09	225.14
918.39	225.19
918.70	225.18
919.00	225.16
919.30	225.22
919.60	225.25
919.91	225.24
920.21	225.25
920.51	225.22
920.81	225.21
921.12	225.20
921.42	225.18
921.72	225.20
922.02	225.22
922.32	225.22
922.63	225.22
922.93	225.25
923.23	225.28
923.53	225.27
923.83	225.22
924.13	225.20
924.44	225.19
924.74	225.20
925.04	225.22
925.34	225.21
925.64	225.15
925.94	225.13
926.24	225.21
926.55	225.20
926.85	225.24
927.15	225.23
927.45	225.26
927.75	225.30
928.05	225.29
928.35	225.27
928.65	225.27
928.95	225.30
929.26	225.23
929.56	225.24
929.86	225.25
930.16	225.23
930.46	225.25
930.76	225.25
931.06	225.19
931.36	225.16
931.66	225.20
931.96	225.20
932.26	225.20
932.56	225.14
932.86	225.13
933.16	225.10
933.46	225.08
933.76	225.08
934.06	225.09
934.36	225.13
934.66	225.12
934.96	225.11
935.26	225.09
935.56	225.10
935.86	225.09
936.16	225.11
936.46	225.11
936.76	225.10
937.06	225.12
937.36	225.14
937.66	225.13
937.96	225.07
938.26	225.04
938.56	225.01
938.86	225.00
939.16	225.03
939.46	225.03
939.76	225.07
940.06	225.07
940.35	225.00
940.65	224.95
940.95	224.96
941.25	224.93
941.55	224.93
941.85	224.96
942.15	224.96
942.45	224.95
942.75	224.90
943.04	224.88
943.34	224.89
943.64	224.88
943.94	224.84
944.24	224.88
944.54	224.89
944.84	224.89
945.13	224.89
945.43	224.86
945.73	224.85
946.03	224.78
946.33	224.75
946.62	224.76
946.92	224.75
947.22	224.74
947.52	224.72
947.82	224.75
948.11	224.72
948.41	224.69
948.71	224.66
949.01	224.65
949.31	224.64
949.60	224.59
949.90	224.60
950.20	224.60
950.50	224.57
950.79	224.56
951.09	224.59
951.39	224.61
951.69	224.59
951.98	224.58
952.28	224.64
952.58	224.64
952.87	224.65
953.17	224.63
953.47	224.61
953.76	224.63
954.06	224.61
954.36	224.57
954.66	224.53
954.95	224.55
955.25	224.59
955.55	224.58
955.84	224.57
956.14	224.56
956.44	224.59
956.73	224.58
957.03	224.61
957.32	224.61
957.62	224.59
957.92	224.60
958.21	224.62
958.51	224.72
958.81	224.73
959.10	224.75
959.40	224.78
959.69	224.80
959.99	224.82
960.29	224.81
960.58	224.81
960.88	224.89
961.17	224.87
961.47	224.88
961.76	224.93
962.06	224.96
962.36	224.96
962.65	224.98
962.95	225.01
963.24	225.00
963.54	224.98
963.83	224.99
964.13	225.00
964.42	224.97
964.72	224.89
965.01	224.88
965.31	224.86
965.60	224.85
965.90	224.94
966.19	224.93
966.49	224.93
966.78	224.94
967.08	224.94
967.37	224.96
967.67	224.97
967.96	224.99
968.26	224.98
968.55	224.97
968.85	224.95
969.14	224.94
969.43	224.93
969.73	224.92
970.02	224.91
970.32	224.92
970.61	224.95
970.91	224.94
971.20	224.93
971.49	224.92
971.79	224.93
972.08	224.86
972.38	224.86
972.67	224.89
972.96	224.91
973.26	224.88
973.55	224.91
973.85	224.91
974.14	224.83
974.43	224.84
974.73	224.88
975.02	224.87
975.31	224.87
975.61	224.88
975.90	224.87
976.19	224.85
976.49	224.85
976.78	224.84
977.07	224.84
977.37	224.84
977.66	224.82
977.95	224.79
978.24	224.80
978.54	224.81
978.83	224.79
979.12	224.79
979.42	224.77
979.71	224.77
980.00	224.77
980.29	224.81
980.59	224.79
980.88	224.77
981.17	224.78
981.46	224.76
981.76	224.75
982.05	224.79
982.34	224.82
982.63	224.82
982.93	224.83
983.22	224.83
983.51	224.85
983.80	224.87
984.09	224.87
984.39	224.86
984.68	224.84
984.97	224.85
985.26	224.83
985.55	224.83
985.85	224.80
986.14	224.82
986.43	224.83
986.72	224.85
987.01	224.81
987.30	224.79
987.59	224.78
987.89	224.80
988.18	224.78
988.47	224.78
988.76	224.80
989.05	224.79
989.34	224.77
989.63	224.79
989.92	224.79
990.22	224.79
990.51	224.79
990.80	224.78
991.09	224.75
991.38	224.78
991.67	224.74
991.96	224.71
992.25	224.68
992.54	224.65
992.83	224.64
993.12	224.64
993.41	224.65
993.70	224.73
993.99	224.73
994.28	224.73
994.58	224.72
994.87	224.70
995.16	224.69
995.45	224.70
995.74	224.67
996.03	224.68
996.32	224.71
996.61	224.73
996.90	224.74
997.19	224.74
997.48	224.75
997.77	224.75
998.06	224.76
998.34	224.76
998.63	224.75
998.92	224.76
999.21	224.81
999.50	224.83
999.79	224.77
1000.08	224.78
1000.37	224.79
1000.66	224.80
1000.95	224.82
1001.24	224.85
1001.53	224.85
1001.82	224.84
1002.11	224.83
1002.40	224.82
1002.68	224.84
1002.97	224.89
1003.26	224.87
1003.55	224.82
1003.84	224.86
1004.13	224.91
1004.42	224.91
1004.71	224.92
1004.99	224.92
1005.28	224.90
1005.57	224.88
1005.86	224.89
1006.15	224.84
1006.44	224.83
1006.72	224.84
1007.01	224.81
1007.30	224.80
1007.59	224.78
1007.88	224.82
1008.17	224.82
1008.45	224.81
1008.74	224.74
1009.03	224.71
1009.32	224.73
1009.60	224.76
1009.89	224.75
1010.18	224.69
1010.47	224.69
1010.76	224.69
1011.04	224.68
1011.33	224.69
1011.62	224.68
1011.91	224.67
1012.19	224.70
1012.48	224.69
1012.77	224.67
1013.05	224.72
1013.34	224.71
1013.63	224.70
1013.92	224.70
1014.20	224.71
1014.49	224.70
1014.78	224.72
1015.06	224.68
1015.35	224.71
1015.64	224.71
1015.92	224.72
1016.21	224.73
1016.50	224.72
1016.78	224.73
1017.07	224.74
1017.36	224.69
1017.64	224.68
1017.93	224.68
1018.22	224.67
1018.50	224.68
1018.79	224.68
1019.08	224.63
1019.36	224.66
1019.65	224.63
1019.93	224.63
1020.22	224.61
1020.51	224.68
1020.79	224.66
1021.08	224.47
1021.36	224.65
1021.65	224.74
1021.94	224.72
1022.22	225.17
1022.51	223.88
1022.79	225.15
1023.08	224.39
1023.36	226.11
1023.65	224.28
>>>>>End Processed Spectral Data<<<<<
