SpectraSuite Data File
++++++++++++++++++++++++++++++++++++
Date: Fri Feb 01 15:01:38 EST 2013
User: group
Dark Spectrum Present: No
Reference Spectrum Present: No
Number of Sampled Component Spectra: 1
Spectrometers: USB2E7196
Integration Time (usec): 35000 (USB2E7196)
Spectra Averaged: 100 (USB2E7196)
Boxcar Smoothing: 10 (USB2E7196)
Correct for Electrical Dark: No (USB2E7196)
Strobe/Lamp Enabled: No (USB2E7196)
Correct for Detector Non-linearity: No (USB2E7196)
Correct for Stray Light: No (USB2E7196)
Number of Pixels in Processed Spectrum: 2048
>>>>>Begin Processed Spectral Data<<<<<
339.09	0.00
339.48	215.07
339.86	216.78
340.24	218.79
340.63	219.50
341.01	221.77
341.39	221.94
341.78	223.38
342.16	225.02
342.54	225.04
342.93	213.45
343.31	224.20
343.69	224.72
344.07	225.17
344.46	225.55
344.84	225.93
345.22	226.17
345.60	226.43
345.99	226.60
346.37	226.72
346.75	226.81
347.13	226.85
347.52	226.95
347.90	227.00
348.28	226.97
348.66	227.03
349.05	227.01
349.43	227.06
349.81	227.10
350.19	227.14
350.57	227.15
350.96	227.23
351.34	227.34
351.72	227.45
352.10	227.54
352.48	227.61
352.87	227.64
353.25	227.74
353.63	227.80
354.01	227.85
354.39	227.91
354.77	228.00
355.15	228.13
355.54	228.17
355.92	228.20
356.30	228.29
356.68	228.40
357.06	228.50
357.44	228.55
357.82	228.62
358.20	228.68
358.58	228.78
358.97	228.84
359.35	228.94
359.73	228.99
360.11	229.03
360.49	229.07
360.87	229.16
361.25	229.20
361.63	229.28
362.01	229.38
362.39	229.39
362.77	229.47
363.15	229.47
363.53	229.49
363.91	229.53
364.29	229.55
364.67	229.48
365.05	229.48
365.43	229.49
365.81	229.53
366.19	229.57
366.57	229.60
366.95	229.57
367.33	229.51
367.71	229.48
368.09	229.50
368.47	229.48
368.85	229.43
369.23	229.40
369.61	229.31
369.99	229.27
370.37	229.24
370.75	229.22
371.13	229.15
371.51	229.14
371.89	229.13
372.27	229.10
372.65	229.08
373.03	229.00
373.41	228.93
373.78	228.85
374.16	228.75
374.54	228.68
374.92	228.64
375.30	228.61
375.68	228.55
376.06	228.49
376.44	228.42
376.82	228.35
377.19	228.31
377.57	228.23
377.95	228.14
378.33	228.09
378.71	227.95
379.09	227.90
379.47	227.82
379.84	227.71
380.22	227.63
380.60	227.54
380.98	227.51
381.36	227.46
381.73	227.37
382.11	227.32
382.49	227.24
382.87	227.13
383.25	227.09
383.62	227.13
384.00	227.06
384.38	227.02
384.76	227.00
385.13	226.95
385.51	226.91
385.89	226.84
386.27	226.77
386.64	226.77
387.02	226.68
387.40	226.64
387.78	226.59
388.15	226.55
388.53	226.51
388.91	226.44
389.29	226.40
389.66	226.41
390.04	226.38
390.42	226.39
390.79	226.40
391.17	226.34
391.55	226.21
391.92	226.22
392.30	226.20
392.68	226.16
393.05	226.16
393.43	226.17
393.81	226.20
394.18	226.21
394.56	226.21
394.94	226.27
395.31	226.27
395.69	226.34
396.06	226.40
396.44	226.45
396.82	226.49
397.19	226.59
397.57	226.64
397.95	226.69
398.32	226.72
398.70	226.79
399.07	226.90
399.45	226.99
399.82	227.07
400.20	227.15
400.58	227.23
400.95	227.29
401.33	227.42
401.70	227.58
402.08	227.73
402.45	227.85
402.83	227.99
403.20	228.12
403.58	228.26
403.95	228.40
404.33	228.51
404.71	228.67
405.08	228.85
405.46	228.96
405.83	229.12
406.21	229.31
406.58	229.49
406.96	229.67
407.33	229.85
407.70	230.01
408.08	230.31
408.45	230.52
408.83	230.79
409.20	230.99
409.58	231.20
409.95	231.45
410.33	231.72
410.70	231.99
411.08	232.32
411.45	232.62
411.82	232.90
412.20	233.28
412.57	233.72
412.95	234.03
413.32	234.43
413.69	234.84
414.07	235.28
414.44	235.72
414.82	236.18
415.19	236.70
415.56	237.28
415.94	237.83
416.31	238.48
416.68	239.06
417.06	239.80
417.43	240.48
417.81	241.26
418.18	242.04
418.55	242.84
418.93	243.68
419.30	244.56
419.67	245.52
420.04	246.45
420.42	247.36
420.79	248.58
421.16	249.77
421.54	250.95
421.91	252.14
422.28	253.38
422.66	254.70
423.03	256.07
423.40	257.39
423.77	258.77
424.15	260.18
424.52	261.67
424.89	263.23
425.26	264.76
425.64	266.20
426.01	267.77
426.38	269.41
426.75	271.07
427.13	272.77
427.50	274.58
427.87	276.49
428.24	278.35
428.61	280.02
428.99	281.96
429.36	284.07
429.73	286.15
430.10	288.17
430.47	290.27
430.85	292.34
431.22	294.55
431.59	296.91
431.96	299.16
432.33	301.66
432.70	304.01
433.08	306.77
433.45	309.38
433.82	312.01
434.19	314.91
434.56	317.80
434.93	320.48
435.30	323.13
435.68	325.96
436.05	328.83
436.42	331.65
436.79	334.19
437.16	336.90
437.53	339.74
437.90	342.53
438.27	345.26
438.64	348.09
439.01	350.72
439.38	353.00
439.75	355.20
440.13	357.75
440.50	360.12
440.87	362.04
441.24	363.99
441.61	366.15
441.98	367.65
442.35	369.42
442.72	371.27
443.09	373.08
443.46	374.15
443.83	374.76
444.20	375.26
444.57	376.09
444.94	376.34
445.31	376.69
445.68	377.09
446.05	377.19
446.42	376.81
446.79	376.39
447.16	375.94
447.53	375.59
447.90	374.38
448.27	373.26
448.64	371.66
449.01	370.51
449.37	368.51
449.74	366.60
450.11	364.30
450.48	361.85
450.85	359.25
451.22	357.06
451.59	355.04
451.96	353.10
452.33	350.51
452.70	348.22
453.07	345.35
453.43	342.43
453.80	339.62
454.17	336.94
454.54	334.38
454.91	331.63
455.28	328.94
455.65	326.44
456.02	323.99
456.38	321.86
456.75	319.25
457.12	317.03
457.49	314.82
457.86	312.70
458.23	310.82
458.59	308.82
458.96	306.74
459.33	304.86
459.70	302.98
460.07	301.45
460.43	299.69
460.80	298.09
461.17	296.65
461.54	295.17
461.91	293.76
462.27	292.35
462.64	291.11
463.01	289.76
463.38	288.45
463.74	287.06
464.11	285.86
464.48	284.81
464.85	283.70
465.21	282.82
465.58	281.87
465.95	280.75
466.32	279.82
466.68	278.90
467.05	277.99
467.42	277.10
467.78	276.14
468.15	275.26
468.52	274.59
468.88	273.72
469.25	272.96
469.62	272.28
469.98	271.61
470.35	270.97
470.72	270.34
471.08	269.68
471.45	269.13
471.82	268.58
472.18	267.95
472.55	267.51
472.92	267.02
473.28	266.56
473.65	266.12
474.02	265.72
474.38	265.33
474.75	265.04
475.11	264.69
475.48	264.44
475.85	264.21
476.21	263.97
476.58	263.78
476.94	263.63
477.31	263.49
477.67	263.31
478.04	263.20
478.41	263.12
478.77	263.18
479.14	263.08
479.50	263.07
479.87	263.14
480.23	263.17
480.60	263.18
480.96	263.26
481.33	263.45
481.69	263.61
482.06	263.85
482.42	264.02
482.79	264.31
483.15	264.60
483.52	264.95
483.88	265.25
484.25	265.64
484.61	266.03
484.98	266.45
485.34	267.03
485.71	267.59
486.07	268.19
486.44	268.71
486.80	269.41
487.17	270.13
487.53	270.94
487.90	271.75
488.26	272.66
488.62	273.64
488.99	274.60
489.35	275.62
489.72	276.69
490.08	277.89
490.44	279.09
490.81	280.39
491.17	281.73
491.54	283.24
491.90	284.72
492.26	286.34
492.63	288.07
492.99	289.81
493.36	291.70
493.72	293.73
494.08	295.85
494.45	298.10
494.81	300.44
495.17	302.88
495.54	305.42
495.90	308.10
496.26	310.88
496.63	313.78
496.99	316.86
497.35	320.09
497.72	323.45
498.08	326.94
498.44	330.62
498.80	334.58
499.17	338.59
499.53	342.80
499.89	347.18
500.26	351.67
500.62	356.39
500.98	361.28
501.34	366.33
501.71	371.67
502.07	377.09
502.43	382.68
502.79	388.48
503.16	394.59
503.52	400.85
503.88	407.26
504.24	413.92
504.60	420.79
504.97	427.90
505.33	435.26
505.69	442.94
506.05	450.69
506.41	458.53
506.78	466.73
507.14	475.13
507.50	483.85
507.86	492.85
508.22	501.96
508.59	511.21
508.95	520.81
509.31	530.59
509.67	540.66
510.03	550.96
510.39	561.49
510.75	572.23
511.12	583.17
511.48	594.43
511.84	605.87
512.20	617.41
512.56	629.39
512.92	641.51
513.28	653.80
513.64	666.33
514.00	678.97
514.37	691.86
514.73	704.91
515.09	717.88
515.45	731.18
515.81	744.82
516.17	758.76
516.53	772.87
516.89	787.06
517.25	801.31
517.61	815.76
517.97	830.20
518.33	844.68
518.69	859.52
519.05	874.58
519.41	889.82
519.77	905.33
520.13	920.78
520.49	936.22
520.85	951.80
521.21	967.41
521.57	983.78
521.93	999.61
522.29	1016.04
522.65	1032.42
523.01	1048.70
523.37	1064.77
523.73	1081.10
524.09	1097.33
524.45	1113.66
524.81	1130.24
525.17	1147.16
525.53	1164.16
525.89	1181.21
526.25	1198.02
526.61	1214.39
526.97	1231.23
527.33	1247.81
527.68	1264.53
528.04	1280.99
528.40	1297.62
528.76	1314.90
529.12	1331.54
529.48	1348.48
529.84	1364.61
530.20	1381.27
530.56	1398.34
530.91	1415.73
531.27	1432.54
531.63	1449.06
531.99	1465.76
532.35	1481.91
532.71	1497.84
533.07	1514.15
533.42	1529.99
533.78	1546.07
534.14	1562.41
534.50	1577.71
534.86	1593.68
535.21	1608.89
535.57	1625.04
535.93	1640.64
536.29	1655.42
536.65	1670.61
537.00	1685.48
537.36	1700.80
537.72	1715.51
538.08	1730.05
538.44	1743.96
538.79	1757.82
539.15	1771.55
539.51	1785.39
539.87	1799.94
540.22	1813.78
540.58	1827.81
540.94	1841.44
541.29	1854.56
541.65	1867.49
542.01	1880.97
542.37	1893.41
542.72	1906.00
543.08	1917.79
543.44	1930.23
543.79	1941.63
544.15	1952.56
544.51	1964.26
544.87	1975.38
545.22	1986.16
545.58	1996.39
545.94	2006.36
546.29	2016.35
546.65	2026.28
547.01	2035.56
547.36	2044.20
547.72	2052.70
548.07	2060.39
548.43	2068.53
548.79	2076.56
549.14	2083.97
549.50	2091.33
549.86	2099.00
550.21	2106.23
550.57	2113.37
550.92	2119.89
551.28	2126.93
551.64	2134.17
551.99	2140.64
552.35	2146.71
552.70	2152.92
553.06	2158.85
553.41	2165.11
553.77	2171.14
554.13	2177.13
554.48	2183.34
554.84	2188.75
555.19	2193.99
555.55	2199.16
555.90	2203.49
556.26	2208.16
556.61	2213.00
556.97	2217.11
557.32	2221.18
557.68	2225.35
558.03	2229.78
558.39	2233.63
558.74	2238.13
559.10	2241.83
559.45	2245.45
559.81	2249.81
560.16	2253.46
560.52	2256.70
560.87	2260.18
561.23	2262.80
561.58	2265.80
561.94	2268.22
562.29	2270.71
562.64	2273.44
563.00	2275.96
563.35	2279.43
563.71	2282.58
564.06	2285.60
564.42	2288.32
564.77	2290.71
565.12	2292.83
565.48	2294.48
565.83	2296.21
566.19	2297.46
566.54	2298.37
566.89	2299.27
567.25	2299.72
567.60	2300.80
567.96	2302.36
568.31	2302.98
568.66	2303.86
569.02	2304.18
569.37	2304.28
569.72	2304.81
570.08	2304.75
570.43	2304.71
570.78	2303.89
571.14	2302.32
571.49	2300.97
571.84	2300.59
572.20	2299.20
572.55	2298.08
572.90	2296.49
573.26	2294.84
573.61	2292.96
573.96	2290.96
574.31	2287.87
574.67	2284.67
575.02	2281.14
575.37	2277.48
575.72	2273.54
576.08	2270.26
576.43	2266.92
576.78	2263.04
577.13	2259.83
577.49	2256.67
577.84	2252.90
578.19	2249.01
578.54	2245.18
578.90	2240.76
579.25	2235.11
579.60	2230.10
579.95	2224.82
580.30	2219.64
580.66	2214.43
581.01	2209.37
581.36	2204.31
581.71	2200.12
582.06	2195.56
582.42	2190.90
582.77	2185.66
583.12	2180.93
583.47	2175.90
583.82	2170.64
584.17	2165.41
584.53	2159.75
584.88	2153.83
585.23	2147.96
585.58	2142.48
585.93	2136.91
586.28	2132.05
586.63	2126.80
586.98	2121.63
587.34	2116.95
587.69	2111.91
588.04	2106.58
588.39	2100.95
588.74	2094.41
589.09	2088.19
589.44	2081.26
589.79	2075.12
590.14	2069.18
590.49	2062.52
590.84	2055.98
591.19	2049.78
591.54	2043.16
591.89	2035.53
592.25	2028.73
592.60	2021.48
592.95	2013.88
593.30	2006.49
593.65	1998.56
594.00	1991.50
594.35	1984.19
594.70	1976.01
595.05	1968.72
595.40	1961.23
595.75	1953.55
596.10	1947.14
596.45	1940.20
596.80	1933.95
597.15	1927.21
597.50	1920.23
597.85	1913.64
598.19	1906.97
598.54	1899.88
598.89	1893.26
599.24	1887.30
599.59	1880.54
599.94	1874.21
600.29	1867.76
600.64	1861.01
600.99	1853.66
601.34	1846.70
601.69	1839.70
602.04	1832.78
602.39	1825.32
602.74	1818.44
603.08	1811.68
603.43	1804.99
603.78	1797.61
604.13	1790.37
604.48	1783.09
604.83	1776.17
605.18	1769.14
605.53	1761.16
605.87	1753.18
606.22	1745.91
606.57	1737.98
606.92	1730.50
607.27	1723.16
607.62	1716.24
607.96	1708.98
608.31	1702.27
608.66	1694.56
609.01	1686.99
609.36	1679.53
609.70	1671.57
610.05	1663.56
610.40	1655.94
610.75	1647.55
611.10	1639.97
611.44	1631.63
611.79	1623.72
612.14	1615.07
612.49	1606.02
612.83	1597.67
613.18	1589.64
613.53	1581.58
613.88	1573.18
614.22	1565.04
614.57	1556.55
614.92	1548.45
615.27	1540.87
615.61	1532.58
615.96	1524.55
616.31	1516.93
616.65	1509.57
617.00	1501.96
617.35	1494.24
617.70	1485.76
618.04	1477.31
618.39	1469.13
618.74	1461.54
619.08	1453.18
619.43	1445.63
619.78	1438.72
620.12	1431.59
620.47	1424.06
620.82	1415.83
621.16	1408.46
621.51	1400.89
621.85	1393.43
622.20	1384.94
622.55	1376.62
622.89	1368.88
623.24	1361.43
623.59	1354.11
623.93	1346.55
624.28	1339.32
624.62	1331.89
624.97	1324.74
625.32	1318.01
625.66	1310.96
626.01	1303.64
626.35	1296.25
626.70	1288.62
627.04	1280.92
627.39	1273.20
627.73	1265.79
628.08	1258.93
628.43	1251.47
628.77	1244.04
629.12	1236.50
629.46	1229.43
629.81	1222.21
630.15	1215.02
630.50	1207.67
630.84	1199.50
631.19	1191.66
631.53	1184.31
631.88	1176.79
632.22	1169.34
632.57	1162.10
632.91	1154.66
633.26	1147.31
633.60	1140.02
633.95	1133.01
634.29	1126.13
634.64	1119.46
634.98	1112.13
635.32	1105.10
635.67	1098.63
636.01	1092.08
636.36	1085.36
636.70	1078.86
637.05	1072.23
637.39	1065.88
637.73	1059.42
638.08	1053.64
638.42	1047.74
638.77	1041.30
639.11	1034.77
639.45	1028.40
639.80	1021.73
640.14	1015.33
640.49	1008.94
640.83	1002.69
641.17	996.45
641.52	990.22
641.86	983.93
642.20	978.15
642.55	971.90
642.89	965.51
643.23	959.05
643.58	953.33
643.92	947.20
644.26	941.17
644.61	935.15
644.95	929.19
645.29	922.57
645.64	915.78
645.98	909.52
646.32	903.66
646.66	897.71
647.01	891.98
647.35	886.35
647.69	880.57
648.04	875.12
648.38	869.32
648.72	863.25
649.06	857.15
649.41	851.25
649.75	845.27
650.09	839.32
650.43	833.57
650.78	827.40
651.12	821.42
651.46	815.70
651.80	809.87
652.14	804.44
652.49	799.10
652.83	793.99
653.17	788.35
653.51	782.66
653.85	777.16
654.20	771.53
654.54	765.47
654.88	759.79
655.22	753.85
655.56	748.19
655.90	742.65
656.25	737.38
656.59	732.03
656.93	726.98
657.27	721.84
657.61	716.41
657.95	711.30
658.29	706.19
658.64	700.99
658.98	695.76
659.32	690.27
659.66	685.12
660.00	679.82
660.34	674.82
660.68	669.96
661.02	664.98
661.36	660.29
661.70	655.88
662.05	651.58
662.39	647.25
662.73	642.77
663.07	638.48
663.41	634.04
663.75	629.59
664.09	624.99
664.43	620.62
664.77	616.55
665.11	612.36
665.45	608.36
665.79	604.34
666.13	600.30
666.47	596.26
666.81	592.06
667.15	587.97
667.49	584.16
667.83	580.39
668.17	576.53
668.51	572.51
668.85	568.55
669.19	564.65
669.53	560.80
669.87	556.97
670.21	553.29
670.55	549.72
670.89	546.29
671.23	542.89
671.57	539.41
671.91	535.86
672.25	532.36
672.58	528.85
672.92	525.46
673.26	522.25
673.60	519.16
673.94	516.15
674.28	513.30
674.62	510.36
674.96	507.30
675.30	504.41
675.64	501.51
675.97	498.77
676.31	495.98
676.65	493.08
676.99	490.36
677.33	487.49
677.67	484.70
678.01	481.70
678.34	478.74
678.68	475.92
679.02	473.13
679.36	470.39
679.70	467.71
680.04	464.87
680.37	462.01
680.71	459.21
681.05	456.57
681.39	453.85
681.73	451.18
682.06	448.58
682.40	446.04
682.74	443.52
683.08	440.95
683.42	438.35
683.75	435.96
684.09	433.49
684.43	431.10
684.77	428.66
685.10	426.35
685.44	424.06
685.78	421.78
686.12	419.59
686.45	417.34
686.79	415.02
687.13	412.95
687.46	410.83
687.80	408.73
688.14	406.56
688.48	404.51
688.81	402.26
689.15	400.19
689.49	398.09
689.82	396.02
690.16	393.96
690.50	392.02
690.83	390.04
691.17	388.08
691.51	386.15
691.84	384.31
692.18	382.37
692.52	380.43
692.85	378.47
693.19	376.65
693.52	374.82
693.86	373.00
694.20	371.26
694.53	369.52
694.87	367.68
695.21	365.91
695.54	364.08
695.88	362.41
696.21	360.67
696.55	358.96
696.88	357.28
697.22	355.63
697.56	354.01
697.89	352.35
698.23	350.74
698.56	349.12
698.90	347.53
699.23	345.85
699.57	344.29
699.90	342.74
700.24	341.12
700.58	339.56
700.91	338.10
701.25	336.59
701.58	335.18
701.92	333.82
702.25	332.43
702.59	331.05
702.92	329.76
703.26	328.49
703.59	327.25
703.93	326.04
704.26	324.80
704.60	323.49
704.93	322.24
705.26	320.98
705.60	319.81
705.93	318.65
706.27	317.65
706.60	316.65
706.94	315.62
707.27	314.56
707.61	313.52
707.94	312.47
708.27	311.39
708.61	310.28
708.94	309.26
709.28	308.28
709.61	307.38
709.94	306.43
710.28	305.39
710.61	304.39
710.95	303.37
711.28	302.45
711.61	301.50
711.95	300.60
712.28	299.69
712.61	298.71
712.95	297.82
713.28	296.95
713.61	296.03
713.95	295.13
714.28	294.29
714.61	293.44
714.95	292.64
715.28	291.80
715.61	290.99
715.95	290.17
716.28	289.34
716.61	288.49
716.95	287.65
717.28	286.95
717.61	286.21
717.94	285.43
718.28	284.67
718.61	283.98
718.94	283.28
719.27	282.62
719.61	282.02
719.94	281.31
720.27	280.62
720.60	279.99
720.94	279.39
721.27	278.75
721.60	278.15
721.93	277.51
722.27	277.01
722.60	276.47
722.93	275.89
723.26	275.37
723.59	274.79
723.93	274.25
724.26	273.73
724.59	273.20
724.92	272.70
725.25	272.19
725.59	271.66
725.92	271.20
726.25	270.69
726.58	270.22
726.91	269.72
727.24	269.23
727.57	268.74
727.91	268.21
728.24	267.79
728.57	267.33
728.90	266.91
729.23	266.43
729.56	265.98
729.89	265.50
730.22	264.99
730.55	264.55
730.89	264.10
731.22	263.65
731.55	263.20
731.88	262.78
732.21	262.33
732.54	261.90
732.87	261.49
733.20	261.10
733.53	260.71
733.86	260.36
734.19	259.94
734.52	259.56
734.85	259.27
735.18	258.83
735.51	258.47
735.84	258.12
736.17	257.73
736.50	257.34
736.83	257.10
737.16	256.81
737.49	256.50
737.82	256.17
738.15	255.80
738.48	255.45
738.81	255.16
739.14	254.84
739.47	254.57
739.80	254.24
740.13	253.88
740.46	253.52
740.79	253.19
741.12	252.94
741.45	252.62
741.78	252.26
742.11	252.02
742.44	251.71
742.77	251.43
743.10	251.13
743.43	250.84
743.75	250.48
744.08	250.32
744.41	250.04
744.74	249.75
745.07	249.47
745.40	249.21
745.73	248.94
746.06	248.63
746.39	248.33
746.71	248.06
747.04	247.83
747.37	247.58
747.70	247.31
748.03	247.07
748.36	246.86
748.68	246.63
749.01	246.36
749.34	246.12
749.67	245.85
750.00	245.63
750.33	245.44
750.65	245.26
750.98	244.94
751.31	244.71
751.64	244.52
751.97	244.37
752.29	244.15
752.62	243.90
752.95	243.69
753.28	243.47
753.60	243.26
753.93	243.04
754.26	242.86
754.59	242.65
754.91	242.43
755.24	242.23
755.57	242.03
755.90	241.83
756.22	241.63
756.55	241.45
756.88	241.28
757.20	241.07
757.53	240.85
757.86	240.65
758.19	240.52
758.51	240.35
758.84	240.13
759.17	239.97
759.49	239.84
759.82	239.78
760.15	239.67
760.47	239.53
760.80	239.39
761.13	239.29
761.45	239.14
761.78	238.97
762.11	238.85
762.43	238.70
762.76	238.55
763.08	238.46
763.41	238.33
763.74	238.18
764.06	238.04
764.39	237.88
764.71	237.73
765.04	237.54
765.37	237.41
765.69	237.25
766.02	237.15
766.34	237.02
766.67	236.86
767.00	236.77
767.32	236.71
767.65	236.65
767.97	236.48
768.30	236.38
768.62	236.30
768.95	236.17
769.27	236.04
769.60	235.95
769.92	235.80
770.25	235.67
770.57	235.59
770.90	235.52
771.22	235.40
771.55	235.33
771.87	235.28
772.20	235.21
772.52	235.24
772.85	235.23
773.17	235.13
773.50	235.04
773.82	234.95
774.15	234.81
774.47	234.69
774.80	234.59
775.12	234.49
775.45	234.42
775.77	234.34
776.09	234.32
776.42	234.24
776.74	234.19
777.07	234.12
777.39	234.05
777.72	233.92
778.04	233.89
778.36	233.81
778.69	233.72
779.01	233.65
779.33	233.52
779.66	233.33
779.98	233.26
780.31	233.20
780.63	233.14
780.95	233.08
781.28	233.02
781.60	232.97
781.92	232.93
782.25	232.86
782.57	232.81
782.89	232.73
783.22	232.67
783.54	232.61
783.86	232.57
784.19	232.48
784.51	232.45
784.83	232.36
785.16	232.29
785.48	232.25
785.80	232.20
786.12	232.11
786.45	232.09
786.77	232.03
787.09	232.00
787.42	231.92
787.74	231.86
788.06	231.85
788.38	231.78
788.71	231.72
789.03	231.69
789.35	231.66
789.67	231.62
789.99	231.58
790.32	231.53
790.64	231.48
790.96	231.53
791.28	231.49
791.61	231.45
791.93	231.42
792.25	231.37
792.57	231.39
792.89	231.35
793.21	231.33
793.54	231.32
793.86	231.26
794.18	231.22
794.50	231.18
794.82	231.14
795.14	231.14
795.47	231.13
795.79	231.13
796.11	231.02
796.43	230.97
796.75	230.91
797.07	230.87
797.39	230.84
797.71	230.73
798.04	230.70
798.36	230.69
798.68	230.67
799.00	230.64
799.32	230.57
799.64	230.58
799.96	230.56
800.28	230.52
800.60	230.44
800.92	230.44
801.24	230.38
801.56	230.33
801.89	230.25
802.21	230.19
802.53	230.10
802.85	230.13
803.17	230.17
803.49	230.16
803.81	230.11
804.13	230.10
804.45	230.05
804.77	230.03
805.09	230.02
805.41	229.96
805.73	229.89
806.05	229.84
806.37	229.78
806.69	229.74
807.01	229.72
807.33	229.74
807.65	229.66
807.97	229.70
808.28	229.68
808.60	229.71
808.92	229.68
809.24	229.73
809.56	229.68
809.88	229.58
810.20	229.56
810.52	229.56
810.84	229.47
811.16	229.46
811.48	229.45
811.80	229.45
812.12	229.46
812.43	229.46
812.75	229.44
813.07	229.42
813.39	229.37
813.71	229.35
814.03	229.31
814.35	229.28
814.67	229.23
814.98	229.20
815.30	229.13
815.62	229.09
815.94	229.01
816.26	229.03
816.58	229.03
816.89	229.02
817.21	228.99
817.53	229.01
817.85	228.97
818.17	228.91
818.48	228.86
818.80	228.86
819.12	228.83
819.44	228.79
819.76	228.79
820.07	228.80
820.39	228.78
820.71	228.79
821.03	228.76
821.34	228.73
821.66	228.70
821.98	228.70
822.30	228.68
822.61	228.74
822.93	228.64
823.25	228.60
823.57	228.57
823.88	228.56
824.20	228.54
824.52	228.53
824.83	228.52
825.15	228.50
825.47	228.46
825.79	228.46
826.10	228.45
826.42	228.41
826.74	228.39
827.05	228.38
827.37	228.33
827.69	228.32
828.00	228.34
828.32	228.39
828.64	228.38
828.95	228.40
829.27	228.32
829.58	228.35
829.90	228.34
830.22	228.35
830.53	228.30
830.85	228.26
831.17	228.24
831.48	228.24
831.80	228.19
832.11	228.19
832.43	228.16
832.75	228.16
833.06	228.21
833.38	228.18
833.69	228.17
834.01	228.17
834.32	228.22
834.64	228.19
834.96	228.14
835.27	228.11
835.59	228.08
835.90	228.10
836.22	228.11
836.53	228.09
836.85	228.08
837.16	228.17
837.48	228.20
837.79	228.24
838.11	228.22
838.42	228.27
838.74	228.25
839.05	228.23
839.37	228.20
839.68	228.13
840.00	228.11
840.31	228.12
840.63	228.10
840.94	228.05
841.26	228.04
841.57	228.04
841.88	228.08
842.20	228.10
842.51	228.02
842.83	228.02
843.14	228.12
843.46	228.14
843.77	228.10
844.08	228.08
844.40	228.05
844.71	228.06
845.03	228.03
845.34	228.06
845.65	228.08
845.97	228.09
846.28	228.10
846.60	228.10
846.91	228.07
847.22	228.04
847.54	228.07
847.85	228.07
848.16	228.04
848.48	228.01
848.79	228.03
849.10	228.08
849.42	228.07
849.73	227.98
850.04	227.94
850.36	227.91
850.67	227.95
850.98	227.93
851.30	227.92
851.61	227.94
851.92	227.93
852.23	227.92
852.55	227.91
852.86	227.91
853.17	227.93
853.49	227.96
853.80	228.00
854.11	228.01
854.42	228.02
854.74	228.02
855.05	228.02
855.36	227.98
855.67	227.97
855.99	227.96
856.30	228.06
856.61	228.04
856.92	228.06
857.23	228.07
857.55	228.08
857.86	228.07
858.17	228.03
858.48	228.03
858.79	228.01
859.11	228.03
859.42	228.01
859.73	228.01
860.04	228.01
860.35	227.99
860.66	227.93
860.98	227.92
861.29	227.91
861.60	227.89
861.91	227.89
862.22	227.85
862.53	227.82
862.84	227.70
863.16	227.72
863.47	227.68
863.78	227.68
864.09	227.67
864.40	227.69
864.71	227.70
865.02	227.67
865.33	227.67
865.64	227.67
865.95	227.67
866.27	227.72
866.58	227.68
866.89	227.70
867.20	227.68
867.51	227.66
867.82	227.67
868.13	227.70
868.44	227.71
868.75	227.76
869.06	227.76
869.37	227.77
869.68	227.73
869.99	227.74
870.30	227.68
870.61	227.66
870.92	227.64
871.23	227.61
871.54	227.60
871.85	227.63
872.16	227.61
872.47	227.59
872.78	227.51
873.09	227.53
873.40	227.52
873.71	227.55
874.02	227.57
874.33	227.55
874.64	227.52
874.95	227.51
875.26	227.47
875.56	227.48
875.87	227.43
876.18	227.45
876.49	227.52
876.80	227.53
877.11	227.51
877.42	227.52
877.73	227.52
878.04	227.54
878.35	227.55
878.66	227.56
878.96	227.56
879.27	227.53
879.58	227.54
879.89	227.52
880.20	227.57
880.51	227.51
880.82	227.53
881.12	227.55
881.43	227.54
881.74	227.54
882.05	227.55
882.36	227.58
882.67	227.61
882.97	227.52
883.28	227.51
883.59	227.53
883.90	227.52
884.21	227.53
884.51	227.52
884.82	227.46
885.13	227.48
885.44	227.45
885.74	227.51
886.05	227.48
886.36	227.48
886.67	227.41
886.98	227.49
887.28	227.48
887.59	227.49
887.90	227.50
888.20	227.47
888.51	227.49
888.82	227.50
889.13	227.48
889.43	227.58
889.74	227.58
890.05	227.59
890.35	227.58
890.66	227.58
890.97	227.53
891.28	227.55
891.58	227.52
891.89	227.55
892.20	227.50
892.50	227.49
892.81	227.49
893.12	227.51
893.42	227.44
893.73	227.44
894.04	227.41
894.34	227.43
894.65	227.44
894.95	227.41
895.26	227.43
895.57	227.46
895.87	227.34
896.18	227.38
896.48	227.35
896.79	227.34
897.10	227.35
897.40	227.37
897.71	227.38
898.01	227.36
898.32	227.35
898.63	227.37
898.93	227.40
899.24	227.38
899.54	227.37
899.85	227.34
900.15	227.33
900.46	227.33
900.76	227.30
901.07	227.32
901.38	227.28
901.68	227.24
901.99	227.17
902.29	227.18
902.60	227.16
902.90	227.15
903.21	227.18
903.51	227.16
903.82	227.16
904.12	227.16
904.43	227.18
904.73	227.19
905.03	227.18
905.34	227.25
905.64	227.23
905.95	227.24
906.25	227.27
906.56	227.27
906.86	227.25
907.17	227.25
907.47	227.24
907.77	227.26
908.08	227.28
908.38	227.29
908.69	227.30
908.99	227.30
909.30	227.31
909.60	227.30
909.90	227.34
910.21	227.35
910.51	227.33
910.81	227.34
911.12	227.35
911.42	227.34
911.73	227.24
912.03	227.28
912.33	227.30
912.64	227.28
912.94	227.27
913.24	227.25
913.55	227.20
913.85	227.17
914.15	227.21
914.46	227.20
914.76	227.20
915.06	227.19
915.37	227.18
915.67	227.18
915.97	227.19
916.27	227.16
916.58	227.16
916.88	227.17
917.18	227.13
917.49	227.20
917.79	227.22
918.09	227.25
918.39	227.28
918.70	227.28
919.00	227.29
919.30	227.36
919.60	227.37
919.91	227.37
920.21	227.40
920.51	227.37
920.81	227.37
921.12	227.40
921.42	227.36
921.72	227.38
922.02	227.39
922.32	227.40
922.63	227.41
922.93	227.46
923.23	227.49
923.53	227.52
923.83	227.42
924.13	227.42
924.44	227.43
924.74	227.45
925.04	227.46
925.34	227.50
925.64	227.46
925.94	227.48
926.24	227.57
926.55	227.58
926.85	227.60
927.15	227.64
927.45	227.65
927.75	227.64
928.05	227.61
928.35	227.61
928.65	227.63
928.95	227.66
929.26	227.63
929.56	227.62
929.86	227.61
930.16	227.60
930.46	227.58
930.76	227.57
931.06	227.53
931.36	227.51
931.66	227.48
931.96	227.46
932.26	227.46
932.56	227.40
932.86	227.38
933.16	227.38
933.46	227.35
933.76	227.32
934.06	227.40
934.36	227.46
934.66	227.46
934.96	227.44
935.26	227.39
935.56	227.39
935.86	227.38
936.16	227.39
936.46	227.39
936.76	227.37
937.06	227.35
937.36	227.33
937.66	227.31
937.96	227.32
938.26	227.31
938.56	227.31
938.86	227.29
939.16	227.35
939.46	227.37
939.76	227.40
940.06	227.41
940.35	227.39
940.65	227.33
940.95	227.32
941.25	227.30
941.55	227.29
941.85	227.29
942.15	227.27
942.45	227.30
942.75	227.29
943.04	227.29
943.34	227.32
943.64	227.31
943.94	227.28
944.24	227.25
944.54	227.30
944.84	227.25
945.13	227.27
945.43	227.20
945.73	227.13
946.03	227.08
946.33	227.05
946.62	227.01
946.92	227.01
947.22	227.03
947.52	227.02
947.82	227.05
948.11	227.01
948.41	226.99
948.71	226.90
949.01	226.94
949.31	226.96
949.60	226.92
949.90	226.94
950.20	226.93
950.50	226.94
950.79	226.90
951.09	226.93
951.39	226.90
951.69	226.89
951.98	226.90
952.28	226.89
952.58	226.89
952.87	226.91
953.17	226.91
953.47	226.90
953.76	226.87
954.06	226.82
954.36	226.80
954.66	226.84
954.95	226.89
955.25	226.86
955.55	226.85
955.84	226.84
956.14	226.82
956.44	226.84
956.73	226.82
957.03	226.83
957.32	226.81
957.62	226.81
957.92	226.81
958.21	226.86
958.51	226.96
958.81	226.95
959.10	226.95
959.40	226.95
959.69	226.92
959.99	226.92
960.29	226.93
960.58	226.96
960.88	226.96
961.17	226.98
961.47	227.02
961.76	227.01
962.06	227.02
962.36	227.01
962.65	227.03
962.95	227.04
963.24	226.99
963.54	227.00
963.83	227.00
964.13	227.01
964.42	226.96
964.72	226.92
965.01	226.97
965.31	226.94
965.60	226.93
965.90	226.99
966.19	227.00
966.49	227.00
966.78	226.99
967.08	227.00
967.37	226.97
967.67	226.94
967.96	226.97
968.26	226.96
968.55	227.03
968.85	227.03
969.14	227.03
969.43	227.08
969.73	227.13
970.02	227.14
970.32	227.15
970.61	227.15
970.91	227.13
971.20	227.10
971.49	227.11
971.79	227.13
972.08	227.07
972.38	227.08
972.67	227.08
972.96	227.09
973.26	227.10
973.55	227.14
973.85	227.16
974.14	227.17
974.43	227.22
974.73	227.20
975.02	227.22
975.31	227.22
975.61	227.24
975.90	227.22
976.19	227.21
976.49	227.21
976.78	227.22
977.07	227.22
977.37	227.24
977.66	227.25
977.95	227.23
978.24	227.27
978.54	227.29
978.83	227.27
979.12	227.27
979.42	227.25
979.71	227.19
980.00	227.17
980.29	227.17
980.59	227.11
980.88	227.11
981.17	227.08
981.46	227.09
981.76	227.09
982.05	227.16
982.34	227.15
982.63	227.16
982.93	227.18
983.22	227.17
983.51	227.15
983.80	227.18
984.09	227.23
984.39	227.19
984.68	227.22
984.97	227.26
985.26	227.24
985.55	227.25
985.85	227.27
986.14	227.28
986.43	227.29
986.72	227.28
987.01	227.22
987.30	227.22
987.59	227.21
987.89	227.18
988.18	227.12
988.47	227.13
988.76	227.13
989.05	227.10
989.34	227.10
989.63	227.10
989.92	227.09
990.22	227.01
990.51	227.00
990.80	226.98
991.09	226.97
991.38	226.98
991.67	226.93
991.96	226.95
992.25	226.93
992.54	226.90
992.83	226.88
993.12	226.91
993.41	226.91
993.70	226.90
993.99	226.91
994.28	226.90
994.58	226.91
994.87	226.86
995.16	226.83
995.45	226.83
995.74	226.79
996.03	226.76
996.32	226.82
996.61	226.86
996.90	226.87
997.19	226.86
997.48	226.89
997.77	226.91
998.06	226.87
998.34	226.90
998.63	226.91
998.92	226.93
999.21	226.93
999.50	226.93
999.79	226.91
1000.08	226.92
1000.37	226.90
1000.66	226.87
1000.95	226.91
1001.24	226.94
1001.53	226.94
1001.82	226.98
1002.11	226.99
1002.40	226.97
1002.68	226.99
1002.97	227.03
1003.26	227.03
1003.55	226.98
1003.84	226.97
1004.13	227.03
1004.42	227.00
1004.71	227.02
1004.99	227.03
1005.28	227.05
1005.57	227.04
1005.86	227.04
1006.15	227.04
1006.44	227.05
1006.72	227.10
1007.01	227.09
1007.30	227.09
1007.59	227.08
1007.88	227.10
1008.17	227.10
1008.45	227.11
1008.74	227.05
1009.03	226.98
1009.32	227.00
1009.60	227.04
1009.89	227.06
1010.18	227.01
1010.47	227.02
1010.76	226.99
1011.04	226.99
1011.33	227.00
1011.62	227.02
1011.91	227.05
1012.19	227.06
1012.48	227.07
1012.77	227.03
1013.05	227.10
1013.34	227.10
1013.63	227.14
1013.92	227.11
1014.20	227.11
1014.49	227.11
1014.78	227.12
1015.06	227.15
1015.35	227.13
1015.64	227.15
1015.92	227.16
1016.21	227.18
1016.50	227.19
1016.78	227.23
1017.07	227.24
1017.36	227.20
1017.64	227.18
1017.93	227.18
1018.22	227.18
1018.50	227.16
1018.79	227.15
1019.08	227.09
1019.36	227.07
1019.65	227.01
1019.93	227.02
1020.22	227.02
1020.51	227.05
1020.79	227.04
1021.08	227.19
1021.36	226.72
1021.65	226.64
1021.94	226.84
1022.22	226.60
1022.51	226.37
1022.79	227.04
1023.08	227.06
1023.36	227.98
1023.65	226.52
>>>>>End Processed Spectral Data<<<<<
