SpectraSuite Data File
++++++++++++++++++++++++++++++++++++
Date: Fri Feb 01 16:12:49 EST 2013
User: group
Dark Spectrum Present: No
Reference Spectrum Present: No
Number of Sampled Component Spectra: 1
Spectrometers: USB2E7196
Integration Time (usec): 35000 (USB2E7196)
Spectra Averaged: 100 (USB2E7196)
Boxcar Smoothing: 10 (USB2E7196)
Correct for Electrical Dark: No (USB2E7196)
Strobe/Lamp Enabled: No (USB2E7196)
Correct for Detector Non-linearity: No (USB2E7196)
Correct for Stray Light: No (USB2E7196)
Number of Pixels in Processed Spectrum: 2048
>>>>>Begin Processed Spectral Data<<<<<
339.09	0.00
339.48	214.34
339.86	215.48
340.24	216.68
340.63	219.16
341.01	221.16
341.39	220.77
341.78	222.35
342.16	223.65
342.54	224.30
342.93	212.61
343.31	223.34
343.69	223.87
344.07	224.33
344.46	224.77
344.84	225.12
345.22	225.37
345.60	225.65
345.99	225.86
346.37	225.98
346.75	226.08
347.13	226.14
347.52	226.16
347.90	226.21
348.28	226.24
348.66	226.28
349.05	226.28
349.43	226.33
349.81	226.35
350.19	226.41
350.57	226.44
350.96	226.53
351.34	226.61
351.72	226.71
352.10	226.81
352.48	226.86
352.87	226.94
353.25	226.99
353.63	227.07
354.01	227.12
354.39	227.21
354.77	227.28
355.15	227.38
355.54	227.46
355.92	227.52
356.30	227.60
356.68	227.74
357.06	227.83
357.44	227.85
357.82	227.94
358.20	228.03
358.58	228.14
358.97	228.19
359.35	228.29
359.73	228.37
360.11	228.42
360.49	228.50
360.87	228.53
361.25	228.61
361.63	228.70
362.01	228.76
362.39	228.84
362.77	228.87
363.15	228.92
363.53	228.95
363.91	228.96
364.29	228.99
364.67	228.94
365.05	228.95
365.43	229.03
365.81	229.06
366.19	229.09
366.57	229.11
366.95	229.08
367.33	229.05
367.71	229.04
368.09	229.09
368.47	229.08
368.85	229.06
369.23	229.03
369.61	228.93
369.99	228.91
370.37	228.87
370.75	228.88
371.13	228.83
371.51	228.77
371.89	228.74
372.27	228.70
372.65	228.63
373.03	228.60
373.41	228.49
373.78	228.36
374.16	228.24
374.54	228.14
374.92	228.10
375.30	228.04
375.68	227.93
376.06	227.81
376.44	227.75
376.82	227.70
377.19	227.60
377.57	227.53
377.95	227.46
378.33	227.33
378.71	227.21
379.09	227.12
379.47	227.07
379.84	226.98
380.22	226.91
380.60	226.81
380.98	226.74
381.36	226.69
381.73	226.66
382.11	226.62
382.49	226.60
382.87	226.49
383.25	226.43
383.62	226.50
384.00	226.44
384.38	226.37
384.76	226.34
385.13	226.35
385.51	226.34
385.89	226.24
386.27	226.23
386.64	226.20
387.02	226.17
387.40	226.12
387.78	226.07
388.15	226.04
388.53	225.99
388.91	225.94
389.29	225.89
389.66	225.89
390.04	225.85
390.42	225.84
390.79	225.84
391.17	225.83
391.55	225.72
391.92	225.73
392.30	225.74
392.68	225.68
393.05	225.68
393.43	225.67
393.81	225.70
394.18	225.67
394.56	225.67
394.94	225.69
395.31	225.72
395.69	225.77
396.06	225.79
396.44	225.84
396.82	225.87
397.19	226.00
397.57	226.02
397.95	226.08
398.32	226.08
398.70	226.16
399.07	226.25
399.45	226.28
399.82	226.32
400.20	226.36
400.58	226.46
400.95	226.51
401.33	226.62
401.70	226.78
402.08	226.85
402.45	226.94
402.83	227.09
403.20	227.19
403.58	227.29
403.95	227.43
404.33	227.56
404.71	227.69
405.08	227.84
405.46	227.96
405.83	228.08
406.21	228.22
406.58	228.40
406.96	228.56
407.33	228.74
407.70	228.94
408.08	229.27
408.45	229.48
408.83	229.70
409.20	229.91
409.58	230.05
409.95	230.36
410.33	230.65
410.70	230.87
411.08	231.14
411.45	231.47
411.82	231.76
412.20	232.13
412.57	232.58
412.95	232.87
413.32	233.30
413.69	233.75
414.07	234.18
414.44	234.65
414.82	235.12
415.19	235.69
415.56	236.26
415.94	236.77
416.31	237.39
416.68	238.00
417.06	238.73
417.43	239.43
417.81	240.17
418.18	240.93
418.55	241.78
418.93	242.68
419.30	243.57
419.67	244.53
420.04	245.46
420.42	246.40
420.79	247.57
421.16	248.69
421.54	249.84
421.91	251.05
422.28	252.32
422.66	253.61
423.03	254.88
423.40	256.21
423.77	257.57
424.15	258.98
424.52	260.45
424.89	262.05
425.26	263.57
425.64	265.03
426.01	266.63
426.38	268.26
426.75	269.89
427.13	271.61
427.50	273.37
427.87	275.24
428.24	277.11
428.61	278.86
428.99	280.81
429.36	282.89
429.73	284.95
430.10	286.93
430.47	289.00
430.85	291.14
431.22	293.37
431.59	295.75
431.96	297.97
432.33	300.46
432.70	302.82
433.08	305.60
433.45	308.21
433.82	310.78
434.19	313.67
434.56	316.50
434.93	319.13
435.30	321.76
435.68	324.66
436.05	327.46
436.42	330.24
436.79	332.78
437.16	335.52
437.53	338.33
437.90	341.13
438.27	343.88
438.64	346.65
439.01	349.20
439.38	351.43
439.75	353.64
440.13	356.11
440.50	358.40
440.87	360.23
441.24	362.21
441.61	364.37
441.98	365.85
442.35	367.63
442.72	369.47
443.09	371.24
443.46	372.20
443.83	372.84
444.20	373.36
444.57	374.18
444.94	374.47
445.31	374.85
445.68	375.21
446.05	375.29
446.42	374.95
446.79	374.55
447.16	374.12
447.53	373.74
447.90	372.60
448.27	371.49
448.64	369.93
449.01	368.77
449.37	366.78
449.74	364.91
450.11	362.70
450.48	360.26
450.85	357.75
451.22	355.65
451.59	353.55
451.96	351.58
452.33	348.96
452.70	346.63
453.07	343.77
453.43	340.89
453.80	338.12
454.17	335.47
454.54	332.92
454.91	330.24
455.28	327.61
455.65	325.17
456.02	322.75
456.38	320.65
456.75	318.01
457.12	315.83
457.49	313.63
457.86	311.46
458.23	309.59
458.59	307.58
458.96	305.52
459.33	303.71
459.70	301.89
460.07	300.42
460.43	298.64
460.80	297.06
461.17	295.61
461.54	294.13
461.91	292.69
462.27	291.29
462.64	290.00
463.01	288.66
463.38	287.35
463.74	285.96
464.11	284.80
464.48	283.79
464.85	282.68
465.21	281.84
465.58	280.92
465.95	279.86
466.32	278.93
466.68	278.02
467.05	277.15
467.42	276.25
467.78	275.30
468.15	274.47
468.52	273.79
468.88	272.96
469.25	272.19
469.62	271.56
469.98	270.89
470.35	270.29
470.72	269.70
471.08	269.06
471.45	268.56
471.82	267.97
472.18	267.39
472.55	266.95
472.92	266.39
473.28	265.96
473.65	265.48
474.02	265.07
474.38	264.72
474.75	264.40
475.11	264.07
475.48	263.81
475.85	263.58
476.21	263.36
476.58	263.17
476.94	263.04
477.31	262.85
477.67	262.69
478.04	262.55
478.41	262.48
478.77	262.52
479.14	262.42
479.50	262.44
479.87	262.48
480.23	262.54
480.60	262.62
480.96	262.68
481.33	262.90
481.69	263.08
482.06	263.24
482.42	263.40
482.79	263.67
483.15	264.01
483.52	264.37
483.88	264.71
484.25	265.09
484.61	265.46
484.98	265.93
485.34	266.48
485.71	267.07
486.07	267.62
486.44	268.17
486.80	268.89
487.17	269.67
487.53	270.48
487.90	271.32
488.26	272.26
488.62	273.26
488.99	274.21
489.35	275.24
489.72	276.37
490.08	277.59
490.44	278.85
490.81	280.19
491.17	281.53
491.54	283.02
491.90	284.60
492.26	286.27
492.63	288.03
492.99	289.82
493.36	291.73
493.72	293.83
494.08	295.95
494.45	298.18
494.81	300.57
495.17	303.00
495.54	305.61
495.90	308.26
496.26	311.04
496.63	314.04
496.99	317.17
497.35	320.43
497.72	323.83
498.08	327.34
498.44	330.98
498.80	334.91
499.17	338.95
499.53	343.11
499.89	347.48
500.26	352.03
500.62	356.72
500.98	361.71
501.34	366.84
501.71	372.17
502.07	377.61
502.43	383.16
502.79	389.01
503.16	395.09
503.52	401.41
503.88	407.82
504.24	414.47
504.60	421.40
504.97	428.58
505.33	435.94
505.69	443.68
506.05	451.47
506.41	459.38
506.78	467.56
507.14	476.02
507.50	484.78
507.86	493.79
508.22	503.05
508.59	512.25
508.95	521.82
509.31	531.66
509.67	541.83
510.03	552.19
510.39	562.79
510.75	573.63
511.12	584.56
511.48	595.91
511.84	607.34
512.20	618.76
512.56	630.63
512.92	642.79
513.28	655.09
513.64	667.59
514.00	680.32
514.37	693.22
514.73	706.31
515.09	719.30
515.45	732.51
515.81	746.12
516.17	760.09
516.53	774.20
516.89	788.39
517.25	802.50
517.61	816.94
517.97	831.38
518.33	845.79
518.69	860.58
519.05	875.53
519.41	890.70
519.77	906.34
520.13	921.77
520.49	937.19
520.85	952.60
521.21	968.23
521.57	984.43
521.93	1000.16
522.29	1016.41
522.65	1032.59
523.01	1048.72
523.37	1064.61
523.73	1080.71
524.09	1096.80
524.45	1113.04
524.81	1129.54
525.17	1146.14
525.53	1163.02
525.89	1179.87
526.25	1196.70
526.61	1213.08
526.97	1229.82
527.33	1246.20
527.68	1262.88
528.04	1279.27
528.40	1295.71
528.76	1312.86
529.12	1329.38
529.48	1346.28
529.84	1362.26
530.20	1378.90
530.56	1395.80
530.91	1413.25
531.27	1430.01
531.63	1446.45
531.99	1462.97
532.35	1479.07
532.71	1494.97
533.07	1511.11
533.42	1527.01
533.78	1542.92
534.14	1559.12
534.50	1574.37
534.86	1590.12
535.21	1605.12
535.57	1620.90
535.93	1636.38
536.29	1651.03
536.65	1665.97
537.00	1680.63
537.36	1696.03
537.72	1710.48
538.08	1724.89
538.44	1738.51
538.79	1752.34
539.15	1765.75
539.51	1779.44
539.87	1793.56
540.22	1807.11
540.58	1820.68
540.94	1833.73
541.29	1846.43
541.65	1859.00
542.01	1871.99
542.37	1884.44
542.72	1896.69
543.08	1908.45
543.44	1920.83
543.79	1931.97
544.15	1942.90
544.51	1954.43
544.87	1965.10
545.22	1975.92
545.58	1986.21
545.94	1996.04
546.29	2005.80
546.65	2015.72
547.01	2024.97
547.36	2033.78
547.72	2042.42
548.07	2050.28
548.43	2058.48
548.79	2066.46
549.14	2074.07
549.50	2081.48
549.86	2088.89
550.21	2096.29
550.57	2103.43
550.92	2109.95
551.28	2117.13
551.64	2124.32
551.99	2130.78
552.35	2137.09
552.70	2143.15
553.06	2149.01
553.41	2155.27
553.77	2161.21
554.13	2167.22
554.48	2173.11
554.84	2178.64
555.19	2183.67
555.55	2188.82
555.90	2193.30
556.26	2198.27
556.61	2202.94
556.97	2207.34
557.32	2211.53
557.68	2215.67
558.03	2219.98
558.39	2223.62
558.74	2228.06
559.10	2231.83
559.45	2235.45
559.81	2239.63
560.16	2243.45
560.52	2246.77
560.87	2250.13
561.23	2252.87
561.58	2255.79
561.94	2258.55
562.29	2260.77
562.64	2263.70
563.00	2266.28
563.35	2269.84
563.71	2272.99
564.06	2276.03
564.42	2278.76
564.77	2281.38
565.12	2283.88
565.48	2285.84
565.83	2287.76
566.19	2289.22
566.54	2290.07
566.89	2291.24
567.25	2291.88
567.60	2293.14
567.96	2294.77
568.31	2295.70
568.66	2296.87
569.02	2297.42
569.37	2297.76
569.72	2298.63
570.08	2298.78
570.43	2298.93
570.78	2298.33
571.14	2296.85
571.49	2295.55
571.84	2295.32
572.20	2294.25
572.55	2293.11
572.90	2291.49
573.26	2290.15
573.61	2288.37
573.96	2286.86
574.31	2284.00
574.67	2280.99
575.02	2277.50
575.37	2274.12
575.72	2270.32
576.08	2266.91
576.43	2263.65
576.78	2259.91
577.13	2256.73
577.49	2253.62
577.84	2250.02
578.19	2246.30
578.54	2242.75
578.90	2238.76
579.25	2233.15
579.60	2228.34
579.95	2223.37
580.30	2218.37
580.66	2213.31
581.01	2208.31
581.36	2203.28
581.71	2199.22
582.06	2195.04
582.42	2190.62
582.77	2185.47
583.12	2180.93
583.47	2176.34
583.82	2171.65
584.17	2166.60
584.53	2161.18
584.88	2155.62
585.23	2150.07
585.58	2144.51
585.93	2139.01
586.28	2134.18
586.63	2129.26
586.98	2123.94
587.34	2119.21
587.69	2114.38
588.04	2109.13
588.39	2103.57
588.74	2096.94
589.09	2090.71
589.44	2083.91
589.79	2077.58
590.14	2071.98
590.49	2065.45
590.84	2058.95
591.19	2052.76
591.54	2046.24
591.89	2038.92
592.25	2032.15
592.60	2025.07
592.95	2017.72
593.30	2010.54
593.65	2002.92
594.00	1995.88
594.35	1988.80
594.70	1980.72
595.05	1973.68
595.40	1966.37
595.75	1958.97
596.10	1953.04
596.45	1946.35
596.80	1940.21
597.15	1933.82
597.50	1926.97
597.85	1920.58
598.19	1914.17
598.54	1907.26
598.89	1900.69
599.24	1894.75
599.59	1888.19
599.94	1881.89
600.29	1875.45
600.64	1868.65
600.99	1861.26
601.34	1854.45
601.69	1847.32
602.04	1840.45
602.39	1833.04
602.74	1826.36
603.08	1819.57
603.43	1812.64
603.78	1805.30
604.13	1798.15
604.48	1791.04
604.83	1784.01
605.18	1777.13
605.53	1769.00
605.87	1760.82
606.22	1753.58
606.57	1745.69
606.92	1738.16
607.27	1731.01
607.62	1724.20
607.96	1717.11
608.31	1710.61
608.66	1702.93
609.01	1695.53
609.36	1688.10
609.70	1680.13
610.05	1672.00
610.40	1664.39
610.75	1656.27
611.10	1648.68
611.44	1640.17
611.79	1632.08
612.14	1623.53
612.49	1614.30
612.83	1605.94
613.18	1597.77
613.53	1589.66
613.88	1581.14
614.22	1572.92
614.57	1564.21
614.92	1556.14
615.27	1548.68
615.61	1540.38
615.96	1532.45
616.31	1524.76
616.65	1517.40
617.00	1509.81
617.35	1502.08
617.70	1493.73
618.04	1485.18
618.39	1476.90
618.74	1469.33
619.08	1461.01
619.43	1453.41
619.78	1446.51
620.12	1439.44
620.47	1431.93
620.82	1423.65
621.16	1416.23
621.51	1408.67
621.85	1401.10
622.20	1392.63
622.55	1384.21
622.89	1376.34
623.24	1368.59
623.59	1361.24
623.93	1353.70
624.28	1346.50
624.62	1339.13
624.97	1331.92
625.32	1325.00
625.66	1317.96
626.01	1310.77
626.35	1303.41
626.70	1295.59
627.04	1287.90
627.39	1279.97
627.73	1272.66
628.08	1265.82
628.43	1258.58
628.77	1251.20
629.12	1243.66
629.46	1236.47
629.81	1228.98
630.15	1221.66
630.50	1214.44
630.84	1206.25
631.19	1198.24
631.53	1190.65
631.88	1183.01
632.22	1175.36
632.57	1168.14
632.91	1160.58
633.26	1153.18
633.60	1145.66
633.95	1138.50
634.29	1131.31
634.64	1124.65
634.98	1117.27
635.32	1110.07
635.67	1103.31
636.01	1096.70
636.36	1089.86
636.70	1083.26
637.05	1076.68
637.39	1070.26
637.73	1063.72
638.08	1057.78
638.42	1051.81
638.77	1045.44
639.11	1038.97
639.45	1032.65
639.80	1026.07
640.14	1019.77
640.49	1013.16
640.83	1006.96
641.17	1000.81
641.52	994.53
641.86	988.11
642.20	982.27
642.55	975.99
642.89	969.58
643.23	962.90
643.58	957.15
643.92	951.09
644.26	945.05
644.61	938.90
644.95	932.90
645.29	926.44
645.64	919.71
645.98	913.34
646.32	907.33
646.66	901.24
647.01	895.44
647.35	889.73
647.69	883.91
648.04	878.37
648.38	872.52
648.72	866.56
649.06	860.48
649.41	854.45
649.75	848.47
650.09	842.56
650.43	836.90
650.78	830.78
651.12	824.66
651.46	818.93
651.80	813.28
652.14	807.77
652.49	802.29
652.83	797.14
653.17	791.48
653.51	785.82
653.85	780.47
654.20	774.77
654.54	768.74
654.88	762.99
655.22	757.01
655.56	751.28
655.90	745.81
656.25	740.56
656.59	735.25
656.93	730.16
657.27	725.01
657.61	719.47
657.95	714.32
658.29	709.32
658.64	703.91
658.98	698.58
659.32	693.08
659.66	687.90
660.00	682.60
660.34	677.58
660.68	672.57
661.02	667.52
661.36	662.83
661.70	658.30
662.05	653.95
662.39	649.72
662.73	645.31
663.07	640.89
663.41	636.49
663.75	632.02
664.09	627.45
664.43	623.08
664.77	618.99
665.11	614.80
665.45	610.58
665.79	606.62
666.13	602.56
666.47	598.50
666.81	594.33
667.15	590.17
667.49	586.28
667.83	582.49
668.17	578.52
668.51	574.51
668.85	570.45
669.19	566.56
669.53	562.73
669.87	558.84
670.21	555.12
670.55	551.43
670.89	548.02
671.23	544.59
671.57	541.08
671.91	537.61
672.25	534.07
672.58	530.62
672.92	527.22
673.26	523.97
673.60	520.90
673.94	517.81
674.28	514.90
674.62	511.96
674.96	508.93
675.30	506.03
675.64	503.11
675.97	500.32
676.31	497.50
676.65	494.59
676.99	491.91
677.33	489.02
677.67	486.20
678.01	483.15
678.34	480.25
678.68	477.30
679.02	474.44
679.36	471.64
679.70	468.91
680.04	466.16
680.37	463.35
680.71	460.46
681.05	457.87
681.39	455.09
681.73	452.43
682.06	449.83
682.40	447.27
682.74	444.68
683.08	442.13
683.42	439.48
683.75	436.89
684.09	434.27
684.43	431.86
684.77	429.46
685.10	427.10
685.44	424.75
685.78	422.41
686.12	420.07
686.45	417.83
686.79	415.58
687.13	413.40
687.46	411.17
687.80	409.03
688.14	406.75
688.48	404.76
688.81	402.52
689.15	400.41
689.49	398.26
689.82	396.16
690.16	394.07
690.50	392.11
690.83	390.19
691.17	388.21
691.51	386.29
691.84	384.37
692.18	382.42
692.52	380.45
692.85	378.54
693.19	376.80
693.52	374.99
693.86	373.09
694.20	371.24
694.53	369.46
694.87	367.53
695.21	365.75
695.54	363.86
695.88	362.08
696.21	360.28
696.55	358.64
696.88	356.97
697.22	355.30
697.56	353.69
697.89	352.08
698.23	350.48
698.56	348.89
698.90	347.33
699.23	345.69
699.57	344.16
699.90	342.63
700.24	341.03
700.58	339.47
700.91	338.01
701.25	336.58
701.58	335.20
701.92	333.94
702.25	332.59
702.59	331.28
702.92	330.02
703.26	328.80
703.59	327.52
703.93	326.34
704.26	325.09
704.60	323.78
704.93	322.50
705.26	321.28
705.60	320.10
705.93	318.91
706.27	317.93
706.60	316.90
706.94	315.84
707.27	314.74
707.61	313.67
707.94	312.63
708.27	311.52
708.61	310.47
708.94	309.43
709.28	308.39
709.61	307.44
709.94	306.48
710.28	305.44
710.61	304.44
710.95	303.35
711.28	302.49
711.61	301.58
711.95	300.66
712.28	299.76
712.61	298.78
712.95	297.88
713.28	297.00
713.61	296.10
713.95	295.22
714.28	294.37
714.61	293.54
714.95	292.73
715.28	291.91
715.61	291.03
715.95	290.21
716.28	289.37
716.61	288.53
716.95	287.70
717.28	286.93
717.61	286.15
717.94	285.44
718.28	284.61
718.61	283.89
718.94	283.17
719.27	282.49
719.61	281.84
719.94	281.15
720.27	280.40
720.60	279.68
720.94	279.05
721.27	278.44
721.60	277.85
721.93	277.24
722.27	276.68
722.60	276.13
722.93	275.54
723.26	275.01
723.59	274.46
723.93	273.90
724.26	273.35
724.59	272.80
724.92	272.28
725.25	271.80
725.59	271.29
725.92	270.78
726.25	270.22
726.58	269.70
726.91	269.19
727.24	268.70
727.57	268.22
727.91	267.68
728.24	267.18
728.57	266.64
728.90	266.15
729.23	265.61
729.56	265.16
729.89	264.67
730.22	264.15
730.55	263.66
730.89	263.21
731.22	262.79
731.55	262.33
731.88	261.87
732.21	261.39
732.54	260.91
732.87	260.48
733.20	260.11
733.53	259.70
733.86	259.33
734.19	258.94
734.52	258.59
734.85	258.27
735.18	257.88
735.51	257.54
735.84	257.17
736.17	256.85
736.50	256.46
736.83	256.20
737.16	255.90
737.49	255.58
737.82	255.25
738.15	254.88
738.48	254.54
738.81	254.20
739.14	253.87
739.47	253.57
739.80	253.25
740.13	252.93
740.46	252.61
740.79	252.26
741.12	251.97
741.45	251.65
741.78	251.31
742.11	251.02
742.44	250.74
742.77	250.44
743.10	250.12
743.43	249.85
743.75	249.50
744.08	249.36
744.41	249.05
744.74	248.77
745.07	248.50
745.40	248.26
745.73	248.07
746.06	247.83
746.39	247.57
746.71	247.34
747.04	247.07
747.37	246.85
747.70	246.65
748.03	246.41
748.36	246.18
748.68	245.96
749.01	245.74
749.34	245.51
749.67	245.30
750.00	245.11
750.33	244.95
750.65	244.73
750.98	244.36
751.31	244.16
751.64	243.96
751.97	243.82
752.29	243.63
752.62	243.39
752.95	243.18
753.28	242.98
753.60	242.76
753.93	242.59
754.26	242.43
754.59	242.21
754.91	241.98
755.24	241.83
755.57	241.62
755.90	241.42
756.22	241.21
756.55	241.01
756.88	240.79
757.20	240.56
757.53	240.32
757.86	240.19
758.19	240.04
758.51	239.87
758.84	239.63
759.17	239.43
759.49	239.28
759.82	239.16
760.15	239.02
760.47	238.88
760.80	238.70
761.13	238.55
761.45	238.37
761.78	238.24
762.11	238.04
762.43	237.90
762.76	237.77
763.08	237.64
763.41	237.47
763.74	237.34
764.06	237.20
764.39	237.06
764.71	236.91
765.04	236.76
765.37	236.64
765.69	236.49
766.02	236.35
766.34	236.21
766.67	236.05
767.00	235.91
767.32	235.81
767.65	235.78
767.97	235.63
768.30	235.54
768.62	235.44
768.95	235.32
769.27	235.19
769.60	235.08
769.92	234.95
770.25	234.86
770.57	234.75
770.90	234.63
771.22	234.55
771.55	234.45
771.87	234.37
772.20	234.26
772.52	234.28
772.85	234.30
773.17	234.18
773.50	234.06
773.82	233.96
774.15	233.82
774.47	233.63
774.80	233.53
775.12	233.42
775.45	233.32
775.77	233.26
776.09	233.18
776.42	233.12
776.74	233.07
777.07	233.00
777.39	232.93
777.72	232.86
778.04	232.78
778.36	232.68
778.69	232.59
779.01	232.50
779.33	232.32
779.66	232.17
779.98	232.09
780.31	232.06
780.63	232.02
780.95	231.98
781.28	231.92
781.60	231.84
781.92	231.80
782.25	231.75
782.57	231.70
782.89	231.65
783.22	231.59
783.54	231.50
783.86	231.44
784.19	231.37
784.51	231.36
784.83	231.34
785.16	231.31
785.48	231.27
785.80	231.26
786.12	231.24
786.45	231.20
786.77	231.15
787.09	231.12
787.42	231.06
787.74	231.00
788.06	230.94
788.38	230.91
788.71	230.84
789.03	230.80
789.35	230.77
789.67	230.72
789.99	230.68
790.32	230.63
790.64	230.58
790.96	230.63
791.28	230.56
791.61	230.50
791.93	230.45
792.25	230.37
792.57	230.40
792.89	230.35
793.21	230.32
793.54	230.31
793.86	230.25
794.18	230.22
794.50	230.20
794.82	230.21
795.14	230.18
795.47	230.19
795.79	230.17
796.11	230.10
796.43	230.06
796.75	230.01
797.07	229.98
797.39	229.95
797.71	229.85
798.04	229.81
798.36	229.79
798.68	229.78
799.00	229.80
799.32	229.75
799.64	229.72
799.96	229.70
800.28	229.67
800.60	229.65
800.92	229.61
801.24	229.58
801.56	229.53
801.89	229.45
802.21	229.41
802.53	229.37
802.85	229.37
803.17	229.41
803.49	229.37
803.81	229.35
804.13	229.37
804.45	229.32
804.77	229.29
805.09	229.25
805.41	229.20
805.73	229.14
806.05	229.02
806.37	229.02
806.69	228.96
807.01	228.93
807.33	228.91
807.65	228.87
807.97	228.88
808.28	228.85
808.60	228.84
808.92	228.82
809.24	228.84
809.56	228.77
809.88	228.69
810.20	228.68
810.52	228.66
810.84	228.59
811.16	228.59
811.48	228.58
811.80	228.59
812.12	228.56
812.43	228.55
812.75	228.55
813.07	228.49
813.39	228.46
813.71	228.41
814.03	228.35
814.35	228.32
814.67	228.23
814.98	228.24
815.30	228.19
815.62	228.13
815.94	228.06
816.26	228.07
816.58	228.03
816.89	228.00
817.21	227.98
817.53	227.98
817.85	227.92
818.17	227.90
818.48	227.82
818.80	227.85
819.12	227.82
819.44	227.80
819.76	227.76
820.07	227.77
820.39	227.75
820.71	227.76
821.03	227.72
821.34	227.71
821.66	227.68
821.98	227.70
822.30	227.67
822.61	227.68
822.93	227.63
823.25	227.65
823.57	227.63
823.88	227.62
824.20	227.59
824.52	227.61
824.83	227.60
825.15	227.61
825.47	227.57
825.79	227.55
826.10	227.55
826.42	227.55
826.74	227.53
827.05	227.52
827.37	227.49
827.69	227.51
828.00	227.53
828.32	227.51
828.64	227.50
828.95	227.56
829.27	227.56
829.58	227.61
829.90	227.60
830.22	227.60
830.53	227.54
830.85	227.51
831.17	227.50
831.48	227.49
831.80	227.49
832.11	227.45
832.43	227.46
832.75	227.45
833.06	227.51
833.38	227.50
833.69	227.48
834.01	227.49
834.32	227.48
834.64	227.49
834.96	227.50
835.27	227.49
835.59	227.47
835.90	227.46
836.22	227.38
836.53	227.36
836.85	227.35
837.16	227.50
837.48	227.52
837.79	227.53
838.11	227.51
838.42	227.48
838.74	227.51
839.05	227.50
839.37	227.49
839.68	227.42
840.00	227.39
840.31	227.42
840.63	227.44
840.94	227.41
841.26	227.36
841.57	227.36
841.88	227.36
842.20	227.32
842.51	227.28
842.83	227.31
843.14	227.37
843.46	227.35
843.77	227.25
844.08	227.21
844.40	227.20
844.71	227.18
845.03	227.16
845.34	227.13
845.65	227.08
845.97	227.08
846.28	227.10
846.60	227.10
846.91	227.05
847.22	227.04
847.54	227.08
847.85	227.09
848.16	227.06
848.48	227.06
848.79	227.11
849.10	227.09
849.42	227.10
849.73	227.00
850.04	226.99
850.36	226.98
850.67	227.00
850.98	226.98
851.30	226.98
851.61	226.95
851.92	226.94
852.23	227.00
852.55	226.97
852.86	226.93
853.17	226.93
853.49	226.95
853.80	226.96
854.11	226.93
854.42	226.93
854.74	226.88
855.05	226.87
855.36	226.79
855.67	226.82
855.99	226.76
856.30	226.86
856.61	226.85
856.92	226.80
857.23	226.79
857.55	226.77
857.86	226.77
858.17	226.80
858.48	226.79
858.79	226.75
859.11	226.75
859.42	226.74
859.73	226.71
860.04	226.69
860.35	226.62
860.66	226.61
860.98	226.60
861.29	226.62
861.60	226.58
861.91	226.61
862.22	226.57
862.53	226.60
862.84	226.51
863.16	226.55
863.47	226.55
863.78	226.54
864.09	226.55
864.40	226.54
864.71	226.57
865.02	226.58
865.33	226.61
865.64	226.62
865.95	226.64
866.27	226.72
866.58	226.73
866.89	226.78
867.20	226.77
867.51	226.77
867.82	226.79
868.13	226.83
868.44	226.82
868.75	226.82
869.06	226.82
869.37	226.82
869.68	226.78
869.99	226.81
870.30	226.84
870.61	226.86
870.92	226.87
871.23	226.84
871.54	226.85
871.85	226.83
872.16	226.83
872.47	226.80
872.78	226.77
873.09	226.78
873.40	226.75
873.71	226.76
874.02	226.76
874.33	226.74
874.64	226.76
874.95	226.79
875.26	226.79
875.56	226.78
875.87	226.79
876.18	226.78
876.49	226.84
876.80	226.84
877.11	226.83
877.42	226.81
877.73	226.84
878.04	226.86
878.35	226.82
878.66	226.84
878.96	226.87
879.27	226.86
879.58	226.85
879.89	226.84
880.20	226.87
880.51	226.89
880.82	226.88
881.12	226.85
881.43	226.81
881.74	226.80
882.05	226.80
882.36	226.81
882.67	226.82
882.97	226.75
883.28	226.74
883.59	226.72
883.90	226.75
884.21	226.74
884.51	226.73
884.82	226.74
885.13	226.70
885.44	226.69
885.74	226.68
886.05	226.66
886.36	226.65
886.67	226.58
886.98	226.59
887.28	226.60
887.59	226.60
887.90	226.58
888.20	226.57
888.51	226.58
888.82	226.55
889.13	226.57
889.43	226.63
889.74	226.60
890.05	226.60
890.35	226.56
890.66	226.52
890.97	226.50
891.28	226.51
891.58	226.53
891.89	226.50
892.20	226.47
892.50	226.47
892.81	226.47
893.12	226.49
893.42	226.43
893.73	226.44
894.04	226.45
894.34	226.47
894.65	226.46
894.95	226.47
895.26	226.49
895.57	226.56
895.87	226.46
896.18	226.46
896.48	226.48
896.79	226.47
897.10	226.50
897.40	226.50
897.71	226.49
898.01	226.46
898.32	226.49
898.63	226.51
898.93	226.53
899.24	226.52
899.54	226.53
899.85	226.57
900.15	226.53
900.46	226.50
900.76	226.55
901.07	226.54
901.38	226.50
901.68	226.56
901.99	226.48
902.29	226.49
902.60	226.49
902.90	226.48
903.21	226.51
903.51	226.52
903.82	226.54
904.12	226.55
904.43	226.55
904.73	226.55
905.03	226.56
905.34	226.66
905.64	226.67
905.95	226.67
906.25	226.66
906.56	226.68
906.86	226.73
907.17	226.68
907.47	226.70
907.77	226.71
908.08	226.64
908.38	226.65
908.69	226.68
908.99	226.72
909.30	226.72
909.60	226.72
909.90	226.73
910.21	226.72
910.51	226.73
910.81	226.75
911.12	226.77
911.42	226.76
911.73	226.62
912.03	226.65
912.33	226.67
912.64	226.67
912.94	226.63
913.24	226.61
913.55	226.60
913.85	226.58
914.15	226.60
914.46	226.63
914.76	226.63
915.06	226.59
915.37	226.54
915.67	226.53
915.97	226.54
916.27	226.51
916.58	226.52
916.88	226.50
917.18	226.48
917.49	226.54
917.79	226.56
918.09	226.61
918.39	226.64
918.70	226.64
919.00	226.64
919.30	226.71
919.60	226.72
919.91	226.72
920.21	226.75
920.51	226.70
920.81	226.71
921.12	226.72
921.42	226.74
921.72	226.77
922.02	226.77
922.32	226.75
922.63	226.76
922.93	226.80
923.23	226.79
923.53	226.79
923.83	226.68
924.13	226.66
924.44	226.64
924.74	226.66
925.04	226.69
925.34	226.69
925.64	226.66
925.94	226.66
926.24	226.71
926.55	226.70
926.85	226.73
927.15	226.67
927.45	226.64
927.75	226.62
928.05	226.60
928.35	226.60
928.65	226.61
928.95	226.58
929.26	226.54
929.56	226.52
929.86	226.51
930.16	226.51
930.46	226.51
930.76	226.51
931.06	226.40
931.36	226.35
931.66	226.35
931.96	226.34
932.26	226.33
932.56	226.27
932.86	226.25
933.16	226.27
933.46	226.27
933.76	226.24
934.06	226.28
934.36	226.28
934.66	226.26
934.96	226.26
935.26	226.28
935.56	226.27
935.86	226.24
936.16	226.26
936.46	226.25
936.76	226.25
937.06	226.21
937.36	226.21
937.66	226.21
937.96	226.23
938.26	226.18
938.56	226.14
938.86	226.16
939.16	226.16
939.46	226.15
939.76	226.17
940.06	226.17
940.35	226.15
940.65	226.09
940.95	226.09
941.25	226.05
941.55	226.02
941.85	226.00
942.15	226.03
942.45	226.02
942.75	226.01
943.04	226.01
943.34	226.00
943.64	226.01
943.94	226.00
944.24	225.96
944.54	225.97
944.84	225.97
945.13	225.93
945.43	225.95
945.73	225.92
946.03	225.90
946.33	225.91
946.62	225.87
946.92	225.91
947.22	225.92
947.52	225.94
947.82	225.98
948.11	225.97
948.41	225.97
948.71	225.96
949.01	225.99
949.31	225.96
949.60	226.00
949.90	226.04
950.20	226.04
950.50	226.06
950.79	226.04
951.09	226.09
951.39	226.11
951.69	226.10
951.98	226.16
952.28	226.20
952.58	226.18
952.87	226.21
953.17	226.20
953.47	226.22
953.76	226.19
954.06	226.17
954.36	226.14
954.66	226.16
954.95	226.18
955.25	226.15
955.55	226.19
955.84	226.17
956.14	226.17
956.44	226.16
956.73	226.11
957.03	226.15
957.32	226.14
957.62	226.13
957.92	226.13
958.21	226.10
958.51	226.18
958.81	226.26
959.10	226.26
959.40	226.28
959.69	226.27
959.99	226.28
960.29	226.29
960.58	226.31
960.88	226.33
961.17	226.31
961.47	226.36
961.76	226.33
962.06	226.34
962.36	226.32
962.65	226.34
962.95	226.34
963.24	226.38
963.54	226.40
963.83	226.39
964.13	226.39
964.42	226.35
964.72	226.28
965.01	226.25
965.31	226.22
965.60	226.22
965.90	226.28
966.19	226.28
966.49	226.31
966.78	226.32
967.08	226.32
967.37	226.31
967.67	226.30
967.96	226.34
968.26	226.32
968.55	226.34
968.85	226.34
969.14	226.36
969.43	226.31
969.73	226.29
970.02	226.30
970.32	226.31
970.61	226.32
970.91	226.29
971.20	226.27
971.49	226.28
971.79	226.28
972.08	226.21
972.38	226.22
972.67	226.21
972.96	226.21
973.26	226.20
973.55	226.22
973.85	226.19
974.14	226.16
974.43	226.19
974.73	226.17
975.02	226.16
975.31	226.17
975.61	226.16
975.90	226.13
976.19	226.10
976.49	226.08
976.78	226.06
977.07	226.07
977.37	226.06
977.66	226.06
977.95	226.03
978.24	226.03
978.54	226.02
978.83	226.02
979.12	225.98
979.42	225.98
979.71	225.95
980.00	225.97
980.29	225.98
980.59	225.95
980.88	225.98
981.17	225.99
981.46	225.97
981.76	225.97
982.05	226.02
982.34	226.04
982.63	226.02
982.93	226.04
983.22	226.03
983.51	226.07
983.80	226.08
984.09	226.11
984.39	226.11
984.68	226.11
984.97	226.10
985.26	226.14
985.55	226.12
985.85	226.12
986.14	226.10
986.43	226.10
986.72	226.09
987.01	226.05
987.30	226.06
987.59	226.08
987.89	226.10
988.18	226.07
988.47	226.08
988.76	226.09
989.05	226.09
989.34	226.10
989.63	226.09
989.92	226.09
990.22	226.09
990.51	226.08
990.80	226.08
991.09	226.12
991.38	226.13
991.67	226.16
991.96	226.16
992.25	226.19
992.54	226.18
992.83	226.19
993.12	226.22
993.41	226.26
993.70	226.30
993.99	226.33
994.28	226.35
994.58	226.40
994.87	226.43
995.16	226.43
995.45	226.44
995.74	226.46
996.03	226.46
996.32	226.49
996.61	226.49
996.90	226.48
997.19	226.48
997.48	226.49
997.77	226.54
998.06	226.54
998.34	226.54
998.63	226.55
998.92	226.55
999.21	226.55
999.50	226.52
999.79	226.49
1000.08	226.47
1000.37	226.46
1000.66	226.41
1000.95	226.42
1001.24	226.42
1001.53	226.42
1001.82	226.38
1002.11	226.36
1002.40	226.39
1002.68	226.43
1002.97	226.52
1003.26	226.49
1003.55	226.46
1003.84	226.42
1004.13	226.46
1004.42	226.45
1004.71	226.46
1004.99	226.49
1005.28	226.52
1005.57	226.52
1005.86	226.49
1006.15	226.50
1006.44	226.48
1006.72	226.51
1007.01	226.49
1007.30	226.46
1007.59	226.44
1007.88	226.49
1008.17	226.48
1008.45	226.43
1008.74	226.39
1009.03	226.34
1009.32	226.35
1009.60	226.34
1009.89	226.31
1010.18	226.27
1010.47	226.28
1010.76	226.22
1011.04	226.19
1011.33	226.19
1011.62	226.19
1011.91	226.21
1012.19	226.18
1012.48	226.17
1012.77	226.16
1013.05	226.21
1013.34	226.21
1013.63	226.22
1013.92	226.18
1014.20	226.18
1014.49	226.19
1014.78	226.21
1015.06	226.15
1015.35	226.14
1015.64	226.15
1015.92	226.16
1016.21	226.18
1016.50	226.17
1016.78	226.20
1017.07	226.21
1017.36	226.17
1017.64	226.11
1017.93	226.12
1018.22	226.15
1018.50	226.16
1018.79	226.14
1019.08	226.08
1019.36	226.08
1019.65	226.04
1019.93	226.06
1020.22	226.06
1020.51	226.10
1020.79	226.06
1021.08	226.44
1021.36	225.77
1021.65	226.08
1021.94	226.14
1022.22	226.03
1022.51	225.43
1022.79	226.31
1023.08	226.13
1023.36	227.10
1023.65	225.71
>>>>>End Processed Spectral Data<<<<<
