SpectraSuite Data File
++++++++++++++++++++++++++++++++++++
Date: Fri Feb 01 17:46:56 EST 2013
User: group
Dark Spectrum Present: No
Reference Spectrum Present: No
Number of Sampled Component Spectra: 1
Spectrometers: USB2E7196
Integration Time (usec): 35000 (USB2E7196)
Spectra Averaged: 100 (USB2E7196)
Boxcar Smoothing: 10 (USB2E7196)
Correct for Electrical Dark: No (USB2E7196)
Strobe/Lamp Enabled: No (USB2E7196)
Correct for Detector Non-linearity: No (USB2E7196)
Correct for Stray Light: No (USB2E7196)
Number of Pixels in Processed Spectrum: 2048
>>>>>Begin Processed Spectral Data<<<<<
339.09	0.00
339.48	212.91
339.86	214.76
340.24	215.97
340.63	216.84
341.01	219.75
341.39	219.96
341.78	221.10
342.16	222.41
342.54	223.09
342.93	211.25
343.31	221.93
343.69	222.49
344.07	222.93
344.46	223.35
344.84	223.73
345.22	223.96
345.60	224.22
345.99	224.42
346.37	224.53
346.75	224.61
347.13	224.68
347.52	224.73
347.90	224.82
348.28	224.87
348.66	224.93
349.05	224.92
349.43	224.96
349.81	224.98
350.19	225.04
350.57	225.10
350.96	225.19
351.34	225.29
351.72	225.35
352.10	225.44
352.48	225.51
352.87	225.55
353.25	225.62
353.63	225.65
354.01	225.67
354.39	225.77
354.77	225.83
355.15	225.91
355.54	225.96
355.92	225.96
356.30	226.00
356.68	226.13
357.06	226.17
357.44	226.21
357.82	226.27
358.20	226.32
358.58	226.35
358.97	226.38
359.35	226.43
359.73	226.50
360.11	226.55
360.49	226.57
360.87	226.60
361.25	226.66
361.63	226.73
362.01	226.80
362.39	226.82
362.77	226.84
363.15	226.88
363.53	226.91
363.91	226.95
364.29	226.96
364.67	226.87
365.05	226.91
365.43	226.97
365.81	226.99
366.19	227.08
366.57	227.12
366.95	227.15
367.33	227.12
367.71	227.11
368.09	227.06
368.47	227.05
368.85	227.06
369.23	227.07
369.61	226.99
369.99	226.99
370.37	226.97
370.75	227.03
371.13	226.97
371.51	226.93
371.89	226.92
372.27	226.90
372.65	226.92
373.03	226.86
373.41	226.80
373.78	226.70
374.16	226.57
374.54	226.49
374.92	226.44
375.30	226.38
375.68	226.32
376.06	226.32
376.44	226.27
376.82	226.20
377.19	226.10
377.57	226.06
377.95	225.97
378.33	225.91
378.71	225.75
379.09	225.72
379.47	225.66
379.84	225.60
380.22	225.56
380.60	225.44
380.98	225.39
381.36	225.33
381.73	225.30
382.11	225.26
382.49	225.21
382.87	225.13
383.25	225.06
383.62	225.12
384.00	225.05
384.38	225.01
384.76	225.01
385.13	225.03
385.51	224.99
385.89	224.98
386.27	224.95
386.64	224.96
387.02	224.89
387.40	224.86
387.78	224.82
388.15	224.75
388.53	224.74
388.91	224.73
389.29	224.70
389.66	224.67
390.04	224.64
390.42	224.61
390.79	224.61
391.17	224.61
391.55	224.51
391.92	224.49
392.30	224.50
392.68	224.48
393.05	224.42
393.43	224.46
393.81	224.41
394.18	224.42
394.56	224.41
394.94	224.46
395.31	224.47
395.69	224.53
396.06	224.59
396.44	224.62
396.82	224.62
397.19	224.72
397.57	224.76
397.95	224.81
398.32	224.83
398.70	224.88
399.07	224.96
399.45	224.97
399.82	225.01
400.20	225.03
400.58	225.09
400.95	225.15
401.33	225.21
401.70	225.34
402.08	225.43
402.45	225.54
402.83	225.64
403.20	225.81
403.58	225.88
403.95	226.00
404.33	226.12
404.71	226.26
405.08	226.42
405.46	226.57
405.83	226.72
406.21	226.90
406.58	227.07
406.96	227.25
407.33	227.49
407.70	227.73
408.08	228.07
408.45	228.31
408.83	228.58
409.20	228.83
409.58	229.06
409.95	229.38
410.33	229.68
410.70	229.97
411.08	230.26
411.45	230.63
411.82	231.00
412.20	231.45
412.57	231.92
412.95	232.30
413.32	232.81
413.69	233.30
414.07	233.84
414.44	234.45
414.82	235.05
415.19	235.75
415.56	236.42
415.94	237.10
416.31	237.91
416.68	238.70
417.06	239.60
417.43	240.48
417.81	241.45
418.18	242.42
418.55	243.50
418.93	244.63
419.30	245.78
419.67	246.98
420.04	248.17
420.42	249.45
420.79	250.93
421.16	252.42
421.54	253.96
421.91	255.52
422.28	257.12
422.66	258.80
423.03	260.39
423.40	262.12
423.77	263.95
424.15	265.79
424.52	267.64
424.89	269.69
425.26	271.67
425.64	273.54
426.01	275.62
426.38	277.72
426.75	279.86
427.13	282.07
427.50	284.37
427.87	286.79
428.24	289.16
428.61	291.44
428.99	293.91
429.36	296.63
429.73	299.28
430.10	301.83
430.47	304.50
430.85	307.23
431.22	310.11
431.59	313.10
431.96	315.96
432.33	319.23
432.70	322.27
433.08	325.85
433.45	329.16
433.82	332.43
434.19	336.17
434.56	339.75
434.93	343.15
435.30	346.54
435.68	350.23
436.05	353.86
436.42	357.41
436.79	360.62
437.16	364.03
437.53	367.68
437.90	371.31
438.27	374.80
438.64	378.47
439.01	381.80
439.38	384.69
439.75	387.52
440.13	390.70
440.50	393.69
440.87	396.02
441.24	398.50
441.61	401.31
441.98	403.19
442.35	405.55
442.72	407.96
443.09	410.27
443.46	411.52
443.83	412.24
444.20	412.90
444.57	414.04
444.94	414.46
445.31	414.86
445.68	415.29
446.05	415.41
446.42	414.92
446.79	414.36
447.16	413.81
447.53	413.35
447.90	411.83
448.27	410.39
448.64	408.39
449.01	407.03
449.37	404.54
449.74	402.13
450.11	399.18
450.48	395.98
450.85	392.72
451.22	390.00
451.59	387.46
451.96	385.01
452.33	381.65
452.70	378.61
453.07	375.02
453.43	371.35
453.80	367.81
454.17	364.38
454.54	361.13
454.91	357.60
455.28	354.22
455.65	351.06
456.02	347.84
456.38	345.07
456.75	341.60
457.12	338.66
457.49	335.77
457.86	333.03
458.23	330.63
458.59	328.04
458.96	325.33
459.33	322.97
459.70	320.52
460.07	318.54
460.43	316.29
460.80	314.19
461.17	312.29
461.54	310.36
461.91	308.49
462.27	306.65
462.64	305.10
463.01	303.32
463.38	301.64
463.74	299.92
464.11	298.42
464.48	297.14
464.85	295.74
465.21	294.62
465.58	293.41
465.95	292.02
466.32	290.83
466.68	289.71
467.05	288.54
467.42	287.41
467.78	286.24
468.15	285.12
468.52	284.24
468.88	283.11
469.25	282.11
469.62	281.30
469.98	280.41
470.35	279.55
470.72	278.75
471.08	277.93
471.45	277.23
471.82	276.52
472.18	275.74
472.55	275.17
472.92	274.51
473.28	273.91
473.65	273.30
474.02	272.74
474.38	272.23
474.75	271.84
475.11	271.37
475.48	271.03
475.85	270.75
476.21	270.47
476.58	270.25
476.94	270.01
477.31	269.77
477.67	269.54
478.04	269.36
478.41	269.28
478.77	269.24
479.14	269.13
479.50	269.09
479.87	269.12
480.23	269.16
480.60	269.18
480.96	269.22
481.33	269.42
481.69	269.58
482.06	269.73
482.42	269.87
482.79	270.09
483.15	270.37
483.52	270.70
483.88	271.01
484.25	271.37
484.61	271.84
484.98	272.25
485.34	272.85
485.71	273.42
486.07	273.99
486.44	274.55
486.80	275.26
487.17	276.02
487.53	276.83
487.90	277.65
488.26	278.61
488.62	279.64
488.99	280.61
489.35	281.63
489.72	282.80
490.08	284.00
490.44	285.29
490.81	286.66
491.17	288.06
491.54	289.57
491.90	291.15
492.26	292.84
492.63	294.63
492.99	296.47
493.36	298.48
493.72	300.62
494.08	302.80
494.45	305.12
494.81	307.55
495.17	310.07
495.54	312.76
495.90	315.53
496.26	318.42
496.63	321.53
496.99	324.81
497.35	328.21
497.72	331.78
498.08	335.46
498.44	339.24
498.80	343.29
499.17	347.52
499.53	351.87
499.89	356.41
500.26	361.09
500.62	365.92
500.98	371.06
501.34	376.31
501.71	381.89
502.07	387.60
502.43	393.45
502.79	399.53
503.16	405.87
503.52	412.43
503.88	419.11
504.24	426.11
504.60	433.29
504.97	440.77
505.33	448.37
505.69	456.50
506.05	464.67
506.41	472.95
506.78	481.43
507.14	490.28
507.50	499.43
507.86	508.95
508.22	518.64
508.59	528.28
508.95	538.33
509.31	548.56
509.67	559.19
510.03	570.02
510.39	581.09
510.75	592.36
511.12	603.81
511.48	615.75
511.84	627.71
512.20	639.83
512.56	652.34
512.92	665.20
513.28	678.17
513.64	691.34
514.00	704.77
514.37	718.49
514.73	732.32
515.09	746.04
515.45	760.04
515.81	774.34
516.17	789.15
516.53	804.13
516.89	819.16
517.25	834.12
517.61	849.39
517.97	864.75
518.33	880.04
518.69	895.73
519.05	911.65
519.41	927.80
519.77	944.27
520.13	960.77
520.49	977.17
520.85	993.50
521.21	1010.22
521.57	1027.55
521.93	1044.32
522.29	1061.78
522.65	1079.18
523.01	1096.55
523.37	1113.82
523.73	1131.20
524.09	1148.53
524.45	1165.97
524.81	1183.92
525.17	1201.85
525.53	1220.03
525.89	1238.28
526.25	1256.52
526.61	1274.18
526.97	1292.12
527.33	1310.00
527.68	1327.82
528.04	1345.74
528.40	1363.66
528.76	1382.14
529.12	1400.10
529.48	1418.54
529.84	1435.88
530.20	1453.90
530.56	1472.35
530.91	1491.21
531.27	1509.33
531.63	1527.17
531.99	1545.32
532.35	1562.76
532.71	1580.28
533.07	1598.02
533.42	1615.52
533.78	1633.05
534.14	1650.97
534.50	1667.98
534.86	1685.44
535.21	1702.30
535.57	1719.75
535.93	1736.88
536.29	1753.28
536.65	1769.89
537.00	1786.15
537.36	1803.25
537.72	1819.45
538.08	1835.55
538.44	1850.80
538.79	1866.60
539.15	1881.86
539.51	1897.27
539.87	1913.30
540.22	1928.70
540.58	1944.22
540.94	1959.10
541.29	1973.59
541.65	1987.88
542.01	2002.82
542.37	2016.91
542.72	2031.03
543.08	2044.52
543.44	2058.69
543.79	2071.64
544.15	2084.22
544.51	2097.70
544.87	2110.27
545.22	2122.96
545.58	2134.88
545.94	2146.39
546.29	2157.82
546.65	2169.55
547.01	2180.61
547.36	2191.07
547.72	2201.26
548.07	2210.80
548.43	2220.65
548.79	2230.30
549.14	2239.59
549.50	2248.39
549.86	2257.54
550.21	2266.48
550.57	2275.32
550.92	2283.54
551.28	2292.20
551.64	2301.08
551.99	2309.09
552.35	2316.93
552.70	2324.57
553.06	2332.05
553.41	2340.09
553.77	2347.57
554.13	2355.14
554.48	2362.66
554.84	2369.78
555.19	2376.25
555.55	2383.05
555.90	2389.03
556.26	2395.61
556.61	2401.65
556.97	2407.57
557.32	2413.11
557.68	2418.57
558.03	2424.23
558.39	2429.17
558.74	2435.05
559.10	2440.19
559.45	2445.09
559.81	2450.45
560.16	2455.41
560.52	2460.01
560.87	2464.36
561.23	2468.21
561.58	2472.09
561.94	2475.80
562.29	2479.05
562.64	2483.35
563.00	2486.83
563.35	2491.52
563.71	2495.64
564.06	2499.91
564.42	2503.86
564.77	2507.61
565.12	2511.04
565.48	2514.06
565.83	2516.97
566.19	2519.33
566.54	2520.98
566.89	2523.20
567.25	2524.83
567.60	2527.01
567.96	2529.66
568.31	2531.57
568.66	2533.72
569.02	2535.24
569.37	2536.31
569.72	2538.03
570.08	2538.71
570.43	2539.29
570.78	2539.42
571.14	2538.47
571.49	2537.77
571.84	2537.86
572.20	2537.31
572.55	2536.78
572.90	2535.32
573.26	2534.42
573.61	2532.99
573.96	2531.87
574.31	2529.13
574.67	2526.39
575.02	2523.07
575.37	2519.79
575.72	2516.17
576.08	2512.75
576.43	2509.47
576.78	2506.06
577.13	2502.84
577.49	2499.75
577.84	2496.44
578.19	2492.49
578.54	2488.95
578.90	2484.69
579.25	2479.13
579.60	2474.06
579.95	2468.94
580.30	2463.88
580.66	2458.53
581.01	2453.50
581.36	2448.32
581.71	2444.11
582.06	2439.66
582.42	2434.93
582.77	2429.49
583.12	2424.63
583.47	2419.82
583.82	2414.81
584.17	2409.26
584.53	2403.63
584.88	2397.76
585.23	2391.72
585.58	2386.00
585.93	2380.03
586.28	2374.71
586.63	2369.36
586.98	2363.81
587.34	2358.67
587.69	2353.44
588.04	2348.08
588.39	2342.14
588.74	2335.06
589.09	2328.34
589.44	2320.84
589.79	2314.29
590.14	2308.09
590.49	2301.08
590.84	2294.12
591.19	2287.57
591.54	2280.58
591.89	2272.60
592.25	2265.22
592.60	2257.31
592.95	2249.20
593.30	2241.19
593.65	2233.07
594.00	2225.14
594.35	2217.20
594.70	2208.28
595.05	2200.55
595.40	2192.29
595.75	2183.91
596.10	2177.09
596.45	2169.68
596.80	2162.99
597.15	2155.77
597.50	2148.12
597.85	2140.93
598.19	2133.62
598.54	2125.80
598.89	2118.42
599.24	2111.87
599.59	2104.57
599.94	2097.70
600.29	2090.49
600.64	2083.16
600.99	2074.90
601.34	2067.35
601.69	2059.39
602.04	2051.79
602.39	2043.47
602.74	2035.87
603.08	2028.28
603.43	2020.69
603.78	2012.34
604.13	2004.22
604.48	1996.08
604.83	1988.37
605.18	1980.65
605.53	1971.64
605.87	1962.46
606.22	1954.17
606.57	1945.04
606.92	1936.46
607.27	1928.45
607.62	1920.64
607.96	1912.49
608.31	1905.12
608.66	1896.56
609.01	1888.23
609.36	1879.67
609.70	1870.56
610.05	1861.42
610.40	1852.76
610.75	1843.40
611.10	1834.82
611.44	1825.12
611.79	1815.96
612.14	1805.99
612.49	1795.52
612.83	1785.91
613.18	1776.65
613.53	1767.54
613.88	1757.88
614.22	1748.56
614.57	1738.69
614.92	1729.49
615.27	1720.90
615.61	1711.43
615.96	1702.22
616.31	1693.44
616.65	1685.00
617.00	1676.43
617.35	1667.64
617.70	1658.15
618.04	1648.58
618.39	1639.08
618.74	1630.47
619.08	1621.03
619.43	1612.30
619.78	1604.33
620.12	1596.25
620.47	1587.78
620.82	1578.32
621.16	1569.76
621.51	1560.89
621.85	1552.00
622.20	1542.39
622.55	1532.78
622.89	1523.71
623.24	1514.98
623.59	1506.34
623.93	1497.84
624.28	1489.55
624.62	1481.00
624.97	1472.82
625.32	1464.82
625.66	1456.84
626.01	1448.73
626.35	1440.42
626.70	1431.54
627.04	1422.76
627.39	1413.68
627.73	1405.06
628.08	1397.15
628.43	1388.92
628.77	1380.71
629.12	1372.32
629.46	1364.10
629.81	1355.48
630.15	1347.16
630.50	1338.78
630.84	1329.64
631.19	1320.51
631.53	1311.91
631.88	1303.33
632.22	1294.65
632.57	1286.32
632.91	1277.72
633.26	1269.24
633.60	1260.75
633.95	1252.68
634.29	1244.68
634.64	1237.15
634.98	1228.93
635.32	1220.80
635.67	1213.21
636.01	1205.64
636.36	1197.89
636.70	1190.36
637.05	1182.98
637.39	1175.75
637.73	1168.42
638.08	1161.70
638.42	1154.85
638.77	1147.51
639.11	1140.05
639.45	1132.82
639.80	1125.39
640.14	1118.18
640.49	1110.83
640.83	1103.55
641.17	1096.57
641.52	1089.38
641.86	1082.03
642.20	1075.45
642.55	1068.20
642.89	1060.88
643.23	1053.38
643.58	1046.84
643.92	1039.92
644.26	1033.24
644.61	1026.22
644.95	1019.44
645.29	1012.00
645.64	1004.46
645.98	997.31
646.32	990.51
646.66	983.67
647.01	977.12
647.35	970.63
647.69	963.97
648.04	957.71
648.38	951.27
648.72	944.59
649.06	937.83
649.41	931.08
649.75	924.53
650.09	917.92
650.43	911.47
650.78	904.49
651.12	897.82
651.46	891.31
651.80	884.93
652.14	878.71
652.49	872.75
652.83	866.92
653.17	860.56
653.51	854.29
653.85	848.20
654.20	841.84
654.54	835.09
654.88	828.66
655.22	822.03
655.56	815.50
655.90	809.29
656.25	803.50
656.59	797.49
656.93	791.72
657.27	785.90
657.61	779.75
657.95	774.07
658.29	768.34
658.64	762.34
658.98	756.35
659.32	750.27
659.66	744.35
660.00	738.42
660.34	732.91
660.68	727.25
661.02	721.55
661.36	716.24
661.70	711.23
662.05	706.30
662.39	701.52
662.73	696.46
663.07	691.55
663.41	686.49
663.75	681.39
664.09	676.27
664.43	671.27
664.77	666.71
665.11	661.88
665.45	657.18
665.79	652.64
666.13	648.10
666.47	643.50
666.81	638.83
667.15	634.24
667.49	629.80
667.83	625.58
668.17	621.22
668.51	616.72
668.85	612.16
669.19	607.83
669.53	603.51
669.87	599.21
670.21	595.07
670.55	590.88
670.89	587.08
671.23	583.19
671.57	579.28
671.91	575.31
672.25	571.36
672.58	567.37
672.92	563.50
673.26	559.89
673.60	556.35
673.94	552.88
674.28	549.49
674.62	546.14
674.96	542.63
675.30	539.40
675.64	536.16
675.97	532.99
676.31	529.77
676.65	526.49
676.99	523.48
677.33	520.24
677.67	517.13
678.01	513.75
678.34	510.49
678.68	507.20
679.02	504.01
679.36	500.89
679.70	497.88
680.04	494.89
680.37	491.71
680.71	488.61
681.05	485.65
681.39	482.64
681.73	479.74
682.06	476.95
682.40	474.10
682.74	471.15
683.08	468.27
683.42	465.33
683.75	462.50
684.09	459.58
684.43	456.79
684.77	454.02
685.10	451.37
685.44	448.73
685.78	446.23
686.12	443.74
686.45	441.19
686.79	438.66
687.13	436.14
687.46	433.71
687.80	431.22
688.14	428.72
688.48	426.39
688.81	423.84
689.15	421.35
689.49	418.88
689.82	416.53
690.16	414.21
690.50	411.98
690.83	409.80
691.17	407.53
691.51	405.47
691.84	403.40
692.18	401.26
692.52	399.08
692.85	396.87
693.19	394.71
693.52	392.64
693.86	390.59
694.20	388.52
694.53	386.45
694.87	384.35
695.21	382.35
695.54	380.29
695.88	378.33
696.21	376.42
696.55	374.52
696.88	372.65
697.22	370.74
697.56	368.94
697.89	367.08
698.23	365.29
698.56	363.43
698.90	361.61
699.23	359.72
699.57	357.93
699.90	356.21
700.24	354.50
700.58	352.79
700.91	351.11
701.25	349.49
701.58	347.98
701.92	346.50
702.25	344.93
702.59	343.37
702.92	341.92
703.26	340.40
703.59	339.00
703.93	337.64
704.26	336.25
704.60	334.77
704.93	333.33
705.26	331.95
705.60	330.57
705.93	329.28
706.27	328.12
706.60	326.91
706.94	325.66
707.27	324.36
707.61	323.13
707.94	321.93
708.27	320.67
708.61	319.40
708.94	318.24
709.28	317.13
709.61	316.04
709.94	314.94
710.28	313.83
710.61	312.68
710.95	311.45
711.28	310.41
711.61	309.33
711.95	308.31
712.28	307.22
712.61	306.15
712.95	305.10
713.28	304.06
713.61	303.06
713.95	302.05
714.28	301.12
714.61	300.17
714.95	299.21
715.28	298.27
715.61	297.30
715.95	296.32
716.28	295.31
716.61	294.39
716.95	293.40
717.28	292.54
717.61	291.68
717.94	290.85
718.28	289.93
718.61	289.14
718.94	288.31
719.27	287.57
719.61	286.79
719.94	286.02
720.27	285.21
720.60	284.46
720.94	283.76
721.27	283.08
721.60	282.43
721.93	281.76
722.27	281.11
722.60	280.48
722.93	279.82
723.26	279.24
723.59	278.62
723.93	278.02
724.26	277.37
724.59	276.73
724.92	276.16
725.25	275.64
725.59	275.05
725.92	274.49
726.25	273.92
726.58	273.39
726.91	272.82
727.24	272.31
727.57	271.81
727.91	271.23
728.24	270.67
728.57	270.11
728.90	269.59
729.23	269.08
729.56	268.63
729.89	268.10
730.22	267.55
730.55	267.00
730.89	266.52
731.22	266.04
731.55	265.57
731.88	265.07
732.21	264.55
732.54	264.07
732.87	263.59
733.20	263.14
733.53	262.73
733.86	262.30
734.19	261.87
734.52	261.41
734.85	261.05
735.18	260.61
735.51	260.19
735.84	259.75
736.17	259.36
736.50	258.92
736.83	258.61
737.16	258.24
737.49	257.91
737.82	257.52
738.15	257.12
738.48	256.75
738.81	256.36
739.14	256.01
739.47	255.64
739.80	255.28
740.13	254.93
740.46	254.54
740.79	254.18
741.12	253.84
741.45	253.51
741.78	253.15
742.11	252.82
742.44	252.46
742.77	252.15
743.10	251.78
743.43	251.39
743.75	251.03
744.08	250.86
744.41	250.54
744.74	250.28
745.07	249.98
745.40	249.71
745.73	249.48
746.06	249.15
746.39	248.85
746.71	248.57
747.04	248.26
747.37	247.98
747.70	247.72
748.03	247.41
748.36	247.16
748.68	246.86
749.01	246.58
749.34	246.33
749.67	246.07
750.00	245.80
750.33	245.63
750.65	245.34
750.98	244.93
751.31	244.68
751.64	244.40
751.97	244.21
752.29	243.94
752.62	243.61
752.95	243.41
753.28	243.19
753.60	242.94
753.93	242.72
754.26	242.45
754.59	242.15
754.91	241.89
755.24	241.64
755.57	241.42
755.90	241.22
756.22	241.01
756.55	240.78
756.88	240.58
757.20	240.32
757.53	240.14
757.86	239.96
758.19	239.80
758.51	239.62
758.84	239.36
759.17	239.16
759.49	238.99
759.82	238.86
760.15	238.64
760.47	238.46
760.80	238.24
761.13	238.13
761.45	237.98
761.78	237.80
762.11	237.61
762.43	237.45
762.76	237.27
763.08	237.14
763.41	237.00
763.74	236.84
764.06	236.68
764.39	236.51
764.71	236.39
765.04	236.18
765.37	236.01
765.69	235.88
766.02	235.72
766.34	235.59
766.67	235.38
767.00	235.31
767.32	235.23
767.65	235.17
767.97	235.02
768.30	234.91
768.62	234.79
768.95	234.67
769.27	234.54
769.60	234.42
769.92	234.23
770.25	234.10
770.57	233.96
770.90	233.84
771.22	233.72
771.55	233.56
771.87	233.47
772.20	233.35
772.52	233.34
772.85	233.38
773.17	233.24
773.50	233.15
773.82	233.03
774.15	232.87
774.47	232.74
774.80	232.63
775.12	232.52
775.45	232.43
775.77	232.35
776.09	232.30
776.42	232.18
776.74	232.15
777.07	232.07
777.39	231.95
777.72	231.86
778.04	231.77
778.36	231.69
778.69	231.60
779.01	231.53
779.33	231.37
779.66	231.16
779.98	231.12
780.31	231.06
780.63	231.00
780.95	230.94
781.28	230.84
781.60	230.77
781.92	230.68
782.25	230.61
782.57	230.54
782.89	230.43
783.22	230.37
783.54	230.31
783.86	230.24
784.19	230.22
784.51	230.18
784.83	230.10
785.16	230.04
785.48	230.01
785.80	229.98
786.12	229.93
786.45	229.90
786.77	229.87
787.09	229.78
787.42	229.70
787.74	229.66
788.06	229.63
788.38	229.58
788.71	229.56
789.03	229.55
789.35	229.53
789.67	229.47
789.99	229.44
790.32	229.36
790.64	229.36
790.96	229.39
791.28	229.34
791.61	229.32
791.93	229.31
792.25	229.27
792.57	229.26
792.89	229.18
793.21	229.11
793.54	229.04
793.86	229.03
794.18	229.00
794.50	228.94
794.82	228.90
795.14	228.89
795.47	228.85
795.79	228.80
796.11	228.74
796.43	228.73
796.75	228.70
797.07	228.66
797.39	228.60
797.71	228.50
798.04	228.46
798.36	228.44
798.68	228.39
799.00	228.35
799.32	228.31
799.64	228.30
799.96	228.31
800.28	228.32
800.60	228.29
800.92	228.26
801.24	228.23
801.56	228.21
801.89	228.17
802.21	228.17
802.53	228.10
802.85	228.10
803.17	228.12
803.49	228.06
803.81	228.03
804.13	227.98
804.45	227.91
804.77	227.91
805.09	227.87
805.41	227.83
805.73	227.79
806.05	227.71
806.37	227.70
806.69	227.62
807.01	227.57
807.33	227.55
807.65	227.49
807.97	227.52
808.28	227.46
808.60	227.42
808.92	227.36
809.24	227.41
809.56	227.33
809.88	227.24
810.20	227.24
810.52	227.23
810.84	227.19
811.16	227.18
811.48	227.11
811.80	227.10
812.12	227.06
812.43	227.04
812.75	227.02
813.07	226.96
813.39	226.94
813.71	226.90
814.03	226.84
814.35	226.84
814.67	226.76
814.98	226.74
815.30	226.71
815.62	226.69
815.94	226.61
816.26	226.65
816.58	226.62
816.89	226.57
817.21	226.51
817.53	226.50
817.85	226.47
818.17	226.45
818.48	226.41
818.80	226.41
819.12	226.36
819.44	226.32
819.76	226.26
820.07	226.26
820.39	226.25
820.71	226.23
821.03	226.22
821.34	226.16
821.66	226.16
821.98	226.16
822.30	226.16
822.61	226.14
822.93	226.06
823.25	226.03
823.57	226.02
823.88	226.06
824.20	226.05
824.52	226.03
824.83	226.01
825.15	225.99
825.47	225.97
825.79	225.96
826.10	225.97
826.42	226.00
826.74	225.99
827.05	225.97
827.37	225.98
827.69	225.96
828.00	225.99
828.32	226.01
828.64	225.97
828.95	225.98
829.27	225.98
829.58	225.95
829.90	225.99
830.22	226.00
830.53	225.95
830.85	225.93
831.17	225.93
831.48	225.94
831.80	225.93
832.11	225.94
832.43	225.94
832.75	225.94
833.06	225.98
833.38	225.97
833.69	225.95
834.01	225.94
834.32	225.90
834.64	225.86
834.96	225.80
835.27	225.80
835.59	225.77
835.90	225.75
836.22	225.79
836.53	225.76
836.85	225.73
837.16	225.84
837.48	225.86
837.79	225.89
838.11	225.88
838.42	225.88
838.74	225.89
839.05	225.89
839.37	225.85
839.68	225.77
840.00	225.78
840.31	225.82
840.63	225.80
840.94	225.82
841.26	225.83
841.57	225.83
841.88	225.84
842.20	225.81
842.51	225.81
842.83	225.81
843.14	225.87
843.46	225.90
843.77	225.82
844.08	225.80
844.40	225.77
844.71	225.76
845.03	225.74
845.34	225.71
845.65	225.69
845.97	225.69
846.28	225.71
846.60	225.70
846.91	225.65
847.22	225.64
847.54	225.63
847.85	225.64
848.16	225.61
848.48	225.58
848.79	225.61
849.10	225.62
849.42	225.60
849.73	225.48
850.04	225.44
850.36	225.40
850.67	225.38
850.98	225.36
851.30	225.33
851.61	225.31
851.92	225.31
852.23	225.33
852.55	225.34
852.86	225.32
853.17	225.29
853.49	225.30
853.80	225.30
854.11	225.29
854.42	225.27
854.74	225.28
855.05	225.25
855.36	225.21
855.67	225.19
855.99	225.16
856.30	225.30
856.61	225.29
856.92	225.28
857.23	225.31
857.55	225.28
857.86	225.27
858.17	225.27
858.48	225.27
858.79	225.26
859.11	225.24
859.42	225.26
859.73	225.25
860.04	225.22
860.35	225.18
860.66	225.16
860.98	225.17
861.29	225.18
861.60	225.18
861.91	225.22
862.22	225.18
862.53	225.19
862.84	225.08
863.16	225.09
863.47	225.07
863.78	225.03
864.09	225.05
864.40	225.03
864.71	225.04
865.02	225.02
865.33	225.00
865.64	225.00
865.95	224.97
866.27	225.06
866.58	225.08
866.89	225.12
867.20	225.14
867.51	225.12
867.82	225.15
868.13	225.14
868.44	225.12
868.75	225.17
869.06	225.19
869.37	225.22
869.68	225.20
869.99	225.24
870.30	225.27
870.61	225.27
870.92	225.28
871.23	225.27
871.54	225.30
871.85	225.32
872.16	225.34
872.47	225.33
872.78	225.26
873.09	225.23
873.40	225.20
873.71	225.24
874.02	225.25
874.33	225.21
874.64	225.23
874.95	225.23
875.26	225.20
875.56	225.17
875.87	225.12
876.18	225.10
876.49	225.22
876.80	225.20
877.11	225.20
877.42	225.20
877.73	225.21
878.04	225.19
878.35	225.19
878.66	225.17
878.96	225.17
879.27	225.15
879.58	225.14
879.89	225.14
880.20	225.14
880.51	225.10
880.82	225.07
881.12	225.06
881.43	225.04
881.74	225.04
882.05	225.04
882.36	225.04
882.67	225.05
882.97	224.90
883.28	224.86
883.59	224.87
883.90	224.89
884.21	224.88
884.51	224.88
884.82	224.87
885.13	224.85
885.44	224.85
885.74	224.88
886.05	224.88
886.36	224.89
886.67	224.84
886.98	224.88
887.28	224.92
887.59	224.95
887.90	224.97
888.20	224.94
888.51	224.94
888.82	224.95
889.13	224.96
889.43	225.03
889.74	225.04
890.05	225.00
890.35	225.00
890.66	224.96
890.97	224.95
891.28	224.90
891.58	224.90
891.89	224.86
892.20	224.80
892.50	224.82
892.81	224.80
893.12	224.80
893.42	224.76
893.73	224.73
894.04	224.70
894.34	224.69
894.65	224.68
894.95	224.67
895.26	224.62
895.57	224.66
895.87	224.59
896.18	224.63
896.48	224.68
896.79	224.67
897.10	224.68
897.40	224.68
897.71	224.71
898.01	224.74
898.32	224.76
898.63	224.81
898.93	224.80
899.24	224.81
899.54	224.81
899.85	224.82
900.15	224.83
900.46	224.84
900.76	224.85
901.07	224.87
901.38	224.87
901.68	224.91
901.99	224.88
902.29	224.88
902.60	224.83
902.90	224.82
903.21	224.82
903.51	224.79
903.82	224.81
904.12	224.81
904.43	224.80
904.73	224.82
905.03	224.81
905.34	224.91
905.64	224.92
905.95	224.94
906.25	224.95
906.56	224.95
906.86	224.95
907.17	224.96
907.47	224.97
907.77	224.97
908.08	224.95
908.38	224.95
908.69	224.96
908.99	224.98
909.30	224.99
909.60	224.99
909.90	225.01
910.21	225.00
910.51	224.97
910.81	224.96
911.12	224.96
911.42	224.96
911.73	224.87
912.03	224.85
912.33	224.83
912.64	224.79
912.94	224.77
913.24	224.76
913.55	224.76
913.85	224.72
914.15	224.74
914.46	224.74
914.76	224.71
915.06	224.68
915.37	224.70
915.67	224.69
915.97	224.68
916.27	224.66
916.58	224.68
916.88	224.69
917.18	224.69
917.49	224.74
917.79	224.71
918.09	224.71
918.39	224.73
918.70	224.77
919.00	224.78
919.30	224.84
919.60	224.82
919.91	224.77
920.21	224.81
920.51	224.78
920.81	224.77
921.12	224.84
921.42	224.84
921.72	224.83
922.02	224.82
922.32	224.86
922.63	224.86
922.93	224.88
923.23	224.86
923.53	224.83
923.83	224.74
924.13	224.75
924.44	224.75
924.74	224.76
925.04	224.74
925.34	224.76
925.64	224.70
925.94	224.71
926.24	224.78
926.55	224.77
926.85	224.77
927.15	224.77
927.45	224.74
927.75	224.75
928.05	224.72
928.35	224.73
928.65	224.71
928.95	224.71
929.26	224.68
929.56	224.72
929.86	224.77
930.16	224.78
930.46	224.76
930.76	224.75
931.06	224.72
931.36	224.71
931.66	224.74
931.96	224.75
932.26	224.71
932.56	224.66
932.86	224.64
933.16	224.67
933.46	224.68
933.76	224.64
934.06	224.67
934.36	224.68
934.66	224.68
934.96	224.68
935.26	224.68
935.56	224.67
935.86	224.66
936.16	224.61
936.46	224.60
936.76	224.60
937.06	224.58
937.36	224.55
937.66	224.54
937.96	224.50
938.26	224.49
938.56	224.52
938.86	224.51
939.16	224.54
939.46	224.55
939.76	224.54
940.06	224.57
940.35	224.52
940.65	224.51
940.95	224.51
941.25	224.48
941.55	224.49
941.85	224.51
942.15	224.52
942.45	224.59
942.75	224.60
943.04	224.61
943.34	224.65
943.64	224.66
943.94	224.69
944.24	224.69
944.54	224.69
944.84	224.70
945.13	224.69
945.43	224.65
945.73	224.62
946.03	224.63
946.33	224.58
946.62	224.60
946.92	224.60
947.22	224.60
947.52	224.64
947.82	224.67
948.11	224.66
948.41	224.64
948.71	224.59
949.01	224.61
949.31	224.60
949.60	224.58
949.90	224.58
950.20	224.57
950.50	224.58
950.79	224.56
951.09	224.55
951.39	224.58
951.69	224.62
951.98	224.64
952.28	224.66
952.58	224.66
952.87	224.67
953.17	224.66
953.47	224.66
953.76	224.62
954.06	224.57
954.36	224.54
954.66	224.54
954.95	224.58
955.25	224.59
955.55	224.64
955.84	224.61
956.14	224.64
956.44	224.63
956.73	224.57
957.03	224.60
957.32	224.59
957.62	224.58
957.92	224.56
958.21	224.55
958.51	224.66
958.81	224.68
959.10	224.70
959.40	224.72
959.69	224.70
959.99	224.71
960.29	224.72
960.58	224.73
960.88	224.76
961.17	224.72
961.47	224.72
961.76	224.69
962.06	224.71
962.36	224.67
962.65	224.68
962.95	224.72
963.24	224.71
963.54	224.70
963.83	224.68
964.13	224.66
964.42	224.61
964.72	224.53
965.01	224.51
965.31	224.47
965.60	224.44
965.90	224.53
966.19	224.50
966.49	224.52
966.78	224.52
967.08	224.51
967.37	224.51
967.67	224.47
967.96	224.48
968.26	224.48
968.55	224.48
968.85	224.50
969.14	224.52
969.43	224.52
969.73	224.54
970.02	224.56
970.32	224.58
970.61	224.60
970.91	224.56
971.20	224.57
971.49	224.60
971.79	224.61
972.08	224.52
972.38	224.52
972.67	224.49
972.96	224.48
973.26	224.45
973.55	224.51
973.85	224.48
974.14	224.45
974.43	224.45
974.73	224.47
975.02	224.43
975.31	224.40
975.61	224.38
975.90	224.37
976.19	224.35
976.49	224.35
976.78	224.36
977.07	224.34
977.37	224.34
977.66	224.32
977.95	224.30
978.24	224.31
978.54	224.34
978.83	224.35
979.12	224.36
979.42	224.37
979.71	224.34
980.00	224.38
980.29	224.41
980.59	224.42
980.88	224.43
981.17	224.44
981.46	224.44
981.76	224.48
982.05	224.50
982.34	224.51
982.63	224.50
982.93	224.49
983.22	224.50
983.51	224.53
983.80	224.58
984.09	224.62
984.39	224.62
984.68	224.60
984.97	224.61
985.26	224.63
985.55	224.63
985.85	224.63
986.14	224.64
986.43	224.65
986.72	224.62
987.01	224.59
987.30	224.60
987.59	224.62
987.89	224.60
988.18	224.58
988.47	224.55
988.76	224.56
989.05	224.54
989.34	224.56
989.63	224.54
989.92	224.50
990.22	224.43
990.51	224.42
990.80	224.38
991.09	224.39
991.38	224.40
991.67	224.39
991.96	224.32
992.25	224.33
992.54	224.30
992.83	224.31
993.12	224.29
993.41	224.28
993.70	224.30
993.99	224.28
994.28	224.30
994.58	224.33
994.87	224.32
995.16	224.31
995.45	224.27
995.74	224.25
996.03	224.26
996.32	224.32
996.61	224.33
996.90	224.33
997.19	224.29
997.48	224.26
997.77	224.25
998.06	224.26
998.34	224.24
998.63	224.21
998.92	224.20
999.21	224.25
999.50	224.26
999.79	224.22
1000.08	224.24
1000.37	224.21
1000.66	224.16
1000.95	224.19
1001.24	224.18
1001.53	224.20
1001.82	224.18
1002.11	224.20
1002.40	224.18
1002.68	224.22
1002.97	224.32
1003.26	224.35
1003.55	224.32
1003.84	224.31
1004.13	224.38
1004.42	224.38
1004.71	224.42
1004.99	224.41
1005.28	224.41
1005.57	224.39
1005.86	224.36
1006.15	224.35
1006.44	224.35
1006.72	224.40
1007.01	224.39
1007.30	224.40
1007.59	224.40
1007.88	224.45
1008.17	224.41
1008.45	224.39
1008.74	224.31
1009.03	224.24
1009.32	224.23
1009.60	224.25
1009.89	224.26
1010.18	224.19
1010.47	224.21
1010.76	224.21
1011.04	224.22
1011.33	224.23
1011.62	224.25
1011.91	224.28
1012.19	224.30
1012.48	224.32
1012.77	224.30
1013.05	224.34
1013.34	224.33
1013.63	224.33
1013.92	224.31
1014.20	224.30
1014.49	224.31
1014.78	224.37
1015.06	224.35
1015.35	224.35
1015.64	224.36
1015.92	224.41
1016.21	224.43
1016.50	224.43
1016.78	224.47
1017.07	224.46
1017.36	224.43
1017.64	224.42
1017.93	224.44
1018.22	224.42
1018.50	224.41
1018.79	224.42
1019.08	224.37
1019.36	224.39
1019.65	224.37
1019.93	224.39
1020.22	224.43
1020.51	224.50
1020.79	224.48
1021.08	224.19
1021.36	224.22
1021.65	224.56
1021.94	224.26
1022.22	224.34
1022.51	223.77
1022.79	224.83
1023.08	224.80
1023.36	225.64
1023.65	224.29
>>>>>End Processed Spectral Data<<<<<
