SpectraSuite Data File
++++++++++++++++++++++++++++++++++++
Date: Fri Feb 01 17:09:03 EST 2013
User: group
Dark Spectrum Present: No
Reference Spectrum Present: No
Number of Sampled Component Spectra: 1
Spectrometers: USB2E7196
Integration Time (usec): 35000 (USB2E7196)
Spectra Averaged: 100 (USB2E7196)
Boxcar Smoothing: 10 (USB2E7196)
Correct for Electrical Dark: No (USB2E7196)
Strobe/Lamp Enabled: No (USB2E7196)
Correct for Detector Non-linearity: No (USB2E7196)
Correct for Stray Light: No (USB2E7196)
Number of Pixels in Processed Spectrum: 2048
>>>>>Begin Processed Spectral Data<<<<<
339.09	0.00
339.48	213.50
339.86	215.52
340.24	216.19
340.63	217.43
341.01	221.23
341.39	220.74
341.78	222.18
342.16	222.88
342.54	223.55
342.93	212.09
343.31	222.81
343.69	223.35
344.07	223.82
344.46	224.26
344.84	224.67
345.22	224.86
345.60	225.09
345.99	225.24
346.37	225.36
346.75	225.47
347.13	225.53
347.52	225.58
347.90	225.59
348.28	225.59
348.66	225.64
349.05	225.60
349.43	225.61
349.81	225.59
350.19	225.57
350.57	225.63
350.96	225.68
351.34	225.74
351.72	225.81
352.10	225.84
352.48	225.89
352.87	225.90
353.25	225.98
353.63	226.02
354.01	226.05
354.39	226.11
354.77	226.13
355.15	226.21
355.54	226.26
355.92	226.30
356.30	226.37
356.68	226.47
357.06	226.53
357.44	226.53
357.82	226.59
358.20	226.68
358.58	226.71
358.97	226.78
359.35	226.85
359.73	226.89
360.11	226.92
360.49	226.97
360.87	227.00
361.25	227.04
361.63	227.11
362.01	227.20
362.39	227.22
362.77	227.27
363.15	227.29
363.53	227.32
363.91	227.36
364.29	227.37
364.67	227.28
365.05	227.32
365.43	227.34
365.81	227.37
366.19	227.42
366.57	227.47
366.95	227.46
367.33	227.44
367.71	227.45
368.09	227.47
368.47	227.45
368.85	227.43
369.23	227.41
369.61	227.34
369.99	227.36
370.37	227.33
370.75	227.38
371.13	227.33
371.51	227.27
371.89	227.24
372.27	227.22
372.65	227.20
373.03	227.14
373.41	227.09
373.78	227.02
374.16	226.91
374.54	226.82
374.92	226.76
375.30	226.69
375.68	226.61
376.06	226.57
376.44	226.50
376.82	226.44
377.19	226.35
377.57	226.29
377.95	226.16
378.33	226.10
378.71	225.99
379.09	225.95
379.47	225.92
379.84	225.81
380.22	225.75
380.60	225.67
380.98	225.62
381.36	225.60
381.73	225.53
382.11	225.47
382.49	225.42
382.87	225.37
383.25	225.34
383.62	225.41
384.00	225.31
384.38	225.27
384.76	225.26
385.13	225.28
385.51	225.25
385.89	225.21
386.27	225.18
386.64	225.14
387.02	225.09
387.40	225.06
387.78	225.07
388.15	225.05
388.53	225.01
388.91	224.96
389.29	224.91
389.66	224.90
390.04	224.90
390.42	224.90
390.79	224.89
391.17	224.87
391.55	224.73
391.92	224.73
392.30	224.73
392.68	224.71
393.05	224.70
393.43	224.72
393.81	224.77
394.18	224.76
394.56	224.77
394.94	224.85
395.31	224.82
395.69	224.87
396.06	224.90
396.44	224.95
396.82	224.99
397.19	225.06
397.57	225.10
397.95	225.14
398.32	225.18
398.70	225.21
399.07	225.26
399.45	225.33
399.82	225.41
400.20	225.48
400.58	225.54
400.95	225.56
401.33	225.63
401.70	225.72
402.08	225.78
402.45	225.87
402.83	225.93
403.20	226.07
403.58	226.12
403.95	226.25
404.33	226.35
404.71	226.48
405.08	226.67
405.46	226.80
405.83	226.93
406.21	227.04
406.58	227.22
406.96	227.40
407.33	227.56
407.70	227.75
408.08	228.01
408.45	228.22
408.83	228.46
409.20	228.65
409.58	228.86
409.95	229.13
410.33	229.40
410.70	229.63
411.08	229.89
411.45	230.18
411.82	230.48
412.20	230.84
412.57	231.23
412.95	231.51
413.32	231.94
413.69	232.37
414.07	232.79
414.44	233.26
414.82	233.70
415.19	234.23
415.56	234.74
415.94	235.26
416.31	235.92
416.68	236.53
417.06	237.25
417.43	237.92
417.81	238.71
418.18	239.45
418.55	240.28
418.93	241.17
419.30	242.07
419.67	243.03
420.04	243.97
420.42	244.96
420.79	246.12
421.16	247.23
421.54	248.41
421.91	249.62
422.28	250.84
422.66	252.15
423.03	253.48
423.40	254.84
423.77	256.28
424.15	257.69
424.52	259.17
424.89	260.79
425.26	262.34
425.64	263.75
426.01	265.38
426.38	267.06
426.75	268.75
427.13	270.46
427.50	272.24
427.87	274.12
428.24	275.99
428.61	277.74
428.99	279.66
429.36	281.76
429.73	283.82
430.10	285.84
430.47	287.92
430.85	290.00
431.22	292.20
431.59	294.52
431.96	296.73
432.33	299.23
432.70	301.57
433.08	304.34
433.45	306.96
433.82	309.56
434.19	312.42
434.56	315.17
434.93	317.82
435.30	320.36
435.68	323.26
436.05	326.05
436.42	328.82
436.79	331.34
437.16	333.99
437.53	336.83
437.90	339.60
438.27	342.31
438.64	345.10
439.01	347.71
439.38	349.97
439.75	352.12
440.13	354.54
440.50	356.85
440.87	358.69
441.24	360.66
441.61	362.72
441.98	364.25
442.35	366.05
442.72	367.93
443.09	369.75
443.46	370.69
443.83	371.31
444.20	371.83
444.57	372.66
444.94	372.99
445.31	373.27
445.68	373.68
446.05	373.79
446.42	373.44
446.79	372.98
447.16	372.51
447.53	372.19
447.90	371.09
448.27	369.93
448.64	368.41
449.01	367.26
449.37	365.34
449.74	363.39
450.11	361.14
450.48	358.64
450.85	356.16
451.22	354.03
451.59	351.99
451.96	350.06
452.33	347.47
452.70	345.11
453.07	342.32
453.43	339.43
453.80	336.66
454.17	334.02
454.54	331.53
454.91	328.88
455.28	326.20
455.65	323.73
456.02	321.33
456.38	319.15
456.75	316.54
457.12	314.30
457.49	312.14
457.86	309.99
458.23	308.14
458.59	306.09
458.96	304.05
459.33	302.21
459.70	300.35
460.07	298.91
460.43	297.20
460.80	295.59
461.17	294.17
461.54	292.67
461.91	291.25
462.27	289.80
462.64	288.52
463.01	287.22
463.38	285.98
463.74	284.61
464.11	283.44
464.48	282.39
464.85	281.28
465.21	280.40
465.58	279.52
465.95	278.43
466.32	277.59
466.68	276.70
467.05	275.85
467.42	274.99
467.78	274.03
468.15	273.19
468.52	272.56
468.88	271.71
469.25	270.99
469.62	270.38
469.98	269.74
470.35	269.18
470.72	268.57
471.08	267.87
471.45	267.35
471.82	266.88
472.18	266.29
472.55	265.88
472.92	265.41
473.28	264.93
473.65	264.53
474.02	264.08
474.38	263.72
474.75	263.37
475.11	263.05
475.48	262.83
475.85	262.57
476.21	262.37
476.58	262.20
476.94	262.04
477.31	261.90
477.67	261.78
478.04	261.66
478.41	261.60
478.77	261.69
479.14	261.61
479.50	261.60
479.87	261.71
480.23	261.80
480.60	261.86
480.96	261.99
481.33	262.23
481.69	262.42
482.06	262.64
482.42	262.88
482.79	263.12
483.15	263.42
483.52	263.82
483.88	264.15
484.25	264.57
484.61	264.96
484.98	265.40
485.34	265.96
485.71	266.56
486.07	267.21
486.44	267.76
486.80	268.51
487.17	269.25
487.53	270.09
487.90	270.92
488.26	271.85
488.62	272.83
488.99	273.80
489.35	274.84
489.72	275.97
490.08	277.15
490.44	278.38
490.81	279.73
491.17	281.09
491.54	282.56
491.90	284.09
492.26	285.76
492.63	287.46
492.99	289.18
493.36	291.05
493.72	293.03
494.08	295.11
494.45	297.34
494.81	299.68
495.17	302.10
495.54	304.68
495.90	307.36
496.26	310.15
496.63	313.06
496.99	316.18
497.35	319.40
497.72	322.78
498.08	326.25
498.44	329.92
498.80	333.81
499.17	337.81
499.53	341.97
499.89	346.32
500.26	350.82
500.62	355.53
500.98	360.45
501.34	365.54
501.71	370.80
502.07	376.18
502.43	381.76
502.79	387.46
503.16	393.45
503.52	399.62
503.88	405.97
504.24	412.58
504.60	419.44
504.97	426.52
505.33	433.80
505.69	441.51
506.05	449.21
506.41	457.02
506.78	465.12
507.14	473.44
507.50	482.08
507.86	490.97
508.22	500.00
508.59	509.15
508.95	518.66
509.31	528.37
509.67	538.28
510.03	548.42
510.39	558.88
510.75	569.60
511.12	580.40
511.48	591.50
511.84	602.71
512.20	614.01
512.56	625.78
512.92	637.74
513.28	649.81
513.64	662.09
514.00	674.62
514.37	687.28
514.73	700.05
515.09	712.82
515.45	725.91
515.81	739.30
516.17	753.04
516.53	766.81
516.89	780.75
517.25	794.72
517.61	808.88
517.97	823.04
518.33	837.19
518.69	851.73
519.05	866.40
519.41	881.34
519.77	896.49
520.13	911.57
520.49	926.68
520.85	941.69
521.21	957.03
521.57	972.87
521.93	988.36
522.29	1004.46
522.65	1020.34
523.01	1036.11
523.37	1051.78
523.73	1067.52
524.09	1083.28
524.45	1099.18
524.81	1115.45
525.17	1131.86
525.53	1148.48
525.89	1164.91
526.25	1181.33
526.61	1197.34
526.97	1213.77
527.33	1229.92
527.68	1246.11
528.04	1262.20
528.40	1278.49
528.76	1295.06
529.12	1311.27
529.48	1327.77
529.84	1343.41
530.20	1359.67
530.56	1376.30
530.91	1393.42
531.27	1409.89
531.63	1426.03
531.99	1442.08
532.35	1457.65
532.71	1473.20
533.07	1488.94
533.42	1504.52
533.78	1520.21
534.14	1536.10
534.50	1550.99
534.86	1566.49
535.21	1581.25
535.57	1596.69
535.93	1611.79
536.29	1626.33
536.65	1641.05
537.00	1655.36
537.36	1670.25
537.72	1684.43
538.08	1698.55
538.44	1711.89
538.79	1725.31
539.15	1738.45
539.51	1751.97
539.87	1766.00
540.22	1779.43
540.58	1792.85
540.94	1805.62
541.29	1818.09
541.65	1830.45
542.01	1843.23
542.37	1855.35
542.72	1867.57
543.08	1879.17
543.44	1891.36
543.79	1902.30
544.15	1912.95
544.51	1924.25
544.87	1935.07
545.22	1945.62
545.58	1955.60
545.94	1965.22
546.29	1974.89
546.65	1984.75
547.01	1993.90
547.36	2002.42
547.72	2010.70
548.07	2018.45
548.43	2026.58
548.79	2034.33
549.14	2041.75
549.50	2049.03
549.86	2056.47
550.21	2063.69
550.57	2070.64
550.92	2077.01
551.28	2084.04
551.64	2091.07
551.99	2097.59
552.35	2103.73
552.70	2109.86
553.06	2115.89
553.41	2122.14
553.77	2128.12
554.13	2134.10
554.48	2140.15
554.84	2145.82
555.19	2151.02
555.55	2156.21
555.90	2160.69
556.26	2165.94
556.61	2170.72
556.97	2175.18
557.32	2179.34
557.68	2183.49
558.03	2187.97
558.39	2191.67
558.74	2196.31
559.10	2200.18
559.45	2203.81
559.81	2207.98
560.16	2211.94
560.52	2215.19
560.87	2218.60
561.23	2221.47
561.58	2224.36
561.94	2227.06
562.29	2229.17
562.64	2232.01
563.00	2234.64
563.35	2238.21
563.71	2241.24
564.06	2244.50
564.42	2247.46
564.77	2250.19
565.12	2252.76
565.48	2254.83
565.83	2256.99
566.19	2258.53
566.54	2259.53
566.89	2260.92
567.25	2261.80
567.60	2263.10
567.96	2264.92
568.31	2265.97
568.66	2267.32
569.02	2268.09
569.37	2268.49
569.72	2269.63
570.08	2270.09
570.43	2270.36
570.78	2270.14
571.14	2268.86
571.49	2267.70
571.84	2267.53
572.20	2266.75
572.55	2265.73
572.90	2264.33
573.26	2263.12
573.61	2261.50
573.96	2260.11
574.31	2257.36
574.67	2254.58
575.02	2251.25
575.37	2247.99
575.72	2244.57
576.08	2241.37
576.43	2238.24
576.78	2234.95
577.13	2231.98
577.49	2228.96
577.84	2225.80
578.19	2222.16
578.54	2218.85
578.90	2215.07
579.25	2209.78
579.60	2205.05
579.95	2200.31
580.30	2195.39
580.66	2190.46
581.01	2185.75
581.36	2180.98
581.71	2177.17
582.06	2172.98
582.42	2168.92
582.77	2163.96
583.12	2159.53
583.47	2155.17
583.82	2150.59
584.17	2145.57
584.53	2140.34
584.88	2134.93
585.23	2129.29
585.58	2124.08
585.93	2118.79
586.28	2114.09
586.63	2109.18
586.98	2104.14
587.34	2099.72
587.69	2095.23
588.04	2090.49
588.39	2085.08
588.74	2078.92
589.09	2072.83
589.44	2066.25
589.79	2060.18
590.14	2054.89
590.49	2048.48
590.84	2042.17
591.19	2036.29
591.54	2030.04
591.89	2023.09
592.25	2016.64
592.60	2009.67
592.95	2002.44
593.30	1995.30
593.65	1987.92
594.00	1981.22
594.35	1974.22
594.70	1966.26
595.05	1959.39
595.40	1952.09
595.75	1944.82
596.10	1939.02
596.45	1932.63
596.80	1926.76
597.15	1920.47
597.50	1913.66
597.85	1907.31
598.19	1900.89
598.54	1894.10
598.89	1887.57
599.24	1881.73
599.59	1875.27
599.94	1869.23
600.29	1862.97
600.64	1856.37
600.99	1849.22
601.34	1842.47
601.69	1835.63
602.04	1829.10
602.39	1821.74
602.74	1814.97
603.08	1808.36
603.43	1801.54
603.78	1794.35
604.13	1787.07
604.48	1779.96
604.83	1773.14
605.18	1766.50
605.53	1758.61
605.87	1750.68
606.22	1743.56
606.57	1735.67
606.92	1728.38
607.27	1721.45
607.62	1714.66
607.96	1707.72
608.31	1701.25
608.66	1693.89
609.01	1686.50
609.36	1679.04
609.70	1671.16
610.05	1663.33
610.40	1655.68
610.75	1647.58
611.10	1640.04
611.44	1631.82
611.79	1623.86
612.14	1615.26
612.49	1606.07
612.83	1597.83
613.18	1589.81
613.53	1581.74
613.88	1573.32
614.22	1565.12
614.57	1556.39
614.92	1548.49
615.27	1541.11
615.61	1532.79
615.96	1524.66
616.31	1517.04
616.65	1509.59
617.00	1502.11
617.35	1494.40
617.70	1486.28
618.04	1477.72
618.39	1469.40
618.74	1461.92
619.08	1453.60
619.43	1446.10
619.78	1439.26
620.12	1432.06
620.47	1424.51
620.82	1416.37
621.16	1408.96
621.51	1401.39
621.85	1393.92
622.20	1385.45
622.55	1377.00
622.89	1369.14
623.24	1361.49
623.59	1354.04
623.93	1346.70
624.28	1339.48
624.62	1332.03
624.97	1324.80
625.32	1318.09
625.66	1311.16
626.01	1303.95
626.35	1296.67
626.70	1288.82
627.04	1281.25
627.39	1273.47
627.73	1266.16
628.08	1259.34
628.43	1252.17
628.77	1244.83
629.12	1237.24
629.46	1230.22
629.81	1222.79
630.15	1215.58
630.50	1208.38
630.84	1200.28
631.19	1192.26
631.53	1184.70
631.88	1177.20
632.22	1169.67
632.57	1162.37
632.91	1154.87
633.26	1147.56
633.60	1140.13
633.95	1133.09
634.29	1125.96
634.64	1119.32
634.98	1112.07
635.32	1104.91
635.67	1098.30
636.01	1091.60
636.36	1084.96
636.70	1078.32
637.05	1071.76
637.39	1065.35
637.73	1058.81
638.08	1052.96
638.42	1046.98
638.77	1040.65
639.11	1034.14
639.45	1027.75
639.80	1021.11
640.14	1014.61
640.49	1008.14
640.83	1001.87
641.17	995.72
641.52	989.50
641.86	982.99
642.20	976.98
642.55	970.66
642.89	964.25
643.23	957.68
643.58	951.95
643.92	945.79
644.26	939.85
644.61	933.78
644.95	927.80
645.29	921.30
645.64	914.64
645.98	908.31
646.32	902.41
646.66	896.36
647.01	890.62
647.35	885.08
647.69	879.20
648.04	873.74
648.38	867.99
648.72	862.05
649.06	856.14
649.41	850.34
649.75	844.45
650.09	838.58
650.43	832.88
650.78	826.65
651.12	820.70
651.46	814.96
651.80	809.33
652.14	803.98
652.49	798.67
652.83	793.53
653.17	787.91
653.51	782.24
653.85	776.96
654.20	771.43
654.54	765.42
654.88	759.68
655.22	753.79
655.56	748.08
655.90	742.63
656.25	737.40
656.59	732.09
656.93	727.04
657.27	721.89
657.61	716.55
657.95	711.49
658.29	706.48
658.64	701.30
658.98	695.97
659.32	690.53
659.66	685.35
660.00	680.10
660.34	675.21
660.68	670.30
661.02	665.25
661.36	660.51
661.70	656.05
662.05	651.74
662.39	647.47
662.73	643.11
663.07	638.72
663.41	634.30
663.75	629.88
664.09	625.33
664.43	620.96
664.77	616.91
665.11	612.73
665.45	608.63
665.79	604.51
666.13	600.51
666.47	596.42
666.81	592.27
667.15	588.15
667.49	584.29
667.83	580.46
668.17	576.58
668.51	572.56
668.85	568.54
669.19	564.71
669.53	560.93
669.87	557.08
670.21	553.38
670.55	549.74
670.89	546.29
671.23	542.96
671.57	539.45
671.91	535.95
672.25	532.41
672.58	528.87
672.92	525.46
673.26	522.25
673.60	519.12
673.94	516.05
674.28	513.15
674.62	510.18
674.96	507.15
675.30	504.25
675.64	501.36
675.97	498.60
676.31	495.74
676.65	492.83
676.99	490.10
677.33	487.28
677.67	484.45
678.01	481.46
678.34	478.46
678.68	475.61
679.02	472.73
679.36	469.96
679.70	467.28
680.04	464.57
680.37	461.75
680.71	458.89
681.05	456.29
681.39	453.59
681.73	450.92
682.06	448.38
682.40	445.82
682.74	443.25
683.08	440.69
683.42	438.10
683.75	435.59
684.09	433.03
684.43	430.58
684.77	428.15
685.10	425.76
685.44	423.45
685.78	421.16
686.12	418.92
686.45	416.65
686.79	414.39
687.13	412.17
687.46	409.95
687.80	407.86
688.14	405.60
688.48	403.55
688.81	401.31
689.15	399.16
689.49	397.05
689.82	394.94
690.16	392.85
690.50	390.92
690.83	388.97
691.17	386.96
691.51	385.08
691.84	383.27
692.18	381.35
692.52	379.37
692.85	377.44
693.19	375.58
693.52	373.69
693.86	371.83
694.20	370.03
694.53	368.30
694.87	366.41
695.21	364.61
695.54	362.78
695.88	361.02
696.21	359.34
696.55	357.63
696.88	355.95
697.22	354.28
697.56	352.63
697.89	350.96
698.23	349.41
698.56	347.77
698.90	346.18
699.23	344.58
699.57	343.01
699.90	341.45
700.24	339.91
700.58	338.44
700.91	336.98
701.25	335.57
701.58	334.18
701.92	332.81
702.25	331.51
702.59	330.13
702.92	328.83
703.26	327.49
703.59	326.21
703.93	325.03
704.26	323.84
704.60	322.53
704.93	321.27
705.26	320.02
705.60	318.84
705.93	317.67
706.27	316.61
706.60	315.58
706.94	314.50
707.27	313.40
707.61	312.34
707.94	311.32
708.27	310.22
708.61	309.11
708.94	308.14
709.28	307.13
709.61	306.16
709.94	305.23
710.28	304.21
710.61	303.23
710.95	302.18
711.28	301.23
711.61	300.33
711.95	299.46
712.28	298.50
712.61	297.54
712.95	296.62
713.28	295.75
713.61	294.87
713.95	293.99
714.28	293.11
714.61	292.27
714.95	291.43
715.28	290.55
715.61	289.70
715.95	288.82
716.28	287.94
716.61	287.15
716.95	286.32
717.28	285.59
717.61	284.81
717.94	284.08
718.28	283.31
718.61	282.57
718.94	281.82
719.27	281.18
719.61	280.51
719.94	279.79
720.27	279.03
720.60	278.33
720.94	277.69
721.27	277.11
721.60	276.54
721.93	275.92
722.27	275.39
722.60	274.82
722.93	274.26
723.26	273.75
723.59	273.16
723.93	272.62
724.26	272.05
724.59	271.50
724.92	270.96
725.25	270.45
725.59	269.89
725.92	269.39
726.25	268.89
726.58	268.39
726.91	267.88
727.24	267.43
727.57	266.95
727.91	266.45
728.24	265.97
728.57	265.45
728.90	264.97
729.23	264.46
729.56	264.05
729.89	263.61
730.22	263.09
730.55	262.61
730.89	262.16
731.22	261.70
731.55	261.25
731.88	260.80
732.21	260.36
732.54	259.94
732.87	259.49
733.20	259.08
733.53	258.68
733.86	258.32
734.19	257.89
734.52	257.50
734.85	257.19
735.18	256.81
735.51	256.42
735.84	256.02
736.17	255.64
736.50	255.25
736.83	254.98
737.16	254.65
737.49	254.33
737.82	253.94
738.15	253.63
738.48	253.25
738.81	252.92
739.14	252.61
739.47	252.31
739.80	252.03
740.13	251.70
740.46	251.40
740.79	251.08
741.12	250.84
741.45	250.54
741.78	250.19
742.11	249.89
742.44	249.57
742.77	249.33
743.10	249.06
743.43	248.75
743.75	248.35
744.08	248.22
744.41	247.94
744.74	247.67
745.07	247.40
745.40	247.20
745.73	246.98
746.06	246.72
746.39	246.49
746.71	246.21
747.04	245.96
747.37	245.69
747.70	245.49
748.03	245.21
748.36	245.00
748.68	244.74
749.01	244.50
749.34	244.28
749.67	244.05
750.00	243.82
750.33	243.65
750.65	243.46
750.98	243.11
751.31	242.93
751.64	242.73
751.97	242.54
752.29	242.32
752.62	242.03
752.95	241.83
753.28	241.57
753.60	241.35
753.93	241.15
754.26	240.96
754.59	240.71
754.91	240.54
755.24	240.33
755.57	240.19
755.90	239.98
756.22	239.81
756.55	239.61
756.88	239.43
757.20	239.22
757.53	239.05
757.86	238.91
758.19	238.72
758.51	238.56
758.84	238.37
759.17	238.20
759.49	238.08
759.82	237.99
760.15	237.85
760.47	237.72
760.80	237.53
761.13	237.39
761.45	237.23
761.78	237.07
762.11	236.92
762.43	236.77
762.76	236.62
763.08	236.51
763.41	236.38
763.74	236.25
764.06	236.09
764.39	235.95
764.71	235.81
765.04	235.70
765.37	235.59
765.69	235.46
766.02	235.36
766.34	235.22
766.67	235.04
767.00	234.96
767.32	234.88
767.65	234.83
767.97	234.71
768.30	234.63
768.62	234.50
768.95	234.38
769.27	234.26
769.60	234.19
769.92	234.04
770.25	233.92
770.57	233.79
770.90	233.72
771.22	233.61
771.55	233.49
771.87	233.40
772.20	233.27
772.52	233.29
772.85	233.33
773.17	233.25
773.50	233.17
773.82	233.03
774.15	232.91
774.47	232.81
774.80	232.71
775.12	232.63
775.45	232.55
775.77	232.49
776.09	232.41
776.42	232.34
776.74	232.31
777.07	232.26
777.39	232.19
777.72	232.08
778.04	232.01
778.36	231.93
778.69	231.83
779.01	231.78
779.33	231.59
779.66	231.41
779.98	231.33
780.31	231.27
780.63	231.29
780.95	231.23
781.28	231.14
781.60	231.10
781.92	231.02
782.25	230.95
782.57	230.90
782.89	230.85
783.22	230.72
783.54	230.66
783.86	230.59
784.19	230.50
784.51	230.46
784.83	230.39
785.16	230.33
785.48	230.26
785.80	230.22
786.12	230.19
786.45	230.12
786.77	230.07
787.09	230.01
787.42	229.88
787.74	229.84
788.06	229.78
788.38	229.69
788.71	229.65
789.03	229.61
789.35	229.55
789.67	229.48
789.99	229.48
790.32	229.37
790.64	229.33
790.96	229.41
791.28	229.33
791.61	229.27
791.93	229.22
792.25	229.19
792.57	229.19
792.89	229.11
793.21	229.05
793.54	229.02
793.86	228.95
794.18	228.92
794.50	228.86
794.82	228.83
795.14	228.81
795.47	228.77
795.79	228.76
796.11	228.70
796.43	228.70
796.75	228.64
797.07	228.66
797.39	228.60
797.71	228.52
798.04	228.48
798.36	228.47
798.68	228.48
799.00	228.44
799.32	228.34
799.64	228.34
799.96	228.30
800.28	228.27
800.60	228.24
800.92	228.22
801.24	228.16
801.56	228.13
801.89	228.12
802.21	228.08
802.53	228.00
802.85	228.02
803.17	228.01
803.49	227.96
803.81	227.92
804.13	227.92
804.45	227.88
804.77	227.89
805.09	227.88
805.41	227.82
805.73	227.81
806.05	227.80
806.37	227.79
806.69	227.75
807.01	227.70
807.33	227.72
807.65	227.68
807.97	227.73
808.28	227.70
808.60	227.65
808.92	227.62
809.24	227.67
809.56	227.59
809.88	227.55
810.20	227.54
810.52	227.53
810.84	227.48
811.16	227.43
811.48	227.40
811.80	227.41
812.12	227.41
812.43	227.39
812.75	227.35
813.07	227.35
813.39	227.35
813.71	227.33
814.03	227.28
814.35	227.28
814.67	227.22
814.98	227.23
815.30	227.24
815.62	227.24
815.94	227.17
816.26	227.23
816.58	227.15
816.89	227.16
817.21	227.13
817.53	227.10
817.85	227.09
818.17	227.06
818.48	227.00
818.80	227.00
819.12	226.99
819.44	227.01
819.76	226.96
820.07	226.93
820.39	226.94
820.71	226.92
821.03	226.87
821.34	226.86
821.66	226.84
821.98	226.79
822.30	226.76
822.61	226.81
822.93	226.73
823.25	226.74
823.57	226.72
823.88	226.73
824.20	226.71
824.52	226.73
824.83	226.74
825.15	226.70
825.47	226.68
825.79	226.65
826.10	226.59
826.42	226.55
826.74	226.52
827.05	226.50
827.37	226.50
827.69	226.52
828.00	226.53
828.32	226.49
828.64	226.50
828.95	226.54
829.27	226.49
829.58	226.48
829.90	226.48
830.22	226.46
830.53	226.41
830.85	226.43
831.17	226.38
831.48	226.36
831.80	226.36
832.11	226.34
832.43	226.31
832.75	226.30
833.06	226.37
833.38	226.35
833.69	226.37
834.01	226.36
834.32	226.35
834.64	226.29
834.96	226.28
835.27	226.26
835.59	226.23
835.90	226.17
836.22	226.17
836.53	226.16
836.85	226.16
837.16	226.24
837.48	226.24
837.79	226.28
838.11	226.26
838.42	226.25
838.74	226.25
839.05	226.25
839.37	226.26
839.68	226.17
840.00	226.14
840.31	226.10
840.63	226.11
840.94	226.09
841.26	226.10
841.57	226.09
841.88	226.11
842.20	226.09
842.51	226.11
842.83	226.09
843.14	226.18
843.46	226.17
843.77	226.13
844.08	226.12
844.40	226.09
844.71	226.07
845.03	226.07
845.34	226.04
845.65	226.05
845.97	226.04
846.28	226.05
846.60	226.09
846.91	226.09
847.22	226.06
847.54	226.09
847.85	226.10
848.16	226.10
848.48	226.10
848.79	226.13
849.10	226.13
849.42	226.11
849.73	226.02
850.04	225.97
850.36	225.94
850.67	225.92
850.98	225.92
851.30	225.92
851.61	225.89
851.92	225.89
852.23	225.88
852.55	225.90
852.86	225.87
853.17	225.88
853.49	225.88
853.80	225.89
854.11	225.87
854.42	225.88
854.74	225.86
855.05	225.86
855.36	225.77
855.67	225.79
855.99	225.81
856.30	225.89
856.61	225.90
856.92	225.86
857.23	225.88
857.55	225.85
857.86	225.84
858.17	225.84
858.48	225.83
858.79	225.81
859.11	225.80
859.42	225.80
859.73	225.79
860.04	225.79
860.35	225.75
860.66	225.71
860.98	225.67
861.29	225.68
861.60	225.68
861.91	225.70
862.22	225.67
862.53	225.66
862.84	225.56
863.16	225.58
863.47	225.57
863.78	225.55
864.09	225.55
864.40	225.59
864.71	225.60
865.02	225.59
865.33	225.59
865.64	225.57
865.95	225.58
866.27	225.61
866.58	225.57
866.89	225.61
867.20	225.58
867.51	225.58
867.82	225.53
868.13	225.53
868.44	225.52
868.75	225.55
869.06	225.53
869.37	225.54
869.68	225.47
869.99	225.48
870.30	225.49
870.61	225.52
870.92	225.45
871.23	225.45
871.54	225.43
871.85	225.44
872.16	225.44
872.47	225.40
872.78	225.37
873.09	225.38
873.40	225.34
873.71	225.35
874.02	225.32
874.33	225.34
874.64	225.30
874.95	225.30
875.26	225.25
875.56	225.26
875.87	225.26
876.18	225.27
876.49	225.37
876.80	225.34
877.11	225.29
877.42	225.31
877.73	225.28
878.04	225.31
878.35	225.28
878.66	225.28
878.96	225.26
879.27	225.22
879.58	225.23
879.89	225.23
880.20	225.24
880.51	225.24
880.82	225.26
881.12	225.32
881.43	225.30
881.74	225.30
882.05	225.26
882.36	225.28
882.67	225.29
882.97	225.19
883.28	225.18
883.59	225.20
883.90	225.22
884.21	225.25
884.51	225.23
884.82	225.25
885.13	225.24
885.44	225.26
885.74	225.25
886.05	225.24
886.36	225.24
886.67	225.22
886.98	225.28
887.28	225.28
887.59	225.26
887.90	225.26
888.20	225.27
888.51	225.30
888.82	225.28
889.13	225.25
889.43	225.28
889.74	225.30
890.05	225.29
890.35	225.26
890.66	225.22
890.97	225.21
891.28	225.21
891.58	225.23
891.89	225.22
892.20	225.24
892.50	225.22
892.81	225.25
893.12	225.23
893.42	225.18
893.73	225.18
894.04	225.17
894.34	225.15
894.65	225.13
894.95	225.13
895.26	225.15
895.57	225.23
895.87	225.17
896.18	225.19
896.48	225.22
896.79	225.19
897.10	225.25
897.40	225.25
897.71	225.27
898.01	225.25
898.32	225.28
898.63	225.25
898.93	225.26
899.24	225.28
899.54	225.27
899.85	225.27
900.15	225.26
900.46	225.26
900.76	225.31
901.07	225.30
901.38	225.29
901.68	225.26
901.99	225.22
902.29	225.20
902.60	225.16
902.90	225.12
903.21	225.14
903.51	225.12
903.82	225.13
904.12	225.15
904.43	225.15
904.73	225.12
905.03	225.14
905.34	225.25
905.64	225.23
905.95	225.25
906.25	225.25
906.56	225.27
906.86	225.23
907.17	225.18
907.47	225.21
907.77	225.21
908.08	225.18
908.38	225.19
908.69	225.22
908.99	225.26
909.30	225.28
909.60	225.28
909.90	225.29
910.21	225.28
910.51	225.22
910.81	225.23
911.12	225.25
911.42	225.25
911.73	225.15
912.03	225.17
912.33	225.19
912.64	225.19
912.94	225.18
913.24	225.19
913.55	225.19
913.85	225.17
914.15	225.20
914.46	225.22
914.76	225.21
915.06	225.22
915.37	225.21
915.67	225.19
915.97	225.19
916.27	225.18
916.58	225.18
916.88	225.20
917.18	225.19
917.49	225.24
917.79	225.23
918.09	225.23
918.39	225.26
918.70	225.26
919.00	225.26
919.30	225.31
919.60	225.30
919.91	225.33
920.21	225.32
920.51	225.32
920.81	225.34
921.12	225.36
921.42	225.34
921.72	225.32
922.02	225.34
922.32	225.34
922.63	225.37
922.93	225.43
923.23	225.43
923.53	225.46
923.83	225.39
924.13	225.38
924.44	225.41
924.74	225.40
925.04	225.42
925.34	225.43
925.64	225.38
925.94	225.41
926.24	225.43
926.55	225.44
926.85	225.43
927.15	225.43
927.45	225.45
927.75	225.47
928.05	225.45
928.35	225.46
928.65	225.51
928.95	225.50
929.26	225.42
929.56	225.43
929.86	225.42
930.16	225.41
930.46	225.43
930.76	225.44
931.06	225.38
931.36	225.36
931.66	225.40
931.96	225.43
932.26	225.45
932.56	225.42
932.86	225.46
933.16	225.48
933.46	225.45
933.76	225.40
934.06	225.43
934.36	225.50
934.66	225.52
934.96	225.49
935.26	225.48
935.56	225.53
935.86	225.52
936.16	225.53
936.46	225.55
936.76	225.55
937.06	225.52
937.36	225.56
937.66	225.60
937.96	225.55
938.26	225.52
938.56	225.48
938.86	225.50
939.16	225.50
939.46	225.52
939.76	225.56
940.06	225.58
940.35	225.52
940.65	225.47
940.95	225.46
941.25	225.42
941.55	225.42
941.85	225.40
942.15	225.41
942.45	225.44
942.75	225.44
943.04	225.44
943.34	225.47
943.64	225.46
943.94	225.42
944.24	225.44
944.54	225.42
944.84	225.44
945.13	225.43
945.43	225.40
945.73	225.37
946.03	225.32
946.33	225.29
946.62	225.28
946.92	225.25
947.22	225.26
947.52	225.28
947.82	225.29
948.11	225.27
948.41	225.26
948.71	225.24
949.01	225.24
949.31	225.22
949.60	225.20
949.90	225.23
950.20	225.23
950.50	225.24
950.79	225.24
951.09	225.23
951.39	225.19
951.69	225.15
951.98	225.20
952.28	225.20
952.58	225.22
952.87	225.21
953.17	225.23
953.47	225.21
953.76	225.18
954.06	225.16
954.36	225.13
954.66	225.12
954.95	225.13
955.25	225.11
955.55	225.13
955.84	225.14
956.14	225.10
956.44	225.07
956.73	225.04
957.03	225.03
957.32	225.03
957.62	225.05
957.92	225.10
958.21	225.06
958.51	225.14
958.81	225.14
959.10	225.17
959.40	225.20
959.69	225.21
959.99	225.24
960.29	225.22
960.58	225.23
960.88	225.27
961.17	225.24
961.47	225.22
961.76	225.18
962.06	225.16
962.36	225.14
962.65	225.18
962.95	225.16
963.24	225.18
963.54	225.19
963.83	225.21
964.13	225.19
964.42	225.18
964.72	225.11
965.01	225.10
965.31	225.08
965.60	225.03
965.90	225.07
966.19	225.06
966.49	225.08
966.78	225.09
967.08	225.09
967.37	225.12
967.67	225.14
967.96	225.19
968.26	225.18
968.55	225.22
968.85	225.25
969.14	225.27
969.43	225.27
969.73	225.27
970.02	225.27
970.32	225.26
970.61	225.27
970.91	225.25
971.20	225.23
971.49	225.23
971.79	225.28
972.08	225.23
972.38	225.24
972.67	225.22
972.96	225.25
973.26	225.24
973.55	225.25
973.85	225.24
974.14	225.24
974.43	225.24
974.73	225.20
975.02	225.16
975.31	225.15
975.61	225.14
975.90	225.13
976.19	225.11
976.49	225.14
976.78	225.13
977.07	225.15
977.37	225.17
977.66	225.18
977.95	225.15
978.24	225.14
978.54	225.17
978.83	225.21
979.12	225.16
979.42	225.15
979.71	225.13
980.00	225.13
980.29	225.13
980.59	225.13
980.88	225.18
981.17	225.16
981.46	225.17
981.76	225.16
982.05	225.18
982.34	225.17
982.63	225.15
982.93	225.15
983.22	225.15
983.51	225.13
983.80	225.15
984.09	225.15
984.39	225.13
984.68	225.09
984.97	225.06
985.26	225.08
985.55	225.06
985.85	225.03
986.14	225.01
986.43	225.01
986.72	225.00
987.01	224.94
987.30	224.94
987.59	224.93
987.89	224.93
988.18	224.88
988.47	224.87
988.76	224.86
989.05	224.86
989.34	224.86
989.63	224.89
989.92	224.90
990.22	224.86
990.51	224.89
990.80	224.86
991.09	224.86
991.38	224.86
991.67	224.86
991.96	224.84
992.25	224.85
992.54	224.81
992.83	224.80
993.12	224.80
993.41	224.82
993.70	224.87
993.99	224.92
994.28	224.95
994.58	224.97
994.87	224.97
995.16	224.95
995.45	224.93
995.74	224.90
996.03	224.89
996.32	224.92
996.61	224.91
996.90	224.94
997.19	224.92
997.48	224.90
997.77	224.89
998.06	224.94
998.34	224.95
998.63	224.98
998.92	225.00
999.21	225.03
999.50	225.04
999.79	224.98
1000.08	224.95
1000.37	224.93
1000.66	224.92
1000.95	224.94
1001.24	224.94
1001.53	224.99
1001.82	224.99
1002.11	224.99
1002.40	225.00
1002.68	225.04
1002.97	225.08
1003.26	225.09
1003.55	225.11
1003.84	225.12
1004.13	225.12
1004.42	225.12
1004.71	225.10
1004.99	225.09
1005.28	225.10
1005.57	225.07
1005.86	225.05
1006.15	225.05
1006.44	225.03
1006.72	225.03
1007.01	225.02
1007.30	225.00
1007.59	224.98
1007.88	224.98
1008.17	224.96
1008.45	224.96
1008.74	224.91
1009.03	224.90
1009.32	224.89
1009.60	224.87
1009.89	224.89
1010.18	224.88
1010.47	224.87
1010.76	224.89
1011.04	224.89
1011.33	224.92
1011.62	224.92
1011.91	224.97
1012.19	224.97
1012.48	224.99
1012.77	225.01
1013.05	225.05
1013.34	225.08
1013.63	225.07
1013.92	225.06
1014.20	225.04
1014.49	225.06
1014.78	225.09
1015.06	225.06
1015.35	225.05
1015.64	225.05
1015.92	225.07
1016.21	225.08
1016.50	225.08
1016.78	225.10
1017.07	225.10
1017.36	225.05
1017.64	225.06
1017.93	225.05
1018.22	225.03
1018.50	225.02
1018.79	225.00
1019.08	224.95
1019.36	224.95
1019.65	224.93
1019.93	224.97
1020.22	225.01
1020.51	225.04
1020.79	225.01
1021.08	224.58
1021.36	224.68
1021.65	224.73
1021.94	224.77
1022.22	225.29
1022.51	224.47
1022.79	225.64
1023.08	224.96
1023.36	226.36
1023.65	224.60
>>>>>End Processed Spectral Data<<<<<
