SpectraSuite Data File
++++++++++++++++++++++++++++++++++++
Date: Fri Feb 01 17:56:52 EST 2013
User: group
Dark Spectrum Present: No
Reference Spectrum Present: No
Number of Sampled Component Spectra: 1
Spectrometers: USB2E7196
Integration Time (usec): 35000 (USB2E7196)
Spectra Averaged: 100 (USB2E7196)
Boxcar Smoothing: 10 (USB2E7196)
Correct for Electrical Dark: No (USB2E7196)
Strobe/Lamp Enabled: No (USB2E7196)
Correct for Detector Non-linearity: No (USB2E7196)
Correct for Stray Light: No (USB2E7196)
Number of Pixels in Processed Spectrum: 2048
>>>>>Begin Processed Spectral Data<<<<<
339.09	0.00
339.48	212.75
339.86	213.73
340.24	215.48
340.63	216.49
341.01	219.58
341.39	219.80
341.78	221.22
342.16	222.35
342.54	222.69
342.93	211.24
343.31	221.90
343.69	222.44
344.07	222.92
344.46	223.34
344.84	223.73
345.22	223.96
345.60	224.19
345.99	224.39
346.37	224.52
346.75	224.64
347.13	224.70
347.52	224.77
347.90	224.83
348.28	224.84
348.66	224.90
349.05	224.85
349.43	224.88
349.81	224.96
350.19	225.01
350.57	225.07
350.96	225.12
351.34	225.21
351.72	225.27
352.10	225.37
352.48	225.44
352.87	225.47
353.25	225.55
353.63	225.64
354.01	225.69
354.39	225.77
354.77	225.82
355.15	225.89
355.54	225.93
355.92	225.94
356.30	226.03
356.68	226.15
357.06	226.21
357.44	226.28
357.82	226.35
358.20	226.43
358.58	226.46
358.97	226.50
359.35	226.58
359.73	226.66
360.11	226.74
360.49	226.79
360.87	226.86
361.25	226.92
361.63	226.98
362.01	227.00
362.39	226.99
362.77	227.03
363.15	227.08
363.53	227.11
363.91	227.17
364.29	227.17
364.67	227.10
365.05	227.11
365.43	227.12
365.81	227.11
366.19	227.13
366.57	227.16
366.95	227.20
367.33	227.18
367.71	227.19
368.09	227.16
368.47	227.15
368.85	227.12
369.23	227.10
369.61	227.05
369.99	227.07
370.37	227.05
370.75	227.09
371.13	227.04
371.51	226.98
371.89	226.94
372.27	226.94
372.65	226.88
373.03	226.85
373.41	226.79
373.78	226.74
374.16	226.65
374.54	226.58
374.92	226.49
375.30	226.42
375.68	226.35
376.06	226.29
376.44	226.24
376.82	226.21
377.19	226.15
377.57	226.09
377.95	226.03
378.33	226.00
378.71	225.89
379.09	225.85
379.47	225.83
379.84	225.75
380.22	225.66
380.60	225.63
380.98	225.57
381.36	225.52
381.73	225.45
382.11	225.43
382.49	225.37
382.87	225.28
383.25	225.25
383.62	225.32
384.00	225.28
384.38	225.23
384.76	225.22
385.13	225.22
385.51	225.18
385.89	225.11
386.27	225.06
386.64	225.01
387.02	224.97
387.40	224.92
387.78	224.93
388.15	224.90
388.53	224.86
388.91	224.86
389.29	224.85
389.66	224.86
390.04	224.80
390.42	224.82
390.79	224.84
391.17	224.79
391.55	224.64
391.92	224.65
392.30	224.69
392.68	224.64
393.05	224.60
393.43	224.60
393.81	224.60
394.18	224.58
394.56	224.61
394.94	224.63
395.31	224.67
395.69	224.69
396.06	224.72
396.44	224.72
396.82	224.72
397.19	224.81
397.57	224.82
397.95	224.90
398.32	224.92
398.70	224.98
399.07	225.06
399.45	225.10
399.82	225.16
400.20	225.19
400.58	225.27
400.95	225.28
401.33	225.38
401.70	225.53
402.08	225.63
402.45	225.72
402.83	225.82
403.20	225.93
403.58	226.00
403.95	226.13
404.33	226.28
404.71	226.43
405.08	226.60
405.46	226.73
405.83	226.87
406.21	227.01
406.58	227.17
406.96	227.35
407.33	227.57
407.70	227.78
408.08	228.08
408.45	228.33
408.83	228.63
409.20	228.89
409.58	229.10
409.95	229.43
410.33	229.75
410.70	230.08
411.08	230.40
411.45	230.81
411.82	231.21
412.20	231.65
412.57	232.14
412.95	232.56
413.32	233.10
413.69	233.61
414.07	234.18
414.44	234.79
414.82	235.41
415.19	236.14
415.56	236.87
415.94	237.57
416.31	238.44
416.68	239.29
417.06	240.22
417.43	241.13
417.81	242.12
418.18	243.15
418.55	244.24
418.93	245.43
419.30	246.64
419.67	247.86
420.04	249.14
420.42	250.50
420.79	252.05
421.16	253.54
421.54	255.15
421.91	256.79
422.28	258.45
422.66	260.27
423.03	262.03
423.40	263.82
423.77	265.73
424.15	267.62
424.52	269.60
424.89	271.76
425.26	273.85
425.64	275.83
426.01	277.97
426.38	280.19
426.75	282.45
427.13	284.77
427.50	287.20
427.87	289.69
428.24	292.18
428.61	294.54
428.99	297.18
429.36	300.01
429.73	302.79
430.10	305.55
430.47	308.28
430.85	311.07
431.22	314.10
431.59	317.25
431.96	320.29
432.33	323.64
432.70	326.85
433.08	330.64
433.45	334.19
433.82	337.69
434.19	341.61
434.56	345.36
434.93	348.93
435.30	352.48
435.68	356.37
436.05	360.19
436.42	363.93
436.79	367.29
437.16	370.93
437.53	374.73
437.90	378.52
438.27	382.21
438.64	386.10
439.01	389.57
439.38	392.60
439.75	395.48
440.13	398.83
440.50	401.96
440.87	404.44
441.24	407.05
441.61	409.97
441.98	411.96
442.35	414.39
442.72	416.93
443.09	419.33
443.46	420.69
443.83	421.45
444.20	422.18
444.57	423.36
444.94	423.73
445.31	424.24
445.68	424.66
446.05	424.83
446.42	424.22
446.79	423.71
447.16	423.09
447.53	422.71
447.90	421.20
448.27	419.67
448.64	417.56
449.01	416.05
449.37	413.40
449.74	410.87
450.11	407.81
450.48	404.47
450.85	401.08
451.22	398.21
451.59	395.50
451.96	392.87
452.33	389.37
452.70	386.24
453.07	382.42
453.43	378.61
453.80	374.87
454.17	371.35
454.54	367.90
454.91	364.28
455.28	360.64
455.65	357.26
456.02	353.87
456.38	350.98
456.75	347.33
457.12	344.29
457.49	341.28
457.86	338.41
458.23	335.89
458.59	333.13
458.96	330.32
459.33	327.83
459.70	325.30
460.07	323.25
460.43	320.92
460.80	318.71
461.17	316.73
461.54	314.65
461.91	312.69
462.27	310.75
462.64	309.06
463.01	307.22
463.38	305.42
463.74	303.67
464.11	302.05
464.48	300.70
464.85	299.20
465.21	298.02
465.58	296.77
465.95	295.33
466.32	294.11
466.68	292.92
467.05	291.70
467.42	290.47
467.78	289.20
468.15	288.00
468.52	287.08
468.88	285.91
469.25	284.92
469.62	284.04
469.98	283.08
470.35	282.20
470.72	281.38
471.08	280.55
471.45	279.80
471.82	279.07
472.18	278.26
472.55	277.63
472.92	276.89
473.28	276.21
473.65	275.59
474.02	274.96
474.38	274.42
474.75	273.97
475.11	273.50
475.48	273.17
475.85	272.79
476.21	272.45
476.58	272.17
476.94	271.93
477.31	271.65
477.67	271.41
478.04	271.19
478.41	271.07
478.77	271.02
479.14	270.88
479.50	270.81
479.87	270.80
480.23	270.85
480.60	270.90
480.96	270.96
481.33	271.08
481.69	271.26
482.06	271.38
482.42	271.54
482.79	271.74
483.15	271.97
483.52	272.37
483.88	272.69
484.25	273.03
484.61	273.42
484.98	273.90
485.34	274.46
485.71	275.08
486.07	275.68
486.44	276.24
486.80	276.92
487.17	277.67
487.53	278.54
487.90	279.39
488.26	280.31
488.62	281.33
488.99	282.34
489.35	283.40
489.72	284.59
490.08	285.84
490.44	287.12
490.81	288.54
491.17	289.94
491.54	291.53
491.90	293.15
492.26	294.89
492.63	296.70
492.99	298.53
493.36	300.48
493.72	302.59
494.08	304.79
494.45	307.16
494.81	309.65
495.17	312.21
495.54	314.90
495.90	317.73
496.26	320.66
496.63	323.80
496.99	327.12
497.35	330.55
497.72	334.12
498.08	337.85
498.44	341.75
498.80	345.90
499.17	350.12
499.53	354.54
499.89	359.19
500.26	363.93
500.62	368.90
500.98	374.18
501.34	379.60
501.71	385.24
502.07	391.05
502.43	397.00
502.79	403.18
503.16	409.61
503.52	416.28
503.88	423.06
504.24	430.10
504.60	437.39
504.97	445.00
505.33	452.74
505.69	460.95
506.05	469.15
506.41	477.48
506.78	486.13
507.14	495.15
507.50	504.32
507.86	513.96
508.22	523.71
508.59	533.54
508.95	543.67
509.31	554.14
509.67	564.85
510.03	575.78
510.39	587.00
510.75	598.50
511.12	610.11
511.48	622.22
511.84	634.48
512.20	646.80
512.56	659.52
512.92	672.64
513.28	685.85
513.64	699.28
514.00	712.96
514.37	726.89
514.73	740.84
515.09	754.94
515.45	769.22
515.81	783.75
516.17	798.68
516.53	813.96
516.89	829.21
517.25	844.56
517.61	860.19
517.97	875.91
518.33	891.60
518.69	907.67
519.05	923.77
519.41	940.20
519.77	956.97
520.13	973.76
520.49	990.46
520.85	1007.18
521.21	1024.16
521.57	1041.77
521.93	1058.86
522.29	1076.71
522.65	1094.38
523.01	1111.89
523.37	1129.58
523.73	1147.37
524.09	1164.96
524.45	1182.76
524.81	1200.90
525.17	1219.24
525.53	1237.75
525.89	1256.26
526.25	1274.68
526.61	1292.86
526.97	1311.29
527.33	1329.54
527.68	1347.86
528.04	1366.08
528.40	1384.49
528.76	1403.50
529.12	1421.88
529.48	1440.75
529.84	1458.52
530.20	1476.94
530.56	1495.91
530.91	1515.28
531.27	1534.01
531.63	1552.44
531.99	1571.08
532.35	1589.15
532.71	1607.05
533.07	1625.22
533.42	1643.20
533.78	1661.41
534.14	1679.73
534.50	1697.10
534.86	1715.00
535.21	1732.28
535.57	1750.27
535.93	1767.90
536.29	1784.64
536.65	1801.78
537.00	1818.57
537.36	1836.19
537.72	1852.90
538.08	1869.69
538.44	1885.55
538.79	1901.64
539.15	1917.34
539.51	1933.19
539.87	1949.60
540.22	1965.41
540.58	1981.30
540.94	1996.55
541.29	2011.51
541.65	2026.28
542.01	2041.74
542.37	2056.30
542.72	2070.82
543.08	2084.80
543.44	2099.48
543.79	2113.05
544.15	2126.19
544.51	2139.98
544.87	2153.04
545.22	2166.10
545.58	2178.26
545.94	2190.19
546.29	2202.08
546.65	2214.09
547.01	2225.43
547.36	2236.18
547.72	2246.78
548.07	2256.76
548.43	2267.13
548.79	2277.02
549.14	2286.67
549.50	2295.78
549.86	2305.42
550.21	2314.59
550.57	2323.87
550.92	2332.29
551.28	2341.21
551.64	2350.28
551.99	2358.71
552.35	2366.88
552.70	2374.89
553.06	2382.73
553.41	2390.75
553.77	2398.62
554.13	2406.56
554.48	2414.66
554.84	2422.17
555.19	2429.20
555.55	2436.16
555.90	2442.24
556.26	2449.06
556.61	2455.42
556.97	2461.57
557.32	2467.23
557.68	2473.13
558.03	2478.88
558.39	2484.06
558.74	2490.42
559.10	2495.78
559.45	2500.98
559.81	2506.57
560.16	2511.94
560.52	2516.78
560.87	2521.78
561.23	2525.76
561.58	2529.97
561.94	2533.70
562.29	2537.25
562.64	2541.38
563.00	2545.16
563.35	2550.08
563.71	2554.49
564.06	2558.92
564.42	2562.98
564.77	2566.95
565.12	2570.61
565.48	2573.67
565.83	2576.90
566.19	2579.38
566.54	2581.34
566.89	2583.63
567.25	2585.31
567.60	2587.49
567.96	2590.15
568.31	2591.83
568.66	2594.08
569.02	2595.58
569.37	2596.77
569.72	2598.51
570.08	2599.58
570.43	2600.39
570.78	2600.61
571.14	2599.62
571.49	2598.85
571.84	2599.17
572.20	2598.63
572.55	2598.13
572.90	2597.08
573.26	2595.98
573.61	2594.43
573.96	2593.27
574.31	2590.54
574.67	2587.87
575.02	2584.38
575.37	2581.17
575.72	2577.62
576.08	2574.17
576.43	2570.95
576.78	2567.53
577.13	2564.39
577.49	2561.06
577.84	2557.77
578.19	2553.86
578.54	2550.32
578.90	2546.21
579.25	2540.43
579.60	2535.24
579.95	2529.90
580.30	2524.60
580.66	2519.13
581.01	2513.88
581.36	2508.40
581.71	2503.96
582.06	2499.35
582.42	2494.82
582.77	2489.14
583.12	2484.22
583.47	2479.28
583.82	2474.13
584.17	2468.45
584.53	2462.53
584.88	2456.57
585.23	2450.13
585.58	2444.22
585.93	2438.16
586.28	2432.74
586.63	2427.34
586.98	2421.62
587.34	2416.36
587.69	2411.01
588.04	2405.39
588.39	2399.23
588.74	2392.18
589.09	2385.37
589.44	2377.73
589.79	2370.73
590.14	2364.48
590.49	2357.20
590.84	2350.14
591.19	2343.28
591.54	2336.00
591.89	2327.82
592.25	2320.21
592.60	2312.19
592.95	2303.86
593.30	2295.64
593.65	2287.15
594.00	2279.06
594.35	2270.94
594.70	2261.80
595.05	2253.65
595.40	2245.26
595.75	2236.81
596.10	2229.87
596.45	2222.26
596.80	2215.31
597.15	2207.93
597.50	2200.04
597.85	2192.62
598.19	2184.83
598.54	2176.90
598.89	2169.35
599.24	2162.45
599.59	2155.05
599.94	2147.91
600.29	2140.51
600.64	2132.77
600.99	2124.33
601.34	2116.55
601.69	2108.48
602.04	2100.78
602.39	2092.37
602.74	2084.57
603.08	2076.68
603.43	2068.85
603.78	2060.33
604.13	2052.05
604.48	2043.65
604.83	2035.68
605.18	2027.73
605.53	2018.58
605.87	2009.10
606.22	2000.60
606.57	1991.44
606.92	1982.51
607.27	1974.30
607.62	1966.35
607.96	1957.91
608.31	1950.22
608.66	1941.33
609.01	1932.71
609.36	1923.68
609.70	1914.38
610.05	1904.93
610.40	1895.93
610.75	1886.32
611.10	1877.52
611.44	1867.53
611.79	1858.06
612.14	1847.86
612.49	1837.13
612.83	1827.36
613.18	1817.89
613.53	1808.43
613.88	1798.43
614.22	1788.76
614.57	1778.47
614.92	1768.98
615.27	1760.32
615.61	1750.59
615.96	1741.14
616.31	1732.11
616.65	1723.49
617.00	1714.57
617.35	1705.66
617.70	1696.10
618.04	1686.10
618.39	1676.07
618.74	1667.20
619.08	1657.63
619.43	1648.61
619.78	1640.39
620.12	1632.11
620.47	1623.40
620.82	1613.71
621.16	1604.92
621.51	1595.99
621.85	1587.07
622.20	1577.07
622.55	1567.10
622.89	1557.92
623.24	1548.87
623.59	1540.07
623.93	1531.29
624.28	1522.70
624.62	1513.84
624.97	1505.21
625.32	1497.16
625.66	1489.03
626.01	1480.58
626.35	1471.88
626.70	1462.91
627.04	1453.82
627.39	1444.49
627.73	1435.62
628.08	1427.58
628.43	1419.14
628.77	1410.63
629.12	1401.81
629.46	1393.41
629.81	1384.67
630.15	1376.11
630.50	1367.53
630.84	1358.06
631.19	1348.69
631.53	1339.87
631.88	1330.89
632.22	1322.10
632.57	1313.41
632.91	1304.67
633.26	1295.98
633.60	1287.22
633.95	1278.87
634.29	1270.59
634.64	1262.89
634.98	1254.40
635.32	1246.10
635.67	1238.24
636.01	1230.44
636.36	1222.50
636.70	1214.78
637.05	1207.20
637.39	1199.59
637.73	1191.97
638.08	1184.99
638.42	1178.11
638.77	1170.65
639.11	1163.04
639.45	1155.55
639.80	1147.92
640.14	1140.57
640.49	1132.98
640.83	1125.76
641.17	1118.53
641.52	1111.20
641.86	1103.56
642.20	1096.73
642.55	1089.25
642.89	1081.84
643.23	1074.19
643.58	1067.57
643.92	1060.50
644.26	1053.55
644.61	1046.53
644.95	1039.67
645.29	1032.08
645.64	1024.20
645.98	1016.82
646.32	1010.01
646.66	1002.97
647.01	996.26
647.35	989.51
647.69	982.64
648.04	976.13
648.38	969.45
648.72	962.64
649.06	955.80
649.41	948.96
649.75	942.17
650.09	935.28
650.43	928.66
650.78	921.50
651.12	914.64
651.46	908.00
651.80	901.44
652.14	895.08
652.49	888.89
652.83	882.93
653.17	876.44
653.51	869.92
653.85	863.70
654.20	857.16
654.54	850.34
654.88	843.76
655.22	836.94
655.56	830.33
655.90	824.00
656.25	817.94
656.59	811.85
656.93	805.93
657.27	800.09
657.61	793.73
657.95	787.89
658.29	781.97
658.64	775.81
658.98	769.63
659.32	763.37
659.66	757.29
660.00	751.24
660.34	745.49
660.68	739.73
661.02	733.92
661.36	728.51
661.70	723.25
662.05	718.23
662.39	713.28
662.73	708.18
663.07	703.13
663.41	697.94
663.75	692.68
664.09	687.42
664.43	682.23
664.77	677.56
665.11	672.63
665.45	667.86
665.79	663.21
666.13	658.54
666.47	653.84
666.81	649.17
667.15	644.38
667.49	639.92
667.83	635.54
668.17	631.04
668.51	626.44
668.85	621.74
669.19	617.34
669.53	612.98
669.87	608.47
670.21	604.22
670.55	599.96
670.89	596.05
671.23	592.12
671.57	588.14
671.91	584.14
672.25	580.12
672.58	576.06
672.92	572.09
673.26	568.36
673.60	564.67
673.94	561.06
674.28	557.70
674.62	554.34
674.96	550.85
675.30	547.49
675.64	544.09
675.97	540.92
676.31	537.63
676.65	534.23
676.99	531.14
677.33	527.86
677.67	524.72
678.01	521.22
678.34	517.83
678.68	514.51
679.02	511.19
679.36	507.95
679.70	504.85
680.04	501.73
680.37	498.49
680.71	495.31
681.05	492.29
681.39	489.18
681.73	486.09
682.06	483.11
682.40	480.25
682.74	477.29
683.08	474.36
683.42	471.38
683.75	468.53
684.09	465.56
684.43	462.67
684.77	459.85
685.10	457.11
685.44	454.41
685.78	451.75
686.12	449.15
686.45	446.54
686.79	443.87
687.13	441.30
687.46	438.82
687.80	436.32
688.14	433.74
688.48	431.34
688.81	428.78
689.15	426.29
689.49	423.76
689.82	421.40
690.16	418.97
690.50	416.71
690.83	414.46
691.17	412.15
691.51	409.93
691.84	407.81
692.18	405.62
692.52	403.35
692.85	401.09
693.19	398.96
693.52	396.78
693.86	394.67
694.20	392.61
694.53	390.52
694.87	388.39
695.21	386.33
695.54	384.24
695.88	382.19
696.21	380.23
696.55	378.23
696.88	376.26
697.22	374.34
697.56	372.42
697.89	370.54
698.23	368.71
698.56	366.87
698.90	365.02
699.23	363.14
699.57	361.36
699.90	359.62
700.24	357.82
700.58	356.11
700.91	354.39
701.25	352.68
701.58	351.08
701.92	349.49
702.25	347.91
702.59	346.32
702.92	344.79
703.26	343.30
703.59	341.89
703.93	340.49
704.26	339.06
704.60	337.55
704.93	336.05
705.26	334.60
705.60	333.22
705.93	331.82
706.27	330.58
706.60	329.32
706.94	328.07
707.27	326.73
707.61	325.46
707.94	324.28
708.27	323.06
708.61	321.84
708.94	320.61
709.28	319.45
709.61	318.35
709.94	317.28
710.28	316.05
710.61	314.85
710.95	313.60
711.28	312.55
711.61	311.44
711.95	310.41
712.28	309.28
712.61	308.15
712.95	307.07
713.28	306.03
713.61	304.99
713.95	303.96
714.28	303.02
714.61	302.02
714.95	301.02
715.28	300.01
715.61	298.93
715.95	297.98
716.28	296.99
716.61	295.99
716.95	295.04
717.28	294.18
717.61	293.36
717.94	292.49
718.28	291.52
718.61	290.66
718.94	289.84
719.27	289.15
719.61	288.42
719.94	287.67
720.27	286.87
720.60	286.10
720.94	285.36
721.27	284.66
721.60	283.99
721.93	283.30
722.27	282.68
722.60	282.08
722.93	281.46
723.26	280.83
723.59	280.18
723.93	279.52
724.26	278.87
724.59	278.21
724.92	277.59
725.25	277.03
725.59	276.46
725.92	275.85
726.25	275.23
726.58	274.64
726.91	274.04
727.24	273.50
727.57	272.97
727.91	272.37
728.24	271.80
728.57	271.24
728.90	270.71
729.23	270.15
729.56	269.66
729.89	269.07
730.22	268.52
730.55	267.97
730.89	267.46
731.22	266.98
731.55	266.46
731.88	265.99
732.21	265.48
732.54	264.96
732.87	264.46
733.20	264.01
733.53	263.55
733.86	263.09
734.19	262.60
734.52	262.14
734.85	261.79
735.18	261.29
735.51	260.85
735.84	260.41
736.17	259.99
736.50	259.53
736.83	259.29
737.16	258.89
737.49	258.54
737.82	258.13
738.15	257.71
738.48	257.34
738.81	256.95
739.14	256.56
739.47	256.22
739.80	255.87
740.13	255.48
740.46	255.12
740.79	254.73
741.12	254.40
741.45	254.05
741.78	253.64
742.11	253.33
742.44	252.96
742.77	252.63
743.10	252.29
743.43	251.91
743.75	251.45
744.08	251.27
744.41	250.97
744.74	250.65
745.07	250.32
745.40	250.01
745.73	249.77
746.06	249.47
746.39	249.18
746.71	248.86
747.04	248.58
747.37	248.27
747.70	248.02
748.03	247.74
748.36	247.47
748.68	247.18
749.01	246.89
749.34	246.64
749.67	246.36
750.00	246.10
750.33	245.91
750.65	245.64
750.98	245.28
751.31	245.01
751.64	244.79
751.97	244.58
752.29	244.32
752.62	244.01
752.95	243.81
753.28	243.55
753.60	243.30
753.93	243.09
754.26	242.83
754.59	242.55
754.91	242.31
755.24	242.09
755.57	241.88
755.90	241.67
756.22	241.44
756.55	241.24
756.88	241.00
757.20	240.77
757.53	240.54
757.86	240.36
758.19	240.15
758.51	239.95
758.84	239.71
759.17	239.52
759.49	239.34
759.82	239.16
760.15	238.99
760.47	238.86
760.80	238.66
761.13	238.54
761.45	238.38
761.78	238.18
762.11	238.03
762.43	237.87
762.76	237.72
763.08	237.59
763.41	237.42
763.74	237.29
764.06	237.13
764.39	237.01
764.71	236.84
765.04	236.71
765.37	236.57
765.69	236.47
766.02	236.34
766.34	236.21
766.67	236.03
767.00	235.90
767.32	235.81
767.65	235.76
767.97	235.60
768.30	235.51
768.62	235.39
768.95	235.27
769.27	235.16
769.60	235.05
769.92	234.91
770.25	234.78
770.57	234.66
770.90	234.56
771.22	234.41
771.55	234.29
771.87	234.19
772.20	234.05
772.52	233.99
772.85	234.00
773.17	233.91
773.50	233.84
773.82	233.73
774.15	233.58
774.47	233.42
774.80	233.31
775.12	233.19
775.45	233.12
775.77	233.00
776.09	232.90
776.42	232.82
776.74	232.76
777.07	232.70
777.39	232.59
777.72	232.48
778.04	232.43
778.36	232.33
778.69	232.23
779.01	232.15
779.33	232.04
779.66	231.88
779.98	231.80
780.31	231.71
780.63	231.67
780.95	231.59
781.28	231.53
781.60	231.48
781.92	231.42
782.25	231.35
782.57	231.26
782.89	231.22
783.22	231.12
783.54	231.01
783.86	230.95
784.19	230.90
784.51	230.85
784.83	230.80
785.16	230.75
785.48	230.69
785.80	230.62
786.12	230.54
786.45	230.44
786.77	230.34
787.09	230.29
787.42	230.21
787.74	230.14
788.06	230.06
788.38	230.00
788.71	229.95
789.03	229.90
789.35	229.87
789.67	229.79
789.99	229.76
790.32	229.73
790.64	229.67
790.96	229.72
791.28	229.65
791.61	229.60
791.93	229.56
792.25	229.53
792.57	229.57
792.89	229.52
793.21	229.48
793.54	229.44
793.86	229.36
794.18	229.30
794.50	229.25
794.82	229.20
795.14	229.16
795.47	229.12
795.79	229.10
796.11	229.05
796.43	229.00
796.75	228.93
797.07	228.92
797.39	228.88
797.71	228.74
798.04	228.69
798.36	228.64
798.68	228.59
799.00	228.53
799.32	228.41
799.64	228.39
799.96	228.36
800.28	228.35
800.60	228.33
800.92	228.32
801.24	228.29
801.56	228.25
801.89	228.21
802.21	228.18
802.53	228.08
802.85	228.07
803.17	228.09
803.49	228.02
803.81	227.96
804.13	227.92
804.45	227.87
804.77	227.85
805.09	227.81
805.41	227.77
805.73	227.70
806.05	227.69
806.37	227.65
806.69	227.58
807.01	227.55
807.33	227.51
807.65	227.42
807.97	227.48
808.28	227.43
808.60	227.41
808.92	227.38
809.24	227.42
809.56	227.39
809.88	227.32
810.20	227.34
810.52	227.32
810.84	227.31
811.16	227.30
811.48	227.28
811.80	227.32
812.12	227.30
812.43	227.34
812.75	227.31
813.07	227.29
813.39	227.30
813.71	227.25
814.03	227.24
814.35	227.23
814.67	227.10
814.98	227.10
815.30	227.08
815.62	227.03
815.94	226.94
816.26	226.93
816.58	226.90
816.89	226.87
817.21	226.85
817.53	226.79
817.85	226.79
818.17	226.76
818.48	226.68
818.80	226.66
819.12	226.61
819.44	226.58
819.76	226.55
820.07	226.51
820.39	226.49
820.71	226.48
821.03	226.49
821.34	226.50
821.66	226.46
821.98	226.43
822.30	226.40
822.61	226.41
822.93	226.36
823.25	226.31
823.57	226.26
823.88	226.25
824.20	226.23
824.52	226.20
824.83	226.19
825.15	226.16
825.47	226.15
825.79	226.12
826.10	226.10
826.42	226.09
826.74	226.08
827.05	226.05
827.37	226.01
827.69	225.96
828.00	225.95
828.32	225.94
828.64	225.93
828.95	225.99
829.27	226.01
829.58	225.98
829.90	226.00
830.22	226.02
830.53	225.95
830.85	225.96
831.17	225.91
831.48	225.91
831.80	225.94
832.11	225.89
832.43	225.90
832.75	225.88
833.06	225.90
833.38	225.87
833.69	225.85
834.01	225.87
834.32	225.84
834.64	225.82
834.96	225.81
835.27	225.79
835.59	225.74
835.90	225.71
836.22	225.71
836.53	225.67
836.85	225.65
837.16	225.79
837.48	225.78
837.79	225.79
838.11	225.77
838.42	225.73
838.74	225.72
839.05	225.71
839.37	225.70
839.68	225.64
840.00	225.64
840.31	225.66
840.63	225.63
840.94	225.62
841.26	225.62
841.57	225.61
841.88	225.62
842.20	225.60
842.51	225.60
842.83	225.59
843.14	225.68
843.46	225.67
843.77	225.56
844.08	225.57
844.40	225.55
844.71	225.56
845.03	225.53
845.34	225.55
845.65	225.53
845.97	225.52
846.28	225.51
846.60	225.53
846.91	225.52
847.22	225.52
847.54	225.53
847.85	225.54
848.16	225.52
848.48	225.50
848.79	225.50
849.10	225.49
849.42	225.47
849.73	225.37
850.04	225.38
850.36	225.32
850.67	225.32
850.98	225.30
851.30	225.32
851.61	225.31
851.92	225.29
852.23	225.31
852.55	225.34
852.86	225.33
853.17	225.34
853.49	225.36
853.80	225.38
854.11	225.38
854.42	225.36
854.74	225.33
855.05	225.34
855.36	225.32
855.67	225.33
855.99	225.35
856.30	225.48
856.61	225.48
856.92	225.51
857.23	225.48
857.55	225.45
857.86	225.42
858.17	225.43
858.48	225.43
858.79	225.37
859.11	225.39
859.42	225.38
859.73	225.36
860.04	225.37
860.35	225.33
860.66	225.30
860.98	225.32
861.29	225.33
861.60	225.31
861.91	225.30
862.22	225.28
862.53	225.26
862.84	225.14
863.16	225.15
863.47	225.10
863.78	225.12
864.09	225.13
864.40	225.15
864.71	225.17
865.02	225.16
865.33	225.18
865.64	225.13
865.95	225.13
866.27	225.20
866.58	225.18
866.89	225.20
867.20	225.23
867.51	225.16
867.82	225.16
868.13	225.20
868.44	225.18
868.75	225.20
869.06	225.18
869.37	225.19
869.68	225.16
869.99	225.21
870.30	225.23
870.61	225.23
870.92	225.18
871.23	225.18
871.54	225.19
871.85	225.23
872.16	225.24
872.47	225.24
872.78	225.16
873.09	225.17
873.40	225.13
873.71	225.14
874.02	225.20
874.33	225.21
874.64	225.17
874.95	225.21
875.26	225.16
875.56	225.17
875.87	225.18
876.18	225.16
876.49	225.29
876.80	225.26
877.11	225.25
877.42	225.28
877.73	225.27
878.04	225.25
878.35	225.21
878.66	225.21
878.96	225.19
879.27	225.20
879.58	225.20
879.89	225.18
880.20	225.19
880.51	225.19
880.82	225.16
881.12	225.18
881.43	225.14
881.74	225.18
882.05	225.16
882.36	225.17
882.67	225.17
882.97	225.03
883.28	224.99
883.59	224.98
883.90	224.98
884.21	224.96
884.51	224.93
884.82	224.93
885.13	224.93
885.44	224.93
885.74	224.92
886.05	224.91
886.36	224.94
886.67	224.91
886.98	224.95
887.28	224.98
887.59	224.98
887.90	224.97
888.20	224.94
888.51	224.98
888.82	224.95
889.13	224.97
889.43	225.04
889.74	225.05
890.05	225.09
890.35	225.05
890.66	225.07
890.97	225.10
891.28	225.09
891.58	225.10
891.89	225.11
892.20	225.08
892.50	225.06
892.81	225.04
893.12	225.03
893.42	224.96
893.73	224.94
894.04	224.90
894.34	224.91
894.65	224.90
894.95	224.88
895.26	224.88
895.57	224.92
895.87	224.85
896.18	224.86
896.48	224.83
896.79	224.86
897.10	224.86
897.40	224.86
897.71	224.86
898.01	224.86
898.32	224.84
898.63	224.87
898.93	224.84
899.24	224.88
899.54	224.89
899.85	224.89
900.15	224.88
900.46	224.91
900.76	224.92
901.07	224.91
901.38	224.91
901.68	224.95
901.99	224.90
902.29	224.89
902.60	224.87
902.90	224.88
903.21	224.89
903.51	224.87
903.82	224.89
904.12	224.91
904.43	224.89
904.73	224.92
905.03	224.88
905.34	225.00
905.64	224.99
905.95	224.98
906.25	225.00
906.56	225.00
906.86	224.98
907.17	224.95
907.47	224.99
907.77	224.95
908.08	224.90
908.38	224.91
908.69	224.88
908.99	224.91
909.30	224.92
909.60	224.88
909.90	224.87
910.21	224.83
910.51	224.83
910.81	224.83
911.12	224.83
911.42	224.87
911.73	224.73
912.03	224.70
912.33	224.72
912.64	224.72
912.94	224.71
913.24	224.73
913.55	224.73
913.85	224.71
914.15	224.75
914.46	224.77
914.76	224.76
915.06	224.76
915.37	224.75
915.67	224.72
915.97	224.75
916.27	224.76
916.58	224.78
916.88	224.72
917.18	224.72
917.49	224.81
917.79	224.81
918.09	224.82
918.39	224.83
918.70	224.80
919.00	224.79
919.30	224.85
919.60	224.80
919.91	224.83
920.21	224.84
920.51	224.81
920.81	224.80
921.12	224.77
921.42	224.79
921.72	224.77
922.02	224.79
922.32	224.81
922.63	224.80
922.93	224.84
923.23	224.87
923.53	224.88
923.83	224.79
924.13	224.80
924.44	224.79
924.74	224.83
925.04	224.88
925.34	224.89
925.64	224.82
925.94	224.86
926.24	224.89
926.55	224.87
926.85	224.91
927.15	224.90
927.45	224.92
927.75	224.92
928.05	224.94
928.35	224.90
928.65	224.93
928.95	224.89
929.26	224.83
929.56	224.85
929.86	224.85
930.16	224.83
930.46	224.79
930.76	224.81
931.06	224.76
931.36	224.68
931.66	224.66
931.96	224.67
932.26	224.65
932.56	224.62
932.86	224.59
933.16	224.56
933.46	224.55
933.76	224.51
934.06	224.55
934.36	224.56
934.66	224.58
934.96	224.54
935.26	224.55
935.56	224.56
935.86	224.56
936.16	224.53
936.46	224.53
936.76	224.54
937.06	224.50
937.36	224.50
937.66	224.56
937.96	224.56
938.26	224.55
938.56	224.53
938.86	224.52
939.16	224.57
939.46	224.57
939.76	224.57
940.06	224.59
940.35	224.55
940.65	224.52
940.95	224.51
941.25	224.47
941.55	224.48
941.85	224.50
942.15	224.48
942.45	224.49
942.75	224.48
943.04	224.47
943.34	224.51
943.64	224.51
943.94	224.47
944.24	224.47
944.54	224.48
944.84	224.48
945.13	224.50
945.43	224.46
945.73	224.46
946.03	224.45
946.33	224.46
946.62	224.44
946.92	224.45
947.22	224.45
947.52	224.47
947.82	224.48
948.11	224.47
948.41	224.47
948.71	224.46
949.01	224.47
949.31	224.45
949.60	224.43
949.90	224.42
950.20	224.42
950.50	224.44
950.79	224.43
951.09	224.44
951.39	224.41
951.69	224.44
951.98	224.48
952.28	224.49
952.58	224.50
952.87	224.52
953.17	224.53
953.47	224.55
953.76	224.56
954.06	224.52
954.36	224.52
954.66	224.50
954.95	224.52
955.25	224.55
955.55	224.60
955.84	224.61
956.14	224.65
956.44	224.67
956.73	224.67
957.03	224.68
957.32	224.69
957.62	224.68
957.92	224.68
958.21	224.68
958.51	224.78
958.81	224.77
959.10	224.77
959.40	224.79
959.69	224.80
959.99	224.82
960.29	224.83
960.58	224.80
960.88	224.83
961.17	224.83
961.47	224.83
961.76	224.78
962.06	224.79
962.36	224.76
962.65	224.77
962.95	224.74
963.24	224.78
963.54	224.79
963.83	224.81
964.13	224.81
964.42	224.75
964.72	224.68
965.01	224.67
965.31	224.66
965.60	224.62
965.90	224.65
966.19	224.62
966.49	224.63
966.78	224.65
967.08	224.67
967.37	224.65
967.67	224.63
967.96	224.66
968.26	224.65
968.55	224.67
968.85	224.64
969.14	224.66
969.43	224.61
969.73	224.59
970.02	224.58
970.32	224.52
970.61	224.55
970.91	224.50
971.20	224.53
971.49	224.53
971.79	224.57
972.08	224.52
972.38	224.52
972.67	224.53
972.96	224.52
973.26	224.51
973.55	224.54
973.85	224.54
974.14	224.52
974.43	224.52
974.73	224.50
975.02	224.52
975.31	224.50
975.61	224.48
975.90	224.45
976.19	224.47
976.49	224.49
976.78	224.48
977.07	224.49
977.37	224.46
977.66	224.47
977.95	224.45
978.24	224.43
978.54	224.42
978.83	224.40
979.12	224.39
979.42	224.40
979.71	224.39
980.00	224.37
980.29	224.40
980.59	224.37
980.88	224.38
981.17	224.37
981.46	224.38
981.76	224.39
982.05	224.44
982.34	224.41
982.63	224.42
982.93	224.42
983.22	224.44
983.51	224.45
983.80	224.46
984.09	224.43
984.39	224.43
984.68	224.45
984.97	224.44
985.26	224.45
985.55	224.42
985.85	224.40
986.14	224.43
986.43	224.43
986.72	224.43
987.01	224.40
987.30	224.37
987.59	224.36
987.89	224.36
988.18	224.34
988.47	224.36
988.76	224.34
989.05	224.35
989.34	224.29
989.63	224.35
989.92	224.33
990.22	224.35
990.51	224.33
990.80	224.33
991.09	224.37
991.38	224.39
991.67	224.40
991.96	224.43
992.25	224.43
992.54	224.40
992.83	224.41
993.12	224.44
993.41	224.49
993.70	224.54
993.99	224.58
994.28	224.60
994.58	224.62
994.87	224.61
995.16	224.59
995.45	224.63
995.74	224.59
996.03	224.64
996.32	224.66
996.61	224.68
996.90	224.68
997.19	224.67
997.48	224.69
997.77	224.66
998.06	224.64
998.34	224.65
998.63	224.67
998.92	224.67
999.21	224.67
999.50	224.67
999.79	224.65
1000.08	224.63
1000.37	224.63
1000.66	224.58
1000.95	224.62
1001.24	224.63
1001.53	224.66
1001.82	224.66
1002.11	224.60
1002.40	224.61
1002.68	224.64
1002.97	224.70
1003.26	224.71
1003.55	224.66
1003.84	224.68
1004.13	224.73
1004.42	224.70
1004.71	224.70
1004.99	224.69
1005.28	224.72
1005.57	224.75
1005.86	224.73
1006.15	224.72
1006.44	224.69
1006.72	224.73
1007.01	224.67
1007.30	224.68
1007.59	224.67
1007.88	224.67
1008.17	224.66
1008.45	224.64
1008.74	224.58
1009.03	224.55
1009.32	224.52
1009.60	224.51
1009.89	224.48
1010.18	224.44
1010.47	224.44
1010.76	224.40
1011.04	224.37
1011.33	224.39
1011.62	224.36
1011.91	224.38
1012.19	224.35
1012.48	224.34
1012.77	224.34
1013.05	224.42
1013.34	224.38
1013.63	224.36
1013.92	224.34
1014.20	224.36
1014.49	224.34
1014.78	224.36
1015.06	224.30
1015.35	224.27
1015.64	224.29
1015.92	224.32
1016.21	224.33
1016.50	224.29
1016.78	224.30
1017.07	224.32
1017.36	224.27
1017.64	224.23
1017.93	224.20
1018.22	224.22
1018.50	224.20
1018.79	224.19
1019.08	224.13
1019.36	224.15
1019.65	224.12
1019.93	224.15
1020.22	224.14
1020.51	224.18
1020.79	224.16
1021.08	223.70
1021.36	223.88
1021.65	224.11
1021.94	224.23
1022.22	224.15
1022.51	223.97
1022.79	224.65
1023.08	224.36
1023.36	225.07
1023.65	223.73
>>>>>End Processed Spectral Data<<<<<
