SpectraSuite Data File
++++++++++++++++++++++++++++++++++++
Date: Fri Feb 01 16:11:26 EST 2013
User: group
Dark Spectrum Present: No
Reference Spectrum Present: No
Number of Sampled Component Spectra: 1
Spectrometers: USB2E7196
Integration Time (usec): 35000 (USB2E7196)
Spectra Averaged: 100 (USB2E7196)
Boxcar Smoothing: 10 (USB2E7196)
Correct for Electrical Dark: No (USB2E7196)
Strobe/Lamp Enabled: No (USB2E7196)
Correct for Detector Non-linearity: No (USB2E7196)
Correct for Stray Light: No (USB2E7196)
Number of Pixels in Processed Spectrum: 2048
>>>>>Begin Processed Spectral Data<<<<<
339.09	0.00
339.48	214.43
339.86	215.77
340.24	217.14
340.63	218.61
341.01	221.85
341.39	221.82
341.78	222.16
342.16	224.09
342.54	224.23
342.93	212.69
343.31	223.45
343.69	223.98
344.07	224.45
344.46	224.87
344.84	225.27
345.22	225.48
345.60	225.69
345.99	225.90
346.37	226.05
346.75	226.15
347.13	226.25
347.52	226.33
347.90	226.43
348.28	226.51
348.66	226.56
349.05	226.55
349.43	226.62
349.81	226.66
350.19	226.73
350.57	226.80
350.96	226.91
351.34	227.00
351.72	227.12
352.10	227.20
352.48	227.33
352.87	227.38
353.25	227.49
353.63	227.57
354.01	227.64
354.39	227.71
354.77	227.79
355.15	227.92
355.54	228.01
355.92	228.04
356.30	228.12
356.68	228.25
357.06	228.35
357.44	228.42
357.82	228.51
358.20	228.59
358.58	228.65
358.97	228.70
359.35	228.78
359.73	228.84
360.11	228.94
360.49	228.97
360.87	229.05
361.25	229.10
361.63	229.19
362.01	229.27
362.39	229.29
362.77	229.35
363.15	229.36
363.53	229.36
363.91	229.38
364.29	229.37
364.67	229.30
365.05	229.33
365.43	229.34
365.81	229.33
366.19	229.40
366.57	229.45
366.95	229.45
367.33	229.39
367.71	229.39
368.09	229.37
368.47	229.38
368.85	229.34
369.23	229.33
369.61	229.27
369.99	229.27
370.37	229.26
370.75	229.29
371.13	229.21
371.51	229.17
371.89	229.14
372.27	229.12
372.65	229.06
373.03	228.98
373.41	228.90
373.78	228.85
374.16	228.72
374.54	228.63
374.92	228.52
375.30	228.48
375.68	228.40
376.06	228.31
376.44	228.21
376.82	228.13
377.19	228.06
377.57	227.97
377.95	227.84
378.33	227.76
378.71	227.64
379.09	227.58
379.47	227.52
379.84	227.45
380.22	227.34
380.60	227.25
380.98	227.19
381.36	227.11
381.73	227.02
382.11	226.97
382.49	226.89
382.87	226.85
383.25	226.78
383.62	226.83
384.00	226.74
384.38	226.68
384.76	226.62
385.13	226.60
385.51	226.52
385.89	226.45
386.27	226.36
386.64	226.29
387.02	226.23
387.40	226.18
387.78	226.11
388.15	226.07
388.53	226.04
388.91	226.00
389.29	225.99
389.66	225.99
390.04	225.92
390.42	225.89
390.79	225.84
391.17	225.83
391.55	225.70
391.92	225.69
392.30	225.68
392.68	225.66
393.05	225.62
393.43	225.66
393.81	225.69
394.18	225.70
394.56	225.74
394.94	225.77
395.31	225.79
395.69	225.89
396.06	225.93
396.44	225.99
396.82	226.01
397.19	226.05
397.57	226.05
397.95	226.11
398.32	226.15
398.70	226.22
399.07	226.31
399.45	226.38
399.82	226.42
400.20	226.47
400.58	226.59
400.95	226.61
401.33	226.72
401.70	226.85
402.08	226.92
402.45	227.01
402.83	227.14
403.20	227.23
403.58	227.31
403.95	227.43
404.33	227.53
404.71	227.68
405.08	227.87
405.46	228.01
405.83	228.20
406.21	228.37
406.58	228.55
406.96	228.70
407.33	228.90
407.70	229.12
408.08	229.41
408.45	229.60
408.83	229.87
409.20	230.07
409.58	230.28
409.95	230.55
410.33	230.85
410.70	231.11
411.08	231.41
411.45	231.72
411.82	232.01
412.20	232.42
412.57	232.84
412.95	233.16
413.32	233.61
413.69	233.97
414.07	234.42
414.44	234.89
414.82	235.34
415.19	235.88
415.56	236.42
415.94	236.94
416.31	237.54
416.68	238.21
417.06	238.93
417.43	239.64
417.81	240.41
418.18	241.17
418.55	241.97
418.93	242.84
419.30	243.69
419.67	244.70
420.04	245.62
420.42	246.58
420.79	247.75
421.16	248.86
421.54	250.05
421.91	251.24
422.28	252.49
422.66	253.83
423.03	255.14
423.40	256.46
423.77	257.89
424.15	259.32
424.52	260.78
424.89	262.35
425.26	263.88
425.64	265.33
426.01	266.91
426.38	268.59
426.75	270.27
427.13	272.01
427.50	273.74
427.87	275.60
428.24	277.46
428.61	279.19
428.99	281.14
429.36	283.21
429.73	285.30
430.10	287.30
430.47	289.36
430.85	291.48
431.22	293.70
431.59	296.06
431.96	298.32
432.33	300.75
432.70	303.16
433.08	305.94
433.45	308.52
433.82	311.09
434.19	313.94
434.56	316.73
434.93	319.36
435.30	322.01
435.68	324.92
436.05	327.72
436.42	330.48
436.79	333.00
437.16	335.70
437.53	338.50
437.90	341.32
438.27	344.02
438.64	346.77
439.01	349.36
439.38	351.58
439.75	353.73
440.13	356.26
440.50	358.57
440.87	360.41
441.24	362.39
441.61	364.59
441.98	366.04
442.35	367.80
442.72	369.63
443.09	371.40
443.46	372.38
443.83	372.93
444.20	373.45
444.57	374.24
444.94	374.52
445.31	374.83
445.68	375.14
446.05	375.27
446.42	374.90
446.79	374.47
447.16	374.04
447.53	373.72
447.90	372.52
448.27	371.34
448.64	369.79
449.01	368.64
449.37	366.66
449.74	364.81
450.11	362.64
450.48	360.21
450.85	357.69
451.22	355.53
451.59	353.61
451.96	351.69
452.33	349.11
452.70	346.79
453.07	343.99
453.43	341.17
453.80	338.43
454.17	335.81
454.54	333.30
454.91	330.57
455.28	327.90
455.65	325.44
456.02	322.99
456.38	320.82
456.75	318.17
457.12	315.93
457.49	313.72
457.86	311.53
458.23	309.71
458.59	307.66
458.96	305.62
459.33	303.73
459.70	301.88
460.07	300.40
460.43	298.69
460.80	297.05
461.17	295.63
461.54	294.09
461.91	292.69
462.27	291.27
462.64	290.04
463.01	288.70
463.38	287.43
463.74	286.11
464.11	284.95
464.48	283.93
464.85	282.82
465.21	281.94
465.58	281.03
465.95	279.91
466.32	279.06
466.68	278.14
467.05	277.24
467.42	276.35
467.78	275.45
468.15	274.56
468.52	273.92
468.88	273.03
469.25	272.26
469.62	271.60
469.98	270.93
470.35	270.33
470.72	269.74
471.08	269.08
471.45	268.55
471.82	268.01
472.18	267.40
472.55	266.98
472.92	266.46
473.28	265.99
473.65	265.55
474.02	265.06
474.38	264.70
474.75	264.39
475.11	264.03
475.48	263.73
475.85	263.50
476.21	263.27
476.58	263.09
476.94	262.94
477.31	262.78
477.67	262.62
478.04	262.48
478.41	262.44
478.77	262.50
479.14	262.43
479.50	262.43
479.87	262.53
480.23	262.64
480.60	262.71
480.96	262.81
481.33	263.04
481.69	263.24
482.06	263.42
482.42	263.63
482.79	263.91
483.15	264.21
483.52	264.57
483.88	264.92
484.25	265.30
484.61	265.73
484.98	266.17
485.34	266.74
485.71	267.30
486.07	267.89
486.44	268.43
486.80	269.13
487.17	269.86
487.53	270.68
487.90	271.52
488.26	272.49
488.62	273.45
488.99	274.38
489.35	275.42
489.72	276.55
490.08	277.71
490.44	278.98
490.81	280.37
491.17	281.74
491.54	283.27
491.90	284.81
492.26	286.48
492.63	288.22
492.99	290.01
493.36	291.91
493.72	293.97
494.08	296.09
494.45	298.33
494.81	300.72
495.17	303.14
495.54	305.71
495.90	308.39
496.26	311.27
496.63	314.27
496.99	317.43
497.35	320.73
497.72	324.18
498.08	327.66
498.44	331.32
498.80	335.29
499.17	339.37
499.53	343.58
499.89	347.97
500.26	352.49
500.62	357.18
500.98	362.17
501.34	367.24
501.71	372.54
502.07	378.01
502.43	383.64
502.79	389.51
503.16	395.62
503.52	401.90
503.88	408.30
504.24	414.97
504.60	421.90
504.97	429.04
505.33	436.36
505.69	444.12
506.05	451.94
506.41	459.77
506.78	467.87
507.14	476.29
507.50	485.04
507.86	494.15
508.22	503.34
508.59	512.54
508.95	522.15
509.31	531.99
509.67	542.13
510.03	552.42
510.39	562.94
510.75	573.73
511.12	584.70
511.48	595.98
511.84	607.41
512.20	618.90
512.56	630.84
512.92	643.06
513.28	655.33
513.64	667.79
514.00	680.56
514.37	693.51
514.73	706.65
515.09	719.63
515.45	732.81
515.81	746.36
516.17	760.37
516.53	774.47
516.89	788.70
517.25	802.86
517.61	817.28
517.97	831.74
518.33	846.16
518.69	860.90
519.05	875.82
519.41	891.04
519.77	906.47
520.13	921.91
520.49	937.25
520.85	952.63
521.21	968.32
521.57	984.54
521.93	1000.28
522.29	1016.56
522.65	1032.74
523.01	1049.00
523.37	1065.06
523.73	1081.15
524.09	1097.16
524.45	1113.39
524.81	1130.09
525.17	1146.86
525.53	1163.76
525.89	1180.58
526.25	1197.31
526.61	1213.69
526.97	1230.27
527.33	1246.67
527.68	1263.15
528.04	1279.64
528.40	1296.21
528.76	1313.15
529.12	1329.66
529.48	1346.53
529.84	1362.44
530.20	1379.09
530.56	1395.97
530.91	1413.38
531.27	1430.06
531.63	1446.49
531.99	1462.97
532.35	1478.78
532.71	1494.55
533.07	1510.80
533.42	1526.65
533.78	1542.70
534.14	1558.97
534.50	1574.30
534.86	1590.16
535.21	1605.24
535.57	1621.05
535.93	1636.51
536.29	1651.39
536.65	1666.36
537.00	1680.98
537.36	1696.27
537.72	1710.72
538.08	1725.10
538.44	1738.70
538.79	1752.48
539.15	1766.02
539.51	1779.61
539.87	1793.90
540.22	1807.62
540.58	1821.07
540.94	1834.33
541.29	1847.09
541.65	1859.62
542.01	1872.74
542.37	1884.99
542.72	1897.52
543.08	1909.21
543.44	1921.47
543.79	1932.50
544.15	1943.47
544.51	1955.04
544.87	1965.92
545.22	1976.60
545.58	1986.81
545.94	1996.56
546.29	2006.42
546.65	2016.40
547.01	2025.72
547.36	2034.41
547.72	2042.86
548.07	2050.82
548.43	2058.89
548.79	2066.75
549.14	2074.27
549.50	2081.56
549.86	2089.25
550.21	2096.46
550.57	2103.61
550.92	2110.25
551.28	2117.42
551.64	2124.46
551.99	2130.96
552.35	2137.19
552.70	2143.37
553.06	2149.30
553.41	2155.57
553.77	2161.50
554.13	2167.50
554.48	2173.50
554.84	2179.04
555.19	2184.16
555.55	2189.39
555.90	2193.97
556.26	2198.98
556.61	2203.82
556.97	2208.23
557.32	2212.28
557.68	2216.38
558.03	2220.69
558.39	2224.28
558.74	2228.90
559.10	2232.79
559.45	2236.46
559.81	2240.71
560.16	2244.69
560.52	2247.88
560.87	2251.19
561.23	2254.03
561.58	2256.98
561.94	2259.50
562.29	2261.77
562.64	2264.63
563.00	2267.06
563.35	2270.61
563.71	2273.72
564.06	2276.80
564.42	2279.71
564.77	2282.49
565.12	2284.93
565.48	2286.87
565.83	2288.82
566.19	2290.16
566.54	2291.00
566.89	2292.12
567.25	2292.80
567.60	2294.00
567.96	2295.84
568.31	2296.80
568.66	2297.90
569.02	2298.52
569.37	2299.04
569.72	2300.00
570.08	2300.09
570.43	2300.21
570.78	2299.57
571.14	2298.03
571.49	2296.64
571.84	2296.14
572.20	2294.88
572.55	2293.61
572.90	2291.93
573.26	2290.54
573.61	2288.66
573.96	2287.03
574.31	2284.08
574.67	2281.13
575.02	2277.55
575.37	2274.15
575.72	2270.45
576.08	2266.94
576.43	2263.59
576.78	2259.83
577.13	2256.57
577.49	2253.48
577.84	2250.09
578.19	2246.23
578.54	2242.70
578.90	2238.61
579.25	2233.14
579.60	2228.15
579.95	2223.27
580.30	2218.43
580.66	2213.28
581.01	2208.58
581.36	2203.57
581.71	2199.53
582.06	2195.03
582.42	2190.52
582.77	2185.22
583.12	2180.87
583.47	2176.38
583.82	2171.42
584.17	2166.23
584.53	2160.81
584.88	2155.30
585.23	2149.64
585.58	2144.18
585.93	2138.67
586.28	2133.98
586.63	2129.03
586.98	2124.07
587.34	2119.37
587.69	2114.49
588.04	2109.31
588.39	2103.56
588.74	2097.12
589.09	2090.86
589.44	2084.09
589.79	2078.00
590.14	2072.53
590.49	2065.75
590.84	2059.29
591.19	2053.35
591.54	2047.04
591.89	2039.70
592.25	2032.88
592.60	2025.56
592.95	2018.12
593.30	2010.88
593.65	2003.23
594.00	1996.12
594.35	1988.89
594.70	1980.85
595.05	1973.73
595.40	1966.56
595.75	1959.13
596.10	1953.10
596.45	1946.42
596.80	1940.36
597.15	1933.95
597.50	1926.86
597.85	1920.52
598.19	1914.09
598.54	1906.87
598.89	1900.09
599.24	1894.19
599.59	1887.50
599.94	1881.37
600.29	1874.97
600.64	1868.38
600.99	1861.04
601.34	1854.27
601.69	1847.26
602.04	1840.58
602.39	1833.12
602.74	1826.27
603.08	1819.59
603.43	1812.74
603.78	1805.46
604.13	1798.26
604.48	1791.00
604.83	1784.05
605.18	1777.03
605.53	1768.94
605.87	1760.99
606.22	1753.83
606.57	1745.88
606.92	1738.59
607.27	1731.46
607.62	1724.62
607.96	1717.34
608.31	1710.80
608.66	1703.14
609.01	1695.75
609.36	1688.19
609.70	1680.18
610.05	1672.11
610.40	1664.32
610.75	1655.94
611.10	1648.33
611.44	1639.79
611.79	1631.63
612.14	1623.13
612.49	1613.93
612.83	1605.62
613.18	1597.46
613.53	1589.39
613.88	1580.85
614.22	1572.59
614.57	1563.93
614.92	1556.02
615.27	1548.59
615.61	1540.19
615.96	1532.24
616.31	1524.45
616.65	1516.92
617.00	1509.47
617.35	1501.88
617.70	1493.53
618.04	1485.06
618.39	1476.76
618.74	1469.16
619.08	1461.02
619.43	1453.41
619.78	1446.53
620.12	1439.34
620.47	1431.89
620.82	1423.67
621.16	1416.20
621.51	1408.61
621.85	1400.94
622.20	1392.33
622.55	1383.88
622.89	1376.01
623.24	1368.26
623.59	1360.89
623.93	1353.41
624.28	1346.13
624.62	1338.55
624.97	1331.42
625.32	1324.71
625.66	1317.75
626.01	1310.67
626.35	1303.17
626.70	1295.26
627.04	1287.57
627.39	1279.64
627.73	1272.28
628.08	1265.34
628.43	1258.20
628.77	1250.73
629.12	1243.18
629.46	1236.05
629.81	1228.53
630.15	1221.28
630.50	1213.93
630.84	1205.74
631.19	1197.78
631.53	1190.29
631.88	1182.68
632.22	1175.06
632.57	1167.66
632.91	1160.07
633.26	1152.63
633.60	1145.15
633.95	1138.05
634.29	1131.02
634.64	1124.46
634.98	1117.10
635.32	1109.95
635.67	1103.22
636.01	1096.55
636.36	1089.80
636.70	1083.25
637.05	1076.82
637.39	1070.42
637.73	1063.98
638.08	1058.09
638.42	1052.08
638.77	1045.68
639.11	1039.13
639.45	1032.78
639.80	1026.12
640.14	1019.70
640.49	1013.21
640.83	1007.07
641.17	1000.89
641.52	994.56
641.86	987.99
642.20	982.10
642.55	975.78
642.89	969.29
643.23	962.74
643.58	957.02
643.92	950.80
644.26	944.71
644.61	938.58
644.95	932.59
645.29	926.10
645.64	919.41
645.98	913.01
646.32	907.07
646.66	900.99
647.01	895.28
647.35	889.63
647.69	883.73
648.04	878.06
648.38	872.34
648.72	866.35
649.06	860.37
649.41	854.52
649.75	848.63
650.09	842.78
650.43	837.03
650.78	830.80
651.12	824.92
651.46	819.19
651.80	813.53
652.14	808.09
652.49	802.60
652.83	797.38
653.17	791.73
653.51	785.99
653.85	780.62
654.20	774.97
654.54	768.88
654.88	763.18
655.22	757.30
655.56	751.51
655.90	746.03
656.25	740.83
656.59	735.36
656.93	730.18
657.27	725.01
657.61	719.61
657.95	714.48
658.29	709.38
658.64	704.08
658.98	698.75
659.32	693.27
659.66	688.16
660.00	682.86
660.34	677.88
660.68	673.06
661.02	668.04
661.36	663.33
661.70	658.82
662.05	654.48
662.39	650.19
662.73	645.75
663.07	641.41
663.41	636.90
663.75	632.47
664.09	627.92
664.43	623.48
664.77	619.31
665.11	615.11
665.45	610.96
665.79	606.94
666.13	602.76
666.47	598.69
666.81	594.41
667.15	590.35
667.49	586.44
667.83	582.54
668.17	578.59
668.51	574.49
668.85	570.54
669.19	566.66
669.53	562.81
669.87	558.98
670.21	555.30
670.55	551.70
670.89	548.29
671.23	544.90
671.57	541.38
671.91	537.86
672.25	534.29
672.58	530.80
672.92	527.34
673.26	524.18
673.60	521.02
673.94	517.99
674.28	515.06
674.62	512.08
674.96	509.05
675.30	506.14
675.64	503.27
675.97	500.44
676.31	497.56
676.65	494.64
676.99	491.89
677.33	488.97
677.67	486.17
678.01	483.13
678.34	480.13
678.68	477.28
679.02	474.46
679.36	471.75
679.70	469.02
680.04	466.31
680.37	463.50
680.71	460.68
681.05	458.02
681.39	455.30
681.73	452.67
682.06	450.14
682.40	447.58
682.74	444.95
683.08	442.38
683.42	439.84
683.75	437.37
684.09	434.81
684.43	432.29
684.77	429.74
685.10	427.34
685.44	425.02
685.78	422.74
686.12	420.52
686.45	418.20
686.79	415.90
687.13	413.68
687.46	411.49
687.80	409.32
688.14	407.09
688.48	405.00
688.81	402.80
689.15	400.59
689.49	398.44
689.82	396.41
690.16	394.37
690.50	392.37
690.83	390.41
691.17	388.41
691.51	386.57
691.84	384.79
692.18	382.85
692.52	380.94
692.85	378.96
693.19	377.07
693.52	375.25
693.86	373.38
694.20	371.62
694.53	369.81
694.87	368.00
695.21	366.18
695.54	364.37
695.88	362.64
696.21	360.94
696.55	359.24
696.88	357.54
697.22	355.84
697.56	354.19
697.89	352.49
698.23	350.88
698.56	349.24
698.90	347.63
699.23	346.01
699.57	344.45
699.90	342.93
700.24	341.36
700.58	339.83
700.91	338.36
701.25	336.90
701.58	335.47
701.92	334.14
702.25	332.80
702.59	331.44
702.92	330.06
703.26	328.72
703.59	327.46
703.93	326.27
704.26	325.04
704.60	323.74
704.93	322.47
705.26	321.20
705.60	319.99
705.93	318.83
706.27	317.79
706.60	316.71
706.94	315.61
707.27	314.48
707.61	313.35
707.94	312.36
708.27	311.27
708.61	310.19
708.94	309.14
709.28	308.17
709.61	307.21
709.94	306.28
710.28	305.30
710.61	304.28
710.95	303.19
711.28	302.26
711.61	301.33
711.95	300.43
712.28	299.52
712.61	298.56
712.95	297.62
713.28	296.74
713.61	295.84
713.95	294.96
714.28	294.12
714.61	293.30
714.95	292.42
715.28	291.60
715.61	290.74
715.95	289.87
716.28	289.00
716.61	288.14
716.95	287.32
717.28	286.60
717.61	285.88
717.94	285.18
718.28	284.38
718.61	283.68
718.94	283.01
719.27	282.32
719.61	281.71
719.94	281.06
720.27	280.35
720.60	279.68
720.94	279.06
721.27	278.46
721.60	277.88
721.93	277.29
722.27	276.70
722.60	276.19
722.93	275.65
723.26	275.15
723.59	274.60
723.93	274.06
724.26	273.51
724.59	272.94
724.92	272.40
725.25	271.90
725.59	271.35
725.92	270.85
726.25	270.37
726.58	269.83
726.91	269.35
727.24	268.90
727.57	268.45
727.91	267.93
728.24	267.49
728.57	267.03
728.90	266.58
729.23	266.12
729.56	265.68
729.89	265.20
730.22	264.67
730.55	264.21
730.89	263.78
731.22	263.35
731.55	262.93
731.88	262.52
732.21	262.09
732.54	261.68
732.87	261.23
733.20	260.85
733.53	260.47
733.86	260.08
734.19	259.67
734.52	259.29
734.85	259.01
735.18	258.59
735.51	258.22
735.84	257.84
736.17	257.48
736.50	257.11
736.83	256.85
737.16	256.54
737.49	256.21
737.82	255.87
738.15	255.50
738.48	255.15
738.81	254.81
739.14	254.47
739.47	254.18
739.80	253.86
740.13	253.53
740.46	253.19
740.79	252.84
741.12	252.54
741.45	252.23
741.78	251.84
742.11	251.55
742.44	251.21
742.77	250.94
743.10	250.63
743.43	250.28
743.75	249.90
744.08	249.73
744.41	249.41
744.74	249.11
745.07	248.83
745.40	248.57
745.73	248.32
746.06	248.06
746.39	247.77
746.71	247.48
747.04	247.18
747.37	246.96
747.70	246.71
748.03	246.45
748.36	246.23
748.68	246.05
749.01	245.80
749.34	245.57
749.67	245.32
750.00	245.07
750.33	244.90
750.65	244.70
750.98	244.34
751.31	244.14
751.64	243.96
751.97	243.79
752.29	243.56
752.62	243.31
752.95	243.08
753.28	242.85
753.60	242.64
753.93	242.46
754.26	242.23
754.59	242.02
754.91	241.84
755.24	241.60
755.57	241.39
755.90	241.18
756.22	241.01
756.55	240.79
756.88	240.64
757.20	240.44
757.53	240.20
757.86	240.06
758.19	239.90
758.51	239.71
758.84	239.49
759.17	239.31
759.49	239.15
759.82	239.07
760.15	238.94
760.47	238.82
760.80	238.65
761.13	238.53
761.45	238.37
761.78	238.18
762.11	238.04
762.43	237.85
762.76	237.74
763.08	237.60
763.41	237.49
763.74	237.34
764.06	237.22
764.39	237.10
764.71	236.99
765.04	236.82
765.37	236.72
765.69	236.59
766.02	236.48
766.34	236.35
766.67	236.19
767.00	236.09
767.32	236.04
767.65	235.98
767.97	235.88
768.30	235.77
768.62	235.67
768.95	235.60
769.27	235.55
769.60	235.44
769.92	235.32
770.25	235.21
770.57	235.09
770.90	234.97
771.22	234.90
771.55	234.79
771.87	234.73
772.20	234.59
772.52	234.59
772.85	234.64
773.17	234.58
773.50	234.46
773.82	234.33
774.15	234.20
774.47	234.08
774.80	233.99
775.12	233.93
775.45	233.88
775.77	233.79
776.09	233.69
776.42	233.61
776.74	233.56
777.07	233.49
777.39	233.42
777.72	233.33
778.04	233.25
778.36	233.15
778.69	233.12
779.01	233.11
779.33	232.97
779.66	232.77
779.98	232.70
780.31	232.62
780.63	232.63
780.95	232.56
781.28	232.52
781.60	232.45
781.92	232.37
782.25	232.28
782.57	232.22
782.89	232.17
783.22	232.12
783.54	232.04
783.86	231.99
784.19	231.96
784.51	231.96
784.83	231.87
785.16	231.79
785.48	231.70
785.80	231.65
786.12	231.56
786.45	231.50
786.77	231.46
787.09	231.42
787.42	231.35
787.74	231.27
788.06	231.21
788.38	231.15
788.71	231.13
789.03	231.10
789.35	231.04
789.67	230.96
789.99	230.91
790.32	230.88
790.64	230.82
790.96	230.83
791.28	230.75
791.61	230.74
791.93	230.73
792.25	230.69
792.57	230.72
792.89	230.68
793.21	230.66
793.54	230.59
793.86	230.56
794.18	230.53
794.50	230.50
794.82	230.47
795.14	230.44
795.47	230.40
795.79	230.35
796.11	230.33
796.43	230.32
796.75	230.31
797.07	230.28
797.39	230.27
797.71	230.18
798.04	230.13
798.36	230.08
798.68	230.03
799.00	230.01
799.32	229.92
799.64	229.91
799.96	229.87
800.28	229.84
800.60	229.79
800.92	229.76
801.24	229.75
801.56	229.70
801.89	229.64
802.21	229.61
802.53	229.56
802.85	229.54
803.17	229.51
803.49	229.47
803.81	229.45
804.13	229.41
804.45	229.36
804.77	229.37
805.09	229.37
805.41	229.33
805.73	229.29
806.05	229.23
806.37	229.23
806.69	229.22
807.01	229.22
807.33	229.21
807.65	229.13
807.97	229.15
808.28	229.16
808.60	229.15
808.92	229.12
809.24	229.17
809.56	229.13
809.88	229.11
810.20	229.06
810.52	229.03
810.84	229.01
811.16	228.97
811.48	228.91
811.80	228.90
812.12	228.88
812.43	228.91
812.75	228.87
813.07	228.84
813.39	228.82
813.71	228.75
814.03	228.71
814.35	228.71
814.67	228.64
814.98	228.60
815.30	228.59
815.62	228.56
815.94	228.45
816.26	228.46
816.58	228.40
816.89	228.39
817.21	228.33
817.53	228.32
817.85	228.30
818.17	228.30
818.48	228.28
818.80	228.31
819.12	228.27
819.44	228.27
819.76	228.21
820.07	228.18
820.39	228.20
820.71	228.22
821.03	228.22
821.34	228.20
821.66	228.19
821.98	228.19
822.30	228.18
822.61	228.26
822.93	228.19
823.25	228.18
823.57	228.18
823.88	228.18
824.20	228.13
824.52	228.12
824.83	228.10
825.15	228.06
825.47	228.04
825.79	228.01
826.10	228.01
826.42	228.02
826.74	228.01
827.05	227.96
827.37	227.95
827.69	227.96
828.00	227.95
828.32	227.98
828.64	227.99
828.95	228.05
829.27	227.98
829.58	228.00
829.90	228.02
830.22	228.03
830.53	228.03
830.85	228.02
831.17	228.02
831.48	228.01
831.80	227.99
832.11	227.96
832.43	227.94
832.75	227.90
833.06	227.97
833.38	227.93
833.69	227.92
834.01	227.88
834.32	227.83
834.64	227.81
834.96	227.79
835.27	227.73
835.59	227.65
835.90	227.63
836.22	227.59
836.53	227.56
836.85	227.56
837.16	227.65
837.48	227.65
837.79	227.65
838.11	227.66
838.42	227.68
838.74	227.69
839.05	227.70
839.37	227.67
839.68	227.57
840.00	227.59
840.31	227.60
840.63	227.61
840.94	227.61
841.26	227.57
841.57	227.53
841.88	227.53
842.20	227.52
842.51	227.51
842.83	227.52
843.14	227.58
843.46	227.59
843.77	227.53
844.08	227.49
844.40	227.46
844.71	227.44
845.03	227.40
845.34	227.36
845.65	227.34
845.97	227.32
846.28	227.30
846.60	227.29
846.91	227.24
847.22	227.18
847.54	227.18
847.85	227.17
848.16	227.14
848.48	227.10
848.79	227.14
849.10	227.16
849.42	227.14
849.73	227.02
850.04	226.97
850.36	226.93
850.67	226.97
850.98	226.98
851.30	226.93
851.61	226.91
851.92	226.94
852.23	226.99
852.55	227.05
852.86	227.07
853.17	227.09
853.49	227.14
853.80	227.17
854.11	227.20
854.42	227.20
854.74	227.21
855.05	227.23
855.36	227.18
855.67	227.15
855.99	227.15
856.30	227.28
856.61	227.32
856.92	227.30
857.23	227.25
857.55	227.24
857.86	227.31
858.17	227.33
858.48	227.29
858.79	227.23
859.11	227.22
859.42	227.22
859.73	227.19
860.04	227.17
860.35	227.16
860.66	227.12
860.98	227.14
861.29	227.16
861.60	227.14
861.91	227.15
862.22	227.12
862.53	227.10
862.84	227.00
863.16	226.98
863.47	227.00
863.78	226.99
864.09	226.96
864.40	226.92
864.71	226.95
865.02	227.00
865.33	227.01
865.64	226.99
865.95	226.97
866.27	227.03
866.58	227.03
866.89	227.05
867.20	227.05
867.51	227.04
867.82	227.00
868.13	227.04
868.44	227.02
868.75	227.06
869.06	227.04
869.37	227.05
869.68	227.02
869.99	227.05
870.30	227.09
870.61	227.11
870.92	227.08
871.23	227.05
871.54	227.02
871.85	227.02
872.16	227.02
872.47	227.02
872.78	226.98
873.09	226.99
873.40	226.95
873.71	226.94
874.02	226.97
874.33	226.96
874.64	226.89
874.95	226.88
875.26	226.87
875.56	226.88
875.87	226.86
876.18	226.86
876.49	226.92
876.80	226.90
877.11	226.88
877.42	226.91
877.73	226.93
878.04	226.92
878.35	226.94
878.66	226.90
878.96	226.85
879.27	226.82
879.58	226.79
879.89	226.82
880.20	226.84
880.51	226.83
880.82	226.84
881.12	226.85
881.43	226.84
881.74	226.86
882.05	226.88
882.36	226.86
882.67	226.87
882.97	226.75
883.28	226.75
883.59	226.75
883.90	226.73
884.21	226.72
884.51	226.73
884.82	226.73
885.13	226.73
885.44	226.79
885.74	226.77
886.05	226.78
886.36	226.76
886.67	226.73
886.98	226.76
887.28	226.75
887.59	226.74
887.90	226.74
888.20	226.71
888.51	226.72
888.82	226.70
889.13	226.70
889.43	226.81
889.74	226.81
890.05	226.79
890.35	226.80
890.66	226.79
890.97	226.76
891.28	226.73
891.58	226.74
891.89	226.70
892.20	226.71
892.50	226.70
892.81	226.71
893.12	226.74
893.42	226.72
893.73	226.74
894.04	226.76
894.34	226.77
894.65	226.78
894.95	226.79
895.26	226.81
895.57	226.86
895.87	226.77
896.18	226.77
896.48	226.81
896.79	226.79
897.10	226.81
897.40	226.82
897.71	226.83
898.01	226.83
898.32	226.85
898.63	226.86
898.93	226.85
899.24	226.83
899.54	226.86
899.85	226.87
900.15	226.84
900.46	226.82
900.76	226.82
901.07	226.84
901.38	226.82
901.68	226.85
901.99	226.75
902.29	226.74
902.60	226.75
902.90	226.71
903.21	226.73
903.51	226.72
903.82	226.74
904.12	226.72
904.43	226.74
904.73	226.75
905.03	226.76
905.34	226.88
905.64	226.88
905.95	226.85
906.25	226.84
906.56	226.87
906.86	226.89
907.17	226.88
907.47	226.87
907.77	226.87
908.08	226.82
908.38	226.85
908.69	226.89
908.99	226.87
909.30	226.89
909.60	226.88
909.90	226.88
910.21	226.85
910.51	226.86
910.81	226.87
911.12	226.88
911.42	226.87
911.73	226.76
912.03	226.79
912.33	226.78
912.64	226.76
912.94	226.75
913.24	226.76
913.55	226.73
913.85	226.73
914.15	226.70
914.46	226.73
914.76	226.76
915.06	226.76
915.37	226.73
915.67	226.73
915.97	226.74
916.27	226.73
916.58	226.75
916.88	226.74
917.18	226.70
917.49	226.75
917.79	226.75
918.09	226.72
918.39	226.74
918.70	226.74
919.00	226.73
919.30	226.79
919.60	226.78
919.91	226.79
920.21	226.78
920.51	226.79
920.81	226.76
921.12	226.72
921.42	226.69
921.72	226.72
922.02	226.68
922.32	226.63
922.63	226.63
922.93	226.66
923.23	226.66
923.53	226.64
923.83	226.57
924.13	226.60
924.44	226.62
924.74	226.61
925.04	226.62
925.34	226.61
925.64	226.56
925.94	226.57
926.24	226.59
926.55	226.56
926.85	226.57
927.15	226.57
927.45	226.60
927.75	226.62
928.05	226.63
928.35	226.64
928.65	226.68
928.95	226.69
929.26	226.65
929.56	226.66
929.86	226.67
930.16	226.68
930.46	226.64
930.76	226.63
931.06	226.56
931.36	226.57
931.66	226.58
931.96	226.55
932.26	226.54
932.56	226.52
932.86	226.56
933.16	226.56
933.46	226.55
933.76	226.52
934.06	226.52
934.36	226.52
934.66	226.52
934.96	226.53
935.26	226.49
935.56	226.50
935.86	226.48
936.16	226.50
936.46	226.47
936.76	226.46
937.06	226.47
937.36	226.48
937.66	226.42
937.96	226.39
938.26	226.38
938.56	226.36
938.86	226.34
939.16	226.35
939.46	226.38
939.76	226.39
940.06	226.37
940.35	226.36
940.65	226.33
940.95	226.34
941.25	226.29
941.55	226.30
941.85	226.29
942.15	226.33
942.45	226.34
942.75	226.37
943.04	226.40
943.34	226.40
943.64	226.38
943.94	226.40
944.24	226.45
944.54	226.46
944.84	226.47
945.13	226.47
945.43	226.48
945.73	226.47
946.03	226.43
946.33	226.40
946.62	226.38
946.92	226.36
947.22	226.35
947.52	226.37
947.82	226.38
948.11	226.37
948.41	226.38
948.71	226.37
949.01	226.34
949.31	226.37
949.60	226.38
949.90	226.43
950.20	226.40
950.50	226.39
950.79	226.33
951.09	226.37
951.39	226.39
951.69	226.38
951.98	226.39
952.28	226.42
952.58	226.44
952.87	226.44
953.17	226.47
953.47	226.49
953.76	226.48
954.06	226.48
954.36	226.45
954.66	226.42
954.95	226.42
955.25	226.43
955.55	226.39
955.84	226.39
956.14	226.38
956.44	226.39
956.73	226.39
957.03	226.45
957.32	226.41
957.62	226.38
957.92	226.36
958.21	226.34
958.51	226.45
958.81	226.47
959.10	226.49
959.40	226.53
959.69	226.50
959.99	226.53
960.29	226.52
960.58	226.55
960.88	226.56
961.17	226.57
961.47	226.56
961.76	226.53
962.06	226.53
962.36	226.56
962.65	226.55
962.95	226.58
963.24	226.53
963.54	226.54
963.83	226.55
964.13	226.57
964.42	226.57
964.72	226.49
965.01	226.49
965.31	226.49
965.60	226.42
965.90	226.49
966.19	226.48
966.49	226.50
966.78	226.47
967.08	226.47
967.37	226.45
967.67	226.45
967.96	226.48
968.26	226.48
968.55	226.46
968.85	226.46
969.14	226.43
969.43	226.45
969.73	226.43
970.02	226.41
970.32	226.38
970.61	226.35
970.91	226.33
971.20	226.30
971.49	226.27
971.79	226.31
972.08	226.23
972.38	226.22
972.67	226.19
972.96	226.18
973.26	226.16
973.55	226.20
973.85	226.17
974.14	226.12
974.43	226.08
974.73	226.04
975.02	226.05
975.31	226.02
975.61	226.01
975.90	226.02
976.19	226.04
976.49	226.06
976.78	226.07
977.07	226.04
977.37	226.04
977.66	226.06
977.95	226.03
978.24	226.04
978.54	226.05
978.83	226.04
979.12	226.06
979.42	226.05
979.71	226.01
980.00	226.02
980.29	226.05
980.59	226.05
980.88	226.09
981.17	226.05
981.46	226.08
981.76	226.06
982.05	226.09
982.34	226.09
982.63	226.09
982.93	226.08
983.22	226.13
983.51	226.11
983.80	226.14
984.09	226.15
984.39	226.17
984.68	226.18
984.97	226.21
985.26	226.19
985.55	226.22
985.85	226.23
986.14	226.23
986.43	226.27
986.72	226.28
987.01	226.24
987.30	226.29
987.59	226.27
987.89	226.27
988.18	226.25
988.47	226.24
988.76	226.19
989.05	226.19
989.34	226.16
989.63	226.23
989.92	226.23
990.22	226.20
990.51	226.19
990.80	226.18
991.09	226.20
991.38	226.25
991.67	226.22
991.96	226.21
992.25	226.25
992.54	226.24
992.83	226.26
993.12	226.28
993.41	226.28
993.70	226.36
993.99	226.42
994.28	226.42
994.58	226.46
994.87	226.48
995.16	226.50
995.45	226.54
995.74	226.50
996.03	226.49
996.32	226.54
996.61	226.56
996.90	226.55
997.19	226.55
997.48	226.54
997.77	226.56
998.06	226.59
998.34	226.60
998.63	226.60
998.92	226.60
999.21	226.63
999.50	226.65
999.79	226.63
1000.08	226.58
1000.37	226.59
1000.66	226.55
1000.95	226.59
1001.24	226.61
1001.53	226.59
1001.82	226.58
1002.11	226.59
1002.40	226.60
1002.68	226.62
1002.97	226.70
1003.26	226.63
1003.55	226.61
1003.84	226.59
1004.13	226.60
1004.42	226.56
1004.71	226.56
1004.99	226.55
1005.28	226.55
1005.57	226.52
1005.86	226.48
1006.15	226.51
1006.44	226.52
1006.72	226.56
1007.01	226.53
1007.30	226.50
1007.59	226.50
1007.88	226.52
1008.17	226.50
1008.45	226.48
1008.74	226.45
1009.03	226.39
1009.32	226.42
1009.60	226.41
1009.89	226.41
1010.18	226.35
1010.47	226.34
1010.76	226.32
1011.04	226.31
1011.33	226.31
1011.62	226.27
1011.91	226.29
1012.19	226.27
1012.48	226.28
1012.77	226.27
1013.05	226.31
1013.34	226.32
1013.63	226.31
1013.92	226.28
1014.20	226.28
1014.49	226.27
1014.78	226.25
1015.06	226.24
1015.35	226.22
1015.64	226.24
1015.92	226.28
1016.21	226.29
1016.50	226.31
1016.78	226.31
1017.07	226.30
1017.36	226.27
1017.64	226.30
1017.93	226.30
1018.22	226.28
1018.50	226.26
1018.79	226.23
1019.08	226.18
1019.36	226.18
1019.65	226.15
1019.93	226.19
1020.22	226.17
1020.51	226.23
1020.79	226.24
1021.08	225.84
1021.36	226.36
1021.65	225.90
1021.94	226.42
1022.22	225.94
1022.51	225.62
1022.79	226.93
1023.08	225.67
1023.36	227.56
1023.65	226.37
>>>>>End Processed Spectral Data<<<<<
