SpectraSuite Data File
++++++++++++++++++++++++++++++++++++
Date: Fri Feb 01 16:02:19 EST 2013
User: group
Dark Spectrum Present: No
Reference Spectrum Present: No
Number of Sampled Component Spectra: 1
Spectrometers: USB2E7196
Integration Time (usec): 35000 (USB2E7196)
Spectra Averaged: 100 (USB2E7196)
Boxcar Smoothing: 10 (USB2E7196)
Correct for Electrical Dark: No (USB2E7196)
Strobe/Lamp Enabled: No (USB2E7196)
Correct for Detector Non-linearity: No (USB2E7196)
Correct for Stray Light: No (USB2E7196)
Number of Pixels in Processed Spectrum: 2048
>>>>>Begin Processed Spectral Data<<<<<
339.09	0.00
339.48	214.72
339.86	216.08
340.24	217.94
340.63	219.06
341.01	221.95
341.39	221.36
341.78	222.90
342.16	224.15
342.54	224.90
342.93	213.17
343.31	223.93
343.69	224.46
344.07	224.92
344.46	225.34
344.84	225.71
345.22	225.93
345.60	226.19
345.99	226.39
346.37	226.52
346.75	226.60
347.13	226.64
347.52	226.66
347.90	226.70
348.28	226.69
348.66	226.74
349.05	226.73
349.43	226.73
349.81	226.77
350.19	226.81
350.57	226.91
350.96	226.99
351.34	227.07
351.72	227.17
352.10	227.30
352.48	227.34
352.87	227.39
353.25	227.46
353.63	227.52
354.01	227.58
354.39	227.63
354.77	227.72
355.15	227.82
355.54	227.91
355.92	227.97
356.30	228.06
356.68	228.18
357.06	228.22
357.44	228.30
357.82	228.36
358.20	228.42
358.58	228.47
358.97	228.52
359.35	228.60
359.73	228.65
360.11	228.70
360.49	228.79
360.87	228.84
361.25	228.89
361.63	228.95
362.01	229.00
362.39	229.08
362.77	229.11
363.15	229.16
363.53	229.16
363.91	229.16
364.29	229.18
364.67	229.14
365.05	229.18
365.43	229.21
365.81	229.24
366.19	229.29
366.57	229.34
366.95	229.33
367.33	229.31
367.71	229.28
368.09	229.27
368.47	229.24
368.85	229.21
369.23	229.24
369.61	229.19
369.99	229.18
370.37	229.16
370.75	229.15
371.13	229.07
371.51	229.02
371.89	229.04
372.27	229.00
372.65	228.95
373.03	228.91
373.41	228.82
373.78	228.76
374.16	228.64
374.54	228.55
374.92	228.52
375.30	228.45
375.68	228.40
376.06	228.34
376.44	228.28
376.82	228.22
377.19	228.13
377.57	228.07
377.95	227.93
378.33	227.82
378.71	227.71
379.09	227.69
379.47	227.62
379.84	227.47
380.22	227.39
380.60	227.31
380.98	227.22
381.36	227.17
381.73	227.11
382.11	227.06
382.49	227.01
382.87	226.87
383.25	226.80
383.62	226.86
384.00	226.80
384.38	226.72
384.76	226.70
385.13	226.70
385.51	226.67
385.89	226.67
386.27	226.64
386.64	226.60
387.02	226.54
387.40	226.50
387.78	226.52
388.15	226.49
388.53	226.45
388.91	226.41
389.29	226.36
389.66	226.35
390.04	226.35
390.42	226.33
390.79	226.34
391.17	226.35
391.55	226.23
391.92	226.20
392.30	226.23
392.68	226.20
393.05	226.17
393.43	226.18
393.81	226.15
394.18	226.16
394.56	226.16
394.94	226.21
395.31	226.24
395.69	226.25
396.06	226.32
396.44	226.34
396.82	226.37
397.19	226.45
397.57	226.48
397.95	226.53
398.32	226.56
398.70	226.65
399.07	226.70
399.45	226.74
399.82	226.81
400.20	226.85
400.58	226.92
400.95	226.99
401.33	227.08
401.70	227.26
402.08	227.34
402.45	227.40
402.83	227.50
403.20	227.58
403.58	227.65
403.95	227.75
404.33	227.91
404.71	228.03
405.08	228.21
405.46	228.33
405.83	228.47
406.21	228.60
406.58	228.77
406.96	228.92
407.33	229.11
407.70	229.29
408.08	229.57
408.45	229.81
408.83	230.00
409.20	230.20
409.58	230.37
409.95	230.65
410.33	230.95
410.70	231.17
411.08	231.48
411.45	231.82
411.82	232.12
412.20	232.45
412.57	232.89
412.95	233.19
413.32	233.59
413.69	234.00
414.07	234.43
414.44	234.86
414.82	235.36
415.19	235.87
415.56	236.43
415.94	236.94
416.31	237.54
416.68	238.17
417.06	238.88
417.43	239.56
417.81	240.29
418.18	241.05
418.55	241.90
418.93	242.75
419.30	243.64
419.67	244.55
420.04	245.53
420.42	246.48
420.79	247.66
421.16	248.80
421.54	250.00
421.91	251.24
422.28	252.52
422.66	253.85
423.03	255.19
423.40	256.55
423.77	257.97
424.15	259.39
424.52	260.91
424.89	262.50
425.26	264.06
425.64	265.51
426.01	267.18
426.38	268.88
426.75	270.57
427.13	272.32
427.50	274.17
427.87	276.06
428.24	277.96
428.61	279.70
428.99	281.66
429.36	283.76
429.73	285.84
430.10	287.85
430.47	289.89
430.85	292.01
431.22	294.22
431.59	296.62
431.96	298.88
432.33	301.35
432.70	303.73
433.08	306.56
433.45	309.22
433.82	311.81
434.19	314.65
434.56	317.45
434.93	320.08
435.30	322.66
435.68	325.56
436.05	328.35
436.42	331.14
436.79	333.66
437.16	336.36
437.53	339.17
437.90	342.02
438.27	344.76
438.64	347.59
439.01	350.17
439.38	352.41
439.75	354.60
440.13	357.10
440.50	359.47
440.87	361.26
441.24	363.15
441.61	365.32
441.98	366.82
442.35	368.59
442.72	370.45
443.09	372.27
443.46	373.22
443.83	373.78
444.20	374.30
444.57	375.13
444.94	375.42
445.31	375.75
445.68	376.04
446.05	376.11
446.42	375.68
446.79	375.24
447.16	374.80
447.53	374.43
447.90	373.23
448.27	372.02
448.64	370.43
449.01	369.28
449.37	367.28
449.74	365.32
450.11	363.09
450.48	360.62
450.85	358.08
451.22	355.92
451.59	353.96
451.96	351.99
452.33	349.41
452.70	347.05
453.07	344.24
453.43	341.35
453.80	338.57
454.17	335.92
454.54	333.37
454.91	330.55
455.28	327.88
455.65	325.43
456.02	322.98
456.38	320.86
456.75	318.21
457.12	315.99
457.49	313.81
457.86	311.66
458.23	309.80
458.59	307.75
458.96	305.67
459.33	303.78
459.70	301.95
460.07	300.42
460.43	298.67
460.80	297.01
461.17	295.56
461.54	294.07
461.91	292.62
462.27	291.23
462.64	290.06
463.01	288.71
463.38	287.45
463.74	286.09
464.11	284.94
464.48	283.90
464.85	282.81
465.21	281.97
465.58	281.02
465.95	279.90
466.32	279.03
466.68	278.14
467.05	277.28
467.42	276.37
467.78	275.40
468.15	274.51
468.52	273.88
468.88	273.04
469.25	272.32
469.62	271.70
469.98	270.99
470.35	270.36
470.72	269.77
471.08	269.10
471.45	268.58
471.82	268.03
472.18	267.44
472.55	266.96
472.92	266.43
473.28	265.97
473.65	265.57
474.02	265.12
474.38	264.77
474.75	264.44
475.11	264.10
475.48	263.90
475.85	263.73
476.21	263.50
476.58	263.34
476.94	263.20
477.31	263.07
477.67	262.95
478.04	262.84
478.41	262.85
478.77	262.91
479.14	262.85
479.50	262.89
479.87	263.01
480.23	263.14
480.60	263.25
480.96	263.38
481.33	263.60
481.69	263.80
482.06	264.01
482.42	264.27
482.79	264.52
483.15	264.83
483.52	265.19
483.88	265.58
484.25	265.98
484.61	266.40
484.98	266.87
485.34	267.43
485.71	268.04
486.07	268.62
486.44	269.18
486.80	269.84
487.17	270.57
487.53	271.42
487.90	272.22
488.26	273.14
488.62	274.11
488.99	275.11
489.35	276.16
489.72	277.29
490.08	278.47
490.44	279.76
490.81	281.08
491.17	282.47
491.54	283.93
491.90	285.46
492.26	287.09
492.63	288.83
492.99	290.61
493.36	292.51
493.72	294.54
494.08	296.65
494.45	298.95
494.81	301.33
495.17	303.70
495.54	306.27
495.90	308.94
496.26	311.76
496.63	314.72
496.99	317.85
497.35	321.11
497.72	324.49
498.08	327.99
498.44	331.67
498.80	335.59
499.17	339.57
499.53	343.72
499.89	348.07
500.26	352.51
500.62	357.21
500.98	362.17
501.34	367.24
501.71	372.58
502.07	378.03
502.43	383.57
502.79	389.43
503.16	395.50
503.52	401.76
503.88	408.11
504.24	414.74
504.60	421.62
504.97	428.72
505.33	436.00
505.69	443.67
506.05	451.49
506.41	459.37
506.78	467.59
507.14	476.10
507.50	484.83
507.86	493.89
508.22	503.03
508.59	512.26
508.95	521.84
509.31	531.65
509.67	541.75
510.03	552.07
510.39	562.62
510.75	573.46
511.12	584.42
511.48	595.76
511.84	607.21
512.20	618.67
512.56	630.65
512.92	642.89
513.28	655.26
513.64	667.74
514.00	680.41
514.37	693.31
514.73	706.36
515.09	719.46
515.45	732.77
515.81	746.39
516.17	760.38
516.53	774.49
516.89	788.64
517.25	802.84
517.61	817.31
517.97	831.71
518.33	846.11
518.69	860.79
519.05	875.78
519.41	890.93
519.77	906.51
520.13	921.86
520.49	937.22
520.85	952.61
521.21	968.31
521.57	984.58
521.93	1000.36
522.29	1016.76
522.65	1032.98
523.01	1049.13
523.37	1065.15
523.73	1081.27
524.09	1097.28
524.45	1113.54
524.81	1130.09
525.17	1146.90
525.53	1163.84
525.89	1180.80
526.25	1197.64
526.61	1213.96
526.97	1230.73
527.33	1247.08
527.68	1263.81
528.04	1280.34
528.40	1296.86
528.76	1313.89
529.12	1330.39
529.48	1347.29
529.84	1363.26
530.20	1379.92
530.56	1397.00
530.91	1414.35
531.27	1431.00
531.63	1447.56
531.99	1464.10
532.35	1480.01
532.71	1495.88
533.07	1512.14
533.42	1527.97
533.78	1543.93
534.14	1560.21
534.50	1575.54
534.86	1591.52
535.21	1606.59
535.57	1622.43
535.93	1637.91
536.29	1652.76
536.65	1667.72
537.00	1682.31
537.36	1697.44
537.72	1711.94
538.08	1726.33
538.44	1740.04
538.79	1754.03
539.15	1767.54
539.51	1781.23
539.87	1795.59
540.22	1809.31
540.58	1823.00
540.94	1836.25
541.29	1849.24
541.65	1861.96
542.01	1875.13
542.37	1887.35
542.72	1899.73
543.08	1911.42
543.44	1923.86
543.79	1934.99
544.15	1946.12
544.51	1957.75
544.87	1968.70
545.22	1979.33
545.58	1989.36
545.94	1999.20
546.29	2008.96
546.65	2018.85
547.01	2028.15
547.36	2036.87
547.72	2045.29
548.07	2052.99
548.43	2061.11
548.79	2069.10
549.14	2076.53
549.50	2083.75
549.86	2091.39
550.21	2098.77
550.57	2105.87
550.92	2112.28
551.28	2119.22
551.64	2126.18
551.99	2132.79
552.35	2139.10
552.70	2145.32
553.06	2151.47
553.41	2157.71
553.77	2163.74
554.13	2169.85
554.48	2175.95
554.84	2181.33
555.19	2186.57
555.55	2191.73
555.90	2196.29
556.26	2201.07
556.61	2205.86
556.97	2210.22
557.32	2214.35
557.68	2218.44
558.03	2222.81
558.39	2226.64
558.74	2231.26
559.10	2235.19
559.45	2238.76
559.81	2243.07
560.16	2246.89
560.52	2249.99
560.87	2253.44
561.23	2256.10
561.58	2259.17
561.94	2261.62
562.29	2264.03
562.64	2266.69
563.00	2269.32
563.35	2272.71
563.71	2275.95
564.06	2279.18
564.42	2282.03
564.77	2284.48
565.12	2286.68
565.48	2288.64
565.83	2290.49
566.19	2291.90
566.54	2292.75
566.89	2293.91
567.25	2294.38
567.60	2295.67
567.96	2297.39
568.31	2298.34
568.66	2299.49
569.02	2299.97
569.37	2300.48
569.72	2301.38
570.08	2301.48
570.43	2301.61
570.78	2301.13
571.14	2299.59
571.49	2298.26
571.84	2298.02
572.20	2296.95
572.55	2296.08
572.90	2294.52
573.26	2293.17
573.61	2291.51
573.96	2289.85
574.31	2286.86
574.67	2283.91
575.02	2280.41
575.37	2277.14
575.72	2273.29
576.08	2270.06
576.43	2266.81
576.78	2263.19
577.13	2260.14
577.49	2257.22
577.84	2253.79
578.19	2250.04
578.54	2246.50
578.90	2242.20
579.25	2236.60
579.60	2231.77
579.95	2226.72
580.30	2221.72
580.66	2216.57
581.01	2211.50
581.36	2206.46
581.71	2202.37
582.06	2197.93
582.42	2193.36
582.77	2188.10
583.12	2183.51
583.47	2178.60
583.82	2173.49
584.17	2168.16
584.53	2162.59
584.88	2156.88
585.23	2151.09
585.58	2145.66
585.93	2140.26
586.28	2135.50
586.63	2130.48
586.98	2125.36
587.34	2120.52
587.69	2115.67
588.04	2110.33
588.39	2104.62
588.74	2098.31
589.09	2092.19
589.44	2085.35
589.79	2079.38
590.14	2073.80
590.49	2067.28
590.84	2061.01
591.19	2055.07
591.54	2048.59
591.89	2041.16
592.25	2034.33
592.60	2027.07
592.95	2019.45
593.30	2011.96
593.65	2004.53
594.00	1997.34
594.35	1990.04
594.70	1982.15
595.05	1974.83
595.40	1967.65
595.75	1960.32
596.10	1953.89
596.45	1947.10
596.80	1941.07
597.15	1934.45
597.50	1927.19
597.85	1920.78
598.19	1914.07
598.54	1906.77
598.89	1900.08
599.24	1894.16
599.59	1887.52
599.94	1881.34
600.29	1875.08
600.64	1868.46
600.99	1860.87
601.34	1854.28
601.69	1847.37
602.04	1840.51
602.39	1833.25
602.74	1826.43
603.08	1819.63
603.43	1813.12
603.78	1805.64
604.13	1798.36
604.48	1791.05
604.83	1784.30
605.18	1777.22
605.53	1769.32
605.87	1761.42
606.22	1754.24
606.57	1746.35
606.92	1739.03
607.27	1731.83
607.62	1724.79
607.96	1717.56
608.31	1710.93
608.66	1703.18
609.01	1695.71
609.36	1688.07
609.70	1680.03
610.05	1671.90
610.40	1664.23
610.75	1655.75
611.10	1648.21
611.44	1639.82
611.79	1631.78
612.14	1622.99
612.49	1613.82
612.83	1605.40
613.18	1597.37
613.53	1589.27
613.88	1580.78
614.22	1572.52
614.57	1563.98
614.92	1555.93
615.27	1548.41
615.61	1540.17
615.96	1532.21
616.31	1524.51
616.65	1517.18
617.00	1509.67
617.35	1502.00
617.70	1493.69
618.04	1485.28
618.39	1477.10
618.74	1469.48
619.08	1461.19
619.43	1453.67
619.78	1446.89
620.12	1439.68
620.47	1432.10
620.82	1423.98
621.16	1416.59
621.51	1408.99
621.85	1401.33
622.20	1392.92
622.55	1384.54
622.89	1376.64
623.24	1369.00
623.59	1361.61
623.93	1354.03
624.28	1346.75
624.62	1339.26
624.97	1332.12
625.32	1325.42
625.66	1318.43
626.01	1311.38
626.35	1303.95
626.70	1296.21
627.04	1288.40
627.39	1280.66
627.73	1273.28
628.08	1266.27
628.43	1258.84
628.77	1251.52
629.12	1243.89
629.46	1236.72
629.81	1229.29
630.15	1222.07
630.50	1214.55
630.84	1206.29
631.19	1198.41
631.53	1190.82
631.88	1183.28
632.22	1175.56
632.57	1168.22
632.91	1160.64
633.26	1153.05
633.60	1145.61
633.95	1138.54
634.29	1131.50
634.64	1124.82
634.98	1117.49
635.32	1110.38
635.67	1103.83
636.01	1097.12
636.36	1090.36
636.70	1083.72
637.05	1077.10
637.39	1070.53
637.73	1064.01
638.08	1058.20
638.42	1052.12
638.77	1045.67
639.11	1039.02
639.45	1032.63
639.80	1025.99
640.14	1019.50
640.49	1013.04
640.83	1006.77
641.17	1000.45
641.52	994.10
641.86	987.64
642.20	981.71
642.55	975.39
642.89	968.87
643.23	962.29
643.58	956.49
643.92	950.37
644.26	944.28
644.61	938.35
644.95	932.32
645.29	925.60
645.64	918.91
645.98	912.59
646.32	906.82
646.66	900.81
647.01	894.93
647.35	889.28
647.69	883.40
648.04	877.89
648.38	872.08
648.72	866.00
649.06	859.93
649.41	854.06
649.75	848.11
650.09	842.22
650.43	836.46
650.78	830.26
651.12	824.31
651.46	818.56
651.80	812.78
652.14	807.38
652.49	802.06
652.83	796.92
653.17	791.22
653.51	785.48
653.85	780.13
654.20	774.45
654.54	768.42
654.88	762.71
655.22	756.76
655.56	751.14
655.90	745.79
656.25	740.50
656.59	735.09
656.93	729.98
657.27	724.76
657.61	719.35
657.95	714.29
658.29	709.26
658.64	704.09
658.98	698.79
659.32	693.30
659.66	688.12
660.00	682.75
660.34	677.84
660.68	672.90
661.02	667.81
661.36	663.16
661.70	658.63
662.05	654.27
662.39	650.00
662.73	645.55
663.07	641.19
663.41	636.81
663.75	632.36
664.09	627.78
664.43	623.48
664.77	619.34
665.11	615.12
665.45	610.98
665.79	606.91
666.13	602.81
666.47	598.87
666.81	594.73
667.15	590.65
667.49	586.78
667.83	582.96
668.17	579.02
668.51	574.90
668.85	570.94
669.19	567.17
669.53	563.32
669.87	559.45
670.21	555.73
670.55	552.07
670.89	548.62
671.23	545.25
671.57	541.69
671.91	538.13
672.25	534.62
672.58	531.06
672.92	527.66
673.26	524.48
673.60	521.26
673.94	518.13
674.28	515.21
674.62	512.23
674.96	509.08
675.30	506.17
675.64	503.27
675.97	500.48
676.31	497.53
676.65	494.61
676.99	491.88
677.33	488.98
677.67	486.16
678.01	483.14
678.34	480.10
678.68	477.20
679.02	474.37
679.36	471.60
679.70	468.86
680.04	466.09
680.37	463.19
680.71	460.39
681.05	457.73
681.39	455.03
681.73	452.39
682.06	449.86
682.40	447.27
682.74	444.75
683.08	442.12
683.42	439.57
683.75	437.02
684.09	434.45
684.43	432.00
684.77	429.47
685.10	427.12
685.44	424.84
685.78	422.58
686.12	420.32
686.45	418.03
686.79	415.72
687.13	413.50
687.46	411.35
687.80	409.18
688.14	406.96
688.48	404.90
688.81	402.63
689.15	400.52
689.49	398.43
689.82	396.38
690.16	394.39
690.50	392.41
690.83	390.47
691.17	388.50
691.51	386.61
691.84	384.80
692.18	382.80
692.52	380.81
692.85	378.85
693.19	377.00
693.52	375.19
693.86	373.40
694.20	371.62
694.53	369.85
694.87	368.01
695.21	366.22
695.54	364.37
695.88	362.65
696.21	360.93
696.55	359.23
696.88	357.49
697.22	355.80
697.56	354.16
697.89	352.55
698.23	350.93
698.56	349.31
698.90	347.75
699.23	346.15
699.57	344.58
699.90	343.06
700.24	341.50
700.58	339.98
700.91	338.49
701.25	337.03
701.58	335.64
701.92	334.26
702.25	332.93
702.59	331.59
702.92	330.25
703.26	328.93
703.59	327.64
703.93	326.50
704.26	325.28
704.60	323.97
704.93	322.70
705.26	321.46
705.60	320.29
705.93	319.14
706.27	318.12
706.60	317.12
706.94	316.02
707.27	314.90
707.61	313.86
707.94	312.87
708.27	311.78
708.61	310.71
708.94	309.75
709.28	308.79
709.61	307.80
709.94	306.88
710.28	305.92
710.61	304.94
710.95	303.86
711.28	302.93
711.61	302.00
711.95	301.08
712.28	300.12
712.61	299.14
712.95	298.21
713.28	297.33
713.61	296.41
713.95	295.55
714.28	294.77
714.61	293.87
714.95	292.96
715.28	292.11
715.61	291.23
715.95	290.37
716.28	289.49
716.61	288.67
716.95	287.83
717.28	287.09
717.61	286.31
717.94	285.57
718.28	284.77
718.61	284.06
718.94	283.32
719.27	282.65
719.61	281.99
719.94	281.31
720.27	280.57
720.60	279.87
720.94	279.19
721.27	278.53
721.60	277.92
721.93	277.35
722.27	276.76
722.60	276.24
722.93	275.66
723.26	275.12
723.59	274.55
723.93	273.98
724.26	273.38
724.59	272.81
724.92	272.27
725.25	271.76
725.59	271.20
725.92	270.70
726.25	270.23
726.58	269.72
726.91	269.21
727.24	268.72
727.57	268.28
727.91	267.79
728.24	267.35
728.57	266.89
728.90	266.45
729.23	265.97
729.56	265.50
729.89	265.02
730.22	264.55
730.55	264.12
730.89	263.72
731.22	263.26
731.55	262.86
731.88	262.44
732.21	262.00
732.54	261.60
732.87	261.17
733.20	260.77
733.53	260.40
733.86	260.05
734.19	259.69
734.52	259.31
734.85	259.05
735.18	258.59
735.51	258.24
735.84	257.82
736.17	257.49
736.50	257.07
736.83	256.85
737.16	256.51
737.49	256.15
737.82	255.80
738.15	255.48
738.48	255.14
738.81	254.82
739.14	254.50
739.47	254.16
739.80	253.86
740.13	253.55
740.46	253.22
740.79	252.88
741.12	252.57
741.45	252.28
741.78	251.88
742.11	251.64
742.44	251.30
742.77	251.08
743.10	250.79
743.43	250.54
743.75	250.17
744.08	250.00
744.41	249.76
744.74	249.46
745.07	249.22
745.40	248.99
745.73	248.75
746.06	248.46
746.39	248.21
746.71	247.94
747.04	247.67
747.37	247.40
747.70	247.18
748.03	246.91
748.36	246.68
748.68	246.48
749.01	246.22
749.34	245.98
749.67	245.71
750.00	245.50
750.33	245.33
750.65	245.13
750.98	244.77
751.31	244.54
751.64	244.39
751.97	244.20
752.29	243.99
752.62	243.74
752.95	243.55
753.28	243.35
753.60	243.15
753.93	242.98
754.26	242.78
754.59	242.54
754.91	242.33
755.24	242.11
755.57	241.91
755.90	241.72
756.22	241.53
756.55	241.35
756.88	241.11
757.20	240.86
757.53	240.64
757.86	240.50
758.19	240.32
758.51	240.13
758.84	239.91
759.17	239.73
759.49	239.59
759.82	239.47
760.15	239.31
760.47	239.16
760.80	238.98
761.13	238.87
761.45	238.72
761.78	238.59
762.11	238.49
762.43	238.33
762.76	238.18
763.08	238.08
763.41	237.96
763.74	237.86
764.06	237.70
764.39	237.59
764.71	237.47
765.04	237.33
765.37	237.19
765.69	237.08
766.02	236.96
766.34	236.83
766.67	236.67
767.00	236.57
767.32	236.48
767.65	236.45
767.97	236.32
768.30	236.25
768.62	236.13
768.95	235.98
769.27	235.88
769.60	235.78
769.92	235.62
770.25	235.49
770.57	235.34
770.90	235.27
771.22	235.13
771.55	234.99
771.87	234.89
772.20	234.79
772.52	234.77
772.85	234.78
773.17	234.71
773.50	234.60
773.82	234.53
774.15	234.42
774.47	234.24
774.80	234.16
775.12	234.04
775.45	233.95
775.77	233.87
776.09	233.79
776.42	233.74
776.74	233.69
777.07	233.62
777.39	233.56
777.72	233.50
778.04	233.46
778.36	233.40
778.69	233.37
779.01	233.31
779.33	233.16
779.66	232.97
779.98	232.89
780.31	232.83
780.63	232.80
780.95	232.74
781.28	232.67
781.60	232.58
781.92	232.52
782.25	232.48
782.57	232.42
782.89	232.35
783.22	232.28
783.54	232.18
783.86	232.16
784.19	232.12
784.51	232.07
784.83	232.00
785.16	231.93
785.48	231.86
785.80	231.82
786.12	231.78
786.45	231.74
786.77	231.69
787.09	231.65
787.42	231.57
787.74	231.53
788.06	231.47
788.38	231.44
788.71	231.40
789.03	231.37
789.35	231.33
789.67	231.29
789.99	231.24
790.32	231.20
790.64	231.15
790.96	231.15
791.28	231.09
791.61	231.07
791.93	231.03
792.25	231.00
792.57	231.02
792.89	230.98
793.21	230.96
793.54	230.86
793.86	230.82
794.18	230.77
794.50	230.72
794.82	230.72
795.14	230.72
795.47	230.68
795.79	230.67
796.11	230.62
796.43	230.58
796.75	230.53
797.07	230.52
797.39	230.48
797.71	230.40
798.04	230.35
798.36	230.31
798.68	230.25
799.00	230.24
799.32	230.11
799.64	230.07
799.96	230.04
800.28	230.06
800.60	230.00
800.92	229.93
801.24	229.86
801.56	229.82
801.89	229.75
802.21	229.71
802.53	229.65
802.85	229.62
803.17	229.63
803.49	229.59
803.81	229.50
804.13	229.45
804.45	229.39
804.77	229.36
805.09	229.32
805.41	229.31
805.73	229.21
806.05	229.21
806.37	229.16
806.69	229.10
807.01	229.04
807.33	229.03
807.65	229.00
807.97	229.03
808.28	228.98
808.60	228.94
808.92	228.90
809.24	228.91
809.56	228.87
809.88	228.78
810.20	228.76
810.52	228.77
810.84	228.72
811.16	228.71
811.48	228.67
811.80	228.68
812.12	228.66
812.43	228.70
812.75	228.66
813.07	228.64
813.39	228.63
813.71	228.60
814.03	228.57
814.35	228.58
814.67	228.53
814.98	228.53
815.30	228.53
815.62	228.48
815.94	228.39
816.26	228.40
816.58	228.35
816.89	228.38
817.21	228.34
817.53	228.37
817.85	228.32
818.17	228.33
818.48	228.26
818.80	228.26
819.12	228.20
819.44	228.15
819.76	228.12
820.07	228.10
820.39	228.11
820.71	228.11
821.03	228.10
821.34	228.07
821.66	228.02
821.98	228.00
822.30	228.03
822.61	228.07
822.93	228.03
823.25	228.03
823.57	228.00
823.88	228.03
824.20	228.00
824.52	228.02
824.83	228.00
825.15	227.99
825.47	227.98
825.79	228.00
826.10	227.98
826.42	228.00
826.74	228.01
827.05	228.02
827.37	227.98
827.69	227.96
828.00	228.00
828.32	227.99
828.64	227.99
828.95	228.00
829.27	227.97
829.58	227.95
829.90	227.95
830.22	227.96
830.53	227.92
830.85	227.89
831.17	227.88
831.48	227.86
831.80	227.90
832.11	227.90
832.43	227.84
832.75	227.85
833.06	227.88
833.38	227.87
833.69	227.82
834.01	227.82
834.32	227.78
834.64	227.75
834.96	227.76
835.27	227.74
835.59	227.73
835.90	227.71
836.22	227.71
836.53	227.68
836.85	227.66
837.16	227.74
837.48	227.74
837.79	227.75
838.11	227.77
838.42	227.74
838.74	227.72
839.05	227.72
839.37	227.72
839.68	227.64
840.00	227.64
840.31	227.66
840.63	227.65
840.94	227.66
841.26	227.66
841.57	227.66
841.88	227.62
842.20	227.59
842.51	227.60
842.83	227.61
843.14	227.68
843.46	227.69
843.77	227.63
844.08	227.63
844.40	227.60
844.71	227.58
845.03	227.53
845.34	227.56
845.65	227.57
845.97	227.54
846.28	227.57
846.60	227.56
846.91	227.53
847.22	227.53
847.54	227.54
847.85	227.53
848.16	227.53
848.48	227.54
848.79	227.55
849.10	227.53
849.42	227.51
849.73	227.45
850.04	227.43
850.36	227.40
850.67	227.40
850.98	227.41
851.30	227.41
851.61	227.43
851.92	227.42
852.23	227.44
852.55	227.46
852.86	227.45
853.17	227.48
853.49	227.51
853.80	227.51
854.11	227.52
854.42	227.53
854.74	227.49
855.05	227.48
855.36	227.45
855.67	227.46
855.99	227.46
856.30	227.56
856.61	227.57
856.92	227.58
857.23	227.60
857.55	227.58
857.86	227.57
858.17	227.60
858.48	227.54
858.79	227.54
859.11	227.53
859.42	227.51
859.73	227.46
860.04	227.46
860.35	227.46
860.66	227.40
860.98	227.40
861.29	227.44
861.60	227.44
861.91	227.47
862.22	227.47
862.53	227.46
862.84	227.36
863.16	227.37
863.47	227.38
863.78	227.37
864.09	227.38
864.40	227.39
864.71	227.36
865.02	227.40
865.33	227.38
865.64	227.37
865.95	227.37
866.27	227.44
866.58	227.45
866.89	227.45
867.20	227.49
867.51	227.46
867.82	227.46
868.13	227.48
868.44	227.43
868.75	227.40
869.06	227.39
869.37	227.36
869.68	227.31
869.99	227.28
870.30	227.27
870.61	227.25
870.92	227.23
871.23	227.24
871.54	227.22
871.85	227.25
872.16	227.26
872.47	227.25
872.78	227.18
873.09	227.17
873.40	227.16
873.71	227.14
874.02	227.16
874.33	227.17
874.64	227.15
874.95	227.19
875.26	227.19
875.56	227.20
875.87	227.23
876.18	227.22
876.49	227.31
876.80	227.27
877.11	227.27
877.42	227.29
877.73	227.29
878.04	227.28
878.35	227.27
878.66	227.29
878.96	227.30
879.27	227.28
879.58	227.28
879.89	227.27
880.20	227.28
880.51	227.25
880.82	227.21
881.12	227.22
881.43	227.17
881.74	227.15
882.05	227.15
882.36	227.15
882.67	227.15
882.97	227.05
883.28	227.07
883.59	227.08
883.90	227.09
884.21	227.08
884.51	227.07
884.82	227.05
885.13	227.00
885.44	226.98
885.74	226.99
886.05	227.00
886.36	226.99
886.67	226.94
886.98	227.01
887.28	227.06
887.59	227.05
887.90	227.10
888.20	227.11
888.51	227.15
888.82	227.15
889.13	227.20
889.43	227.30
889.74	227.30
890.05	227.30
890.35	227.27
890.66	227.26
890.97	227.26
891.28	227.25
891.58	227.25
891.89	227.28
892.20	227.24
892.50	227.23
892.81	227.23
893.12	227.27
893.42	227.22
893.73	227.20
894.04	227.19
894.34	227.16
894.65	227.13
894.95	227.11
895.26	227.10
895.57	227.11
895.87	226.98
896.18	227.01
896.48	227.01
896.79	227.03
897.10	227.04
897.40	227.05
897.71	227.06
898.01	227.07
898.32	227.06
898.63	227.10
898.93	227.12
899.24	227.12
899.54	227.10
899.85	227.07
900.15	227.07
900.46	227.06
900.76	227.07
901.07	227.08
901.38	227.07
901.68	227.07
901.99	227.03
902.29	227.07
902.60	227.04
902.90	227.03
903.21	227.00
903.51	226.99
903.82	227.03
904.12	227.00
904.43	226.98
904.73	226.99
905.03	226.97
905.34	227.02
905.64	227.03
905.95	227.04
906.25	227.03
906.56	227.01
906.86	227.02
907.17	227.01
907.47	227.03
907.77	227.01
908.08	227.01
908.38	227.00
908.69	226.96
908.99	226.99
909.30	227.00
909.60	226.98
909.90	226.99
910.21	226.94
910.51	226.91
910.81	226.91
911.12	226.90
911.42	226.92
911.73	226.81
912.03	226.80
912.33	226.78
912.64	226.78
912.94	226.77
913.24	226.76
913.55	226.73
913.85	226.68
914.15	226.70
914.46	226.69
914.76	226.66
915.06	226.68
915.37	226.65
915.67	226.63
915.97	226.67
916.27	226.61
916.58	226.60
916.88	226.59
917.18	226.64
917.49	226.69
917.79	226.64
918.09	226.65
918.39	226.65
918.70	226.68
919.00	226.69
919.30	226.73
919.60	226.70
919.91	226.68
920.21	226.69
920.51	226.67
920.81	226.63
921.12	226.65
921.42	226.63
921.72	226.64
922.02	226.65
922.32	226.63
922.63	226.65
922.93	226.68
923.23	226.69
923.53	226.66
923.83	226.59
924.13	226.61
924.44	226.62
924.74	226.65
925.04	226.65
925.34	226.63
925.64	226.59
925.94	226.61
926.24	226.67
926.55	226.65
926.85	226.67
927.15	226.68
927.45	226.71
927.75	226.72
928.05	226.72
928.35	226.71
928.65	226.74
928.95	226.74
929.26	226.74
929.56	226.76
929.86	226.77
930.16	226.76
930.46	226.74
930.76	226.77
931.06	226.70
931.36	226.65
931.66	226.71
931.96	226.74
932.26	226.73
932.56	226.73
932.86	226.76
933.16	226.78
933.46	226.78
933.76	226.75
934.06	226.80
934.36	226.81
934.66	226.81
934.96	226.80
935.26	226.83
935.56	226.82
935.86	226.78
936.16	226.76
936.46	226.76
936.76	226.80
937.06	226.77
937.36	226.81
937.66	226.86
937.96	226.84
938.26	226.84
938.56	226.87
938.86	226.89
939.16	226.89
939.46	226.88
939.76	226.90
940.06	226.92
940.35	226.88
940.65	226.86
940.95	226.85
941.25	226.83
941.55	226.83
941.85	226.84
942.15	226.88
942.45	226.91
942.75	226.92
943.04	226.90
943.34	226.91
943.64	226.87
943.94	226.82
944.24	226.82
944.54	226.79
944.84	226.75
945.13	226.74
945.43	226.74
945.73	226.72
946.03	226.72
946.33	226.66
946.62	226.63
946.92	226.61
947.22	226.64
947.52	226.63
947.82	226.62
948.11	226.60
948.41	226.60
948.71	226.56
949.01	226.56
949.31	226.54
949.60	226.55
949.90	226.57
950.20	226.59
950.50	226.60
950.79	226.58
951.09	226.62
951.39	226.59
951.69	226.58
951.98	226.60
952.28	226.60
952.58	226.60
952.87	226.62
953.17	226.62
953.47	226.57
953.76	226.58
954.06	226.55
954.36	226.55
954.66	226.55
954.95	226.55
955.25	226.55
955.55	226.59
955.84	226.55
956.14	226.57
956.44	226.56
956.73	226.53
957.03	226.55
957.32	226.55
957.62	226.54
957.92	226.59
958.21	226.59
958.51	226.68
958.81	226.70
959.10	226.73
959.40	226.77
959.69	226.79
959.99	226.78
960.29	226.81
960.58	226.80
960.88	226.83
961.17	226.86
961.47	226.89
961.76	226.88
962.06	226.93
962.36	226.93
962.65	226.96
962.95	226.98
963.24	226.98
963.54	226.98
963.83	227.01
964.13	226.97
964.42	226.97
964.72	226.90
965.01	226.89
965.31	226.85
965.60	226.83
965.90	226.89
966.19	226.90
966.49	226.91
966.78	226.92
967.08	226.88
967.37	226.89
967.67	226.88
967.96	226.87
968.26	226.88
968.55	226.89
968.85	226.87
969.14	226.87
969.43	226.90
969.73	226.91
970.02	226.90
970.32	226.91
970.61	226.91
970.91	226.89
971.20	226.91
971.49	226.94
971.79	226.92
972.08	226.87
972.38	226.89
972.67	226.89
972.96	226.89
973.26	226.93
973.55	226.96
973.85	226.97
974.14	226.96
974.43	226.94
974.73	226.95
975.02	226.95
975.31	226.95
975.61	226.92
975.90	226.90
976.19	226.89
976.49	226.90
976.78	226.87
977.07	226.84
977.37	226.87
977.66	226.86
977.95	226.84
978.24	226.83
978.54	226.83
978.83	226.82
979.12	226.79
979.42	226.75
979.71	226.70
980.00	226.67
980.29	226.70
980.59	226.68
980.88	226.66
981.17	226.64
981.46	226.63
981.76	226.66
982.05	226.67
982.34	226.69
982.63	226.69
982.93	226.70
983.22	226.77
983.51	226.76
983.80	226.79
984.09	226.82
984.39	226.85
984.68	226.83
984.97	226.83
985.26	226.84
985.55	226.86
985.85	226.84
986.14	226.88
986.43	226.86
986.72	226.87
987.01	226.80
987.30	226.83
987.59	226.82
987.89	226.80
988.18	226.77
988.47	226.74
988.76	226.74
989.05	226.70
989.34	226.65
989.63	226.65
989.92	226.61
990.22	226.58
990.51	226.56
990.80	226.53
991.09	226.53
991.38	226.54
991.67	226.51
991.96	226.50
992.25	226.49
992.54	226.46
992.83	226.46
993.12	226.50
993.41	226.48
993.70	226.51
993.99	226.55
994.28	226.54
994.58	226.55
994.87	226.51
995.16	226.52
995.45	226.47
995.74	226.44
996.03	226.43
996.32	226.45
996.61	226.44
996.90	226.45
997.19	226.43
997.48	226.43
997.77	226.44
998.06	226.44
998.34	226.45
998.63	226.46
998.92	226.46
999.21	226.47
999.50	226.48
999.79	226.42
1000.08	226.38
1000.37	226.40
1000.66	226.41
1000.95	226.45
1001.24	226.47
1001.53	226.50
1001.82	226.50
1002.11	226.47
1002.40	226.51
1002.68	226.54
1002.97	226.61
1003.26	226.60
1003.55	226.58
1003.84	226.59
1004.13	226.59
1004.42	226.57
1004.71	226.56
1004.99	226.54
1005.28	226.57
1005.57	226.53
1005.86	226.57
1006.15	226.56
1006.44	226.53
1006.72	226.50
1007.01	226.47
1007.30	226.47
1007.59	226.46
1007.88	226.46
1008.17	226.47
1008.45	226.42
1008.74	226.36
1009.03	226.32
1009.32	226.35
1009.60	226.36
1009.89	226.35
1010.18	226.34
1010.47	226.31
1010.76	226.34
1011.04	226.33
1011.33	226.31
1011.62	226.34
1011.91	226.31
1012.19	226.33
1012.48	226.34
1012.77	226.35
1013.05	226.42
1013.34	226.41
1013.63	226.42
1013.92	226.42
1014.20	226.43
1014.49	226.46
1014.78	226.49
1015.06	226.45
1015.35	226.43
1015.64	226.45
1015.92	226.49
1016.21	226.49
1016.50	226.48
1016.78	226.48
1017.07	226.47
1017.36	226.46
1017.64	226.41
1017.93	226.44
1018.22	226.43
1018.50	226.42
1018.79	226.43
1019.08	226.38
1019.36	226.40
1019.65	226.42
1019.93	226.48
1020.22	226.48
1020.51	226.52
1020.79	226.48
1021.08	226.44
1021.36	226.06
1021.65	226.43
1021.94	226.27
1022.22	226.96
1022.51	227.01
1022.79	227.26
1023.08	226.28
1023.36	227.63
1023.65	225.79
>>>>>End Processed Spectral Data<<<<<
