SpectraSuite Data File
++++++++++++++++++++++++++++++++++++
Date: Fri Feb 01 15:38:21 EST 2013
User: group
Dark Spectrum Present: No
Reference Spectrum Present: No
Number of Sampled Component Spectra: 1
Spectrometers: USB2E7196
Integration Time (usec): 35000 (USB2E7196)
Spectra Averaged: 100 (USB2E7196)
Boxcar Smoothing: 10 (USB2E7196)
Correct for Electrical Dark: No (USB2E7196)
Strobe/Lamp Enabled: No (USB2E7196)
Correct for Detector Non-linearity: No (USB2E7196)
Correct for Stray Light: No (USB2E7196)
Number of Pixels in Processed Spectrum: 2048
>>>>>Begin Processed Spectral Data<<<<<
339.09	0.00
339.48	215.39
339.86	217.17
340.24	217.61
340.63	218.94
341.01	221.97
341.39	221.82
341.78	222.94
342.16	224.23
342.54	225.33
342.93	213.36
343.31	224.13
343.69	224.66
344.07	225.09
344.46	225.53
344.84	225.93
345.22	226.15
345.60	226.39
345.99	226.59
346.37	226.70
346.75	226.81
347.13	226.86
347.52	226.89
347.90	226.99
348.28	227.01
348.66	227.04
349.05	227.00
349.43	227.04
349.81	227.11
350.19	227.14
350.57	227.19
350.96	227.29
351.34	227.35
351.72	227.44
352.10	227.54
352.48	227.59
352.87	227.65
353.25	227.73
353.63	227.81
354.01	227.89
354.39	227.99
354.77	228.07
355.15	228.18
355.54	228.24
355.92	228.23
356.30	228.31
356.68	228.46
357.06	228.54
357.44	228.60
357.82	228.68
358.20	228.73
358.58	228.80
358.97	228.85
359.35	228.96
359.73	229.02
360.11	229.05
360.49	229.13
360.87	229.19
361.25	229.25
361.63	229.29
362.01	229.32
362.39	229.34
362.77	229.35
363.15	229.35
363.53	229.37
363.91	229.43
364.29	229.42
364.67	229.33
365.05	229.33
365.43	229.36
365.81	229.38
366.19	229.44
366.57	229.47
366.95	229.48
367.33	229.41
367.71	229.37
368.09	229.39
368.47	229.35
368.85	229.30
369.23	229.29
369.61	229.25
369.99	229.26
370.37	229.25
370.75	229.25
371.13	229.20
371.51	229.16
371.89	229.12
372.27	229.10
372.65	229.04
373.03	229.01
373.41	228.96
373.78	228.84
374.16	228.69
374.54	228.59
374.92	228.51
375.30	228.48
375.68	228.43
376.06	228.39
376.44	228.35
376.82	228.25
377.19	228.17
377.57	228.06
377.95	227.96
378.33	227.86
378.71	227.73
379.09	227.70
379.47	227.63
379.84	227.54
380.22	227.48
380.60	227.41
380.98	227.35
381.36	227.24
381.73	227.19
382.11	227.16
382.49	227.10
382.87	227.00
383.25	226.95
383.62	226.99
384.00	226.88
384.38	226.81
384.76	226.82
385.13	226.81
385.51	226.79
385.89	226.72
386.27	226.68
386.64	226.64
387.02	226.59
387.40	226.54
387.78	226.53
388.15	226.48
388.53	226.47
388.91	226.43
389.29	226.42
389.66	226.40
390.04	226.38
390.42	226.38
390.79	226.38
391.17	226.36
391.55	226.22
391.92	226.23
392.30	226.22
392.68	226.20
393.05	226.19
393.43	226.20
393.81	226.18
394.18	226.20
394.56	226.21
394.94	226.23
395.31	226.26
395.69	226.29
396.06	226.33
396.44	226.36
396.82	226.37
397.19	226.47
397.57	226.52
397.95	226.61
398.32	226.64
398.70	226.75
399.07	226.84
399.45	226.91
399.82	226.96
400.20	227.01
400.58	227.08
400.95	227.13
401.33	227.23
401.70	227.43
402.08	227.54
402.45	227.67
402.83	227.79
403.20	227.89
403.58	228.00
403.95	228.14
404.33	228.29
404.71	228.46
405.08	228.62
405.46	228.76
405.83	228.88
406.21	229.02
406.58	229.17
406.96	229.31
407.33	229.50
407.70	229.72
408.08	230.01
408.45	230.29
408.83	230.51
409.20	230.72
409.58	230.90
409.95	231.19
410.33	231.42
410.70	231.67
411.08	231.98
411.45	232.30
411.82	232.61
412.20	232.96
412.57	233.36
412.95	233.65
413.32	234.09
413.69	234.49
414.07	234.96
414.44	235.39
414.82	235.88
415.19	236.45
415.56	237.02
415.94	237.54
416.31	238.13
416.68	238.80
417.06	239.55
417.43	240.23
417.81	240.94
418.18	241.75
418.55	242.61
418.93	243.47
419.30	244.36
419.67	245.28
420.04	246.22
420.42	247.23
420.79	248.43
421.16	249.54
421.54	250.76
421.91	251.96
422.28	253.22
422.66	254.53
423.03	255.83
423.40	257.15
423.77	258.55
424.15	259.98
424.52	261.44
424.89	263.02
425.26	264.55
425.64	266.02
426.01	267.64
426.38	269.29
426.75	270.95
427.13	272.67
427.50	274.48
427.87	276.33
428.24	278.17
428.61	279.87
428.99	281.83
429.36	283.89
429.73	285.93
430.10	287.96
430.47	290.02
430.85	292.10
431.22	294.35
431.59	296.72
431.96	298.94
432.33	301.45
432.70	303.80
433.08	306.64
433.45	309.27
433.82	311.87
434.19	314.74
434.56	317.58
434.93	320.27
435.30	322.87
435.68	325.80
436.05	328.58
436.42	331.41
436.79	333.93
437.16	336.64
437.53	339.48
437.90	342.33
438.27	345.08
438.64	347.95
439.01	350.52
439.38	352.79
439.75	355.00
440.13	357.45
440.50	359.85
440.87	361.66
441.24	363.61
441.61	365.72
441.98	367.23
442.35	369.00
442.72	370.88
443.09	372.69
443.46	373.68
443.83	374.31
444.20	374.82
444.57	375.66
444.94	375.98
445.31	376.31
445.68	376.64
446.05	376.74
446.42	376.37
446.79	375.95
447.16	375.49
447.53	375.16
447.90	374.01
448.27	372.78
448.64	371.21
449.01	370.05
449.37	368.13
449.74	366.18
450.11	363.91
450.48	361.41
450.85	358.90
451.22	356.73
451.59	354.75
451.96	352.82
452.33	350.21
452.70	347.86
453.07	345.03
453.43	342.14
453.80	339.35
454.17	336.68
454.54	334.15
454.91	331.42
455.28	328.74
455.65	326.29
456.02	323.86
456.38	321.70
456.75	319.07
457.12	316.81
457.49	314.63
457.86	312.48
458.23	310.60
458.59	308.56
458.96	306.47
459.33	304.59
459.70	302.74
460.07	301.23
460.43	299.48
460.80	297.84
461.17	296.41
461.54	294.86
461.91	293.45
462.27	291.99
462.64	290.75
463.01	289.40
463.38	288.11
463.74	286.75
464.11	285.60
464.48	284.59
464.85	283.46
465.21	282.59
465.58	281.65
465.95	280.56
466.32	279.64
466.68	278.74
467.05	277.81
467.42	276.90
467.78	275.98
468.15	275.14
468.52	274.52
468.88	273.62
469.25	272.91
469.62	272.23
469.98	271.56
470.35	270.94
470.72	270.30
471.08	269.59
471.45	269.04
471.82	268.49
472.18	267.90
472.55	267.46
472.92	266.94
473.28	266.48
473.65	266.02
474.02	265.57
474.38	265.23
474.75	264.94
475.11	264.55
475.48	264.26
475.85	264.02
476.21	263.79
476.58	263.65
476.94	263.50
477.31	263.35
477.67	263.20
478.04	263.07
478.41	263.01
478.77	263.08
479.14	263.03
479.50	263.03
479.87	263.08
480.23	263.16
480.60	263.19
480.96	263.28
481.33	263.50
481.69	263.70
482.06	263.88
482.42	264.01
482.79	264.27
483.15	264.58
483.52	264.91
483.88	265.21
484.25	265.61
484.61	266.00
484.98	266.46
485.34	266.99
485.71	267.57
486.07	268.19
486.44	268.76
486.80	269.44
487.17	270.14
487.53	270.93
487.90	271.84
488.26	272.81
488.62	273.81
488.99	274.78
489.35	275.81
489.72	276.91
490.08	278.14
490.44	279.41
490.81	280.78
491.17	282.12
491.54	283.63
491.90	285.16
492.26	286.81
492.63	288.50
492.99	290.26
493.36	292.15
493.72	294.19
494.08	296.24
494.45	298.54
494.81	300.95
495.17	303.40
495.54	305.89
495.90	308.57
496.26	311.37
496.63	314.34
496.99	317.44
497.35	320.75
497.72	324.14
498.08	327.61
498.44	331.26
498.80	335.20
499.17	339.22
499.53	343.38
499.89	347.75
500.26	352.29
500.62	356.99
500.98	361.95
501.34	367.09
501.71	372.42
502.07	377.80
502.43	383.35
502.79	389.16
503.16	395.28
503.52	401.52
503.88	407.89
504.24	414.54
504.60	421.46
504.97	428.56
505.33	435.92
505.69	443.68
506.05	451.47
506.41	459.37
506.78	467.53
507.14	476.02
507.50	484.78
507.86	493.80
508.22	503.04
508.59	512.25
508.95	521.79
509.31	531.64
509.67	541.75
510.03	552.09
510.39	562.71
510.75	573.50
511.12	584.50
511.48	595.85
511.84	607.29
512.20	618.84
512.56	630.81
512.92	643.00
513.28	655.29
513.64	667.88
514.00	680.61
514.37	693.55
514.73	706.65
515.09	719.62
515.45	732.95
515.81	746.64
516.17	760.68
516.53	774.80
516.89	789.01
517.25	803.22
517.61	817.62
517.97	832.05
518.33	846.48
518.69	861.26
519.05	876.29
519.41	891.48
519.77	907.07
520.13	922.49
520.49	937.77
520.85	953.20
521.21	968.87
521.57	985.13
521.93	1000.89
522.29	1017.22
522.65	1033.52
523.01	1049.79
523.37	1065.72
523.73	1081.84
524.09	1098.03
524.45	1114.31
524.81	1130.96
525.17	1147.85
525.53	1164.83
525.89	1181.81
526.25	1198.74
526.61	1215.02
526.97	1231.88
527.33	1248.29
527.68	1264.99
528.04	1281.62
528.40	1298.35
528.76	1315.49
529.12	1332.09
529.48	1349.04
529.84	1365.15
530.20	1381.87
530.56	1398.88
530.91	1416.22
531.27	1433.08
531.63	1449.50
531.99	1466.22
532.35	1482.11
532.71	1498.03
533.07	1514.18
533.42	1529.97
533.78	1545.92
534.14	1562.25
534.50	1577.52
534.86	1593.43
535.21	1608.50
535.57	1624.56
535.93	1640.04
536.29	1654.67
536.65	1669.70
537.00	1684.50
537.36	1699.78
537.72	1714.30
538.08	1728.70
538.44	1742.64
538.79	1756.60
539.15	1770.38
539.51	1783.99
539.87	1798.49
540.22	1812.22
540.58	1826.00
540.94	1839.54
541.29	1852.55
541.65	1865.18
542.01	1878.47
542.37	1890.71
542.72	1903.14
543.08	1914.83
543.44	1927.16
543.79	1938.50
544.15	1949.58
544.51	1961.19
544.87	1972.15
545.22	1983.04
545.58	1993.25
545.94	2002.95
546.29	2012.75
546.65	2022.45
547.01	2031.72
547.36	2040.40
547.72	2048.91
548.07	2056.83
548.43	2064.83
548.79	2072.82
549.14	2080.34
549.50	2087.60
549.86	2095.41
550.21	2102.82
550.57	2110.00
550.92	2116.52
551.28	2123.67
551.64	2130.69
551.99	2137.04
552.35	2143.20
552.70	2149.16
553.06	2155.12
553.41	2161.60
553.77	2167.53
554.13	2173.66
554.48	2179.79
554.84	2185.26
555.19	2190.53
555.55	2195.69
555.90	2200.16
556.26	2204.81
556.61	2209.66
556.97	2213.94
557.32	2217.97
557.68	2222.12
558.03	2226.42
558.39	2230.30
558.74	2234.76
559.10	2238.66
559.45	2242.43
559.81	2246.80
560.16	2250.76
560.52	2254.09
560.87	2257.42
561.23	2260.17
561.58	2263.12
561.94	2265.57
562.29	2267.89
562.64	2270.52
563.00	2273.08
563.35	2276.65
563.71	2280.05
564.06	2283.37
564.42	2286.30
564.77	2288.81
565.12	2290.96
565.48	2292.77
565.83	2294.48
566.19	2295.73
566.54	2296.63
566.89	2297.70
567.25	2298.09
567.60	2299.32
567.96	2300.90
568.31	2301.74
568.66	2302.79
569.02	2303.28
569.37	2303.65
569.72	2304.50
570.08	2304.58
570.43	2304.59
570.78	2303.94
571.14	2302.34
571.49	2300.89
571.84	2300.44
572.20	2299.33
572.55	2298.39
572.90	2296.82
573.26	2295.44
573.61	2293.95
573.96	2292.16
574.31	2289.28
574.67	2286.29
575.02	2282.58
575.37	2279.09
575.72	2275.29
576.08	2271.87
576.43	2268.63
576.78	2264.95
577.13	2261.70
577.49	2258.55
577.84	2254.92
578.19	2251.11
578.54	2247.28
578.90	2243.02
579.25	2237.56
579.60	2232.54
579.95	2227.42
580.30	2222.38
580.66	2217.28
581.01	2212.07
581.36	2207.09
581.71	2202.83
582.06	2198.41
582.42	2194.06
582.77	2188.87
583.12	2184.17
583.47	2179.36
583.82	2174.21
584.17	2168.85
584.53	2163.36
584.88	2157.80
585.23	2152.00
585.58	2146.56
585.93	2141.02
586.28	2136.16
586.63	2130.85
586.98	2125.83
587.34	2121.10
587.69	2116.17
588.04	2110.68
588.39	2105.11
588.74	2098.57
589.09	2092.29
589.44	2085.54
589.79	2079.46
590.14	2073.93
590.49	2067.42
590.84	2061.12
591.19	2055.06
591.54	2048.72
591.89	2041.19
592.25	2034.36
592.60	2027.20
592.95	2019.43
593.30	2012.14
593.65	2004.59
594.00	1997.66
594.35	1990.22
594.70	1982.14
595.05	1974.90
595.40	1967.66
595.75	1959.95
596.10	1953.75
596.45	1947.05
596.80	1940.97
597.15	1934.25
597.50	1926.97
597.85	1920.43
598.19	1913.72
598.54	1906.58
598.89	1899.96
599.24	1894.23
599.59	1887.41
599.94	1881.27
600.29	1875.09
600.64	1868.58
600.99	1861.09
601.34	1854.14
601.69	1847.28
602.04	1840.31
602.39	1832.80
602.74	1826.12
603.08	1819.53
603.43	1812.70
603.78	1805.21
604.13	1797.69
604.48	1790.36
604.83	1783.46
605.18	1776.42
605.53	1768.42
605.87	1760.38
606.22	1752.98
606.57	1745.03
606.92	1737.79
607.27	1730.45
607.62	1723.51
607.96	1716.15
608.31	1709.43
608.66	1701.74
609.01	1694.09
609.36	1686.58
609.70	1678.71
610.05	1670.58
610.40	1662.82
610.75	1654.58
611.10	1647.04
611.44	1638.83
611.79	1630.84
612.14	1622.09
612.49	1613.01
612.83	1604.58
613.18	1596.47
613.53	1588.39
613.88	1579.77
614.22	1571.37
614.57	1562.89
614.92	1554.79
615.27	1547.12
615.61	1538.81
615.96	1530.90
616.31	1523.33
616.65	1515.87
617.00	1508.32
617.35	1500.59
617.70	1492.17
618.04	1483.63
618.39	1475.47
618.74	1467.74
619.08	1459.45
619.43	1451.90
619.78	1444.98
620.12	1437.80
620.47	1430.18
620.82	1422.08
621.16	1414.72
621.51	1407.12
621.85	1399.48
622.20	1390.93
622.55	1382.69
622.89	1374.87
623.24	1367.29
623.59	1359.87
623.93	1352.43
624.28	1345.21
624.62	1337.65
624.97	1330.55
625.32	1323.80
625.66	1316.71
626.01	1309.53
626.35	1301.99
626.70	1294.29
627.04	1286.46
627.39	1278.75
627.73	1271.55
628.08	1264.52
628.43	1257.22
628.77	1249.98
629.12	1242.43
629.46	1235.31
629.81	1227.92
630.15	1220.60
630.50	1213.15
630.84	1204.96
631.19	1197.08
631.53	1189.51
631.88	1181.98
632.22	1174.29
632.57	1166.95
632.91	1159.46
633.26	1151.99
633.60	1144.74
633.95	1137.65
634.29	1130.72
634.64	1124.00
634.98	1116.60
635.32	1109.54
635.67	1102.90
636.01	1096.22
636.36	1089.34
636.70	1082.88
637.05	1076.23
637.39	1069.94
637.73	1063.46
638.08	1057.62
638.42	1051.60
638.77	1045.16
639.11	1038.51
639.45	1032.17
639.80	1025.57
640.14	1019.04
640.49	1012.52
640.83	1006.20
641.17	999.91
641.52	993.51
641.86	987.16
642.20	981.26
642.55	974.97
642.89	968.44
643.23	961.87
643.58	956.18
643.92	949.97
644.26	943.88
644.61	937.83
644.95	931.76
645.29	925.21
645.64	918.47
645.98	912.12
646.32	906.35
646.66	900.35
647.01	894.51
647.35	888.94
647.69	883.17
648.04	877.68
648.38	871.89
648.72	865.94
649.06	859.82
649.41	854.03
649.75	848.05
650.09	842.14
650.43	836.39
650.78	830.20
651.12	824.18
651.46	818.55
651.80	812.72
652.14	807.39
652.49	801.95
652.83	796.71
653.17	791.03
653.51	785.20
653.85	779.87
654.20	774.21
654.54	768.09
654.88	762.38
655.22	756.45
655.56	750.76
655.90	745.26
656.25	739.98
656.59	734.59
656.93	729.54
657.27	724.38
657.61	718.93
657.95	713.90
658.29	708.84
658.64	703.62
658.98	698.35
659.32	692.89
659.66	687.67
660.00	682.39
660.34	677.46
660.68	672.66
661.02	667.63
661.36	662.92
661.70	658.53
662.05	654.15
662.39	649.81
662.73	645.46
663.07	641.13
663.41	636.72
663.75	632.21
664.09	627.65
664.43	623.21
664.77	619.09
665.11	614.78
665.45	610.61
665.79	606.45
666.13	602.35
666.47	598.24
666.81	594.11
667.15	590.02
667.49	586.17
667.83	582.32
668.17	578.38
668.51	574.31
668.85	570.24
669.19	566.39
669.53	562.53
669.87	558.58
670.21	554.89
670.55	551.21
670.89	547.82
671.23	544.36
671.57	540.88
671.91	537.31
672.25	533.82
672.58	530.29
672.92	526.94
673.26	523.74
673.60	520.56
673.94	517.43
674.28	514.54
674.62	511.54
674.96	508.41
675.30	505.48
675.64	502.57
675.97	499.80
676.31	496.89
676.65	493.97
676.99	491.25
677.33	488.36
677.67	485.54
678.01	482.43
678.34	479.45
678.68	476.54
679.02	473.76
679.36	470.99
679.70	468.32
680.04	465.55
680.37	462.61
680.71	459.85
681.05	457.29
681.39	454.53
681.73	451.89
682.06	449.40
682.40	446.87
682.74	444.32
683.08	441.74
683.42	439.14
683.75	436.69
684.09	434.16
684.43	431.71
684.77	429.28
685.10	426.95
685.44	424.64
685.78	422.37
686.12	420.09
686.45	417.82
686.79	415.48
687.13	413.26
687.46	411.16
687.80	409.00
688.14	406.77
688.48	404.69
688.81	402.46
689.15	400.29
689.49	398.14
689.82	396.05
690.16	394.01
690.50	392.11
690.83	390.12
691.17	388.14
691.51	386.25
691.84	384.41
692.18	382.48
692.52	380.57
692.85	378.69
693.19	376.85
693.52	375.07
693.86	373.30
694.20	371.56
694.53	369.78
694.87	367.95
695.21	366.18
695.54	364.43
695.88	362.68
696.21	360.96
696.55	359.28
696.88	357.59
697.22	355.94
697.56	354.37
697.89	352.74
698.23	351.16
698.56	349.55
698.90	347.97
699.23	346.36
699.57	344.82
699.90	343.27
700.24	341.74
700.58	340.18
700.91	338.70
701.25	337.27
701.58	335.94
701.92	334.61
702.25	333.24
702.59	331.86
702.92	330.56
703.26	329.30
703.59	327.97
703.93	326.81
704.26	325.57
704.60	324.22
704.93	322.96
705.26	321.71
705.60	320.55
705.93	319.37
706.27	318.34
706.60	317.26
706.94	316.15
707.27	315.03
707.61	313.99
707.94	312.97
708.27	311.87
708.61	310.78
708.94	309.76
709.28	308.75
709.61	307.77
709.94	306.81
710.28	305.76
710.61	304.81
710.95	303.76
711.28	302.87
711.61	301.95
711.95	301.05
712.28	300.08
712.61	299.08
712.95	298.17
713.28	297.26
713.61	296.35
713.95	295.52
714.28	294.66
714.61	293.80
714.95	292.94
715.28	292.10
715.61	291.18
715.95	290.27
716.28	289.40
716.61	288.58
716.95	287.78
717.28	287.07
717.61	286.32
717.94	285.58
718.28	284.77
718.61	284.01
718.94	283.29
719.27	282.68
719.61	282.03
719.94	281.36
720.27	280.61
720.60	279.94
720.94	279.30
721.27	278.66
721.60	278.06
721.93	277.43
722.27	276.86
722.60	276.35
722.93	275.78
723.26	275.23
723.59	274.69
723.93	274.13
724.26	273.56
724.59	272.98
724.92	272.45
725.25	271.93
725.59	271.45
725.92	270.93
726.25	270.39
726.58	269.92
726.91	269.43
727.24	268.96
727.57	268.49
727.91	267.96
728.24	267.49
728.57	267.00
728.90	266.58
729.23	266.07
729.56	265.62
729.89	265.21
730.22	264.74
730.55	264.25
730.89	263.87
731.22	263.45
731.55	263.02
731.88	262.59
732.21	262.19
732.54	261.73
732.87	261.33
733.20	260.94
733.53	260.51
733.86	260.13
734.19	259.77
734.52	259.43
734.85	259.15
735.18	258.73
735.51	258.36
735.84	257.98
736.17	257.64
736.50	257.25
736.83	256.99
737.16	256.69
737.49	256.37
737.82	255.96
738.15	255.62
738.48	255.28
738.81	254.95
739.14	254.63
739.47	254.33
739.80	254.02
740.13	253.70
740.46	253.41
740.79	253.11
741.12	252.79
741.45	252.45
741.78	252.12
742.11	251.85
742.44	251.51
742.77	251.23
743.10	250.91
743.43	250.64
743.75	250.26
744.08	250.14
744.41	249.87
744.74	249.61
745.07	249.32
745.40	249.08
745.73	248.82
746.06	248.57
746.39	248.27
746.71	248.00
747.04	247.75
747.37	247.51
747.70	247.29
748.03	247.05
748.36	246.82
748.68	246.58
749.01	246.34
749.34	246.15
749.67	245.90
750.00	245.68
750.33	245.52
750.65	245.29
750.98	244.91
751.31	244.68
751.64	244.47
751.97	244.29
752.29	244.09
752.62	243.84
752.95	243.62
753.28	243.39
753.60	243.17
753.93	242.97
754.26	242.78
754.59	242.50
754.91	242.28
755.24	242.10
755.57	241.90
755.90	241.70
756.22	241.49
756.55	241.31
756.88	241.11
757.20	240.87
757.53	240.68
757.86	240.51
758.19	240.38
758.51	240.21
758.84	239.99
759.17	239.80
759.49	239.66
759.82	239.49
760.15	239.37
760.47	239.22
760.80	239.04
761.13	238.88
761.45	238.72
761.78	238.58
762.11	238.42
762.43	238.28
762.76	238.10
763.08	237.99
763.41	237.83
763.74	237.71
764.06	237.55
764.39	237.40
764.71	237.26
765.04	237.11
765.37	236.99
765.69	236.87
766.02	236.77
766.34	236.64
766.67	236.52
767.00	236.38
767.32	236.33
767.65	236.25
767.97	236.16
768.30	236.04
768.62	235.92
768.95	235.79
769.27	235.66
769.60	235.62
769.92	235.48
770.25	235.38
770.57	235.25
770.90	235.15
771.22	235.05
771.55	234.94
771.87	234.84
772.20	234.72
772.52	234.72
772.85	234.74
773.17	234.65
773.50	234.57
773.82	234.52
774.15	234.40
774.47	234.25
774.80	234.13
775.12	234.06
775.45	233.98
775.77	233.94
776.09	233.87
776.42	233.75
776.74	233.70
777.07	233.63
777.39	233.56
777.72	233.52
778.04	233.51
778.36	233.43
778.69	233.36
779.01	233.30
779.33	233.13
779.66	232.97
779.98	232.92
780.31	232.87
780.63	232.82
780.95	232.79
781.28	232.79
781.60	232.73
781.92	232.68
782.25	232.64
782.57	232.53
782.89	232.48
783.22	232.45
783.54	232.41
783.86	232.37
784.19	232.35
784.51	232.29
784.83	232.19
785.16	232.17
785.48	232.14
785.80	232.11
786.12	232.08
786.45	232.01
786.77	231.96
787.09	231.88
787.42	231.80
787.74	231.78
788.06	231.73
788.38	231.73
788.71	231.69
789.03	231.65
789.35	231.66
789.67	231.59
789.99	231.57
790.32	231.50
790.64	231.50
790.96	231.51
791.28	231.44
791.61	231.43
791.93	231.37
792.25	231.30
792.57	231.33
792.89	231.26
793.21	231.20
793.54	231.15
793.86	231.12
794.18	231.08
794.50	231.02
794.82	230.94
795.14	230.90
795.47	230.86
795.79	230.82
796.11	230.74
796.43	230.75
796.75	230.69
797.07	230.66
797.39	230.59
797.71	230.48
798.04	230.44
798.36	230.40
798.68	230.36
799.00	230.37
799.32	230.28
799.64	230.28
799.96	230.27
800.28	230.26
800.60	230.22
800.92	230.17
801.24	230.13
801.56	230.13
801.89	230.05
802.21	230.02
802.53	229.96
802.85	229.95
803.17	229.94
803.49	229.88
803.81	229.83
804.13	229.81
804.45	229.77
804.77	229.75
805.09	229.73
805.41	229.71
805.73	229.65
806.05	229.58
806.37	229.52
806.69	229.49
807.01	229.47
807.33	229.43
807.65	229.40
807.97	229.39
808.28	229.32
808.60	229.34
808.92	229.30
809.24	229.35
809.56	229.30
809.88	229.22
810.20	229.22
810.52	229.22
810.84	229.16
811.16	229.14
811.48	229.13
811.80	229.12
812.12	229.07
812.43	229.11
812.75	229.10
813.07	229.08
813.39	229.06
813.71	229.03
814.03	229.01
814.35	228.97
814.67	228.95
814.98	228.92
815.30	228.85
815.62	228.84
815.94	228.77
816.26	228.78
816.58	228.75
816.89	228.75
817.21	228.70
817.53	228.71
817.85	228.70
818.17	228.65
818.48	228.60
818.80	228.62
819.12	228.54
819.44	228.50
819.76	228.47
820.07	228.45
820.39	228.40
820.71	228.40
821.03	228.40
821.34	228.36
821.66	228.37
821.98	228.39
822.30	228.37
822.61	228.40
822.93	228.36
823.25	228.34
823.57	228.29
823.88	228.32
824.20	228.31
824.52	228.32
824.83	228.35
825.15	228.32
825.47	228.29
825.79	228.30
826.10	228.31
826.42	228.35
826.74	228.34
827.05	228.37
827.37	228.37
827.69	228.37
828.00	228.36
828.32	228.38
828.64	228.36
828.95	228.43
829.27	228.43
829.58	228.41
829.90	228.48
830.22	228.50
830.53	228.47
830.85	228.42
831.17	228.36
831.48	228.33
831.80	228.36
832.11	228.35
832.43	228.34
832.75	228.32
833.06	228.36
833.38	228.35
833.69	228.32
834.01	228.32
834.32	228.26
834.64	228.28
834.96	228.25
835.27	228.22
835.59	228.17
835.90	228.14
836.22	228.12
836.53	228.06
836.85	228.03
837.16	228.14
837.48	228.13
837.79	228.16
838.11	228.15
838.42	228.13
838.74	228.15
839.05	228.13
839.37	228.12
839.68	228.04
840.00	228.06
840.31	228.05
840.63	228.03
840.94	228.04
841.26	227.97
841.57	227.96
841.88	227.97
842.20	227.94
842.51	227.90
842.83	227.96
843.14	228.00
843.46	227.99
843.77	227.92
844.08	227.94
844.40	227.86
844.71	227.86
845.03	227.85
845.34	227.80
845.65	227.80
845.97	227.79
846.28	227.73
846.60	227.69
846.91	227.67
847.22	227.66
847.54	227.66
847.85	227.70
848.16	227.69
848.48	227.68
848.79	227.70
849.10	227.73
849.42	227.65
849.73	227.56
850.04	227.55
850.36	227.48
850.67	227.49
850.98	227.52
851.30	227.50
851.61	227.48
851.92	227.45
852.23	227.44
852.55	227.44
852.86	227.49
853.17	227.50
853.49	227.50
853.80	227.50
854.11	227.49
854.42	227.49
854.74	227.46
855.05	227.45
855.36	227.42
855.67	227.40
855.99	227.41
856.30	227.54
856.61	227.56
856.92	227.56
857.23	227.56
857.55	227.54
857.86	227.53
858.17	227.56
858.48	227.58
858.79	227.59
859.11	227.59
859.42	227.59
859.73	227.55
860.04	227.54
860.35	227.49
860.66	227.47
860.98	227.46
861.29	227.46
861.60	227.46
861.91	227.47
862.22	227.45
862.53	227.44
862.84	227.32
863.16	227.34
863.47	227.32
863.78	227.30
864.09	227.30
864.40	227.31
864.71	227.30
865.02	227.31
865.33	227.28
865.64	227.26
865.95	227.26
866.27	227.31
866.58	227.33
866.89	227.38
867.20	227.41
867.51	227.40
867.82	227.41
868.13	227.43
868.44	227.43
868.75	227.46
869.06	227.45
869.37	227.45
869.68	227.42
869.99	227.44
870.30	227.44
870.61	227.44
870.92	227.45
871.23	227.45
871.54	227.46
871.85	227.51
872.16	227.52
872.47	227.51
872.78	227.50
873.09	227.52
873.40	227.48
873.71	227.46
874.02	227.48
874.33	227.47
874.64	227.45
874.95	227.46
875.26	227.40
875.56	227.43
875.87	227.44
876.18	227.44
876.49	227.57
876.80	227.55
877.11	227.57
877.42	227.59
877.73	227.56
878.04	227.55
878.35	227.52
878.66	227.54
878.96	227.55
879.27	227.53
879.58	227.53
879.89	227.52
880.20	227.55
880.51	227.51
880.82	227.50
881.12	227.53
881.43	227.50
881.74	227.52
882.05	227.53
882.36	227.51
882.67	227.50
882.97	227.36
883.28	227.38
883.59	227.35
883.90	227.32
884.21	227.32
884.51	227.30
884.82	227.29
885.13	227.24
885.44	227.21
885.74	227.18
886.05	227.19
886.36	227.19
886.67	227.14
886.98	227.25
887.28	227.29
887.59	227.23
887.90	227.23
888.20	227.24
888.51	227.22
888.82	227.24
889.13	227.26
889.43	227.37
889.74	227.30
890.05	227.29
890.35	227.28
890.66	227.28
890.97	227.28
891.28	227.26
891.58	227.27
891.89	227.26
892.20	227.30
892.50	227.27
892.81	227.27
893.12	227.27
893.42	227.20
893.73	227.13
894.04	227.14
894.34	227.13
894.65	227.13
894.95	227.13
895.26	227.12
895.57	227.10
895.87	226.97
896.18	227.00
896.48	227.02
896.79	227.04
897.10	227.07
897.40	227.06
897.71	227.08
898.01	227.08
898.32	227.07
898.63	227.05
898.93	227.01
899.24	226.97
899.54	226.97
899.85	226.91
900.15	226.93
900.46	226.92
900.76	226.94
901.07	226.88
901.38	226.87
901.68	226.87
901.99	226.87
902.29	226.90
902.60	226.90
902.90	226.88
903.21	226.85
903.51	226.82
903.82	226.83
904.12	226.83
904.43	226.82
904.73	226.82
905.03	226.81
905.34	226.93
905.64	226.94
905.95	226.94
906.25	226.97
906.56	226.94
906.86	226.94
907.17	226.90
907.47	226.93
907.77	226.91
908.08	226.87
908.38	226.85
908.69	226.83
908.99	226.82
909.30	226.85
909.60	226.85
909.90	226.87
910.21	226.87
910.51	226.88
910.81	226.87
911.12	226.94
911.42	226.93
911.73	226.82
912.03	226.82
912.33	226.86
912.64	226.85
912.94	226.86
913.24	226.85
913.55	226.85
913.85	226.86
914.15	226.88
914.46	226.90
914.76	226.91
915.06	226.91
915.37	226.90
915.67	226.89
915.97	226.86
916.27	226.87
916.58	226.84
916.88	226.83
917.18	226.84
917.49	226.86
917.79	226.87
918.09	226.89
918.39	226.95
918.70	226.90
919.00	226.91
919.30	226.97
919.60	226.95
919.91	226.95
920.21	226.93
920.51	226.93
920.81	226.93
921.12	226.95
921.42	226.95
921.72	227.01
922.02	226.96
922.32	227.01
922.63	226.94
922.93	227.01
923.23	227.01
923.53	227.01
923.83	226.97
924.13	226.96
924.44	226.93
924.74	226.93
925.04	226.99
925.34	227.00
925.64	226.93
925.94	226.92
926.24	226.99
926.55	227.00
926.85	226.98
927.15	226.99
927.45	226.98
927.75	226.98
928.05	226.95
928.35	226.97
928.65	226.97
928.95	227.00
929.26	226.90
929.56	226.91
929.86	226.90
930.16	226.89
930.46	226.90
930.76	226.90
931.06	226.85
931.36	226.82
931.66	226.80
931.96	226.85
932.26	226.87
932.56	226.83
932.86	226.84
933.16	226.82
933.46	226.83
933.76	226.83
934.06	226.86
934.36	226.86
934.66	226.85
934.96	226.85
935.26	226.87
935.56	226.93
935.86	226.90
936.16	226.88
936.46	226.88
936.76	226.84
937.06	226.86
937.36	226.86
937.66	226.84
937.96	226.81
938.26	226.75
938.56	226.71
938.86	226.68
939.16	226.69
939.46	226.72
939.76	226.70
940.06	226.66
940.35	226.63
940.65	226.61
940.95	226.62
941.25	226.60
941.55	226.60
941.85	226.57
942.15	226.59
942.45	226.61
942.75	226.58
943.04	226.59
943.34	226.56
943.64	226.53
943.94	226.55
944.24	226.59
944.54	226.61
944.84	226.66
945.13	226.68
945.43	226.68
945.73	226.65
946.03	226.64
946.33	226.66
946.62	226.61
946.92	226.61
947.22	226.64
947.52	226.66
947.82	226.64
948.11	226.64
948.41	226.66
948.71	226.61
949.01	226.64
949.31	226.64
949.60	226.65
949.90	226.70
950.20	226.70
950.50	226.67
950.79	226.65
951.09	226.64
951.39	226.63
951.69	226.64
951.98	226.65
952.28	226.67
952.58	226.66
952.87	226.69
953.17	226.68
953.47	226.64
953.76	226.65
954.06	226.67
954.36	226.65
954.66	226.65
954.95	226.72
955.25	226.71
955.55	226.74
955.84	226.75
956.14	226.75
956.44	226.75
956.73	226.76
957.03	226.81
957.32	226.82
957.62	226.84
957.92	226.84
958.21	226.86
958.51	226.93
958.81	226.94
959.10	226.98
959.40	227.01
959.69	227.05
959.99	227.05
960.29	227.04
960.58	227.07
960.88	227.10
961.17	227.10
961.47	227.14
961.76	227.13
962.06	227.17
962.36	227.15
962.65	227.15
962.95	227.18
963.24	227.16
963.54	227.17
963.83	227.17
964.13	227.18
964.42	227.17
964.72	227.12
965.01	227.17
965.31	227.14
965.60	227.15
965.90	227.20
966.19	227.20
966.49	227.21
966.78	227.20
967.08	227.18
967.37	227.16
967.67	227.14
967.96	227.16
968.26	227.14
968.55	227.17
968.85	227.20
969.14	227.20
969.43	227.19
969.73	227.17
970.02	227.13
970.32	227.12
970.61	227.10
970.91	227.06
971.20	227.03
971.49	227.00
971.79	226.98
972.08	226.91
972.38	226.87
972.67	226.83
972.96	226.87
973.26	226.85
973.55	226.87
973.85	226.86
974.14	226.83
974.43	226.83
974.73	226.81
975.02	226.75
975.31	226.71
975.61	226.70
975.90	226.69
976.19	226.72
976.49	226.70
976.78	226.74
977.07	226.73
977.37	226.75
977.66	226.75
977.95	226.75
978.24	226.75
978.54	226.78
978.83	226.77
979.12	226.72
979.42	226.74
979.71	226.70
980.00	226.70
980.29	226.71
980.59	226.67
980.88	226.70
981.17	226.69
981.46	226.70
981.76	226.71
982.05	226.72
982.34	226.72
982.63	226.72
982.93	226.69
983.22	226.75
983.51	226.74
983.80	226.80
984.09	226.80
984.39	226.81
984.68	226.80
984.97	226.80
985.26	226.79
985.55	226.77
985.85	226.76
986.14	226.76
986.43	226.77
986.72	226.78
987.01	226.73
987.30	226.74
987.59	226.72
987.89	226.72
988.18	226.71
988.47	226.68
988.76	226.70
989.05	226.70
989.34	226.66
989.63	226.68
989.92	226.67
990.22	226.68
990.51	226.67
990.80	226.68
991.09	226.73
991.38	226.78
991.67	226.78
991.96	226.78
992.25	226.78
992.54	226.76
992.83	226.76
993.12	226.79
993.41	226.83
993.70	226.85
993.99	226.86
994.28	226.87
994.58	226.89
994.87	226.87
995.16	226.84
995.45	226.84
995.74	226.78
996.03	226.79
996.32	226.81
996.61	226.86
996.90	226.84
997.19	226.82
997.48	226.80
997.77	226.82
998.06	226.82
998.34	226.81
998.63	226.82
998.92	226.82
999.21	226.84
999.50	226.81
999.79	226.79
1000.08	226.83
1000.37	226.82
1000.66	226.81
1000.95	226.83
1001.24	226.87
1001.53	226.86
1001.82	226.88
1002.11	226.86
1002.40	226.85
1002.68	226.82
1002.97	226.88
1003.26	226.88
1003.55	226.88
1003.84	226.89
1004.13	226.93
1004.42	226.95
1004.71	226.99
1004.99	226.99
1005.28	227.01
1005.57	227.03
1005.86	227.03
1006.15	227.02
1006.44	227.05
1006.72	227.09
1007.01	227.10
1007.30	227.12
1007.59	227.12
1007.88	227.13
1008.17	227.10
1008.45	227.10
1008.74	227.07
1009.03	227.03
1009.32	227.05
1009.60	227.02
1009.89	227.00
1010.18	226.94
1010.47	226.94
1010.76	226.88
1011.04	226.89
1011.33	226.88
1011.62	226.89
1011.91	226.91
1012.19	226.89
1012.48	226.84
1012.77	226.81
1013.05	226.84
1013.34	226.85
1013.63	226.81
1013.92	226.82
1014.20	226.83
1014.49	226.81
1014.78	226.81
1015.06	226.80
1015.35	226.76
1015.64	226.77
1015.92	226.78
1016.21	226.77
1016.50	226.76
1016.78	226.75
1017.07	226.73
1017.36	226.71
1017.64	226.68
1017.93	226.68
1018.22	226.68
1018.50	226.67
1018.79	226.70
1019.08	226.64
1019.36	226.60
1019.65	226.61
1019.93	226.64
1020.22	226.65
1020.51	226.69
1020.79	226.68
1021.08	226.68
1021.36	226.36
1021.65	227.20
1021.94	226.66
1022.22	226.48
1022.51	226.30
1022.79	227.49
1023.08	227.04
1023.36	227.58
1023.65	226.31
>>>>>End Processed Spectral Data<<<<<
