SpectraSuite Data File
++++++++++++++++++++++++++++++++++++
Date: Fri Feb 01 16:33:45 EST 2013
User: group
Dark Spectrum Present: No
Reference Spectrum Present: No
Number of Sampled Component Spectra: 1
Spectrometers: USB2E7196
Integration Time (usec): 35000 (USB2E7196)
Spectra Averaged: 100 (USB2E7196)
Boxcar Smoothing: 10 (USB2E7196)
Correct for Electrical Dark: No (USB2E7196)
Strobe/Lamp Enabled: No (USB2E7196)
Correct for Detector Non-linearity: No (USB2E7196)
Correct for Stray Light: No (USB2E7196)
Number of Pixels in Processed Spectrum: 2048
>>>>>Begin Processed Spectral Data<<<<<
339.09	0.00
339.48	213.94
339.86	215.57
340.24	216.62
340.63	217.81
341.01	221.09
341.39	221.23
341.78	222.35
342.16	223.44
342.54	223.89
342.93	212.44
343.31	223.18
343.69	223.71
344.07	224.16
344.46	224.59
344.84	225.00
345.22	225.22
345.60	225.45
345.99	225.64
346.37	225.75
346.75	225.84
347.13	225.90
347.52	225.96
347.90	226.02
348.28	226.03
348.66	226.06
349.05	226.06
349.43	226.11
349.81	226.14
350.19	226.20
350.57	226.25
350.96	226.31
351.34	226.38
351.72	226.49
352.10	226.59
352.48	226.65
352.87	226.69
353.25	226.77
353.63	226.80
354.01	226.86
354.39	226.97
354.77	227.06
355.15	227.14
355.54	227.21
355.92	227.25
356.30	227.32
356.68	227.45
357.06	227.52
357.44	227.55
357.82	227.65
358.20	227.72
358.58	227.76
358.97	227.83
359.35	227.89
359.73	227.92
360.11	227.96
360.49	228.01
360.87	228.04
361.25	228.11
361.63	228.22
362.01	228.25
362.39	228.22
362.77	228.24
363.15	228.23
363.53	228.23
363.91	228.25
364.29	228.27
364.67	228.21
365.05	228.25
365.43	228.25
365.81	228.24
366.19	228.29
366.57	228.32
366.95	228.32
367.33	228.29
367.71	228.33
368.09	228.34
368.47	228.33
368.85	228.33
369.23	228.29
369.61	228.23
369.99	228.23
370.37	228.24
370.75	228.28
371.13	228.25
371.51	228.21
371.89	228.18
372.27	228.13
372.65	228.07
373.03	227.99
373.41	227.97
373.78	227.92
374.16	227.81
374.54	227.75
374.92	227.70
375.30	227.66
375.68	227.56
376.06	227.51
376.44	227.43
376.82	227.39
377.19	227.32
377.57	227.27
377.95	227.17
378.33	227.10
378.71	226.94
379.09	226.89
379.47	226.84
379.84	226.74
380.22	226.65
380.60	226.56
380.98	226.50
381.36	226.42
381.73	226.37
382.11	226.34
382.49	226.23
382.87	226.17
383.25	226.10
383.62	226.16
384.00	226.08
384.38	226.05
384.76	226.05
385.13	226.05
385.51	225.98
385.89	225.95
386.27	225.92
386.64	225.92
387.02	225.87
387.40	225.84
387.78	225.82
388.15	225.82
388.53	225.81
388.91	225.78
389.29	225.77
389.66	225.74
390.04	225.71
390.42	225.76
390.79	225.73
391.17	225.73
391.55	225.65
391.92	225.64
392.30	225.67
392.68	225.60
393.05	225.59
393.43	225.59
393.81	225.57
394.18	225.58
394.56	225.62
394.94	225.66
395.31	225.68
395.69	225.74
396.06	225.76
396.44	225.80
396.82	225.83
397.19	225.90
397.57	225.93
397.95	225.94
398.32	225.94
398.70	226.01
399.07	226.07
399.45	226.12
399.82	226.19
400.20	226.24
400.58	226.33
400.95	226.37
401.33	226.47
401.70	226.64
402.08	226.71
402.45	226.75
402.83	226.84
403.20	226.96
403.58	227.03
403.95	227.14
404.33	227.23
404.71	227.37
405.08	227.53
405.46	227.66
405.83	227.84
406.21	227.97
406.58	228.11
406.96	228.25
407.33	228.40
407.70	228.58
408.08	228.86
408.45	229.06
408.83	229.28
409.20	229.50
409.58	229.66
409.95	229.91
410.33	230.19
410.70	230.44
411.08	230.73
411.45	231.05
411.82	231.38
412.20	231.78
412.57	232.20
412.95	232.48
413.32	232.89
413.69	233.29
414.07	233.74
414.44	234.20
414.82	234.70
415.19	235.25
415.56	235.78
415.94	236.31
416.31	236.95
416.68	237.58
417.06	238.28
417.43	238.97
417.81	239.77
418.18	240.57
418.55	241.41
418.93	242.25
419.30	243.14
419.67	244.07
420.04	244.98
420.42	245.96
420.79	247.16
421.16	248.33
421.54	249.52
421.91	250.74
422.28	251.99
422.66	253.31
423.03	254.60
423.40	255.94
423.77	257.32
424.15	258.74
424.52	260.23
424.89	261.86
425.26	263.42
425.64	264.85
426.01	266.40
426.38	268.03
426.75	269.69
427.13	271.41
427.50	273.19
427.87	275.08
428.24	276.93
428.61	278.65
428.99	280.56
429.36	282.64
429.73	284.67
430.10	286.71
430.47	288.78
430.85	290.91
431.22	293.14
431.59	295.50
431.96	297.71
432.33	300.16
432.70	302.49
433.08	305.26
433.45	307.83
433.82	310.41
434.19	313.30
434.56	316.15
434.93	318.76
435.30	321.34
435.68	324.19
436.05	326.99
436.42	329.77
436.79	332.28
437.16	334.97
437.53	337.80
437.90	340.60
438.27	343.30
438.64	346.06
439.01	348.62
439.38	350.86
439.75	353.01
440.13	355.53
440.50	357.85
440.87	359.67
441.24	361.59
441.61	363.76
441.98	365.24
442.35	366.93
442.72	368.79
443.09	370.58
443.46	371.56
443.83	372.14
444.20	372.60
444.57	373.40
444.94	373.66
445.31	373.98
445.68	374.26
446.05	374.29
446.42	373.95
446.79	373.52
447.16	373.06
447.53	372.76
447.90	371.56
448.27	370.39
448.64	368.84
449.01	367.73
449.37	365.79
449.74	363.86
450.11	361.69
450.48	359.21
450.85	356.70
451.22	354.56
451.59	352.56
451.96	350.67
452.33	348.07
452.70	345.75
453.07	342.96
453.43	340.10
453.80	337.41
454.17	334.73
454.54	332.18
454.91	329.44
455.28	326.79
455.65	324.31
456.02	321.87
456.38	319.73
456.75	317.11
457.12	314.85
457.49	312.69
457.86	310.49
458.23	308.69
458.59	306.68
458.96	304.62
459.33	302.75
459.70	300.87
460.07	299.40
460.43	297.67
460.80	296.06
461.17	294.64
461.54	293.12
461.91	291.71
462.27	290.32
462.64	289.09
463.01	287.72
463.38	286.46
463.74	285.12
464.11	283.98
464.48	282.94
464.85	281.84
465.21	280.96
465.58	280.10
465.95	279.01
466.32	278.11
466.68	277.20
467.05	276.33
467.42	275.49
467.78	274.58
468.15	273.73
468.52	273.06
468.88	272.21
469.25	271.45
469.62	270.83
469.98	270.13
470.35	269.53
470.72	268.94
471.08	268.29
471.45	267.74
471.82	267.20
472.18	266.66
472.55	266.25
472.92	265.76
473.28	265.26
473.65	264.80
474.02	264.38
474.38	264.04
474.75	263.75
475.11	263.39
475.48	263.16
475.85	262.92
476.21	262.73
476.58	262.58
476.94	262.46
477.31	262.31
477.67	262.25
478.04	262.16
478.41	262.12
478.77	262.21
479.14	262.16
479.50	262.17
479.87	262.21
480.23	262.27
480.60	262.34
480.96	262.46
481.33	262.69
481.69	262.89
482.06	263.09
482.42	263.28
482.79	263.55
483.15	263.82
483.52	264.23
483.88	264.53
484.25	264.88
484.61	265.29
484.98	265.74
485.34	266.24
485.71	266.80
486.07	267.41
486.44	267.93
486.80	268.67
487.17	269.40
487.53	270.24
487.90	271.09
488.26	272.05
488.62	273.02
488.99	273.97
489.35	274.99
489.72	276.13
490.08	277.33
490.44	278.55
490.81	279.91
491.17	281.25
491.54	282.73
491.90	284.28
492.26	285.91
492.63	287.63
492.99	289.42
493.36	291.32
493.72	293.42
494.08	295.51
494.45	297.74
494.81	300.05
495.17	302.47
495.54	305.09
495.90	307.79
496.26	310.59
496.63	313.60
496.99	316.76
497.35	320.01
497.72	323.43
498.08	327.00
498.44	330.68
498.80	334.61
499.17	338.70
499.53	342.92
499.89	347.31
500.26	351.82
500.62	356.55
500.98	361.55
501.34	366.59
501.71	371.94
502.07	377.41
502.43	383.08
502.79	388.93
503.16	395.02
503.52	401.29
503.88	407.74
504.24	414.34
504.60	421.22
504.97	428.37
505.33	435.68
505.69	443.42
506.05	451.19
506.41	459.06
506.78	467.24
507.14	475.73
507.50	484.47
507.86	493.58
508.22	502.74
508.59	511.95
508.95	521.53
509.31	531.39
509.67	541.49
510.03	551.81
510.39	562.34
510.75	573.13
511.12	584.07
511.48	595.34
511.84	606.80
512.20	618.27
512.56	630.18
512.92	642.38
513.28	654.67
513.64	667.20
514.00	679.99
514.37	692.92
514.73	705.92
515.09	718.93
515.45	732.12
515.81	745.77
516.17	759.74
516.53	773.84
516.89	787.97
517.25	802.16
517.61	816.60
517.97	831.05
518.33	845.45
518.69	860.22
519.05	875.14
519.41	890.31
519.77	905.87
520.13	921.22
520.49	936.56
520.85	951.95
521.21	967.47
521.57	983.65
521.93	999.30
522.29	1015.65
522.65	1031.91
523.01	1048.06
523.37	1063.96
523.73	1080.08
524.09	1096.15
524.45	1112.29
524.81	1128.91
525.17	1145.60
525.53	1162.41
525.89	1179.27
526.25	1195.95
526.61	1212.36
526.97	1228.92
527.33	1245.39
527.68	1261.89
528.04	1278.35
528.40	1294.79
528.76	1311.84
529.12	1328.31
529.48	1345.15
529.84	1360.95
530.20	1377.43
530.56	1394.25
530.91	1411.61
531.27	1428.28
531.63	1444.65
531.99	1461.27
532.35	1477.10
532.71	1492.83
533.07	1509.01
533.42	1524.78
533.78	1540.80
534.14	1556.95
534.50	1572.25
534.86	1588.01
535.21	1603.12
535.57	1618.89
535.93	1634.18
536.29	1648.80
536.65	1663.71
537.00	1678.29
537.36	1693.58
537.72	1707.99
538.08	1722.42
538.44	1736.05
538.79	1749.76
539.15	1763.11
539.51	1776.69
539.87	1790.76
540.22	1804.29
540.58	1817.78
540.94	1830.71
541.29	1843.26
541.65	1855.67
542.01	1868.77
542.37	1880.76
542.72	1892.96
543.08	1904.60
543.44	1916.88
543.79	1927.94
544.15	1938.80
544.51	1950.38
544.87	1961.27
545.22	1971.99
545.58	1982.09
545.94	1991.74
546.29	2001.49
546.65	2011.46
547.01	2020.64
547.36	2029.39
547.72	2037.96
548.07	2045.90
548.43	2054.08
548.79	2062.13
549.14	2069.73
549.50	2076.95
549.86	2084.55
550.21	2091.97
550.57	2099.11
550.92	2105.87
551.28	2113.14
551.64	2120.15
551.99	2126.56
552.35	2132.66
552.70	2138.81
553.06	2144.79
553.41	2151.11
553.77	2157.17
554.13	2163.20
554.48	2169.30
554.84	2174.79
555.19	2180.00
555.55	2185.14
555.90	2189.80
556.26	2194.75
556.61	2199.44
556.97	2203.91
557.32	2208.15
557.68	2212.29
558.03	2216.60
558.39	2220.04
558.74	2224.64
559.10	2228.60
559.45	2232.30
559.81	2236.57
560.16	2240.41
560.52	2243.58
560.87	2246.93
561.23	2249.50
561.58	2252.32
561.94	2254.79
562.29	2257.15
562.64	2259.93
563.00	2262.44
563.35	2265.87
563.71	2269.01
564.06	2272.18
564.42	2275.03
564.77	2277.64
565.12	2280.08
565.48	2281.93
565.83	2284.08
566.19	2285.37
566.54	2286.18
566.89	2287.42
567.25	2288.13
567.60	2289.47
567.96	2291.34
568.31	2292.27
568.66	2293.52
569.02	2294.10
569.37	2294.55
569.72	2295.46
570.08	2295.61
570.43	2295.77
570.78	2295.33
571.14	2293.76
571.49	2292.45
571.84	2292.02
572.20	2291.09
572.55	2290.00
572.90	2288.39
573.26	2286.90
573.61	2285.24
573.96	2283.72
574.31	2280.71
574.67	2277.66
575.02	2274.06
575.37	2270.60
575.72	2266.89
576.08	2263.41
576.43	2260.28
576.78	2256.75
577.13	2253.55
577.49	2250.45
577.84	2247.17
578.19	2243.30
578.54	2239.91
578.90	2235.91
579.25	2230.54
579.60	2225.50
579.95	2220.49
580.30	2215.60
580.66	2210.57
581.01	2205.66
581.36	2200.74
581.71	2196.61
582.06	2192.34
582.42	2187.89
582.77	2182.75
583.12	2178.31
583.47	2173.92
583.82	2169.22
584.17	2163.94
584.53	2158.45
584.88	2152.96
585.23	2147.23
585.58	2141.82
585.93	2136.25
586.28	2131.41
586.63	2126.31
586.98	2121.30
587.34	2116.69
587.69	2111.94
588.04	2106.78
588.39	2101.16
588.74	2094.73
589.09	2088.62
589.44	2081.83
589.79	2075.80
590.14	2070.20
590.49	2063.67
590.84	2057.19
591.19	2050.99
591.54	2044.52
591.89	2037.39
592.25	2030.58
592.60	2023.31
592.95	2015.87
593.30	2008.61
593.65	2001.17
594.00	1994.08
594.35	1986.79
594.70	1978.76
595.05	1971.78
595.40	1964.62
595.75	1957.25
596.10	1951.09
596.45	1944.51
596.80	1938.52
597.15	1932.10
597.50	1925.22
597.85	1918.80
598.19	1912.26
598.54	1905.37
598.89	1898.98
599.24	1893.06
599.59	1886.59
599.94	1880.39
600.29	1874.11
600.64	1867.58
600.99	1860.26
601.34	1853.80
601.69	1846.96
602.04	1840.14
602.39	1832.81
602.74	1826.07
603.08	1819.26
603.43	1812.53
603.78	1805.25
604.13	1798.02
604.48	1790.80
604.83	1783.84
605.18	1777.05
605.53	1769.19
605.87	1761.06
606.22	1753.63
606.57	1745.61
606.92	1738.03
607.27	1730.93
607.62	1724.14
607.96	1716.96
608.31	1710.32
608.66	1702.65
609.01	1695.10
609.36	1687.57
609.70	1679.43
610.05	1671.24
610.40	1663.64
610.75	1655.30
611.10	1647.57
611.44	1639.09
611.79	1630.95
612.14	1622.30
612.49	1613.03
612.83	1604.52
613.18	1596.45
613.53	1588.56
613.88	1580.12
614.22	1571.96
614.57	1563.28
614.92	1555.16
615.27	1547.69
615.61	1539.38
615.96	1531.23
616.31	1523.63
616.65	1516.24
617.00	1508.75
617.35	1501.08
617.70	1492.85
618.04	1484.46
618.39	1476.23
618.74	1468.64
619.08	1460.41
619.43	1452.85
619.78	1445.88
620.12	1438.76
620.47	1431.26
620.82	1423.01
621.16	1415.63
621.51	1408.01
621.85	1400.52
622.20	1392.19
622.55	1383.56
622.89	1375.69
623.24	1368.14
623.59	1360.61
623.93	1353.09
624.28	1345.76
624.62	1338.30
624.97	1331.05
625.32	1324.22
625.66	1317.31
626.01	1310.16
626.35	1302.77
626.70	1295.03
627.04	1287.43
627.39	1279.69
627.73	1272.20
628.08	1265.26
628.43	1257.96
628.77	1250.69
629.12	1243.10
629.46	1235.86
629.81	1228.45
630.15	1221.22
630.50	1213.83
630.84	1205.79
631.19	1197.77
631.53	1190.29
631.88	1182.70
632.22	1175.01
632.57	1167.65
632.91	1160.01
633.26	1152.68
633.60	1145.23
633.95	1137.96
634.29	1130.75
634.64	1124.08
634.98	1116.71
635.32	1109.54
635.67	1102.85
636.01	1096.20
636.36	1089.37
636.70	1082.82
637.05	1076.41
637.39	1069.95
637.73	1063.43
638.08	1057.47
638.42	1051.60
638.77	1045.12
639.11	1038.64
639.45	1032.41
639.80	1025.82
640.14	1019.43
640.49	1012.87
640.83	1006.61
641.17	1000.60
641.52	994.37
641.86	987.81
642.20	982.04
642.55	975.71
642.89	969.28
643.23	962.66
643.58	956.93
643.92	950.69
644.26	944.71
644.61	938.62
644.95	932.64
645.29	926.12
645.64	919.38
645.98	913.02
646.32	907.06
646.66	900.95
647.01	895.16
647.35	889.52
647.69	883.63
648.04	878.11
648.38	872.22
648.72	866.25
649.06	860.30
649.41	854.31
649.75	848.42
650.09	842.53
650.43	836.76
650.78	830.70
651.12	824.87
651.46	819.10
651.80	813.42
652.14	807.96
652.49	802.60
652.83	797.38
653.17	791.83
653.51	786.17
653.85	780.69
654.20	775.03
654.54	769.03
654.88	763.24
655.22	757.31
655.56	751.67
655.90	746.13
656.25	740.86
656.59	735.56
656.93	730.43
657.27	725.30
657.61	719.88
657.95	714.66
658.29	709.49
658.64	704.14
658.98	698.73
659.32	693.30
659.66	688.14
660.00	682.90
660.34	677.93
660.68	672.98
661.02	668.04
661.36	663.35
661.70	658.86
662.05	654.57
662.39	650.32
662.73	645.83
663.07	641.50
663.41	637.04
663.75	632.54
664.09	628.01
664.43	623.55
664.77	619.40
665.11	615.18
665.45	611.01
665.79	606.96
666.13	602.93
666.47	598.76
666.81	594.51
667.15	590.36
667.49	586.48
667.83	582.59
668.17	578.60
668.51	574.49
668.85	570.42
669.19	566.51
669.53	562.61
669.87	558.76
670.21	555.02
670.55	551.34
670.89	547.89
671.23	544.46
671.57	540.94
671.91	537.43
672.25	533.90
672.58	530.37
672.92	526.91
673.26	523.72
673.60	520.54
673.94	517.47
674.28	514.51
674.62	511.50
674.96	508.43
675.30	505.57
675.64	502.62
675.97	499.83
676.31	497.00
676.65	494.06
676.99	491.35
677.33	488.43
677.67	485.60
678.01	482.62
678.34	479.63
678.68	476.78
679.02	473.95
679.36	471.16
679.70	468.44
680.04	465.72
680.37	462.82
680.71	460.07
681.05	457.40
681.39	454.71
681.73	452.05
682.06	449.50
682.40	446.91
682.74	444.37
683.08	441.80
683.42	439.18
683.75	436.71
684.09	434.05
684.43	431.65
684.77	429.20
685.10	426.84
685.44	424.53
685.78	422.21
686.12	419.92
686.45	417.59
686.79	415.32
687.13	413.13
687.46	410.99
687.80	408.84
688.14	406.62
688.48	404.64
688.81	402.42
689.15	400.30
689.49	398.17
689.82	396.11
690.16	394.05
690.50	392.09
690.83	390.14
691.17	388.25
691.51	386.34
691.84	384.48
692.18	382.51
692.52	380.56
692.85	378.63
693.19	376.77
693.52	375.01
693.86	373.19
694.20	371.40
694.53	369.62
694.87	367.72
695.21	365.92
695.54	364.04
695.88	362.26
696.21	360.54
696.55	358.86
696.88	357.20
697.22	355.48
697.56	353.84
697.89	352.24
698.23	350.64
698.56	349.02
698.90	347.43
699.23	345.87
699.57	344.29
699.90	342.79
700.24	341.23
700.58	339.68
700.91	338.22
701.25	336.75
701.58	335.38
701.92	334.03
702.25	332.70
702.59	331.37
702.92	330.07
703.26	328.71
703.59	327.45
703.93	326.21
704.26	325.05
704.60	323.71
704.93	322.38
705.26	321.10
705.60	319.92
705.93	318.79
706.27	317.72
706.60	316.66
706.94	315.56
707.27	314.42
707.61	313.33
707.94	312.25
708.27	311.14
708.61	310.02
708.94	309.02
709.28	307.99
709.61	306.98
709.94	306.07
710.28	305.05
710.61	304.03
710.95	302.97
711.28	302.02
711.61	301.10
711.95	300.22
712.28	299.25
712.61	298.27
712.95	297.32
713.28	296.41
713.61	295.49
713.95	294.61
714.28	293.77
714.61	292.92
714.95	292.08
715.28	291.23
715.61	290.35
715.95	289.46
716.28	288.61
716.61	287.75
716.95	286.87
717.28	286.13
717.61	285.39
717.94	284.63
718.28	283.79
718.61	283.06
718.94	282.31
719.27	281.66
719.61	280.97
719.94	280.29
720.27	279.57
720.60	278.90
720.94	278.22
721.27	277.62
721.60	277.00
721.93	276.44
722.27	275.89
722.60	275.37
722.93	274.82
723.26	274.27
723.59	273.70
723.93	273.18
724.26	272.63
724.59	272.04
724.92	271.55
725.25	271.07
725.59	270.54
725.92	270.03
726.25	269.52
726.58	269.08
726.91	268.59
727.24	268.10
727.57	267.63
727.91	267.11
728.24	266.62
728.57	266.16
728.90	265.69
729.23	265.21
729.56	264.77
729.89	264.32
730.22	263.86
730.55	263.43
730.89	262.99
731.22	262.55
731.55	262.14
731.88	261.70
732.21	261.29
732.54	260.87
732.87	260.46
733.20	260.07
733.53	259.66
733.86	259.30
734.19	258.91
734.52	258.54
734.85	258.28
735.18	257.87
735.51	257.50
735.84	257.10
736.17	256.75
736.50	256.35
736.83	256.13
737.16	255.82
737.49	255.48
737.82	255.12
738.15	254.80
738.48	254.44
738.81	254.11
739.14	253.81
739.47	253.49
739.80	253.23
740.13	252.90
740.46	252.61
740.79	252.28
741.12	252.00
741.45	251.70
741.78	251.35
742.11	251.14
742.44	250.83
742.77	250.55
743.10	250.25
743.43	249.96
743.75	249.59
744.08	249.41
744.41	249.14
744.74	248.88
745.07	248.59
745.40	248.36
745.73	248.14
746.06	247.83
746.39	247.57
746.71	247.28
747.04	247.02
747.37	246.77
747.70	246.50
748.03	246.23
748.36	246.01
748.68	245.76
749.01	245.47
749.34	245.24
749.67	245.00
750.00	244.80
750.33	244.61
750.65	244.37
750.98	244.02
751.31	243.76
751.64	243.55
751.97	243.39
752.29	243.19
752.62	242.89
752.95	242.68
753.28	242.45
753.60	242.22
753.93	242.05
754.26	241.79
754.59	241.59
754.91	241.34
755.24	241.12
755.57	240.92
755.90	240.72
756.22	240.51
756.55	240.30
756.88	240.07
757.20	239.85
757.53	239.64
757.86	239.47
758.19	239.33
758.51	239.15
758.84	238.92
759.17	238.74
759.49	238.58
759.82	238.44
760.15	238.29
760.47	238.11
760.80	237.93
761.13	237.81
761.45	237.63
761.78	237.54
762.11	237.36
762.43	237.22
762.76	237.09
763.08	236.99
763.41	236.89
763.74	236.76
764.06	236.63
764.39	236.48
764.71	236.31
765.04	236.18
765.37	236.03
765.69	235.89
766.02	235.73
766.34	235.61
766.67	235.48
767.00	235.36
767.32	235.34
767.65	235.27
767.97	235.15
768.30	235.07
768.62	234.92
768.95	234.85
769.27	234.73
769.60	234.65
769.92	234.51
770.25	234.39
770.57	234.29
770.90	234.20
771.22	234.11
771.55	234.06
771.87	233.96
772.20	233.90
772.52	233.91
772.85	233.96
773.17	233.88
773.50	233.80
773.82	233.71
774.15	233.56
774.47	233.43
774.80	233.37
775.12	233.29
775.45	233.21
775.77	233.12
776.09	233.08
776.42	232.99
776.74	232.96
777.07	232.86
777.39	232.79
777.72	232.68
778.04	232.66
778.36	232.59
778.69	232.55
779.01	232.50
779.33	232.34
779.66	232.14
779.98	232.09
780.31	232.04
780.63	232.04
780.95	232.02
781.28	231.96
781.60	231.90
781.92	231.84
782.25	231.78
782.57	231.75
782.89	231.68
783.22	231.63
783.54	231.55
783.86	231.53
784.19	231.48
784.51	231.49
784.83	231.42
785.16	231.36
785.48	231.27
785.80	231.26
786.12	231.22
786.45	231.16
786.77	231.08
787.09	231.03
787.42	230.98
787.74	230.92
788.06	230.89
788.38	230.81
788.71	230.74
789.03	230.68
789.35	230.63
789.67	230.56
789.99	230.47
790.32	230.41
790.64	230.37
790.96	230.38
791.28	230.28
791.61	230.22
791.93	230.16
792.25	230.11
792.57	230.10
792.89	230.03
793.21	230.00
793.54	229.97
793.86	229.88
794.18	229.79
794.50	229.72
794.82	229.65
795.14	229.62
795.47	229.59
795.79	229.54
796.11	229.46
796.43	229.41
796.75	229.41
797.07	229.36
797.39	229.32
797.71	229.19
798.04	229.15
798.36	229.10
798.68	229.05
799.00	229.01
799.32	228.93
799.64	228.91
799.96	228.86
800.28	228.78
800.60	228.70
800.92	228.68
801.24	228.63
801.56	228.62
801.89	228.54
802.21	228.51
802.53	228.49
802.85	228.48
803.17	228.49
803.49	228.42
803.81	228.36
804.13	228.29
804.45	228.28
804.77	228.27
805.09	228.24
805.41	228.23
805.73	228.21
806.05	228.15
806.37	228.11
806.69	228.08
807.01	228.08
807.33	228.10
807.65	228.04
807.97	228.08
808.28	228.02
808.60	228.02
808.92	228.00
809.24	228.02
809.56	227.99
809.88	227.96
810.20	227.94
810.52	227.97
810.84	227.95
811.16	227.96
811.48	227.94
811.80	227.98
812.12	227.95
812.43	227.95
812.75	227.92
813.07	227.89
813.39	227.92
813.71	227.91
814.03	227.91
814.35	227.93
814.67	227.86
814.98	227.88
815.30	227.91
815.62	227.90
815.94	227.85
816.26	227.89
816.58	227.85
816.89	227.87
817.21	227.82
817.53	227.81
817.85	227.77
818.17	227.78
818.48	227.70
818.80	227.71
819.12	227.68
819.44	227.71
819.76	227.68
820.07	227.65
820.39	227.66
820.71	227.64
821.03	227.65
821.34	227.65
821.66	227.63
821.98	227.61
822.30	227.59
822.61	227.64
822.93	227.59
823.25	227.59
823.57	227.59
823.88	227.63
824.20	227.59
824.52	227.61
824.83	227.60
825.15	227.60
825.47	227.59
825.79	227.58
826.10	227.54
826.42	227.56
826.74	227.56
827.05	227.52
827.37	227.51
827.69	227.46
828.00	227.49
828.32	227.46
828.64	227.44
828.95	227.47
829.27	227.43
829.58	227.42
829.90	227.41
830.22	227.36
830.53	227.32
830.85	227.34
831.17	227.28
831.48	227.24
831.80	227.22
832.11	227.18
832.43	227.15
832.75	227.10
833.06	227.11
833.38	227.05
833.69	227.04
834.01	227.03
834.32	227.00
834.64	226.95
834.96	226.96
835.27	226.93
835.59	226.88
835.90	226.84
836.22	226.79
836.53	226.77
836.85	226.73
837.16	226.80
837.48	226.82
837.79	226.86
838.11	226.88
838.42	226.87
838.74	226.86
839.05	226.87
839.37	226.88
839.68	226.85
840.00	226.85
840.31	226.82
840.63	226.80
840.94	226.79
841.26	226.77
841.57	226.73
841.88	226.77
842.20	226.76
842.51	226.73
842.83	226.74
843.14	226.86
843.46	226.90
843.77	226.84
844.08	226.80
844.40	226.77
844.71	226.74
845.03	226.72
845.34	226.74
845.65	226.71
845.97	226.70
846.28	226.70
846.60	226.72
846.91	226.74
847.22	226.75
847.54	226.76
847.85	226.75
848.16	226.78
848.48	226.73
848.79	226.78
849.10	226.80
849.42	226.81
849.73	226.66
850.04	226.63
850.36	226.61
850.67	226.65
850.98	226.64
851.30	226.63
851.61	226.61
851.92	226.61
852.23	226.66
852.55	226.68
852.86	226.70
853.17	226.72
853.49	226.73
853.80	226.74
854.11	226.76
854.42	226.77
854.74	226.74
855.05	226.76
855.36	226.68
855.67	226.69
855.99	226.69
856.30	226.83
856.61	226.85
856.92	226.87
857.23	226.87
857.55	226.86
857.86	226.86
858.17	226.88
858.48	226.85
858.79	226.80
859.11	226.78
859.42	226.72
859.73	226.70
860.04	226.69
860.35	226.68
860.66	226.64
860.98	226.63
861.29	226.63
861.60	226.62
861.91	226.63
862.22	226.60
862.53	226.56
862.84	226.45
863.16	226.47
863.47	226.40
863.78	226.38
864.09	226.39
864.40	226.38
864.71	226.38
865.02	226.40
865.33	226.37
865.64	226.35
865.95	226.37
866.27	226.43
866.58	226.42
866.89	226.41
867.20	226.39
867.51	226.38
867.82	226.38
868.13	226.38
868.44	226.37
868.75	226.39
869.06	226.44
869.37	226.41
869.68	226.39
869.99	226.38
870.30	226.36
870.61	226.36
870.92	226.34
871.23	226.33
871.54	226.33
871.85	226.37
872.16	226.37
872.47	226.32
872.78	226.26
873.09	226.27
873.40	226.27
873.71	226.31
874.02	226.29
874.33	226.27
874.64	226.27
874.95	226.29
875.26	226.23
875.56	226.17
875.87	226.19
876.18	226.10
876.49	226.24
876.80	226.21
877.11	226.15
877.42	226.18
877.73	226.18
878.04	226.16
878.35	226.18
878.66	226.20
878.96	226.21
879.27	226.22
879.58	226.17
879.89	226.17
880.20	226.18
880.51	226.20
880.82	226.18
881.12	226.19
881.43	226.15
881.74	226.18
882.05	226.20
882.36	226.21
882.67	226.24
882.97	226.16
883.28	226.16
883.59	226.17
883.90	226.14
884.21	226.14
884.51	226.14
884.82	226.14
885.13	226.13
885.44	226.16
885.74	226.15
886.05	226.17
886.36	226.14
886.67	226.10
886.98	226.13
887.28	226.17
887.59	226.16
887.90	226.21
888.20	226.16
888.51	226.20
888.82	226.21
889.13	226.23
889.43	226.31
889.74	226.29
890.05	226.31
890.35	226.34
890.66	226.31
890.97	226.29
891.28	226.25
891.58	226.25
891.89	226.23
892.20	226.21
892.50	226.19
892.81	226.21
893.12	226.21
893.42	226.18
893.73	226.14
894.04	226.15
894.34	226.16
894.65	226.17
894.95	226.13
895.26	226.10
895.57	226.18
895.87	226.06
896.18	226.10
896.48	226.09
896.79	226.06
897.10	226.09
897.40	226.12
897.71	226.15
898.01	226.15
898.32	226.16
898.63	226.15
898.93	226.15
899.24	226.18
899.54	226.16
899.85	226.16
900.15	226.14
900.46	226.15
900.76	226.15
901.07	226.15
901.38	226.17
901.68	226.17
901.99	226.08
902.29	226.11
902.60	226.09
902.90	226.09
903.21	226.10
903.51	226.07
903.82	226.06
904.12	226.03
904.43	226.03
904.73	226.00
905.03	226.00
905.34	226.06
905.64	226.05
905.95	226.04
906.25	226.01
906.56	226.06
906.86	226.04
907.17	225.99
907.47	225.99
907.77	225.95
908.08	225.92
908.38	225.94
908.69	225.93
908.99	225.96
909.30	225.95
909.60	225.94
909.90	225.94
910.21	225.93
910.51	225.95
910.81	225.93
911.12	225.98
911.42	225.99
911.73	225.96
912.03	225.96
912.33	226.03
912.64	226.02
912.94	225.98
913.24	225.95
913.55	225.96
913.85	225.96
914.15	225.97
914.46	225.98
914.76	225.96
915.06	225.93
915.37	225.89
915.67	225.91
915.97	225.89
916.27	225.87
916.58	225.88
916.88	225.86
917.18	225.86
917.49	225.92
917.79	225.92
918.09	225.89
918.39	225.90
918.70	225.88
919.00	225.88
919.30	225.96
919.60	225.99
919.91	225.99
920.21	225.99
920.51	225.99
920.81	226.00
921.12	226.01
921.42	226.04
921.72	226.05
922.02	226.05
922.32	226.10
922.63	226.10
922.93	226.13
923.23	226.14
923.53	226.14
923.83	226.10
924.13	226.11
924.44	226.11
924.74	226.09
925.04	226.12
925.34	226.15
925.64	226.08
925.94	226.07
926.24	226.12
926.55	226.14
926.85	226.13
927.15	226.14
927.45	226.16
927.75	226.15
928.05	226.20
928.35	226.15
928.65	226.17
928.95	226.18
929.26	226.19
929.56	226.19
929.86	226.20
930.16	226.15
930.46	226.12
930.76	226.15
931.06	226.13
931.36	226.13
931.66	226.14
931.96	226.15
932.26	226.13
932.56	226.11
932.86	226.09
933.16	226.11
933.46	226.12
933.76	226.12
934.06	226.17
934.36	226.17
934.66	226.20
934.96	226.19
935.26	226.19
935.56	226.19
935.86	226.20
936.16	226.21
936.46	226.20
936.76	226.22
937.06	226.18
937.36	226.21
937.66	226.19
937.96	226.19
938.26	226.18
938.56	226.17
938.86	226.15
939.16	226.16
939.46	226.21
939.76	226.18
940.06	226.21
940.35	226.17
940.65	226.12
940.95	226.14
941.25	226.13
941.55	226.11
941.85	226.10
942.15	226.10
942.45	226.11
942.75	226.11
943.04	226.12
943.34	226.16
943.64	226.12
943.94	226.10
944.24	226.11
944.54	226.11
944.84	226.14
945.13	226.14
945.43	226.13
945.73	226.07
946.03	226.06
946.33	226.02
946.62	226.01
946.92	226.03
947.22	226.03
947.52	226.04
947.82	226.07
948.11	226.04
948.41	226.03
948.71	226.01
949.01	226.03
949.31	226.01
949.60	225.97
949.90	226.02
950.20	226.03
950.50	226.00
950.79	226.00
951.09	225.97
951.39	225.94
951.69	225.92
951.98	225.96
952.28	226.00
952.58	225.94
952.87	225.92
953.17	225.93
953.47	225.94
953.76	225.91
954.06	225.88
954.36	225.87
954.66	225.85
954.95	225.88
955.25	225.88
955.55	225.89
955.84	225.90
956.14	225.91
956.44	225.89
956.73	225.87
957.03	225.86
957.32	225.91
957.62	225.90
957.92	225.93
958.21	225.88
958.51	225.99
958.81	226.02
959.10	226.06
959.40	226.03
959.69	225.99
959.99	226.00
960.29	226.02
960.58	226.03
960.88	226.07
961.17	226.06
961.47	226.06
961.76	226.02
962.06	226.03
962.36	225.99
962.65	225.97
962.95	225.99
963.24	226.02
963.54	226.00
963.83	226.04
964.13	226.05
964.42	226.02
964.72	225.94
965.01	225.93
965.31	225.88
965.60	225.87
965.90	225.97
966.19	225.95
966.49	225.96
966.78	225.93
967.08	225.92
967.37	225.89
967.67	225.88
967.96	225.91
968.26	225.89
968.55	225.90
968.85	225.93
969.14	225.93
969.43	225.90
969.73	225.88
970.02	225.87
970.32	225.86
970.61	225.89
970.91	225.83
971.20	225.85
971.49	225.89
971.79	225.89
972.08	225.82
972.38	225.81
972.67	225.81
972.96	225.80
973.26	225.80
973.55	225.84
973.85	225.82
974.14	225.81
974.43	225.86
974.73	225.83
975.02	225.79
975.31	225.79
975.61	225.81
975.90	225.79
976.19	225.79
976.49	225.80
976.78	225.78
977.07	225.81
977.37	225.81
977.66	225.80
977.95	225.79
978.24	225.81
978.54	225.86
978.83	225.83
979.12	225.83
979.42	225.82
979.71	225.80
980.00	225.81
980.29	225.80
980.59	225.75
980.88	225.79
981.17	225.78
981.46	225.75
981.76	225.74
982.05	225.78
982.34	225.77
982.63	225.73
982.93	225.73
983.22	225.71
983.51	225.75
983.80	225.76
984.09	225.76
984.39	225.73
984.68	225.67
984.97	225.68
985.26	225.67
985.55	225.67
985.85	225.65
986.14	225.64
986.43	225.66
986.72	225.67
987.01	225.62
987.30	225.63
987.59	225.64
987.89	225.63
988.18	225.60
988.47	225.59
988.76	225.58
989.05	225.57
989.34	225.59
989.63	225.56
989.92	225.54
990.22	225.55
990.51	225.56
990.80	225.57
991.09	225.56
991.38	225.57
991.67	225.56
991.96	225.54
992.25	225.59
992.54	225.58
992.83	225.56
993.12	225.60
993.41	225.62
993.70	225.66
993.99	225.65
994.28	225.66
994.58	225.65
994.87	225.66
995.16	225.65
995.45	225.62
995.74	225.62
996.03	225.65
996.32	225.63
996.61	225.62
996.90	225.60
997.19	225.61
997.48	225.63
997.77	225.63
998.06	225.64
998.34	225.61
998.63	225.60
998.92	225.62
999.21	225.63
999.50	225.65
999.79	225.64
1000.08	225.67
1000.37	225.66
1000.66	225.68
1000.95	225.75
1001.24	225.76
1001.53	225.77
1001.82	225.76
1002.11	225.74
1002.40	225.78
1002.68	225.81
1002.97	225.89
1003.26	225.89
1003.55	225.85
1003.84	225.85
1004.13	225.89
1004.42	225.86
1004.71	225.88
1004.99	225.88
1005.28	225.92
1005.57	225.91
1005.86	225.89
1006.15	225.88
1006.44	225.90
1006.72	225.91
1007.01	225.86
1007.30	225.87
1007.59	225.89
1007.88	225.90
1008.17	225.88
1008.45	225.88
1008.74	225.88
1009.03	225.84
1009.32	225.86
1009.60	225.87
1009.89	225.88
1010.18	225.85
1010.47	225.86
1010.76	225.86
1011.04	225.86
1011.33	225.82
1011.62	225.82
1011.91	225.84
1012.19	225.83
1012.48	225.81
1012.77	225.82
1013.05	225.90
1013.34	225.93
1013.63	225.91
1013.92	225.91
1014.20	225.94
1014.49	225.94
1014.78	225.93
1015.06	225.91
1015.35	225.89
1015.64	225.92
1015.92	225.93
1016.21	225.93
1016.50	225.92
1016.78	225.87
1017.07	225.87
1017.36	225.89
1017.64	225.86
1017.93	225.87
1018.22	225.87
1018.50	225.86
1018.79	225.83
1019.08	225.77
1019.36	225.77
1019.65	225.73
1019.93	225.75
1020.22	225.74
1020.51	225.76
1020.79	225.73
1021.08	225.80
1021.36	225.26
1021.65	225.43
1021.94	226.04
1022.22	226.21
1022.51	225.33
1022.79	226.17
1023.08	225.72
1023.36	226.43
1023.65	225.31
>>>>>End Processed Spectral Data<<<<<
