SpectraSuite Data File
++++++++++++++++++++++++++++++++++++
Date: Fri Feb 01 16:20:30 EST 2013
User: group
Dark Spectrum Present: No
Reference Spectrum Present: No
Number of Sampled Component Spectra: 1
Spectrometers: USB2E7196
Integration Time (usec): 35000 (USB2E7196)
Spectra Averaged: 100 (USB2E7196)
Boxcar Smoothing: 10 (USB2E7196)
Correct for Electrical Dark: No (USB2E7196)
Strobe/Lamp Enabled: No (USB2E7196)
Correct for Detector Non-linearity: No (USB2E7196)
Correct for Stray Light: No (USB2E7196)
Number of Pixels in Processed Spectrum: 2048
>>>>>Begin Processed Spectral Data<<<<<
339.09	0.00
339.48	213.63
339.86	214.99
340.24	216.56
340.63	217.47
341.01	220.71
341.39	220.59
341.78	221.46
342.16	223.08
342.54	223.39
342.93	211.96
343.31	222.70
343.69	223.26
344.07	223.76
344.46	224.19
344.84	224.63
345.22	224.85
345.60	225.14
345.99	225.36
346.37	225.48
346.75	225.57
347.13	225.65
347.52	225.70
347.90	225.77
348.28	225.78
348.66	225.78
349.05	225.77
349.43	225.80
349.81	225.92
350.19	225.97
350.57	226.05
350.96	226.15
351.34	226.22
351.72	226.29
352.10	226.38
352.48	226.48
352.87	226.52
353.25	226.62
353.63	226.65
354.01	226.73
354.39	226.85
354.77	226.94
355.15	227.02
355.54	227.09
355.92	227.14
356.30	227.22
356.68	227.40
357.06	227.51
357.44	227.58
357.82	227.62
358.20	227.70
358.58	227.77
358.97	227.86
359.35	227.96
359.73	228.08
360.11	228.15
360.49	228.23
360.87	228.28
361.25	228.34
361.63	228.47
362.01	228.50
362.39	228.52
362.77	228.60
363.15	228.66
363.53	228.72
363.91	228.78
364.29	228.82
364.67	228.78
365.05	228.79
365.43	228.84
365.81	228.89
366.19	228.92
366.57	228.97
366.95	228.97
367.33	228.96
367.71	228.96
368.09	228.96
368.47	228.92
368.85	228.93
369.23	228.91
369.61	228.80
369.99	228.84
370.37	228.81
370.75	228.83
371.13	228.80
371.51	228.73
371.89	228.71
372.27	228.68
372.65	228.62
373.03	228.60
373.41	228.52
373.78	228.43
374.16	228.36
374.54	228.27
374.92	228.17
375.30	228.09
375.68	227.97
376.06	227.93
376.44	227.86
376.82	227.80
377.19	227.73
377.57	227.67
377.95	227.56
378.33	227.50
378.71	227.38
379.09	227.28
379.47	227.22
379.84	227.12
380.22	227.06
380.60	226.97
380.98	226.90
381.36	226.82
381.73	226.76
382.11	226.70
382.49	226.63
382.87	226.56
383.25	226.49
383.62	226.55
384.00	226.43
384.38	226.36
384.76	226.32
385.13	226.31
385.51	226.27
385.89	226.18
386.27	226.11
386.64	226.08
387.02	226.05
387.40	226.02
387.78	225.99
388.15	225.93
388.53	225.91
388.91	225.85
389.29	225.81
389.66	225.81
390.04	225.77
390.42	225.75
390.79	225.73
391.17	225.69
391.55	225.56
391.92	225.56
392.30	225.58
392.68	225.54
393.05	225.54
393.43	225.52
393.81	225.52
394.18	225.54
394.56	225.54
394.94	225.59
395.31	225.60
395.69	225.65
396.06	225.73
396.44	225.77
396.82	225.82
397.19	225.92
397.57	225.95
397.95	226.00
398.32	226.03
398.70	226.09
399.07	226.17
399.45	226.23
399.82	226.29
400.20	226.32
400.58	226.41
400.95	226.43
401.33	226.53
401.70	226.70
402.08	226.83
402.45	226.92
402.83	227.03
403.20	227.11
403.58	227.19
403.95	227.30
404.33	227.44
404.71	227.56
405.08	227.70
405.46	227.85
405.83	228.01
406.21	228.17
406.58	228.34
406.96	228.50
407.33	228.68
407.70	228.88
408.08	229.14
408.45	229.34
408.83	229.56
409.20	229.78
409.58	229.93
409.95	230.18
410.33	230.43
410.70	230.65
411.08	230.98
411.45	231.26
411.82	231.56
412.20	231.88
412.57	232.33
412.95	232.61
413.32	233.00
413.69	233.40
414.07	233.83
414.44	234.31
414.82	234.78
415.19	235.29
415.56	235.86
415.94	236.39
416.31	237.04
416.68	237.66
417.06	238.35
417.43	239.07
417.81	239.83
418.18	240.58
418.55	241.45
418.93	242.27
419.30	243.18
419.67	244.12
420.04	245.07
420.42	246.04
420.79	247.24
421.16	248.38
421.54	249.59
421.91	250.79
422.28	251.99
422.66	253.32
423.03	254.65
423.40	255.94
423.77	257.39
424.15	258.77
424.52	260.27
424.89	261.89
425.26	263.41
425.64	264.85
426.01	266.50
426.38	268.16
426.75	269.86
427.13	271.58
427.50	273.36
427.87	275.25
428.24	277.06
428.61	278.78
428.99	280.74
429.36	282.83
429.73	284.86
430.10	286.87
430.47	288.94
430.85	291.02
431.22	293.31
431.59	295.68
431.96	297.97
432.33	300.43
432.70	302.80
433.08	305.60
433.45	308.23
433.82	310.76
434.19	313.60
434.56	316.37
434.93	319.04
435.30	321.67
435.68	324.55
436.05	327.42
436.42	330.25
436.79	332.70
437.16	335.40
437.53	338.26
437.90	341.11
438.27	343.82
438.64	346.65
439.01	349.19
439.38	351.39
439.75	353.54
440.13	356.04
440.50	358.35
440.87	360.23
441.24	362.15
441.61	364.34
441.98	365.88
442.35	367.70
442.72	369.53
443.09	371.31
443.46	372.32
443.83	372.85
444.20	373.31
444.57	374.17
444.94	374.42
445.31	374.77
445.68	375.07
446.05	375.14
446.42	374.78
446.79	374.34
447.16	373.88
447.53	373.55
447.90	372.40
448.27	371.27
448.64	369.68
449.01	368.52
449.37	366.57
449.74	364.63
450.11	362.37
450.48	359.89
450.85	357.34
451.22	355.20
451.59	353.20
451.96	351.29
452.33	348.66
452.70	346.31
453.07	343.48
453.43	340.62
453.80	337.91
454.17	335.22
454.54	332.72
454.91	330.02
455.28	327.36
455.65	324.85
456.02	322.38
456.38	320.22
456.75	317.62
457.12	315.34
457.49	313.14
457.86	310.98
458.23	309.11
458.59	307.09
458.96	305.00
459.33	303.14
459.70	301.29
460.07	299.81
460.43	298.09
460.80	296.48
461.17	295.03
461.54	293.52
461.91	292.08
462.27	290.65
462.64	289.39
463.01	288.04
463.38	286.74
463.74	285.42
464.11	284.25
464.48	283.19
464.85	282.09
465.21	281.23
465.58	280.32
465.95	279.27
466.32	278.37
466.68	277.44
467.05	276.57
467.42	275.67
467.78	274.76
468.15	273.95
468.52	273.29
468.88	272.45
469.25	271.69
469.62	271.09
469.98	270.43
470.35	269.81
470.72	269.22
471.08	268.59
471.45	268.05
471.82	267.52
472.18	266.95
472.55	266.53
472.92	266.01
473.28	265.56
473.65	265.12
474.02	264.67
474.38	264.35
474.75	264.04
475.11	263.71
475.48	263.45
475.85	263.18
476.21	262.93
476.58	262.78
476.94	262.62
477.31	262.47
477.67	262.34
478.04	262.26
478.41	262.20
478.77	262.26
479.14	262.23
479.50	262.27
479.87	262.35
480.23	262.44
480.60	262.48
480.96	262.58
481.33	262.81
481.69	263.03
482.06	263.24
482.42	263.44
482.79	263.69
483.15	264.04
483.52	264.47
483.88	264.85
484.25	265.25
484.61	265.69
484.98	266.13
485.34	266.70
485.71	267.26
486.07	267.90
486.44	268.45
486.80	269.16
487.17	269.91
487.53	270.76
487.90	271.62
488.26	272.56
488.62	273.57
488.99	274.57
489.35	275.60
489.72	276.72
490.08	277.93
490.44	279.20
490.81	280.49
491.17	281.82
491.54	283.27
491.90	284.80
492.26	286.44
492.63	288.20
492.99	289.95
493.36	291.89
493.72	293.93
494.08	296.05
494.45	298.26
494.81	300.62
495.17	303.05
495.54	305.66
495.90	308.39
496.26	311.17
496.63	314.09
496.99	317.24
497.35	320.48
497.72	323.86
498.08	327.35
498.44	331.07
498.80	335.02
499.17	339.07
499.53	343.28
499.89	347.69
500.26	352.19
500.62	356.91
500.98	361.87
501.34	366.98
501.71	372.31
502.07	377.75
502.43	383.36
502.79	389.19
503.16	395.27
503.52	401.47
503.88	407.90
504.24	414.54
504.60	421.42
504.97	428.52
505.33	435.87
505.69	443.66
506.05	451.45
506.41	459.32
506.78	467.49
507.14	475.89
507.50	484.57
507.86	493.62
508.22	502.83
508.59	512.05
508.95	521.61
509.31	531.43
509.67	541.55
510.03	551.86
510.39	562.34
510.75	573.17
511.12	584.20
511.48	595.52
511.84	606.95
512.20	618.50
512.56	630.51
512.92	642.72
513.28	655.00
513.64	667.41
514.00	680.08
514.37	693.05
514.73	706.12
515.09	719.21
515.45	732.49
515.81	746.00
516.17	759.99
516.53	774.07
516.89	788.32
517.25	802.45
517.61	816.90
517.97	831.45
518.33	845.87
518.69	860.61
519.05	875.55
519.41	890.77
519.77	906.32
520.13	921.73
520.49	936.99
520.85	952.47
521.21	968.22
521.57	984.49
521.93	1000.14
522.29	1016.59
522.65	1032.73
523.01	1048.86
523.37	1064.88
523.73	1081.01
524.09	1097.07
524.45	1113.25
524.81	1129.84
525.17	1146.54
525.53	1163.35
525.89	1180.08
526.25	1196.85
526.61	1213.22
526.97	1229.84
527.33	1246.23
527.68	1262.72
528.04	1279.26
528.40	1295.69
528.76	1312.58
529.12	1329.07
529.48	1346.01
529.84	1361.94
530.20	1378.57
530.56	1395.57
530.91	1412.96
531.27	1429.66
531.63	1446.00
531.99	1462.41
532.35	1478.35
532.71	1494.27
533.07	1510.45
533.42	1526.33
533.78	1542.28
534.14	1558.44
534.50	1573.82
534.86	1589.59
535.21	1604.78
535.57	1620.73
535.93	1636.13
536.29	1650.97
536.65	1665.91
537.00	1680.61
537.36	1695.75
537.72	1710.21
538.08	1724.50
538.44	1738.18
538.79	1752.02
539.15	1765.66
539.51	1779.41
539.87	1793.69
540.22	1807.28
540.58	1820.90
540.94	1834.12
541.29	1846.93
541.65	1859.63
542.01	1872.63
542.37	1884.81
542.72	1897.18
543.08	1908.79
543.44	1921.14
543.79	1932.26
544.15	1943.16
544.51	1954.61
544.87	1965.60
545.22	1976.34
545.58	1986.32
545.94	1996.04
546.29	2005.82
546.65	2015.72
547.01	2024.88
547.36	2033.53
547.72	2041.95
548.07	2049.78
548.43	2057.91
548.79	2065.98
549.14	2073.45
549.50	2080.75
549.86	2088.48
550.21	2095.69
550.57	2102.72
550.92	2109.25
551.28	2116.23
551.64	2123.25
551.99	2129.74
552.35	2135.83
552.70	2141.92
553.06	2148.04
553.41	2154.44
553.77	2160.34
554.13	2166.23
554.48	2172.46
554.84	2177.81
555.19	2183.02
555.55	2188.16
555.90	2192.63
556.26	2197.44
556.61	2202.21
556.97	2206.54
557.32	2210.61
557.68	2214.78
558.03	2219.17
558.39	2222.73
558.74	2227.32
559.10	2231.35
559.45	2235.12
559.81	2239.37
560.16	2243.15
560.52	2246.46
560.87	2249.75
561.23	2252.62
561.58	2255.64
561.94	2257.99
562.29	2260.45
562.64	2263.14
563.00	2265.76
563.35	2269.15
563.71	2272.16
564.06	2275.30
564.42	2278.10
564.77	2280.64
565.12	2282.90
565.48	2284.81
565.83	2286.83
566.19	2288.32
566.54	2289.17
566.89	2290.29
567.25	2290.85
567.60	2292.23
567.96	2293.91
568.31	2294.78
568.66	2295.82
569.02	2296.35
569.37	2296.77
569.72	2297.68
570.08	2297.82
570.43	2297.90
570.78	2297.42
571.14	2295.95
571.49	2294.61
571.84	2294.49
572.20	2293.53
572.55	2292.65
572.90	2291.19
573.26	2289.94
573.61	2288.27
573.96	2286.52
574.31	2283.56
574.67	2280.73
575.02	2277.26
575.37	2273.98
575.72	2270.22
576.08	2266.84
576.43	2263.66
576.78	2260.09
577.13	2257.07
577.49	2254.13
577.84	2250.73
578.19	2247.12
578.54	2243.62
578.90	2239.48
579.25	2233.86
579.60	2228.79
579.95	2223.72
580.30	2218.68
580.66	2213.55
581.01	2208.73
581.36	2204.03
581.71	2199.88
582.06	2195.41
582.42	2190.96
582.77	2185.78
583.12	2181.25
583.47	2176.57
583.82	2171.56
584.17	2166.40
584.53	2160.82
584.88	2155.25
585.23	2149.64
585.58	2144.24
585.93	2138.93
586.28	2134.18
586.63	2129.17
586.98	2124.30
587.34	2119.78
587.69	2114.93
588.04	2109.68
588.39	2103.95
588.74	2097.43
589.09	2091.27
589.44	2084.50
589.79	2078.51
590.14	2072.84
590.49	2066.34
590.84	2060.10
591.19	2054.13
591.54	2047.75
591.89	2040.49
592.25	2033.76
592.60	2026.45
592.95	2019.04
593.30	2011.67
593.65	2004.10
594.00	1997.11
594.35	1989.82
594.70	1981.79
595.05	1974.65
595.40	1967.44
595.75	1959.86
596.10	1953.75
596.45	1947.15
596.80	1941.24
597.15	1934.61
597.50	1927.60
597.85	1921.12
598.19	1914.46
598.54	1907.47
598.89	1900.90
599.24	1895.00
599.59	1888.33
599.94	1882.22
600.29	1875.72
600.64	1869.17
600.99	1861.91
601.34	1855.15
601.69	1848.26
602.04	1841.34
602.39	1834.00
602.74	1827.24
603.08	1820.54
603.43	1813.70
603.78	1806.47
604.13	1799.20
604.48	1791.93
604.83	1785.15
605.18	1778.25
605.53	1770.26
605.87	1762.19
606.22	1754.92
606.57	1746.95
606.92	1739.61
607.27	1732.35
607.62	1725.57
607.96	1718.29
608.31	1711.63
608.66	1704.05
609.01	1696.55
609.36	1688.96
609.70	1680.92
610.05	1672.84
610.40	1665.06
610.75	1656.73
611.10	1649.01
611.44	1640.59
611.79	1632.68
612.14	1623.99
612.49	1614.84
612.83	1606.49
613.18	1598.44
613.53	1590.29
613.88	1581.70
614.22	1573.38
614.57	1564.81
614.92	1556.78
615.27	1549.13
615.61	1540.74
615.96	1532.75
616.31	1525.03
616.65	1517.66
617.00	1510.04
617.35	1502.38
617.70	1494.19
618.04	1485.73
618.39	1477.44
618.74	1469.83
619.08	1461.40
619.43	1453.73
619.78	1446.88
620.12	1439.68
620.47	1432.13
620.82	1423.96
621.16	1416.67
621.51	1409.09
621.85	1401.52
622.20	1392.93
622.55	1384.59
622.89	1376.74
623.24	1368.98
623.59	1361.53
623.93	1354.04
624.28	1346.93
624.62	1339.34
624.97	1332.16
625.32	1325.37
625.66	1318.38
626.01	1311.18
626.35	1303.72
626.70	1296.14
627.04	1288.39
627.39	1280.63
627.73	1273.13
628.08	1266.22
628.43	1258.84
628.77	1251.37
629.12	1243.75
629.46	1236.60
629.81	1229.26
630.15	1222.00
630.50	1214.60
630.84	1206.38
631.19	1198.49
631.53	1190.87
631.88	1183.28
632.22	1175.67
632.57	1168.35
632.91	1160.83
633.26	1153.28
633.60	1145.95
633.95	1138.74
634.29	1131.68
634.64	1125.02
634.98	1117.73
635.32	1110.44
635.67	1103.89
636.01	1097.31
636.36	1090.50
636.70	1083.86
637.05	1077.24
637.39	1070.82
637.73	1064.25
638.08	1058.37
638.42	1052.28
638.77	1045.90
639.11	1039.39
639.45	1032.98
639.80	1026.34
640.14	1019.89
640.49	1013.46
640.83	1007.17
641.17	1000.90
641.52	994.48
641.86	988.09
642.20	982.25
642.55	976.12
642.89	969.61
643.23	963.11
643.58	957.42
643.92	951.27
644.26	945.21
644.61	939.19
644.95	933.20
645.29	926.68
645.64	919.94
645.98	913.65
646.32	907.80
646.66	901.83
647.01	896.02
647.35	890.34
647.69	884.47
648.04	878.86
648.38	873.07
648.72	867.13
649.06	860.99
649.41	855.11
649.75	849.06
650.09	843.16
650.43	837.33
650.78	831.11
651.12	825.11
651.46	819.36
651.80	813.57
652.14	808.21
652.49	802.76
652.83	797.60
653.17	791.77
653.51	785.96
653.85	780.51
654.20	774.87
654.54	768.72
654.88	763.03
655.22	757.20
655.56	751.51
655.90	745.98
656.25	740.71
656.59	735.32
656.93	730.26
657.27	725.05
657.61	719.62
657.95	714.50
658.29	709.44
658.64	704.25
658.98	698.99
659.32	693.51
659.66	688.31
660.00	683.02
660.34	678.11
660.68	673.21
661.02	668.14
661.36	663.38
661.70	658.94
662.05	654.50
662.39	650.12
662.73	645.68
663.07	641.39
663.41	636.89
663.75	632.40
664.09	627.80
664.43	623.37
664.77	619.25
665.11	614.92
665.45	610.81
665.79	606.67
666.13	602.48
666.47	598.41
666.81	594.26
667.15	590.11
667.49	586.21
667.83	582.37
668.17	578.50
668.51	574.42
668.85	570.38
669.19	566.55
669.53	562.72
669.87	558.76
670.21	555.05
670.55	551.47
670.89	547.98
671.23	544.52
671.57	540.99
671.91	537.42
672.25	533.97
672.58	530.39
672.92	526.98
673.26	523.83
673.60	520.64
673.94	517.54
674.28	514.66
674.62	511.74
674.96	508.72
675.30	505.74
675.64	502.82
675.97	500.07
676.31	497.20
676.65	494.26
676.99	491.60
677.33	488.73
677.67	485.85
678.01	482.85
678.34	479.87
678.68	477.02
679.02	474.17
679.36	471.40
679.70	468.74
680.04	465.96
680.37	463.11
680.71	460.30
681.05	457.67
681.39	454.94
681.73	452.24
682.06	449.63
682.40	447.11
682.74	444.56
683.08	442.05
683.42	439.47
683.75	436.97
684.09	434.41
684.43	431.91
684.77	429.51
685.10	427.15
685.44	424.89
685.78	422.60
686.12	420.39
686.45	418.10
686.79	415.77
687.13	413.59
687.46	411.45
687.80	409.30
688.14	407.06
688.48	405.00
688.81	402.77
689.15	400.61
689.49	398.45
689.82	396.38
690.16	394.25
690.50	392.27
690.83	390.26
691.17	388.27
691.51	386.39
691.84	384.49
692.18	382.55
692.52	380.55
692.85	378.65
693.19	376.80
693.52	374.98
693.86	373.15
694.20	371.35
694.53	369.52
694.87	367.63
695.21	365.86
695.54	364.00
695.88	362.29
696.21	360.60
696.55	358.91
696.88	357.22
697.22	355.57
697.56	353.96
697.89	352.38
698.23	350.83
698.56	349.19
698.90	347.63
699.23	345.98
699.57	344.42
699.90	342.86
700.24	341.30
700.58	339.74
700.91	338.26
701.25	336.79
701.58	335.42
701.92	334.07
702.25	332.68
702.59	331.33
702.92	329.95
703.26	328.61
703.59	327.31
703.93	326.15
704.26	324.90
704.60	323.60
704.93	322.28
705.26	321.00
705.60	319.80
705.93	318.61
706.27	317.61
706.60	316.55
706.94	315.47
707.27	314.34
707.61	313.31
707.94	312.23
708.27	311.18
708.61	310.03
708.94	309.05
709.28	308.06
709.61	307.10
709.94	306.20
710.28	305.16
710.61	304.18
710.95	303.11
711.28	302.18
711.61	301.23
711.95	300.32
712.28	299.38
712.61	298.39
712.95	297.46
713.28	296.54
713.61	295.63
713.95	294.74
714.28	293.88
714.61	292.98
714.95	292.15
715.28	291.28
715.61	290.41
715.95	289.54
716.28	288.64
716.61	287.78
716.95	286.96
717.28	286.23
717.61	285.47
717.94	284.72
718.28	283.90
718.61	283.16
718.94	282.43
719.27	281.74
719.61	281.09
719.94	280.45
720.27	279.76
720.60	279.09
720.94	278.43
721.27	277.84
721.60	277.30
721.93	276.66
722.27	276.12
722.60	275.58
722.93	275.05
723.26	274.55
723.59	274.00
723.93	273.46
724.26	272.87
724.59	272.29
724.92	271.76
725.25	271.28
725.59	270.79
725.92	270.29
726.25	269.78
726.58	269.32
726.91	268.82
727.24	268.35
727.57	267.88
727.91	267.40
728.24	266.94
728.57	266.42
728.90	266.02
729.23	265.52
729.56	265.12
729.89	264.65
730.22	264.14
730.55	263.70
730.89	263.25
731.22	262.83
731.55	262.41
731.88	261.99
732.21	261.52
732.54	261.05
732.87	260.66
733.20	260.25
733.53	259.88
733.86	259.52
734.19	259.11
734.52	258.73
734.85	258.43
735.18	258.02
735.51	257.66
735.84	257.29
736.17	256.95
736.50	256.55
736.83	256.30
737.16	255.97
737.49	255.65
737.82	255.27
738.15	254.95
738.48	254.62
738.81	254.29
739.14	253.99
739.47	253.69
739.80	253.37
740.13	253.09
740.46	252.70
740.79	252.38
741.12	252.10
741.45	251.78
741.78	251.41
742.11	251.13
742.44	250.80
742.77	250.50
743.10	250.18
743.43	249.87
743.75	249.50
744.08	249.32
744.41	249.05
744.74	248.82
745.07	248.58
745.40	248.35
745.73	248.09
746.06	247.83
746.39	247.58
746.71	247.33
747.04	247.04
747.37	246.81
747.70	246.54
748.03	246.29
748.36	246.08
748.68	245.86
749.01	245.58
749.34	245.36
749.67	245.12
750.00	244.94
750.33	244.77
750.65	244.54
750.98	244.29
751.31	244.05
751.64	243.83
751.97	243.67
752.29	243.44
752.62	243.18
752.95	242.99
753.28	242.78
753.60	242.54
753.93	242.37
754.26	242.15
754.59	241.93
754.91	241.69
755.24	241.48
755.57	241.26
755.90	241.12
756.22	240.94
756.55	240.74
756.88	240.53
757.20	240.29
757.53	240.08
757.86	239.87
758.19	239.72
758.51	239.55
758.84	239.29
759.17	239.11
759.49	238.97
759.82	238.83
760.15	238.69
760.47	238.53
760.80	238.36
761.13	238.24
761.45	238.10
761.78	237.95
762.11	237.77
762.43	237.66
762.76	237.48
763.08	237.34
763.41	237.19
763.74	237.06
764.06	236.93
764.39	236.80
764.71	236.63
765.04	236.47
765.37	236.34
765.69	236.21
766.02	236.06
766.34	235.90
766.67	235.74
767.00	235.64
767.32	235.56
767.65	235.51
767.97	235.40
768.30	235.28
768.62	235.17
768.95	235.08
769.27	234.93
769.60	234.84
769.92	234.72
770.25	234.63
770.57	234.50
770.90	234.40
771.22	234.30
771.55	234.21
771.87	234.12
772.20	234.03
772.52	234.03
772.85	234.07
773.17	234.03
773.50	233.92
773.82	233.82
774.15	233.73
774.47	233.58
774.80	233.46
775.12	233.39
775.45	233.31
775.77	233.24
776.09	233.21
776.42	233.15
776.74	233.08
777.07	233.01
777.39	232.95
777.72	232.86
778.04	232.86
778.36	232.80
778.69	232.73
779.01	232.68
779.33	232.55
779.66	232.39
779.98	232.26
780.31	232.22
780.63	232.18
780.95	232.10
781.28	232.04
781.60	232.01
781.92	231.93
782.25	231.88
782.57	231.83
782.89	231.76
783.22	231.66
783.54	231.61
783.86	231.54
784.19	231.49
784.51	231.49
784.83	231.39
785.16	231.32
785.48	231.30
785.80	231.23
786.12	231.17
786.45	231.09
786.77	231.11
787.09	231.06
787.42	230.98
787.74	230.93
788.06	230.90
788.38	230.83
788.71	230.78
789.03	230.74
789.35	230.73
789.67	230.68
789.99	230.66
790.32	230.62
790.64	230.59
790.96	230.60
791.28	230.52
791.61	230.46
791.93	230.43
792.25	230.36
792.57	230.41
792.89	230.36
793.21	230.33
793.54	230.28
793.86	230.23
794.18	230.19
794.50	230.17
794.82	230.11
795.14	230.09
795.47	230.08
795.79	230.06
796.11	229.96
796.43	229.90
796.75	229.86
797.07	229.80
797.39	229.73
797.71	229.66
798.04	229.64
798.36	229.61
798.68	229.56
799.00	229.54
799.32	229.46
799.64	229.47
799.96	229.43
800.28	229.37
800.60	229.31
800.92	229.27
801.24	229.20
801.56	229.19
801.89	229.16
802.21	229.09
802.53	229.02
802.85	229.02
803.17	229.03
803.49	228.96
803.81	228.94
804.13	228.94
804.45	228.88
804.77	228.84
805.09	228.81
805.41	228.77
805.73	228.70
806.05	228.60
806.37	228.51
806.69	228.49
807.01	228.47
807.33	228.47
807.65	228.46
807.97	228.48
808.28	228.43
808.60	228.42
808.92	228.37
809.24	228.42
809.56	228.36
809.88	228.29
810.20	228.27
810.52	228.27
810.84	228.23
811.16	228.21
811.48	228.16
811.80	228.16
812.12	228.15
812.43	228.15
812.75	228.15
813.07	228.14
813.39	228.13
813.71	228.10
814.03	228.06
814.35	228.00
814.67	227.95
814.98	227.91
815.30	227.88
815.62	227.86
815.94	227.77
816.26	227.80
816.58	227.78
816.89	227.78
817.21	227.70
817.53	227.70
817.85	227.65
818.17	227.66
818.48	227.59
818.80	227.59
819.12	227.55
819.44	227.54
819.76	227.51
820.07	227.49
820.39	227.49
820.71	227.50
821.03	227.48
821.34	227.47
821.66	227.45
821.98	227.48
822.30	227.50
822.61	227.54
822.93	227.50
823.25	227.47
823.57	227.43
823.88	227.43
824.20	227.43
824.52	227.46
824.83	227.42
825.15	227.43
825.47	227.43
825.79	227.45
826.10	227.41
826.42	227.40
826.74	227.39
827.05	227.38
827.37	227.38
827.69	227.39
828.00	227.36
828.32	227.38
828.64	227.34
828.95	227.39
829.27	227.36
829.58	227.34
829.90	227.38
830.22	227.40
830.53	227.39
830.85	227.37
831.17	227.35
831.48	227.32
831.80	227.30
832.11	227.26
832.43	227.24
832.75	227.28
833.06	227.34
833.38	227.31
833.69	227.30
834.01	227.28
834.32	227.25
834.64	227.24
834.96	227.21
835.27	227.22
835.59	227.15
835.90	227.12
836.22	227.10
836.53	227.07
836.85	227.07
837.16	227.16
837.48	227.18
837.79	227.19
838.11	227.23
838.42	227.23
838.74	227.23
839.05	227.21
839.37	227.18
839.68	227.10
840.00	227.12
840.31	227.11
840.63	227.09
840.94	227.05
841.26	227.04
841.57	227.05
841.88	227.03
842.20	227.00
842.51	226.99
842.83	226.99
843.14	227.05
843.46	227.04
843.77	226.99
844.08	226.97
844.40	226.93
844.71	226.91
845.03	226.91
845.34	226.92
845.65	226.91
845.97	226.90
846.28	226.90
846.60	226.88
846.91	226.84
847.22	226.85
847.54	226.90
847.85	226.89
848.16	226.87
848.48	226.81
848.79	226.84
849.10	226.83
849.42	226.81
849.73	226.70
850.04	226.72
850.36	226.67
850.67	226.68
850.98	226.67
851.30	226.63
851.61	226.61
851.92	226.60
852.23	226.64
852.55	226.64
852.86	226.65
853.17	226.67
853.49	226.70
853.80	226.68
854.11	226.69
854.42	226.70
854.74	226.70
855.05	226.74
855.36	226.70
855.67	226.73
855.99	226.76
856.30	226.89
856.61	226.87
856.92	226.84
857.23	226.83
857.55	226.83
857.86	226.86
858.17	226.90
858.48	226.88
858.79	226.86
859.11	226.89
859.42	226.92
859.73	226.89
860.04	226.90
860.35	226.88
860.66	226.84
860.98	226.84
861.29	226.84
861.60	226.82
861.91	226.85
862.22	226.83
862.53	226.78
862.84	226.68
863.16	226.71
863.47	226.74
863.78	226.72
864.09	226.72
864.40	226.72
864.71	226.71
865.02	226.74
865.33	226.73
865.64	226.71
865.95	226.69
866.27	226.74
866.58	226.73
866.89	226.76
867.20	226.74
867.51	226.72
867.82	226.68
868.13	226.73
868.44	226.73
868.75	226.71
869.06	226.76
869.37	226.77
869.68	226.70
869.99	226.68
870.30	226.70
870.61	226.73
870.92	226.69
871.23	226.68
871.54	226.66
871.85	226.68
872.16	226.69
872.47	226.68
872.78	226.62
873.09	226.61
873.40	226.60
873.71	226.61
874.02	226.63
874.33	226.67
874.64	226.61
874.95	226.59
875.26	226.59
875.56	226.56
875.87	226.56
876.18	226.58
876.49	226.70
876.80	226.68
877.11	226.63
877.42	226.66
877.73	226.66
878.04	226.67
878.35	226.68
878.66	226.67
878.96	226.63
879.27	226.65
879.58	226.65
879.89	226.60
880.20	226.64
880.51	226.63
880.82	226.62
881.12	226.68
881.43	226.63
881.74	226.59
882.05	226.57
882.36	226.57
882.67	226.55
882.97	226.40
883.28	226.41
883.59	226.39
883.90	226.40
884.21	226.40
884.51	226.36
884.82	226.30
885.13	226.26
885.44	226.27
885.74	226.21
886.05	226.19
886.36	226.20
886.67	226.14
886.98	226.18
887.28	226.15
887.59	226.09
887.90	226.12
888.20	226.12
888.51	226.15
888.82	226.15
889.13	226.15
889.43	226.24
889.74	226.21
890.05	226.20
890.35	226.16
890.66	226.12
890.97	226.13
891.28	226.11
891.58	226.11
891.89	226.10
892.20	226.10
892.50	226.09
892.81	226.07
893.12	226.06
893.42	226.01
893.73	226.04
894.04	226.05
894.34	226.06
894.65	226.09
894.95	226.09
895.26	226.07
895.57	226.11
895.87	226.00
896.18	226.03
896.48	226.05
896.79	226.04
897.10	226.08
897.40	226.08
897.71	226.08
898.01	226.10
898.32	226.11
898.63	226.12
898.93	226.14
899.24	226.16
899.54	226.20
899.85	226.20
900.15	226.19
900.46	226.16
900.76	226.17
901.07	226.16
901.38	226.15
901.68	226.17
901.99	226.11
902.29	226.14
902.60	226.08
902.90	226.08
903.21	226.07
903.51	226.04
903.82	226.08
904.12	226.10
904.43	226.08
904.73	226.11
905.03	226.12
905.34	226.22
905.64	226.23
905.95	226.22
906.25	226.23
906.56	226.27
906.86	226.29
907.17	226.27
907.47	226.26
907.77	226.25
908.08	226.23
908.38	226.28
908.69	226.28
908.99	226.35
909.30	226.38
909.60	226.38
909.90	226.38
910.21	226.34
910.51	226.33
910.81	226.36
911.12	226.30
911.42	226.36
911.73	226.23
912.03	226.23
912.33	226.22
912.64	226.22
912.94	226.18
913.24	226.18
913.55	226.19
913.85	226.19
914.15	226.20
914.46	226.21
914.76	226.16
915.06	226.16
915.37	226.14
915.67	226.12
915.97	226.13
916.27	226.11
916.58	226.12
916.88	226.12
917.18	226.08
917.49	226.19
917.79	226.17
918.09	226.21
918.39	226.24
918.70	226.24
919.00	226.24
919.30	226.30
919.60	226.27
919.91	226.28
920.21	226.25
920.51	226.27
920.81	226.28
921.12	226.31
921.42	226.31
921.72	226.31
922.02	226.31
922.32	226.32
922.63	226.33
922.93	226.39
923.23	226.37
923.53	226.40
923.83	226.34
924.13	226.32
924.44	226.29
924.74	226.30
925.04	226.31
925.34	226.32
925.64	226.28
925.94	226.28
926.24	226.32
926.55	226.34
926.85	226.33
927.15	226.30
927.45	226.29
927.75	226.30
928.05	226.30
928.35	226.30
928.65	226.34
928.95	226.35
929.26	226.28
929.56	226.29
929.86	226.29
930.16	226.29
930.46	226.27
930.76	226.29
931.06	226.26
931.36	226.26
931.66	226.27
931.96	226.25
932.26	226.27
932.56	226.22
932.86	226.20
933.16	226.21
933.46	226.23
933.76	226.21
934.06	226.24
934.36	226.31
934.66	226.31
934.96	226.28
935.26	226.28
935.56	226.31
935.86	226.31
936.16	226.29
936.46	226.28
936.76	226.30
937.06	226.28
937.36	226.27
937.66	226.25
937.96	226.22
938.26	226.20
938.56	226.20
938.86	226.20
939.16	226.25
939.46	226.24
939.76	226.24
940.06	226.24
940.35	226.22
940.65	226.13
940.95	226.13
941.25	226.11
941.55	226.10
941.85	226.07
942.15	226.09
942.45	226.10
942.75	226.07
943.04	226.06
943.34	226.06
943.64	226.05
943.94	226.04
944.24	226.05
944.54	226.06
944.84	226.06
945.13	226.01
945.43	225.97
945.73	225.98
946.03	225.92
946.33	225.90
946.62	225.84
946.92	225.85
947.22	225.83
947.52	225.83
947.82	225.85
948.11	225.83
948.41	225.84
948.71	225.77
949.01	225.79
949.31	225.77
949.60	225.79
949.90	225.79
950.20	225.81
950.50	225.80
950.79	225.78
951.09	225.78
951.39	225.78
951.69	225.78
951.98	225.79
952.28	225.84
952.58	225.83
952.87	225.86
953.17	225.84
953.47	225.84
953.76	225.82
954.06	225.79
954.36	225.81
954.66	225.75
954.95	225.83
955.25	225.83
955.55	225.86
955.84	225.79
956.14	225.81
956.44	225.79
956.73	225.78
957.03	225.77
957.32	225.76
957.62	225.77
957.92	225.79
958.21	225.77
958.51	225.88
958.81	225.89
959.10	225.91
959.40	225.95
959.69	225.96
959.99	225.98
960.29	225.98
960.58	225.96
960.88	226.00
961.17	226.00
961.47	226.00
961.76	225.97
962.06	226.02
962.36	226.01
962.65	225.99
962.95	226.00
963.24	226.01
963.54	226.04
963.83	226.05
964.13	226.04
964.42	226.02
964.72	225.91
965.01	225.93
965.31	225.90
965.60	225.88
965.90	225.95
966.19	225.94
966.49	225.95
966.78	225.98
967.08	225.99
967.37	225.98
967.67	225.97
967.96	226.02
968.26	226.03
968.55	226.05
968.85	226.06
969.14	226.06
969.43	226.06
969.73	226.06
970.02	226.04
970.32	226.07
970.61	226.09
970.91	226.10
971.20	226.09
971.49	226.13
971.79	226.13
972.08	226.04
972.38	226.02
972.67	226.02
972.96	226.04
973.26	226.04
973.55	226.05
973.85	226.05
974.14	226.03
974.43	226.06
974.73	226.01
975.02	226.01
975.31	226.03
975.61	226.05
975.90	226.02
976.19	226.02
976.49	226.01
976.78	226.03
977.07	225.99
977.37	226.01
977.66	226.00
977.95	225.99
978.24	226.04
978.54	226.09
978.83	226.07
979.12	226.06
979.42	226.05
979.71	226.05
980.00	226.03
980.29	226.01
980.59	225.97
980.88	226.01
981.17	226.02
981.46	226.04
981.76	226.02
982.05	226.05
982.34	226.06
982.63	226.08
982.93	226.07
983.22	226.13
983.51	226.12
983.80	226.13
984.09	226.17
984.39	226.17
984.68	226.12
984.97	226.13
985.26	226.11
985.55	226.12
985.85	226.08
986.14	226.09
986.43	226.13
986.72	226.14
987.01	226.10
987.30	226.08
987.59	226.05
987.89	226.06
988.18	226.01
988.47	226.02
988.76	225.98
989.05	225.95
989.34	225.94
989.63	225.93
989.92	225.88
990.22	225.82
990.51	225.79
990.80	225.79
991.09	225.80
991.38	225.81
991.67	225.75
991.96	225.77
992.25	225.78
992.54	225.74
992.83	225.73
993.12	225.73
993.41	225.73
993.70	225.76
993.99	225.77
994.28	225.81
994.58	225.80
994.87	225.78
995.16	225.78
995.45	225.73
995.74	225.72
996.03	225.76
996.32	225.81
996.61	225.86
996.90	225.86
997.19	225.85
997.48	225.84
997.77	225.89
998.06	225.90
998.34	225.88
998.63	225.88
998.92	225.86
999.21	225.86
999.50	225.86
999.79	225.83
1000.08	225.83
1000.37	225.83
1000.66	225.81
1000.95	225.86
1001.24	225.89
1001.53	225.92
1001.82	225.91
1002.11	225.86
1002.40	225.86
1002.68	225.86
1002.97	225.92
1003.26	225.90
1003.55	225.90
1003.84	225.89
1004.13	225.89
1004.42	225.90
1004.71	225.89
1004.99	225.89
1005.28	225.92
1005.57	225.93
1005.86	225.92
1006.15	225.93
1006.44	225.92
1006.72	225.94
1007.01	225.90
1007.30	225.91
1007.59	225.89
1007.88	225.90
1008.17	225.94
1008.45	225.92
1008.74	225.87
1009.03	225.86
1009.32	225.89
1009.60	225.89
1009.89	225.89
1010.18	225.86
1010.47	225.87
1010.76	225.90
1011.04	225.92
1011.33	225.92
1011.62	225.93
1011.91	225.89
1012.19	225.90
1012.48	225.88
1012.77	225.90
1013.05	225.93
1013.34	225.90
1013.63	225.91
1013.92	225.90
1014.20	225.92
1014.49	225.89
1014.78	225.93
1015.06	225.86
1015.35	225.87
1015.64	225.89
1015.92	225.91
1016.21	225.92
1016.50	225.90
1016.78	225.91
1017.07	225.87
1017.36	225.85
1017.64	225.81
1017.93	225.87
1018.22	225.85
1018.50	225.85
1018.79	225.86
1019.08	225.81
1019.36	225.83
1019.65	225.80
1019.93	225.85
1020.22	225.82
1020.51	225.91
1020.79	225.88
1021.08	225.70
1021.36	225.69
1021.65	226.11
1021.94	225.68
1022.22	225.63
1022.51	225.19
1022.79	226.87
1023.08	225.86
1023.36	227.14
1023.65	225.67
>>>>>End Processed Spectral Data<<<<<
