SpectraSuite Data File
++++++++++++++++++++++++++++++++++++
Date: Fri Feb 01 16:10:20 EST 2013
User: group
Dark Spectrum Present: No
Reference Spectrum Present: No
Number of Sampled Component Spectra: 1
Spectrometers: USB2E7196
Integration Time (usec): 35000 (USB2E7196)
Spectra Averaged: 100 (USB2E7196)
Boxcar Smoothing: 10 (USB2E7196)
Correct for Electrical Dark: No (USB2E7196)
Strobe/Lamp Enabled: No (USB2E7196)
Correct for Detector Non-linearity: No (USB2E7196)
Correct for Stray Light: No (USB2E7196)
Number of Pixels in Processed Spectrum: 2048
>>>>>Begin Processed Spectral Data<<<<<
339.09	0.00
339.48	215.01
339.86	216.24
340.24	217.17
340.63	218.79
341.01	221.99
341.39	221.95
341.78	222.66
342.16	224.26
342.54	224.91
342.93	213.03
343.31	223.79
343.69	224.30
344.07	224.76
344.46	225.20
344.84	225.56
345.22	225.80
345.60	226.03
345.99	226.24
346.37	226.36
346.75	226.45
347.13	226.51
347.52	226.58
347.90	226.61
348.28	226.61
348.66	226.63
349.05	226.60
349.43	226.64
349.81	226.66
350.19	226.70
350.57	226.74
350.96	226.83
351.34	226.90
351.72	227.01
352.10	227.08
352.48	227.13
352.87	227.19
353.25	227.23
353.63	227.26
354.01	227.30
354.39	227.37
354.77	227.42
355.15	227.55
355.54	227.58
355.92	227.62
356.30	227.68
356.68	227.81
357.06	227.90
357.44	227.96
357.82	228.05
358.20	228.11
358.58	228.20
358.97	228.25
359.35	228.34
359.73	228.38
360.11	228.43
360.49	228.52
360.87	228.55
361.25	228.63
361.63	228.70
362.01	228.74
362.39	228.75
362.77	228.80
363.15	228.82
363.53	228.86
363.91	228.89
364.29	228.94
364.67	228.84
365.05	228.88
365.43	228.90
365.81	228.92
366.19	228.96
366.57	228.99
366.95	229.00
367.33	228.94
367.71	228.94
368.09	228.96
368.47	228.94
368.85	228.91
369.23	228.87
369.61	228.83
369.99	228.83
370.37	228.84
370.75	228.84
371.13	228.76
371.51	228.73
371.89	228.73
372.27	228.68
372.65	228.64
373.03	228.60
373.41	228.55
373.78	228.47
374.16	228.35
374.54	228.28
374.92	228.23
375.30	228.20
375.68	228.13
376.06	228.07
376.44	227.99
376.82	227.97
377.19	227.94
377.57	227.87
377.95	227.81
378.33	227.70
378.71	227.60
379.09	227.57
379.47	227.52
379.84	227.40
380.22	227.33
380.60	227.23
380.98	227.14
381.36	227.06
381.73	226.99
382.11	226.98
382.49	226.92
382.87	226.83
383.25	226.75
383.62	226.79
384.00	226.70
384.38	226.61
384.76	226.57
385.13	226.52
385.51	226.47
385.89	226.39
386.27	226.37
386.64	226.35
387.02	226.26
387.40	226.19
387.78	226.15
388.15	226.11
388.53	226.13
388.91	226.11
389.29	226.07
389.66	226.05
390.04	226.00
390.42	225.96
390.79	225.96
391.17	225.95
391.55	225.82
391.92	225.84
392.30	225.87
392.68	225.81
393.05	225.79
393.43	225.78
393.81	225.82
394.18	225.79
394.56	225.75
394.94	225.82
395.31	225.83
395.69	225.90
396.06	225.92
396.44	225.94
396.82	225.95
397.19	226.06
397.57	226.11
397.95	226.19
398.32	226.24
398.70	226.29
399.07	226.35
399.45	226.44
399.82	226.48
400.20	226.52
400.58	226.63
400.95	226.67
401.33	226.81
401.70	226.93
402.08	227.07
402.45	227.21
402.83	227.34
403.20	227.49
403.58	227.58
403.95	227.72
404.33	227.85
404.71	227.99
405.08	228.15
405.46	228.29
405.83	228.41
406.21	228.56
406.58	228.75
406.96	228.91
407.33	229.08
407.70	229.29
408.08	229.58
408.45	229.79
408.83	230.06
409.20	230.25
409.58	230.40
409.95	230.64
410.33	230.92
410.70	231.16
411.08	231.43
411.45	231.74
411.82	232.03
412.20	232.37
412.57	232.79
412.95	233.08
413.32	233.49
413.69	233.92
414.07	234.37
414.44	234.80
414.82	235.29
415.19	235.85
415.56	236.39
415.94	236.91
416.31	237.57
416.68	238.18
417.06	238.93
417.43	239.64
417.81	240.40
418.18	241.18
418.55	242.01
418.93	242.87
419.30	243.78
419.67	244.74
420.04	245.70
420.42	246.70
420.79	247.89
421.16	249.04
421.54	250.22
421.91	251.40
422.28	252.67
422.66	253.99
423.03	255.28
423.40	256.62
423.77	258.05
424.15	259.44
424.52	260.91
424.89	262.48
425.26	264.04
425.64	265.48
426.01	267.05
426.38	268.70
426.75	270.38
427.13	272.08
427.50	273.93
427.87	275.80
428.24	277.63
428.61	279.33
428.99	281.27
429.36	283.34
429.73	285.44
430.10	287.44
430.47	289.53
430.85	291.63
431.22	293.86
431.59	296.19
431.96	298.43
432.33	300.90
432.70	303.25
433.08	306.05
433.45	308.68
433.82	311.29
434.19	314.20
434.56	316.97
434.93	319.62
435.30	322.20
435.68	325.03
436.05	327.86
436.42	330.66
436.79	333.18
437.16	335.85
437.53	338.64
437.90	341.43
438.27	344.15
438.64	346.95
439.01	349.52
439.38	351.77
439.75	353.95
440.13	356.47
440.50	358.78
440.87	360.59
441.24	362.54
441.61	364.66
441.98	366.11
442.35	367.92
442.72	369.70
443.09	371.50
443.46	372.47
443.83	373.00
444.20	373.45
444.57	374.26
444.94	374.58
445.31	374.92
445.68	375.30
446.05	375.34
446.42	374.98
446.79	374.56
447.16	374.12
447.53	373.80
447.90	372.60
448.27	371.44
448.64	369.88
449.01	368.71
449.37	366.74
449.74	364.85
450.11	362.63
450.48	360.23
450.85	357.67
451.22	355.62
451.59	353.64
451.96	351.72
452.33	349.09
452.70	346.75
453.07	343.91
453.43	341.02
453.80	338.26
454.17	335.59
454.54	333.05
454.91	330.37
455.28	327.71
455.65	325.24
456.02	322.86
456.38	320.71
456.75	318.11
457.12	315.88
457.49	313.63
457.86	311.49
458.23	309.63
458.59	307.61
458.96	305.50
459.33	303.67
459.70	301.84
460.07	300.39
460.43	298.68
460.80	297.09
461.17	295.64
461.54	294.19
461.91	292.79
462.27	291.36
462.64	290.11
463.01	288.74
463.38	287.51
463.74	286.14
464.11	284.98
464.48	283.97
464.85	282.88
465.21	282.08
465.58	281.11
465.95	280.00
466.32	279.12
466.68	278.23
467.05	277.31
467.42	276.42
467.78	275.47
468.15	274.59
468.52	273.92
468.88	273.06
469.25	272.28
469.62	271.65
469.98	270.96
470.35	270.32
470.72	269.75
471.08	269.07
471.45	268.52
471.82	267.96
472.18	267.36
472.55	266.93
472.92	266.39
473.28	265.97
473.65	265.54
474.02	265.08
474.38	264.73
474.75	264.41
475.11	264.09
475.48	263.85
475.85	263.62
476.21	263.42
476.58	263.25
476.94	263.12
477.31	262.96
477.67	262.84
478.04	262.70
478.41	262.62
478.77	262.61
479.14	262.53
479.50	262.59
479.87	262.65
480.23	262.70
480.60	262.78
480.96	262.89
481.33	263.08
481.69	263.28
482.06	263.48
482.42	263.72
482.79	263.97
483.15	264.29
483.52	264.68
483.88	265.02
484.25	265.38
484.61	265.77
484.98	266.23
485.34	266.79
485.71	267.42
486.07	268.03
486.44	268.60
486.80	269.33
487.17	270.08
487.53	270.87
487.90	271.73
488.26	272.67
488.62	273.63
488.99	274.60
489.35	275.63
489.72	276.75
490.08	277.95
490.44	279.19
490.81	280.51
491.17	281.83
491.54	283.29
491.90	284.86
492.26	286.50
492.63	288.25
492.99	290.02
493.36	291.89
493.72	293.97
494.08	296.13
494.45	298.37
494.81	300.71
495.17	303.16
495.54	305.70
495.90	308.32
496.26	311.12
496.63	314.11
496.99	317.24
497.35	320.53
497.72	323.94
498.08	327.46
498.44	331.15
498.80	335.14
499.17	339.26
499.53	343.42
499.89	347.81
500.26	352.33
500.62	357.00
500.98	361.96
501.34	367.06
501.71	372.37
502.07	377.84
502.43	383.48
502.79	389.33
503.16	395.41
503.52	401.75
503.88	408.20
504.24	414.80
504.60	421.64
504.97	428.77
505.33	436.05
505.69	443.80
506.05	451.60
506.41	459.46
506.78	467.59
507.14	476.08
507.50	484.85
507.86	493.80
508.22	503.02
508.59	512.30
508.95	521.89
509.31	531.74
509.67	541.86
510.03	552.14
510.39	562.70
510.75	573.56
511.12	584.49
511.48	595.78
511.84	607.25
512.20	618.85
512.56	630.78
512.92	642.91
513.28	655.22
513.64	667.65
514.00	680.39
514.37	693.33
514.73	706.44
515.09	719.53
515.45	732.85
515.81	746.49
516.17	760.44
516.53	774.51
516.89	788.64
517.25	802.73
517.61	817.18
517.97	831.66
518.33	846.05
518.69	860.79
519.05	875.71
519.41	890.81
519.77	906.29
520.13	921.73
520.49	937.15
520.85	952.56
521.21	968.22
521.57	984.33
521.93	1000.05
522.29	1016.38
522.65	1032.60
523.01	1048.82
523.37	1064.84
523.73	1080.91
524.09	1097.01
524.45	1113.22
524.81	1129.86
525.17	1146.62
525.53	1163.44
525.89	1180.22
526.25	1197.08
526.61	1213.40
526.97	1230.10
527.33	1246.60
527.68	1263.19
528.04	1279.68
528.40	1296.20
528.76	1313.19
529.12	1329.68
529.48	1346.46
529.84	1362.37
530.20	1378.85
530.56	1395.81
530.91	1413.03
531.27	1429.73
531.63	1446.15
531.99	1462.71
532.35	1478.60
532.71	1494.35
533.07	1510.53
533.42	1526.41
533.78	1542.37
534.14	1558.59
534.50	1573.98
534.86	1589.74
535.21	1604.80
535.57	1620.53
535.93	1636.06
536.29	1650.89
536.65	1665.93
537.00	1680.63
537.36	1695.82
537.72	1710.32
538.08	1724.74
538.44	1738.52
538.79	1752.29
539.15	1765.87
539.51	1779.54
539.87	1793.83
540.22	1807.47
540.58	1821.01
540.94	1834.26
541.29	1847.01
541.65	1859.67
542.01	1872.70
542.37	1884.92
542.72	1897.29
543.08	1909.15
543.44	1921.38
543.79	1932.52
544.15	1943.45
544.51	1955.08
544.87	1965.99
545.22	1976.83
545.58	1986.91
545.94	1996.67
546.29	2006.59
546.65	2016.49
547.01	2025.77
547.36	2034.33
547.72	2042.83
548.07	2050.72
548.43	2058.87
548.79	2066.94
549.14	2074.49
549.50	2081.85
549.86	2089.57
550.21	2096.81
550.57	2103.82
550.92	2110.27
551.28	2117.37
551.64	2124.40
551.99	2130.83
552.35	2136.94
552.70	2143.01
553.06	2148.96
553.41	2155.26
553.77	2161.33
554.13	2167.30
554.48	2173.43
554.84	2179.08
555.19	2184.28
555.55	2189.55
555.90	2194.05
556.26	2198.96
556.61	2203.61
556.97	2208.01
557.32	2212.10
557.68	2216.29
558.03	2220.63
558.39	2224.37
558.74	2228.94
559.10	2232.84
559.45	2236.49
559.81	2240.83
560.16	2244.72
560.52	2247.88
560.87	2251.31
561.23	2253.86
561.58	2256.76
561.94	2259.19
562.29	2261.38
562.64	2264.29
563.00	2266.98
563.35	2270.44
563.71	2273.47
564.06	2276.75
564.42	2279.61
564.77	2282.14
565.12	2284.47
565.48	2286.44
565.83	2288.37
566.19	2289.82
566.54	2290.74
566.89	2291.99
567.25	2292.51
567.60	2293.69
567.96	2295.54
568.31	2296.22
568.66	2297.27
569.02	2297.89
569.37	2298.28
569.72	2299.39
570.08	2299.34
570.43	2299.28
570.78	2298.80
571.14	2297.28
571.49	2295.94
571.84	2295.55
572.20	2294.56
572.55	2293.50
572.90	2291.92
573.26	2290.64
573.61	2288.89
573.96	2287.14
574.31	2284.19
574.67	2281.35
575.02	2277.85
575.37	2274.51
575.72	2270.95
576.08	2267.88
576.43	2264.60
576.78	2261.03
577.13	2257.82
577.49	2254.92
577.84	2251.39
578.19	2247.71
578.54	2244.22
578.90	2240.07
579.25	2234.58
579.60	2229.55
579.95	2224.59
580.30	2219.62
580.66	2214.36
581.01	2209.27
581.36	2204.41
581.71	2200.32
582.06	2195.89
582.42	2191.55
582.77	2186.29
583.12	2181.74
583.47	2177.00
583.82	2172.12
584.17	2166.93
584.53	2161.51
584.88	2155.81
585.23	2150.13
585.58	2144.62
585.93	2139.05
586.28	2134.28
586.63	2129.18
586.98	2124.12
587.34	2119.37
587.69	2114.50
588.04	2109.46
588.39	2103.94
588.74	2097.41
589.09	2091.18
589.44	2084.35
589.79	2078.17
590.14	2072.65
590.49	2066.13
590.84	2059.69
591.19	2053.46
591.54	2046.91
591.89	2039.43
592.25	2032.70
592.60	2025.53
592.95	2018.03
593.30	2010.81
593.65	2003.11
594.00	1996.10
594.35	1988.97
594.70	1980.99
595.05	1973.90
595.40	1966.60
595.75	1959.18
596.10	1953.08
596.45	1946.43
596.80	1940.51
597.15	1933.98
597.50	1926.88
597.85	1920.33
598.19	1913.66
598.54	1906.70
598.89	1900.01
599.24	1894.26
599.59	1887.62
599.94	1881.52
600.29	1875.03
600.64	1868.36
600.99	1860.99
601.34	1854.13
601.69	1847.14
602.04	1840.36
602.39	1833.04
602.74	1826.19
603.08	1819.49
603.43	1812.78
603.78	1805.36
604.13	1798.07
604.48	1790.76
604.83	1783.88
605.18	1777.04
605.53	1769.13
605.87	1761.12
606.22	1754.03
606.57	1746.08
606.92	1738.63
607.27	1731.60
607.62	1724.89
607.96	1717.66
608.31	1711.15
608.66	1703.63
609.01	1696.13
609.36	1688.54
609.70	1680.42
610.05	1672.49
610.40	1664.76
610.75	1656.42
611.10	1648.85
611.44	1640.37
611.79	1632.40
612.14	1623.65
612.49	1614.37
612.83	1606.11
613.18	1598.02
613.53	1589.82
613.88	1581.16
614.22	1573.04
614.57	1564.13
614.92	1556.07
615.27	1548.68
615.61	1540.36
615.96	1532.32
616.31	1524.67
616.65	1517.43
617.00	1509.93
617.35	1501.98
617.70	1493.57
618.04	1485.08
618.39	1476.86
618.74	1469.36
619.08	1460.99
619.43	1453.51
619.78	1446.71
620.12	1439.51
620.47	1431.91
620.82	1423.74
621.16	1416.40
621.51	1408.73
621.85	1401.21
622.20	1392.66
622.55	1384.26
622.89	1376.47
623.24	1368.86
623.59	1361.40
623.93	1353.79
624.28	1346.55
624.62	1339.13
624.97	1332.01
625.32	1325.21
625.66	1318.19
626.01	1310.87
626.35	1303.55
626.70	1295.76
627.04	1288.05
627.39	1280.14
627.73	1272.79
628.08	1266.03
628.43	1258.75
628.77	1251.40
629.12	1243.83
629.46	1236.70
629.81	1229.20
630.15	1221.92
630.50	1214.45
630.84	1206.19
631.19	1198.08
631.53	1190.61
631.88	1183.11
632.22	1175.58
632.57	1168.33
632.91	1160.79
633.26	1153.41
633.60	1145.86
633.95	1138.71
634.29	1131.70
634.64	1125.03
634.98	1117.73
635.32	1110.41
635.67	1103.74
636.01	1097.07
636.36	1090.21
636.70	1083.65
637.05	1077.13
637.39	1070.59
637.73	1064.08
638.08	1058.18
638.42	1052.29
638.77	1045.71
639.11	1039.09
639.45	1032.63
639.80	1025.99
640.14	1019.57
640.49	1013.06
640.83	1006.86
641.17	1000.65
641.52	994.18
641.86	987.62
642.20	981.65
642.55	975.29
642.89	968.85
643.23	962.30
643.58	956.58
643.92	950.31
644.26	944.19
644.61	938.13
644.95	932.15
645.29	925.66
645.64	918.88
645.98	912.59
646.32	906.70
646.66	900.62
647.01	894.83
647.35	889.13
647.69	883.34
648.04	877.74
648.38	871.99
648.72	866.08
649.06	860.12
649.41	854.27
649.75	848.41
650.09	842.47
650.43	836.71
650.78	830.49
651.12	824.66
651.46	818.97
651.80	813.21
652.14	807.87
652.49	802.54
652.83	797.35
653.17	791.67
653.51	785.93
653.85	780.56
654.20	774.90
654.54	768.89
654.88	763.12
655.22	757.22
655.56	751.49
655.90	745.96
656.25	740.72
656.59	735.36
656.93	730.24
657.27	725.05
657.61	719.59
657.95	714.58
658.29	709.46
658.64	704.13
658.98	698.84
659.32	693.31
659.66	688.07
660.00	682.83
660.34	677.85
660.68	672.96
661.02	667.90
661.36	663.24
661.70	658.74
662.05	654.35
662.39	650.05
662.73	645.55
663.07	641.22
663.41	636.76
663.75	632.25
664.09	627.66
664.43	623.30
664.77	619.21
665.11	614.95
665.45	610.76
665.79	606.71
666.13	602.66
666.47	598.56
666.81	594.39
667.15	590.22
667.49	586.39
667.83	582.56
668.17	578.65
668.51	574.53
668.85	570.45
669.19	566.63
669.53	562.72
669.87	558.86
670.21	555.17
670.55	551.56
670.89	548.16
671.23	544.76
671.57	541.28
671.91	537.66
672.25	534.10
672.58	530.63
672.92	527.23
673.26	524.02
673.60	520.81
673.94	517.70
674.28	514.88
674.62	511.89
674.96	508.77
675.30	505.87
675.64	502.95
675.97	500.16
676.31	497.31
676.65	494.47
676.99	491.76
677.33	488.82
677.67	486.02
678.01	482.98
678.34	480.03
678.68	477.12
679.02	474.34
679.36	471.57
679.70	468.80
680.04	466.05
680.37	463.19
680.71	460.46
681.05	457.82
681.39	455.03
681.73	452.39
682.06	449.89
682.40	447.32
682.74	444.76
683.08	442.18
683.42	439.57
683.75	437.02
684.09	434.52
684.43	432.10
684.77	429.62
685.10	427.23
685.44	424.92
685.78	422.60
686.12	420.34
686.45	418.02
686.79	415.71
687.13	413.49
687.46	411.35
687.80	409.19
688.14	406.97
688.48	404.93
688.81	402.67
689.15	400.50
689.49	398.34
689.82	396.24
690.16	394.20
690.50	392.25
690.83	390.33
691.17	388.32
691.51	386.42
691.84	384.54
692.18	382.64
692.52	380.67
692.85	378.74
693.19	376.92
693.52	375.16
693.86	373.38
694.20	371.60
694.53	369.73
694.87	367.88
695.21	366.14
695.54	364.30
695.88	362.60
696.21	360.89
696.55	359.25
696.88	357.60
697.22	355.97
697.56	354.34
697.89	352.71
698.23	351.10
698.56	349.46
698.90	347.90
699.23	346.27
699.57	344.74
699.90	343.19
700.24	341.61
700.58	340.06
700.91	338.56
701.25	337.12
701.58	335.82
701.92	334.43
702.25	333.05
702.59	331.71
702.92	330.38
703.26	329.10
703.59	327.83
703.93	326.61
704.26	325.35
704.60	324.00
704.93	322.68
705.26	321.45
705.60	320.29
705.93	319.09
706.27	318.01
706.60	316.93
706.94	315.89
707.27	314.73
707.61	313.67
707.94	312.65
708.27	311.53
708.61	310.43
708.94	309.46
709.28	308.47
709.61	307.48
709.94	306.49
710.28	305.46
710.61	304.47
710.95	303.38
711.28	302.46
711.61	301.53
711.95	300.63
712.28	299.64
712.61	298.70
712.95	297.78
713.28	296.94
713.61	296.06
713.95	295.15
714.28	294.30
714.61	293.39
714.95	292.53
715.28	291.68
715.61	290.80
715.95	289.91
716.28	289.03
716.61	288.21
716.95	287.36
717.28	286.60
717.61	285.80
717.94	285.07
718.28	284.27
718.61	283.55
718.94	282.81
719.27	282.17
719.61	281.50
719.94	280.86
720.27	280.09
720.60	279.42
720.94	278.77
721.27	278.21
721.60	277.61
721.93	276.99
722.27	276.48
722.60	275.90
722.93	275.33
723.26	274.79
723.59	274.24
723.93	273.69
724.26	273.10
724.59	272.53
724.92	272.00
725.25	271.51
725.59	270.98
725.92	270.54
726.25	270.00
726.58	269.48
726.91	268.95
727.24	268.49
727.57	267.99
727.91	267.51
728.24	267.03
728.57	266.56
728.90	266.09
729.23	265.56
729.56	265.17
729.89	264.71
730.22	264.21
730.55	263.74
730.89	263.35
731.22	262.93
731.55	262.49
731.88	262.07
732.21	261.62
732.54	261.20
732.87	260.78
733.20	260.39
733.53	260.00
733.86	259.67
734.19	259.28
734.52	258.89
734.85	258.57
735.18	258.15
735.51	257.80
735.84	257.46
736.17	257.13
736.50	256.71
736.83	256.48
737.16	256.18
737.49	255.86
737.82	255.50
738.15	255.19
738.48	254.91
738.81	254.60
739.14	254.31
739.47	254.00
739.80	253.68
740.13	253.42
740.46	253.10
740.79	252.75
741.12	252.49
741.45	252.19
741.78	251.84
742.11	251.59
742.44	251.28
742.77	251.00
743.10	250.70
743.43	250.41
743.75	250.03
744.08	249.87
744.41	249.63
744.74	249.37
745.07	249.10
745.40	248.85
745.73	248.63
746.06	248.31
746.39	248.04
746.71	247.74
747.04	247.45
747.37	247.19
747.70	246.95
748.03	246.66
748.36	246.46
748.68	246.25
749.01	245.97
749.34	245.74
749.67	245.52
750.00	245.29
750.33	245.12
750.65	244.90
750.98	244.54
751.31	244.30
751.64	244.08
751.97	243.92
752.29	243.69
752.62	243.45
752.95	243.24
753.28	242.99
753.60	242.79
753.93	242.64
754.26	242.41
754.59	242.18
754.91	241.97
755.24	241.76
755.57	241.53
755.90	241.32
756.22	241.11
756.55	240.86
756.88	240.65
757.20	240.41
757.53	240.22
757.86	240.06
758.19	239.86
758.51	239.70
758.84	239.45
759.17	239.28
759.49	239.08
759.82	238.98
760.15	238.87
760.47	238.74
760.80	238.53
761.13	238.44
761.45	238.29
761.78	238.15
762.11	238.01
762.43	237.88
762.76	237.77
763.08	237.62
763.41	237.49
763.74	237.35
764.06	237.19
764.39	237.04
764.71	236.90
765.04	236.76
765.37	236.62
765.69	236.48
766.02	236.35
766.34	236.22
766.67	236.05
767.00	235.93
767.32	235.84
767.65	235.78
767.97	235.62
768.30	235.52
768.62	235.41
768.95	235.28
769.27	235.16
769.60	235.06
769.92	234.96
770.25	234.84
770.57	234.74
770.90	234.66
771.22	234.58
771.55	234.49
771.87	234.41
772.20	234.33
772.52	234.33
772.85	234.33
773.17	234.26
773.50	234.15
773.82	234.06
774.15	233.93
774.47	233.80
774.80	233.72
775.12	233.62
775.45	233.54
775.77	233.49
776.09	233.39
776.42	233.30
776.74	233.27
777.07	233.21
777.39	233.12
777.72	233.04
778.04	232.99
778.36	232.94
778.69	232.87
779.01	232.82
779.33	232.66
779.66	232.49
779.98	232.43
780.31	232.37
780.63	232.34
780.95	232.27
781.28	232.19
781.60	232.12
781.92	232.08
782.25	232.00
782.57	231.93
782.89	231.87
783.22	231.81
783.54	231.76
783.86	231.72
784.19	231.71
784.51	231.66
784.83	231.59
785.16	231.52
785.48	231.47
785.80	231.43
786.12	231.40
786.45	231.36
786.77	231.32
787.09	231.31
787.42	231.23
787.74	231.23
788.06	231.17
788.38	231.14
788.71	231.10
789.03	231.08
789.35	231.07
789.67	231.06
789.99	231.05
790.32	230.97
790.64	230.96
790.96	231.00
791.28	230.93
791.61	230.89
791.93	230.86
792.25	230.81
792.57	230.80
792.89	230.72
793.21	230.65
793.54	230.60
793.86	230.54
794.18	230.48
794.50	230.41
794.82	230.39
795.14	230.36
795.47	230.34
795.79	230.30
796.11	230.24
796.43	230.17
796.75	230.13
797.07	230.11
797.39	230.04
797.71	229.94
798.04	229.93
798.36	229.94
798.68	229.91
799.00	229.89
799.32	229.83
799.64	229.83
799.96	229.85
800.28	229.81
800.60	229.77
800.92	229.76
801.24	229.73
801.56	229.73
801.89	229.72
802.21	229.68
802.53	229.61
802.85	229.59
803.17	229.63
803.49	229.58
803.81	229.54
804.13	229.51
804.45	229.46
804.77	229.40
805.09	229.33
805.41	229.25
805.73	229.19
806.05	229.13
806.37	229.10
806.69	229.05
807.01	229.02
807.33	229.01
807.65	228.92
807.97	228.92
808.28	228.89
808.60	228.85
808.92	228.81
809.24	228.87
809.56	228.82
809.88	228.75
810.20	228.73
810.52	228.72
810.84	228.69
811.16	228.65
811.48	228.65
811.80	228.68
812.12	228.70
812.43	228.69
812.75	228.66
813.07	228.63
813.39	228.58
813.71	228.54
814.03	228.53
814.35	228.57
814.67	228.49
814.98	228.43
815.30	228.40
815.62	228.39
815.94	228.32
816.26	228.34
816.58	228.31
816.89	228.30
817.21	228.25
817.53	228.23
817.85	228.23
818.17	228.19
818.48	228.15
818.80	228.15
819.12	228.12
819.44	228.10
819.76	228.07
820.07	228.09
820.39	228.07
820.71	228.07
821.03	228.03
821.34	228.06
821.66	228.05
821.98	228.08
822.30	228.00
822.61	228.05
822.93	227.97
823.25	227.92
823.57	227.90
823.88	227.93
824.20	227.89
824.52	227.88
824.83	227.86
825.15	227.82
825.47	227.79
825.79	227.80
826.10	227.78
826.42	227.79
826.74	227.78
827.05	227.80
827.37	227.77
827.69	227.77
828.00	227.72
828.32	227.72
828.64	227.66
828.95	227.73
829.27	227.68
829.58	227.71
829.90	227.76
830.22	227.75
830.53	227.69
830.85	227.69
831.17	227.64
831.48	227.63
831.80	227.62
832.11	227.62
832.43	227.59
832.75	227.58
833.06	227.62
833.38	227.61
833.69	227.57
834.01	227.58
834.32	227.58
834.64	227.58
834.96	227.57
835.27	227.61
835.59	227.56
835.90	227.53
836.22	227.52
836.53	227.51
836.85	227.50
837.16	227.59
837.48	227.59
837.79	227.65
838.11	227.68
838.42	227.70
838.74	227.70
839.05	227.70
839.37	227.73
839.68	227.64
840.00	227.63
840.31	227.66
840.63	227.64
840.94	227.62
841.26	227.61
841.57	227.62
841.88	227.59
842.20	227.60
842.51	227.61
842.83	227.60
843.14	227.65
843.46	227.65
843.77	227.59
844.08	227.59
844.40	227.53
844.71	227.51
845.03	227.49
845.34	227.47
845.65	227.47
845.97	227.43
846.28	227.46
846.60	227.47
846.91	227.45
847.22	227.48
847.54	227.51
847.85	227.51
848.16	227.50
848.48	227.51
848.79	227.55
849.10	227.52
849.42	227.52
849.73	227.42
850.04	227.41
850.36	227.37
850.67	227.39
850.98	227.39
851.30	227.38
851.61	227.36
851.92	227.34
852.23	227.36
852.55	227.39
852.86	227.38
853.17	227.35
853.49	227.35
853.80	227.35
854.11	227.35
854.42	227.34
854.74	227.32
855.05	227.29
855.36	227.22
855.67	227.24
855.99	227.24
856.30	227.37
856.61	227.37
856.92	227.36
857.23	227.34
857.55	227.34
857.86	227.33
858.17	227.33
858.48	227.31
858.79	227.30
859.11	227.25
859.42	227.23
859.73	227.22
860.04	227.23
860.35	227.19
860.66	227.13
860.98	227.12
861.29	227.14
861.60	227.08
861.91	227.09
862.22	227.09
862.53	227.07
862.84	226.94
863.16	226.94
863.47	226.91
863.78	226.88
864.09	226.89
864.40	226.91
864.71	226.90
865.02	226.91
865.33	226.87
865.64	226.86
865.95	226.86
866.27	226.94
866.58	226.94
866.89	226.92
867.20	226.92
867.51	226.91
867.82	226.89
868.13	226.94
868.44	226.91
868.75	226.89
869.06	226.90
869.37	226.91
869.68	226.90
869.99	226.95
870.30	226.97
870.61	226.99
870.92	226.99
871.23	226.99
871.54	227.01
871.85	227.03
872.16	227.03
872.47	227.01
872.78	226.94
873.09	226.93
873.40	226.93
873.71	226.96
874.02	226.98
874.33	226.95
874.64	226.92
874.95	226.96
875.26	226.92
875.56	226.91
875.87	226.94
876.18	226.91
876.49	227.00
876.80	227.01
877.11	226.95
877.42	226.93
877.73	226.92
878.04	226.89
878.35	226.91
878.66	226.91
878.96	226.90
879.27	226.93
879.58	226.89
879.89	226.90
880.20	226.89
880.51	226.89
880.82	226.92
881.12	226.94
881.43	226.91
881.74	226.95
882.05	226.90
882.36	226.86
882.67	226.86
882.97	226.72
883.28	226.68
883.59	226.67
883.90	226.67
884.21	226.70
884.51	226.68
884.82	226.60
885.13	226.59
885.44	226.61
885.74	226.59
886.05	226.59
886.36	226.56
886.67	226.55
886.98	226.56
887.28	226.55
887.59	226.55
887.90	226.52
888.20	226.49
888.51	226.55
888.82	226.52
889.13	226.52
889.43	226.64
889.74	226.64
890.05	226.64
890.35	226.63
890.66	226.61
890.97	226.59
891.28	226.64
891.58	226.67
891.89	226.66
892.20	226.62
892.50	226.61
892.81	226.61
893.12	226.62
893.42	226.58
893.73	226.58
894.04	226.55
894.34	226.60
894.65	226.63
894.95	226.55
895.26	226.59
895.57	226.62
895.87	226.50
896.18	226.53
896.48	226.53
896.79	226.53
897.10	226.54
897.40	226.58
897.71	226.60
898.01	226.55
898.32	226.56
898.63	226.58
898.93	226.61
899.24	226.63
899.54	226.59
899.85	226.59
900.15	226.57
900.46	226.58
900.76	226.59
901.07	226.56
901.38	226.61
901.68	226.63
901.99	226.62
902.29	226.63
902.60	226.64
902.90	226.64
903.21	226.66
903.51	226.66
903.82	226.62
904.12	226.62
904.43	226.64
904.73	226.63
905.03	226.62
905.34	226.68
905.64	226.62
905.95	226.64
906.25	226.66
906.56	226.67
906.86	226.66
907.17	226.67
907.47	226.69
907.77	226.64
908.08	226.60
908.38	226.61
908.69	226.63
908.99	226.62
909.30	226.65
909.60	226.64
909.90	226.64
910.21	226.66
910.51	226.66
910.81	226.68
911.12	226.69
911.42	226.71
911.73	226.65
912.03	226.67
912.33	226.69
912.64	226.73
912.94	226.73
913.24	226.70
913.55	226.66
913.85	226.64
914.15	226.68
914.46	226.71
914.76	226.70
915.06	226.69
915.37	226.68
915.67	226.65
915.97	226.68
916.27	226.66
916.58	226.65
916.88	226.64
917.18	226.63
917.49	226.72
917.79	226.73
918.09	226.75
918.39	226.79
918.70	226.74
919.00	226.72
919.30	226.79
919.60	226.81
919.91	226.78
920.21	226.79
920.51	226.79
920.81	226.77
921.12	226.77
921.42	226.76
921.72	226.75
922.02	226.75
922.32	226.74
922.63	226.75
922.93	226.80
923.23	226.76
923.53	226.74
923.83	226.63
924.13	226.63
924.44	226.57
924.74	226.55
925.04	226.60
925.34	226.56
925.64	226.48
925.94	226.46
926.24	226.53
926.55	226.51
926.85	226.51
927.15	226.50
927.45	226.49
927.75	226.49
928.05	226.49
928.35	226.48
928.65	226.46
928.95	226.44
929.26	226.41
929.56	226.44
929.86	226.45
930.16	226.49
930.46	226.44
930.76	226.47
931.06	226.44
931.36	226.39
931.66	226.40
931.96	226.44
932.26	226.45
932.56	226.40
932.86	226.40
933.16	226.39
933.46	226.38
933.76	226.36
934.06	226.37
934.36	226.40
934.66	226.37
934.96	226.36
935.26	226.37
935.56	226.38
935.86	226.35
936.16	226.36
936.46	226.32
936.76	226.34
937.06	226.31
937.36	226.31
937.66	226.33
937.96	226.33
938.26	226.29
938.56	226.27
938.86	226.28
939.16	226.33
939.46	226.35
939.76	226.36
940.06	226.40
940.35	226.38
940.65	226.37
940.95	226.37
941.25	226.38
941.55	226.38
941.85	226.38
942.15	226.40
942.45	226.39
942.75	226.40
943.04	226.42
943.34	226.46
943.64	226.47
943.94	226.43
944.24	226.46
944.54	226.48
944.84	226.49
945.13	226.48
945.43	226.45
945.73	226.42
946.03	226.40
946.33	226.35
946.62	226.37
946.92	226.36
947.22	226.42
947.52	226.40
947.82	226.42
948.11	226.38
948.41	226.37
948.71	226.38
949.01	226.39
949.31	226.39
949.60	226.36
949.90	226.36
950.20	226.39
950.50	226.38
950.79	226.35
951.09	226.35
951.39	226.36
951.69	226.34
951.98	226.39
952.28	226.41
952.58	226.42
952.87	226.40
953.17	226.42
953.47	226.39
953.76	226.41
954.06	226.42
954.36	226.44
954.66	226.46
954.95	226.48
955.25	226.48
955.55	226.50
955.84	226.52
956.14	226.55
956.44	226.55
956.73	226.52
957.03	226.51
957.32	226.56
957.62	226.57
957.92	226.58
958.21	226.57
958.51	226.64
958.81	226.65
959.10	226.69
959.40	226.71
959.69	226.75
959.99	226.77
960.29	226.71
960.58	226.71
960.88	226.73
961.17	226.71
961.47	226.74
961.76	226.68
962.06	226.72
962.36	226.70
962.65	226.73
962.95	226.75
963.24	226.79
963.54	226.74
963.83	226.73
964.13	226.72
964.42	226.68
964.72	226.62
965.01	226.61
965.31	226.57
965.60	226.55
965.90	226.58
966.19	226.52
966.49	226.55
966.78	226.54
967.08	226.49
967.37	226.49
967.67	226.44
967.96	226.49
968.26	226.42
968.55	226.44
968.85	226.43
969.14	226.39
969.43	226.35
969.73	226.34
970.02	226.38
970.32	226.40
970.61	226.43
970.91	226.43
971.20	226.41
971.49	226.39
971.79	226.39
972.08	226.29
972.38	226.32
972.67	226.34
972.96	226.32
973.26	226.34
973.55	226.37
973.85	226.34
974.14	226.32
974.43	226.38
974.73	226.35
975.02	226.34
975.31	226.38
975.61	226.39
975.90	226.38
976.19	226.32
976.49	226.32
976.78	226.32
977.07	226.31
977.37	226.33
977.66	226.34
977.95	226.32
978.24	226.36
978.54	226.36
978.83	226.35
979.12	226.33
979.42	226.36
979.71	226.37
980.00	226.41
980.29	226.42
980.59	226.36
980.88	226.39
981.17	226.37
981.46	226.33
981.76	226.33
982.05	226.39
982.34	226.38
982.63	226.40
982.93	226.38
983.22	226.40
983.51	226.39
983.80	226.44
984.09	226.47
984.39	226.46
984.68	226.46
984.97	226.45
985.26	226.48
985.55	226.45
985.85	226.43
986.14	226.44
986.43	226.44
986.72	226.43
987.01	226.41
987.30	226.40
987.59	226.44
987.89	226.44
988.18	226.43
988.47	226.46
988.76	226.44
989.05	226.42
989.34	226.43
989.63	226.46
989.92	226.44
990.22	226.42
990.51	226.41
990.80	226.39
991.09	226.44
991.38	226.44
991.67	226.45
991.96	226.42
992.25	226.40
992.54	226.39
992.83	226.42
993.12	226.42
993.41	226.47
993.70	226.51
993.99	226.52
994.28	226.50
994.58	226.52
994.87	226.51
995.16	226.52
995.45	226.53
995.74	226.49
996.03	226.52
996.32	226.55
996.61	226.60
996.90	226.60
997.19	226.56
997.48	226.55
997.77	226.54
998.06	226.52
998.34	226.54
998.63	226.50
998.92	226.52
999.21	226.51
999.50	226.48
999.79	226.42
1000.08	226.40
1000.37	226.41
1000.66	226.36
1000.95	226.37
1001.24	226.36
1001.53	226.31
1001.82	226.33
1002.11	226.28
1002.40	226.26
1002.68	226.26
1002.97	226.31
1003.26	226.32
1003.55	226.30
1003.84	226.27
1004.13	226.34
1004.42	226.32
1004.71	226.35
1004.99	226.31
1005.28	226.34
1005.57	226.32
1005.86	226.34
1006.15	226.35
1006.44	226.30
1006.72	226.31
1007.01	226.32
1007.30	226.31
1007.59	226.31
1007.88	226.29
1008.17	226.31
1008.45	226.29
1008.74	226.23
1009.03	226.20
1009.32	226.17
1009.60	226.17
1009.89	226.18
1010.18	226.13
1010.47	226.11
1010.76	226.13
1011.04	226.14
1011.33	226.15
1011.62	226.19
1011.91	226.19
1012.19	226.19
1012.48	226.22
1012.77	226.23
1013.05	226.25
1013.34	226.29
1013.63	226.30
1013.92	226.34
1014.20	226.34
1014.49	226.34
1014.78	226.39
1015.06	226.37
1015.35	226.38
1015.64	226.38
1015.92	226.40
1016.21	226.42
1016.50	226.43
1016.78	226.47
1017.07	226.46
1017.36	226.44
1017.64	226.41
1017.93	226.39
1018.22	226.37
1018.50	226.37
1018.79	226.38
1019.08	226.34
1019.36	226.32
1019.65	226.34
1019.93	226.36
1020.22	226.38
1020.51	226.42
1020.79	226.40
1021.08	225.95
1021.36	226.38
1021.65	226.50
1021.94	226.30
1022.22	226.10
1022.51	226.65
1022.79	226.80
1023.08	226.77
1023.36	227.34
1023.65	226.59
>>>>>End Processed Spectral Data<<<<<
