SpectraSuite Data File
++++++++++++++++++++++++++++++++++++
Date: Fri Feb 01 15:44:17 EST 2013
User: group
Dark Spectrum Present: No
Reference Spectrum Present: No
Number of Sampled Component Spectra: 1
Spectrometers: USB2E7196
Integration Time (usec): 35000 (USB2E7196)
Spectra Averaged: 100 (USB2E7196)
Boxcar Smoothing: 10 (USB2E7196)
Correct for Electrical Dark: No (USB2E7196)
Strobe/Lamp Enabled: No (USB2E7196)
Correct for Detector Non-linearity: No (USB2E7196)
Correct for Stray Light: No (USB2E7196)
Number of Pixels in Processed Spectrum: 2048
>>>>>Begin Processed Spectral Data<<<<<
339.09	0.00
339.48	214.68
339.86	216.00
340.24	217.60
340.63	218.73
341.01	221.32
341.39	221.26
341.78	222.81
342.16	223.59
342.54	224.50
342.93	212.96
343.31	223.77
343.69	224.30
344.07	224.77
344.46	225.22
344.84	225.59
345.22	225.86
345.60	226.13
345.99	226.34
346.37	226.51
346.75	226.60
347.13	226.67
347.52	226.68
347.90	226.76
348.28	226.81
348.66	226.85
349.05	226.85
349.43	226.86
349.81	226.95
350.19	226.98
350.57	227.06
350.96	227.12
351.34	227.15
351.72	227.23
352.10	227.35
352.48	227.41
352.87	227.50
353.25	227.55
353.63	227.63
354.01	227.72
354.39	227.81
354.77	227.93
355.15	228.07
355.54	228.16
355.92	228.20
356.30	228.26
356.68	228.41
357.06	228.51
357.44	228.59
357.82	228.63
358.20	228.71
358.58	228.76
358.97	228.87
359.35	228.95
359.73	229.10
360.11	229.15
360.49	229.20
360.87	229.23
361.25	229.30
361.63	229.35
362.01	229.33
362.39	229.34
362.77	229.36
363.15	229.39
363.53	229.41
363.91	229.46
364.29	229.51
364.67	229.46
365.05	229.47
365.43	229.49
365.81	229.51
366.19	229.57
366.57	229.62
366.95	229.54
367.33	229.55
367.71	229.49
368.09	229.49
368.47	229.49
368.85	229.48
369.23	229.48
369.61	229.46
369.99	229.48
370.37	229.48
370.75	229.49
371.13	229.42
371.51	229.37
371.89	229.31
372.27	229.25
372.65	229.18
373.03	229.14
373.41	229.08
373.78	229.02
374.16	228.90
374.54	228.81
374.92	228.78
375.30	228.69
375.68	228.59
376.06	228.53
376.44	228.46
376.82	228.36
377.19	228.31
377.57	228.21
377.95	228.09
378.33	228.02
378.71	227.88
379.09	227.80
379.47	227.76
379.84	227.66
380.22	227.60
380.60	227.53
380.98	227.45
381.36	227.37
381.73	227.28
382.11	227.21
382.49	227.12
382.87	227.01
383.25	226.95
383.62	227.00
384.00	226.91
384.38	226.83
384.76	226.82
385.13	226.75
385.51	226.68
385.89	226.64
386.27	226.56
386.64	226.53
387.02	226.49
387.40	226.43
387.78	226.39
388.15	226.33
388.53	226.27
388.91	226.25
389.29	226.22
389.66	226.22
390.04	226.19
390.42	226.17
390.79	226.20
391.17	226.20
391.55	226.08
391.92	226.06
392.30	226.06
392.68	226.02
393.05	226.02
393.43	226.05
393.81	226.05
394.18	226.05
394.56	226.07
394.94	226.10
395.31	226.14
395.69	226.22
396.06	226.28
396.44	226.29
396.82	226.27
397.19	226.39
397.57	226.42
397.95	226.47
398.32	226.52
398.70	226.57
399.07	226.65
399.45	226.73
399.82	226.81
400.20	226.87
400.58	226.96
400.95	227.00
401.33	227.11
401.70	227.24
402.08	227.32
402.45	227.42
402.83	227.53
403.20	227.61
403.58	227.69
403.95	227.80
404.33	227.99
404.71	228.16
405.08	228.31
405.46	228.45
405.83	228.62
406.21	228.77
406.58	228.95
406.96	229.10
407.33	229.28
407.70	229.49
408.08	229.76
408.45	229.99
408.83	230.25
409.20	230.45
409.58	230.65
409.95	230.95
410.33	231.24
410.70	231.49
411.08	231.80
411.45	232.13
411.82	232.44
412.20	232.77
412.57	233.19
412.95	233.47
413.32	233.88
413.69	234.26
414.07	234.70
414.44	235.15
414.82	235.63
415.19	236.17
415.56	236.74
415.94	237.29
416.31	237.92
416.68	238.56
417.06	239.31
417.43	239.99
417.81	240.75
418.18	241.55
418.55	242.35
418.93	243.26
419.30	244.12
419.67	245.05
420.04	246.00
420.42	246.97
420.79	248.16
421.16	249.32
421.54	250.50
421.91	251.71
422.28	252.99
422.66	254.34
423.03	255.63
423.40	256.93
423.77	258.29
424.15	259.70
424.52	261.21
424.89	262.79
425.26	264.37
425.64	265.80
426.01	267.39
426.38	269.07
426.75	270.72
427.13	272.45
427.50	274.25
427.87	276.13
428.24	278.03
428.61	279.76
428.99	281.72
429.36	283.87
429.73	285.92
430.10	287.93
430.47	289.98
430.85	292.14
431.22	294.39
431.59	296.77
431.96	299.02
432.33	301.45
432.70	303.85
433.08	306.65
433.45	309.35
433.82	311.95
434.19	314.81
434.56	317.63
434.93	320.30
435.30	322.96
435.68	325.84
436.05	328.68
436.42	331.52
436.79	334.04
437.16	336.71
437.53	339.57
437.90	342.38
438.27	345.12
438.64	347.92
439.01	350.51
439.38	352.74
439.75	354.93
440.13	357.45
440.50	359.76
440.87	361.60
441.24	363.51
441.61	365.64
441.98	367.16
442.35	369.01
442.72	370.84
443.09	372.61
443.46	373.60
443.83	374.19
444.20	374.66
444.57	375.48
444.94	375.79
445.31	376.11
445.68	376.51
446.05	376.60
446.42	376.23
446.79	375.83
447.16	375.43
447.53	375.09
447.90	373.91
448.27	372.76
448.64	371.20
449.01	370.04
449.37	368.11
449.74	366.21
450.11	363.93
450.48	361.48
450.85	358.98
451.22	356.81
451.59	354.80
451.96	352.91
452.33	350.30
452.70	347.90
453.07	345.07
453.43	342.14
453.80	339.34
454.17	336.69
454.54	334.10
454.91	331.38
455.28	328.72
455.65	326.25
456.02	323.79
456.38	321.59
456.75	318.95
457.12	316.69
457.49	314.45
457.86	312.29
458.23	310.42
458.59	308.36
458.96	306.28
459.33	304.38
459.70	302.47
460.07	300.98
460.43	299.29
460.80	297.68
461.17	296.25
461.54	294.75
461.91	293.30
462.27	291.87
462.64	290.60
463.01	289.25
463.38	287.94
463.74	286.58
464.11	285.47
464.48	284.43
464.85	283.30
465.21	282.42
465.58	281.51
465.95	280.41
466.32	279.51
466.68	278.62
467.05	277.71
467.42	276.80
467.78	275.85
468.15	274.96
468.52	274.27
468.88	273.39
469.25	272.61
469.62	271.96
469.98	271.25
470.35	270.62
470.72	269.96
471.08	269.27
471.45	268.75
471.82	268.18
472.18	267.56
472.55	267.13
472.92	266.59
473.28	266.08
473.65	265.65
474.02	265.20
474.38	264.81
474.75	264.51
475.11	264.17
475.48	263.91
475.85	263.67
476.21	263.46
476.58	263.26
476.94	263.14
477.31	262.99
477.67	262.89
478.04	262.77
478.41	262.73
478.77	262.77
479.14	262.67
479.50	262.67
479.87	262.75
480.23	262.82
480.60	262.90
480.96	262.98
481.33	263.17
481.69	263.37
482.06	263.57
482.42	263.79
482.79	264.06
483.15	264.36
483.52	264.76
483.88	265.09
484.25	265.51
484.61	265.91
484.98	266.34
485.34	266.90
485.71	267.48
486.07	268.11
486.44	268.72
486.80	269.40
487.17	270.17
487.53	270.96
487.90	271.81
488.26	272.76
488.62	273.79
488.99	274.77
489.35	275.81
489.72	276.97
490.08	278.17
490.44	279.43
490.81	280.77
491.17	282.12
491.54	283.60
491.90	285.09
492.26	286.79
492.63	288.53
492.99	290.26
493.36	292.17
493.72	294.20
494.08	296.30
494.45	298.59
494.81	300.93
495.17	303.40
495.54	305.97
495.90	308.65
496.26	311.47
496.63	314.43
496.99	317.53
497.35	320.77
497.72	324.17
498.08	327.70
498.44	331.34
498.80	335.26
499.17	339.32
499.53	343.53
499.89	347.96
500.26	352.52
500.62	357.26
500.98	362.27
501.34	367.41
501.71	372.74
502.07	378.20
502.43	383.81
502.79	389.62
503.16	395.68
503.52	402.00
503.88	408.41
504.24	415.07
504.60	421.94
504.97	429.05
505.33	436.43
505.69	444.10
506.05	451.94
506.41	459.82
506.78	467.94
507.14	476.44
507.50	485.10
507.86	494.08
508.22	503.23
508.59	512.44
508.95	521.98
509.31	531.74
509.67	541.82
510.03	552.07
510.39	562.62
510.75	573.44
511.12	584.34
511.48	595.56
511.84	606.98
512.20	618.53
512.56	630.51
512.92	642.68
513.28	655.03
513.64	667.52
514.00	680.20
514.37	693.20
514.73	706.22
515.09	719.23
515.45	732.50
515.81	746.08
516.17	760.07
516.53	774.26
516.89	788.43
517.25	802.59
517.61	817.00
517.97	831.45
518.33	845.87
518.69	860.62
519.05	875.59
519.41	890.72
519.77	906.28
520.13	921.72
520.49	937.06
520.85	952.49
521.21	968.17
521.57	984.43
521.93	1000.15
522.29	1016.52
522.65	1032.84
523.01	1049.07
523.37	1065.14
523.73	1081.24
524.09	1097.29
524.45	1113.66
524.81	1130.28
525.17	1147.17
525.53	1164.08
525.89	1180.98
526.25	1197.85
526.61	1214.32
526.97	1231.06
527.33	1247.53
527.68	1264.21
528.04	1280.73
528.40	1297.26
528.76	1314.30
529.12	1330.94
529.48	1347.86
529.84	1363.91
530.20	1380.43
530.56	1397.40
530.91	1414.86
531.27	1431.70
531.63	1448.27
531.99	1464.81
532.35	1480.75
532.71	1496.65
533.07	1512.94
533.42	1528.86
533.78	1544.87
534.14	1561.15
534.50	1576.56
534.86	1592.46
535.21	1607.55
535.57	1623.50
535.93	1639.03
536.29	1653.89
536.65	1668.97
537.00	1683.71
537.36	1698.99
537.72	1713.68
538.08	1728.09
538.44	1741.77
538.79	1755.62
539.15	1769.30
539.51	1783.05
539.87	1797.49
540.22	1811.17
540.58	1824.90
540.94	1838.29
541.29	1851.27
541.65	1863.91
542.01	1877.22
542.37	1889.60
542.72	1902.09
543.08	1913.84
543.44	1926.27
543.79	1937.62
544.15	1948.61
544.51	1960.24
544.87	1971.31
545.22	1982.01
545.58	1992.31
545.94	2002.21
546.29	2012.05
546.65	2021.75
547.01	2030.99
547.36	2039.75
547.72	2048.27
548.07	2056.05
548.43	2064.29
548.79	2072.33
549.14	2079.88
549.50	2087.06
549.86	2094.68
550.21	2101.96
550.57	2108.96
550.92	2115.59
551.28	2122.60
551.64	2129.60
551.99	2136.04
552.35	2142.19
552.70	2148.29
553.06	2154.21
553.41	2160.39
553.77	2166.29
554.13	2172.42
554.48	2178.69
554.84	2184.07
555.19	2189.36
555.55	2194.60
555.90	2198.85
556.26	2203.77
556.61	2208.53
556.97	2212.85
557.32	2216.90
557.68	2221.09
558.03	2225.60
558.39	2229.25
558.74	2233.90
559.10	2237.68
559.45	2241.36
559.81	2245.68
560.16	2249.55
560.52	2252.84
560.87	2256.27
561.23	2259.04
561.58	2262.02
561.94	2264.43
562.29	2266.74
562.64	2269.31
563.00	2271.87
563.35	2275.50
563.71	2278.46
564.06	2281.56
564.42	2284.46
564.77	2287.03
565.12	2289.23
565.48	2291.06
565.83	2292.81
566.19	2293.92
566.54	2295.01
566.89	2296.05
567.25	2296.45
567.60	2297.78
567.96	2299.48
568.31	2300.42
568.66	2301.58
569.02	2302.06
569.37	2302.32
569.72	2303.25
570.08	2303.44
570.43	2303.47
570.78	2302.93
571.14	2301.40
571.49	2300.04
571.84	2299.58
572.20	2298.39
572.55	2297.29
572.90	2295.68
573.26	2294.31
573.61	2292.65
573.96	2290.75
574.31	2287.88
574.67	2284.94
575.02	2281.32
575.37	2277.94
575.72	2274.14
576.08	2270.76
576.43	2267.33
576.78	2263.69
577.13	2260.50
577.49	2257.47
577.84	2253.95
578.19	2250.24
578.54	2246.51
578.90	2242.41
579.25	2236.91
579.60	2231.83
579.95	2226.87
580.30	2221.83
580.66	2216.67
581.01	2211.69
581.36	2206.83
581.71	2202.48
582.06	2197.89
582.42	2193.46
582.77	2188.13
583.12	2183.44
583.47	2178.72
583.82	2173.85
584.17	2168.57
584.53	2163.11
584.88	2157.35
585.23	2151.59
585.58	2146.05
585.93	2140.72
586.28	2135.96
586.63	2130.89
586.98	2126.07
587.34	2121.32
587.69	2116.51
588.04	2111.19
588.39	2105.55
588.74	2099.02
589.09	2093.02
589.44	2086.36
589.79	2080.30
590.14	2074.68
590.49	2068.22
590.84	2061.75
591.19	2055.61
591.54	2049.19
591.89	2041.73
592.25	2034.86
592.60	2027.55
592.95	2019.82
593.30	2012.38
593.65	2004.78
594.00	1997.71
594.35	1990.37
594.70	1982.30
595.05	1975.07
595.40	1967.77
595.75	1960.32
596.10	1953.99
596.45	1947.19
596.80	1941.03
597.15	1934.27
597.50	1927.05
597.85	1920.59
598.19	1913.92
598.54	1906.85
598.89	1900.21
599.24	1894.25
599.59	1887.70
599.94	1881.48
600.29	1875.20
600.64	1868.64
600.99	1861.01
601.34	1854.12
601.69	1847.08
602.04	1840.23
602.39	1832.83
602.74	1826.04
603.08	1819.20
603.43	1812.60
603.78	1805.23
604.13	1797.84
604.48	1790.54
604.83	1783.75
605.18	1776.64
605.53	1768.66
605.87	1760.65
606.22	1753.42
606.57	1745.52
606.92	1738.21
607.27	1731.11
607.62	1724.13
607.96	1716.74
608.31	1710.17
608.66	1702.58
609.01	1694.97
609.36	1687.30
609.70	1679.29
610.05	1671.20
610.40	1663.44
610.75	1654.96
611.10	1647.25
611.44	1638.87
611.79	1630.91
612.14	1622.17
612.49	1613.03
612.83	1604.73
613.18	1596.56
613.53	1588.34
613.88	1579.75
614.22	1571.45
614.57	1562.89
614.92	1554.80
615.27	1547.21
615.61	1538.79
615.96	1530.69
616.31	1523.07
616.65	1515.71
617.00	1508.03
617.35	1500.37
617.70	1492.01
618.04	1483.57
618.39	1475.37
618.74	1467.78
619.08	1459.44
619.43	1451.88
619.78	1445.02
620.12	1437.70
620.47	1430.09
620.82	1421.99
621.16	1414.57
621.51	1407.10
621.85	1399.40
622.20	1390.93
622.55	1382.67
622.89	1374.93
623.24	1367.37
623.59	1359.90
623.93	1352.44
624.28	1345.29
624.62	1337.78
624.97	1330.64
625.32	1323.90
625.66	1316.93
626.01	1309.78
626.35	1302.41
626.70	1294.62
627.04	1286.77
627.39	1279.01
627.73	1271.66
628.08	1264.76
628.43	1257.45
628.77	1249.96
629.12	1242.41
629.46	1235.20
629.81	1227.79
630.15	1220.60
630.50	1213.24
630.84	1205.20
631.19	1197.31
631.53	1189.79
631.88	1182.32
632.22	1174.77
632.57	1167.54
632.91	1160.01
633.26	1152.51
633.60	1145.14
633.95	1138.17
634.29	1131.18
634.64	1124.57
634.98	1117.24
635.32	1110.16
635.67	1103.62
636.01	1097.00
636.36	1090.22
636.70	1083.74
637.05	1077.20
637.39	1070.71
637.73	1064.20
638.08	1058.31
638.42	1052.26
638.77	1045.86
639.11	1039.22
639.45	1032.86
639.80	1026.12
640.14	1019.72
640.49	1013.38
640.83	1007.00
641.17	1000.69
641.52	994.41
641.86	987.97
642.20	982.12
642.55	975.71
642.89	969.25
643.23	962.68
643.58	956.86
643.92	950.69
644.26	944.56
644.61	938.53
644.95	932.51
645.29	925.86
645.64	919.17
645.98	912.77
646.32	906.98
646.66	900.95
647.01	895.16
647.35	889.48
647.69	883.56
648.04	878.07
648.38	872.32
648.72	866.31
649.06	860.18
649.41	854.32
649.75	848.34
650.09	842.40
650.43	836.61
650.78	830.49
651.12	824.57
651.46	818.92
651.80	813.09
652.14	807.70
652.49	802.36
652.83	797.18
653.17	791.53
653.51	785.66
653.85	780.17
654.20	774.51
654.54	768.47
654.88	762.74
655.22	756.84
655.56	751.15
655.90	745.70
656.25	740.50
656.59	735.07
656.93	730.00
657.27	724.78
657.61	719.27
657.95	714.14
658.29	708.99
658.64	703.73
658.98	698.44
659.32	692.94
659.66	687.69
660.00	682.35
660.34	677.40
660.68	672.59
661.02	667.62
661.36	662.87
661.70	658.34
662.05	653.94
662.39	649.60
662.73	645.11
663.07	640.72
663.41	636.25
663.75	631.78
664.09	627.24
664.43	622.84
664.77	618.77
665.11	614.50
665.45	610.39
665.79	606.26
666.13	602.15
666.47	598.03
666.81	593.91
667.15	589.77
667.49	585.86
667.83	581.99
668.17	578.03
668.51	573.96
668.85	569.89
669.19	566.08
669.53	562.19
669.87	558.30
670.21	554.61
670.55	550.93
670.89	547.49
671.23	544.02
671.57	540.53
671.91	536.95
672.25	533.43
672.58	529.94
672.92	526.56
673.26	523.42
673.60	520.28
673.94	517.16
674.28	514.28
674.62	511.35
674.96	508.29
675.30	505.38
675.64	502.49
675.97	499.82
676.31	496.94
676.65	494.05
676.99	491.36
677.33	488.51
677.67	485.74
678.01	482.69
678.34	479.76
678.68	476.91
679.02	474.16
679.36	471.44
679.70	468.73
680.04	465.98
680.37	463.11
680.71	460.36
681.05	457.75
681.39	455.03
681.73	452.40
682.06	449.85
682.40	447.31
682.74	444.82
683.08	442.23
683.42	439.66
683.75	437.19
684.09	434.66
684.43	432.21
684.77	429.73
685.10	427.46
685.44	425.14
685.78	422.85
686.12	420.58
686.45	418.30
686.79	415.99
687.13	413.81
687.46	411.66
687.80	409.49
688.14	407.29
688.48	405.21
688.81	402.96
689.15	400.84
689.49	398.69
689.82	396.59
690.16	394.47
690.50	392.56
690.83	390.62
691.17	388.64
691.51	386.73
691.84	384.90
692.18	382.90
692.52	380.92
692.85	378.99
693.19	377.12
693.52	375.26
693.86	373.43
694.20	371.62
694.53	369.81
694.87	368.00
695.21	366.20
695.54	364.38
695.88	362.67
696.21	360.91
696.55	359.24
696.88	357.58
697.22	355.93
697.56	354.24
697.89	352.62
698.23	351.03
698.56	349.45
698.90	347.85
699.23	346.26
699.57	344.69
699.90	343.13
700.24	341.59
700.58	340.06
700.91	338.54
701.25	337.11
701.58	335.73
701.92	334.32
702.25	332.93
702.59	331.58
702.92	330.22
703.26	328.93
703.59	327.60
703.93	326.39
704.26	325.17
704.60	323.87
704.93	322.54
705.26	321.27
705.60	320.04
705.93	318.87
706.27	317.79
706.60	316.73
706.94	315.67
707.27	314.52
707.61	313.52
707.94	312.53
708.27	311.42
708.61	310.36
708.94	309.36
709.28	308.37
709.61	307.40
709.94	306.46
710.28	305.41
710.61	304.46
710.95	303.42
711.28	302.51
711.61	301.58
711.95	300.70
712.28	299.76
712.61	298.80
712.95	297.88
713.28	297.02
713.61	296.16
713.95	295.28
714.28	294.47
714.61	293.55
714.95	292.71
715.28	291.87
715.61	291.02
715.95	290.19
716.28	289.36
716.61	288.54
716.95	287.74
717.28	287.05
717.61	286.29
717.94	285.55
718.28	284.73
718.61	284.05
718.94	283.36
719.27	282.69
719.61	282.04
719.94	281.41
720.27	280.70
720.60	280.04
720.94	279.42
721.27	278.78
721.60	278.28
721.93	277.68
722.27	277.16
722.60	276.58
722.93	276.00
723.26	275.47
723.59	274.93
723.93	274.39
724.26	273.83
724.59	273.29
724.92	272.79
725.25	272.29
725.59	271.76
725.92	271.25
726.25	270.77
726.58	270.29
726.91	269.79
727.24	269.33
727.57	268.88
727.91	268.35
728.24	267.88
728.57	267.34
728.90	266.92
729.23	266.41
729.56	265.97
729.89	265.49
730.22	265.04
730.55	264.57
730.89	264.11
731.22	263.63
731.55	263.21
731.88	262.75
732.21	262.35
732.54	261.93
732.87	261.52
733.20	261.12
733.53	260.72
733.86	260.34
734.19	259.92
734.52	259.50
734.85	259.23
735.18	258.84
735.51	258.50
735.84	258.09
736.17	257.73
736.50	257.32
736.83	257.11
737.16	256.75
737.49	256.38
737.82	256.03
738.15	255.71
738.48	255.37
738.81	255.03
739.14	254.67
739.47	254.34
739.80	253.98
740.13	253.65
740.46	253.34
740.79	252.99
741.12	252.67
741.45	252.33
741.78	251.96
742.11	251.66
742.44	251.32
742.77	251.04
743.10	250.74
743.43	250.47
743.75	250.05
744.08	249.89
744.41	249.60
744.74	249.36
745.07	249.07
745.40	248.77
745.73	248.52
746.06	248.24
746.39	247.97
746.71	247.72
747.04	247.45
747.37	247.18
747.70	246.96
748.03	246.73
748.36	246.53
748.68	246.32
749.01	246.07
749.34	245.83
749.67	245.59
750.00	245.37
750.33	245.20
750.65	245.00
750.98	244.67
751.31	244.47
751.64	244.22
751.97	244.08
752.29	243.88
752.62	243.68
752.95	243.50
753.28	243.29
753.60	243.10
753.93	242.92
754.26	242.75
754.59	242.52
754.91	242.32
755.24	242.13
755.57	241.95
755.90	241.75
756.22	241.58
756.55	241.39
756.88	241.19
757.20	240.97
757.53	240.81
757.86	240.66
758.19	240.52
758.51	240.38
758.84	240.19
759.17	240.03
759.49	239.86
759.82	239.72
760.15	239.62
760.47	239.44
760.80	239.25
761.13	239.09
761.45	238.98
761.78	238.86
762.11	238.74
762.43	238.59
762.76	238.43
763.08	238.33
763.41	238.23
763.74	238.15
764.06	238.01
764.39	237.86
764.71	237.74
765.04	237.58
765.37	237.45
765.69	237.30
766.02	237.17
766.34	237.03
766.67	236.89
767.00	236.74
767.32	236.69
767.65	236.67
767.97	236.54
768.30	236.40
768.62	236.29
768.95	236.12
769.27	236.00
769.60	235.94
769.92	235.80
770.25	235.63
770.57	235.48
770.90	235.37
771.22	235.22
771.55	235.10
771.87	235.03
772.20	234.91
772.52	234.87
772.85	234.90
773.17	234.78
773.50	234.69
773.82	234.60
774.15	234.44
774.47	234.27
774.80	234.17
775.12	234.05
775.45	233.96
775.77	233.89
776.09	233.79
776.42	233.69
776.74	233.65
777.07	233.57
777.39	233.50
777.72	233.41
778.04	233.38
778.36	233.31
778.69	233.21
779.01	233.15
779.33	233.00
779.66	232.80
779.98	232.75
780.31	232.68
780.63	232.66
780.95	232.62
781.28	232.54
781.60	232.45
781.92	232.42
782.25	232.34
782.57	232.26
782.89	232.19
783.22	232.16
783.54	232.05
783.86	232.00
784.19	231.95
784.51	231.92
784.83	231.86
785.16	231.80
785.48	231.72
785.80	231.64
786.12	231.65
786.45	231.63
786.77	231.56
787.09	231.49
787.42	231.39
787.74	231.34
788.06	231.33
788.38	231.30
788.71	231.24
789.03	231.23
789.35	231.22
789.67	231.20
789.99	231.14
790.32	231.08
790.64	231.08
790.96	231.12
791.28	231.04
791.61	231.00
791.93	230.98
792.25	230.96
792.57	231.03
792.89	230.93
793.21	230.89
793.54	230.88
793.86	230.87
794.18	230.88
794.50	230.84
794.82	230.80
795.14	230.79
795.47	230.79
795.79	230.75
796.11	230.68
796.43	230.65
796.75	230.65
797.07	230.66
797.39	230.60
797.71	230.48
798.04	230.48
798.36	230.45
798.68	230.41
799.00	230.39
799.32	230.31
799.64	230.31
799.96	230.28
800.28	230.25
800.60	230.19
800.92	230.15
801.24	230.11
801.56	230.09
801.89	230.06
802.21	230.01
802.53	229.97
802.85	229.96
803.17	229.99
803.49	229.92
803.81	229.88
804.13	229.85
804.45	229.81
804.77	229.79
805.09	229.78
805.41	229.76
805.73	229.70
806.05	229.62
806.37	229.60
806.69	229.54
807.01	229.50
807.33	229.49
807.65	229.42
807.97	229.45
808.28	229.46
808.60	229.42
808.92	229.39
809.24	229.43
809.56	229.42
809.88	229.35
810.20	229.34
810.52	229.34
810.84	229.31
811.16	229.28
811.48	229.24
811.80	229.22
812.12	229.17
812.43	229.16
812.75	229.15
813.07	229.10
813.39	229.11
813.71	229.09
814.03	229.05
814.35	229.01
814.67	228.93
814.98	228.84
815.30	228.79
815.62	228.74
815.94	228.60
816.26	228.61
816.58	228.53
816.89	228.53
817.21	228.47
817.53	228.43
817.85	228.39
818.17	228.34
818.48	228.29
818.80	228.32
819.12	228.31
819.44	228.27
819.76	228.24
820.07	228.19
820.39	228.17
820.71	228.15
821.03	228.17
821.34	228.14
821.66	228.16
821.98	228.13
822.30	228.11
822.61	228.17
822.93	228.11
823.25	228.09
823.57	228.06
823.88	228.03
824.20	228.04
824.52	228.05
824.83	228.04
825.15	228.02
825.47	228.00
825.79	227.97
826.10	227.97
826.42	227.96
826.74	227.95
827.05	227.94
827.37	227.93
827.69	227.93
828.00	227.94
828.32	227.91
828.64	227.94
828.95	228.00
829.27	227.98
829.58	227.98
829.90	228.01
830.22	228.00
830.53	227.99
830.85	227.97
831.17	227.98
831.48	227.96
831.80	227.99
832.11	227.97
832.43	227.95
832.75	227.96
833.06	228.00
833.38	227.99
833.69	227.98
834.01	227.99
834.32	227.93
834.64	227.91
834.96	227.92
835.27	227.93
835.59	227.87
835.90	227.84
836.22	227.82
836.53	227.79
836.85	227.76
837.16	227.90
837.48	227.92
837.79	227.92
838.11	227.97
838.42	227.92
838.74	227.89
839.05	227.89
839.37	227.88
839.68	227.83
840.00	227.84
840.31	227.84
840.63	227.82
840.94	227.82
841.26	227.79
841.57	227.78
841.88	227.74
842.20	227.76
842.51	227.73
842.83	227.74
843.14	227.82
843.46	227.84
843.77	227.76
844.08	227.73
844.40	227.68
844.71	227.62
845.03	227.60
845.34	227.61
845.65	227.58
845.97	227.61
846.28	227.62
846.60	227.60
846.91	227.60
847.22	227.62
847.54	227.63
847.85	227.64
848.16	227.63
848.48	227.63
848.79	227.67
849.10	227.67
849.42	227.64
849.73	227.56
850.04	227.54
850.36	227.47
850.67	227.46
850.98	227.46
851.30	227.51
851.61	227.53
851.92	227.52
852.23	227.56
852.55	227.50
852.86	227.50
853.17	227.47
853.49	227.46
853.80	227.46
854.11	227.46
854.42	227.49
854.74	227.46
855.05	227.44
855.36	227.34
855.67	227.37
855.99	227.39
856.30	227.50
856.61	227.47
856.92	227.50
857.23	227.52
857.55	227.50
857.86	227.45
858.17	227.43
858.48	227.43
858.79	227.38
859.11	227.38
859.42	227.36
859.73	227.37
860.04	227.37
860.35	227.34
860.66	227.33
860.98	227.32
861.29	227.33
861.60	227.32
861.91	227.33
862.22	227.33
862.53	227.30
862.84	227.17
863.16	227.22
863.47	227.21
863.78	227.19
864.09	227.21
864.40	227.23
864.71	227.27
865.02	227.25
865.33	227.28
865.64	227.25
865.95	227.29
866.27	227.34
866.58	227.32
866.89	227.33
867.20	227.32
867.51	227.30
867.82	227.31
868.13	227.35
868.44	227.35
868.75	227.38
869.06	227.41
869.37	227.42
869.68	227.35
869.99	227.36
870.30	227.40
870.61	227.42
870.92	227.40
871.23	227.37
871.54	227.39
871.85	227.42
872.16	227.45
872.47	227.43
872.78	227.40
873.09	227.43
873.40	227.41
873.71	227.42
874.02	227.40
874.33	227.39
874.64	227.39
874.95	227.43
875.26	227.39
875.56	227.36
875.87	227.37
876.18	227.39
876.49	227.47
876.80	227.45
877.11	227.44
877.42	227.44
877.73	227.46
878.04	227.43
878.35	227.41
878.66	227.43
878.96	227.43
879.27	227.41
879.58	227.40
879.89	227.39
880.20	227.41
880.51	227.43
880.82	227.46
881.12	227.41
881.43	227.36
881.74	227.34
882.05	227.36
882.36	227.34
882.67	227.35
882.97	227.24
883.28	227.24
883.59	227.22
883.90	227.24
884.21	227.26
884.51	227.25
884.82	227.22
885.13	227.22
885.44	227.22
885.74	227.22
886.05	227.21
886.36	227.20
886.67	227.20
886.98	227.26
887.28	227.22
887.59	227.26
887.90	227.28
888.20	227.28
888.51	227.26
888.82	227.24
889.13	227.26
889.43	227.34
889.74	227.29
890.05	227.30
890.35	227.27
890.66	227.25
890.97	227.24
891.28	227.24
891.58	227.26
891.89	227.26
892.20	227.26
892.50	227.24
892.81	227.24
893.12	227.22
893.42	227.13
893.73	227.13
894.04	227.09
894.34	227.10
894.65	227.09
894.95	227.08
895.26	227.09
895.57	227.09
895.87	226.99
896.18	227.02
896.48	227.00
896.79	226.99
897.10	226.97
897.40	226.96
897.71	226.96
898.01	226.92
898.32	226.91
898.63	226.89
898.93	226.89
899.24	226.86
899.54	226.83
899.85	226.86
900.15	226.84
900.46	226.87
900.76	226.86
901.07	226.87
901.38	226.87
901.68	226.87
901.99	226.84
902.29	226.86
902.60	226.86
902.90	226.83
903.21	226.84
903.51	226.85
903.82	226.93
904.12	226.92
904.43	226.93
904.73	226.93
905.03	226.96
905.34	227.06
905.64	227.05
905.95	227.08
906.25	227.08
906.56	227.10
906.86	227.10
907.17	227.12
907.47	227.13
907.77	227.11
908.08	227.10
908.38	227.13
908.69	227.10
908.99	227.12
909.30	227.15
909.60	227.17
909.90	227.15
910.21	227.09
910.51	227.08
910.81	227.09
911.12	227.06
911.42	227.03
911.73	226.92
912.03	226.92
912.33	226.95
912.64	226.95
912.94	226.95
913.24	226.90
913.55	226.87
913.85	226.85
914.15	226.90
914.46	226.89
914.76	226.89
915.06	226.91
915.37	226.88
915.67	226.85
915.97	226.85
916.27	226.85
916.58	226.86
916.88	226.87
917.18	226.86
917.49	226.96
917.79	226.97
918.09	227.00
918.39	227.04
918.70	227.02
919.00	227.00
919.30	227.05
919.60	227.08
919.91	227.07
920.21	227.09
920.51	227.07
920.81	227.08
921.12	227.07
921.42	227.08
921.72	227.08
922.02	227.13
922.32	227.15
922.63	227.15
922.93	227.19
923.23	227.17
923.53	227.16
923.83	227.05
924.13	227.07
924.44	227.05
924.74	227.08
925.04	227.09
925.34	227.09
925.64	227.03
925.94	226.98
926.24	227.05
926.55	227.03
926.85	227.00
927.15	227.02
927.45	227.03
927.75	227.01
928.05	227.02
928.35	226.97
928.65	226.97
928.95	227.00
929.26	226.97
929.56	227.01
929.86	227.01
930.16	227.01
930.46	226.99
930.76	227.01
931.06	226.95
931.36	226.92
931.66	226.93
931.96	226.94
932.26	226.95
932.56	226.90
932.86	226.88
933.16	226.89
933.46	226.85
933.76	226.85
934.06	226.86
934.36	226.87
934.66	226.86
934.96	226.82
935.26	226.77
935.56	226.77
935.86	226.72
936.16	226.72
936.46	226.72
936.76	226.71
937.06	226.69
937.36	226.68
937.66	226.72
937.96	226.73
938.26	226.73
938.56	226.76
938.86	226.77
939.16	226.80
939.46	226.83
939.76	226.85
940.06	226.81
940.35	226.80
940.65	226.75
940.95	226.74
941.25	226.76
941.55	226.73
941.85	226.75
942.15	226.77
942.45	226.79
942.75	226.81
943.04	226.79
943.34	226.80
943.64	226.79
943.94	226.75
944.24	226.74
944.54	226.72
944.84	226.71
945.13	226.68
945.43	226.66
945.73	226.64
946.03	226.63
946.33	226.63
946.62	226.61
946.92	226.63
947.22	226.68
947.52	226.64
947.82	226.68
948.11	226.64
948.41	226.63
948.71	226.59
949.01	226.59
949.31	226.59
949.60	226.56
949.90	226.60
950.20	226.60
950.50	226.56
950.79	226.54
951.09	226.54
951.39	226.56
951.69	226.56
951.98	226.57
952.28	226.54
952.58	226.56
952.87	226.53
953.17	226.51
953.47	226.48
953.76	226.48
954.06	226.43
954.36	226.40
954.66	226.41
954.95	226.46
955.25	226.46
955.55	226.47
955.84	226.47
956.14	226.48
956.44	226.49
956.73	226.47
957.03	226.51
957.32	226.51
957.62	226.50
957.92	226.50
958.21	226.51
958.51	226.63
958.81	226.63
959.10	226.67
959.40	226.75
959.69	226.75
959.99	226.81
960.29	226.85
960.58	226.87
960.88	226.90
961.17	226.88
961.47	226.87
961.76	226.83
962.06	226.87
962.36	226.85
962.65	226.83
962.95	226.89
963.24	226.86
963.54	226.86
963.83	226.87
964.13	226.89
964.42	226.85
964.72	226.81
965.01	226.82
965.31	226.81
965.60	226.78
965.90	226.85
966.19	226.78
966.49	226.77
966.78	226.74
967.08	226.73
967.37	226.73
967.67	226.71
967.96	226.77
968.26	226.75
968.55	226.78
968.85	226.79
969.14	226.77
969.43	226.79
969.73	226.77
970.02	226.77
970.32	226.75
970.61	226.76
970.91	226.70
971.20	226.68
971.49	226.71
971.79	226.69
972.08	226.65
972.38	226.70
972.67	226.71
972.96	226.78
973.26	226.75
973.55	226.77
973.85	226.80
974.14	226.81
974.43	226.85
974.73	226.82
975.02	226.80
975.31	226.80
975.61	226.80
975.90	226.81
976.19	226.78
976.49	226.81
976.78	226.84
977.07	226.88
977.37	226.89
977.66	226.87
977.95	226.86
978.24	226.85
978.54	226.85
978.83	226.84
979.12	226.80
979.42	226.84
979.71	226.83
980.00	226.82
980.29	226.78
980.59	226.73
980.88	226.74
981.17	226.74
981.46	226.78
981.76	226.79
982.05	226.81
982.34	226.83
982.63	226.85
982.93	226.82
983.22	226.83
983.51	226.82
983.80	226.84
984.09	226.87
984.39	226.85
984.68	226.84
984.97	226.88
985.26	226.87
985.55	226.89
985.85	226.87
986.14	226.85
986.43	226.91
986.72	226.93
987.01	226.91
987.30	226.95
987.59	226.94
987.89	226.91
988.18	226.86
988.47	226.85
988.76	226.81
989.05	226.82
989.34	226.78
989.63	226.81
989.92	226.77
990.22	226.75
990.51	226.75
990.80	226.73
991.09	226.73
991.38	226.71
991.67	226.69
991.96	226.66
992.25	226.67
992.54	226.64
992.83	226.62
993.12	226.61
993.41	226.58
993.70	226.61
993.99	226.64
994.28	226.66
994.58	226.66
994.87	226.63
995.16	226.63
995.45	226.63
995.74	226.60
996.03	226.59
996.32	226.62
996.61	226.61
996.90	226.63
997.19	226.57
997.48	226.57
997.77	226.55
998.06	226.55
998.34	226.55
998.63	226.53
998.92	226.54
999.21	226.56
999.50	226.55
999.79	226.50
1000.08	226.47
1000.37	226.47
1000.66	226.49
1000.95	226.55
1001.24	226.56
1001.53	226.59
1001.82	226.58
1002.11	226.61
1002.40	226.62
1002.68	226.68
1002.97	226.74
1003.26	226.75
1003.55	226.77
1003.84	226.82
1004.13	226.86
1004.42	226.89
1004.71	226.92
1004.99	226.92
1005.28	226.93
1005.57	226.92
1005.86	226.92
1006.15	226.93
1006.44	226.95
1006.72	226.95
1007.01	226.90
1007.30	226.92
1007.59	226.89
1007.88	226.88
1008.17	226.87
1008.45	226.84
1008.74	226.78
1009.03	226.77
1009.32	226.81
1009.60	226.81
1009.89	226.76
1010.18	226.72
1010.47	226.70
1010.76	226.69
1011.04	226.70
1011.33	226.70
1011.62	226.73
1011.91	226.74
1012.19	226.71
1012.48	226.73
1012.77	226.70
1013.05	226.77
1013.34	226.74
1013.63	226.74
1013.92	226.77
1014.20	226.75
1014.49	226.75
1014.78	226.79
1015.06	226.72
1015.35	226.70
1015.64	226.72
1015.92	226.77
1016.21	226.79
1016.50	226.82
1016.78	226.83
1017.07	226.82
1017.36	226.79
1017.64	226.78
1017.93	226.79
1018.22	226.79
1018.50	226.78
1018.79	226.77
1019.08	226.69
1019.36	226.70
1019.65	226.68
1019.93	226.66
1020.22	226.68
1020.51	226.73
1020.79	226.71
1021.08	226.15
1021.36	226.73
1021.65	226.20
1021.94	226.19
1022.22	226.55
1022.51	226.47
1022.79	226.55
1023.08	226.62
1023.36	227.95
1023.65	226.29
>>>>>End Processed Spectral Data<<<<<
