SpectraSuite Data File
++++++++++++++++++++++++++++++++++++
Date: Fri Feb 01 17:58:54 EST 2013
User: group
Dark Spectrum Present: No
Reference Spectrum Present: No
Number of Sampled Component Spectra: 1
Spectrometers: USB2E7196
Integration Time (usec): 35000 (USB2E7196)
Spectra Averaged: 100 (USB2E7196)
Boxcar Smoothing: 10 (USB2E7196)
Correct for Electrical Dark: No (USB2E7196)
Strobe/Lamp Enabled: No (USB2E7196)
Correct for Detector Non-linearity: No (USB2E7196)
Correct for Stray Light: No (USB2E7196)
Number of Pixels in Processed Spectrum: 2048
>>>>>Begin Processed Spectral Data<<<<<
339.09	0.00
339.48	213.03
339.86	214.05
340.24	216.03
340.63	216.71
341.01	219.61
341.39	219.35
341.78	220.19
342.16	222.48
342.54	222.23
342.93	211.09
343.31	221.77
343.69	222.31
344.07	222.80
344.46	223.23
344.84	223.62
345.22	223.88
345.60	224.15
345.99	224.40
346.37	224.52
346.75	224.65
347.13	224.75
347.52	224.80
347.90	224.88
348.28	224.91
348.66	224.99
349.05	225.00
349.43	225.04
349.81	225.08
350.19	225.14
350.57	225.20
350.96	225.29
351.34	225.37
351.72	225.45
352.10	225.55
352.48	225.60
352.87	225.65
353.25	225.72
353.63	225.78
354.01	225.86
354.39	225.95
354.77	226.05
355.15	226.14
355.54	226.24
355.92	226.28
356.30	226.39
356.68	226.53
357.06	226.60
357.44	226.64
357.82	226.76
358.20	226.83
358.58	226.90
358.97	226.97
359.35	227.05
359.73	227.15
360.11	227.19
360.49	227.27
360.87	227.33
361.25	227.40
361.63	227.50
362.01	227.50
362.39	227.52
362.77	227.56
363.15	227.59
363.53	227.61
363.91	227.65
364.29	227.65
364.67	227.54
365.05	227.56
365.43	227.61
365.81	227.57
366.19	227.62
366.57	227.65
366.95	227.61
367.33	227.58
367.71	227.54
368.09	227.54
368.47	227.53
368.85	227.51
369.23	227.49
369.61	227.43
369.99	227.47
370.37	227.44
370.75	227.43
371.13	227.39
371.51	227.37
371.89	227.29
372.27	227.24
372.65	227.21
373.03	227.17
373.41	227.11
373.78	227.09
374.16	227.00
374.54	226.97
374.92	226.94
375.30	226.90
375.68	226.84
376.06	226.77
376.44	226.71
376.82	226.66
377.19	226.57
377.57	226.53
377.95	226.45
378.33	226.41
378.71	226.31
379.09	226.24
379.47	226.16
379.84	226.12
380.22	226.07
380.60	226.00
380.98	225.93
381.36	225.86
381.73	225.83
382.11	225.78
382.49	225.67
382.87	225.60
383.25	225.56
383.62	225.64
384.00	225.58
384.38	225.52
384.76	225.49
385.13	225.49
385.51	225.41
385.89	225.35
386.27	225.29
386.64	225.24
387.02	225.19
387.40	225.17
387.78	225.15
388.15	225.11
388.53	225.09
388.91	225.05
389.29	225.04
389.66	224.96
390.04	224.92
390.42	224.93
390.79	224.91
391.17	224.85
391.55	224.72
391.92	224.70
392.30	224.71
392.68	224.68
393.05	224.67
393.43	224.69
393.81	224.69
394.18	224.68
394.56	224.71
394.94	224.74
395.31	224.74
395.69	224.77
396.06	224.81
396.44	224.86
396.82	224.88
397.19	224.96
397.57	225.03
397.95	225.08
398.32	225.08
398.70	225.13
399.07	225.21
399.45	225.26
399.82	225.33
400.20	225.37
400.58	225.44
400.95	225.48
401.33	225.58
401.70	225.74
402.08	225.84
402.45	225.94
402.83	226.05
403.20	226.15
403.58	226.24
403.95	226.35
404.33	226.48
404.71	226.64
405.08	226.80
405.46	226.94
405.83	227.12
406.21	227.30
406.58	227.50
406.96	227.70
407.33	227.92
407.70	228.16
408.08	228.49
408.45	228.74
408.83	229.00
409.20	229.25
409.58	229.45
409.95	229.78
410.33	230.12
410.70	230.44
411.08	230.83
411.45	231.22
411.82	231.65
412.20	232.09
412.57	232.62
412.95	233.04
413.32	233.59
413.69	234.11
414.07	234.65
414.44	235.27
414.82	235.89
415.19	236.60
415.56	237.30
415.94	238.02
416.31	238.86
416.68	239.72
417.06	240.66
417.43	241.59
417.81	242.60
418.18	243.63
418.55	244.74
418.93	245.91
419.30	247.12
419.67	248.33
420.04	249.62
420.42	250.97
420.79	252.56
421.16	254.08
421.54	255.63
421.91	257.32
422.28	259.00
422.66	260.78
423.03	262.52
423.40	264.33
423.77	266.25
424.15	268.19
424.52	270.20
424.89	272.40
425.26	274.49
425.64	276.42
426.01	278.55
426.38	280.76
426.75	283.02
427.13	285.34
427.50	287.81
427.87	290.32
428.24	292.79
428.61	295.12
428.99	297.72
429.36	300.61
429.73	303.37
430.10	306.08
430.47	308.84
430.85	311.70
431.22	314.73
431.59	317.91
431.96	320.90
432.33	324.25
432.70	327.41
433.08	331.20
433.45	334.74
433.82	338.28
434.19	342.18
434.56	345.91
434.93	349.51
435.30	352.98
435.68	356.91
436.05	360.68
436.42	364.44
436.79	367.82
437.16	371.40
437.53	375.22
437.90	378.98
438.27	382.69
438.64	386.50
439.01	389.95
439.38	392.99
439.75	395.92
440.13	399.26
440.50	402.38
440.87	404.86
441.24	407.52
441.61	410.45
441.98	412.48
442.35	414.94
442.72	417.38
443.09	419.84
443.46	421.18
443.83	421.98
444.20	422.69
444.57	423.86
444.94	424.32
445.31	424.81
445.68	425.26
446.05	425.38
446.42	424.89
446.79	424.34
447.16	423.75
447.53	423.35
447.90	421.85
448.27	420.37
448.64	418.20
449.01	416.72
449.37	414.08
449.74	411.48
450.11	408.44
450.48	405.15
450.85	401.75
451.22	398.89
451.59	396.22
451.96	393.56
452.33	390.07
452.70	386.89
453.07	383.05
453.43	379.20
453.80	375.46
454.17	371.89
454.54	368.47
454.91	364.81
455.28	361.16
455.65	357.79
456.02	354.41
456.38	351.55
456.75	347.86
457.12	344.81
457.49	341.85
457.86	338.90
458.23	336.37
458.59	333.60
458.96	330.78
459.33	328.25
459.70	325.76
460.07	323.67
460.43	321.32
460.80	319.11
461.17	317.14
461.54	315.10
461.91	313.10
462.27	311.16
462.64	309.42
463.01	307.57
463.38	305.76
463.74	303.93
464.11	302.32
464.48	300.97
464.85	299.43
465.21	298.23
465.58	296.97
465.95	295.50
466.32	294.26
466.68	293.03
467.05	291.80
467.42	290.57
467.78	289.28
468.15	288.12
468.52	287.19
468.88	286.04
469.25	284.98
469.62	284.14
469.98	283.18
470.35	282.34
470.72	281.50
471.08	280.60
471.45	279.84
471.82	279.07
472.18	278.24
472.55	277.65
472.92	276.95
473.28	276.31
473.65	275.70
474.02	275.10
474.38	274.54
474.75	274.05
475.11	273.59
475.48	273.25
475.85	272.88
476.21	272.57
476.58	272.28
476.94	272.08
477.31	271.79
477.67	271.57
478.04	271.36
478.41	271.27
478.77	271.26
479.14	271.16
479.50	271.12
479.87	271.16
480.23	271.19
480.60	271.20
480.96	271.25
481.33	271.40
481.69	271.56
482.06	271.74
482.42	271.90
482.79	272.10
483.15	272.39
483.52	272.77
483.88	273.11
484.25	273.50
484.61	273.89
484.98	274.37
485.34	274.92
485.71	275.49
486.07	276.12
486.44	276.68
486.80	277.39
487.17	278.12
487.53	278.94
487.90	279.80
488.26	280.77
488.62	281.79
488.99	282.80
489.35	283.84
489.72	285.01
490.08	286.24
490.44	287.54
490.81	288.87
491.17	290.27
491.54	291.79
491.90	293.35
492.26	295.09
492.63	296.89
492.99	298.74
493.36	300.74
493.72	302.83
494.08	305.05
494.45	307.45
494.81	309.94
495.17	312.49
495.54	315.21
495.90	318.05
496.26	321.01
496.63	324.15
496.99	327.47
497.35	330.88
497.72	334.49
498.08	338.20
498.44	342.13
498.80	346.28
499.17	350.55
499.53	354.98
499.89	359.61
500.26	364.36
500.62	369.30
500.98	374.50
501.34	379.92
501.71	385.50
502.07	391.23
502.43	397.20
502.79	403.40
503.16	409.81
503.52	416.47
503.88	423.25
504.24	430.24
504.60	437.56
504.97	445.15
505.33	452.96
505.69	461.19
506.05	469.37
506.41	477.71
506.78	486.38
507.14	495.38
507.50	504.62
507.86	514.22
508.22	524.01
508.59	533.84
508.95	543.97
509.31	554.45
509.67	565.22
510.03	576.20
510.39	587.50
510.75	599.07
511.12	610.76
511.48	622.83
511.84	635.19
512.20	647.47
512.56	660.25
512.92	673.25
513.28	686.50
513.64	699.94
514.00	713.63
514.37	727.55
514.73	741.59
515.09	755.61
515.45	769.80
515.81	784.47
516.17	799.54
516.53	814.84
516.89	830.15
517.25	845.48
517.61	861.08
517.97	876.65
518.33	892.24
518.69	908.18
519.05	924.50
519.41	940.93
519.77	957.96
520.13	974.81
520.49	991.60
520.85	1008.35
521.21	1025.48
521.57	1043.17
521.93	1060.31
522.29	1078.25
522.65	1096.01
523.01	1113.79
523.37	1131.47
523.73	1149.20
524.09	1166.83
524.45	1184.81
524.81	1203.04
525.17	1221.47
525.53	1240.11
525.89	1258.74
526.25	1277.42
526.61	1295.49
526.97	1313.84
527.33	1331.99
527.68	1350.32
528.04	1368.58
528.40	1386.98
528.76	1405.97
529.12	1424.46
529.48	1443.41
529.84	1461.02
530.20	1479.62
530.56	1498.57
530.91	1517.99
531.27	1536.82
531.63	1555.37
531.99	1573.89
532.35	1591.87
532.71	1609.88
533.07	1628.14
533.42	1646.09
533.78	1664.20
534.14	1682.61
534.50	1700.09
534.86	1718.11
535.21	1735.45
535.57	1753.53
535.93	1771.09
536.29	1787.89
536.65	1805.04
537.00	1821.87
537.36	1839.55
537.72	1856.10
538.08	1872.83
538.44	1888.70
538.79	1904.71
539.15	1920.46
539.51	1936.47
539.87	1953.06
540.22	1968.90
540.58	1984.92
540.94	2000.40
541.29	2015.34
541.65	2030.07
542.01	2045.61
542.37	2060.09
542.72	2074.58
543.08	2088.66
543.44	2103.32
543.79	2116.87
544.15	2129.94
544.51	2143.69
544.87	2156.87
545.22	2169.98
545.58	2182.34
545.94	2194.15
546.29	2206.16
546.65	2218.27
547.01	2229.65
547.36	2240.50
547.72	2251.06
548.07	2260.95
548.43	2271.10
548.79	2281.18
549.14	2290.91
549.50	2300.03
549.86	2309.70
550.21	2319.14
550.57	2328.13
550.92	2336.79
551.28	2345.79
551.64	2354.96
551.99	2363.43
552.35	2371.63
552.70	2379.70
553.06	2387.62
553.41	2395.98
553.77	2403.91
554.13	2411.83
554.48	2419.78
554.84	2427.19
555.19	2434.23
555.55	2441.18
555.90	2447.40
556.26	2454.19
556.61	2460.58
556.97	2466.91
557.32	2472.65
557.68	2478.39
558.03	2484.33
558.39	2489.45
558.74	2495.81
559.10	2501.19
559.45	2506.31
559.81	2512.00
560.16	2517.28
560.52	2521.87
560.87	2526.61
561.23	2530.56
561.58	2534.80
561.94	2538.75
562.29	2542.08
562.64	2546.11
563.00	2550.07
563.35	2555.00
563.71	2559.30
564.06	2563.67
564.42	2567.79
564.77	2571.55
565.12	2575.18
565.48	2578.41
565.83	2581.58
566.19	2584.09
566.54	2586.00
566.89	2588.43
567.25	2590.01
567.60	2592.34
567.96	2595.26
568.31	2597.05
568.66	2599.28
569.02	2600.55
569.37	2601.59
569.72	2603.52
570.08	2604.51
570.43	2605.20
570.78	2605.37
571.14	2604.38
571.49	2603.82
571.84	2604.06
572.20	2603.63
572.55	2602.99
572.90	2601.90
573.26	2601.04
573.61	2599.41
573.96	2598.24
574.31	2595.37
574.67	2592.54
575.02	2589.12
575.37	2585.79
575.72	2582.23
576.08	2578.91
576.43	2575.97
576.78	2572.52
577.13	2569.44
577.49	2566.38
577.84	2563.02
578.19	2559.28
578.54	2555.88
578.90	2551.66
579.25	2545.76
579.60	2540.67
579.95	2535.41
580.30	2530.09
580.66	2524.54
581.01	2519.47
581.36	2514.22
581.71	2509.87
582.06	2505.27
582.42	2500.76
582.77	2495.19
583.12	2490.27
583.47	2485.19
583.82	2479.88
584.17	2474.37
584.53	2468.36
584.88	2462.26
585.23	2455.95
585.58	2449.89
585.93	2443.81
586.28	2438.37
586.63	2432.91
586.98	2427.41
587.34	2422.28
587.69	2416.73
588.04	2411.09
588.39	2404.83
588.74	2397.45
589.09	2390.71
589.44	2383.26
589.79	2376.17
590.14	2369.90
590.49	2362.58
590.84	2355.29
591.19	2348.59
591.54	2341.11
591.89	2333.04
592.25	2325.58
592.60	2317.56
592.95	2309.07
593.30	2300.68
593.65	2292.17
594.00	2284.11
594.35	2275.74
594.70	2266.67
595.05	2258.76
595.40	2250.40
595.75	2241.72
596.10	2234.85
596.45	2227.16
596.80	2220.00
597.15	2212.65
597.50	2204.71
597.85	2197.20
598.19	2189.75
598.54	2181.54
598.89	2174.02
599.24	2167.09
599.59	2159.52
599.94	2152.31
600.29	2145.09
600.64	2137.63
600.99	2129.16
601.34	2121.40
601.69	2113.22
602.04	2105.33
602.39	2096.73
602.74	2088.73
603.08	2081.00
603.43	2073.10
603.78	2064.48
604.13	2056.16
604.48	2047.74
604.83	2039.66
605.18	2031.79
605.53	2022.64
605.87	2013.29
606.22	2004.80
606.57	1995.59
606.92	1986.67
607.27	1978.38
607.62	1970.25
607.96	1961.74
608.31	1954.01
608.66	1945.15
609.01	1936.44
609.36	1927.55
609.70	1918.26
610.05	1909.05
610.40	1900.17
610.75	1890.49
611.10	1881.67
611.44	1871.78
611.79	1862.29
612.14	1852.13
612.49	1841.27
612.83	1831.33
613.18	1821.79
613.53	1812.32
613.88	1802.34
614.22	1792.75
614.57	1782.55
614.92	1773.09
615.27	1764.19
615.61	1754.37
615.96	1744.85
616.31	1735.91
616.65	1727.23
617.00	1718.24
617.35	1709.06
617.70	1699.28
618.04	1689.34
618.39	1679.53
618.74	1670.72
619.08	1661.19
619.43	1652.19
619.78	1643.99
620.12	1635.62
620.47	1626.75
620.82	1617.05
621.16	1608.25
621.51	1599.29
621.85	1590.26
622.20	1580.28
622.55	1570.42
622.89	1561.17
623.24	1552.13
623.59	1543.32
623.93	1534.48
624.28	1525.94
624.62	1517.13
624.97	1508.58
625.32	1500.36
625.66	1492.20
626.01	1483.74
626.35	1474.97
626.70	1465.84
627.04	1456.90
627.39	1447.62
627.73	1438.99
628.08	1430.82
628.43	1422.29
628.77	1413.65
629.12	1404.83
629.46	1396.42
629.81	1387.64
630.15	1379.16
630.50	1370.48
630.84	1360.93
631.19	1351.49
631.53	1342.70
631.88	1333.75
632.22	1324.91
632.57	1316.38
632.91	1307.49
633.26	1298.78
633.60	1289.98
633.95	1281.50
634.29	1273.11
634.64	1265.37
634.98	1256.69
635.32	1248.32
635.67	1240.50
636.01	1232.68
636.36	1224.80
636.70	1217.14
637.05	1209.44
637.39	1201.80
637.73	1194.22
638.08	1187.26
638.42	1180.31
638.77	1172.80
639.11	1165.26
639.45	1157.74
639.80	1150.04
640.14	1142.53
640.49	1134.95
640.83	1127.55
641.17	1120.54
641.52	1113.15
641.86	1105.50
642.20	1098.71
642.55	1091.40
642.89	1083.97
643.23	1076.30
643.58	1069.50
643.92	1062.30
644.26	1055.41
644.61	1048.33
644.95	1041.35
645.29	1033.76
645.64	1025.91
645.98	1018.45
646.32	1011.46
646.66	1004.48
647.01	997.82
647.35	991.19
647.69	984.26
648.04	977.88
648.38	971.05
648.72	964.22
649.06	957.33
649.41	950.45
649.75	943.54
650.09	936.58
650.43	929.92
650.78	922.87
651.12	916.00
651.46	909.31
651.80	902.72
652.14	896.47
652.49	890.31
652.83	884.45
653.17	877.96
653.51	871.45
653.85	865.14
654.20	858.67
654.54	851.77
654.88	845.19
655.22	838.36
655.56	831.76
655.90	825.36
656.25	819.30
656.59	813.10
656.93	807.26
657.27	801.37
657.61	795.08
657.95	789.18
658.29	783.37
658.64	777.27
658.98	771.19
659.32	764.90
659.66	758.84
660.00	752.66
660.34	746.88
660.68	741.19
661.02	735.40
661.36	729.89
661.70	724.76
662.05	719.75
662.39	714.84
662.73	709.76
663.07	704.77
663.41	699.65
663.75	694.51
664.09	689.18
664.43	684.10
664.77	679.41
665.11	674.45
665.45	669.60
665.79	664.95
666.13	660.21
666.47	655.47
666.81	650.68
667.15	645.94
667.49	641.52
667.83	637.15
668.17	632.66
668.51	628.00
668.85	623.30
669.19	618.87
669.53	614.44
669.87	610.00
670.21	605.77
670.55	601.52
670.89	597.58
671.23	593.73
671.57	589.63
671.91	585.57
672.25	581.54
672.58	577.42
672.92	573.42
673.26	569.74
673.60	566.10
673.94	562.53
674.28	559.17
674.62	555.77
674.96	552.16
675.30	548.79
675.64	545.37
675.97	542.07
676.31	538.70
676.65	535.29
676.99	532.09
677.33	528.70
677.67	525.47
678.01	521.96
678.34	518.45
678.68	515.14
679.02	511.90
679.36	508.68
679.70	505.57
680.04	502.46
680.37	499.16
680.71	495.88
681.05	492.86
681.39	489.77
681.73	486.66
682.06	483.72
682.40	480.82
682.74	477.88
683.08	474.99
683.42	472.04
683.75	469.12
684.09	466.19
684.43	463.38
684.77	460.50
685.10	457.81
685.44	455.14
685.78	452.53
686.12	449.89
686.45	447.20
686.79	444.56
687.13	441.96
687.46	439.43
687.80	436.99
688.14	434.35
688.48	431.86
688.81	429.32
689.15	426.83
689.49	424.26
689.82	421.91
690.16	419.49
690.50	417.19
690.83	414.99
691.17	412.69
691.51	410.48
691.84	408.36
692.18	406.11
692.52	403.85
692.85	401.59
693.19	399.42
693.52	397.33
693.86	395.21
694.20	393.15
694.53	391.08
694.87	388.92
695.21	386.89
695.54	384.82
695.88	382.80
696.21	380.78
696.55	378.85
696.88	376.88
697.22	374.90
697.56	373.02
697.89	371.11
698.23	369.23
698.56	367.29
698.90	365.41
699.23	363.53
699.57	361.73
699.90	359.97
700.24	358.17
700.58	356.38
700.91	354.67
701.25	352.96
701.58	351.35
701.92	349.77
702.25	348.14
702.59	346.53
702.92	344.99
703.26	343.53
703.59	342.07
703.93	340.68
704.26	339.30
704.60	337.80
704.93	336.32
705.26	334.91
705.60	333.56
705.93	332.23
706.27	331.01
706.60	329.78
706.94	328.48
707.27	327.17
707.61	325.96
707.94	324.75
708.27	323.54
708.61	322.30
708.94	321.09
709.28	319.96
709.61	318.86
709.94	317.72
710.28	316.53
710.61	315.37
710.95	314.11
711.28	313.03
711.61	311.92
711.95	310.85
712.28	309.76
712.61	308.67
712.95	307.59
713.28	306.55
713.61	305.50
713.95	304.50
714.28	303.53
714.61	302.53
714.95	301.58
715.28	300.60
715.61	299.57
715.95	298.59
716.28	297.63
716.61	296.64
716.95	295.67
717.28	294.79
717.61	293.89
717.94	293.04
718.28	292.08
718.61	291.25
718.94	290.42
719.27	289.66
719.61	288.89
719.94	288.10
720.27	287.25
720.60	286.47
720.94	285.72
721.27	284.98
721.60	284.29
721.93	283.58
722.27	282.90
722.60	282.27
722.93	281.60
723.26	280.96
723.59	280.32
723.93	279.74
724.26	279.08
724.59	278.42
724.92	277.82
725.25	277.25
725.59	276.62
725.92	276.05
726.25	275.41
726.58	274.84
726.91	274.25
727.24	273.72
727.57	273.14
727.91	272.50
728.24	271.96
728.57	271.40
728.90	270.82
729.23	270.26
729.56	269.75
729.89	269.19
730.22	268.62
730.55	268.07
730.89	267.49
731.22	267.01
731.55	266.50
731.88	265.99
732.21	265.46
732.54	264.99
732.87	264.47
733.20	264.01
733.53	263.54
733.86	263.10
734.19	262.61
734.52	262.20
734.85	261.88
735.18	261.41
735.51	260.97
735.84	260.50
736.17	260.09
736.50	259.60
736.83	259.31
737.16	258.92
737.49	258.53
737.82	258.14
738.15	257.73
738.48	257.34
738.81	256.97
739.14	256.63
739.47	256.25
739.80	255.89
740.13	255.54
740.46	255.16
740.79	254.76
741.12	254.43
741.45	254.04
741.78	253.64
742.11	253.34
742.44	252.97
742.77	252.68
743.10	252.31
743.43	252.02
743.75	251.62
744.08	251.43
744.41	251.10
744.74	250.79
745.07	250.45
745.40	250.17
745.73	249.92
746.06	249.56
746.39	249.24
746.71	248.91
747.04	248.60
747.37	248.31
747.70	248.06
748.03	247.80
748.36	247.56
748.68	247.28
749.01	246.99
749.34	246.73
749.67	246.47
750.00	246.26
750.33	246.06
750.65	245.81
750.98	245.44
751.31	245.22
751.64	244.99
751.97	244.79
752.29	244.54
752.62	244.24
752.95	244.02
753.28	243.80
753.60	243.61
753.93	243.39
754.26	243.17
754.59	242.94
754.91	242.67
755.24	242.44
755.57	242.22
755.90	241.98
756.22	241.75
756.55	241.52
756.88	241.29
757.20	241.04
757.53	240.82
757.86	240.62
758.19	240.43
758.51	240.23
758.84	239.99
759.17	239.78
759.49	239.57
759.82	239.47
760.15	239.29
760.47	239.06
760.80	238.88
761.13	238.74
761.45	238.56
761.78	238.39
762.11	238.25
762.43	238.11
762.76	237.95
763.08	237.78
763.41	237.64
763.74	237.46
764.06	237.27
764.39	237.11
764.71	236.96
765.04	236.77
765.37	236.61
765.69	236.47
766.02	236.31
766.34	236.18
766.67	235.99
767.00	235.85
767.32	235.81
767.65	235.72
767.97	235.59
768.30	235.42
768.62	235.30
768.95	235.15
769.27	234.97
769.60	234.85
769.92	234.73
770.25	234.63
770.57	234.50
770.90	234.39
771.22	234.25
771.55	234.14
771.87	234.07
772.20	233.93
772.52	233.92
772.85	233.96
773.17	233.84
773.50	233.69
773.82	233.57
774.15	233.43
774.47	233.26
774.80	233.10
775.12	233.03
775.45	232.89
775.77	232.76
776.09	232.67
776.42	232.59
776.74	232.52
777.07	232.37
777.39	232.30
777.72	232.21
778.04	232.16
778.36	232.07
778.69	231.96
779.01	231.90
779.33	231.69
779.66	231.48
779.98	231.43
780.31	231.42
780.63	231.39
780.95	231.26
781.28	231.19
781.60	231.15
781.92	231.08
782.25	231.02
782.57	230.98
782.89	230.93
783.22	230.86
783.54	230.79
783.86	230.76
784.19	230.68
784.51	230.63
784.83	230.55
785.16	230.53
785.48	230.47
785.80	230.43
786.12	230.42
786.45	230.40
786.77	230.34
787.09	230.23
787.42	230.15
787.74	230.11
788.06	230.06
788.38	229.99
788.71	229.94
789.03	229.92
789.35	229.88
789.67	229.85
789.99	229.84
790.32	229.77
790.64	229.76
790.96	229.83
791.28	229.75
791.61	229.72
791.93	229.69
792.25	229.67
792.57	229.71
792.89	229.64
793.21	229.60
793.54	229.55
793.86	229.54
794.18	229.54
794.50	229.49
794.82	229.48
795.14	229.48
795.47	229.48
795.79	229.47
796.11	229.42
796.43	229.36
796.75	229.31
797.07	229.30
797.39	229.24
797.71	229.13
798.04	229.12
798.36	229.06
798.68	228.97
799.00	228.93
799.32	228.83
799.64	228.86
799.96	228.83
800.28	228.84
800.60	228.80
800.92	228.77
801.24	228.75
801.56	228.71
801.89	228.65
802.21	228.61
802.53	228.53
802.85	228.49
803.17	228.51
803.49	228.45
803.81	228.39
804.13	228.33
804.45	228.30
804.77	228.25
805.09	228.23
805.41	228.22
805.73	228.18
806.05	228.14
806.37	228.07
806.69	228.04
807.01	227.95
807.33	227.90
807.65	227.82
807.97	227.81
808.28	227.76
808.60	227.73
808.92	227.66
809.24	227.70
809.56	227.66
809.88	227.60
810.20	227.58
810.52	227.55
810.84	227.55
811.16	227.46
811.48	227.44
811.80	227.43
812.12	227.41
812.43	227.40
812.75	227.35
813.07	227.30
813.39	227.26
813.71	227.25
814.03	227.23
814.35	227.20
814.67	227.16
814.98	227.12
815.30	227.08
815.62	227.05
815.94	226.96
816.26	226.95
816.58	226.90
816.89	226.91
817.21	226.89
817.53	226.85
817.85	226.85
818.17	226.84
818.48	226.79
818.80	226.76
819.12	226.70
819.44	226.68
819.76	226.61
820.07	226.60
820.39	226.55
820.71	226.54
821.03	226.57
821.34	226.51
821.66	226.49
821.98	226.49
822.30	226.47
822.61	226.50
822.93	226.48
823.25	226.46
823.57	226.39
823.88	226.40
824.20	226.38
824.52	226.38
824.83	226.32
825.15	226.29
825.47	226.28
825.79	226.29
826.10	226.26
826.42	226.26
826.74	226.28
827.05	226.27
827.37	226.23
827.69	226.21
828.00	226.21
828.32	226.21
828.64	226.19
828.95	226.24
829.27	226.21
829.58	226.20
829.90	226.21
830.22	226.20
830.53	226.18
830.85	226.13
831.17	226.10
831.48	226.13
831.80	226.12
832.11	226.13
832.43	226.09
832.75	226.10
833.06	226.20
833.38	226.11
833.69	226.10
834.01	226.11
834.32	226.04
834.64	226.02
834.96	226.02
835.27	226.04
835.59	225.98
835.90	225.96
836.22	225.95
836.53	225.95
836.85	225.93
837.16	226.04
837.48	226.02
837.79	226.05
838.11	226.03
838.42	226.04
838.74	226.01
839.05	226.01
839.37	226.02
839.68	225.94
840.00	225.98
840.31	226.00
840.63	226.02
840.94	226.05
841.26	226.03
841.57	226.04
841.88	225.97
842.20	225.95
842.51	225.90
842.83	225.87
843.14	225.92
843.46	225.92
843.77	225.85
844.08	225.88
844.40	225.86
844.71	225.83
845.03	225.80
845.34	225.79
845.65	225.75
845.97	225.73
846.28	225.69
846.60	225.68
846.91	225.65
847.22	225.58
847.54	225.58
847.85	225.59
848.16	225.57
848.48	225.58
848.79	225.63
849.10	225.67
849.42	225.67
849.73	225.56
850.04	225.57
850.36	225.48
850.67	225.51
850.98	225.47
851.30	225.45
851.61	225.44
851.92	225.41
852.23	225.48
852.55	225.50
852.86	225.49
853.17	225.46
853.49	225.48
853.80	225.47
854.11	225.46
854.42	225.45
854.74	225.43
855.05	225.39
855.36	225.32
855.67	225.30
855.99	225.29
856.30	225.40
856.61	225.37
856.92	225.38
857.23	225.35
857.55	225.32
857.86	225.32
858.17	225.31
858.48	225.33
858.79	225.28
859.11	225.28
859.42	225.25
859.73	225.27
860.04	225.22
860.35	225.20
860.66	225.18
860.98	225.16
861.29	225.12
861.60	225.11
861.91	225.14
862.22	225.12
862.53	225.09
862.84	224.96
863.16	224.98
863.47	224.97
863.78	224.98
864.09	225.00
864.40	225.01
864.71	225.02
865.02	224.99
865.33	224.98
865.64	224.93
865.95	224.95
866.27	225.01
866.58	224.99
866.89	225.02
867.20	224.97
867.51	224.96
867.82	225.00
868.13	225.08
868.44	225.03
868.75	225.09
869.06	225.09
869.37	225.09
869.68	225.11
869.99	225.11
870.30	225.11
870.61	225.11
870.92	225.10
871.23	225.12
871.54	225.15
871.85	225.17
872.16	225.19
872.47	225.17
872.78	225.09
873.09	225.12
873.40	225.12
873.71	225.18
874.02	225.18
874.33	225.17
874.64	225.13
874.95	225.16
875.26	225.12
875.56	225.12
875.87	225.14
876.18	225.08
876.49	225.19
876.80	225.15
877.11	225.15
877.42	225.15
877.73	225.13
878.04	225.10
878.35	225.12
878.66	225.13
878.96	225.14
879.27	225.16
879.58	225.17
879.89	225.17
880.20	225.18
880.51	225.16
880.82	225.15
881.12	225.19
881.43	225.18
881.74	225.17
882.05	225.19
882.36	225.18
882.67	225.20
882.97	225.03
883.28	225.04
883.59	225.06
883.90	225.07
884.21	225.08
884.51	225.09
884.82	225.03
885.13	225.03
885.44	225.04
885.74	225.00
886.05	224.96
886.36	224.97
886.67	224.92
886.98	224.96
887.28	224.99
887.59	224.96
887.90	224.93
888.20	224.89
888.51	224.90
888.82	224.94
889.13	224.95
889.43	225.07
889.74	225.08
890.05	225.06
890.35	225.05
890.66	225.03
890.97	225.01
891.28	225.00
891.58	224.99
891.89	224.99
892.20	225.00
892.50	225.00
892.81	224.97
893.12	224.98
893.42	224.97
893.73	224.96
894.04	225.00
894.34	225.02
894.65	225.02
894.95	225.02
895.26	224.95
895.57	224.96
895.87	224.87
896.18	224.86
896.48	224.85
896.79	224.87
897.10	224.87
897.40	224.92
897.71	224.97
898.01	224.97
898.32	224.93
898.63	224.96
898.93	225.00
899.24	225.00
899.54	224.99
899.85	225.01
900.15	225.00
900.46	224.98
900.76	224.97
901.07	224.97
901.38	224.95
901.68	225.01
901.99	224.97
902.29	224.96
902.60	224.97
902.90	224.94
903.21	224.90
903.51	224.90
903.82	224.91
904.12	224.89
904.43	224.91
904.73	224.95
905.03	224.93
905.34	225.02
905.64	225.02
905.95	225.03
906.25	225.00
906.56	225.01
906.86	224.99
907.17	224.99
907.47	225.03
907.77	225.03
908.08	224.99
908.38	224.99
908.69	225.01
908.99	225.03
909.30	225.08
909.60	225.09
909.90	225.09
910.21	225.06
910.51	225.03
910.81	225.00
911.12	225.01
911.42	225.04
911.73	224.92
912.03	224.94
912.33	224.95
912.64	224.96
912.94	224.94
913.24	224.93
913.55	224.93
913.85	224.92
914.15	224.91
914.46	224.95
914.76	224.92
915.06	224.92
915.37	224.87
915.67	224.84
915.97	224.85
916.27	224.80
916.58	224.81
916.88	224.82
917.18	224.82
917.49	224.89
917.79	224.86
918.09	224.89
918.39	224.87
918.70	224.85
919.00	224.84
919.30	224.91
919.60	224.87
919.91	224.85
920.21	224.85
920.51	224.85
920.81	224.84
921.12	224.87
921.42	224.90
921.72	224.92
922.02	224.91
922.32	224.93
922.63	224.96
922.93	224.97
923.23	224.97
923.53	224.98
923.83	224.86
924.13	224.87
924.44	224.85
924.74	224.88
925.04	224.91
925.34	224.89
925.64	224.83
925.94	224.85
926.24	224.91
926.55	224.89
926.85	224.91
927.15	224.90
927.45	224.88
927.75	224.85
928.05	224.87
928.35	224.89
928.65	224.89
928.95	224.86
929.26	224.83
929.56	224.83
929.86	224.84
930.16	224.86
930.46	224.82
930.76	224.82
931.06	224.77
931.36	224.74
931.66	224.77
931.96	224.76
932.26	224.75
932.56	224.68
932.86	224.70
933.16	224.66
933.46	224.62
933.76	224.61
934.06	224.65
934.36	224.65
934.66	224.63
934.96	224.62
935.26	224.64
935.56	224.64
935.86	224.62
936.16	224.59
936.46	224.54
936.76	224.54
937.06	224.55
937.36	224.57
937.66	224.56
937.96	224.54
938.26	224.53
938.56	224.54
938.86	224.57
939.16	224.59
939.46	224.60
939.76	224.63
940.06	224.62
940.35	224.57
940.65	224.55
940.95	224.54
941.25	224.51
941.55	224.49
941.85	224.49
942.15	224.51
942.45	224.57
942.75	224.60
943.04	224.62
943.34	224.60
943.64	224.59
943.94	224.61
944.24	224.63
944.54	224.64
944.84	224.63
945.13	224.61
945.43	224.58
945.73	224.58
946.03	224.59
946.33	224.59
946.62	224.60
946.92	224.57
947.22	224.59
947.52	224.62
947.82	224.66
948.11	224.68
948.41	224.67
948.71	224.61
949.01	224.64
949.31	224.63
949.60	224.66
949.90	224.69
950.20	224.69
950.50	224.69
950.79	224.68
951.09	224.72
951.39	224.72
951.69	224.75
951.98	224.76
952.28	224.78
952.58	224.80
952.87	224.80
953.17	224.83
953.47	224.85
953.76	224.83
954.06	224.81
954.36	224.80
954.66	224.82
954.95	224.85
955.25	224.89
955.55	224.91
955.84	224.86
956.14	224.88
956.44	224.88
956.73	224.87
957.03	224.88
957.32	224.86
957.62	224.86
957.92	224.86
958.21	224.85
958.51	224.94
958.81	224.95
959.10	224.97
959.40	224.96
959.69	224.98
959.99	224.99
960.29	224.98
960.58	224.97
960.88	224.98
961.17	224.94
961.47	224.92
961.76	224.89
962.06	224.90
962.36	224.88
962.65	224.90
962.95	224.92
963.24	224.89
963.54	224.89
963.83	224.91
964.13	224.90
964.42	224.86
964.72	224.77
965.01	224.75
965.31	224.73
965.60	224.74
965.90	224.78
966.19	224.75
966.49	224.74
966.78	224.74
967.08	224.76
967.37	224.73
967.67	224.70
967.96	224.72
968.26	224.72
968.55	224.68
968.85	224.65
969.14	224.58
969.43	224.58
969.73	224.58
970.02	224.55
970.32	224.54
970.61	224.54
970.91	224.51
971.20	224.50
971.49	224.48
971.79	224.49
972.08	224.39
972.38	224.40
972.67	224.40
972.96	224.37
973.26	224.33
973.55	224.37
973.85	224.37
974.14	224.36
974.43	224.39
974.73	224.40
975.02	224.40
975.31	224.45
975.61	224.46
975.90	224.42
976.19	224.40
976.49	224.38
976.78	224.38
977.07	224.39
977.37	224.37
977.66	224.38
977.95	224.37
978.24	224.39
978.54	224.43
978.83	224.44
979.12	224.51
979.42	224.51
979.71	224.51
980.00	224.51
980.29	224.50
980.59	224.47
980.88	224.50
981.17	224.51
981.46	224.49
981.76	224.51
982.05	224.56
982.34	224.58
982.63	224.58
982.93	224.61
983.22	224.66
983.51	224.68
983.80	224.74
984.09	224.81
984.39	224.78
984.68	224.76
984.97	224.75
985.26	224.71
985.55	224.75
985.85	224.71
986.14	224.71
986.43	224.74
986.72	224.73
987.01	224.73
987.30	224.72
987.59	224.74
987.89	224.71
988.18	224.70
988.47	224.69
988.76	224.71
989.05	224.69
989.34	224.65
989.63	224.67
989.92	224.62
990.22	224.55
990.51	224.55
990.80	224.54
991.09	224.54
991.38	224.55
991.67	224.54
991.96	224.53
992.25	224.55
992.54	224.52
992.83	224.54
993.12	224.51
993.41	224.53
993.70	224.55
993.99	224.55
994.28	224.55
994.58	224.58
994.87	224.55
995.16	224.57
995.45	224.58
995.74	224.53
996.03	224.56
996.32	224.56
996.61	224.57
996.90	224.57
997.19	224.56
997.48	224.56
997.77	224.53
998.06	224.57
998.34	224.54
998.63	224.52
998.92	224.53
999.21	224.56
999.50	224.54
999.79	224.51
1000.08	224.55
1000.37	224.54
1000.66	224.52
1000.95	224.56
1001.24	224.56
1001.53	224.58
1001.82	224.59
1002.11	224.55
1002.40	224.58
1002.68	224.63
1002.97	224.73
1003.26	224.74
1003.55	224.73
1003.84	224.75
1004.13	224.77
1004.42	224.76
1004.71	224.76
1004.99	224.75
1005.28	224.75
1005.57	224.75
1005.86	224.76
1006.15	224.76
1006.44	224.74
1006.72	224.72
1007.01	224.74
1007.30	224.72
1007.59	224.65
1007.88	224.67
1008.17	224.67
1008.45	224.60
1008.74	224.55
1009.03	224.46
1009.32	224.45
1009.60	224.43
1009.89	224.41
1010.18	224.37
1010.47	224.36
1010.76	224.37
1011.04	224.32
1011.33	224.34
1011.62	224.33
1011.91	224.32
1012.19	224.33
1012.48	224.31
1012.77	224.32
1013.05	224.33
1013.34	224.35
1013.63	224.36
1013.92	224.33
1014.20	224.32
1014.49	224.34
1014.78	224.35
1015.06	224.31
1015.35	224.29
1015.64	224.30
1015.92	224.33
1016.21	224.35
1016.50	224.37
1016.78	224.39
1017.07	224.44
1017.36	224.38
1017.64	224.37
1017.93	224.35
1018.22	224.32
1018.50	224.34
1018.79	224.36
1019.08	224.33
1019.36	224.34
1019.65	224.34
1019.93	224.38
1020.22	224.39
1020.51	224.47
1020.79	224.49
1021.08	224.29
1021.36	224.09
1021.65	224.97
1021.94	224.69
1022.22	224.61
1022.51	224.24
1022.79	224.84
1023.08	224.12
1023.36	226.09
1023.65	224.82
>>>>>End Processed Spectral Data<<<<<
