SpectraSuite Data File
++++++++++++++++++++++++++++++++++++
Date: Fri Feb 01 17:24:24 EST 2013
User: group
Dark Spectrum Present: No
Reference Spectrum Present: No
Number of Sampled Component Spectra: 1
Spectrometers: USB2E7196
Integration Time (usec): 35000 (USB2E7196)
Spectra Averaged: 100 (USB2E7196)
Boxcar Smoothing: 10 (USB2E7196)
Correct for Electrical Dark: No (USB2E7196)
Strobe/Lamp Enabled: No (USB2E7196)
Correct for Detector Non-linearity: No (USB2E7196)
Correct for Stray Light: No (USB2E7196)
Number of Pixels in Processed Spectrum: 2048
>>>>>Begin Processed Spectral Data<<<<<
339.09	0.00
339.48	213.16
339.86	214.82
340.24	215.77
340.63	217.14
341.01	220.21
341.39	219.86
341.78	221.49
342.16	222.81
342.54	223.05
342.93	211.34
343.31	222.03
343.69	222.53
344.07	222.97
344.46	223.40
344.84	223.78
345.22	224.01
345.60	224.24
345.99	224.42
346.37	224.55
346.75	224.66
347.13	224.71
347.52	224.77
347.90	224.84
348.28	224.86
348.66	224.91
349.05	224.89
349.43	224.91
349.81	224.97
350.19	225.00
350.57	225.07
350.96	225.13
351.34	225.21
351.72	225.33
352.10	225.43
352.48	225.50
352.87	225.58
353.25	225.65
353.63	225.69
354.01	225.71
354.39	225.77
354.77	225.81
355.15	225.91
355.54	225.93
355.92	225.99
356.30	226.10
356.68	226.25
357.06	226.33
357.44	226.42
357.82	226.48
358.20	226.57
358.58	226.62
358.97	226.68
359.35	226.74
359.73	226.81
360.11	226.83
360.49	226.87
360.87	226.86
361.25	226.92
361.63	227.03
362.01	227.07
362.39	227.08
362.77	227.13
363.15	227.14
363.53	227.19
363.91	227.23
364.29	227.23
364.67	227.15
365.05	227.15
365.43	227.15
365.81	227.14
366.19	227.19
366.57	227.23
366.95	227.25
367.33	227.22
367.71	227.19
368.09	227.21
368.47	227.19
368.85	227.21
369.23	227.18
369.61	227.12
369.99	227.15
370.37	227.13
370.75	227.13
371.13	227.10
371.51	227.03
371.89	226.98
372.27	226.94
372.65	226.92
373.03	226.89
373.41	226.86
373.78	226.82
374.16	226.72
374.54	226.67
374.92	226.59
375.30	226.54
375.68	226.46
376.06	226.41
376.44	226.33
376.82	226.28
377.19	226.23
377.57	226.19
377.95	226.08
378.33	226.03
378.71	225.93
379.09	225.86
379.47	225.83
379.84	225.76
380.22	225.69
380.60	225.55
380.98	225.49
381.36	225.41
381.73	225.30
382.11	225.25
382.49	225.17
382.87	225.12
383.25	225.08
383.62	225.17
384.00	225.11
384.38	225.10
384.76	225.07
385.13	225.06
385.51	225.02
385.89	225.00
386.27	224.96
386.64	224.94
387.02	224.92
387.40	224.89
387.78	224.87
388.15	224.85
388.53	224.87
388.91	224.86
389.29	224.83
389.66	224.85
390.04	224.79
390.42	224.79
390.79	224.78
391.17	224.75
391.55	224.62
391.92	224.59
392.30	224.57
392.68	224.52
393.05	224.50
393.43	224.48
393.81	224.46
394.18	224.45
394.56	224.44
394.94	224.49
395.31	224.48
395.69	224.55
396.06	224.58
396.44	224.59
396.82	224.60
397.19	224.68
397.57	224.72
397.95	224.80
398.32	224.81
398.70	224.83
399.07	224.91
399.45	224.96
399.82	225.02
400.20	225.07
400.58	225.14
400.95	225.17
401.33	225.26
401.70	225.43
402.08	225.50
402.45	225.60
402.83	225.71
403.20	225.78
403.58	225.84
403.95	225.93
404.33	226.07
404.71	226.17
405.08	226.33
405.46	226.43
405.83	226.55
406.21	226.71
406.58	226.86
406.96	227.01
407.33	227.16
407.70	227.34
408.08	227.57
408.45	227.77
408.83	227.97
409.20	228.16
409.58	228.33
409.95	228.59
410.33	228.82
410.70	229.02
411.08	229.34
411.45	229.64
411.82	229.96
412.20	230.31
412.57	230.75
412.95	231.04
413.32	231.50
413.69	231.95
414.07	232.39
414.44	232.86
414.82	233.35
415.19	233.93
415.56	234.48
415.94	235.07
416.31	235.73
416.68	236.39
417.06	237.13
417.43	237.81
417.81	238.63
418.18	239.45
418.55	240.31
418.93	241.18
419.30	242.08
419.67	243.07
420.04	244.05
420.42	245.02
420.79	246.25
421.16	247.40
421.54	248.62
421.91	249.87
422.28	251.19
422.66	252.59
423.03	253.93
423.40	255.33
423.77	256.79
424.15	258.28
424.52	259.87
424.89	261.54
425.26	263.16
425.64	264.66
426.01	266.32
426.38	268.09
426.75	269.85
427.13	271.68
427.50	273.56
427.87	275.52
428.24	277.51
428.61	279.31
428.99	281.35
429.36	283.54
429.73	285.69
430.10	287.81
430.47	289.96
430.85	292.14
431.22	294.47
431.59	296.97
431.96	299.31
432.33	301.90
432.70	304.38
433.08	307.31
433.45	310.05
433.82	312.78
434.19	315.73
434.56	318.64
434.93	321.40
435.30	324.12
435.68	327.12
436.05	330.06
436.42	332.99
436.79	335.60
437.16	338.45
437.53	341.42
437.90	344.32
438.27	347.16
438.64	350.14
439.01	352.84
439.38	355.15
439.75	357.38
440.13	359.90
440.50	362.37
440.87	364.25
441.24	366.28
441.61	368.56
441.98	370.09
442.35	372.01
442.72	373.92
443.09	375.81
443.46	376.91
443.83	377.53
444.20	378.10
444.57	379.02
444.94	379.28
445.31	379.63
445.68	379.98
446.05	380.10
446.42	379.70
446.79	379.31
447.16	378.86
447.53	378.55
447.90	377.42
448.27	376.19
448.64	374.58
449.01	373.43
449.37	371.38
449.74	369.46
450.11	367.13
450.48	364.55
450.85	361.90
451.22	359.66
451.59	357.58
451.96	355.53
452.33	352.80
452.70	350.37
453.07	347.48
453.43	344.53
453.80	341.67
454.17	338.89
454.54	336.22
454.91	333.40
455.28	330.63
455.65	328.04
456.02	325.47
456.38	323.25
456.75	320.47
457.12	318.13
457.49	315.81
457.86	313.52
458.23	311.60
458.59	309.48
458.96	307.30
459.33	305.33
459.70	303.41
460.07	301.85
460.43	300.05
460.80	298.30
461.17	296.79
461.54	295.19
461.91	293.68
462.27	292.21
462.64	290.90
463.01	289.52
463.38	288.15
463.74	286.77
464.11	285.54
464.48	284.47
464.85	283.31
465.21	282.43
465.58	281.52
465.95	280.45
466.32	279.51
466.68	278.56
467.05	277.65
467.42	276.74
467.78	275.77
468.15	274.86
468.52	274.19
468.88	273.27
469.25	272.48
469.62	271.87
469.98	271.16
470.35	270.52
470.72	269.84
471.08	269.16
471.45	268.60
471.82	268.09
472.18	267.45
472.55	267.03
472.92	266.47
473.28	265.96
473.65	265.46
474.02	265.01
474.38	264.64
474.75	264.36
475.11	264.00
475.48	263.72
475.85	263.52
476.21	263.30
476.58	263.15
476.94	263.02
477.31	262.85
477.67	262.69
478.04	262.61
478.41	262.58
478.77	262.65
479.14	262.57
479.50	262.56
479.87	262.64
480.23	262.74
480.60	262.81
480.96	262.93
481.33	263.14
481.69	263.36
482.06	263.55
482.42	263.73
482.79	264.03
483.15	264.38
483.52	264.74
483.88	265.10
484.25	265.49
484.61	265.95
484.98	266.44
485.34	267.01
485.71	267.60
486.07	268.23
486.44	268.82
486.80	269.51
487.17	270.23
487.53	271.07
487.90	271.92
488.26	272.88
488.62	273.89
488.99	274.86
489.35	275.89
489.72	277.07
490.08	278.21
490.44	279.43
490.81	280.75
491.17	282.10
491.54	283.56
491.90	285.09
492.26	286.68
492.63	288.35
492.99	290.14
493.36	292.03
493.72	294.06
494.08	296.14
494.45	298.40
494.81	300.77
495.17	303.17
495.54	305.68
495.90	308.30
496.26	311.06
496.63	314.06
496.99	317.16
497.35	320.36
497.72	323.76
498.08	327.24
498.44	330.84
498.80	334.78
499.17	338.78
499.53	342.91
499.89	347.25
500.26	351.67
500.62	356.29
500.98	361.20
501.34	366.25
501.71	371.49
502.07	376.90
502.43	382.43
502.79	388.14
503.16	394.16
503.52	400.35
503.88	406.65
504.24	413.21
504.60	419.99
504.97	427.03
505.33	434.22
505.69	441.86
506.05	449.59
506.41	457.31
506.78	465.31
507.14	473.60
507.50	482.15
507.86	491.07
508.22	500.10
508.59	509.18
508.95	518.51
509.31	528.17
509.67	538.02
510.03	548.17
510.39	558.59
510.75	569.14
511.12	579.87
511.48	590.95
511.84	602.13
512.20	613.44
512.56	625.10
512.92	637.05
513.28	649.10
513.64	661.26
514.00	673.74
514.37	686.46
514.73	699.19
515.09	711.92
515.45	724.81
515.81	738.08
516.17	751.70
516.53	765.51
516.89	779.26
517.25	793.10
517.61	807.16
517.97	821.25
518.33	835.29
518.69	849.68
519.05	864.26
519.41	879.04
519.77	894.16
520.13	909.25
520.49	924.28
520.85	939.27
521.21	954.54
521.57	970.30
521.93	985.62
522.29	1001.59
522.65	1017.51
523.01	1033.31
523.37	1048.92
523.73	1064.68
524.09	1080.41
524.45	1096.26
524.81	1112.51
525.17	1128.91
525.53	1145.37
525.89	1161.90
526.25	1178.37
526.61	1194.35
526.97	1210.59
527.33	1226.73
527.68	1242.89
528.04	1258.91
528.40	1275.02
528.76	1291.71
529.12	1307.93
529.48	1324.34
529.84	1340.06
530.20	1356.22
530.56	1372.86
530.91	1389.89
531.27	1406.32
531.63	1422.46
531.99	1438.92
532.35	1454.63
532.71	1470.10
533.07	1485.94
533.42	1501.49
533.78	1517.24
534.14	1533.25
534.50	1548.35
534.86	1563.97
535.21	1578.76
535.57	1594.31
535.93	1609.55
536.29	1624.09
536.65	1638.85
537.00	1653.35
537.36	1668.40
537.72	1682.72
538.08	1696.84
538.44	1710.47
538.79	1724.10
539.15	1737.43
539.51	1750.87
539.87	1764.90
540.22	1778.53
540.58	1792.07
540.94	1805.09
541.29	1817.67
541.65	1830.17
542.01	1843.30
542.37	1855.43
542.72	1867.83
543.08	1879.75
543.44	1891.95
543.79	1903.22
544.15	1914.10
544.51	1925.69
544.87	1936.61
545.22	1947.48
545.58	1957.88
545.94	1967.72
546.29	1977.64
546.65	1987.56
547.01	1996.87
547.36	2005.60
547.72	2014.07
548.07	2022.31
548.43	2030.70
548.79	2038.78
549.14	2046.59
549.50	2053.95
549.86	2061.63
550.21	2069.14
550.57	2076.40
550.92	2083.37
551.28	2090.58
551.64	2097.91
551.99	2104.65
552.35	2110.99
552.70	2117.28
553.06	2123.45
553.41	2129.92
553.77	2136.10
554.13	2142.41
554.48	2148.77
554.84	2154.74
555.19	2160.22
555.55	2165.50
555.90	2170.25
556.26	2175.68
556.61	2180.63
556.97	2185.51
557.32	2190.16
557.68	2194.49
558.03	2198.92
558.39	2202.78
558.74	2207.66
559.10	2211.99
559.45	2216.00
559.81	2220.50
560.16	2224.67
560.52	2228.26
560.87	2231.95
561.23	2234.98
561.58	2238.16
561.94	2241.02
562.29	2243.47
562.64	2246.67
563.00	2249.62
563.35	2253.50
563.71	2256.82
564.06	2260.16
564.42	2263.26
564.77	2266.15
565.12	2269.02
565.48	2271.47
565.83	2273.89
566.19	2275.66
566.54	2276.67
566.89	2278.18
567.25	2279.44
567.60	2281.06
567.96	2283.31
568.31	2284.62
568.66	2286.24
569.02	2287.37
569.37	2288.17
569.72	2289.60
570.08	2290.20
570.43	2290.65
570.78	2290.49
571.14	2289.50
571.49	2288.59
571.84	2288.53
572.20	2287.76
572.55	2286.88
572.90	2285.56
573.26	2284.65
573.61	2283.16
573.96	2282.00
574.31	2279.30
574.67	2276.60
575.02	2273.44
575.37	2270.21
575.72	2266.94
576.08	2263.69
576.43	2260.44
576.78	2257.18
577.13	2254.07
577.49	2250.99
577.84	2247.94
578.19	2244.55
578.54	2241.26
578.90	2237.43
579.25	2232.23
579.60	2227.60
579.95	2223.17
580.30	2218.44
580.66	2213.43
581.01	2208.67
581.36	2204.00
581.71	2200.31
582.06	2196.26
582.42	2192.08
582.77	2187.17
583.12	2182.81
583.47	2178.55
583.82	2174.15
584.17	2169.14
584.53	2164.09
584.88	2159.15
585.23	2153.66
585.58	2148.31
585.93	2142.97
586.28	2138.36
586.63	2133.66
586.98	2128.76
587.34	2124.24
587.69	2119.58
588.04	2114.58
588.39	2109.30
588.74	2103.05
589.09	2097.15
589.44	2090.52
589.79	2084.59
590.14	2079.09
590.49	2072.67
590.84	2066.30
591.19	2060.53
591.54	2054.23
591.89	2047.27
592.25	2040.70
592.60	2033.56
592.95	2026.40
593.30	2019.29
593.65	2011.95
594.00	2004.91
594.35	1997.83
594.70	1989.75
595.05	1982.99
595.40	1975.79
595.75	1968.47
596.10	1962.58
596.45	1956.10
596.80	1950.08
597.15	1943.61
597.50	1936.90
597.85	1930.52
598.19	1924.18
598.54	1917.31
598.89	1910.75
599.24	1904.86
599.59	1898.39
599.94	1892.22
600.29	1885.91
600.64	1879.34
600.99	1872.07
601.34	1865.49
601.69	1858.50
602.04	1851.84
602.39	1844.38
602.74	1837.76
603.08	1831.23
603.43	1824.38
603.78	1817.05
604.13	1809.89
604.48	1802.84
604.83	1795.94
605.18	1789.21
605.53	1781.36
605.87	1773.22
606.22	1766.05
606.57	1757.96
606.92	1750.25
607.27	1743.31
607.62	1736.45
607.96	1729.33
608.31	1722.92
608.66	1715.46
609.01	1708.05
609.36	1700.57
609.70	1692.62
610.05	1684.57
610.40	1676.84
610.75	1668.49
611.10	1660.79
611.44	1652.24
611.79	1644.13
612.14	1635.45
612.49	1626.18
612.83	1617.59
613.18	1609.36
613.53	1601.20
613.88	1592.83
614.22	1584.57
614.57	1575.72
614.92	1567.55
615.27	1560.00
615.61	1551.52
615.96	1543.24
616.31	1535.44
616.65	1527.94
617.00	1520.35
617.35	1512.57
617.70	1504.25
618.04	1495.72
618.39	1487.42
618.74	1479.83
619.08	1471.47
619.43	1463.70
619.78	1456.64
620.12	1449.45
620.47	1441.99
620.82	1433.65
621.16	1425.97
621.51	1418.20
621.85	1410.35
622.20	1401.79
622.55	1393.20
622.89	1385.29
623.24	1377.57
623.59	1370.03
623.93	1362.35
624.28	1354.88
624.62	1347.26
624.97	1339.83
625.32	1332.93
625.66	1325.69
626.01	1318.37
626.35	1310.95
626.70	1303.10
627.04	1295.36
627.39	1287.45
627.73	1279.75
628.08	1272.84
628.43	1265.63
628.77	1258.36
629.12	1250.93
629.46	1243.70
629.81	1236.15
630.15	1228.63
630.50	1221.14
630.84	1212.91
631.19	1204.80
631.53	1197.20
631.88	1189.56
632.22	1181.88
632.57	1174.47
632.91	1166.91
633.26	1159.51
633.60	1151.81
633.95	1144.56
634.29	1137.28
634.64	1130.47
634.98	1123.18
635.32	1115.91
635.67	1109.07
636.01	1102.34
636.36	1095.48
636.70	1088.82
637.05	1082.24
637.39	1075.83
637.73	1069.26
638.08	1063.29
638.42	1057.34
638.77	1050.83
639.11	1044.28
639.45	1037.86
639.80	1031.22
640.14	1024.81
640.49	1018.17
640.83	1011.90
641.17	1005.79
641.52	999.55
641.86	993.08
642.20	987.20
642.55	980.79
642.89	974.33
643.23	967.62
643.58	961.78
643.92	955.56
644.26	949.40
644.61	943.21
644.95	937.15
645.29	930.64
645.64	923.99
645.98	917.66
646.32	911.63
646.66	905.58
647.01	899.68
647.35	893.90
647.69	887.98
648.04	882.41
648.38	876.47
648.72	870.49
649.06	864.44
649.41	858.42
649.75	852.49
650.09	846.54
650.43	840.77
650.78	834.64
651.12	828.58
651.46	822.95
651.80	817.35
652.14	811.92
652.49	806.53
652.83	801.22
653.17	795.62
653.51	789.95
653.85	784.45
654.20	778.85
654.54	772.83
654.88	767.10
655.22	761.09
655.56	755.36
655.90	749.78
656.25	744.58
656.59	739.22
656.93	734.15
657.27	729.04
657.61	723.61
657.95	718.47
658.29	713.47
658.64	708.09
658.98	702.63
659.32	697.17
659.66	691.86
660.00	686.55
660.34	681.50
660.68	676.57
661.02	671.54
661.36	666.80
661.70	662.26
662.05	657.83
662.39	653.58
662.73	649.13
663.07	644.72
663.41	640.15
663.75	635.71
664.09	631.09
664.43	626.57
664.77	622.43
665.11	618.14
665.45	613.95
665.79	609.89
666.13	605.79
666.47	601.67
666.81	597.58
667.15	593.40
667.49	589.49
667.83	585.56
668.17	581.53
668.51	577.46
668.85	573.37
669.19	569.53
669.53	565.70
669.87	561.85
670.21	558.14
670.55	554.45
670.89	550.90
671.23	547.48
671.57	543.94
671.91	540.40
672.25	536.83
672.58	533.27
672.92	529.83
673.26	526.61
673.60	523.35
673.94	520.24
674.28	517.32
674.62	514.32
674.96	511.19
675.30	508.31
675.64	505.36
675.97	502.57
676.31	499.73
676.65	496.77
676.99	494.02
677.33	491.09
677.67	488.31
678.01	485.25
678.34	482.23
678.68	479.33
679.02	476.48
679.36	473.69
679.70	470.92
680.04	468.15
680.37	465.22
680.71	462.44
681.05	459.74
681.39	457.00
681.73	454.28
682.06	451.75
682.40	449.20
682.74	446.62
683.08	443.99
683.42	441.25
683.75	438.72
684.09	436.10
684.43	433.63
684.77	431.06
685.10	428.70
685.44	426.37
685.78	424.07
686.12	421.72
686.45	419.43
686.79	417.13
687.13	414.89
687.46	412.75
687.80	410.56
688.14	408.29
688.48	406.19
688.81	404.02
689.15	401.83
689.49	399.62
689.82	397.51
690.16	395.40
690.50	393.43
690.83	391.47
691.17	389.45
691.51	387.55
691.84	385.69
692.18	383.81
692.52	381.79
692.85	379.75
693.19	377.84
693.52	375.97
693.86	374.11
694.20	372.28
694.53	370.49
694.87	368.63
695.21	366.83
695.54	364.96
695.88	363.13
696.21	361.40
696.55	359.71
696.88	358.01
697.22	356.30
697.56	354.66
697.89	352.96
698.23	351.34
698.56	349.69
698.90	348.09
699.23	346.43
699.57	344.86
699.90	343.34
700.24	341.80
700.58	340.27
700.91	338.81
701.25	337.36
701.58	335.96
701.92	334.60
702.25	333.21
702.59	331.81
702.92	330.54
703.26	329.22
703.59	327.91
703.93	326.73
704.26	325.55
704.60	324.26
704.93	322.98
705.26	321.71
705.60	320.49
705.93	319.27
706.27	318.17
706.60	317.04
706.94	315.94
707.27	314.81
707.61	313.71
707.94	312.60
708.27	311.49
708.61	310.39
708.94	309.34
709.28	308.37
709.61	307.45
709.94	306.45
710.28	305.41
710.61	304.43
710.95	303.29
711.28	302.31
711.61	301.35
711.95	300.45
712.28	299.50
712.61	298.53
712.95	297.62
713.28	296.73
713.61	295.85
713.95	294.96
714.28	294.11
714.61	293.23
714.95	292.43
715.28	291.60
715.61	290.70
715.95	289.85
716.28	288.94
716.61	288.06
716.95	287.21
717.28	286.47
717.61	285.69
717.94	284.98
718.28	284.18
718.61	283.45
718.94	282.69
719.27	282.04
719.61	281.37
719.94	280.72
720.27	280.01
720.60	279.31
720.94	278.70
721.27	278.09
721.60	277.50
721.93	276.88
722.27	276.29
722.60	275.73
722.93	275.16
723.26	274.63
723.59	274.05
723.93	273.49
724.26	272.94
724.59	272.34
724.92	271.73
725.25	271.22
725.59	270.65
725.92	270.17
726.25	269.60
726.58	269.10
726.91	268.58
727.24	268.09
727.57	267.62
727.91	267.07
728.24	266.59
728.57	266.06
728.90	265.53
729.23	265.01
729.56	264.55
729.89	264.02
730.22	263.51
730.55	263.04
730.89	262.57
731.22	262.08
731.55	261.61
731.88	261.20
732.21	260.75
732.54	260.33
732.87	259.88
733.20	259.46
733.53	259.05
733.86	258.65
734.19	258.22
734.52	257.83
734.85	257.52
735.18	257.06
735.51	256.72
735.84	256.33
736.17	255.97
736.50	255.59
736.83	255.36
737.16	255.02
737.49	254.69
737.82	254.34
738.15	254.01
738.48	253.70
738.81	253.39
739.14	253.06
739.47	252.76
739.80	252.44
740.13	252.13
740.46	251.80
740.79	251.49
741.12	251.19
741.45	250.85
741.78	250.47
742.11	250.22
742.44	249.88
742.77	249.64
743.10	249.35
743.43	249.05
743.75	248.62
744.08	248.49
744.41	248.18
744.74	247.95
745.07	247.62
745.40	247.35
745.73	247.10
746.06	246.85
746.39	246.53
746.71	246.24
747.04	245.97
747.37	245.71
747.70	245.49
748.03	245.25
748.36	245.07
748.68	244.85
749.01	244.62
749.34	244.40
749.67	244.16
750.00	243.97
750.33	243.80
750.65	243.61
750.98	243.21
751.31	243.02
751.64	242.77
751.97	242.63
752.29	242.39
752.62	242.15
752.95	241.91
753.28	241.72
753.60	241.49
753.93	241.32
754.26	241.13
754.59	240.92
754.91	240.71
755.24	240.48
755.57	240.26
755.90	240.05
756.22	239.84
756.55	239.64
756.88	239.43
757.20	239.23
757.53	239.07
757.86	238.94
758.19	238.81
758.51	238.66
758.84	238.49
759.17	238.35
759.49	238.19
759.82	238.07
760.15	237.91
760.47	237.79
760.80	237.61
761.13	237.46
761.45	237.25
761.78	237.09
762.11	236.96
762.43	236.81
762.76	236.66
763.08	236.52
763.41	236.37
763.74	236.20
764.06	236.02
764.39	235.86
764.71	235.70
765.04	235.52
765.37	235.35
765.69	235.18
766.02	235.05
766.34	234.87
766.67	234.73
767.00	234.62
767.32	234.58
767.65	234.50
767.97	234.38
768.30	234.31
768.62	234.17
768.95	234.06
769.27	233.96
769.60	233.87
769.92	233.77
770.25	233.64
770.57	233.52
770.90	233.41
771.22	233.31
771.55	233.22
771.87	233.13
772.20	233.04
772.52	233.03
772.85	233.04
773.17	232.96
773.50	232.86
773.82	232.73
774.15	232.57
774.47	232.43
774.80	232.31
775.12	232.17
775.45	232.07
775.77	231.96
776.09	231.89
776.42	231.76
776.74	231.69
777.07	231.63
777.39	231.53
777.72	231.43
778.04	231.34
778.36	231.25
778.69	231.17
779.01	231.11
779.33	230.93
779.66	230.75
779.98	230.67
780.31	230.58
780.63	230.57
780.95	230.50
781.28	230.41
781.60	230.37
781.92	230.31
782.25	230.26
782.57	230.22
782.89	230.13
783.22	230.11
783.54	230.01
783.86	229.97
784.19	229.92
784.51	229.90
784.83	229.84
785.16	229.77
785.48	229.73
785.80	229.68
786.12	229.66
786.45	229.62
786.77	229.59
787.09	229.53
787.42	229.47
787.74	229.46
788.06	229.44
788.38	229.41
788.71	229.34
789.03	229.33
789.35	229.31
789.67	229.29
789.99	229.24
790.32	229.22
790.64	229.18
790.96	229.25
791.28	229.19
791.61	229.18
791.93	229.14
792.25	229.10
792.57	229.14
792.89	229.08
793.21	229.02
793.54	228.99
793.86	228.96
794.18	228.93
794.50	228.89
794.82	228.85
795.14	228.81
795.47	228.83
795.79	228.78
796.11	228.71
796.43	228.65
796.75	228.64
797.07	228.64
797.39	228.64
797.71	228.55
798.04	228.53
798.36	228.50
798.68	228.52
799.00	228.52
799.32	228.44
799.64	228.46
799.96	228.47
800.28	228.47
800.60	228.44
800.92	228.43
801.24	228.39
801.56	228.37
801.89	228.36
802.21	228.35
802.53	228.30
802.85	228.32
803.17	228.35
803.49	228.30
803.81	228.22
804.13	228.19
804.45	228.12
804.77	228.12
805.09	228.07
805.41	228.02
805.73	227.94
806.05	227.88
806.37	227.83
806.69	227.76
807.01	227.72
807.33	227.70
807.65	227.62
807.97	227.61
808.28	227.57
808.60	227.53
808.92	227.51
809.24	227.58
809.56	227.48
809.88	227.39
810.20	227.35
810.52	227.35
810.84	227.26
811.16	227.23
811.48	227.15
811.80	227.17
812.12	227.15
812.43	227.13
812.75	227.09
813.07	227.04
813.39	227.02
813.71	226.96
814.03	226.91
814.35	226.89
814.67	226.80
814.98	226.75
815.30	226.72
815.62	226.65
815.94	226.53
816.26	226.59
816.58	226.57
816.89	226.56
817.21	226.50
817.53	226.48
817.85	226.48
818.17	226.48
818.48	226.37
818.80	226.37
819.12	226.35
819.44	226.35
819.76	226.31
820.07	226.28
820.39	226.27
820.71	226.25
821.03	226.24
821.34	226.25
821.66	226.28
821.98	226.26
822.30	226.21
822.61	226.24
822.93	226.15
823.25	226.13
823.57	226.11
823.88	226.12
824.20	226.14
824.52	226.12
824.83	226.06
825.15	226.07
825.47	226.04
825.79	226.03
826.10	225.98
826.42	225.96
826.74	225.97
827.05	225.95
827.37	225.97
827.69	225.94
828.00	225.94
828.32	225.90
828.64	225.89
828.95	225.92
829.27	225.89
829.58	225.90
829.90	225.88
830.22	225.89
830.53	225.84
830.85	225.80
831.17	225.76
831.48	225.78
831.80	225.77
832.11	225.77
832.43	225.71
832.75	225.75
833.06	225.82
833.38	225.78
833.69	225.75
834.01	225.77
834.32	225.79
834.64	225.78
834.96	225.81
835.27	225.78
835.59	225.80
835.90	225.81
836.22	225.81
836.53	225.83
836.85	225.81
837.16	225.96
837.48	225.98
837.79	226.03
838.11	226.05
838.42	226.07
838.74	226.08
839.05	226.11
839.37	226.09
839.68	226.00
840.00	226.02
840.31	226.04
840.63	225.98
840.94	225.98
841.26	225.94
841.57	225.90
841.88	225.92
842.20	225.89
842.51	225.85
842.83	225.85
843.14	225.90
843.46	225.93
843.77	225.87
844.08	225.85
844.40	225.79
844.71	225.78
845.03	225.78
845.34	225.79
845.65	225.78
845.97	225.81
846.28	225.84
846.60	225.81
846.91	225.80
847.22	225.83
847.54	225.83
847.85	225.84
848.16	225.85
848.48	225.84
848.79	225.89
849.10	225.89
849.42	225.88
849.73	225.83
850.04	225.79
850.36	225.72
850.67	225.75
850.98	225.75
851.30	225.74
851.61	225.74
851.92	225.69
852.23	225.72
852.55	225.67
852.86	225.64
853.17	225.66
853.49	225.65
853.80	225.66
854.11	225.66
854.42	225.65
854.74	225.64
855.05	225.61
855.36	225.53
855.67	225.52
855.99	225.51
856.30	225.56
856.61	225.56
856.92	225.55
857.23	225.53
857.55	225.53
857.86	225.51
858.17	225.49
858.48	225.46
858.79	225.41
859.11	225.43
859.42	225.42
859.73	225.39
860.04	225.39
860.35	225.34
860.66	225.30
860.98	225.29
861.29	225.30
861.60	225.28
861.91	225.29
862.22	225.24
862.53	225.22
862.84	225.12
863.16	225.12
863.47	225.10
863.78	225.08
864.09	225.09
864.40	225.08
864.71	225.06
865.02	225.05
865.33	225.01
865.64	224.96
865.95	224.93
866.27	224.99
866.58	224.97
866.89	224.97
867.20	224.96
867.51	224.94
867.82	224.91
868.13	224.97
868.44	224.95
868.75	225.00
869.06	224.97
869.37	225.01
869.68	224.95
869.99	224.97
870.30	224.97
870.61	224.93
870.92	224.93
871.23	224.92
871.54	224.98
871.85	225.03
872.16	225.05
872.47	225.08
872.78	225.03
873.09	225.04
873.40	225.04
873.71	225.08
874.02	225.12
874.33	225.11
874.64	225.10
874.95	225.13
875.26	225.12
875.56	225.15
875.87	225.14
876.18	225.16
876.49	225.30
876.80	225.31
877.11	225.32
877.42	225.31
877.73	225.33
878.04	225.29
878.35	225.30
878.66	225.35
878.96	225.34
879.27	225.31
879.58	225.33
879.89	225.33
880.20	225.33
880.51	225.31
880.82	225.33
881.12	225.30
881.43	225.28
881.74	225.27
882.05	225.28
882.36	225.28
882.67	225.30
882.97	225.19
883.28	225.20
883.59	225.20
883.90	225.23
884.21	225.26
884.51	225.28
884.82	225.27
885.13	225.28
885.44	225.29
885.74	225.30
886.05	225.28
886.36	225.30
886.67	225.25
886.98	225.31
887.28	225.30
887.59	225.31
887.90	225.29
888.20	225.28
888.51	225.27
888.82	225.25
889.13	225.24
889.43	225.30
889.74	225.29
890.05	225.31
890.35	225.29
890.66	225.25
890.97	225.22
891.28	225.22
891.58	225.21
891.89	225.20
892.20	225.16
892.50	225.16
892.81	225.13
893.12	225.16
893.42	225.14
893.73	225.13
894.04	225.08
894.34	225.11
894.65	225.10
894.95	225.09
895.26	225.09
895.57	225.13
895.87	225.04
896.18	225.02
896.48	224.99
896.79	224.99
897.10	225.00
897.40	225.03
897.71	225.02
898.01	224.98
898.32	224.99
898.63	225.01
898.93	225.00
899.24	225.00
899.54	224.97
899.85	224.92
900.15	224.91
900.46	224.94
900.76	224.93
901.07	224.93
901.38	224.91
901.68	224.90
901.99	224.84
902.29	224.81
902.60	224.80
902.90	224.79
903.21	224.79
903.51	224.77
903.82	224.75
904.12	224.76
904.43	224.76
904.73	224.76
905.03	224.79
905.34	224.89
905.64	224.88
905.95	224.90
906.25	224.86
906.56	224.85
906.86	224.82
907.17	224.83
907.47	224.80
907.77	224.79
908.08	224.77
908.38	224.80
908.69	224.80
908.99	224.86
909.30	224.88
909.60	224.83
909.90	224.85
910.21	224.83
910.51	224.84
910.81	224.82
911.12	224.83
911.42	224.79
911.73	224.68
912.03	224.68
912.33	224.70
912.64	224.71
912.94	224.72
913.24	224.73
913.55	224.72
913.85	224.74
914.15	224.78
914.46	224.80
914.76	224.77
915.06	224.78
915.37	224.73
915.67	224.71
915.97	224.74
916.27	224.69
916.58	224.69
916.88	224.66
917.18	224.69
917.49	224.73
917.79	224.76
918.09	224.81
918.39	224.85
918.70	224.82
919.00	224.86
919.30	224.91
919.60	224.93
919.91	224.91
920.21	224.91
920.51	224.91
920.81	224.91
921.12	224.94
921.42	224.93
921.72	224.91
922.02	224.91
922.32	224.92
922.63	224.96
922.93	225.01
923.23	225.02
923.53	224.99
923.83	224.94
924.13	224.92
924.44	224.89
924.74	224.89
925.04	224.93
925.34	224.94
925.64	224.89
925.94	224.91
926.24	224.98
926.55	224.97
926.85	224.96
927.15	224.96
927.45	224.96
927.75	224.99
928.05	225.03
928.35	225.04
928.65	225.05
928.95	225.04
929.26	225.00
929.56	225.01
929.86	225.03
930.16	225.01
930.46	225.02
930.76	225.01
931.06	224.95
931.36	224.94
931.66	224.91
931.96	224.93
932.26	224.92
932.56	224.85
932.86	224.85
933.16	224.85
933.46	224.84
933.76	224.81
934.06	224.84
934.36	224.85
934.66	224.84
934.96	224.85
935.26	224.82
935.56	224.83
935.86	224.78
936.16	224.78
936.46	224.77
936.76	224.76
937.06	224.77
937.36	224.76
937.66	224.76
937.96	224.72
938.26	224.70
938.56	224.69
938.86	224.70
939.16	224.70
939.46	224.71
939.76	224.72
940.06	224.71
940.35	224.66
940.65	224.61
940.95	224.62
941.25	224.58
941.55	224.59
941.85	224.58
942.15	224.59
942.45	224.61
942.75	224.61
943.04	224.62
943.34	224.62
943.64	224.63
943.94	224.60
944.24	224.62
944.54	224.63
944.84	224.63
945.13	224.63
945.43	224.62
945.73	224.63
946.03	224.62
946.33	224.60
946.62	224.58
946.92	224.58
947.22	224.57
947.52	224.58
947.82	224.60
948.11	224.61
948.41	224.63
948.71	224.59
949.01	224.60
949.31	224.58
949.60	224.59
949.90	224.61
950.20	224.59
950.50	224.62
950.79	224.60
951.09	224.62
951.39	224.58
951.69	224.58
951.98	224.61
952.28	224.62
952.58	224.64
952.87	224.64
953.17	224.68
953.47	224.68
953.76	224.66
954.06	224.62
954.36	224.56
954.66	224.53
954.95	224.55
955.25	224.54
955.55	224.54
955.84	224.50
956.14	224.51
956.44	224.54
956.73	224.51
957.03	224.54
957.32	224.52
957.62	224.54
957.92	224.56
958.21	224.52
958.51	224.61
958.81	224.65
959.10	224.65
959.40	224.69
959.69	224.70
959.99	224.74
960.29	224.70
960.58	224.73
960.88	224.79
961.17	224.77
961.47	224.78
961.76	224.80
962.06	224.81
962.36	224.77
962.65	224.77
962.95	224.78
963.24	224.72
963.54	224.72
963.83	224.74
964.13	224.70
964.42	224.66
964.72	224.59
965.01	224.58
965.31	224.60
965.60	224.52
965.90	224.56
966.19	224.54
966.49	224.60
966.78	224.59
967.08	224.58
967.37	224.58
967.67	224.58
967.96	224.57
968.26	224.59
968.55	224.59
968.85	224.61
969.14	224.60
969.43	224.64
969.73	224.67
970.02	224.65
970.32	224.71
970.61	224.74
970.91	224.70
971.20	224.71
971.49	224.67
971.79	224.71
972.08	224.65
972.38	224.65
972.67	224.65
972.96	224.65
973.26	224.62
973.55	224.67
973.85	224.69
974.14	224.66
974.43	224.69
974.73	224.69
975.02	224.65
975.31	224.66
975.61	224.67
975.90	224.63
976.19	224.60
976.49	224.59
976.78	224.57
977.07	224.56
977.37	224.55
977.66	224.60
977.95	224.58
978.24	224.59
978.54	224.63
978.83	224.64
979.12	224.66
979.42	224.68
979.71	224.66
980.00	224.65
980.29	224.69
980.59	224.67
980.88	224.72
981.17	224.74
981.46	224.74
981.76	224.73
982.05	224.76
982.34	224.76
982.63	224.74
982.93	224.74
983.22	224.76
983.51	224.77
983.80	224.74
984.09	224.78
984.39	224.79
984.68	224.75
984.97	224.73
985.26	224.73
985.55	224.73
985.85	224.72
986.14	224.73
986.43	224.76
986.72	224.75
987.01	224.69
987.30	224.69
987.59	224.67
987.89	224.70
988.18	224.68
988.47	224.67
988.76	224.69
989.05	224.69
989.34	224.65
989.63	224.66
989.92	224.68
990.22	224.64
990.51	224.60
990.80	224.58
991.09	224.61
991.38	224.63
991.67	224.57
991.96	224.52
992.25	224.54
992.54	224.48
992.83	224.48
993.12	224.47
993.41	224.52
993.70	224.58
993.99	224.55
994.28	224.58
994.58	224.62
994.87	224.62
995.16	224.65
995.45	224.68
995.74	224.66
996.03	224.65
996.32	224.67
996.61	224.72
996.90	224.77
997.19	224.77
997.48	224.77
997.77	224.80
998.06	224.85
998.34	224.80
998.63	224.83
998.92	224.83
999.21	224.88
999.50	224.85
999.79	224.82
1000.08	224.84
1000.37	224.87
1000.66	224.88
1000.95	224.89
1001.24	224.88
1001.53	224.89
1001.82	224.89
1002.11	224.93
1002.40	224.92
1002.68	224.93
1002.97	224.99
1003.26	224.99
1003.55	224.95
1003.84	224.97
1004.13	225.01
1004.42	225.03
1004.71	225.02
1004.99	225.01
1005.28	225.01
1005.57	225.00
1005.86	224.97
1006.15	224.97
1006.44	224.95
1006.72	224.96
1007.01	224.95
1007.30	224.97
1007.59	224.94
1007.88	224.94
1008.17	224.93
1008.45	224.94
1008.74	224.90
1009.03	224.84
1009.32	224.83
1009.60	224.83
1009.89	224.81
1010.18	224.73
1010.47	224.73
1010.76	224.75
1011.04	224.74
1011.33	224.76
1011.62	224.80
1011.91	224.79
1012.19	224.81
1012.48	224.81
1012.77	224.79
1013.05	224.84
1013.34	224.80
1013.63	224.84
1013.92	224.87
1014.20	224.87
1014.49	224.82
1014.78	224.84
1015.06	224.83
1015.35	224.82
1015.64	224.82
1015.92	224.88
1016.21	224.93
1016.50	224.88
1016.78	224.90
1017.07	224.92
1017.36	224.88
1017.64	224.87
1017.93	224.90
1018.22	224.87
1018.50	224.88
1018.79	224.85
1019.08	224.79
1019.36	224.81
1019.65	224.76
1019.93	224.76
1020.22	224.76
1020.51	224.85
1020.79	224.82
1021.08	224.67
1021.36	225.30
1021.65	224.42
1021.94	224.56
1022.22	224.77
1022.51	224.14
1022.79	225.23
1023.08	224.96
1023.36	226.03
1023.65	224.40
>>>>>End Processed Spectral Data<<<<<
