SpectraSuite Data File
++++++++++++++++++++++++++++++++++++
Date: Fri Feb 01 15:54:45 EST 2013
User: group
Dark Spectrum Present: No
Reference Spectrum Present: No
Number of Sampled Component Spectra: 1
Spectrometers: USB2E7196
Integration Time (usec): 35000 (USB2E7196)
Spectra Averaged: 100 (USB2E7196)
Boxcar Smoothing: 10 (USB2E7196)
Correct for Electrical Dark: No (USB2E7196)
Strobe/Lamp Enabled: No (USB2E7196)
Correct for Detector Non-linearity: No (USB2E7196)
Correct for Stray Light: No (USB2E7196)
Number of Pixels in Processed Spectrum: 2048
>>>>>Begin Processed Spectral Data<<<<<
339.09	0.00
339.48	214.67
339.86	215.92
340.24	217.72
340.63	218.88
341.01	222.07
341.39	221.80
341.78	222.79
342.16	224.44
342.54	224.58
342.93	213.11
343.31	223.88
343.69	224.41
344.07	224.89
344.46	225.30
344.84	225.68
345.22	225.92
345.60	226.14
345.99	226.34
346.37	226.47
346.75	226.58
347.13	226.67
347.52	226.75
347.90	226.80
348.28	226.81
348.66	226.85
349.05	226.85
349.43	226.86
349.81	226.84
350.19	226.89
350.57	226.97
350.96	227.05
351.34	227.12
351.72	227.21
352.10	227.31
352.48	227.38
352.87	227.44
353.25	227.51
353.63	227.62
354.01	227.69
354.39	227.74
354.77	227.85
355.15	227.96
355.54	228.01
355.92	228.06
356.30	228.12
356.68	228.25
357.06	228.33
357.44	228.39
357.82	228.47
358.20	228.56
358.58	228.62
358.97	228.70
359.35	228.79
359.73	228.89
360.11	228.91
360.49	228.98
360.87	229.02
361.25	229.09
361.63	229.16
362.01	229.19
362.39	229.23
362.77	229.26
363.15	229.30
363.53	229.32
363.91	229.37
364.29	229.40
364.67	229.33
365.05	229.37
365.43	229.40
365.81	229.44
366.19	229.46
366.57	229.50
366.95	229.50
367.33	229.44
367.71	229.41
368.09	229.46
368.47	229.44
368.85	229.44
369.23	229.39
369.61	229.28
369.99	229.30
370.37	229.28
370.75	229.27
371.13	229.18
371.51	229.10
371.89	229.03
372.27	228.98
372.65	228.93
373.03	228.86
373.41	228.80
373.78	228.74
374.16	228.66
374.54	228.56
374.92	228.51
375.30	228.47
375.68	228.37
376.06	228.29
376.44	228.20
376.82	228.15
377.19	228.09
377.57	228.04
377.95	227.93
378.33	227.86
378.71	227.74
379.09	227.69
379.47	227.67
379.84	227.60
380.22	227.53
380.60	227.47
380.98	227.39
381.36	227.32
381.73	227.21
382.11	227.12
382.49	227.09
382.87	226.99
383.25	226.94
383.62	227.01
384.00	226.93
384.38	226.86
384.76	226.79
385.13	226.78
385.51	226.75
385.89	226.67
386.27	226.64
386.64	226.55
387.02	226.48
387.40	226.39
387.78	226.38
388.15	226.33
388.53	226.30
388.91	226.23
389.29	226.20
389.66	226.20
390.04	226.21
390.42	226.16
390.79	226.16
391.17	226.15
391.55	226.02
391.92	226.03
392.30	226.11
392.68	226.09
393.05	226.09
393.43	226.11
393.81	226.19
394.18	226.20
394.56	226.27
394.94	226.36
395.31	226.40
395.69	226.45
396.06	226.48
396.44	226.51
396.82	226.56
397.19	226.69
397.57	226.74
397.95	226.81
398.32	226.87
398.70	226.92
399.07	226.98
399.45	227.04
399.82	227.09
400.20	227.10
400.58	227.18
400.95	227.21
401.33	227.28
401.70	227.40
402.08	227.47
402.45	227.56
402.83	227.65
403.20	227.74
403.58	227.79
403.95	227.94
404.33	228.10
404.71	228.23
405.08	228.35
405.46	228.47
405.83	228.58
406.21	228.73
406.58	228.87
406.96	229.03
407.33	229.24
407.70	229.45
408.08	229.73
408.45	229.97
408.83	230.22
409.20	230.41
409.58	230.62
409.95	230.89
410.33	231.16
410.70	231.38
411.08	231.73
411.45	232.05
411.82	232.36
412.20	232.68
412.57	233.09
412.95	233.38
413.32	233.77
413.69	234.20
414.07	234.63
414.44	235.10
414.82	235.57
415.19	236.08
415.56	236.61
415.94	237.12
416.31	237.72
416.68	238.33
417.06	239.05
417.43	239.68
417.81	240.46
418.18	241.22
418.55	242.10
418.93	242.95
419.30	243.85
419.67	244.75
420.04	245.69
420.42	246.70
420.79	247.90
421.16	249.07
421.54	250.29
421.91	251.50
422.28	252.77
422.66	254.11
423.03	255.40
423.40	256.73
423.77	258.14
424.15	259.57
424.52	261.05
424.89	262.67
425.26	264.22
425.64	265.63
426.01	267.24
426.38	268.87
426.75	270.51
427.13	272.23
427.50	274.05
427.87	275.94
428.24	277.75
428.61	279.52
428.99	281.45
429.36	283.51
429.73	285.56
430.10	287.59
430.47	289.60
430.85	291.75
431.22	293.96
431.59	296.37
431.96	298.61
432.33	301.11
432.70	303.47
433.08	306.28
433.45	308.93
433.82	311.54
434.19	314.42
434.56	317.26
434.93	319.88
435.30	322.53
435.68	325.40
436.05	328.27
436.42	331.03
436.79	333.55
437.16	336.27
437.53	339.09
437.90	341.92
438.27	344.69
438.64	347.52
439.01	350.15
439.38	352.41
439.75	354.61
440.13	357.08
440.50	359.42
440.87	361.29
441.24	363.21
441.61	365.36
441.98	366.88
442.35	368.66
442.72	370.54
443.09	372.35
443.46	373.35
443.83	373.93
444.20	374.46
444.57	375.29
444.94	375.57
445.31	375.90
445.68	376.23
446.05	376.32
446.42	375.92
446.79	375.52
447.16	375.07
447.53	374.75
447.90	373.55
448.27	372.38
448.64	370.81
449.01	369.70
449.37	367.74
449.74	365.87
450.11	363.64
450.48	361.20
450.85	358.64
451.22	356.49
451.59	354.47
451.96	352.58
452.33	349.99
452.70	347.64
453.07	344.85
453.43	341.96
453.80	339.15
454.17	336.47
454.54	333.92
454.91	331.16
455.28	328.47
455.65	325.99
456.02	323.56
456.38	321.37
456.75	318.64
457.12	316.34
457.49	314.08
457.86	311.89
458.23	310.04
458.59	308.05
458.96	305.97
459.33	304.07
459.70	302.14
460.07	300.61
460.43	298.86
460.80	297.22
461.17	295.82
461.54	294.35
461.91	292.94
462.27	291.46
462.64	290.23
463.01	288.87
463.38	287.60
463.74	286.22
464.11	285.09
464.48	284.13
464.85	283.05
465.21	282.20
465.58	281.29
465.95	280.18
466.32	279.25
466.68	278.34
467.05	277.45
467.42	276.56
467.78	275.63
468.15	274.76
468.52	274.10
468.88	273.21
469.25	272.43
469.62	271.82
469.98	271.17
470.35	270.53
470.72	269.96
471.08	269.28
471.45	268.76
471.82	268.19
472.18	267.57
472.55	267.16
472.92	266.60
473.28	266.16
473.65	265.72
474.02	265.29
474.38	264.95
474.75	264.67
475.11	264.32
475.48	264.09
475.85	263.90
476.21	263.67
476.58	263.51
476.94	263.39
477.31	263.22
477.67	263.09
478.04	263.00
478.41	262.99
478.77	263.08
479.14	263.01
479.50	263.02
479.87	263.14
480.23	263.21
480.60	263.31
480.96	263.38
481.33	263.62
481.69	263.77
482.06	263.99
482.42	264.18
482.79	264.46
483.15	264.76
483.52	265.16
483.88	265.53
484.25	265.90
484.61	266.30
484.98	266.75
485.34	267.28
485.71	267.88
486.07	268.44
486.44	268.99
486.80	269.67
487.17	270.45
487.53	271.21
487.90	272.08
488.26	272.99
488.62	273.99
488.99	274.93
489.35	276.02
489.72	277.14
490.08	278.35
490.44	279.60
490.81	280.93
491.17	282.24
491.54	283.75
491.90	285.29
492.26	286.99
492.63	288.71
492.99	290.53
493.36	292.43
493.72	294.49
494.08	296.60
494.45	298.90
494.81	301.20
495.17	303.65
495.54	306.22
495.90	308.93
496.26	311.74
496.63	314.73
496.99	317.86
497.35	321.12
497.72	324.52
498.08	328.03
498.44	331.68
498.80	335.60
499.17	339.61
499.53	343.79
499.89	348.17
500.26	352.64
500.62	357.32
500.98	362.24
501.34	367.30
501.71	372.65
502.07	378.07
502.43	383.74
502.79	389.57
503.16	395.64
503.52	401.95
503.88	408.36
504.24	415.03
504.60	421.84
504.97	428.94
505.33	436.34
505.69	444.11
506.05	451.91
506.41	459.79
506.78	467.96
507.14	476.39
507.50	485.08
507.86	494.19
508.22	503.39
508.59	512.66
508.95	522.26
509.31	532.10
509.67	542.24
510.03	552.52
510.39	563.06
510.75	573.83
511.12	584.73
511.48	596.01
511.84	607.43
512.20	618.99
512.56	630.95
512.92	643.09
513.28	655.38
513.64	667.86
514.00	680.54
514.37	693.46
514.73	706.57
515.09	719.60
515.45	732.86
515.81	746.35
516.17	760.35
516.53	774.42
516.89	788.59
517.25	802.72
517.61	817.17
517.97	831.63
518.33	846.08
518.69	860.85
519.05	875.85
519.41	890.97
519.77	906.49
520.13	921.93
520.49	937.22
520.85	952.61
521.21	968.40
521.57	984.69
521.93	1000.44
522.29	1016.79
522.65	1033.01
523.01	1049.16
523.37	1065.19
523.73	1081.28
524.09	1097.39
524.45	1113.57
524.81	1130.14
525.17	1146.98
525.53	1163.87
525.89	1180.79
526.25	1197.66
526.61	1213.95
526.97	1230.78
527.33	1247.30
527.68	1263.87
528.04	1280.46
528.40	1297.07
528.76	1314.04
529.12	1330.68
529.48	1347.57
529.84	1363.56
530.20	1380.16
530.56	1397.24
530.91	1414.67
531.27	1431.50
531.63	1448.00
531.99	1464.69
532.35	1480.60
532.71	1496.37
533.07	1512.54
533.42	1528.40
533.78	1544.35
534.14	1560.77
534.50	1576.09
534.86	1591.89
535.21	1607.06
535.57	1622.92
535.93	1638.40
536.29	1653.16
536.65	1668.10
537.00	1682.91
537.36	1698.17
537.72	1712.71
538.08	1727.07
538.44	1740.83
538.79	1754.55
539.15	1768.24
539.51	1781.85
539.87	1796.21
540.22	1810.06
540.58	1823.84
540.94	1837.13
541.29	1850.10
541.65	1862.71
542.01	1875.88
542.37	1888.18
542.72	1900.68
543.08	1912.38
543.44	1924.64
543.79	1935.86
544.15	1946.79
544.51	1958.33
544.87	1969.29
545.22	1980.24
545.58	1990.39
545.94	2000.19
546.29	2010.05
546.65	2019.82
547.01	2029.13
547.36	2037.92
547.72	2046.27
548.07	2054.12
548.43	2062.10
548.79	2070.15
549.14	2077.53
549.50	2084.88
549.86	2092.60
550.21	2099.87
550.57	2106.98
550.92	2113.54
551.28	2120.56
551.64	2127.63
551.99	2134.05
552.35	2140.10
552.70	2146.06
553.06	2151.96
553.41	2158.18
553.77	2164.23
554.13	2170.25
554.48	2176.47
554.84	2181.86
555.19	2187.09
555.55	2192.24
555.90	2196.75
556.26	2201.39
556.61	2206.32
556.97	2210.46
557.32	2214.47
557.68	2218.53
558.03	2222.83
558.39	2226.58
558.74	2231.15
559.10	2235.08
559.45	2238.74
559.81	2243.22
560.16	2246.96
560.52	2250.35
560.87	2253.83
561.23	2256.40
561.58	2259.40
561.94	2261.78
562.29	2264.21
562.64	2266.87
563.00	2269.54
563.35	2273.08
563.71	2276.27
564.06	2279.32
564.42	2282.19
564.77	2284.69
565.12	2287.09
565.48	2289.02
565.83	2290.97
566.19	2292.29
566.54	2293.18
566.89	2294.39
567.25	2294.82
567.60	2296.15
567.96	2297.68
568.31	2298.55
568.66	2299.73
569.02	2300.29
569.37	2300.58
569.72	2301.39
570.08	2301.58
570.43	2301.60
570.78	2301.08
571.14	2299.59
571.49	2298.27
571.84	2298.02
572.20	2296.86
572.55	2295.64
572.90	2294.15
573.26	2292.71
573.61	2291.10
573.96	2289.33
574.31	2286.20
574.67	2283.20
575.02	2279.75
575.37	2276.42
575.72	2272.56
576.08	2269.20
576.43	2265.93
576.78	2262.22
577.13	2259.08
577.49	2255.89
577.84	2252.25
578.19	2248.68
578.54	2244.96
578.90	2240.82
579.25	2235.23
579.60	2230.36
579.95	2225.42
580.30	2220.48
580.66	2215.33
581.01	2210.38
581.36	2205.40
581.71	2201.42
582.06	2197.03
582.42	2192.54
582.77	2187.31
583.12	2182.74
583.47	2178.09
583.82	2173.03
584.17	2167.84
584.53	2162.24
584.88	2156.75
585.23	2151.08
585.58	2145.44
585.93	2140.16
586.28	2135.33
586.63	2130.29
586.98	2125.35
587.34	2120.63
587.69	2115.63
588.04	2110.38
588.39	2104.71
588.74	2098.32
589.09	2091.98
589.44	2085.12
589.79	2079.13
590.14	2073.58
590.49	2067.08
590.84	2060.66
591.19	2054.46
591.54	2048.04
591.89	2040.71
592.25	2033.75
592.60	2026.52
592.95	2019.04
593.30	2011.68
593.65	2004.07
594.00	1996.96
594.35	1989.68
594.70	1981.71
595.05	1974.47
595.40	1967.15
595.75	1959.58
596.10	1953.41
596.45	1946.81
596.80	1940.64
597.15	1933.91
597.50	1926.79
597.85	1920.41
598.19	1913.73
598.54	1906.69
598.89	1900.13
599.24	1894.31
599.59	1887.69
599.94	1881.49
600.29	1875.18
600.64	1868.62
600.99	1861.20
601.34	1854.32
601.69	1847.32
602.04	1840.42
602.39	1833.26
602.74	1826.46
603.08	1819.74
603.43	1812.90
603.78	1805.55
604.13	1798.38
604.48	1791.09
604.83	1784.17
605.18	1776.95
605.53	1768.89
605.87	1761.04
606.22	1753.80
606.57	1745.76
606.92	1738.48
607.27	1731.35
607.62	1724.33
607.96	1716.95
608.31	1710.36
608.66	1702.80
609.01	1695.22
609.36	1687.66
609.70	1679.54
610.05	1671.41
610.40	1663.83
610.75	1655.52
611.10	1647.87
611.44	1639.48
611.79	1631.46
612.14	1622.67
612.49	1613.71
612.83	1605.50
613.18	1597.41
613.53	1589.27
613.88	1580.72
614.22	1572.39
614.57	1563.76
614.92	1555.63
615.27	1548.01
615.61	1539.59
615.96	1531.58
616.31	1523.94
616.65	1516.53
617.00	1508.90
617.35	1501.31
617.70	1492.81
618.04	1484.24
618.39	1476.05
618.74	1468.50
619.08	1460.22
619.43	1452.79
619.78	1445.83
620.12	1438.53
620.47	1430.95
620.82	1422.79
621.16	1415.47
621.51	1407.90
621.85	1400.35
622.20	1391.82
622.55	1383.58
622.89	1375.79
623.24	1368.27
623.59	1360.87
623.93	1353.33
624.28	1346.04
624.62	1338.51
624.97	1331.40
625.32	1324.72
625.66	1317.63
626.01	1310.37
626.35	1302.87
626.70	1295.19
627.04	1287.45
627.39	1279.77
627.73	1272.30
628.08	1265.33
628.43	1257.93
628.77	1250.56
629.12	1242.99
629.46	1235.92
629.81	1228.51
630.15	1221.21
630.50	1213.74
630.84	1205.61
631.19	1197.69
631.53	1190.21
631.88	1182.58
632.22	1174.93
632.57	1167.56
632.91	1160.02
633.26	1152.60
633.60	1145.28
633.95	1138.11
634.29	1131.08
634.64	1124.37
634.98	1117.04
635.32	1109.91
635.67	1103.39
636.01	1096.70
636.36	1089.79
636.70	1083.23
637.05	1076.53
637.39	1070.15
637.73	1063.59
638.08	1057.62
638.42	1051.61
638.77	1045.16
639.11	1038.64
639.45	1032.32
639.80	1025.67
640.14	1019.28
640.49	1012.82
640.83	1006.49
641.17	1000.25
641.52	993.91
641.86	987.43
642.20	981.55
642.55	975.19
642.89	968.70
643.23	962.19
643.58	956.49
643.92	950.30
644.26	944.22
644.61	938.19
644.95	932.17
645.29	925.61
645.64	918.89
645.98	912.59
646.32	906.75
646.66	900.68
647.01	894.85
647.35	889.12
647.69	883.23
648.04	877.72
648.38	871.88
648.72	865.84
649.06	859.78
649.41	853.90
649.75	847.97
650.09	842.09
650.43	836.32
650.78	830.12
651.12	824.13
651.46	818.45
651.80	812.63
652.14	807.22
652.49	801.89
652.83	796.76
653.17	791.04
653.51	785.23
653.85	779.96
654.20	774.39
654.54	768.36
654.88	762.66
655.22	756.85
655.56	751.23
655.90	745.87
656.25	740.60
656.59	735.20
656.93	730.18
657.27	724.94
657.61	719.56
657.95	714.43
658.29	709.34
658.64	704.11
658.98	698.84
659.32	693.46
659.66	688.22
660.00	682.83
660.34	677.98
660.68	673.13
661.02	667.98
661.36	663.27
661.70	658.82
662.05	654.45
662.39	650.03
662.73	645.56
663.07	641.14
663.41	636.68
663.75	632.20
664.09	627.59
664.43	623.19
664.77	619.04
665.11	614.89
665.45	610.76
665.79	606.63
666.13	602.56
666.47	598.45
666.81	594.29
667.15	590.19
667.49	586.22
667.83	582.39
668.17	578.44
668.51	574.34
668.85	570.32
669.19	566.48
669.53	562.66
669.87	558.82
670.21	555.09
670.55	551.49
670.89	548.06
671.23	544.60
671.57	541.03
671.91	537.47
672.25	533.90
672.58	530.43
672.92	527.11
673.26	523.89
673.60	520.72
673.94	517.58
674.28	514.66
674.62	511.72
674.96	508.63
675.30	505.72
675.64	502.80
675.97	499.98
676.31	497.10
676.65	494.17
676.99	491.46
677.33	488.64
677.67	485.82
678.01	482.77
678.34	479.85
678.68	477.03
679.02	474.19
679.36	471.40
679.70	468.64
680.04	465.86
680.37	462.97
680.71	460.15
681.05	457.61
681.39	454.89
681.73	452.23
682.06	449.68
682.40	447.14
682.74	444.59
683.08	442.06
683.42	439.46
683.75	436.98
684.09	434.41
684.43	431.91
684.77	429.44
685.10	427.06
685.44	424.77
685.78	422.50
686.12	420.27
686.45	418.01
686.79	415.74
687.13	413.50
687.46	411.33
687.80	409.17
688.14	406.90
688.48	404.86
688.81	402.63
689.15	400.45
689.49	398.30
689.82	396.22
690.16	394.13
690.50	392.18
690.83	390.22
691.17	388.24
691.51	386.35
691.84	384.49
692.18	382.64
692.52	380.62
692.85	378.69
693.19	376.78
693.52	374.94
693.86	373.13
694.20	371.43
694.53	369.66
694.87	367.88
695.21	366.09
695.54	364.26
695.88	362.52
696.21	360.82
696.55	359.16
696.88	357.52
697.22	355.88
697.56	354.25
697.89	352.58
698.23	350.94
698.56	349.33
698.90	347.76
699.23	346.09
699.57	344.57
699.90	343.06
700.24	341.55
700.58	340.04
700.91	338.55
701.25	337.07
701.58	335.69
701.92	334.32
702.25	333.01
702.59	331.65
702.92	330.33
703.26	329.02
703.59	327.77
703.93	326.60
704.26	325.37
704.60	324.12
704.93	322.86
705.26	321.63
705.60	320.44
705.93	319.28
706.27	318.25
706.60	317.26
706.94	316.17
707.27	315.06
707.61	314.03
707.94	313.00
708.27	311.94
708.61	310.86
708.94	309.85
709.28	308.84
709.61	307.92
709.94	307.04
710.28	306.06
710.61	305.05
710.95	303.99
711.28	303.09
711.61	302.15
711.95	301.25
712.28	300.31
712.61	299.32
712.95	298.41
713.28	297.53
713.61	296.57
713.95	295.71
714.28	294.90
714.61	294.02
714.95	293.17
715.28	292.30
715.61	291.41
715.95	290.54
716.28	289.67
716.61	288.80
716.95	287.96
717.28	287.19
717.61	286.45
717.94	285.67
718.28	284.83
718.61	284.06
718.94	283.36
719.27	282.70
719.61	282.13
719.94	281.46
720.27	280.75
720.60	280.08
720.94	279.45
721.27	278.81
721.60	278.20
721.93	277.60
722.27	277.04
722.60	276.51
722.93	275.91
723.26	275.37
723.59	274.80
723.93	274.20
724.26	273.67
724.59	273.10
724.92	272.60
725.25	272.11
725.59	271.57
725.92	271.05
726.25	270.56
726.58	270.02
726.91	269.49
727.24	269.02
727.57	268.57
727.91	268.00
728.24	267.54
728.57	267.04
728.90	266.57
729.23	266.06
729.56	265.61
729.89	265.16
730.22	264.65
730.55	264.18
730.89	263.77
731.22	263.30
731.55	262.84
731.88	262.38
732.21	261.93
732.54	261.47
732.87	261.02
733.20	260.58
733.53	260.16
733.86	259.83
734.19	259.42
734.52	259.05
734.85	258.78
735.18	258.34
735.51	258.00
735.84	257.65
736.17	257.31
736.50	256.92
736.83	256.74
737.16	256.44
737.49	256.11
737.82	255.74
738.15	255.45
738.48	255.14
738.81	254.83
739.14	254.52
739.47	254.28
739.80	253.98
740.13	253.75
740.46	253.44
740.79	253.10
741.12	252.77
741.45	252.43
741.78	252.05
742.11	251.82
742.44	251.49
742.77	251.24
743.10	250.95
743.43	250.66
743.75	250.25
744.08	250.10
744.41	249.85
744.74	249.60
745.07	249.32
745.40	249.07
745.73	248.85
746.06	248.59
746.39	248.33
746.71	248.07
747.04	247.76
747.37	247.51
747.70	247.27
748.03	247.04
748.36	246.87
748.68	246.66
749.01	246.42
749.34	246.25
749.67	245.98
750.00	245.78
750.33	245.64
750.65	245.43
750.98	245.06
751.31	244.83
751.64	244.61
751.97	244.41
752.29	244.21
752.62	243.94
752.95	243.76
753.28	243.54
753.60	243.38
753.93	243.20
754.26	242.99
754.59	242.74
754.91	242.56
755.24	242.31
755.57	242.12
755.90	241.89
756.22	241.67
756.55	241.48
756.88	241.29
757.20	241.07
757.53	240.88
757.86	240.73
758.19	240.60
758.51	240.43
758.84	240.23
759.17	240.06
759.49	239.92
759.82	239.77
760.15	239.63
760.47	239.42
760.80	239.24
761.13	239.10
761.45	238.96
761.78	238.76
762.11	238.62
762.43	238.44
762.76	238.33
763.08	238.20
763.41	238.08
763.74	237.91
764.06	237.69
764.39	237.52
764.71	237.37
765.04	237.18
765.37	237.00
765.69	236.87
766.02	236.70
766.34	236.56
766.67	236.39
767.00	236.25
767.32	236.16
767.65	236.11
767.97	235.98
768.30	235.88
768.62	235.79
768.95	235.64
769.27	235.51
769.60	235.38
769.92	235.25
770.25	235.12
770.57	235.02
770.90	234.94
771.22	234.85
771.55	234.75
771.87	234.67
772.20	234.58
772.52	234.56
772.85	234.60
773.17	234.50
773.50	234.40
773.82	234.33
774.15	234.22
774.47	234.06
774.80	233.96
775.12	233.88
775.45	233.81
775.77	233.77
776.09	233.72
776.42	233.65
776.74	233.60
777.07	233.52
777.39	233.44
777.72	233.37
778.04	233.31
778.36	233.24
778.69	233.19
779.01	233.15
779.33	233.03
779.66	232.84
779.98	232.77
780.31	232.71
780.63	232.66
780.95	232.62
781.28	232.56
781.60	232.55
781.92	232.50
782.25	232.46
782.57	232.39
782.89	232.37
783.22	232.30
783.54	232.22
783.86	232.18
784.19	232.14
784.51	232.13
784.83	232.07
785.16	232.00
785.48	231.96
785.80	231.93
786.12	231.86
786.45	231.83
786.77	231.81
787.09	231.76
787.42	231.68
787.74	231.64
788.06	231.61
788.38	231.54
788.71	231.49
789.03	231.44
789.35	231.42
789.67	231.35
789.99	231.31
790.32	231.26
790.64	231.26
790.96	231.32
791.28	231.27
791.61	231.24
791.93	231.25
792.25	231.18
792.57	231.18
792.89	231.13
793.21	231.09
793.54	231.05
793.86	231.05
794.18	231.03
794.50	230.96
794.82	230.90
795.14	230.89
795.47	230.88
795.79	230.81
796.11	230.74
796.43	230.69
796.75	230.69
797.07	230.70
797.39	230.63
797.71	230.51
798.04	230.46
798.36	230.41
798.68	230.35
799.00	230.34
799.32	230.27
799.64	230.29
799.96	230.29
800.28	230.27
800.60	230.20
800.92	230.17
801.24	230.17
801.56	230.17
801.89	230.13
802.21	230.12
802.53	230.07
802.85	230.05
803.17	230.09
803.49	230.03
803.81	229.93
804.13	229.88
804.45	229.85
804.77	229.83
805.09	229.82
805.41	229.78
805.73	229.74
806.05	229.70
806.37	229.62
806.69	229.55
807.01	229.50
807.33	229.48
807.65	229.40
807.97	229.39
808.28	229.35
808.60	229.29
808.92	229.21
809.24	229.24
809.56	229.25
809.88	229.13
810.20	229.11
810.52	229.11
810.84	229.05
811.16	229.00
811.48	228.96
811.80	228.93
812.12	228.88
812.43	228.88
812.75	228.84
813.07	228.83
813.39	228.81
813.71	228.77
814.03	228.74
814.35	228.75
814.67	228.70
814.98	228.66
815.30	228.67
815.62	228.64
815.94	228.56
816.26	228.57
816.58	228.52
816.89	228.52
817.21	228.50
817.53	228.46
817.85	228.44
818.17	228.40
818.48	228.36
818.80	228.40
819.12	228.37
819.44	228.32
819.76	228.28
820.07	228.25
820.39	228.26
820.71	228.25
821.03	228.23
821.34	228.22
821.66	228.25
821.98	228.25
822.30	228.21
822.61	228.26
822.93	228.19
823.25	228.23
823.57	228.20
823.88	228.23
824.20	228.26
824.52	228.29
824.83	228.28
825.15	228.23
825.47	228.20
825.79	228.19
826.10	228.23
826.42	228.23
826.74	228.25
827.05	228.25
827.37	228.24
827.69	228.25
828.00	228.22
828.32	228.22
828.64	228.18
828.95	228.27
829.27	228.25
829.58	228.28
829.90	228.27
830.22	228.28
830.53	228.26
830.85	228.26
831.17	228.21
831.48	228.23
831.80	228.27
832.11	228.27
832.43	228.25
832.75	228.22
833.06	228.30
833.38	228.28
833.69	228.24
834.01	228.24
834.32	228.22
834.64	228.20
834.96	228.20
835.27	228.22
835.59	228.19
835.90	228.13
836.22	228.09
836.53	228.08
836.85	228.08
837.16	228.16
837.48	228.16
837.79	228.18
838.11	228.17
838.42	228.16
838.74	228.17
839.05	228.16
839.37	228.16
839.68	228.08
840.00	228.06
840.31	228.09
840.63	228.07
840.94	228.03
841.26	228.04
841.57	227.97
841.88	227.94
842.20	227.89
842.51	227.89
842.83	227.89
843.14	227.95
843.46	227.93
843.77	227.88
844.08	227.83
844.40	227.81
844.71	227.77
845.03	227.74
845.34	227.72
845.65	227.71
845.97	227.71
846.28	227.69
846.60	227.67
846.91	227.62
847.22	227.62
847.54	227.64
847.85	227.60
848.16	227.59
848.48	227.57
848.79	227.60
849.10	227.60
849.42	227.57
849.73	227.47
850.04	227.45
850.36	227.35
850.67	227.37
850.98	227.37
851.30	227.38
851.61	227.38
851.92	227.37
852.23	227.36
852.55	227.31
852.86	227.31
853.17	227.36
853.49	227.37
853.80	227.36
854.11	227.37
854.42	227.41
854.74	227.41
855.05	227.41
855.36	227.36
855.67	227.34
855.99	227.37
856.30	227.47
856.61	227.44
856.92	227.49
857.23	227.47
857.55	227.45
857.86	227.43
858.17	227.43
858.48	227.43
858.79	227.41
859.11	227.41
859.42	227.40
859.73	227.33
860.04	227.35
860.35	227.33
860.66	227.31
860.98	227.31
861.29	227.32
861.60	227.34
861.91	227.37
862.22	227.39
862.53	227.35
862.84	227.27
863.16	227.31
863.47	227.31
863.78	227.32
864.09	227.36
864.40	227.39
864.71	227.41
865.02	227.38
865.33	227.40
865.64	227.40
865.95	227.43
866.27	227.51
866.58	227.49
866.89	227.52
867.20	227.52
867.51	227.53
867.82	227.52
868.13	227.52
868.44	227.54
868.75	227.54
869.06	227.60
869.37	227.56
869.68	227.52
869.99	227.50
870.30	227.52
870.61	227.52
870.92	227.52
871.23	227.51
871.54	227.55
871.85	227.59
872.16	227.57
872.47	227.56
872.78	227.47
873.09	227.53
873.40	227.52
873.71	227.52
874.02	227.52
874.33	227.52
874.64	227.52
874.95	227.50
875.26	227.49
875.56	227.47
875.87	227.52
876.18	227.53
876.49	227.64
876.80	227.61
877.11	227.59
877.42	227.59
877.73	227.60
878.04	227.59
878.35	227.55
878.66	227.56
878.96	227.53
879.27	227.55
879.58	227.49
879.89	227.49
880.20	227.51
880.51	227.52
880.82	227.53
881.12	227.49
881.43	227.46
881.74	227.42
882.05	227.41
882.36	227.39
882.67	227.38
882.97	227.25
883.28	227.23
883.59	227.23
883.90	227.20
884.21	227.18
884.51	227.17
884.82	227.17
885.13	227.17
885.44	227.18
885.74	227.17
886.05	227.15
886.36	227.15
886.67	227.09
886.98	227.10
887.28	227.09
887.59	227.10
887.90	227.11
888.20	227.13
888.51	227.14
888.82	227.14
889.13	227.16
889.43	227.23
889.74	227.23
890.05	227.20
890.35	227.19
890.66	227.18
890.97	227.15
891.28	227.10
891.58	227.07
891.89	227.10
892.20	227.06
892.50	227.06
892.81	227.03
893.12	227.02
893.42	226.96
893.73	226.94
894.04	226.92
894.34	226.93
894.65	226.90
894.95	226.89
895.26	226.84
895.57	226.86
895.87	226.79
896.18	226.78
896.48	226.76
896.79	226.76
897.10	226.78
897.40	226.80
897.71	226.81
898.01	226.81
898.32	226.79
898.63	226.83
898.93	226.82
899.24	226.81
899.54	226.83
899.85	226.83
900.15	226.86
900.46	226.89
900.76	226.89
901.07	226.88
901.38	226.88
901.68	226.89
901.99	226.84
902.29	226.87
902.60	226.85
902.90	226.87
903.21	226.88
903.51	226.86
903.82	226.87
904.12	226.89
904.43	226.91
904.73	226.91
905.03	226.90
905.34	227.00
905.64	227.01
905.95	227.04
906.25	227.05
906.56	227.05
906.86	227.03
907.17	227.04
907.47	227.07
907.77	227.06
908.08	227.08
908.38	227.08
908.69	227.07
908.99	227.10
909.30	227.08
909.60	227.05
909.90	227.08
910.21	227.07
910.51	227.04
910.81	227.05
911.12	227.10
911.42	227.10
911.73	227.01
912.03	227.02
912.33	227.01
912.64	227.01
912.94	226.98
913.24	226.99
913.55	226.96
913.85	226.94
914.15	226.96
914.46	226.95
914.76	226.96
915.06	226.96
915.37	226.94
915.67	226.96
915.97	227.01
916.27	226.98
916.58	226.95
916.88	226.96
917.18	226.94
917.49	226.96
917.79	226.97
918.09	226.99
918.39	227.02
918.70	226.97
919.00	226.94
919.30	226.99
919.60	226.93
919.91	226.93
920.21	226.94
920.51	226.90
920.81	226.88
921.12	226.86
921.42	226.87
921.72	226.89
922.02	226.89
922.32	226.86
922.63	226.88
922.93	226.96
923.23	226.93
923.53	226.91
923.83	226.83
924.13	226.79
924.44	226.80
924.74	226.82
925.04	226.84
925.34	226.82
925.64	226.77
925.94	226.81
926.24	226.81
926.55	226.81
926.85	226.84
927.15	226.83
927.45	226.85
927.75	226.85
928.05	226.84
928.35	226.82
928.65	226.85
928.95	226.83
929.26	226.76
929.56	226.79
929.86	226.80
930.16	226.82
930.46	226.80
930.76	226.79
931.06	226.73
931.36	226.72
931.66	226.77
931.96	226.78
932.26	226.78
932.56	226.81
932.86	226.78
933.16	226.78
933.46	226.78
933.76	226.76
934.06	226.73
934.36	226.76
934.66	226.76
934.96	226.73
935.26	226.71
935.56	226.74
935.86	226.71
936.16	226.70
936.46	226.69
936.76	226.71
937.06	226.68
937.36	226.68
937.66	226.71
937.96	226.71
938.26	226.69
938.56	226.69
938.86	226.66
939.16	226.70
939.46	226.69
939.76	226.73
940.06	226.73
940.35	226.75
940.65	226.72
940.95	226.71
941.25	226.71
941.55	226.71
941.85	226.71
942.15	226.75
942.45	226.80
942.75	226.82
943.04	226.84
943.34	226.87
943.64	226.88
943.94	226.85
944.24	226.82
944.54	226.85
944.84	226.84
945.13	226.83
945.43	226.83
945.73	226.84
946.03	226.79
946.33	226.81
946.62	226.79
946.92	226.77
947.22	226.81
947.52	226.80
947.82	226.80
948.11	226.78
948.41	226.77
948.71	226.76
949.01	226.77
949.31	226.75
949.60	226.76
949.90	226.75
950.20	226.75
950.50	226.78
950.79	226.75
951.09	226.77
951.39	226.78
951.69	226.77
951.98	226.78
952.28	226.80
952.58	226.78
952.87	226.77
953.17	226.77
953.47	226.74
953.76	226.72
954.06	226.71
954.36	226.69
954.66	226.67
954.95	226.66
955.25	226.65
955.55	226.66
955.84	226.64
956.14	226.66
956.44	226.65
956.73	226.63
957.03	226.65
957.32	226.64
957.62	226.64
957.92	226.67
958.21	226.69
958.51	226.80
958.81	226.81
959.10	226.85
959.40	226.90
959.69	226.95
959.99	227.00
960.29	227.02
960.58	227.03
960.88	227.07
961.17	227.08
961.47	227.07
961.76	227.06
962.06	227.05
962.36	227.05
962.65	227.06
962.95	227.06
963.24	227.02
963.54	227.02
963.83	227.02
964.13	226.97
964.42	226.90
964.72	226.80
965.01	226.78
965.31	226.76
965.60	226.74
965.90	226.74
966.19	226.70
966.49	226.73
966.78	226.72
967.08	226.73
967.37	226.71
967.67	226.70
967.96	226.69
968.26	226.70
968.55	226.72
968.85	226.72
969.14	226.73
969.43	226.73
969.73	226.71
970.02	226.70
970.32	226.70
970.61	226.73
970.91	226.71
971.20	226.71
971.49	226.67
971.79	226.67
972.08	226.64
972.38	226.62
972.67	226.58
972.96	226.58
973.26	226.55
973.55	226.60
973.85	226.57
974.14	226.57
974.43	226.56
974.73	226.51
975.02	226.48
975.31	226.48
975.61	226.44
975.90	226.44
976.19	226.43
976.49	226.43
976.78	226.42
977.07	226.42
977.37	226.42
977.66	226.45
977.95	226.42
978.24	226.44
978.54	226.49
978.83	226.49
979.12	226.49
979.42	226.48
979.71	226.44
980.00	226.47
980.29	226.48
980.59	226.49
980.88	226.51
981.17	226.55
981.46	226.54
981.76	226.58
982.05	226.62
982.34	226.62
982.63	226.63
982.93	226.60
983.22	226.65
983.51	226.66
983.80	226.65
984.09	226.66
984.39	226.64
984.68	226.64
984.97	226.65
985.26	226.64
985.55	226.70
985.85	226.69
986.14	226.70
986.43	226.67
986.72	226.64
987.01	226.62
987.30	226.59
987.59	226.61
987.89	226.61
988.18	226.56
988.47	226.57
988.76	226.55
989.05	226.59
989.34	226.56
989.63	226.58
989.92	226.59
990.22	226.59
990.51	226.59
990.80	226.55
991.09	226.59
991.38	226.58
991.67	226.54
991.96	226.50
992.25	226.53
992.54	226.53
992.83	226.56
993.12	226.55
993.41	226.58
993.70	226.61
993.99	226.61
994.28	226.64
994.58	226.66
994.87	226.66
995.16	226.66
995.45	226.62
995.74	226.56
996.03	226.58
996.32	226.61
996.61	226.62
996.90	226.64
997.19	226.62
997.48	226.63
997.77	226.63
998.06	226.67
998.34	226.62
998.63	226.59
998.92	226.60
999.21	226.61
999.50	226.61
999.79	226.57
1000.08	226.59
1000.37	226.57
1000.66	226.56
1000.95	226.60
1001.24	226.59
1001.53	226.63
1001.82	226.65
1002.11	226.64
1002.40	226.62
1002.68	226.62
1002.97	226.70
1003.26	226.68
1003.55	226.69
1003.84	226.73
1004.13	226.75
1004.42	226.78
1004.71	226.82
1004.99	226.79
1005.28	226.83
1005.57	226.83
1005.86	226.82
1006.15	226.81
1006.44	226.81
1006.72	226.81
1007.01	226.80
1007.30	226.81
1007.59	226.83
1007.88	226.82
1008.17	226.82
1008.45	226.82
1008.74	226.82
1009.03	226.79
1009.32	226.80
1009.60	226.81
1009.89	226.77
1010.18	226.74
1010.47	226.72
1010.76	226.69
1011.04	226.71
1011.33	226.79
1011.62	226.80
1011.91	226.81
1012.19	226.83
1012.48	226.84
1012.77	226.82
1013.05	226.87
1013.34	226.85
1013.63	226.82
1013.92	226.84
1014.20	226.82
1014.49	226.80
1014.78	226.78
1015.06	226.74
1015.35	226.73
1015.64	226.72
1015.92	226.74
1016.21	226.76
1016.50	226.80
1016.78	226.82
1017.07	226.85
1017.36	226.75
1017.64	226.71
1017.93	226.72
1018.22	226.68
1018.50	226.70
1018.79	226.71
1019.08	226.67
1019.36	226.71
1019.65	226.72
1019.93	226.74
1020.22	226.77
1020.51	226.84
1020.79	226.83
1021.08	226.23
1021.36	226.80
1021.65	226.71
1021.94	227.16
1022.22	226.93
1022.51	226.75
1022.79	227.30
1023.08	227.05
1023.36	227.80
1023.65	226.27
>>>>>End Processed Spectral Data<<<<<
