SpectraSuite Data File
++++++++++++++++++++++++++++++++++++
Date: Fri Feb 01 17:30:18 EST 2013
User: group
Dark Spectrum Present: No
Reference Spectrum Present: No
Number of Sampled Component Spectra: 1
Spectrometers: USB2E7196
Integration Time (usec): 35000 (USB2E7196)
Spectra Averaged: 100 (USB2E7196)
Boxcar Smoothing: 10 (USB2E7196)
Correct for Electrical Dark: No (USB2E7196)
Strobe/Lamp Enabled: No (USB2E7196)
Correct for Detector Non-linearity: No (USB2E7196)
Correct for Stray Light: No (USB2E7196)
Number of Pixels in Processed Spectrum: 2048
>>>>>Begin Processed Spectral Data<<<<<
339.09	0.00
339.48	212.31
339.86	214.40
340.24	215.57
340.63	216.74
341.01	219.70
341.39	219.88
341.78	220.54
342.16	222.69
342.54	222.78
342.93	211.28
343.31	221.94
343.69	222.51
344.07	222.97
344.46	223.39
344.84	223.78
345.22	224.04
345.60	224.28
345.99	224.51
346.37	224.63
346.75	224.75
347.13	224.80
347.52	224.82
347.90	224.93
348.28	224.94
348.66	225.02
349.05	225.03
349.43	225.07
349.81	225.11
350.19	225.13
350.57	225.23
350.96	225.29
351.34	225.40
351.72	225.46
352.10	225.58
352.48	225.66
352.87	225.73
353.25	225.79
353.63	225.86
354.01	225.94
354.39	226.03
354.77	226.09
355.15	226.24
355.54	226.28
355.92	226.29
356.30	226.36
356.68	226.51
357.06	226.58
357.44	226.61
357.82	226.70
358.20	226.78
358.58	226.85
358.97	226.93
359.35	227.02
359.73	227.10
360.11	227.16
360.49	227.21
360.87	227.28
361.25	227.34
361.63	227.43
362.01	227.49
362.39	227.50
362.77	227.56
363.15	227.56
363.53	227.61
363.91	227.64
364.29	227.69
364.67	227.59
365.05	227.63
365.43	227.67
365.81	227.70
366.19	227.75
366.57	227.77
366.95	227.74
367.33	227.73
367.71	227.71
368.09	227.72
368.47	227.71
368.85	227.67
369.23	227.66
369.61	227.59
369.99	227.55
370.37	227.56
370.75	227.53
371.13	227.49
371.51	227.44
371.89	227.40
372.27	227.33
372.65	227.27
373.03	227.19
373.41	227.15
373.78	227.09
374.16	227.03
374.54	226.92
374.92	226.85
375.30	226.76
375.68	226.69
376.06	226.63
376.44	226.55
376.82	226.50
377.19	226.43
377.57	226.37
377.95	226.27
378.33	226.15
378.71	226.01
379.09	225.91
379.47	225.86
379.84	225.78
380.22	225.73
380.60	225.67
380.98	225.62
381.36	225.54
381.73	225.46
382.11	225.38
382.49	225.35
382.87	225.31
383.25	225.26
383.62	225.30
384.00	225.21
384.38	225.16
384.76	225.11
385.13	225.12
385.51	225.06
385.89	224.99
386.27	224.95
386.64	224.94
387.02	224.87
387.40	224.81
387.78	224.78
388.15	224.73
388.53	224.71
388.91	224.67
389.29	224.60
389.66	224.59
390.04	224.53
390.42	224.47
390.79	224.44
391.17	224.40
391.55	224.25
391.92	224.26
392.30	224.25
392.68	224.19
393.05	224.16
393.43	224.18
393.81	224.20
394.18	224.21
394.56	224.25
394.94	224.31
395.31	224.32
395.69	224.36
396.06	224.43
396.44	224.44
396.82	224.44
397.19	224.54
397.57	224.53
397.95	224.62
398.32	224.66
398.70	224.72
399.07	224.80
399.45	224.88
399.82	224.90
400.20	224.95
400.58	225.03
400.95	225.06
401.33	225.13
401.70	225.26
402.08	225.38
402.45	225.44
402.83	225.54
403.20	225.65
403.58	225.70
403.95	225.76
404.33	225.91
404.71	226.07
405.08	226.24
405.46	226.35
405.83	226.51
406.21	226.65
406.58	226.78
406.96	226.93
407.33	227.11
407.70	227.35
408.08	227.62
408.45	227.86
408.83	228.11
409.20	228.31
409.58	228.53
409.95	228.77
410.33	229.07
410.70	229.31
411.08	229.60
411.45	229.96
411.82	230.34
412.20	230.68
412.57	231.10
412.95	231.41
413.32	231.87
413.69	232.25
414.07	232.70
414.44	233.22
414.82	233.69
415.19	234.28
415.56	234.82
415.94	235.39
416.31	236.02
416.68	236.66
417.06	237.43
417.43	238.11
417.81	238.92
418.18	239.69
418.55	240.60
418.93	241.53
419.30	242.47
419.67	243.40
420.04	244.39
420.42	245.42
420.79	246.65
421.16	247.88
421.54	249.13
421.91	250.40
422.28	251.72
422.66	253.16
423.03	254.51
423.40	255.93
423.77	257.40
424.15	258.91
424.52	260.46
424.89	262.11
425.26	263.74
425.64	265.21
426.01	266.90
426.38	268.58
426.75	270.30
427.13	272.08
427.50	273.98
427.87	275.90
428.24	277.87
428.61	279.66
428.99	281.67
429.36	283.83
429.73	285.94
430.10	288.01
430.47	290.17
430.85	292.34
431.22	294.64
431.59	297.11
431.96	299.42
432.33	302.01
432.70	304.49
433.08	307.40
433.45	310.19
433.82	312.86
434.19	315.87
434.56	318.81
434.93	321.56
435.30	324.28
435.68	327.32
436.05	330.27
436.42	333.21
436.79	335.80
437.16	338.64
437.53	341.59
437.90	344.47
438.27	347.31
438.64	350.25
439.01	352.92
439.38	355.27
439.75	357.55
440.13	360.15
440.50	362.56
440.87	364.47
441.24	366.45
441.61	368.75
441.98	370.30
442.35	372.20
442.72	374.10
443.09	375.94
443.46	376.98
443.83	377.53
444.20	378.08
444.57	379.00
444.94	379.31
445.31	379.72
445.68	380.12
446.05	380.22
446.42	379.85
446.79	379.46
447.16	379.02
447.53	378.71
447.90	377.50
448.27	376.32
448.64	374.71
449.01	373.59
449.37	371.56
449.74	369.65
450.11	367.29
450.48	364.77
450.85	362.23
451.22	360.04
451.59	357.99
451.96	355.97
452.33	353.23
452.70	350.81
453.07	347.90
453.43	344.91
453.80	342.03
454.17	339.26
454.54	336.66
454.91	333.83
455.28	331.01
455.65	328.49
456.02	325.94
456.38	323.72
456.75	320.95
457.12	318.61
457.49	316.29
457.86	314.05
458.23	312.12
458.59	309.98
458.96	307.78
459.33	305.87
459.70	303.90
460.07	302.38
460.43	300.57
460.80	298.86
461.17	297.40
461.54	295.88
461.91	294.38
462.27	292.85
462.64	291.51
463.01	290.13
463.38	288.75
463.74	287.32
464.11	286.11
464.48	285.06
464.85	283.87
465.21	282.94
465.58	281.98
465.95	280.85
466.32	279.93
466.68	279.00
467.05	278.06
467.42	277.17
467.78	276.17
468.15	275.22
468.52	274.54
468.88	273.62
469.25	272.79
469.62	272.14
469.98	271.46
470.35	270.85
470.72	270.21
471.08	269.54
471.45	269.01
471.82	268.45
472.18	267.84
472.55	267.41
472.92	266.87
473.28	266.39
473.65	265.94
474.02	265.45
474.38	265.05
474.75	264.72
475.11	264.39
475.48	264.13
475.85	263.93
476.21	263.67
476.58	263.48
476.94	263.31
477.31	263.14
477.67	262.97
478.04	262.83
478.41	262.78
478.77	262.81
479.14	262.71
479.50	262.71
479.87	262.78
480.23	262.86
480.60	262.91
480.96	263.02
481.33	263.19
481.69	263.45
482.06	263.64
482.42	263.81
482.79	264.03
483.15	264.33
483.52	264.71
483.88	265.07
484.25	265.47
484.61	265.91
484.98	266.36
485.34	266.95
485.71	267.54
486.07	268.14
486.44	268.70
486.80	269.43
487.17	270.14
487.53	270.94
487.90	271.76
488.26	272.72
488.62	273.65
488.99	274.63
489.35	275.64
489.72	276.77
490.08	277.98
490.44	279.21
490.81	280.55
491.17	281.87
491.54	283.32
491.90	284.82
492.26	286.44
492.63	288.18
492.99	289.93
493.36	291.82
493.72	293.86
494.08	295.93
494.45	298.15
494.81	300.54
495.17	302.93
495.54	305.49
495.90	308.14
496.26	310.93
496.63	313.82
496.99	316.93
497.35	320.13
497.72	323.53
498.08	326.99
498.44	330.63
498.80	334.54
499.17	338.52
499.53	342.64
499.89	346.96
500.26	351.42
500.62	356.02
500.98	360.90
501.34	365.91
501.71	371.20
502.07	376.54
502.43	382.08
502.79	387.84
503.16	393.85
503.52	400.01
503.88	406.36
504.24	412.92
504.60	419.61
504.97	426.65
505.33	433.84
505.69	441.48
506.05	449.06
506.41	456.77
506.78	464.82
507.14	473.10
507.50	481.67
507.86	490.47
508.22	499.55
508.59	508.59
508.95	517.97
509.31	527.60
509.67	537.56
510.03	547.60
510.39	557.86
510.75	568.31
511.12	578.97
511.48	590.00
511.84	601.21
512.20	612.52
512.56	624.13
512.92	636.00
513.28	648.02
513.64	660.22
514.00	672.70
514.37	685.29
514.73	698.03
515.09	710.62
515.45	723.60
515.81	736.83
516.17	750.39
516.53	764.14
516.89	777.92
517.25	791.65
517.61	805.71
517.97	819.84
518.33	833.87
518.69	848.24
519.05	862.71
519.41	877.44
519.77	892.34
520.13	907.40
520.49	922.44
520.85	937.28
521.21	952.57
521.57	968.21
521.93	983.55
522.29	999.42
522.65	1015.29
523.01	1030.97
523.37	1046.51
523.73	1062.11
524.09	1077.69
524.45	1093.46
524.81	1109.68
525.17	1125.91
525.53	1142.18
525.89	1158.60
526.25	1174.99
526.61	1191.00
526.97	1207.27
527.33	1223.36
527.68	1239.41
528.04	1255.34
528.40	1271.52
528.76	1288.01
529.12	1304.16
529.48	1320.62
529.84	1336.23
530.20	1352.32
530.56	1368.80
530.91	1385.70
531.27	1402.12
531.63	1418.17
531.99	1434.31
532.35	1449.83
532.71	1465.34
533.07	1481.25
533.42	1496.70
533.78	1512.30
534.14	1528.15
534.50	1543.13
534.86	1558.71
535.21	1573.54
535.57	1589.07
535.93	1604.23
536.29	1618.79
536.65	1633.52
537.00	1647.71
537.36	1662.87
537.72	1677.13
538.08	1691.30
538.44	1704.81
538.79	1718.50
539.15	1731.80
539.51	1745.35
539.87	1759.45
540.22	1773.02
540.58	1786.48
540.94	1799.51
541.29	1812.13
541.65	1824.77
542.01	1837.72
542.37	1849.91
542.72	1862.26
543.08	1874.08
543.44	1886.38
543.79	1897.46
544.15	1908.53
544.51	1920.23
544.87	1930.91
545.22	1941.80
545.58	1951.98
545.94	1961.77
546.29	1971.58
546.65	1981.71
547.01	1990.92
547.36	1999.77
547.72	2008.17
548.07	2016.37
548.43	2024.78
548.79	2033.01
549.14	2040.68
549.50	2048.24
549.86	2056.00
550.21	2063.41
550.57	2070.67
550.92	2077.47
551.28	2084.77
551.64	2091.98
551.99	2098.69
552.35	2105.17
552.70	2111.61
553.06	2118.03
553.41	2124.71
553.77	2131.01
554.13	2137.14
554.48	2143.58
554.84	2149.45
555.19	2155.08
555.55	2160.58
555.90	2165.50
556.26	2170.75
556.61	2175.67
556.97	2180.54
557.32	2185.05
557.68	2189.65
558.03	2194.33
558.39	2198.28
558.74	2203.20
559.10	2207.27
559.45	2211.18
559.81	2215.79
560.16	2219.87
560.52	2223.35
560.87	2226.96
561.23	2229.95
561.58	2233.21
561.94	2236.14
562.29	2238.56
562.64	2241.73
563.00	2244.58
563.35	2248.39
563.71	2251.86
564.06	2255.46
564.42	2258.45
564.77	2261.54
565.12	2264.29
565.48	2266.69
565.83	2269.21
566.19	2271.03
566.54	2272.32
566.89	2274.09
567.25	2275.15
567.60	2276.80
567.96	2278.93
568.31	2280.28
568.66	2281.90
569.02	2283.00
569.37	2283.75
569.72	2285.28
570.08	2285.87
570.43	2286.29
570.78	2286.15
571.14	2285.05
571.49	2284.00
571.84	2284.10
572.20	2283.32
572.55	2282.54
572.90	2281.12
573.26	2279.94
573.61	2278.41
573.96	2277.24
574.31	2274.64
574.67	2272.10
575.02	2268.92
575.37	2265.82
575.72	2262.46
576.08	2259.38
576.43	2256.43
576.78	2253.38
577.13	2250.37
577.49	2247.39
577.84	2244.33
578.19	2240.89
578.54	2237.78
578.90	2234.09
579.25	2228.92
579.60	2224.40
579.95	2219.75
580.30	2215.16
580.66	2210.39
581.01	2205.77
581.36	2201.13
581.71	2197.42
582.06	2193.37
582.42	2189.22
582.77	2184.43
583.12	2180.33
583.47	2176.09
583.82	2171.52
584.17	2166.49
584.53	2161.35
584.88	2156.13
585.23	2150.82
585.58	2145.64
585.93	2140.38
586.28	2135.77
586.63	2131.16
586.98	2126.17
587.34	2121.80
587.69	2117.12
588.04	2112.25
588.39	2107.02
588.74	2100.80
589.09	2094.92
589.44	2088.37
589.79	2082.29
590.14	2076.81
590.49	2070.41
590.84	2064.03
591.19	2058.33
591.54	2052.13
591.89	2045.20
592.25	2038.74
592.60	2031.62
592.95	2024.33
593.30	2017.10
593.65	2009.78
594.00	2002.85
594.35	1995.88
594.70	1987.92
595.05	1981.15
595.40	1974.06
595.75	1966.66
596.10	1960.69
596.45	1954.08
596.80	1947.99
597.15	1941.83
597.50	1935.15
597.85	1928.69
598.19	1922.28
598.54	1915.38
598.89	1908.75
599.24	1902.88
599.59	1896.55
599.94	1890.35
600.29	1884.18
600.64	1877.74
600.99	1870.41
601.34	1863.75
601.69	1856.81
602.04	1850.13
602.39	1842.67
602.74	1835.85
603.08	1829.36
603.43	1822.67
603.78	1815.46
604.13	1808.43
604.48	1801.36
604.83	1794.48
605.18	1787.73
605.53	1780.00
605.87	1771.89
606.22	1764.66
606.57	1756.71
606.92	1749.14
607.27	1742.14
607.62	1735.20
607.96	1728.11
608.31	1721.77
608.66	1714.04
609.01	1706.60
609.36	1699.08
609.70	1691.20
610.05	1683.21
610.40	1675.49
610.75	1667.23
611.10	1659.44
611.44	1650.84
611.79	1642.67
612.14	1634.01
612.49	1624.80
612.83	1616.18
613.18	1608.06
613.53	1600.08
613.88	1591.59
614.22	1583.27
614.57	1574.48
614.92	1566.40
615.27	1558.82
615.61	1550.37
615.96	1542.23
616.31	1534.35
616.65	1526.94
617.00	1519.24
617.35	1511.37
617.70	1502.96
618.04	1494.30
618.39	1485.96
618.74	1478.53
619.08	1470.20
619.43	1462.53
619.78	1455.45
620.12	1448.36
620.47	1440.71
620.82	1432.27
621.16	1424.62
621.51	1416.86
621.85	1409.23
622.20	1400.61
622.55	1392.05
622.89	1383.98
623.24	1376.28
623.59	1368.74
623.93	1361.04
624.28	1353.70
624.62	1346.24
624.97	1338.94
625.32	1332.06
625.66	1325.02
626.01	1317.57
626.35	1310.14
626.70	1302.24
627.04	1294.54
627.39	1286.59
627.73	1278.96
628.08	1272.05
628.43	1264.77
628.77	1257.52
629.12	1249.92
629.46	1242.78
629.81	1235.14
630.15	1227.79
630.50	1220.37
630.84	1212.25
631.19	1204.18
631.53	1196.58
631.88	1188.89
632.22	1181.24
632.57	1173.85
632.91	1166.23
633.26	1158.72
633.60	1151.13
633.95	1143.87
634.29	1136.62
634.64	1129.78
634.98	1122.49
635.32	1115.23
635.67	1108.51
636.01	1101.75
636.36	1094.88
636.70	1088.22
637.05	1081.69
637.39	1075.29
637.73	1068.80
638.08	1062.81
638.42	1056.77
638.77	1050.23
639.11	1043.61
639.45	1037.12
639.80	1030.42
640.14	1024.00
640.49	1017.53
640.83	1011.27
641.17	1005.05
641.52	998.80
641.86	992.31
642.20	986.43
642.55	980.03
642.89	973.56
643.23	966.89
643.58	961.10
643.92	954.78
644.26	948.82
644.61	942.57
644.95	936.51
645.29	929.94
645.64	923.21
645.98	916.94
646.32	910.92
646.66	904.97
647.01	899.17
647.35	893.43
647.69	887.52
648.04	881.88
648.38	876.01
648.72	870.00
649.06	863.97
649.41	857.95
649.75	852.01
650.09	846.08
650.43	840.26
650.78	834.07
651.12	828.12
651.46	822.33
651.80	816.72
652.14	811.23
652.49	805.86
652.83	800.69
653.17	795.03
653.51	789.41
653.85	783.87
654.20	778.24
654.54	772.15
654.88	766.37
655.22	760.47
655.56	754.71
655.90	749.17
656.25	743.99
656.59	738.70
656.93	733.58
657.27	728.38
657.61	722.94
657.95	717.79
658.29	712.73
658.64	707.40
658.98	701.94
659.32	696.47
659.66	691.25
660.00	685.98
660.34	681.00
660.68	675.96
661.02	670.85
661.36	666.13
661.70	661.65
662.05	657.30
662.39	652.92
662.73	648.51
663.07	644.19
663.41	639.60
663.75	635.09
664.09	630.49
664.43	626.02
664.77	621.92
665.11	617.70
665.45	613.56
665.79	609.43
666.13	605.37
666.47	601.19
666.81	596.99
667.15	592.77
667.49	588.78
667.83	584.95
668.17	581.06
668.51	576.97
668.85	572.96
669.19	569.04
669.53	565.23
669.87	561.40
670.21	557.63
670.55	554.00
670.89	550.50
671.23	547.04
671.57	543.50
671.91	539.99
672.25	536.43
672.58	532.88
672.92	529.41
673.26	526.17
673.60	523.01
673.94	519.91
674.28	517.06
674.62	514.06
674.96	511.00
675.30	508.16
675.64	505.28
675.97	502.47
676.31	499.59
676.65	496.63
676.99	493.83
677.33	490.96
677.67	488.17
678.01	485.18
678.34	482.21
678.68	479.36
679.02	476.48
679.36	473.67
679.70	470.91
680.04	468.15
680.37	465.27
680.71	462.49
681.05	459.85
681.39	457.02
681.73	454.39
682.06	451.83
682.40	449.25
682.74	446.60
683.08	443.98
683.42	441.37
683.75	438.85
684.09	436.26
684.43	433.80
684.77	431.24
685.10	428.83
685.44	426.54
685.78	424.21
686.12	421.89
686.45	419.58
686.79	417.27
687.13	415.07
687.46	412.88
687.80	410.68
688.14	408.37
688.48	406.35
688.81	404.12
689.15	401.92
689.49	399.70
689.82	397.63
690.16	395.49
690.50	393.51
690.83	391.58
691.17	389.57
691.51	387.59
691.84	385.78
692.18	383.88
692.52	381.91
692.85	379.92
693.19	378.06
693.52	376.23
693.86	374.35
694.20	372.55
694.53	370.74
694.87	368.88
695.21	367.11
695.54	365.21
695.88	363.37
696.21	361.57
696.55	359.89
696.88	358.19
697.22	356.48
697.56	354.77
697.89	353.10
698.23	351.50
698.56	349.87
698.90	348.27
699.23	346.59
699.57	345.00
699.90	343.41
700.24	341.82
700.58	340.25
700.91	338.75
701.25	337.27
701.58	335.91
701.92	334.49
702.25	333.13
702.59	331.76
702.92	330.42
703.26	329.14
703.59	327.81
703.93	326.58
704.26	325.33
704.60	324.05
704.93	322.78
705.26	321.47
705.60	320.25
705.93	319.06
706.27	318.02
706.60	316.92
706.94	315.83
707.27	314.68
707.61	313.65
707.94	312.62
708.27	311.51
708.61	310.36
708.94	309.34
709.28	308.32
709.61	307.33
709.94	306.35
710.28	305.33
710.61	304.32
710.95	303.27
711.28	302.39
711.61	301.41
711.95	300.45
712.28	299.54
712.61	298.58
712.95	297.60
713.28	296.68
713.61	295.77
713.95	294.88
714.28	294.00
714.61	293.08
714.95	292.22
715.28	291.39
715.61	290.51
715.95	289.68
716.28	288.84
716.61	287.99
716.95	287.19
717.28	286.42
717.61	285.69
717.94	284.92
718.28	284.09
718.61	283.40
718.94	282.68
719.27	282.02
719.61	281.36
719.94	280.66
720.27	279.95
720.60	279.30
720.94	278.72
721.27	278.14
721.60	277.56
721.93	276.92
722.27	276.32
722.60	275.79
722.93	275.22
723.26	274.67
723.59	274.15
723.93	273.58
724.26	273.01
724.59	272.43
724.92	271.90
725.25	271.40
725.59	270.89
725.92	270.38
726.25	269.86
726.58	269.33
726.91	268.83
727.24	268.33
727.57	267.83
727.91	267.28
728.24	266.81
728.57	266.32
728.90	265.87
729.23	265.36
729.56	264.92
729.89	264.40
730.22	263.90
730.55	263.45
730.89	263.02
731.22	262.60
731.55	262.16
731.88	261.71
732.21	261.27
732.54	260.83
732.87	260.40
733.20	259.96
733.53	259.57
733.86	259.19
734.19	258.77
734.52	258.38
734.85	258.07
735.18	257.64
735.51	257.27
735.84	256.91
736.17	256.57
736.50	256.15
736.83	255.92
737.16	255.57
737.49	255.20
737.82	254.84
738.15	254.46
738.48	254.10
738.81	253.72
739.14	253.37
739.47	253.01
739.80	252.70
740.13	252.40
740.46	252.09
740.79	251.75
741.12	251.50
741.45	251.19
741.78	250.81
742.11	250.52
742.44	250.15
742.77	249.82
743.10	249.52
743.43	249.24
743.75	248.83
744.08	248.70
744.41	248.42
744.74	248.13
745.07	247.87
745.40	247.63
745.73	247.41
746.06	247.11
746.39	246.87
746.71	246.58
747.04	246.32
747.37	246.01
747.70	245.77
748.03	245.47
748.36	245.22
748.68	244.93
749.01	244.65
749.34	244.45
749.67	244.21
750.00	243.98
750.33	243.79
750.65	243.56
750.98	243.20
751.31	242.97
751.64	242.76
751.97	242.62
752.29	242.37
752.62	242.13
752.95	241.93
753.28	241.69
753.60	241.46
753.93	241.24
754.26	241.05
754.59	240.82
754.91	240.58
755.24	240.39
755.57	240.26
755.90	240.09
756.22	239.87
756.55	239.64
756.88	239.44
757.20	239.20
757.53	239.01
757.86	238.82
758.19	238.66
758.51	238.50
758.84	238.23
759.17	238.06
759.49	237.89
759.82	237.78
760.15	237.65
760.47	237.51
760.80	237.34
761.13	237.23
761.45	237.09
761.78	236.97
762.11	236.80
762.43	236.63
762.76	236.48
763.08	236.35
763.41	236.25
763.74	236.10
764.06	235.98
764.39	235.82
764.71	235.67
765.04	235.51
765.37	235.35
765.69	235.25
766.02	235.11
766.34	234.98
766.67	234.78
767.00	234.68
767.32	234.59
767.65	234.52
767.97	234.37
768.30	234.27
768.62	234.15
768.95	234.04
769.27	233.92
769.60	233.82
769.92	233.70
770.25	233.58
770.57	233.45
770.90	233.34
771.22	233.24
771.55	233.14
771.87	233.05
772.20	232.97
772.52	232.95
772.85	232.95
773.17	232.88
773.50	232.80
773.82	232.65
774.15	232.52
774.47	232.35
774.80	232.25
775.12	232.11
775.45	232.01
775.77	231.92
776.09	231.81
776.42	231.73
776.74	231.68
777.07	231.58
777.39	231.50
777.72	231.45
778.04	231.40
778.36	231.37
778.69	231.27
779.01	231.20
779.33	231.03
779.66	230.87
779.98	230.76
780.31	230.71
780.63	230.69
780.95	230.63
781.28	230.59
781.60	230.52
781.92	230.47
782.25	230.42
782.57	230.38
782.89	230.33
783.22	230.27
783.54	230.22
783.86	230.20
784.19	230.14
784.51	230.09
784.83	230.02
785.16	229.95
785.48	229.91
785.80	229.87
786.12	229.84
786.45	229.80
786.77	229.79
787.09	229.71
787.42	229.64
787.74	229.62
788.06	229.60
788.38	229.59
788.71	229.60
789.03	229.57
789.35	229.53
789.67	229.49
789.99	229.47
790.32	229.39
790.64	229.36
790.96	229.39
791.28	229.32
791.61	229.28
791.93	229.25
792.25	229.24
792.57	229.29
792.89	229.20
793.21	229.15
793.54	229.10
793.86	229.08
794.18	229.03
794.50	228.97
794.82	228.93
795.14	228.91
795.47	228.85
795.79	228.82
796.11	228.79
796.43	228.75
796.75	228.74
797.07	228.71
797.39	228.65
797.71	228.58
798.04	228.55
798.36	228.54
798.68	228.47
799.00	228.42
799.32	228.33
799.64	228.34
799.96	228.34
800.28	228.33
800.60	228.28
800.92	228.26
801.24	228.25
801.56	228.23
801.89	228.16
802.21	228.16
802.53	228.11
802.85	228.10
803.17	228.10
803.49	228.04
803.81	228.02
804.13	228.02
804.45	227.96
804.77	227.95
805.09	227.92
805.41	227.91
805.73	227.89
806.05	227.83
806.37	227.79
806.69	227.74
807.01	227.71
807.33	227.69
807.65	227.63
807.97	227.66
808.28	227.61
808.60	227.55
808.92	227.48
809.24	227.54
809.56	227.50
809.88	227.45
810.20	227.41
810.52	227.38
810.84	227.31
811.16	227.25
811.48	227.22
811.80	227.23
812.12	227.19
812.43	227.19
812.75	227.16
813.07	227.14
813.39	227.12
813.71	227.11
814.03	227.09
814.35	227.09
814.67	227.03
814.98	226.98
815.30	226.97
815.62	226.95
815.94	226.83
816.26	226.85
816.58	226.83
816.89	226.84
817.21	226.82
817.53	226.81
817.85	226.81
818.17	226.77
818.48	226.71
818.80	226.69
819.12	226.63
819.44	226.60
819.76	226.57
820.07	226.57
820.39	226.52
820.71	226.53
821.03	226.48
821.34	226.45
821.66	226.46
821.98	226.46
822.30	226.46
822.61	226.51
822.93	226.42
823.25	226.41
823.57	226.38
823.88	226.36
824.20	226.35
824.52	226.35
824.83	226.38
825.15	226.37
825.47	226.37
825.79	226.39
826.10	226.38
826.42	226.36
826.74	226.35
827.05	226.32
827.37	226.30
827.69	226.33
828.00	226.31
828.32	226.30
828.64	226.28
828.95	226.32
829.27	226.31
829.58	226.33
829.90	226.35
830.22	226.34
830.53	226.34
830.85	226.34
831.17	226.29
831.48	226.24
831.80	226.22
832.11	226.19
832.43	226.16
832.75	226.15
833.06	226.18
833.38	226.14
833.69	226.14
834.01	226.13
834.32	226.10
834.64	226.08
834.96	226.08
835.27	226.04
835.59	225.95
835.90	225.89
836.22	225.83
836.53	225.81
836.85	225.77
837.16	225.88
837.48	225.84
837.79	225.87
838.11	225.87
838.42	225.83
838.74	225.85
839.05	225.81
839.37	225.80
839.68	225.76
840.00	225.75
840.31	225.75
840.63	225.74
840.94	225.71
841.26	225.67
841.57	225.68
841.88	225.71
842.20	225.71
842.51	225.71
842.83	225.75
843.14	225.83
843.46	225.84
843.77	225.74
844.08	225.75
844.40	225.72
844.71	225.72
845.03	225.72
845.34	225.68
845.65	225.72
845.97	225.72
846.28	225.69
846.60	225.68
846.91	225.66
847.22	225.67
847.54	225.72
847.85	225.75
848.16	225.73
848.48	225.69
848.79	225.71
849.10	225.73
849.42	225.70
849.73	225.60
850.04	225.57
850.36	225.55
850.67	225.54
850.98	225.56
851.30	225.55
851.61	225.53
851.92	225.53
852.23	225.55
852.55	225.51
852.86	225.52
853.17	225.52
853.49	225.54
853.80	225.51
854.11	225.49
854.42	225.48
854.74	225.42
855.05	225.44
855.36	225.41
855.67	225.42
855.99	225.40
856.30	225.51
856.61	225.50
856.92	225.46
857.23	225.46
857.55	225.42
857.86	225.42
858.17	225.43
858.48	225.42
858.79	225.36
859.11	225.37
859.42	225.37
859.73	225.35
860.04	225.37
860.35	225.34
860.66	225.32
860.98	225.35
861.29	225.39
861.60	225.38
861.91	225.41
862.22	225.38
862.53	225.39
862.84	225.25
863.16	225.29
863.47	225.30
863.78	225.26
864.09	225.25
864.40	225.27
864.71	225.28
865.02	225.32
865.33	225.32
865.64	225.29
865.95	225.26
866.27	225.33
866.58	225.30
866.89	225.34
867.20	225.30
867.51	225.25
867.82	225.25
868.13	225.28
868.44	225.25
868.75	225.25
869.06	225.26
869.37	225.28
869.68	225.24
869.99	225.26
870.30	225.31
870.61	225.32
870.92	225.30
871.23	225.30
871.54	225.30
871.85	225.35
872.16	225.40
872.47	225.42
872.78	225.39
873.09	225.39
873.40	225.40
873.71	225.45
874.02	225.46
874.33	225.45
874.64	225.41
874.95	225.44
875.26	225.44
875.56	225.43
875.87	225.44
876.18	225.46
876.49	225.55
876.80	225.51
877.11	225.51
877.42	225.53
877.73	225.53
878.04	225.48
878.35	225.45
878.66	225.43
878.96	225.42
879.27	225.39
879.58	225.41
879.89	225.39
880.20	225.38
880.51	225.39
880.82	225.40
881.12	225.41
881.43	225.38
881.74	225.36
882.05	225.35
882.36	225.35
882.67	225.34
882.97	225.25
883.28	225.23
883.59	225.21
883.90	225.20
884.21	225.21
884.51	225.22
884.82	225.22
885.13	225.20
885.44	225.21
885.74	225.22
886.05	225.15
886.36	225.17
886.67	225.12
886.98	225.15
887.28	225.15
887.59	225.16
887.90	225.14
888.20	225.12
888.51	225.18
888.82	225.15
889.13	225.17
889.43	225.24
889.74	225.26
890.05	225.28
890.35	225.29
890.66	225.27
890.97	225.23
891.28	225.19
891.58	225.19
891.89	225.19
892.20	225.15
892.50	225.18
892.81	225.14
893.12	225.13
893.42	225.07
893.73	225.06
894.04	225.04
894.34	225.07
894.65	225.05
894.95	224.99
895.26	225.02
895.57	225.04
895.87	224.94
896.18	224.96
896.48	224.94
896.79	224.94
897.10	224.95
897.40	224.98
897.71	225.01
898.01	225.02
898.32	225.03
898.63	225.05
898.93	225.04
899.24	225.03
899.54	225.06
899.85	225.07
900.15	225.10
900.46	225.11
900.76	225.11
901.07	225.12
901.38	225.13
901.68	225.12
901.99	225.07
902.29	225.10
902.60	225.10
902.90	225.10
903.21	225.11
903.51	225.08
903.82	225.09
904.12	225.11
904.43	225.13
904.73	225.10
905.03	225.10
905.34	225.22
905.64	225.25
905.95	225.24
906.25	225.23
906.56	225.22
906.86	225.20
907.17	225.19
907.47	225.20
907.77	225.14
908.08	225.15
908.38	225.17
908.69	225.13
908.99	225.15
909.30	225.16
909.60	225.14
909.90	225.15
910.21	225.16
910.51	225.16
910.81	225.14
911.12	225.13
911.42	225.15
911.73	225.02
912.03	225.04
912.33	225.06
912.64	225.08
912.94	225.06
913.24	225.04
913.55	225.03
913.85	225.01
914.15	225.06
914.46	225.08
914.76	225.07
915.06	225.13
915.37	225.07
915.67	225.04
915.97	225.03
916.27	225.04
916.58	225.02
916.88	225.01
917.18	225.03
917.49	225.11
917.79	225.11
918.09	225.11
918.39	225.12
918.70	225.09
919.00	225.07
919.30	225.12
919.60	225.11
919.91	225.09
920.21	225.09
920.51	225.04
920.81	225.02
921.12	225.03
921.42	224.98
921.72	225.00
922.02	225.03
922.32	225.06
922.63	225.04
922.93	225.06
923.23	225.05
923.53	225.02
923.83	224.91
924.13	224.93
924.44	224.92
924.74	224.90
925.04	224.97
925.34	224.94
925.64	224.91
925.94	224.90
926.24	224.93
926.55	224.93
926.85	225.00
927.15	224.97
927.45	224.97
927.75	224.98
928.05	224.98
928.35	224.95
928.65	224.97
928.95	224.98
929.26	224.95
929.56	224.95
929.86	224.96
930.16	224.96
930.46	224.92
930.76	224.92
931.06	224.88
931.36	224.83
931.66	224.87
931.96	224.85
932.26	224.91
932.56	224.87
932.86	224.85
933.16	224.84
933.46	224.84
933.76	224.82
934.06	224.85
934.36	224.87
934.66	224.89
934.96	224.84
935.26	224.86
935.56	224.89
935.86	224.85
936.16	224.84
936.46	224.84
936.76	224.86
937.06	224.89
937.36	224.89
937.66	224.89
937.96	224.86
938.26	224.86
938.56	224.84
938.86	224.86
939.16	224.89
939.46	224.90
939.76	224.91
940.06	224.92
940.35	224.88
940.65	224.84
940.95	224.87
941.25	224.85
941.55	224.81
941.85	224.79
942.15	224.82
942.45	224.87
942.75	224.87
943.04	224.85
943.34	224.85
943.64	224.85
943.94	224.85
944.24	224.85
944.54	224.87
944.84	224.84
945.13	224.83
945.43	224.81
945.73	224.82
946.03	224.81
946.33	224.81
946.62	224.81
946.92	224.82
947.22	224.81
947.52	224.82
947.82	224.84
948.11	224.84
948.41	224.85
948.71	224.83
949.01	224.83
949.31	224.86
949.60	224.87
949.90	224.88
950.20	224.88
950.50	224.93
950.79	224.93
951.09	224.96
951.39	224.95
951.69	224.97
951.98	224.99
952.28	225.00
952.58	224.99
952.87	224.99
953.17	225.02
953.47	224.97
953.76	224.97
954.06	224.99
954.36	225.00
954.66	224.98
954.95	225.01
955.25	225.02
955.55	225.02
955.84	224.99
956.14	225.00
956.44	224.99
956.73	224.95
957.03	224.92
957.32	224.93
957.62	224.93
957.92	224.95
958.21	224.93
958.51	225.05
958.81	225.04
959.10	225.07
959.40	225.10
959.69	225.15
959.99	225.17
960.29	225.14
960.58	225.12
960.88	225.16
961.17	225.14
961.47	225.15
961.76	225.14
962.06	225.15
962.36	225.13
962.65	225.13
962.95	225.14
963.24	225.17
963.54	225.16
963.83	225.13
964.13	225.11
964.42	225.08
964.72	224.99
965.01	225.01
965.31	224.99
965.60	224.95
965.90	224.96
966.19	224.92
966.49	224.92
966.78	224.91
967.08	224.87
967.37	224.84
967.67	224.82
967.96	224.84
968.26	224.83
968.55	224.84
968.85	224.85
969.14	224.81
969.43	224.75
969.73	224.75
970.02	224.74
970.32	224.75
970.61	224.71
970.91	224.64
971.20	224.60
971.49	224.59
971.79	224.56
972.08	224.50
972.38	224.51
972.67	224.51
972.96	224.52
973.26	224.52
973.55	224.58
973.85	224.56
974.14	224.53
974.43	224.52
974.73	224.51
975.02	224.53
975.31	224.56
975.61	224.59
975.90	224.56
976.19	224.59
976.49	224.59
976.78	224.61
977.07	224.62
977.37	224.63
977.66	224.64
977.95	224.63
978.24	224.65
978.54	224.65
978.83	224.63
979.12	224.61
979.42	224.61
979.71	224.56
980.00	224.58
980.29	224.56
980.59	224.58
980.88	224.58
981.17	224.56
981.46	224.54
981.76	224.52
982.05	224.51
982.34	224.52
982.63	224.54
982.93	224.58
983.22	224.60
983.51	224.59
983.80	224.60
984.09	224.63
984.39	224.62
984.68	224.63
984.97	224.65
985.26	224.65
985.55	224.64
985.85	224.63
986.14	224.66
986.43	224.72
986.72	224.72
987.01	224.71
987.30	224.71
987.59	224.70
987.89	224.72
988.18	224.75
988.47	224.71
988.76	224.68
989.05	224.67
989.34	224.68
989.63	224.72
989.92	224.72
990.22	224.70
990.51	224.73
990.80	224.70
991.09	224.70
991.38	224.72
991.67	224.71
991.96	224.69
992.25	224.67
992.54	224.64
992.83	224.63
993.12	224.63
993.41	224.62
993.70	224.67
993.99	224.73
994.28	224.75
994.58	224.79
994.87	224.73
995.16	224.74
995.45	224.73
995.74	224.72
996.03	224.72
996.32	224.74
996.61	224.72
996.90	224.75
997.19	224.74
997.48	224.77
997.77	224.77
998.06	224.79
998.34	224.79
998.63	224.77
998.92	224.80
999.21	224.79
999.50	224.83
999.79	224.80
1000.08	224.76
1000.37	224.76
1000.66	224.75
1000.95	224.81
1001.24	224.80
1001.53	224.81
1001.82	224.79
1002.11	224.76
1002.40	224.76
1002.68	224.79
1002.97	224.86
1003.26	224.86
1003.55	224.80
1003.84	224.77
1004.13	224.84
1004.42	224.82
1004.71	224.83
1004.99	224.81
1005.28	224.84
1005.57	224.81
1005.86	224.79
1006.15	224.80
1006.44	224.76
1006.72	224.77
1007.01	224.74
1007.30	224.73
1007.59	224.70
1007.88	224.73
1008.17	224.73
1008.45	224.73
1008.74	224.69
1009.03	224.65
1009.32	224.62
1009.60	224.67
1009.89	224.69
1010.18	224.62
1010.47	224.62
1010.76	224.65
1011.04	224.65
1011.33	224.66
1011.62	224.65
1011.91	224.72
1012.19	224.69
1012.48	224.70
1012.77	224.71
1013.05	224.80
1013.34	224.79
1013.63	224.82
1013.92	224.80
1014.20	224.81
1014.49	224.79
1014.78	224.79
1015.06	224.77
1015.35	224.79
1015.64	224.79
1015.92	224.82
1016.21	224.86
1016.50	224.82
1016.78	224.82
1017.07	224.80
1017.36	224.77
1017.64	224.76
1017.93	224.72
1018.22	224.69
1018.50	224.71
1018.79	224.67
1019.08	224.60
1019.36	224.63
1019.65	224.60
1019.93	224.61
1020.22	224.63
1020.51	224.70
1020.79	224.69
1021.08	224.16
1021.36	224.89
1021.65	224.26
1021.94	224.54
1022.22	225.05
1022.51	224.18
1022.79	224.95
1023.08	225.05
1023.36	225.99
1023.65	224.15
>>>>>End Processed Spectral Data<<<<<
