SpectraSuite Data File
++++++++++++++++++++++++++++++++++++
Date: Fri Feb 01 16:07:21 EST 2013
User: group
Dark Spectrum Present: No
Reference Spectrum Present: No
Number of Sampled Component Spectra: 1
Spectrometers: USB2E7196
Integration Time (usec): 35000 (USB2E7196)
Spectra Averaged: 100 (USB2E7196)
Boxcar Smoothing: 10 (USB2E7196)
Correct for Electrical Dark: No (USB2E7196)
Strobe/Lamp Enabled: No (USB2E7196)
Correct for Detector Non-linearity: No (USB2E7196)
Correct for Stray Light: No (USB2E7196)
Number of Pixels in Processed Spectrum: 2048
>>>>>Begin Processed Spectral Data<<<<<
339.09	0.00
339.48	214.90
339.86	215.78
340.24	216.83
340.63	218.78
341.01	221.29
341.39	221.97
341.78	222.60
342.16	224.06
342.54	224.32
342.93	212.89
343.31	223.66
343.69	224.19
344.07	224.68
344.46	225.15
344.84	225.51
345.22	225.75
345.60	225.97
345.99	226.16
346.37	226.29
346.75	226.40
347.13	226.47
347.52	226.51
347.90	226.63
348.28	226.68
348.66	226.76
349.05	226.74
349.43	226.79
349.81	226.83
350.19	226.89
350.57	226.92
350.96	227.00
351.34	227.09
351.72	227.20
352.10	227.30
352.48	227.33
352.87	227.43
353.25	227.52
353.63	227.62
354.01	227.70
354.39	227.77
354.77	227.86
355.15	227.94
355.54	227.99
355.92	228.04
356.30	228.10
356.68	228.22
357.06	228.29
357.44	228.33
357.82	228.35
358.20	228.40
358.58	228.51
358.97	228.58
359.35	228.61
359.73	228.66
360.11	228.70
360.49	228.77
360.87	228.82
361.25	228.86
361.63	228.91
362.01	228.95
362.39	229.00
362.77	229.03
363.15	229.06
363.53	229.11
363.91	229.11
364.29	229.14
364.67	229.05
365.05	229.10
365.43	229.12
365.81	229.15
366.19	229.18
366.57	229.21
366.95	229.17
367.33	229.17
367.71	229.17
368.09	229.18
368.47	229.14
368.85	229.11
369.23	229.07
369.61	229.00
369.99	229.00
370.37	228.92
370.75	228.91
371.13	228.84
371.51	228.77
371.89	228.73
372.27	228.70
372.65	228.66
373.03	228.58
373.41	228.49
373.78	228.42
374.16	228.31
374.54	228.21
374.92	228.15
375.30	228.06
375.68	227.96
376.06	227.88
376.44	227.84
376.82	227.82
377.19	227.77
377.57	227.71
377.95	227.62
378.33	227.58
378.71	227.45
379.09	227.41
379.47	227.36
379.84	227.28
380.22	227.17
380.60	227.04
380.98	226.98
381.36	226.94
381.73	226.87
382.11	226.83
382.49	226.78
382.87	226.74
383.25	226.70
383.62	226.75
384.00	226.67
384.38	226.59
384.76	226.52
385.13	226.50
385.51	226.49
385.89	226.43
386.27	226.38
386.64	226.39
387.02	226.33
387.40	226.32
387.78	226.29
388.15	226.27
388.53	226.26
388.91	226.23
389.29	226.19
389.66	226.18
390.04	226.13
390.42	226.12
390.79	226.12
391.17	226.13
391.55	225.98
391.92	225.97
392.30	225.99
392.68	225.98
393.05	225.96
393.43	225.95
393.81	225.97
394.18	225.98
394.56	226.00
394.94	226.07
395.31	226.05
395.69	226.10
396.06	226.15
396.44	226.23
396.82	226.28
397.19	226.41
397.57	226.47
397.95	226.54
398.32	226.58
398.70	226.66
399.07	226.72
399.45	226.85
399.82	226.93
400.20	227.03
400.58	227.09
400.95	227.12
401.33	227.23
401.70	227.40
402.08	227.51
402.45	227.59
402.83	227.68
403.20	227.82
403.58	227.94
403.95	228.05
404.33	228.17
404.71	228.31
405.08	228.48
405.46	228.59
405.83	228.77
406.21	228.90
406.58	229.04
406.96	229.20
407.33	229.38
407.70	229.59
408.08	229.84
408.45	230.05
408.83	230.30
409.20	230.47
409.58	230.62
409.95	230.88
410.33	231.14
410.70	231.37
411.08	231.69
411.45	231.99
411.82	232.31
412.20	232.66
412.57	233.09
412.95	233.40
413.32	233.81
413.69	234.21
414.07	234.65
414.44	235.12
414.82	235.59
415.19	236.13
415.56	236.63
415.94	237.15
416.31	237.78
416.68	238.41
417.06	239.16
417.43	239.87
417.81	240.63
418.18	241.41
418.55	242.28
418.93	243.14
419.30	244.02
419.67	244.94
420.04	245.89
420.42	246.83
420.79	247.96
421.16	249.11
421.54	250.28
421.91	251.51
422.28	252.78
422.66	254.09
423.03	255.36
423.40	256.73
423.77	258.18
424.15	259.60
424.52	261.08
424.89	262.68
425.26	264.19
425.64	265.62
426.01	267.19
426.38	268.80
426.75	270.47
427.13	272.22
427.50	274.02
427.87	275.89
428.24	277.76
428.61	279.49
428.99	281.41
429.36	283.51
429.73	285.58
430.10	287.56
430.47	289.65
430.85	291.77
431.22	294.00
431.59	296.33
431.96	298.53
432.33	300.96
432.70	303.32
433.08	306.11
433.45	308.80
433.82	311.43
434.19	314.32
434.56	317.12
434.93	319.74
435.30	322.36
435.68	325.23
436.05	328.05
436.42	330.84
436.79	333.36
437.16	336.01
437.53	338.83
437.90	341.67
438.27	344.41
438.64	347.22
439.01	349.79
439.38	352.01
439.75	354.22
440.13	356.74
440.50	359.05
440.87	360.92
441.24	362.80
441.61	364.90
441.98	366.38
442.35	368.16
442.72	370.02
443.09	371.82
443.46	372.82
443.83	373.38
444.20	373.88
444.57	374.72
444.94	375.00
445.31	375.36
445.68	375.65
446.05	375.71
446.42	375.36
446.79	374.95
447.16	374.53
447.53	374.20
447.90	373.01
448.27	371.84
448.64	370.24
449.01	369.08
449.37	367.15
449.74	365.28
450.11	363.07
450.48	360.55
450.85	358.03
451.22	355.87
451.59	353.88
451.96	351.96
452.33	349.37
452.70	347.03
453.07	344.17
453.43	341.33
453.80	338.56
454.17	335.87
454.54	333.33
454.91	330.58
455.28	327.88
455.65	325.44
456.02	323.03
456.38	320.92
456.75	318.28
457.12	316.05
457.49	313.81
457.86	311.66
458.23	309.85
458.59	307.81
458.96	305.78
459.33	303.95
459.70	302.09
460.07	300.63
460.43	298.94
460.80	297.34
461.17	295.90
461.54	294.40
461.91	293.00
462.27	291.56
462.64	290.31
463.01	289.02
463.38	287.75
463.74	286.38
464.11	285.19
464.48	284.18
464.85	283.07
465.21	282.19
465.58	281.24
465.95	280.17
466.32	279.28
466.68	278.35
467.05	277.42
467.42	276.52
467.78	275.57
468.15	274.69
468.52	274.02
468.88	273.16
469.25	272.39
469.62	271.77
469.98	271.11
470.35	270.51
470.72	269.86
471.08	269.18
471.45	268.68
471.82	268.16
472.18	267.60
472.55	267.19
472.92	266.67
473.28	266.24
473.65	265.78
474.02	265.34
474.38	265.00
474.75	264.72
475.11	264.45
475.48	264.17
475.85	263.93
476.21	263.69
476.58	263.51
476.94	263.38
477.31	263.20
477.67	263.06
478.04	262.95
478.41	262.92
478.77	263.01
479.14	262.92
479.50	262.91
479.87	262.95
480.23	263.01
480.60	263.08
480.96	263.12
481.33	263.32
481.69	263.46
482.06	263.63
482.42	263.82
482.79	264.03
483.15	264.31
483.52	264.67
483.88	264.98
484.25	265.38
484.61	265.75
484.98	266.21
485.34	266.70
485.71	267.29
486.07	267.86
486.44	268.38
486.80	269.07
487.17	269.81
487.53	270.62
487.90	271.47
488.26	272.43
488.62	273.44
488.99	274.42
489.35	275.49
489.72	276.62
490.08	277.81
490.44	279.04
490.81	280.37
491.17	281.73
491.54	283.21
491.90	284.74
492.26	286.43
492.63	288.14
492.99	289.94
493.36	291.83
493.72	293.91
494.08	295.99
494.45	298.31
494.81	300.67
495.17	303.09
495.54	305.66
495.90	308.35
496.26	311.13
496.63	314.08
496.99	317.23
497.35	320.46
497.72	323.85
498.08	327.40
498.44	331.09
498.80	335.05
499.17	339.11
499.53	343.28
499.89	347.67
500.26	352.16
500.62	356.87
500.98	361.81
501.34	366.86
501.71	372.24
502.07	377.60
502.43	383.20
502.79	389.07
503.16	395.13
503.52	401.40
503.88	407.86
504.24	414.51
504.60	421.37
504.97	428.52
505.33	435.85
505.69	443.54
506.05	451.40
506.41	459.27
506.78	467.40
507.14	475.86
507.50	484.58
507.86	493.66
508.22	502.85
508.59	512.12
508.95	521.75
509.31	531.55
509.67	541.71
510.03	552.00
510.39	562.58
510.75	573.44
511.12	584.34
511.48	595.59
511.84	607.04
512.20	618.60
512.56	630.54
512.92	642.77
513.28	655.14
513.64	667.58
514.00	680.30
514.37	693.31
514.73	706.39
515.09	719.39
515.45	732.64
515.81	746.25
516.17	760.14
516.53	774.28
516.89	788.47
517.25	802.63
517.61	816.96
517.97	831.32
518.33	845.71
518.69	860.48
519.05	875.52
519.41	890.63
519.77	906.10
520.13	921.54
520.49	936.86
520.85	952.19
521.21	967.91
521.57	984.19
521.93	999.91
522.29	1016.18
522.65	1032.44
523.01	1048.66
523.37	1064.63
523.73	1080.88
524.09	1096.84
524.45	1113.11
524.81	1129.68
525.17	1146.57
525.53	1163.46
525.89	1180.25
526.25	1197.03
526.61	1213.34
526.97	1230.11
527.33	1246.65
527.68	1263.24
528.04	1279.70
528.40	1296.26
528.76	1313.34
529.12	1329.84
529.48	1346.71
529.84	1362.74
530.20	1379.33
530.56	1396.21
530.91	1413.51
531.27	1430.15
531.63	1446.69
531.99	1463.35
532.35	1479.31
532.71	1495.09
533.07	1511.26
533.42	1527.23
533.78	1543.25
534.14	1559.51
534.50	1574.67
534.86	1590.37
535.21	1605.52
535.57	1621.38
535.93	1636.86
536.29	1651.44
536.65	1666.39
537.00	1680.94
537.36	1696.37
537.72	1710.84
538.08	1725.16
538.44	1738.93
538.79	1752.72
539.15	1766.11
539.51	1779.68
539.87	1793.96
540.22	1807.55
540.58	1821.25
540.94	1834.38
541.29	1847.11
541.65	1859.60
542.01	1872.78
542.37	1885.04
542.72	1897.50
543.08	1909.20
543.44	1921.44
543.79	1932.61
544.15	1943.54
544.51	1955.07
544.87	1965.76
545.22	1976.49
545.58	1986.86
545.94	1996.61
546.29	2006.52
546.65	2016.43
547.01	2025.59
547.36	2034.30
547.72	2042.84
548.07	2050.67
548.43	2058.74
548.79	2066.80
549.14	2074.50
549.50	2081.80
549.86	2089.50
550.21	2096.67
550.57	2103.93
550.92	2110.55
551.28	2117.68
551.64	2124.72
551.99	2131.29
552.35	2137.37
552.70	2143.52
553.06	2149.40
553.41	2155.73
553.77	2161.65
554.13	2167.60
554.48	2173.64
554.84	2179.19
555.19	2184.54
555.55	2189.79
555.90	2194.36
556.26	2199.22
556.61	2203.93
556.97	2208.45
557.32	2212.53
557.68	2216.73
558.03	2220.94
558.39	2224.64
558.74	2229.12
559.10	2233.10
559.45	2236.77
559.81	2241.00
560.16	2244.81
560.52	2248.09
560.87	2251.59
561.23	2254.37
561.58	2257.45
561.94	2260.02
562.29	2262.21
562.64	2265.05
563.00	2267.59
563.35	2271.15
563.71	2274.32
564.06	2277.43
564.42	2280.32
564.77	2282.96
565.12	2285.25
565.48	2287.22
565.83	2289.20
566.19	2290.58
566.54	2291.38
566.89	2292.61
567.25	2293.32
567.60	2294.56
567.96	2296.32
568.31	2297.10
568.66	2298.19
569.02	2298.74
569.37	2299.21
569.72	2300.28
570.08	2300.28
570.43	2300.30
570.78	2299.74
571.14	2298.33
571.49	2297.04
571.84	2296.56
572.20	2295.33
572.55	2294.31
572.90	2292.69
573.26	2291.09
573.61	2289.46
573.96	2287.86
574.31	2285.01
574.67	2282.12
575.02	2278.53
575.37	2275.09
575.72	2271.34
576.08	2267.90
576.43	2264.59
576.78	2260.87
577.13	2257.54
577.49	2254.30
577.84	2250.85
578.19	2247.08
578.54	2243.43
578.90	2239.31
579.25	2233.68
579.60	2228.73
579.95	2223.61
580.30	2218.55
580.66	2213.57
581.01	2208.65
581.36	2203.72
581.71	2199.47
582.06	2195.06
582.42	2190.87
582.77	2185.62
583.12	2181.01
583.47	2176.39
583.82	2171.36
584.17	2166.18
584.53	2160.76
584.88	2155.29
585.23	2149.57
585.58	2144.05
585.93	2138.51
586.28	2133.58
586.63	2128.71
586.98	2123.80
587.34	2119.06
587.69	2114.20
588.04	2108.94
588.39	2103.36
588.74	2096.75
589.09	2090.65
589.44	2083.93
589.79	2077.57
590.14	2072.04
590.49	2065.53
590.84	2059.06
591.19	2053.06
591.54	2046.58
591.89	2039.15
592.25	2032.25
592.60	2025.09
592.95	2017.62
593.30	2010.32
593.65	2002.77
594.00	1995.72
594.35	1988.49
594.70	1980.49
595.05	1973.41
595.40	1966.18
595.75	1958.66
596.10	1952.61
596.45	1945.82
596.80	1939.63
597.15	1933.19
597.50	1926.10
597.85	1919.70
598.19	1913.25
598.54	1906.21
598.89	1899.56
599.24	1893.70
599.59	1887.28
599.94	1880.98
600.29	1874.63
600.64	1867.98
600.99	1860.69
601.34	1853.89
601.69	1846.80
602.04	1840.00
602.39	1832.61
602.74	1825.69
603.08	1818.87
603.43	1812.06
603.78	1804.78
604.13	1797.58
604.48	1790.24
604.83	1783.40
605.18	1776.41
605.53	1768.36
605.87	1760.25
606.22	1752.96
606.57	1745.04
606.92	1737.53
607.27	1730.42
607.62	1723.60
607.96	1716.47
608.31	1709.80
608.66	1702.11
609.01	1694.66
609.36	1687.17
609.70	1679.26
610.05	1671.31
610.40	1663.71
610.75	1655.47
611.10	1647.78
611.44	1639.37
611.79	1631.38
612.14	1622.67
612.49	1613.51
612.83	1605.11
613.18	1597.18
613.53	1589.24
613.88	1580.71
614.22	1572.50
614.57	1563.92
614.92	1555.77
615.27	1548.29
615.61	1540.06
615.96	1532.08
616.31	1524.36
616.65	1516.97
617.00	1509.31
617.35	1501.52
617.70	1493.22
618.04	1484.79
618.39	1476.66
618.74	1469.01
619.08	1460.75
619.43	1453.08
619.78	1446.17
620.12	1439.09
620.47	1431.59
620.82	1423.41
621.16	1416.10
621.51	1408.46
621.85	1400.82
622.20	1392.26
622.55	1383.78
622.89	1375.83
623.24	1368.17
623.59	1360.81
623.93	1353.19
624.28	1346.01
624.62	1338.65
624.97	1331.42
625.32	1324.55
625.66	1317.45
626.01	1310.33
626.35	1303.02
626.70	1295.27
627.04	1287.58
627.39	1279.78
627.73	1272.25
628.08	1265.32
628.43	1258.02
628.77	1250.61
629.12	1243.05
629.46	1235.97
629.81	1228.46
630.15	1221.22
630.50	1213.86
630.84	1205.65
631.19	1197.81
631.53	1190.28
631.88	1182.69
632.22	1175.03
632.57	1167.75
632.91	1160.15
633.26	1152.64
633.60	1145.26
633.95	1138.19
634.29	1131.04
634.64	1124.25
634.98	1116.99
635.32	1109.75
635.67	1103.11
636.01	1096.53
636.36	1089.77
636.70	1083.26
637.05	1076.77
637.39	1070.26
637.73	1063.70
638.08	1057.82
638.42	1051.77
638.77	1045.30
639.11	1038.80
639.45	1032.47
639.80	1025.70
640.14	1019.40
640.49	1012.93
640.83	1006.52
641.17	1000.38
641.52	994.09
641.86	987.66
642.20	981.74
642.55	975.37
642.89	968.87
643.23	962.21
643.58	956.43
643.92	950.26
644.26	944.31
644.61	938.23
644.95	932.28
645.29	925.79
645.64	919.04
645.98	912.72
646.32	906.78
646.66	900.70
647.01	895.00
647.35	889.20
647.69	883.31
648.04	877.75
648.38	871.91
648.72	866.02
649.06	860.02
649.41	854.11
649.75	848.22
650.09	842.29
650.43	836.55
650.78	830.38
651.12	824.30
651.46	818.49
651.80	812.95
652.14	807.49
652.49	802.04
652.83	796.90
653.17	791.24
653.51	785.55
653.85	780.19
654.20	774.53
654.54	768.57
654.88	762.83
655.22	756.94
655.56	751.27
655.90	745.74
656.25	740.52
656.59	735.24
656.93	730.23
657.27	725.03
657.61	719.63
657.95	714.50
658.29	709.48
658.64	704.27
658.98	698.88
659.32	693.50
659.66	688.31
660.00	683.00
660.34	678.07
660.68	673.18
661.02	668.15
661.36	663.43
661.70	658.97
662.05	654.63
662.39	650.36
662.73	645.84
663.07	641.49
663.41	636.99
663.75	632.47
664.09	627.87
664.43	623.51
664.77	619.46
665.11	615.25
665.45	611.07
665.79	606.97
666.13	602.89
666.47	598.74
666.81	594.63
667.15	590.47
667.49	586.51
667.83	582.61
668.17	578.66
668.51	574.63
668.85	570.57
669.19	566.77
669.53	562.90
669.87	559.10
670.21	555.41
670.55	551.83
670.89	548.39
671.23	544.92
671.57	541.42
671.91	537.83
672.25	534.33
672.58	530.87
672.92	527.43
673.26	524.19
673.60	521.05
673.94	517.86
674.28	514.87
674.62	511.91
674.96	508.88
675.30	505.97
675.64	503.00
675.97	500.23
676.31	497.36
676.65	494.42
676.99	491.63
677.33	488.75
677.67	485.90
678.01	482.87
678.34	479.97
678.68	477.04
679.02	474.23
679.36	471.47
679.70	468.72
680.04	466.00
680.37	463.11
680.71	460.28
681.05	457.75
681.39	455.10
681.73	452.41
682.06	449.84
682.40	447.25
682.74	444.71
683.08	442.15
683.42	439.49
683.75	436.96
684.09	434.49
684.43	431.98
684.77	429.54
685.10	427.18
685.44	424.84
685.78	422.55
686.12	420.29
686.45	417.97
686.79	415.68
687.13	413.48
687.46	411.36
687.80	409.18
688.14	406.92
688.48	404.87
688.81	402.66
689.15	400.54
689.49	398.44
689.82	396.39
690.16	394.31
690.50	392.40
690.83	390.51
691.17	388.48
691.51	386.60
691.84	384.73
692.18	382.82
692.52	380.86
692.85	378.90
693.19	377.06
693.52	375.21
693.86	373.44
694.20	371.66
694.53	369.84
694.87	368.04
695.21	366.28
695.54	364.45
695.88	362.75
696.21	361.05
696.55	359.34
696.88	357.66
697.22	356.01
697.56	354.35
697.89	352.71
698.23	351.11
698.56	349.53
698.90	347.96
699.23	346.35
699.57	344.78
699.90	343.30
700.24	341.73
700.58	340.23
700.91	338.74
701.25	337.31
701.58	335.95
701.92	334.64
702.25	333.25
702.59	331.90
702.92	330.58
703.26	329.24
703.59	327.96
703.93	326.78
704.26	325.54
704.60	324.27
704.93	322.99
705.26	321.76
705.60	320.56
705.93	319.41
706.27	318.34
706.60	317.30
706.94	316.21
707.27	315.12
707.61	314.07
707.94	313.00
708.27	311.89
708.61	310.77
708.94	309.74
709.28	308.77
709.61	307.80
709.94	306.90
710.28	305.90
710.61	304.95
710.95	303.84
711.28	302.89
711.61	301.94
711.95	301.00
712.28	300.07
712.61	299.09
712.95	298.14
713.28	297.27
713.61	296.36
713.95	295.46
714.28	294.60
714.61	293.71
714.95	292.85
715.28	292.01
715.61	291.15
715.95	290.25
716.28	289.34
716.61	288.49
716.95	287.60
717.28	286.84
717.61	286.05
717.94	285.32
718.28	284.48
718.61	283.73
718.94	283.03
719.27	282.34
719.61	281.68
719.94	281.01
720.27	280.28
720.60	279.61
720.94	278.98
721.27	278.35
721.60	277.78
721.93	277.19
722.27	276.63
722.60	276.09
722.93	275.52
723.26	274.99
723.59	274.43
723.93	273.87
724.26	273.28
724.59	272.70
724.92	272.17
725.25	271.70
725.59	271.20
725.92	270.70
726.25	270.22
726.58	269.72
726.91	269.22
727.24	268.73
727.57	268.26
727.91	267.76
728.24	267.30
728.57	266.77
728.90	266.33
729.23	265.86
729.56	265.42
729.89	264.98
730.22	264.52
730.55	264.05
730.89	263.63
731.22	263.21
731.55	262.80
731.88	262.35
732.21	261.91
732.54	261.48
732.87	261.07
733.20	260.62
733.53	260.28
733.86	259.89
734.19	259.50
734.52	259.13
734.85	258.83
735.18	258.43
735.51	258.10
735.84	257.72
736.17	257.34
736.50	256.95
736.83	256.73
737.16	256.37
737.49	256.08
737.82	255.74
738.15	255.41
738.48	255.08
738.81	254.78
739.14	254.47
739.47	254.15
739.80	253.83
740.13	253.54
740.46	253.18
740.79	252.89
741.12	252.58
741.45	252.29
741.78	251.96
742.11	251.67
742.44	251.34
742.77	251.07
743.10	250.79
743.43	250.48
743.75	250.09
744.08	249.98
744.41	249.69
744.74	249.42
745.07	249.12
745.40	248.89
745.73	248.66
746.06	248.42
746.39	248.14
746.71	247.87
747.04	247.60
747.37	247.34
747.70	247.11
748.03	246.87
748.36	246.63
748.68	246.39
749.01	246.15
749.34	245.93
749.67	245.67
750.00	245.42
750.33	245.25
750.65	245.06
750.98	244.71
751.31	244.49
751.64	244.28
751.97	244.13
752.29	243.92
752.62	243.62
752.95	243.38
753.28	243.19
753.60	242.98
753.93	242.78
754.26	242.59
754.59	242.36
754.91	242.11
755.24	241.88
755.57	241.63
755.90	241.43
756.22	241.24
756.55	241.02
756.88	240.84
757.20	240.60
757.53	240.36
757.86	240.18
758.19	240.01
758.51	239.83
758.84	239.64
759.17	239.46
759.49	239.36
759.82	239.25
760.15	239.11
760.47	238.94
760.80	238.76
761.13	238.64
761.45	238.47
761.78	238.35
762.11	238.22
762.43	238.08
762.76	237.96
763.08	237.80
763.41	237.69
763.74	237.55
764.06	237.42
764.39	237.29
764.71	237.14
765.04	236.98
765.37	236.85
765.69	236.69
766.02	236.53
766.34	236.39
766.67	236.20
767.00	236.10
767.32	236.05
767.65	235.97
767.97	235.81
768.30	235.67
768.62	235.57
768.95	235.45
769.27	235.38
769.60	235.24
769.92	235.15
770.25	235.04
770.57	234.94
770.90	234.83
771.22	234.76
771.55	234.69
771.87	234.61
772.20	234.52
772.52	234.51
772.85	234.55
773.17	234.44
773.50	234.39
773.82	234.24
774.15	234.13
774.47	234.01
774.80	233.94
775.12	233.90
775.45	233.81
775.77	233.74
776.09	233.63
776.42	233.57
776.74	233.53
777.07	233.45
777.39	233.40
777.72	233.35
778.04	233.23
778.36	233.15
778.69	233.12
779.01	233.04
779.33	232.90
779.66	232.74
779.98	232.66
780.31	232.56
780.63	232.54
780.95	232.50
781.28	232.46
781.60	232.38
781.92	232.31
782.25	232.25
782.57	232.20
782.89	232.15
783.22	232.09
783.54	232.01
783.86	231.90
784.19	231.83
784.51	231.80
784.83	231.75
785.16	231.70
785.48	231.61
785.80	231.58
786.12	231.57
786.45	231.46
786.77	231.46
787.09	231.46
787.42	231.40
787.74	231.35
788.06	231.31
788.38	231.26
788.71	231.22
789.03	231.19
789.35	231.16
789.67	231.11
789.99	231.08
790.32	231.03
790.64	231.06
790.96	231.09
791.28	231.02
791.61	230.98
791.93	230.91
792.25	230.91
792.57	230.90
792.89	230.83
793.21	230.84
793.54	230.76
793.86	230.70
794.18	230.64
794.50	230.58
794.82	230.51
795.14	230.47
795.47	230.46
795.79	230.42
796.11	230.38
796.43	230.34
796.75	230.33
797.07	230.28
797.39	230.21
797.71	230.12
798.04	230.09
798.36	230.06
798.68	230.05
799.00	229.98
799.32	229.89
799.64	229.87
799.96	229.84
800.28	229.84
800.60	229.78
800.92	229.73
801.24	229.70
801.56	229.70
801.89	229.68
802.21	229.64
802.53	229.62
802.85	229.57
803.17	229.60
803.49	229.52
803.81	229.51
804.13	229.51
804.45	229.45
804.77	229.43
805.09	229.42
805.41	229.37
805.73	229.34
806.05	229.34
806.37	229.28
806.69	229.25
807.01	229.22
807.33	229.20
807.65	229.15
807.97	229.16
808.28	229.13
808.60	229.13
808.92	229.07
809.24	229.07
809.56	229.05
809.88	228.98
810.20	228.97
810.52	228.96
810.84	228.90
811.16	228.86
811.48	228.84
811.80	228.85
812.12	228.85
812.43	228.83
812.75	228.79
813.07	228.77
813.39	228.74
813.71	228.72
814.03	228.72
814.35	228.67
814.67	228.62
814.98	228.60
815.30	228.54
815.62	228.52
815.94	228.46
816.26	228.48
816.58	228.46
816.89	228.45
817.21	228.40
817.53	228.40
817.85	228.40
818.17	228.35
818.48	228.27
818.80	228.28
819.12	228.26
819.44	228.25
819.76	228.23
820.07	228.22
820.39	228.21
820.71	228.22
821.03	228.25
821.34	228.22
821.66	228.20
821.98	228.22
822.30	228.21
822.61	228.26
822.93	228.20
823.25	228.19
823.57	228.16
823.88	228.16
824.20	228.17
824.52	228.18
824.83	228.20
825.15	228.20
825.47	228.17
825.79	228.18
826.10	228.18
826.42	228.20
826.74	228.21
827.05	228.22
827.37	228.18
827.69	228.20
828.00	228.21
828.32	228.21
828.64	228.21
828.95	228.24
829.27	228.20
829.58	228.19
829.90	228.22
830.22	228.25
830.53	228.22
830.85	228.20
831.17	228.17
831.48	228.14
831.80	228.13
832.11	228.14
832.43	228.11
832.75	228.08
833.06	228.14
833.38	228.10
833.69	228.07
834.01	228.08
834.32	228.04
834.64	228.06
834.96	228.06
835.27	228.06
835.59	228.03
835.90	228.00
836.22	227.99
836.53	227.95
836.85	227.91
837.16	227.99
837.48	227.95
837.79	227.97
838.11	227.99
838.42	228.00
838.74	227.99
839.05	227.94
839.37	227.89
839.68	227.77
840.00	227.78
840.31	227.72
840.63	227.72
840.94	227.69
841.26	227.63
841.57	227.60
841.88	227.56
842.20	227.54
842.51	227.49
842.83	227.46
843.14	227.53
843.46	227.53
843.77	227.44
844.08	227.43
844.40	227.39
844.71	227.31
845.03	227.26
845.34	227.25
845.65	227.23
845.97	227.23
846.28	227.26
846.60	227.23
846.91	227.22
847.22	227.20
847.54	227.21
847.85	227.19
848.16	227.13
848.48	227.12
848.79	227.11
849.10	227.12
849.42	227.14
849.73	227.03
850.04	226.99
850.36	226.94
850.67	226.97
850.98	226.93
851.30	226.97
851.61	226.99
851.92	226.97
852.23	227.01
852.55	227.02
852.86	227.00
853.17	226.98
853.49	227.01
853.80	227.00
854.11	227.03
854.42	227.06
854.74	227.07
855.05	227.03
855.36	226.98
855.67	227.00
855.99	226.98
856.30	227.08
856.61	227.09
856.92	227.10
857.23	227.10
857.55	227.11
857.86	227.11
858.17	227.08
858.48	227.07
858.79	227.06
859.11	227.05
859.42	227.05
859.73	227.03
860.04	227.03
860.35	226.99
860.66	226.93
860.98	226.92
861.29	226.93
861.60	226.97
861.91	226.99
862.22	226.99
862.53	227.01
862.84	226.90
863.16	226.90
863.47	226.88
863.78	226.86
864.09	226.85
864.40	226.88
864.71	226.92
865.02	226.94
865.33	226.92
865.64	226.90
865.95	226.91
866.27	226.96
866.58	226.97
866.89	227.00
867.20	227.01
867.51	227.01
867.82	227.00
868.13	226.99
868.44	226.99
868.75	227.01
869.06	226.98
869.37	227.00
869.68	226.97
869.99	227.00
870.30	227.02
870.61	227.03
870.92	226.99
871.23	226.99
871.54	226.98
871.85	227.00
872.16	227.02
872.47	226.99
872.78	226.93
873.09	226.93
873.40	226.93
873.71	226.92
874.02	226.92
874.33	226.96
874.64	226.98
874.95	226.98
875.26	226.95
875.56	226.95
875.87	226.95
876.18	226.93
876.49	227.01
876.80	227.00
877.11	227.03
877.42	227.03
877.73	227.01
878.04	227.00
878.35	226.98
878.66	226.97
878.96	227.01
879.27	227.01
879.58	226.99
879.89	226.96
880.20	227.02
880.51	227.00
880.82	226.94
881.12	226.91
881.43	226.92
881.74	226.93
882.05	226.93
882.36	226.91
882.67	226.95
882.97	226.86
883.28	226.85
883.59	226.80
883.90	226.83
884.21	226.83
884.51	226.81
884.82	226.83
885.13	226.82
885.44	226.80
885.74	226.82
886.05	226.80
886.36	226.83
886.67	226.76
886.98	226.79
887.28	226.81
887.59	226.81
887.90	226.79
888.20	226.76
888.51	226.75
888.82	226.75
889.13	226.74
889.43	226.78
889.74	226.76
890.05	226.76
890.35	226.71
890.66	226.71
890.97	226.70
891.28	226.70
891.58	226.70
891.89	226.67
892.20	226.65
892.50	226.68
892.81	226.68
893.12	226.70
893.42	226.65
893.73	226.67
894.04	226.65
894.34	226.70
894.65	226.68
894.95	226.67
895.26	226.69
895.57	226.74
895.87	226.66
896.18	226.71
896.48	226.72
896.79	226.71
897.10	226.73
897.40	226.74
897.71	226.73
898.01	226.75
898.32	226.77
898.63	226.76
898.93	226.74
899.24	226.73
899.54	226.74
899.85	226.75
900.15	226.71
900.46	226.73
900.76	226.69
901.07	226.67
901.38	226.69
901.68	226.71
901.99	226.67
902.29	226.67
902.60	226.64
902.90	226.62
903.21	226.62
903.51	226.58
903.82	226.61
904.12	226.62
904.43	226.63
904.73	226.65
905.03	226.67
905.34	226.76
905.64	226.77
905.95	226.76
906.25	226.78
906.56	226.78
906.86	226.80
907.17	226.83
907.47	226.88
907.77	226.84
908.08	226.82
908.38	226.79
908.69	226.82
908.99	226.86
909.30	226.90
909.60	226.93
909.90	226.95
910.21	226.91
910.51	226.88
910.81	226.86
911.12	226.87
911.42	226.86
911.73	226.76
912.03	226.75
912.33	226.79
912.64	226.78
912.94	226.80
913.24	226.77
913.55	226.75
913.85	226.72
914.15	226.79
914.46	226.78
914.76	226.82
915.06	226.79
915.37	226.77
915.67	226.76
915.97	226.76
916.27	226.71
916.58	226.74
916.88	226.76
917.18	226.79
917.49	226.84
917.79	226.84
918.09	226.87
918.39	226.88
918.70	226.88
919.00	226.87
919.30	226.88
919.60	226.86
919.91	226.84
920.21	226.89
920.51	226.86
920.81	226.86
921.12	226.85
921.42	226.84
921.72	226.85
922.02	226.86
922.32	226.88
922.63	226.91
922.93	226.98
923.23	226.96
923.53	226.92
923.83	226.87
924.13	226.86
924.44	226.83
924.74	226.86
925.04	226.88
925.34	226.88
925.64	226.82
925.94	226.82
926.24	226.88
926.55	226.84
926.85	226.82
927.15	226.82
927.45	226.82
927.75	226.82
928.05	226.82
928.35	226.80
928.65	226.78
928.95	226.78
929.26	226.70
929.56	226.72
929.86	226.72
930.16	226.69
930.46	226.69
930.76	226.70
931.06	226.66
931.36	226.60
931.66	226.60
931.96	226.62
932.26	226.63
932.56	226.56
932.86	226.57
933.16	226.55
933.46	226.54
933.76	226.51
934.06	226.52
934.36	226.56
934.66	226.52
934.96	226.52
935.26	226.53
935.56	226.54
935.86	226.52
936.16	226.50
936.46	226.49
936.76	226.50
937.06	226.50
937.36	226.48
937.66	226.47
937.96	226.49
938.26	226.48
938.56	226.47
938.86	226.49
939.16	226.49
939.46	226.51
939.76	226.50
940.06	226.50
940.35	226.49
940.65	226.45
940.95	226.47
941.25	226.47
941.55	226.42
941.85	226.45
942.15	226.48
942.45	226.53
942.75	226.52
943.04	226.51
943.34	226.53
943.64	226.53
943.94	226.53
944.24	226.55
944.54	226.57
944.84	226.58
945.13	226.57
945.43	226.57
945.73	226.57
946.03	226.58
946.33	226.58
946.62	226.58
946.92	226.57
947.22	226.59
947.52	226.59
947.82	226.64
948.11	226.62
948.41	226.57
948.71	226.55
949.01	226.54
949.31	226.55
949.60	226.56
949.90	226.60
950.20	226.61
950.50	226.59
950.79	226.60
951.09	226.63
951.39	226.63
951.69	226.65
951.98	226.65
952.28	226.65
952.58	226.66
952.87	226.67
953.17	226.69
953.47	226.68
953.76	226.66
954.06	226.64
954.36	226.63
954.66	226.64
954.95	226.69
955.25	226.72
955.55	226.70
955.84	226.66
956.14	226.68
956.44	226.68
956.73	226.67
957.03	226.69
957.32	226.68
957.62	226.69
957.92	226.73
958.21	226.73
958.51	226.84
958.81	226.85
959.10	226.85
959.40	226.88
959.69	226.89
959.99	226.95
960.29	226.95
960.58	226.94
960.88	227.01
961.17	227.00
961.47	227.01
961.76	227.00
962.06	227.04
962.36	227.01
962.65	227.00
962.95	227.02
963.24	226.97
963.54	226.94
963.83	226.91
964.13	226.91
964.42	226.92
964.72	226.83
965.01	226.84
965.31	226.80
965.60	226.77
965.90	226.84
966.19	226.80
966.49	226.77
966.78	226.78
967.08	226.73
967.37	226.71
967.67	226.67
967.96	226.68
968.26	226.64
968.55	226.65
968.85	226.65
969.14	226.60
969.43	226.63
969.73	226.65
970.02	226.69
970.32	226.64
970.61	226.61
970.91	226.56
971.20	226.54
971.49	226.58
971.79	226.60
972.08	226.48
972.38	226.50
972.67	226.53
972.96	226.54
973.26	226.49
973.55	226.50
973.85	226.49
974.14	226.49
974.43	226.51
974.73	226.48
975.02	226.46
975.31	226.47
975.61	226.46
975.90	226.43
976.19	226.41
976.49	226.39
976.78	226.40
977.07	226.43
977.37	226.42
977.66	226.39
977.95	226.33
978.24	226.36
978.54	226.36
978.83	226.32
979.12	226.31
979.42	226.33
979.71	226.31
980.00	226.36
980.29	226.37
980.59	226.37
980.88	226.41
981.17	226.42
981.46	226.45
981.76	226.48
982.05	226.53
982.34	226.52
982.63	226.52
982.93	226.52
983.22	226.53
983.51	226.54
983.80	226.55
984.09	226.58
984.39	226.56
984.68	226.57
984.97	226.58
985.26	226.58
985.55	226.61
985.85	226.60
986.14	226.60
986.43	226.60
986.72	226.61
987.01	226.58
987.30	226.58
987.59	226.54
987.89	226.51
988.18	226.42
988.47	226.47
988.76	226.49
989.05	226.52
989.34	226.49
989.63	226.53
989.92	226.53
990.22	226.53
990.51	226.56
990.80	226.55
991.09	226.60
991.38	226.61
991.67	226.59
991.96	226.60
992.25	226.59
992.54	226.59
992.83	226.57
993.12	226.59
993.41	226.63
993.70	226.67
993.99	226.68
994.28	226.73
994.58	226.70
994.87	226.70
995.16	226.65
995.45	226.65
995.74	226.62
996.03	226.66
996.32	226.68
996.61	226.70
996.90	226.68
997.19	226.66
997.48	226.65
997.77	226.64
998.06	226.65
998.34	226.63
998.63	226.61
998.92	226.59
999.21	226.60
999.50	226.59
999.79	226.57
1000.08	226.54
1000.37	226.55
1000.66	226.55
1000.95	226.57
1001.24	226.56
1001.53	226.58
1001.82	226.56
1002.11	226.51
1002.40	226.53
1002.68	226.55
1002.97	226.61
1003.26	226.57
1003.55	226.54
1003.84	226.55
1004.13	226.56
1004.42	226.53
1004.71	226.50
1004.99	226.51
1005.28	226.53
1005.57	226.49
1005.86	226.45
1006.15	226.47
1006.44	226.46
1006.72	226.44
1007.01	226.43
1007.30	226.45
1007.59	226.41
1007.88	226.42
1008.17	226.39
1008.45	226.32
1008.74	226.26
1009.03	226.22
1009.32	226.22
1009.60	226.23
1009.89	226.22
1010.18	226.20
1010.47	226.22
1010.76	226.27
1011.04	226.26
1011.33	226.23
1011.62	226.27
1011.91	226.29
1012.19	226.28
1012.48	226.28
1012.77	226.30
1013.05	226.34
1013.34	226.36
1013.63	226.37
1013.92	226.37
1014.20	226.41
1014.49	226.44
1014.78	226.45
1015.06	226.43
1015.35	226.44
1015.64	226.46
1015.92	226.49
1016.21	226.48
1016.50	226.50
1016.78	226.50
1017.07	226.50
1017.36	226.49
1017.64	226.49
1017.93	226.51
1018.22	226.54
1018.50	226.54
1018.79	226.54
1019.08	226.50
1019.36	226.51
1019.65	226.51
1019.93	226.55
1020.22	226.56
1020.51	226.62
1020.79	226.61
1021.08	226.80
1021.36	226.46
1021.65	226.67
1021.94	226.65
1022.22	226.66
1022.51	226.34
1022.79	227.02
1023.08	226.61
1023.36	227.79
1023.65	226.22
>>>>>End Processed Spectral Data<<<<<
