SpectraSuite Data File
++++++++++++++++++++++++++++++++++++
Date: Fri Feb 01 17:01:03 EST 2013
User: group
Dark Spectrum Present: No
Reference Spectrum Present: No
Number of Sampled Component Spectra: 1
Spectrometers: USB2E7196
Integration Time (usec): 35000 (USB2E7196)
Spectra Averaged: 100 (USB2E7196)
Boxcar Smoothing: 10 (USB2E7196)
Correct for Electrical Dark: No (USB2E7196)
Strobe/Lamp Enabled: No (USB2E7196)
Correct for Detector Non-linearity: No (USB2E7196)
Correct for Stray Light: No (USB2E7196)
Number of Pixels in Processed Spectrum: 2048
>>>>>Begin Processed Spectral Data<<<<<
339.09	0.00
339.48	213.14
339.86	214.29
340.24	215.67
340.63	217.46
341.01	220.56
341.39	219.32
341.78	220.57
342.16	222.59
342.54	222.75
342.93	211.33
343.31	222.00
343.69	222.53
344.07	222.99
344.46	223.41
344.84	223.76
345.22	223.96
345.60	224.25
345.99	224.44
346.37	224.55
346.75	224.68
347.13	224.76
347.52	224.81
347.90	224.85
348.28	224.84
348.66	224.86
349.05	224.86
349.43	224.90
349.81	224.95
350.19	225.02
350.57	225.09
350.96	225.18
351.34	225.27
351.72	225.37
352.10	225.48
352.48	225.58
352.87	225.66
353.25	225.74
353.63	225.79
354.01	225.90
354.39	225.99
354.77	226.06
355.15	226.18
355.54	226.26
355.92	226.35
356.30	226.48
356.68	226.70
357.06	226.80
357.44	226.87
357.82	226.95
358.20	227.03
358.58	227.14
358.97	227.24
359.35	227.34
359.73	227.44
360.11	227.52
360.49	227.60
360.87	227.64
361.25	227.73
361.63	227.84
362.01	227.87
362.39	227.94
362.77	227.99
363.15	228.04
363.53	228.07
363.91	228.11
364.29	228.14
364.67	228.06
365.05	228.09
365.43	228.16
365.81	228.19
366.19	228.24
366.57	228.29
366.95	228.28
367.33	228.26
367.71	228.25
368.09	228.26
368.47	228.24
368.85	228.23
369.23	228.23
369.61	228.20
369.99	228.21
370.37	228.19
370.75	228.24
371.13	228.18
371.51	228.16
371.89	228.13
372.27	228.07
372.65	228.01
373.03	227.98
373.41	227.88
373.78	227.82
374.16	227.71
374.54	227.60
374.92	227.53
375.30	227.49
375.68	227.42
376.06	227.37
376.44	227.29
376.82	227.26
377.19	227.20
377.57	227.11
377.95	227.02
378.33	226.93
378.71	226.78
379.09	226.73
379.47	226.67
379.84	226.57
380.22	226.48
380.60	226.39
380.98	226.29
381.36	226.23
381.73	226.15
382.11	226.10
382.49	226.07
382.87	225.99
383.25	225.89
383.62	225.93
384.00	225.83
384.38	225.75
384.76	225.69
385.13	225.64
385.51	225.61
385.89	225.57
386.27	225.51
386.64	225.46
387.02	225.41
387.40	225.35
387.78	225.33
388.15	225.33
388.53	225.28
388.91	225.24
389.29	225.22
389.66	225.20
390.04	225.15
390.42	225.10
390.79	225.09
391.17	225.09
391.55	224.94
391.92	224.89
392.30	224.91
392.68	224.90
393.05	224.88
393.43	224.85
393.81	224.84
394.18	224.83
394.56	224.85
394.94	224.87
395.31	224.90
395.69	224.97
396.06	224.98
396.44	225.01
396.82	225.03
397.19	225.09
397.57	225.10
397.95	225.14
398.32	225.16
398.70	225.21
399.07	225.25
399.45	225.33
399.82	225.41
400.20	225.44
400.58	225.49
400.95	225.49
401.33	225.57
401.70	225.70
402.08	225.75
402.45	225.83
402.83	225.92
403.20	225.98
403.58	226.04
403.95	226.14
404.33	226.28
404.71	226.37
405.08	226.53
405.46	226.67
405.83	226.81
406.21	226.99
406.58	227.15
406.96	227.32
407.33	227.47
407.70	227.63
408.08	227.89
408.45	228.10
408.83	228.39
409.20	228.61
409.58	228.79
409.95	229.07
410.33	229.34
410.70	229.56
411.08	229.84
411.45	230.14
411.82	230.43
412.20	230.77
412.57	231.22
412.95	231.52
413.32	231.92
413.69	232.35
414.07	232.75
414.44	233.19
414.82	233.65
415.19	234.22
415.56	234.78
415.94	235.36
416.31	235.96
416.68	236.55
417.06	237.26
417.43	237.92
417.81	238.68
418.18	239.46
418.55	240.36
418.93	241.26
419.30	242.13
419.67	243.09
420.04	244.05
420.42	245.02
420.79	246.24
421.16	247.39
421.54	248.56
421.91	249.75
422.28	251.04
422.66	252.39
423.03	253.66
423.40	254.98
423.77	256.34
424.15	257.78
424.52	259.24
424.89	260.83
425.26	262.39
425.64	263.84
426.01	265.43
426.38	267.03
426.75	268.69
427.13	270.42
427.50	272.21
427.87	274.06
428.24	275.91
428.61	277.60
428.99	279.53
429.36	281.64
429.73	283.73
430.10	285.72
430.47	287.76
430.85	289.87
431.22	292.07
431.59	294.44
431.96	296.66
432.33	299.11
432.70	301.47
433.08	304.24
433.45	306.82
433.82	309.39
434.19	312.29
434.56	315.09
434.93	317.69
435.30	320.27
435.68	323.13
436.05	325.93
436.42	328.69
436.79	331.19
437.16	333.84
437.53	336.60
437.90	339.36
438.27	342.06
438.64	344.82
439.01	347.40
439.38	349.60
439.75	351.77
440.13	354.25
440.50	356.55
440.87	358.40
441.24	360.34
441.61	362.52
441.98	363.95
442.35	365.74
442.72	367.61
443.09	369.37
443.46	370.38
443.83	370.96
444.20	371.50
444.57	372.30
444.94	372.62
445.31	373.00
445.68	373.37
446.05	373.44
446.42	373.11
446.79	372.68
447.16	372.25
447.53	371.97
447.90	370.88
448.27	369.78
448.64	368.25
449.01	367.10
449.37	365.10
449.74	363.21
450.11	361.00
450.48	358.54
450.85	356.07
451.22	353.94
451.59	351.90
451.96	350.01
452.33	347.47
452.70	345.08
453.07	342.27
453.43	339.36
453.80	336.65
454.17	334.03
454.54	331.58
454.91	328.89
455.28	326.23
455.65	323.75
456.02	321.30
456.38	319.13
456.75	316.53
457.12	314.33
457.49	312.15
457.86	309.99
458.23	308.17
458.59	306.14
458.96	304.09
459.33	302.28
459.70	300.40
460.07	298.89
460.43	297.23
460.80	295.64
461.17	294.27
461.54	292.79
461.91	291.39
462.27	289.93
462.64	288.70
463.01	287.37
463.38	286.12
463.74	284.78
464.11	283.64
464.48	282.64
464.85	281.54
465.21	280.70
465.58	279.79
465.95	278.68
466.32	277.79
466.68	276.91
467.05	276.02
467.42	275.14
467.78	274.21
468.15	273.33
468.52	272.69
468.88	271.81
469.25	271.08
469.62	270.47
469.98	269.81
470.35	269.18
470.72	268.59
471.08	267.93
471.45	267.37
471.82	266.84
472.18	266.25
472.55	265.85
472.92	265.34
473.28	264.90
473.65	264.48
474.02	264.06
474.38	263.67
474.75	263.36
475.11	263.01
475.48	262.77
475.85	262.56
476.21	262.29
476.58	262.10
476.94	261.91
477.31	261.72
477.67	261.59
478.04	261.48
478.41	261.40
478.77	261.44
479.14	261.36
479.50	261.39
479.87	261.46
480.23	261.52
480.60	261.59
480.96	261.71
481.33	261.93
481.69	262.13
482.06	262.32
482.42	262.55
482.79	262.85
483.15	263.19
483.52	263.57
483.88	263.97
484.25	264.37
484.61	264.82
484.98	265.28
485.34	265.82
485.71	266.43
486.07	267.03
486.44	267.59
486.80	268.35
487.17	269.08
487.53	269.89
487.90	270.72
488.26	271.63
488.62	272.60
488.99	273.58
489.35	274.62
489.72	275.76
490.08	276.93
490.44	278.16
490.81	279.45
491.17	280.79
491.54	282.24
491.90	283.81
492.26	285.45
492.63	287.19
492.99	288.97
493.36	290.86
493.72	292.94
494.08	295.05
494.45	297.28
494.81	299.63
495.17	302.05
495.54	304.65
495.90	307.38
496.26	310.17
496.63	313.10
496.99	316.20
497.35	319.44
497.72	322.85
498.08	326.30
498.44	329.94
498.80	333.88
499.17	337.90
499.53	342.04
499.89	346.34
500.26	350.80
500.62	355.47
500.98	360.39
501.34	365.44
501.71	370.70
502.07	376.09
502.43	381.68
502.79	387.43
503.16	393.43
503.52	399.62
503.88	405.95
504.24	412.55
504.60	419.34
504.97	426.45
505.33	433.71
505.69	441.43
506.05	449.11
506.41	456.88
506.78	465.00
507.14	473.39
507.50	482.07
507.86	491.07
508.22	500.20
508.59	509.28
508.95	518.66
509.31	528.40
509.67	538.36
510.03	548.53
510.39	559.00
510.75	569.70
511.12	580.46
511.48	591.62
511.84	602.89
512.20	614.26
512.56	625.97
512.92	637.94
513.28	650.13
513.64	662.48
514.00	675.05
514.37	687.82
514.73	700.65
515.09	713.45
515.45	726.44
515.81	739.80
516.17	753.57
516.53	767.63
516.89	781.66
517.25	795.68
517.61	809.93
517.97	824.18
518.33	838.32
518.69	852.80
519.05	867.50
519.41	882.39
519.77	897.64
520.13	912.84
520.49	927.96
520.85	943.01
521.21	958.31
521.57	974.24
521.93	989.61
522.29	1005.69
522.65	1021.62
523.01	1037.56
523.37	1053.20
523.73	1069.10
524.09	1084.80
524.45	1100.65
524.81	1117.00
525.17	1133.27
525.53	1149.75
525.89	1166.34
526.25	1182.90
526.61	1199.04
526.97	1215.50
527.33	1231.78
527.68	1247.99
528.04	1264.15
528.40	1280.41
528.76	1297.26
529.12	1313.45
529.48	1330.12
529.84	1345.73
530.20	1361.95
530.56	1378.57
530.91	1395.70
531.27	1412.03
531.63	1428.11
531.99	1444.37
532.35	1459.94
532.71	1475.64
533.07	1491.59
533.42	1507.12
533.78	1522.83
534.14	1538.70
534.50	1553.63
534.86	1569.01
535.21	1584.13
535.57	1599.71
535.93	1614.86
536.29	1629.26
536.65	1643.96
537.00	1658.28
537.36	1673.31
537.72	1687.69
538.08	1701.82
538.44	1715.35
538.79	1729.04
539.15	1742.35
539.51	1755.76
539.87	1769.74
540.22	1783.06
540.58	1796.43
540.94	1809.40
541.29	1821.89
541.65	1834.26
542.01	1847.23
542.37	1859.31
542.72	1871.23
543.08	1882.70
543.44	1894.87
543.79	1905.82
544.15	1916.65
544.51	1927.99
544.87	1938.62
545.22	1949.19
545.58	1959.26
545.94	1968.71
546.29	1978.31
546.65	1988.14
547.01	1997.27
547.36	2005.77
547.72	2014.25
548.07	2021.98
548.43	2029.96
548.79	2037.88
549.14	2045.43
549.50	2052.57
549.86	2060.12
550.21	2067.45
550.57	2074.58
550.92	2081.07
551.28	2088.22
551.64	2095.25
551.99	2101.79
552.35	2107.96
552.70	2114.07
553.06	2119.99
553.41	2126.43
553.77	2132.46
554.13	2138.47
554.48	2144.69
554.84	2150.39
555.19	2155.49
555.55	2160.93
555.90	2165.52
556.26	2170.54
556.61	2175.18
556.97	2179.68
557.32	2183.79
557.68	2187.88
558.03	2192.25
558.39	2195.89
558.74	2200.59
559.10	2204.55
559.45	2208.30
559.81	2212.62
560.16	2216.43
560.52	2219.85
560.87	2223.31
561.23	2226.10
561.58	2229.01
561.94	2231.62
562.29	2233.83
562.64	2236.74
563.00	2239.14
563.35	2242.73
563.71	2245.84
564.06	2249.08
564.42	2252.12
564.77	2254.83
565.12	2257.35
565.48	2259.45
565.83	2261.54
566.19	2262.90
566.54	2263.75
566.89	2264.88
567.25	2265.81
567.60	2267.31
567.96	2269.19
568.31	2270.09
568.66	2271.31
569.02	2272.14
569.37	2272.49
569.72	2273.70
570.08	2274.13
570.43	2274.42
570.78	2274.14
571.14	2272.94
571.49	2271.75
571.84	2271.72
572.20	2270.89
572.55	2269.98
572.90	2268.29
573.26	2267.13
573.61	2265.64
573.96	2264.27
574.31	2261.73
574.67	2258.87
575.02	2255.43
575.37	2252.12
575.72	2248.68
576.08	2245.34
576.43	2242.18
576.78	2238.90
577.13	2235.72
577.49	2232.72
577.84	2229.51
578.19	2225.85
578.54	2222.48
578.90	2218.59
579.25	2213.01
579.60	2208.33
579.95	2203.58
580.30	2199.01
580.66	2194.07
581.01	2189.18
581.36	2184.34
581.71	2180.41
582.06	2176.30
582.42	2172.04
582.77	2167.03
583.12	2162.63
583.47	2158.39
583.82	2153.67
584.17	2148.52
584.53	2143.34
584.88	2137.93
585.23	2132.27
585.58	2127.08
585.93	2121.63
586.28	2116.94
586.63	2112.15
586.98	2107.21
587.34	2102.59
587.69	2097.80
588.04	2092.61
588.39	2087.23
588.74	2080.92
589.09	2074.72
589.44	2067.97
589.79	2062.04
590.14	2056.66
590.49	2050.21
590.84	2043.82
591.19	2037.99
591.54	2031.72
591.89	2024.64
592.25	2018.01
592.60	2011.08
592.95	2003.85
593.30	1996.78
593.65	1989.49
594.00	1982.58
594.35	1975.47
594.70	1967.64
595.05	1960.75
595.40	1953.69
595.75	1946.39
596.10	1940.45
596.45	1934.00
596.80	1928.19
597.15	1921.91
597.50	1915.03
597.85	1908.65
598.19	1902.31
598.54	1895.41
598.89	1888.83
599.24	1883.14
599.59	1876.68
599.94	1870.58
600.29	1864.07
600.64	1857.58
600.99	1850.27
601.34	1843.64
601.69	1836.63
602.04	1830.06
602.39	1822.80
602.74	1816.18
603.08	1809.46
603.43	1802.92
603.78	1795.58
604.13	1788.35
604.48	1781.15
604.83	1774.34
605.18	1767.75
605.53	1759.80
605.87	1751.83
606.22	1744.78
606.57	1736.85
606.92	1729.49
607.27	1722.46
607.62	1715.79
607.96	1708.79
608.31	1702.38
608.66	1694.89
609.01	1687.56
609.36	1679.97
609.70	1672.06
610.05	1664.11
610.40	1656.59
610.75	1648.35
611.10	1640.97
611.44	1632.58
611.79	1624.60
612.14	1616.05
612.49	1606.84
612.83	1598.54
613.18	1590.54
613.53	1582.55
613.88	1574.10
614.22	1565.95
614.57	1557.40
614.92	1549.56
615.27	1541.97
615.61	1533.62
615.96	1525.60
616.31	1518.02
616.65	1510.71
617.00	1503.30
617.35	1495.64
617.70	1487.49
618.04	1479.06
618.39	1470.84
618.74	1463.25
619.08	1455.03
619.43	1447.37
619.78	1440.46
620.12	1433.32
620.47	1425.90
620.82	1417.69
621.16	1410.17
621.51	1402.65
621.85	1395.12
622.20	1386.51
622.55	1378.17
622.89	1370.43
623.24	1362.77
623.59	1355.41
623.93	1347.90
624.28	1340.70
624.62	1333.26
624.97	1326.07
625.32	1319.27
625.66	1312.28
626.01	1305.24
626.35	1297.86
626.70	1290.23
627.04	1282.58
627.39	1274.91
627.73	1267.47
628.08	1260.65
628.43	1253.51
628.77	1246.12
629.12	1238.55
629.46	1231.49
629.81	1224.04
630.15	1216.88
630.50	1209.64
630.84	1201.47
631.19	1193.53
631.53	1185.97
631.88	1178.44
632.22	1170.87
632.57	1163.54
632.91	1155.97
633.26	1148.67
633.60	1141.21
633.95	1133.99
634.29	1126.97
634.64	1120.27
634.98	1112.96
635.32	1105.90
635.67	1099.24
636.01	1092.64
636.36	1085.84
636.70	1079.19
637.05	1072.64
637.39	1066.11
637.73	1059.61
638.08	1053.67
638.42	1047.78
638.77	1041.40
639.11	1034.88
639.45	1028.44
639.80	1021.89
640.14	1015.52
640.49	1008.90
640.83	1002.65
641.17	996.51
641.52	990.16
641.86	983.67
642.20	977.83
642.55	971.43
642.89	965.01
643.23	958.42
643.58	952.69
643.92	946.64
644.26	940.71
644.61	934.62
644.95	928.73
645.29	922.31
645.64	915.51
645.98	909.16
646.32	903.23
646.66	897.33
647.01	891.58
647.35	885.99
647.69	880.15
648.04	874.60
648.38	868.81
648.72	862.94
649.06	856.97
649.41	851.09
649.75	845.22
650.09	839.35
650.43	833.61
650.78	827.41
651.12	821.44
651.46	815.68
651.80	810.12
652.14	804.60
652.49	799.24
652.83	794.20
653.17	788.57
653.51	782.93
653.85	777.50
654.20	771.89
654.54	765.90
654.88	760.17
655.22	754.37
655.56	748.73
655.90	743.28
656.25	738.14
656.59	732.75
656.93	727.70
657.27	722.56
657.61	717.20
657.95	712.20
658.29	707.17
658.64	701.92
658.98	696.54
659.32	691.04
659.66	685.84
660.00	680.46
660.34	675.52
660.68	670.57
661.02	665.55
661.36	660.84
661.70	656.35
662.05	652.01
662.39	647.73
662.73	643.27
663.07	638.90
663.41	634.46
663.75	630.03
664.09	625.42
664.43	620.99
664.77	616.90
665.11	612.68
665.45	608.51
665.79	604.49
666.13	600.36
666.47	596.31
666.81	592.15
667.15	588.07
667.49	584.16
667.83	580.35
668.17	576.46
668.51	572.39
668.85	568.27
669.19	564.44
669.53	560.64
669.87	556.83
670.21	553.11
670.55	549.36
670.89	545.93
671.23	542.51
671.57	539.06
671.91	535.50
672.25	531.99
672.58	528.50
672.92	525.03
673.26	521.87
673.60	518.70
673.94	515.63
674.28	512.71
674.62	509.81
674.96	506.74
675.30	503.81
675.64	500.87
675.97	498.15
676.31	495.30
676.65	492.31
676.99	489.59
677.33	486.73
677.67	483.96
678.01	480.95
678.34	478.03
678.68	475.15
679.02	472.34
679.36	469.56
679.70	466.87
680.04	464.20
680.37	461.37
680.71	458.57
681.05	455.96
681.39	453.24
681.73	450.57
682.06	448.05
682.40	445.50
682.74	442.96
683.08	440.35
683.42	437.79
683.75	435.34
684.09	432.80
684.43	430.38
684.77	427.90
685.10	425.58
685.44	423.25
685.78	421.00
686.12	418.76
686.45	416.48
686.79	414.16
687.13	411.94
687.46	409.78
687.80	407.65
688.14	405.40
688.48	403.39
688.81	401.15
689.15	398.99
689.49	396.87
689.82	394.84
690.16	392.79
690.50	390.89
690.83	388.95
691.17	386.98
691.51	385.05
691.84	383.24
692.18	381.25
692.52	379.26
692.85	377.30
693.19	375.46
693.52	373.62
693.86	371.82
694.20	370.03
694.53	368.28
694.87	366.45
695.21	364.73
695.54	362.88
695.88	361.18
696.21	359.51
696.55	357.85
696.88	356.16
697.22	354.52
697.56	352.87
697.89	351.23
698.23	349.63
698.56	348.01
698.90	346.46
699.23	344.87
699.57	343.38
699.90	341.84
700.24	340.27
700.58	338.74
700.91	337.28
701.25	335.83
701.58	334.42
701.92	333.10
702.25	331.75
702.59	330.39
702.92	329.11
703.26	327.81
703.59	326.50
703.93	325.30
704.26	324.06
704.60	322.77
704.93	321.49
705.26	320.25
705.60	319.12
705.93	317.92
706.27	316.90
706.60	315.80
706.94	314.74
707.27	313.63
707.61	312.58
707.94	311.54
708.27	310.42
708.61	309.34
708.94	308.30
709.28	307.29
709.61	306.31
709.94	305.29
710.28	304.26
710.61	303.30
710.95	302.22
711.28	301.28
711.61	300.31
711.95	299.38
712.28	298.45
712.61	297.41
712.95	296.49
713.28	295.59
713.61	294.68
713.95	293.77
714.28	292.91
714.61	292.02
714.95	291.16
715.28	290.35
715.61	289.50
715.95	288.64
716.28	287.74
716.61	286.92
716.95	286.10
717.28	285.30
717.61	284.51
717.94	283.78
718.28	282.92
718.61	282.21
718.94	281.51
719.27	280.84
719.61	280.23
719.94	279.54
720.27	278.85
720.60	278.18
720.94	277.59
721.27	277.01
721.60	276.45
721.93	275.87
722.27	275.29
722.60	274.75
722.93	274.21
723.26	273.72
723.59	273.13
723.93	272.58
724.26	272.07
724.59	271.50
724.92	270.99
725.25	270.56
725.59	270.03
725.92	269.53
726.25	268.99
726.58	268.49
726.91	267.98
727.24	267.50
727.57	267.04
727.91	266.49
728.24	266.00
728.57	265.50
728.90	265.00
729.23	264.55
729.56	264.10
729.89	263.59
730.22	263.10
730.55	262.67
730.89	262.23
731.22	261.77
731.55	261.35
731.88	260.90
732.21	260.48
732.54	260.06
732.87	259.62
733.20	259.25
733.53	258.83
733.86	258.48
734.19	258.03
734.52	257.66
734.85	257.37
735.18	256.95
735.51	256.60
735.84	256.27
736.17	255.91
736.50	255.50
736.83	255.30
737.16	254.98
737.49	254.65
737.82	254.29
738.15	253.96
738.48	253.62
738.81	253.30
739.14	252.95
739.47	252.64
739.80	252.32
740.13	252.00
740.46	251.70
740.79	251.38
741.12	251.12
741.45	250.80
741.78	250.47
742.11	250.22
742.44	249.87
742.77	249.62
743.10	249.34
743.43	249.05
743.75	248.69
744.08	248.51
744.41	248.23
744.74	248.00
745.07	247.75
745.40	247.53
745.73	247.32
746.06	247.06
746.39	246.80
746.71	246.58
747.04	246.31
747.37	246.05
747.70	245.81
748.03	245.59
748.36	245.37
748.68	245.12
749.01	244.84
749.34	244.63
749.67	244.34
750.00	244.10
750.33	243.96
750.65	243.72
750.98	243.40
751.31	243.19
751.64	242.97
751.97	242.78
752.29	242.55
752.62	242.28
752.95	242.09
753.28	241.88
753.60	241.63
753.93	241.46
754.26	241.27
754.59	241.05
754.91	240.79
755.24	240.58
755.57	240.41
755.90	240.25
756.22	240.07
756.55	239.88
756.88	239.68
757.20	239.44
757.53	239.22
757.86	239.05
758.19	238.88
758.51	238.70
758.84	238.48
759.17	238.32
759.49	238.16
759.82	238.02
760.15	237.85
760.47	237.73
760.80	237.56
761.13	237.44
761.45	237.28
761.78	237.19
762.11	237.04
762.43	236.88
762.76	236.75
763.08	236.63
763.41	236.54
763.74	236.38
764.06	236.25
764.39	236.14
764.71	235.99
765.04	235.88
765.37	235.77
765.69	235.63
766.02	235.54
766.34	235.44
766.67	235.27
767.00	235.20
767.32	235.12
767.65	235.06
767.97	234.94
768.30	234.83
768.62	234.70
768.95	234.60
769.27	234.49
769.60	234.39
769.92	234.29
770.25	234.17
770.57	234.05
770.90	233.95
771.22	233.86
771.55	233.76
771.87	233.66
772.20	233.58
772.52	233.60
772.85	233.60
773.17	233.49
773.50	233.39
773.82	233.26
774.15	233.13
774.47	232.95
774.80	232.86
775.12	232.79
775.45	232.70
775.77	232.63
776.09	232.58
776.42	232.50
776.74	232.41
777.07	232.37
777.39	232.31
777.72	232.21
778.04	232.11
778.36	232.04
778.69	231.96
779.01	231.86
779.33	231.69
779.66	231.51
779.98	231.42
780.31	231.38
780.63	231.38
780.95	231.33
781.28	231.29
781.60	231.19
781.92	231.09
782.25	231.02
782.57	230.90
782.89	230.80
783.22	230.73
783.54	230.66
783.86	230.56
784.19	230.48
784.51	230.46
784.83	230.43
785.16	230.39
785.48	230.33
785.80	230.27
786.12	230.22
786.45	230.18
786.77	230.17
787.09	230.13
787.42	230.03
787.74	229.96
788.06	229.88
788.38	229.85
788.71	229.79
789.03	229.76
789.35	229.78
789.67	229.71
789.99	229.67
790.32	229.61
790.64	229.55
790.96	229.58
791.28	229.51
791.61	229.43
791.93	229.39
792.25	229.36
792.57	229.37
792.89	229.36
793.21	229.29
793.54	229.25
793.86	229.18
794.18	229.13
794.50	229.08
794.82	229.07
795.14	229.03
795.47	229.03
795.79	228.96
796.11	228.90
796.43	228.85
796.75	228.81
797.07	228.78
797.39	228.76
797.71	228.65
798.04	228.65
798.36	228.65
798.68	228.61
799.00	228.56
799.32	228.52
799.64	228.48
799.96	228.49
800.28	228.45
800.60	228.42
800.92	228.39
801.24	228.35
801.56	228.32
801.89	228.29
802.21	228.29
802.53	228.26
802.85	228.23
803.17	228.30
803.49	228.23
803.81	228.20
804.13	228.15
804.45	228.11
804.77	228.08
805.09	228.03
805.41	227.99
805.73	227.95
806.05	227.91
806.37	227.86
806.69	227.80
807.01	227.77
807.33	227.73
807.65	227.66
807.97	227.69
808.28	227.66
808.60	227.64
808.92	227.59
809.24	227.64
809.56	227.60
809.88	227.50
810.20	227.52
810.52	227.51
810.84	227.47
811.16	227.44
811.48	227.39
811.80	227.43
812.12	227.38
812.43	227.37
812.75	227.34
813.07	227.32
813.39	227.28
813.71	227.21
814.03	227.21
814.35	227.22
814.67	227.14
814.98	227.12
815.30	227.11
815.62	227.06
815.94	226.98
816.26	226.95
816.58	226.93
816.89	226.92
817.21	226.89
817.53	226.92
817.85	226.90
818.17	226.88
818.48	226.78
818.80	226.79
819.12	226.73
819.44	226.67
819.76	226.65
820.07	226.60
820.39	226.63
820.71	226.61
821.03	226.57
821.34	226.54
821.66	226.53
821.98	226.51
822.30	226.48
822.61	226.49
822.93	226.49
823.25	226.47
823.57	226.44
823.88	226.45
824.20	226.39
824.52	226.38
824.83	226.39
825.15	226.37
825.47	226.36
825.79	226.38
826.10	226.37
826.42	226.31
826.74	226.33
827.05	226.30
827.37	226.29
827.69	226.31
828.00	226.30
828.32	226.25
828.64	226.24
828.95	226.28
829.27	226.25
829.58	226.23
829.90	226.23
830.22	226.22
830.53	226.17
830.85	226.19
831.17	226.17
831.48	226.14
831.80	226.14
832.11	226.15
832.43	226.10
832.75	226.07
833.06	226.16
833.38	226.11
833.69	226.10
834.01	226.10
834.32	226.08
834.64	226.10
834.96	226.10
835.27	226.09
835.59	226.07
835.90	226.06
836.22	226.05
836.53	226.03
836.85	226.02
837.16	226.14
837.48	226.10
837.79	226.10
838.11	226.11
838.42	226.10
838.74	226.10
839.05	226.10
839.37	226.13
839.68	226.05
840.00	226.08
840.31	226.08
840.63	226.07
840.94	226.04
841.26	226.03
841.57	226.06
841.88	226.07
842.20	226.00
842.51	225.99
842.83	226.00
843.14	226.10
843.46	226.09
843.77	226.02
844.08	226.03
844.40	226.01
844.71	226.01
845.03	226.02
845.34	225.99
845.65	225.99
845.97	225.98
846.28	226.00
846.60	226.00
846.91	226.01
847.22	226.01
847.54	226.02
847.85	226.05
848.16	226.03
848.48	226.03
848.79	226.12
849.10	226.15
849.42	226.15
849.73	226.04
850.04	226.04
850.36	226.04
850.67	226.07
850.98	226.07
851.30	226.08
851.61	226.07
851.92	226.10
852.23	226.14
852.55	226.17
852.86	226.18
853.17	226.16
853.49	226.17
853.80	226.19
854.11	226.19
854.42	226.18
854.74	226.16
855.05	226.15
855.36	226.10
855.67	226.11
855.99	226.11
856.30	226.23
856.61	226.25
856.92	226.20
857.23	226.19
857.55	226.16
857.86	226.14
858.17	226.14
858.48	226.11
858.79	226.09
859.11	226.07
859.42	226.07
859.73	226.07
860.04	226.07
860.35	226.01
860.66	225.98
860.98	225.94
861.29	225.93
861.60	225.90
861.91	225.90
862.22	225.85
862.53	225.81
862.84	225.69
863.16	225.67
863.47	225.67
863.78	225.65
864.09	225.66
864.40	225.65
864.71	225.63
865.02	225.66
865.33	225.61
865.64	225.57
865.95	225.56
866.27	225.60
866.58	225.59
866.89	225.60
867.20	225.58
867.51	225.60
867.82	225.59
868.13	225.66
868.44	225.59
868.75	225.61
869.06	225.60
869.37	225.60
869.68	225.57
869.99	225.56
870.30	225.56
870.61	225.58
870.92	225.56
871.23	225.56
871.54	225.56
871.85	225.59
872.16	225.60
872.47	225.59
872.78	225.51
873.09	225.50
873.40	225.50
873.71	225.53
874.02	225.53
874.33	225.54
874.64	225.47
874.95	225.51
875.26	225.48
875.56	225.50
875.87	225.51
876.18	225.51
876.49	225.59
876.80	225.58
877.11	225.54
877.42	225.58
877.73	225.58
878.04	225.54
878.35	225.56
878.66	225.57
878.96	225.52
879.27	225.53
879.58	225.51
879.89	225.48
880.20	225.50
880.51	225.52
880.82	225.53
881.12	225.57
881.43	225.58
881.74	225.60
882.05	225.59
882.36	225.58
882.67	225.61
882.97	225.51
883.28	225.51
883.59	225.49
883.90	225.47
884.21	225.48
884.51	225.49
884.82	225.43
885.13	225.44
885.44	225.47
885.74	225.51
886.05	225.51
886.36	225.53
886.67	225.51
886.98	225.53
887.28	225.54
887.59	225.50
887.90	225.51
888.20	225.49
888.51	225.49
888.82	225.50
889.13	225.53
889.43	225.63
889.74	225.65
890.05	225.66
890.35	225.68
890.66	225.69
890.97	225.66
891.28	225.68
891.58	225.69
891.89	225.71
892.20	225.66
892.50	225.70
892.81	225.69
893.12	225.69
893.42	225.63
893.73	225.63
894.04	225.66
894.34	225.66
894.65	225.65
894.95	225.65
895.26	225.61
895.57	225.64
895.87	225.55
896.18	225.55
896.48	225.57
896.79	225.53
897.10	225.53
897.40	225.57
897.71	225.58
898.01	225.58
898.32	225.58
898.63	225.60
898.93	225.58
899.24	225.59
899.54	225.55
899.85	225.51
900.15	225.49
900.46	225.46
900.76	225.46
901.07	225.46
901.38	225.46
901.68	225.50
901.99	225.41
902.29	225.41
902.60	225.41
902.90	225.41
903.21	225.42
903.51	225.42
903.82	225.42
904.12	225.41
904.43	225.40
904.73	225.38
905.03	225.34
905.34	225.41
905.64	225.36
905.95	225.38
906.25	225.43
906.56	225.42
906.86	225.41
907.17	225.39
907.47	225.40
907.77	225.38
908.08	225.33
908.38	225.37
908.69	225.36
908.99	225.37
909.30	225.37
909.60	225.34
909.90	225.32
910.21	225.31
910.51	225.30
910.81	225.28
911.12	225.29
911.42	225.29
911.73	225.18
912.03	225.22
912.33	225.21
912.64	225.19
912.94	225.19
913.24	225.14
913.55	225.13
913.85	225.12
914.15	225.11
914.46	225.11
914.76	225.09
915.06	225.09
915.37	225.07
915.67	225.04
915.97	225.03
916.27	224.99
916.58	224.95
916.88	224.95
917.18	224.93
917.49	224.98
917.79	225.01
918.09	225.02
918.39	225.04
918.70	225.04
919.00	225.08
919.30	225.13
919.60	225.16
919.91	225.15
920.21	225.18
920.51	225.20
920.81	225.21
921.12	225.26
921.42	225.24
921.72	225.25
922.02	225.27
922.32	225.32
922.63	225.32
922.93	225.41
923.23	225.45
923.53	225.47
923.83	225.44
924.13	225.44
924.44	225.48
924.74	225.52
925.04	225.57
925.34	225.58
925.64	225.53
925.94	225.50
926.24	225.58
926.55	225.56
926.85	225.58
927.15	225.61
927.45	225.62
927.75	225.65
928.05	225.63
928.35	225.64
928.65	225.65
928.95	225.67
929.26	225.64
929.56	225.67
929.86	225.69
930.16	225.68
930.46	225.64
930.76	225.61
931.06	225.58
931.36	225.52
931.66	225.52
931.96	225.53
932.26	225.59
932.56	225.53
932.86	225.57
933.16	225.61
933.46	225.58
933.76	225.51
934.06	225.52
934.36	225.59
934.66	225.58
934.96	225.56
935.26	225.58
935.56	225.57
935.86	225.52
936.16	225.47
936.46	225.48
936.76	225.51
937.06	225.50
937.36	225.47
937.66	225.47
937.96	225.46
938.26	225.46
938.56	225.43
938.86	225.43
939.16	225.42
939.46	225.37
939.76	225.37
940.06	225.40
940.35	225.35
940.65	225.26
940.95	225.25
941.25	225.24
941.55	225.20
941.85	225.20
942.15	225.18
942.45	225.24
942.75	225.18
943.04	225.18
943.34	225.17
943.64	225.16
943.94	225.14
944.24	225.12
944.54	225.12
944.84	225.10
945.13	225.08
945.43	225.07
945.73	225.05
946.03	225.04
946.33	225.03
946.62	225.06
946.92	225.06
947.22	225.04
947.52	225.06
947.82	225.08
948.11	225.05
948.41	225.07
948.71	225.00
949.01	224.98
949.31	224.96
949.60	224.96
949.90	224.96
950.20	224.99
950.50	224.96
950.79	224.96
951.09	224.98
951.39	224.96
951.69	224.91
951.98	224.93
952.28	224.91
952.58	224.91
952.87	224.87
953.17	224.89
953.47	224.90
953.76	224.87
954.06	224.83
954.36	224.80
954.66	224.78
954.95	224.78
955.25	224.81
955.55	224.84
955.84	224.79
956.14	224.82
956.44	224.82
956.73	224.83
957.03	224.81
957.32	224.82
957.62	224.83
957.92	224.87
958.21	224.87
958.51	224.96
958.81	224.95
959.10	224.99
959.40	225.00
959.69	225.03
959.99	225.05
960.29	225.07
960.58	225.12
960.88	225.17
961.17	225.19
961.47	225.22
961.76	225.20
962.06	225.26
962.36	225.28
962.65	225.28
962.95	225.29
963.24	225.27
963.54	225.31
963.83	225.35
964.13	225.35
964.42	225.32
964.72	225.28
965.01	225.33
965.31	225.33
965.60	225.31
965.90	225.35
966.19	225.34
966.49	225.37
966.78	225.36
967.08	225.35
967.37	225.37
967.67	225.37
967.96	225.39
968.26	225.37
968.55	225.34
968.85	225.35
969.14	225.35
969.43	225.38
969.73	225.36
970.02	225.34
970.32	225.34
970.61	225.37
970.91	225.32
971.20	225.30
971.49	225.27
971.79	225.32
972.08	225.26
972.38	225.26
972.67	225.23
972.96	225.25
973.26	225.25
973.55	225.28
973.85	225.28
974.14	225.26
974.43	225.33
974.73	225.33
975.02	225.32
975.31	225.32
975.61	225.31
975.90	225.28
976.19	225.29
976.49	225.28
976.78	225.28
977.07	225.29
977.37	225.28
977.66	225.31
977.95	225.25
978.24	225.26
978.54	225.27
978.83	225.28
979.12	225.27
979.42	225.25
979.71	225.20
980.00	225.22
980.29	225.24
980.59	225.17
980.88	225.19
981.17	225.19
981.46	225.16
981.76	225.19
982.05	225.20
982.34	225.16
982.63	225.14
982.93	225.14
983.22	225.14
983.51	225.13
983.80	225.12
984.09	225.12
984.39	225.11
984.68	225.08
984.97	225.07
985.26	225.04
985.55	225.05
985.85	225.03
986.14	225.02
986.43	225.01
986.72	225.00
987.01	224.93
987.30	224.92
987.59	224.90
987.89	224.86
988.18	224.83
988.47	224.83
988.76	224.84
989.05	224.81
989.34	224.79
989.63	224.81
989.92	224.80
990.22	224.82
990.51	224.81
990.80	224.78
991.09	224.78
991.38	224.78
991.67	224.74
991.96	224.71
992.25	224.69
992.54	224.65
992.83	224.67
993.12	224.71
993.41	224.70
993.70	224.76
993.99	224.80
994.28	224.84
994.58	224.86
994.87	224.84
995.16	224.82
995.45	224.85
995.74	224.81
996.03	224.80
996.32	224.81
996.61	224.84
996.90	224.83
997.19	224.83
997.48	224.88
997.77	224.89
998.06	224.91
998.34	224.93
998.63	224.95
998.92	224.97
999.21	224.96
999.50	225.01
999.79	224.96
1000.08	224.95
1000.37	224.93
1000.66	224.93
1000.95	224.94
1001.24	224.95
1001.53	224.97
1001.82	224.98
1002.11	224.97
1002.40	224.98
1002.68	225.04
1002.97	225.14
1003.26	225.15
1003.55	225.14
1003.84	225.17
1004.13	225.24
1004.42	225.23
1004.71	225.25
1004.99	225.23
1005.28	225.29
1005.57	225.27
1005.86	225.30
1006.15	225.31
1006.44	225.32
1006.72	225.34
1007.01	225.37
1007.30	225.39
1007.59	225.36
1007.88	225.40
1008.17	225.41
1008.45	225.40
1008.74	225.34
1009.03	225.30
1009.32	225.30
1009.60	225.28
1009.89	225.29
1010.18	225.22
1010.47	225.25
1010.76	225.27
1011.04	225.28
1011.33	225.37
1011.62	225.38
1011.91	225.40
1012.19	225.38
1012.48	225.40
1012.77	225.39
1013.05	225.44
1013.34	225.43
1013.63	225.47
1013.92	225.46
1014.20	225.47
1014.49	225.48
1014.78	225.50
1015.06	225.50
1015.35	225.51
1015.64	225.53
1015.92	225.52
1016.21	225.51
1016.50	225.49
1016.78	225.50
1017.07	225.52
1017.36	225.40
1017.64	225.37
1017.93	225.38
1018.22	225.38
1018.50	225.36
1018.79	225.38
1019.08	225.34
1019.36	225.34
1019.65	225.27
1019.93	225.29
1020.22	225.27
1020.51	225.31
1020.79	225.28
1021.08	225.19
1021.36	224.98
1021.65	225.51
1021.94	225.69
1022.22	224.94
1022.51	224.29
1022.79	225.67
1023.08	224.89
1023.36	226.25
1023.65	224.84
>>>>>End Processed Spectral Data<<<<<
