SpectraSuite Data File
++++++++++++++++++++++++++++++++++++
Date: Fri Feb 01 16:14:43 EST 2013
User: group
Dark Spectrum Present: No
Reference Spectrum Present: No
Number of Sampled Component Spectra: 1
Spectrometers: USB2E7196
Integration Time (usec): 35000 (USB2E7196)
Spectra Averaged: 100 (USB2E7196)
Boxcar Smoothing: 10 (USB2E7196)
Correct for Electrical Dark: No (USB2E7196)
Strobe/Lamp Enabled: No (USB2E7196)
Correct for Detector Non-linearity: No (USB2E7196)
Correct for Stray Light: No (USB2E7196)
Number of Pixels in Processed Spectrum: 2048
>>>>>Begin Processed Spectral Data<<<<<
339.09	0.00
339.48	214.14
339.86	216.12
340.24	217.46
340.63	218.99
341.01	221.35
341.39	220.74
341.78	222.35
342.16	223.65
342.54	224.07
342.93	212.62
343.31	223.37
343.69	223.91
344.07	224.35
344.46	224.78
344.84	225.16
345.22	225.40
345.60	225.67
345.99	225.88
346.37	226.03
346.75	226.14
347.13	226.22
347.52	226.30
347.90	226.35
348.28	226.37
348.66	226.44
349.05	226.40
349.43	226.43
349.81	226.51
350.19	226.60
350.57	226.65
350.96	226.75
351.34	226.83
351.72	226.95
352.10	227.05
352.48	227.12
352.87	227.15
353.25	227.22
353.63	227.27
354.01	227.31
354.39	227.38
354.77	227.47
355.15	227.56
355.54	227.63
355.92	227.67
356.30	227.72
356.68	227.83
357.06	227.92
357.44	227.97
357.82	228.00
358.20	228.07
358.58	228.13
358.97	228.18
359.35	228.25
359.73	228.32
360.11	228.35
360.49	228.39
360.87	228.45
361.25	228.49
361.63	228.59
362.01	228.64
362.39	228.64
362.77	228.65
363.15	228.68
363.53	228.69
363.91	228.70
364.29	228.72
364.67	228.64
365.05	228.67
365.43	228.70
365.81	228.73
366.19	228.76
366.57	228.76
366.95	228.73
367.33	228.68
367.71	228.63
368.09	228.62
368.47	228.62
368.85	228.57
369.23	228.58
369.61	228.49
369.99	228.48
370.37	228.46
370.75	228.47
371.13	228.42
371.51	228.38
371.89	228.36
372.27	228.31
372.65	228.27
373.03	228.20
373.41	228.13
373.78	228.06
374.16	227.96
374.54	227.92
374.92	227.85
375.30	227.81
375.68	227.76
376.06	227.75
376.44	227.64
376.82	227.61
377.19	227.52
377.57	227.44
377.95	227.35
378.33	227.28
378.71	227.17
379.09	227.12
379.47	227.03
379.84	226.96
380.22	226.92
380.60	226.85
380.98	226.79
381.36	226.72
381.73	226.64
382.11	226.62
382.49	226.54
382.87	226.46
383.25	226.39
383.62	226.43
384.00	226.34
384.38	226.29
384.76	226.25
385.13	226.21
385.51	226.18
385.89	226.13
386.27	226.08
386.64	226.04
387.02	225.95
387.40	225.91
387.78	225.86
388.15	225.80
388.53	225.76
388.91	225.73
389.29	225.71
389.66	225.72
390.04	225.67
390.42	225.66
390.79	225.69
391.17	225.68
391.55	225.53
391.92	225.52
392.30	225.54
392.68	225.51
393.05	225.53
393.43	225.55
393.81	225.58
394.18	225.61
394.56	225.63
394.94	225.69
395.31	225.71
395.69	225.77
396.06	225.87
396.44	225.93
396.82	225.95
397.19	226.02
397.57	226.03
397.95	226.09
398.32	226.12
398.70	226.15
399.07	226.25
399.45	226.34
399.82	226.42
400.20	226.46
400.58	226.51
400.95	226.55
401.33	226.64
401.70	226.79
402.08	226.87
402.45	226.96
402.83	227.08
403.20	227.18
403.58	227.29
403.95	227.40
404.33	227.51
404.71	227.63
405.08	227.80
405.46	227.93
405.83	228.07
406.21	228.21
406.58	228.40
406.96	228.55
407.33	228.74
407.70	228.91
408.08	229.19
408.45	229.41
408.83	229.62
409.20	229.83
409.58	229.97
409.95	230.22
410.33	230.47
410.70	230.71
411.08	231.00
411.45	231.26
411.82	231.55
412.20	231.88
412.57	232.30
412.95	232.58
413.32	232.98
413.69	233.38
414.07	233.81
414.44	234.21
414.82	234.69
415.19	235.25
415.56	235.81
415.94	236.31
416.31	236.97
416.68	237.58
417.06	238.26
417.43	238.97
417.81	239.74
418.18	240.54
418.55	241.39
418.93	242.25
419.30	243.17
419.67	244.09
420.04	245.03
420.42	246.03
420.79	247.21
421.16	248.37
421.54	249.53
421.91	250.75
422.28	252.04
422.66	253.33
423.03	254.59
423.40	255.86
423.77	257.33
424.15	258.75
424.52	260.28
424.89	261.87
425.26	263.39
425.64	264.83
426.01	266.39
426.38	268.03
426.75	269.70
427.13	271.43
427.50	273.24
427.87	275.14
428.24	276.98
428.61	278.72
428.99	280.67
429.36	282.76
429.73	284.84
430.10	286.84
430.47	288.94
430.85	291.09
431.22	293.36
431.59	295.69
431.96	297.92
432.33	300.36
432.70	302.74
433.08	305.59
433.45	308.23
433.82	310.82
434.19	313.66
434.56	316.44
434.93	319.08
435.30	321.74
435.68	324.62
436.05	327.43
436.42	330.25
436.79	332.76
437.16	335.49
437.53	338.32
437.90	341.13
438.27	343.87
438.64	346.66
439.01	349.29
439.38	351.54
439.75	353.72
440.13	356.23
440.50	358.53
440.87	360.31
441.24	362.26
441.61	364.46
441.98	365.98
442.35	367.81
442.72	369.69
443.09	371.43
443.46	372.44
443.83	373.08
444.20	373.57
444.57	374.40
444.94	374.70
445.31	375.04
445.68	375.37
446.05	375.43
446.42	375.02
446.79	374.59
447.16	374.14
447.53	373.82
447.90	372.65
448.27	371.51
448.64	369.95
449.01	368.82
449.37	366.83
449.74	364.96
450.11	362.71
450.48	360.24
450.85	357.76
451.22	355.61
451.59	353.60
451.96	351.67
452.33	349.04
452.70	346.70
453.07	343.85
453.43	341.02
453.80	338.23
454.17	335.59
454.54	333.06
454.91	330.34
455.28	327.64
455.65	325.16
456.02	322.77
456.38	320.64
456.75	317.95
457.12	315.73
457.49	313.53
457.86	311.37
458.23	309.55
458.59	307.48
458.96	305.40
459.33	303.52
459.70	301.67
460.07	300.20
460.43	298.47
460.80	296.86
461.17	295.40
461.54	293.96
461.91	292.55
462.27	291.10
462.64	289.88
463.01	288.57
463.38	287.30
463.74	285.91
464.11	284.76
464.48	283.75
464.85	282.62
465.21	281.75
465.58	280.86
465.95	279.74
466.32	278.84
466.68	277.95
467.05	277.07
467.42	276.16
467.78	275.24
468.15	274.37
468.52	273.69
468.88	272.82
469.25	272.03
469.62	271.40
469.98	270.73
470.35	270.06
470.72	269.45
471.08	268.79
471.45	268.25
471.82	267.71
472.18	267.13
472.55	266.73
472.92	266.20
473.28	265.72
473.65	265.26
474.02	264.83
474.38	264.43
474.75	264.07
475.11	263.73
475.48	263.46
475.85	263.26
476.21	263.05
476.58	262.88
476.94	262.72
477.31	262.57
477.67	262.45
478.04	262.36
478.41	262.32
478.77	262.38
479.14	262.34
479.50	262.35
479.87	262.39
480.23	262.48
480.60	262.53
480.96	262.65
481.33	262.89
481.69	263.09
482.06	263.36
482.42	263.61
482.79	263.90
483.15	264.23
483.52	264.58
483.88	264.92
484.25	265.35
484.61	265.78
484.98	266.22
485.34	266.79
485.71	267.40
486.07	268.00
486.44	268.58
486.80	269.32
487.17	270.08
487.53	270.94
487.90	271.80
488.26	272.77
488.62	273.77
488.99	274.74
489.35	275.78
489.72	276.89
490.08	278.08
490.44	279.31
490.81	280.65
491.17	281.98
491.54	283.51
491.90	285.02
492.26	286.71
492.63	288.46
492.99	290.22
493.36	292.09
493.72	294.11
494.08	296.20
494.45	298.44
494.81	300.79
495.17	303.20
495.54	305.76
495.90	308.47
496.26	311.26
496.63	314.23
496.99	317.33
497.35	320.56
497.72	323.97
498.08	327.48
498.44	331.14
498.80	335.08
499.17	339.10
499.53	343.33
499.89	347.71
500.26	352.20
500.62	356.89
500.98	361.88
501.34	366.95
501.71	372.34
502.07	377.77
502.43	383.43
502.79	389.28
503.16	395.31
503.52	401.52
503.88	407.92
504.24	414.53
504.60	421.41
504.97	428.57
505.33	435.90
505.69	443.63
506.05	451.40
506.41	459.28
506.78	467.39
507.14	475.74
507.50	484.42
507.86	493.48
508.22	502.66
508.59	511.88
508.95	521.52
509.31	531.27
509.67	541.38
510.03	551.67
510.39	562.16
510.75	573.03
511.12	584.02
511.48	595.35
511.84	606.85
512.20	618.39
512.56	630.33
512.92	642.44
513.28	654.82
513.64	667.27
514.00	679.95
514.37	692.96
514.73	706.12
515.09	719.14
515.45	732.41
515.81	746.02
516.17	759.95
516.53	774.09
516.89	788.30
517.25	802.39
517.61	816.86
517.97	831.35
518.33	845.65
518.69	860.41
519.05	875.31
519.41	890.39
519.77	905.83
520.13	921.26
520.49	936.61
520.85	952.01
521.21	967.75
521.57	983.98
521.93	999.64
522.29	1015.96
522.65	1032.20
523.01	1048.32
523.37	1064.32
523.73	1080.41
524.09	1096.46
524.45	1112.75
524.81	1129.47
525.17	1146.14
525.53	1162.91
525.89	1179.91
526.25	1196.76
526.61	1213.14
526.97	1229.86
527.33	1246.29
527.68	1262.81
528.04	1279.33
528.40	1295.75
528.76	1312.75
529.12	1329.26
529.48	1346.07
529.84	1362.04
530.20	1378.60
530.56	1395.57
530.91	1412.82
531.27	1429.55
531.63	1445.83
531.99	1462.29
532.35	1478.14
532.71	1494.00
533.07	1510.13
533.42	1525.77
533.78	1541.68
534.14	1557.78
534.50	1573.02
534.86	1588.85
535.21	1603.94
535.57	1619.72
535.93	1635.15
536.29	1649.86
536.65	1664.91
537.00	1679.57
537.36	1694.86
537.72	1709.27
538.08	1723.63
538.44	1737.36
538.79	1751.27
539.15	1764.81
539.51	1778.42
539.87	1792.71
540.22	1806.25
540.58	1820.07
540.94	1833.22
541.29	1845.91
541.65	1858.62
542.01	1871.77
542.37	1883.92
542.72	1896.27
543.08	1908.00
543.44	1920.33
543.79	1931.43
544.15	1942.31
544.51	1953.83
544.87	1964.54
545.22	1975.41
545.58	1985.49
545.94	1995.15
546.29	2005.01
546.65	2014.87
547.01	2024.27
547.36	2032.77
547.72	2041.35
548.07	2049.20
548.43	2057.44
548.79	2065.47
549.14	2072.98
549.50	2080.27
549.86	2087.99
550.21	2095.30
550.57	2102.40
550.92	2108.94
551.28	2116.08
551.64	2123.12
551.99	2129.60
552.35	2135.78
552.70	2141.75
553.06	2147.86
553.41	2154.25
553.77	2160.12
554.13	2166.00
554.48	2171.97
554.84	2177.55
555.19	2182.68
555.55	2187.73
555.90	2192.22
556.26	2197.04
556.61	2201.66
556.97	2206.02
557.32	2210.17
557.68	2214.32
558.03	2218.73
558.39	2222.34
558.74	2226.95
559.10	2230.84
559.45	2234.41
559.81	2238.63
560.16	2242.46
560.52	2245.38
560.87	2248.63
561.23	2251.29
561.58	2254.35
561.94	2256.90
562.29	2259.16
562.64	2261.98
563.00	2264.57
563.35	2268.18
563.71	2271.25
564.06	2274.51
564.42	2277.38
564.77	2279.82
565.12	2282.13
565.48	2283.93
565.83	2285.83
566.19	2287.08
566.54	2287.93
566.89	2289.32
567.25	2290.09
567.60	2291.40
567.96	2293.43
568.31	2294.38
568.66	2295.56
569.02	2296.25
569.37	2296.55
569.72	2297.62
570.08	2297.78
570.43	2297.87
570.78	2297.23
571.14	2295.92
571.49	2294.67
571.84	2294.39
572.20	2293.42
572.55	2292.19
572.90	2290.66
573.26	2289.49
573.61	2287.89
573.96	2286.25
574.31	2283.21
574.67	2280.24
575.02	2276.67
575.37	2273.18
575.72	2269.68
576.08	2266.24
576.43	2262.91
576.78	2259.40
577.13	2256.05
577.49	2252.81
577.84	2249.49
578.19	2245.75
578.54	2242.25
578.90	2238.09
579.25	2232.58
579.60	2227.74
579.95	2222.77
580.30	2217.85
580.66	2212.63
581.01	2207.67
581.36	2202.73
581.71	2198.69
582.06	2194.34
582.42	2190.02
582.77	2184.78
583.12	2180.20
583.47	2175.59
583.82	2170.61
584.17	2165.32
584.53	2159.87
584.88	2154.34
585.23	2148.59
585.58	2143.17
585.93	2137.50
586.28	2132.60
586.63	2127.49
586.98	2122.32
587.34	2117.81
587.69	2112.87
588.04	2107.71
588.39	2102.15
588.74	2095.63
589.09	2089.35
589.44	2082.56
589.79	2076.46
590.14	2070.93
590.49	2064.36
590.84	2057.83
591.19	2051.85
591.54	2045.35
591.89	2038.09
592.25	2031.37
592.60	2024.12
592.95	2016.66
593.30	2009.32
593.65	2001.81
594.00	1994.83
594.35	1987.64
594.70	1979.59
595.05	1972.45
595.40	1965.11
595.75	1957.54
596.10	1951.53
596.45	1944.87
596.80	1938.64
597.15	1932.04
597.50	1925.06
597.85	1918.49
598.19	1912.02
598.54	1905.16
598.89	1898.55
599.24	1892.71
599.59	1886.16
599.94	1880.00
600.29	1873.63
600.64	1867.16
600.99	1859.82
601.34	1853.01
601.69	1846.00
602.04	1839.22
602.39	1831.91
602.74	1825.25
603.08	1818.54
603.43	1811.69
603.78	1804.49
604.13	1797.33
604.48	1790.30
604.83	1783.52
605.18	1776.72
605.53	1768.68
605.87	1760.48
606.22	1753.30
606.57	1745.38
606.92	1738.01
607.27	1730.87
607.62	1724.08
607.96	1716.88
608.31	1710.39
608.66	1702.85
609.01	1695.40
609.36	1687.92
609.70	1679.99
610.05	1671.97
610.40	1664.45
610.75	1656.22
611.10	1648.46
611.44	1640.07
611.79	1631.90
612.14	1623.19
612.49	1613.88
612.83	1605.61
613.18	1597.50
613.53	1589.40
613.88	1580.80
614.22	1572.47
614.57	1563.75
614.92	1555.74
615.27	1548.18
615.61	1539.73
615.96	1531.67
616.31	1523.98
616.65	1516.54
617.00	1508.87
617.35	1501.09
617.70	1492.66
618.04	1484.07
618.39	1475.83
618.74	1468.27
619.08	1459.97
619.43	1452.33
619.78	1445.52
620.12	1438.40
620.47	1431.03
620.82	1422.94
621.16	1415.59
621.51	1407.99
621.85	1400.35
622.20	1391.72
622.55	1383.40
622.89	1375.60
623.24	1367.86
623.59	1360.36
623.93	1352.76
624.28	1345.62
624.62	1338.10
624.97	1330.89
625.32	1324.12
625.66	1317.24
626.01	1310.10
626.35	1302.70
626.70	1294.90
627.04	1287.13
627.39	1279.33
627.73	1271.82
628.08	1264.84
628.43	1257.53
628.77	1250.20
629.12	1242.75
629.46	1235.63
629.81	1228.06
630.15	1220.84
630.50	1213.44
630.84	1205.30
631.19	1197.40
631.53	1189.80
631.88	1182.19
632.22	1174.61
632.57	1167.46
632.91	1159.87
633.26	1152.52
633.60	1145.03
633.95	1137.95
634.29	1130.88
634.64	1124.14
634.98	1116.79
635.32	1109.66
635.67	1102.97
636.01	1096.28
636.36	1089.50
636.70	1082.95
637.05	1076.40
637.39	1069.95
637.73	1063.56
638.08	1057.74
638.42	1051.68
638.77	1045.36
639.11	1038.84
639.45	1032.41
639.80	1025.58
640.14	1019.20
640.49	1012.67
640.83	1006.47
641.17	1000.30
641.52	993.94
641.86	987.45
642.20	981.52
642.55	975.12
642.89	968.72
643.23	962.09
643.58	956.32
643.92	950.16
644.26	944.17
644.61	938.03
644.95	931.94
645.29	925.41
645.64	918.78
645.98	912.36
646.32	906.46
646.66	900.42
647.01	894.73
647.35	889.07
647.69	883.08
648.04	877.44
648.38	871.70
648.72	865.84
649.06	859.89
649.41	854.13
649.75	848.27
650.09	842.25
650.43	836.57
650.78	830.39
651.12	824.46
651.46	818.78
651.80	813.20
652.14	807.85
652.49	802.44
652.83	797.27
653.17	791.71
653.51	786.06
653.85	780.70
654.20	775.10
654.54	769.05
654.88	763.38
655.22	757.53
655.56	751.74
655.90	746.20
656.25	740.88
656.59	735.52
656.93	730.42
657.27	725.34
657.61	719.88
657.95	714.79
658.29	709.72
658.64	704.40
658.98	698.99
659.32	693.56
659.66	688.37
660.00	683.05
660.34	678.06
660.68	673.14
661.02	668.06
661.36	663.34
661.70	658.81
662.05	654.45
662.39	650.19
662.73	645.74
663.07	641.41
663.41	637.00
663.75	632.47
664.09	627.94
664.43	623.51
664.77	619.43
665.11	615.22
665.45	611.00
665.79	606.93
666.13	602.82
666.47	598.61
666.81	594.45
667.15	590.29
667.49	586.32
667.83	582.46
668.17	578.53
668.51	574.42
668.85	570.36
669.19	566.47
669.53	562.60
669.87	558.75
670.21	555.00
670.55	551.30
670.89	547.83
671.23	544.36
671.57	540.83
671.91	537.30
672.25	533.69
672.58	530.17
672.92	526.67
673.26	523.39
673.60	520.28
673.94	517.16
674.28	514.22
674.62	511.27
674.96	508.17
675.30	505.24
675.64	502.31
675.97	499.50
676.31	496.62
676.65	493.63
676.99	490.83
677.33	487.95
677.67	485.13
678.01	482.13
678.34	479.17
678.68	476.29
679.02	473.50
679.36	470.76
679.70	468.03
680.04	465.35
680.37	462.57
680.71	459.75
681.05	457.21
681.39	454.52
681.73	451.87
682.06	449.31
682.40	446.79
682.74	444.25
683.08	441.70
683.42	439.11
683.75	436.61
684.09	434.08
684.43	431.59
684.77	429.18
685.10	426.82
685.44	424.50
685.78	422.20
686.12	419.88
686.45	417.66
686.79	415.40
687.13	413.23
687.46	411.05
687.80	408.90
688.14	406.65
688.48	404.62
688.81	402.36
689.15	400.23
689.49	398.08
689.82	396.02
690.16	393.93
690.50	392.03
690.83	390.18
691.17	388.32
691.51	386.48
691.84	384.61
692.18	382.69
692.52	380.70
692.85	378.79
693.19	376.93
693.52	375.03
693.86	373.20
694.20	371.39
694.53	369.57
694.87	367.75
695.21	365.90
695.54	364.07
695.88	362.35
696.21	360.63
696.55	358.99
696.88	357.30
697.22	355.67
697.56	353.99
697.89	352.31
698.23	350.68
698.56	349.05
698.90	347.48
699.23	345.84
699.57	344.32
699.90	342.79
700.24	341.22
700.58	339.72
700.91	338.24
701.25	336.78
701.58	335.47
701.92	334.13
702.25	332.79
702.59	331.42
702.92	330.12
703.26	328.83
703.59	327.50
703.93	326.32
704.26	325.09
704.60	323.79
704.93	322.51
705.26	321.24
705.60	320.00
705.93	318.84
706.27	317.78
706.60	316.71
706.94	315.63
707.27	314.54
707.61	313.48
707.94	312.45
708.27	311.40
708.61	310.27
708.94	309.23
709.28	308.27
709.61	307.30
709.94	306.31
710.28	305.27
710.61	304.26
710.95	303.15
711.28	302.23
711.61	301.29
711.95	300.32
712.28	299.38
712.61	298.44
712.95	297.49
713.28	296.60
713.61	295.70
713.95	294.82
714.28	293.95
714.61	293.02
714.95	292.17
715.28	291.28
715.61	290.40
715.95	289.54
716.28	288.65
716.61	287.78
716.95	286.96
717.28	286.20
717.61	285.46
717.94	284.75
718.28	283.91
718.61	283.17
718.94	282.47
719.27	281.78
719.61	281.11
719.94	280.46
720.27	279.74
720.60	279.05
720.94	278.37
721.27	277.72
721.60	277.18
721.93	276.56
722.27	276.00
722.60	275.49
722.93	274.92
723.26	274.39
723.59	273.88
723.93	273.31
724.26	272.77
724.59	272.20
724.92	271.70
725.25	271.22
725.59	270.73
725.92	270.22
726.25	269.73
726.58	269.26
726.91	268.78
727.24	268.29
727.57	267.83
727.91	267.33
728.24	266.92
728.57	266.45
728.90	266.00
729.23	265.52
729.56	265.03
729.89	264.58
730.22	264.11
730.55	263.61
730.89	263.22
731.22	262.79
731.55	262.38
731.88	261.95
732.21	261.54
732.54	261.13
732.87	260.73
733.20	260.33
733.53	259.92
733.86	259.59
734.19	259.26
734.52	258.90
734.85	258.63
735.18	258.25
735.51	257.88
735.84	257.52
736.17	257.18
736.50	256.82
736.83	256.60
737.16	256.28
737.49	255.99
737.82	255.64
738.15	255.29
738.48	254.95
738.81	254.61
739.14	254.32
739.47	253.97
739.80	253.66
740.13	253.36
740.46	253.05
740.79	252.72
741.12	252.40
741.45	252.09
741.78	251.73
742.11	251.46
742.44	251.15
742.77	250.90
743.10	250.59
743.43	250.27
743.75	249.87
744.08	249.71
744.41	249.41
744.74	249.12
745.07	248.85
745.40	248.62
745.73	248.35
746.06	248.08
746.39	247.81
746.71	247.55
747.04	247.27
747.37	246.99
747.70	246.70
748.03	246.43
748.36	246.17
748.68	245.92
749.01	245.62
749.34	245.39
749.67	245.10
750.00	244.90
750.33	244.73
750.65	244.47
750.98	244.10
751.31	243.87
751.64	243.65
751.97	243.49
752.29	243.24
752.62	243.01
752.95	242.75
753.28	242.52
753.60	242.30
753.93	242.13
754.26	241.94
754.59	241.70
754.91	241.47
755.24	241.28
755.57	241.08
755.90	240.89
756.22	240.68
756.55	240.48
756.88	240.28
757.20	240.05
757.53	239.87
757.86	239.70
758.19	239.54
758.51	239.36
758.84	239.14
759.17	238.97
759.49	238.78
759.82	238.62
760.15	238.49
760.47	238.35
760.80	238.14
761.13	238.01
761.45	237.88
761.78	237.76
762.11	237.64
762.43	237.45
762.76	237.28
763.08	237.15
763.41	237.07
763.74	236.94
764.06	236.79
764.39	236.66
764.71	236.53
765.04	236.38
765.37	236.30
765.69	236.18
766.02	236.05
766.34	235.94
766.67	235.86
767.00	235.73
767.32	235.65
767.65	235.62
767.97	235.49
768.30	235.36
768.62	235.25
768.95	235.10
769.27	235.05
769.60	235.00
769.92	234.90
770.25	234.76
770.57	234.62
770.90	234.55
771.22	234.44
771.55	234.34
771.87	234.25
772.20	234.12
772.52	234.12
772.85	234.17
773.17	234.10
773.50	233.99
773.82	233.92
774.15	233.79
774.47	233.63
774.80	233.55
775.12	233.49
775.45	233.40
775.77	233.35
776.09	233.27
776.42	233.16
776.74	233.11
777.07	233.04
777.39	232.96
777.72	232.91
778.04	232.88
778.36	232.82
778.69	232.79
779.01	232.74
779.33	232.61
779.66	232.42
779.98	232.35
780.31	232.30
780.63	232.28
780.95	232.25
781.28	232.21
781.60	232.17
781.92	232.10
782.25	232.10
782.57	232.06
782.89	232.01
783.22	231.96
783.54	231.93
783.86	231.88
784.19	231.85
784.51	231.77
784.83	231.73
785.16	231.69
785.48	231.64
785.80	231.57
786.12	231.50
786.45	231.44
786.77	231.36
787.09	231.31
787.42	231.22
787.74	231.18
788.06	231.15
788.38	231.10
788.71	231.04
789.03	230.95
789.35	230.92
789.67	230.86
789.99	230.81
790.32	230.72
790.64	230.67
790.96	230.67
791.28	230.64
791.61	230.57
791.93	230.52
792.25	230.44
792.57	230.46
792.89	230.40
793.21	230.35
793.54	230.31
793.86	230.24
794.18	230.19
794.50	230.10
794.82	230.05
795.14	229.98
795.47	229.98
795.79	229.93
796.11	229.85
796.43	229.80
796.75	229.76
797.07	229.70
797.39	229.67
797.71	229.58
798.04	229.54
798.36	229.50
798.68	229.45
799.00	229.42
799.32	229.34
799.64	229.35
799.96	229.31
800.28	229.31
800.60	229.27
800.92	229.22
801.24	229.20
801.56	229.20
801.89	229.17
802.21	229.10
802.53	229.07
802.85	229.06
803.17	229.07
803.49	229.04
803.81	228.99
804.13	228.97
804.45	228.93
804.77	228.91
805.09	228.88
805.41	228.83
805.73	228.79
806.05	228.77
806.37	228.72
806.69	228.72
807.01	228.67
807.33	228.66
807.65	228.65
807.97	228.68
808.28	228.62
808.60	228.62
808.92	228.61
809.24	228.66
809.56	228.63
809.88	228.60
810.20	228.58
810.52	228.59
810.84	228.55
811.16	228.57
811.48	228.52
811.80	228.55
812.12	228.52
812.43	228.55
812.75	228.53
813.07	228.52
813.39	228.51
813.71	228.50
814.03	228.50
814.35	228.47
814.67	228.45
814.98	228.46
815.30	228.44
815.62	228.41
815.94	228.31
816.26	228.34
816.58	228.29
816.89	228.32
817.21	228.28
817.53	228.26
817.85	228.21
818.17	228.21
818.48	228.14
818.80	228.16
819.12	228.11
819.44	228.07
819.76	228.05
820.07	228.03
820.39	228.05
820.71	228.04
821.03	228.00
821.34	227.97
821.66	227.95
821.98	227.92
822.30	227.90
822.61	227.97
822.93	227.89
823.25	227.88
823.57	227.83
823.88	227.85
824.20	227.85
824.52	227.82
824.83	227.78
825.15	227.76
825.47	227.76
825.79	227.73
826.10	227.73
826.42	227.71
826.74	227.70
827.05	227.61
827.37	227.58
827.69	227.58
828.00	227.53
828.32	227.50
828.64	227.50
828.95	227.54
829.27	227.48
829.58	227.47
829.90	227.47
830.22	227.46
830.53	227.39
830.85	227.39
831.17	227.40
831.48	227.42
831.80	227.40
832.11	227.39
832.43	227.39
832.75	227.34
833.06	227.41
833.38	227.32
833.69	227.35
834.01	227.38
834.32	227.35
834.64	227.32
834.96	227.32
835.27	227.33
835.59	227.26
835.90	227.23
836.22	227.21
836.53	227.16
836.85	227.13
837.16	227.21
837.48	227.19
837.79	227.18
838.11	227.16
838.42	227.15
838.74	227.13
839.05	227.12
839.37	227.14
839.68	227.08
840.00	227.06
840.31	227.07
840.63	227.04
840.94	227.01
841.26	227.01
841.57	227.02
841.88	227.02
842.20	227.01
842.51	227.04
842.83	227.03
843.14	227.13
843.46	227.16
843.77	227.08
844.08	227.09
844.40	227.07
844.71	227.05
845.03	227.03
845.34	227.02
845.65	227.03
845.97	227.02
846.28	227.00
846.60	227.04
846.91	227.01
847.22	227.02
847.54	227.06
847.85	227.05
848.16	227.04
848.48	226.99
848.79	227.01
849.10	227.01
849.42	226.98
849.73	226.90
850.04	226.88
850.36	226.88
850.67	226.89
850.98	226.88
851.30	226.89
851.61	226.91
851.92	226.89
852.23	226.87
852.55	226.87
852.86	226.87
853.17	226.87
853.49	226.90
853.80	226.90
854.11	226.91
854.42	226.95
854.74	226.93
855.05	226.92
855.36	226.90
855.67	226.88
855.99	226.91
856.30	227.03
856.61	227.02
856.92	227.03
857.23	227.04
857.55	227.03
857.86	227.01
858.17	227.04
858.48	227.03
858.79	227.03
859.11	227.02
859.42	227.05
859.73	227.06
860.04	227.06
860.35	227.04
860.66	227.02
860.98	226.99
861.29	227.01
861.60	227.02
861.91	227.04
862.22	227.03
862.53	227.02
862.84	226.87
863.16	226.87
863.47	226.86
863.78	226.84
864.09	226.84
864.40	226.86
864.71	226.80
865.02	226.84
865.33	226.83
865.64	226.80
865.95	226.78
866.27	226.81
866.58	226.78
866.89	226.79
867.20	226.76
867.51	226.71
867.82	226.68
868.13	226.71
868.44	226.67
868.75	226.70
869.06	226.71
869.37	226.74
869.68	226.71
869.99	226.73
870.30	226.72
870.61	226.76
870.92	226.75
871.23	226.76
871.54	226.75
871.85	226.73
872.16	226.79
872.47	226.78
872.78	226.71
873.09	226.70
873.40	226.67
873.71	226.67
874.02	226.69
874.33	226.68
874.64	226.66
874.95	226.68
875.26	226.63
875.56	226.64
875.87	226.63
876.18	226.64
876.49	226.71
876.80	226.72
877.11	226.67
877.42	226.65
877.73	226.64
878.04	226.63
878.35	226.65
878.66	226.63
878.96	226.62
879.27	226.64
879.58	226.65
879.89	226.64
880.20	226.65
880.51	226.68
880.82	226.69
881.12	226.66
881.43	226.63
881.74	226.63
882.05	226.59
882.36	226.58
882.67	226.58
882.97	226.48
883.28	226.46
883.59	226.44
883.90	226.44
884.21	226.45
884.51	226.44
884.82	226.42
885.13	226.39
885.44	226.36
885.74	226.35
886.05	226.33
886.36	226.35
886.67	226.35
886.98	226.38
887.28	226.42
887.59	226.45
887.90	226.46
888.20	226.46
888.51	226.51
888.82	226.50
889.13	226.53
889.43	226.59
889.74	226.57
890.05	226.59
890.35	226.63
890.66	226.62
890.97	226.62
891.28	226.63
891.58	226.65
891.89	226.67
892.20	226.68
892.50	226.68
892.81	226.68
893.12	226.66
893.42	226.58
893.73	226.54
894.04	226.55
894.34	226.57
894.65	226.54
894.95	226.52
895.26	226.55
895.57	226.58
895.87	226.50
896.18	226.52
896.48	226.55
896.79	226.54
897.10	226.54
897.40	226.53
897.71	226.53
898.01	226.51
898.32	226.51
898.63	226.50
898.93	226.48
899.24	226.47
899.54	226.48
899.85	226.49
900.15	226.46
900.46	226.45
900.76	226.42
901.07	226.45
901.38	226.46
901.68	226.45
901.99	226.41
902.29	226.39
902.60	226.35
902.90	226.31
903.21	226.28
903.51	226.26
903.82	226.30
904.12	226.30
904.43	226.29
904.73	226.27
905.03	226.29
905.34	226.37
905.64	226.37
905.95	226.36
906.25	226.34
906.56	226.33
906.86	226.29
907.17	226.26
907.47	226.26
907.77	226.22
908.08	226.18
908.38	226.14
908.69	226.17
908.99	226.18
909.30	226.19
909.60	226.18
909.90	226.21
910.21	226.14
910.51	226.13
910.81	226.15
911.12	226.17
911.42	226.16
911.73	226.08
912.03	226.08
912.33	226.09
912.64	226.10
912.94	226.12
913.24	226.18
913.55	226.19
913.85	226.15
914.15	226.18
914.46	226.23
914.76	226.25
915.06	226.22
915.37	226.21
915.67	226.20
915.97	226.24
916.27	226.20
916.58	226.22
916.88	226.21
917.18	226.19
917.49	226.24
917.79	226.22
918.09	226.23
918.39	226.25
918.70	226.22
919.00	226.22
919.30	226.27
919.60	226.26
919.91	226.26
920.21	226.29
920.51	226.29
920.81	226.24
921.12	226.27
921.42	226.26
921.72	226.29
922.02	226.34
922.32	226.31
922.63	226.33
922.93	226.39
923.23	226.40
923.53	226.41
923.83	226.38
924.13	226.39
924.44	226.40
924.74	226.41
925.04	226.43
925.34	226.44
925.64	226.41
925.94	226.42
926.24	226.47
926.55	226.45
926.85	226.44
927.15	226.46
927.45	226.45
927.75	226.48
928.05	226.46
928.35	226.44
928.65	226.43
928.95	226.45
929.26	226.42
929.56	226.44
929.86	226.43
930.16	226.39
930.46	226.39
930.76	226.42
931.06	226.40
931.36	226.40
931.66	226.41
931.96	226.41
932.26	226.40
932.56	226.38
932.86	226.39
933.16	226.40
933.46	226.41
933.76	226.38
934.06	226.39
934.36	226.43
934.66	226.42
934.96	226.43
935.26	226.44
935.56	226.44
935.86	226.42
936.16	226.41
936.46	226.41
936.76	226.39
937.06	226.35
937.36	226.30
937.66	226.31
937.96	226.31
938.26	226.29
938.56	226.28
938.86	226.27
939.16	226.28
939.46	226.29
939.76	226.28
940.06	226.29
940.35	226.26
940.65	226.22
940.95	226.22
941.25	226.19
941.55	226.13
941.85	226.13
942.15	226.14
942.45	226.19
942.75	226.16
943.04	226.19
943.34	226.18
943.64	226.19
943.94	226.17
944.24	226.13
944.54	226.09
944.84	226.08
945.13	226.03
945.43	226.00
945.73	225.97
946.03	225.96
946.33	225.97
946.62	225.97
946.92	225.97
947.22	225.95
947.52	225.97
947.82	225.98
948.11	225.96
948.41	225.92
948.71	225.88
949.01	225.89
949.31	225.84
949.60	225.84
949.90	225.86
950.20	225.85
950.50	225.89
950.79	225.89
951.09	225.90
951.39	225.94
951.69	225.92
951.98	225.94
952.28	225.93
952.58	225.91
952.87	225.91
953.17	225.92
953.47	225.92
953.76	225.89
954.06	225.93
954.36	225.90
954.66	225.90
954.95	225.93
955.25	225.95
955.55	225.98
955.84	225.98
956.14	226.00
956.44	226.01
956.73	225.95
957.03	225.97
957.32	225.97
957.62	225.96
957.92	225.97
958.21	225.97
958.51	226.10
958.81	226.12
959.10	226.12
959.40	226.13
959.69	226.16
959.99	226.19
960.29	226.18
960.58	226.18
960.88	226.24
961.17	226.25
961.47	226.26
961.76	226.24
962.06	226.26
962.36	226.20
962.65	226.22
962.95	226.25
963.24	226.28
963.54	226.30
963.83	226.34
964.13	226.36
964.42	226.32
964.72	226.23
965.01	226.22
965.31	226.24
965.60	226.24
965.90	226.31
966.19	226.28
966.49	226.28
966.78	226.32
967.08	226.31
967.37	226.28
967.67	226.27
967.96	226.29
968.26	226.28
968.55	226.30
968.85	226.28
969.14	226.24
969.43	226.23
969.73	226.21
970.02	226.17
970.32	226.14
970.61	226.15
970.91	226.12
971.20	226.11
971.49	226.05
971.79	226.05
972.08	225.97
972.38	225.99
972.67	226.00
972.96	225.97
973.26	225.94
973.55	225.98
973.85	225.97
974.14	226.01
974.43	225.99
974.73	225.99
975.02	225.99
975.31	226.00
975.61	225.99
975.90	225.99
976.19	225.98
976.49	226.01
976.78	226.01
977.07	226.00
977.37	225.99
977.66	226.01
977.95	226.00
978.24	225.99
978.54	226.00
978.83	225.95
979.12	225.94
979.42	225.94
979.71	225.95
980.00	225.91
980.29	225.86
980.59	225.85
980.88	225.86
981.17	225.86
981.46	225.85
981.76	225.85
982.05	225.87
982.34	225.88
982.63	225.87
982.93	225.87
983.22	225.85
983.51	225.87
983.80	225.89
984.09	225.89
984.39	225.88
984.68	225.83
984.97	225.83
985.26	225.83
985.55	225.84
985.85	225.75
986.14	225.81
986.43	225.82
986.72	225.82
987.01	225.79
987.30	225.81
987.59	225.81
987.89	225.82
988.18	225.77
988.47	225.77
988.76	225.75
989.05	225.76
989.34	225.79
989.63	225.81
989.92	225.80
990.22	225.79
990.51	225.81
990.80	225.80
991.09	225.83
991.38	225.84
991.67	225.82
991.96	225.85
992.25	225.84
992.54	225.84
992.83	225.85
993.12	225.87
993.41	225.86
993.70	225.93
993.99	225.98
994.28	226.03
994.58	226.06
994.87	226.05
995.16	226.06
995.45	226.07
995.74	226.06
996.03	226.10
996.32	226.14
996.61	226.19
996.90	226.23
997.19	226.27
997.48	226.28
997.77	226.28
998.06	226.30
998.34	226.30
998.63	226.29
998.92	226.32
999.21	226.34
999.50	226.37
999.79	226.33
1000.08	226.31
1000.37	226.31
1000.66	226.30
1000.95	226.36
1001.24	226.35
1001.53	226.37
1001.82	226.34
1002.11	226.29
1002.40	226.29
1002.68	226.30
1002.97	226.37
1003.26	226.34
1003.55	226.33
1003.84	226.34
1004.13	226.38
1004.42	226.33
1004.71	226.34
1004.99	226.34
1005.28	226.32
1005.57	226.33
1005.86	226.29
1006.15	226.29
1006.44	226.26
1006.72	226.27
1007.01	226.24
1007.30	226.25
1007.59	226.22
1007.88	226.21
1008.17	226.23
1008.45	226.20
1008.74	226.15
1009.03	226.09
1009.32	226.09
1009.60	226.10
1009.89	226.11
1010.18	226.07
1010.47	226.10
1010.76	226.11
1011.04	226.08
1011.33	226.10
1011.62	226.07
1011.91	226.07
1012.19	226.04
1012.48	226.04
1012.77	226.02
1013.05	226.05
1013.34	226.03
1013.63	226.04
1013.92	226.05
1014.20	226.03
1014.49	226.03
1014.78	226.01
1015.06	225.96
1015.35	225.94
1015.64	225.95
1015.92	225.92
1016.21	225.94
1016.50	225.93
1016.78	225.91
1017.07	225.88
1017.36	225.86
1017.64	225.87
1017.93	225.88
1018.22	225.87
1018.50	225.85
1018.79	225.86
1019.08	225.80
1019.36	225.79
1019.65	225.73
1019.93	225.75
1020.22	225.76
1020.51	225.81
1020.79	225.83
1021.08	225.61
1021.36	225.60
1021.65	226.02
1021.94	225.51
1022.22	225.51
1022.51	225.17
1022.79	226.14
1023.08	225.81
1023.36	227.17
1023.65	226.07
>>>>>End Processed Spectral Data<<<<<
