SpectraSuite Data File
++++++++++++++++++++++++++++++++++++
Date: Fri Feb 01 15:47:19 EST 2013
User: group
Dark Spectrum Present: No
Reference Spectrum Present: No
Number of Sampled Component Spectra: 1
Spectrometers: USB2E7196
Integration Time (usec): 35000 (USB2E7196)
Spectra Averaged: 100 (USB2E7196)
Boxcar Smoothing: 10 (USB2E7196)
Correct for Electrical Dark: No (USB2E7196)
Strobe/Lamp Enabled: No (USB2E7196)
Correct for Detector Non-linearity: No (USB2E7196)
Correct for Stray Light: No (USB2E7196)
Number of Pixels in Processed Spectrum: 2048
>>>>>Begin Processed Spectral Data<<<<<
339.09	0.00
339.48	214.85
339.86	216.27
340.24	217.60
340.63	218.97
341.01	221.74
341.39	221.50
341.78	222.37
342.16	224.73
342.54	224.63
342.93	212.97
343.31	223.74
343.69	224.28
344.07	224.71
344.46	225.11
344.84	225.50
345.22	225.72
345.60	225.96
345.99	226.14
346.37	226.24
346.75	226.36
347.13	226.41
347.52	226.46
347.90	226.53
348.28	226.56
348.66	226.58
349.05	226.58
349.43	226.65
349.81	226.66
350.19	226.73
350.57	226.78
350.96	226.89
351.34	226.95
351.72	227.01
352.10	227.13
352.48	227.23
352.87	227.26
353.25	227.32
353.63	227.43
354.01	227.52
354.39	227.61
354.77	227.68
355.15	227.82
355.54	227.90
355.92	227.96
356.30	228.06
356.68	228.22
357.06	228.30
357.44	228.35
357.82	228.43
358.20	228.54
358.58	228.64
358.97	228.69
359.35	228.78
359.73	228.88
360.11	228.97
360.49	229.03
360.87	229.12
361.25	229.18
361.63	229.25
362.01	229.30
362.39	229.32
362.77	229.36
363.15	229.36
363.53	229.40
363.91	229.43
364.29	229.43
364.67	229.37
365.05	229.40
365.43	229.45
365.81	229.48
366.19	229.52
366.57	229.52
366.95	229.53
367.33	229.52
367.71	229.51
368.09	229.49
368.47	229.50
368.85	229.44
369.23	229.42
369.61	229.33
369.99	229.33
370.37	229.35
370.75	229.34
371.13	229.29
371.51	229.21
371.89	229.16
372.27	229.14
372.65	229.13
373.03	229.13
373.41	229.07
373.78	228.99
374.16	228.86
374.54	228.77
374.92	228.71
375.30	228.68
375.68	228.59
376.06	228.53
376.44	228.44
376.82	228.42
377.19	228.42
377.57	228.38
377.95	228.28
378.33	228.21
378.71	228.12
379.09	228.09
379.47	228.04
379.84	228.01
380.22	227.94
380.60	227.83
380.98	227.72
381.36	227.64
381.73	227.57
382.11	227.53
382.49	227.46
382.87	227.36
383.25	227.27
383.62	227.34
384.00	227.24
384.38	227.18
384.76	227.09
385.13	227.04
385.51	226.99
385.89	226.95
386.27	226.87
386.64	226.85
387.02	226.77
387.40	226.74
387.78	226.66
388.15	226.59
388.53	226.53
388.91	226.46
389.29	226.40
389.66	226.40
390.04	226.34
390.42	226.34
390.79	226.31
391.17	226.32
391.55	226.17
391.92	226.17
392.30	226.15
392.68	226.17
393.05	226.15
393.43	226.14
393.81	226.14
394.18	226.13
394.56	226.09
394.94	226.13
395.31	226.12
395.69	226.22
396.06	226.28
396.44	226.35
396.82	226.42
397.19	226.51
397.57	226.54
397.95	226.59
398.32	226.61
398.70	226.66
399.07	226.71
399.45	226.79
399.82	226.86
400.20	226.94
400.58	226.99
400.95	227.01
401.33	227.14
401.70	227.26
402.08	227.37
402.45	227.49
402.83	227.59
403.20	227.71
403.58	227.77
403.95	227.88
404.33	228.00
404.71	228.13
405.08	228.31
405.46	228.44
405.83	228.59
406.21	228.76
406.58	228.96
406.96	229.12
407.33	229.28
407.70	229.46
408.08	229.74
408.45	230.00
408.83	230.24
409.20	230.42
409.58	230.65
409.95	230.93
410.33	231.17
410.70	231.43
411.08	231.74
411.45	232.04
411.82	232.35
412.20	232.70
412.57	233.11
412.95	233.39
413.32	233.77
413.69	234.20
414.07	234.63
414.44	235.11
414.82	235.62
415.19	236.18
415.56	236.77
415.94	237.27
416.31	237.87
416.68	238.52
417.06	239.25
417.43	239.90
417.81	240.63
418.18	241.41
418.55	242.24
418.93	243.10
419.30	244.00
419.67	244.95
420.04	245.89
420.42	246.87
420.79	248.08
421.16	249.26
421.54	250.49
421.91	251.72
422.28	252.98
422.66	254.27
423.03	255.58
423.40	256.88
423.77	258.31
424.15	259.77
424.52	261.23
424.89	262.81
425.26	264.38
425.64	265.82
426.01	267.41
426.38	269.06
426.75	270.70
427.13	272.46
427.50	274.25
427.87	276.13
428.24	277.99
428.61	279.71
428.99	281.62
429.36	283.70
429.73	285.76
430.10	287.75
430.47	289.83
430.85	291.96
431.22	294.22
431.59	296.61
431.96	298.82
432.33	301.32
432.70	303.70
433.08	306.45
433.45	309.11
433.82	311.75
434.19	314.64
434.56	317.43
434.93	320.03
435.30	322.64
435.68	325.52
436.05	328.35
436.42	331.14
436.79	333.64
437.16	336.34
437.53	339.17
437.90	341.97
438.27	344.75
438.64	347.55
439.01	350.15
439.38	352.39
439.75	354.59
440.13	357.07
440.50	359.44
440.87	361.34
441.24	363.25
441.61	365.38
441.98	366.87
442.35	368.68
442.72	370.59
443.09	372.42
443.46	373.38
443.83	373.99
444.20	374.51
444.57	375.35
444.94	375.60
445.31	375.91
445.68	376.29
446.05	376.30
446.42	375.91
446.79	375.45
447.16	375.00
447.53	374.62
447.90	373.51
448.27	372.33
448.64	370.71
449.01	369.61
449.37	367.65
449.74	365.79
450.11	363.57
450.48	361.07
450.85	358.54
451.22	356.44
451.59	354.39
451.96	352.48
452.33	349.93
452.70	347.56
453.07	344.73
453.43	341.81
453.80	339.04
454.17	336.39
454.54	333.89
454.91	331.15
455.28	328.51
455.65	325.99
456.02	323.59
456.38	321.47
456.75	318.81
457.12	316.59
457.49	314.35
457.86	312.23
458.23	310.37
458.59	308.34
458.96	306.26
459.33	304.42
459.70	302.54
460.07	301.02
460.43	299.34
460.80	297.75
461.17	296.35
461.54	294.87
461.91	293.44
462.27	291.98
462.64	290.77
463.01	289.41
463.38	288.11
463.74	286.68
464.11	285.52
464.48	284.50
464.85	283.40
465.21	282.55
465.58	281.58
465.95	280.52
466.32	279.61
466.68	278.73
467.05	277.85
467.42	276.93
467.78	275.99
468.15	275.09
468.52	274.44
468.88	273.56
469.25	272.81
469.62	272.20
469.98	271.53
470.35	270.84
470.72	270.25
471.08	269.60
471.45	269.11
471.82	268.58
472.18	267.99
472.55	267.56
472.92	267.02
473.28	266.59
473.65	266.12
474.02	265.68
474.38	265.29
474.75	264.94
475.11	264.62
475.48	264.40
475.85	264.18
476.21	263.94
476.58	263.75
476.94	263.63
477.31	263.46
477.67	263.32
478.04	263.24
478.41	263.18
478.77	263.20
479.14	263.11
479.50	263.09
479.87	263.15
480.23	263.19
480.60	263.26
480.96	263.33
481.33	263.53
481.69	263.71
482.06	263.92
482.42	264.13
482.79	264.40
483.15	264.67
483.52	265.06
483.88	265.38
484.25	265.75
484.61	266.16
484.98	266.58
485.34	267.09
485.71	267.68
486.07	268.26
486.44	268.86
486.80	269.57
487.17	270.31
487.53	271.16
487.90	272.01
488.26	272.95
488.62	273.91
488.99	274.89
489.35	275.94
489.72	277.03
490.08	278.22
490.44	279.42
490.81	280.78
491.17	282.09
491.54	283.57
491.90	285.12
492.26	286.74
492.63	288.48
492.99	290.27
493.36	292.16
493.72	294.23
494.08	296.32
494.45	298.57
494.81	300.92
495.17	303.34
495.54	305.88
495.90	308.57
496.26	311.37
496.63	314.34
496.99	317.42
497.35	320.72
497.72	324.10
498.08	327.65
498.44	331.31
498.80	335.29
499.17	339.33
499.53	343.50
499.89	347.92
500.26	352.44
500.62	357.14
500.98	362.12
501.34	367.16
501.71	372.51
502.07	377.97
502.43	383.61
502.79	389.41
503.16	395.55
503.52	401.81
503.88	408.27
504.24	414.90
504.60	421.85
504.97	429.02
505.33	436.39
505.69	444.05
506.05	451.89
506.41	459.77
506.78	467.97
507.14	476.48
507.50	485.17
507.86	494.22
508.22	503.39
508.59	512.64
508.95	522.32
509.31	532.12
509.67	542.17
510.03	552.50
510.39	563.12
510.75	573.91
511.12	584.92
511.48	596.26
511.84	607.74
512.20	619.22
512.56	631.13
512.92	643.28
513.28	655.70
513.64	668.19
514.00	680.89
514.37	693.80
514.73	706.87
515.09	719.91
515.45	733.22
515.81	746.85
516.17	760.82
516.53	774.87
516.89	789.12
517.25	803.41
517.61	817.85
517.97	832.31
518.33	846.71
518.69	861.45
519.05	876.38
519.41	891.54
519.77	907.15
520.13	922.68
520.49	938.04
520.85	953.50
521.21	969.25
521.57	985.53
521.93	1001.25
522.29	1017.61
522.65	1033.83
523.01	1050.11
523.37	1066.09
523.73	1082.21
524.09	1098.29
524.45	1114.48
524.81	1131.06
525.17	1147.88
525.53	1164.71
525.89	1181.54
526.25	1198.49
526.61	1214.97
526.97	1231.63
527.33	1247.99
527.68	1264.50
528.04	1281.07
528.40	1297.52
528.76	1314.45
529.12	1331.06
529.48	1347.97
529.84	1364.02
530.20	1380.78
530.56	1397.84
530.91	1415.28
531.27	1432.09
531.63	1448.56
531.99	1465.18
532.35	1481.13
532.71	1496.95
533.07	1513.25
533.42	1529.10
533.78	1545.03
534.14	1561.16
534.50	1576.44
534.86	1592.33
535.21	1607.52
535.57	1623.36
535.93	1639.03
536.29	1653.70
536.65	1668.68
537.00	1683.46
537.36	1698.70
537.72	1713.19
538.08	1727.45
538.44	1741.26
538.79	1755.22
539.15	1768.89
539.51	1782.63
539.87	1796.93
540.22	1810.72
540.58	1824.56
540.94	1837.96
541.29	1850.83
541.65	1863.56
542.01	1876.87
542.37	1889.26
542.72	1901.79
543.08	1913.60
543.44	1925.85
543.79	1937.26
544.15	1948.28
544.51	1959.89
544.87	1970.92
545.22	1981.66
545.58	1991.85
545.94	2001.71
546.29	2011.51
546.65	2021.36
547.01	2030.50
547.36	2039.11
547.72	2047.47
548.07	2055.15
548.43	2063.36
548.79	2071.44
549.14	2078.94
549.50	2086.27
549.86	2093.94
550.21	2101.18
550.57	2108.35
550.92	2114.95
551.28	2121.95
551.64	2129.03
551.99	2135.49
552.35	2141.60
552.70	2147.76
553.06	2153.75
553.41	2160.01
553.77	2166.06
554.13	2172.28
554.48	2178.43
554.84	2183.96
555.19	2189.37
555.55	2194.54
555.90	2199.01
556.26	2203.77
556.61	2208.58
556.97	2212.91
557.32	2216.91
557.68	2220.99
558.03	2225.41
558.39	2229.20
558.74	2233.83
559.10	2237.68
559.45	2241.49
559.81	2245.82
560.16	2249.65
560.52	2252.80
560.87	2256.19
561.23	2258.91
561.58	2261.78
561.94	2264.44
562.29	2266.86
562.64	2269.69
563.00	2272.29
563.35	2275.81
563.71	2279.08
564.06	2282.24
564.42	2284.96
564.77	2287.59
565.12	2289.79
565.48	2291.65
565.83	2293.49
566.19	2294.81
566.54	2295.76
566.89	2296.83
567.25	2297.43
567.60	2298.78
567.96	2300.42
568.31	2301.36
568.66	2302.34
569.02	2302.83
569.37	2303.12
569.72	2304.02
570.08	2303.83
570.43	2303.96
570.78	2303.30
571.14	2301.68
571.49	2300.22
571.84	2300.06
572.20	2298.88
572.55	2297.92
572.90	2296.33
573.26	2294.81
573.61	2293.13
573.96	2291.20
574.31	2288.14
574.67	2285.11
575.02	2281.53
575.37	2278.30
575.72	2274.35
576.08	2271.07
576.43	2267.72
576.78	2263.92
577.13	2260.88
577.49	2257.89
577.84	2254.43
578.19	2250.73
578.54	2247.11
578.90	2242.94
579.25	2237.38
579.60	2232.36
579.95	2227.23
580.30	2222.15
580.66	2217.05
581.01	2212.11
581.36	2207.10
581.71	2202.93
582.06	2198.45
582.42	2193.74
582.77	2188.42
583.12	2183.92
583.47	2179.05
583.82	2174.01
584.17	2168.76
584.53	2163.07
584.88	2157.39
585.23	2151.53
585.58	2146.11
585.93	2140.64
586.28	2135.91
586.63	2130.84
586.98	2125.82
587.34	2121.29
587.69	2116.45
588.04	2111.30
588.39	2105.72
588.74	2099.37
589.09	2093.22
589.44	2086.40
589.79	2080.63
590.14	2075.08
590.49	2068.51
590.84	2062.26
591.19	2056.30
591.54	2049.90
591.89	2042.45
592.25	2035.70
592.60	2028.43
592.95	2020.71
593.30	2013.28
593.65	2005.63
594.00	1998.48
594.35	1991.23
594.70	1983.22
595.05	1975.85
595.40	1968.34
595.75	1960.67
596.10	1954.45
596.45	1947.64
596.80	1941.44
597.15	1934.72
597.50	1927.61
597.85	1921.13
598.19	1914.35
598.54	1907.10
598.89	1900.48
599.24	1894.55
599.59	1887.77
599.94	1881.63
600.29	1875.39
600.64	1868.89
600.99	1861.39
601.34	1854.62
601.69	1847.64
602.04	1840.65
602.39	1833.43
602.74	1826.67
603.08	1819.89
603.43	1813.10
603.78	1805.79
604.13	1798.66
604.48	1791.25
604.83	1784.35
605.18	1777.22
605.53	1769.20
605.87	1761.25
606.22	1753.98
606.57	1746.04
606.92	1738.78
607.27	1731.46
607.62	1724.46
607.96	1717.12
608.31	1710.55
608.66	1702.93
609.01	1695.29
609.36	1687.69
609.70	1679.54
610.05	1671.44
610.40	1663.75
610.75	1655.54
611.10	1647.87
611.44	1639.41
611.79	1631.53
612.14	1622.87
612.49	1613.85
612.83	1605.50
613.18	1597.43
613.53	1589.37
613.88	1580.91
614.22	1572.52
614.57	1564.07
614.92	1555.91
615.27	1548.42
615.61	1540.05
615.96	1531.86
616.31	1524.24
616.65	1516.81
617.00	1509.36
617.35	1501.68
617.70	1493.32
618.04	1484.82
618.39	1476.51
618.74	1468.90
619.08	1460.56
619.43	1452.91
619.78	1446.00
620.12	1438.81
620.47	1431.20
620.82	1422.98
621.16	1415.54
621.51	1408.08
621.85	1400.39
622.20	1391.96
622.55	1383.53
622.89	1375.68
623.24	1368.16
623.59	1360.79
623.93	1353.30
624.28	1346.06
624.62	1338.53
624.97	1331.38
625.32	1324.62
625.66	1317.67
626.01	1310.33
626.35	1302.77
626.70	1295.05
627.04	1287.33
627.39	1279.56
627.73	1272.26
628.08	1265.36
628.43	1257.97
628.77	1250.51
629.12	1242.94
629.46	1235.75
629.81	1228.36
630.15	1221.18
630.50	1213.81
630.84	1205.57
631.19	1197.63
631.53	1190.10
631.88	1182.62
632.22	1175.07
632.57	1167.75
632.91	1160.17
633.26	1152.74
633.60	1145.47
633.95	1138.41
634.29	1131.28
634.64	1124.63
634.98	1117.24
635.32	1110.03
635.67	1103.38
636.01	1096.68
636.36	1089.91
636.70	1083.40
637.05	1076.74
637.39	1070.21
637.73	1063.66
638.08	1057.86
638.42	1051.90
638.77	1045.47
639.11	1038.82
639.45	1032.36
639.80	1025.64
640.14	1019.24
640.49	1012.77
640.83	1006.49
641.17	1000.10
641.52	993.89
641.86	987.44
642.20	981.59
642.55	975.36
642.89	969.00
643.23	962.59
643.58	956.76
643.92	950.57
644.26	944.56
644.61	938.63
644.95	932.59
645.29	925.91
645.64	919.11
645.98	912.81
646.32	906.89
646.66	900.88
647.01	895.13
647.35	889.44
647.69	883.64
648.04	878.10
648.38	872.37
648.72	866.27
649.06	860.19
649.41	854.34
649.75	848.28
650.09	842.26
650.43	836.40
650.78	830.22
651.12	824.25
651.46	818.48
651.80	812.71
652.14	807.31
652.49	801.96
652.83	796.84
653.17	791.01
653.51	785.34
653.85	779.97
654.20	774.32
654.54	768.33
654.88	762.62
655.22	756.77
655.56	751.12
655.90	745.73
656.25	740.51
656.59	735.10
656.93	730.11
657.27	725.02
657.61	719.60
657.95	714.50
658.29	709.46
658.64	704.26
658.98	698.98
659.32	693.59
659.66	688.37
660.00	683.07
660.34	678.19
660.68	673.26
661.02	668.21
661.36	663.47
661.70	658.97
662.05	654.62
662.39	650.28
662.73	645.77
663.07	641.36
663.41	636.90
663.75	632.41
664.09	627.82
664.43	623.43
664.77	619.31
665.11	615.10
665.45	611.01
665.79	606.91
666.13	602.78
666.47	598.63
666.81	594.47
667.15	590.29
667.49	586.41
667.83	582.60
668.17	578.68
668.51	574.60
668.85	570.58
669.19	566.74
669.53	562.82
669.87	558.98
670.21	555.23
670.55	551.55
670.89	548.12
671.23	544.66
671.57	541.13
671.91	537.58
672.25	534.10
672.58	530.53
672.92	527.11
673.26	523.88
673.60	520.75
673.94	517.59
674.28	514.72
674.62	511.73
674.96	508.60
675.30	505.68
675.64	502.79
675.97	499.98
676.31	497.06
676.65	494.16
676.99	491.49
677.33	488.66
677.67	485.86
678.01	482.86
678.34	479.92
678.68	477.07
679.02	474.23
679.36	471.46
679.70	468.73
680.04	466.04
680.37	463.18
680.71	460.41
681.05	457.88
681.39	455.20
681.73	452.59
682.06	450.13
682.40	447.56
682.74	445.01
683.08	442.50
683.42	439.92
683.75	437.42
684.09	434.83
684.43	432.36
684.77	429.91
685.10	427.56
685.44	425.24
685.78	423.00
686.12	420.78
686.45	418.49
686.79	416.19
687.13	413.95
687.46	411.81
687.80	409.65
688.14	407.43
688.48	405.32
688.81	402.99
689.15	400.84
689.49	398.75
689.82	396.66
690.16	394.55
690.50	392.66
690.83	390.69
691.17	388.70
691.51	386.81
691.84	385.00
692.18	383.02
692.52	381.04
692.85	379.10
693.19	377.25
693.52	375.46
693.86	373.67
694.20	371.90
694.53	370.08
694.87	368.23
695.21	366.44
695.54	364.65
695.88	362.96
696.21	361.23
696.55	359.52
696.88	357.86
697.22	356.24
697.56	354.57
697.89	352.94
698.23	351.35
698.56	349.69
698.90	348.07
699.23	346.43
699.57	344.82
699.90	343.24
700.24	341.66
700.58	340.09
700.91	338.59
701.25	337.11
701.58	335.73
701.92	334.39
702.25	333.02
702.59	331.64
702.92	330.33
703.26	329.05
703.59	327.76
703.93	326.56
704.26	325.31
704.60	324.02
704.93	322.76
705.26	321.54
705.60	320.37
705.93	319.16
706.27	318.18
706.60	317.17
706.94	316.09
707.27	314.94
707.61	313.91
707.94	312.86
708.27	311.76
708.61	310.66
708.94	309.64
709.28	308.66
709.61	307.69
709.94	306.74
710.28	305.69
710.61	304.76
710.95	303.70
711.28	302.77
711.61	301.80
711.95	300.84
712.28	299.87
712.61	298.93
712.95	298.00
713.28	297.11
713.61	296.22
713.95	295.33
714.28	294.49
714.61	293.62
714.95	292.81
715.28	291.97
715.61	291.14
715.95	290.29
716.28	289.38
716.61	288.56
716.95	287.76
717.28	287.05
717.61	286.26
717.94	285.49
718.28	284.67
718.61	283.95
718.94	283.28
719.27	282.64
719.61	281.96
719.94	281.31
720.27	280.57
720.60	279.91
720.94	279.28
721.27	278.72
721.60	278.14
721.93	277.52
722.27	277.00
722.60	276.40
722.93	275.87
723.26	275.39
723.59	274.84
723.93	274.28
724.26	273.71
724.59	273.13
724.92	272.61
725.25	272.12
725.59	271.65
725.92	271.14
726.25	270.61
726.58	270.10
726.91	269.61
727.24	269.12
727.57	268.62
727.91	268.12
728.24	267.68
728.57	267.19
728.90	266.77
729.23	266.23
729.56	265.84
729.89	265.37
730.22	264.89
730.55	264.44
730.89	263.97
731.22	263.52
731.55	263.09
731.88	262.62
732.21	262.19
732.54	261.70
732.87	261.26
733.20	260.89
733.53	260.56
733.86	260.18
734.19	259.79
734.52	259.44
734.85	259.13
735.18	258.68
735.51	258.31
735.84	257.92
736.17	257.60
736.50	257.22
736.83	256.96
737.16	256.62
737.49	256.30
737.82	255.96
738.15	255.67
738.48	255.35
738.81	255.07
739.14	254.79
739.47	254.50
739.80	254.20
740.13	253.88
740.46	253.53
740.79	253.22
741.12	252.90
741.45	252.58
741.78	252.26
742.11	251.94
742.44	251.62
742.77	251.34
743.10	251.04
743.43	250.68
743.75	250.30
744.08	250.16
744.41	249.83
744.74	249.57
745.07	249.25
745.40	248.98
745.73	248.72
746.06	248.42
746.39	248.17
746.71	247.90
747.04	247.63
747.37	247.39
747.70	247.15
748.03	246.91
748.36	246.67
748.68	246.43
749.01	246.25
749.34	246.02
749.67	245.76
750.00	245.52
750.33	245.41
750.65	245.21
750.98	244.82
751.31	244.63
751.64	244.44
751.97	244.30
752.29	244.09
752.62	243.85
752.95	243.65
753.28	243.42
753.60	243.22
753.93	243.03
754.26	242.77
754.59	242.53
754.91	242.34
755.24	242.14
755.57	241.95
755.90	241.76
756.22	241.55
756.55	241.38
756.88	241.17
757.20	240.93
757.53	240.74
757.86	240.58
758.19	240.43
758.51	240.24
758.84	240.01
759.17	239.81
759.49	239.64
759.82	239.54
760.15	239.43
760.47	239.29
760.80	239.09
761.13	238.99
761.45	238.84
761.78	238.69
762.11	238.54
762.43	238.40
762.76	238.26
763.08	238.14
763.41	238.02
763.74	237.89
764.06	237.75
764.39	237.59
764.71	237.45
765.04	237.30
765.37	237.18
765.69	237.06
766.02	236.96
766.34	236.85
766.67	236.67
767.00	236.52
767.32	236.46
767.65	236.43
767.97	236.26
768.30	236.19
768.62	236.10
768.95	236.00
769.27	235.84
769.60	235.77
769.92	235.66
770.25	235.55
770.57	235.47
770.90	235.39
771.22	235.26
771.55	235.18
771.87	235.09
772.20	234.96
772.52	234.94
772.85	234.95
773.17	234.87
773.50	234.78
773.82	234.66
774.15	234.56
774.47	234.41
774.80	234.35
775.12	234.21
775.45	234.13
775.77	234.04
776.09	233.98
776.42	233.89
776.74	233.83
777.07	233.75
777.39	233.65
777.72	233.52
778.04	233.47
778.36	233.37
778.69	233.29
779.01	233.25
779.33	233.12
779.66	232.94
779.98	232.84
780.31	232.78
780.63	232.75
780.95	232.68
781.28	232.58
781.60	232.53
781.92	232.47
782.25	232.43
782.57	232.34
782.89	232.27
783.22	232.17
783.54	232.11
783.86	232.04
784.19	231.98
784.51	231.97
784.83	231.94
785.16	231.86
785.48	231.82
785.80	231.79
786.12	231.75
786.45	231.67
786.77	231.64
787.09	231.58
787.42	231.52
787.74	231.50
788.06	231.45
788.38	231.42
788.71	231.37
789.03	231.32
789.35	231.31
789.67	231.26
789.99	231.24
790.32	231.17
790.64	231.14
790.96	231.18
791.28	231.09
791.61	231.01
791.93	231.03
792.25	230.99
792.57	230.97
792.89	230.90
793.21	230.92
793.54	230.86
793.86	230.80
794.18	230.77
794.50	230.66
794.82	230.65
795.14	230.61
795.47	230.61
795.79	230.53
796.11	230.48
796.43	230.43
796.75	230.39
797.07	230.35
797.39	230.33
797.71	230.25
798.04	230.22
798.36	230.21
798.68	230.16
799.00	230.12
799.32	230.05
799.64	230.07
799.96	229.99
800.28	230.00
800.60	229.99
800.92	229.99
801.24	229.98
801.56	229.96
801.89	229.95
802.21	229.91
802.53	229.89
802.85	229.86
803.17	229.88
803.49	229.85
803.81	229.83
804.13	229.77
804.45	229.72
804.77	229.70
805.09	229.65
805.41	229.62
805.73	229.60
806.05	229.54
806.37	229.49
806.69	229.49
807.01	229.45
807.33	229.44
807.65	229.36
807.97	229.39
808.28	229.37
808.60	229.32
808.92	229.28
809.24	229.34
809.56	229.30
809.88	229.24
810.20	229.23
810.52	229.21
810.84	229.18
811.16	229.15
811.48	229.10
811.80	229.12
812.12	229.08
812.43	229.06
812.75	229.07
813.07	229.04
813.39	229.01
813.71	228.98
814.03	228.93
814.35	228.93
814.67	228.88
814.98	228.86
815.30	228.79
815.62	228.75
815.94	228.62
816.26	228.64
816.58	228.62
816.89	228.59
817.21	228.55
817.53	228.53
817.85	228.51
818.17	228.50
818.48	228.47
818.80	228.49
819.12	228.44
819.44	228.39
819.76	228.36
820.07	228.35
820.39	228.31
820.71	228.30
821.03	228.27
821.34	228.21
821.66	228.18
821.98	228.22
822.30	228.23
822.61	228.30
822.93	228.25
823.25	228.25
823.57	228.23
823.88	228.26
824.20	228.26
824.52	228.29
824.83	228.26
825.15	228.23
825.47	228.21
825.79	228.24
826.10	228.19
826.42	228.17
826.74	228.17
827.05	228.18
827.37	228.19
827.69	228.18
828.00	228.18
828.32	228.16
828.64	228.11
828.95	228.17
829.27	228.13
829.58	228.10
829.90	228.08
830.22	228.06
830.53	228.01
830.85	228.01
831.17	227.96
831.48	227.99
831.80	227.98
832.11	227.98
832.43	227.94
832.75	227.96
833.06	228.00
833.38	227.98
833.69	227.94
834.01	227.93
834.32	227.92
834.64	227.90
834.96	227.89
835.27	227.90
835.59	227.86
835.90	227.81
836.22	227.80
836.53	227.78
836.85	227.76
837.16	227.86
837.48	227.83
837.79	227.86
838.11	227.85
838.42	227.87
838.74	227.85
839.05	227.82
839.37	227.80
839.68	227.76
840.00	227.76
840.31	227.75
840.63	227.74
840.94	227.73
841.26	227.72
841.57	227.70
841.88	227.70
842.20	227.65
842.51	227.68
842.83	227.69
843.14	227.77
843.46	227.80
843.77	227.70
844.08	227.69
844.40	227.66
844.71	227.64
845.03	227.58
845.34	227.56
845.65	227.57
845.97	227.57
846.28	227.56
846.60	227.55
846.91	227.55
847.22	227.55
847.54	227.54
847.85	227.57
848.16	227.55
848.48	227.54
848.79	227.59
849.10	227.58
849.42	227.58
849.73	227.47
850.04	227.44
850.36	227.44
850.67	227.41
850.98	227.42
851.30	227.41
851.61	227.43
851.92	227.42
852.23	227.44
852.55	227.45
852.86	227.45
853.17	227.44
853.49	227.49
853.80	227.49
854.11	227.52
854.42	227.51
854.74	227.53
855.05	227.52
855.36	227.45
855.67	227.46
855.99	227.48
856.30	227.62
856.61	227.60
856.92	227.62
857.23	227.64
857.55	227.60
857.86	227.62
858.17	227.63
858.48	227.61
858.79	227.58
859.11	227.58
859.42	227.56
859.73	227.56
860.04	227.53
860.35	227.50
860.66	227.44
860.98	227.44
861.29	227.44
861.60	227.46
861.91	227.50
862.22	227.47
862.53	227.39
862.84	227.29
863.16	227.31
863.47	227.26
863.78	227.28
864.09	227.30
864.40	227.30
864.71	227.26
865.02	227.29
865.33	227.32
865.64	227.28
865.95	227.28
866.27	227.34
866.58	227.32
866.89	227.35
867.20	227.36
867.51	227.35
867.82	227.33
868.13	227.35
868.44	227.31
868.75	227.33
869.06	227.31
869.37	227.33
869.68	227.31
869.99	227.35
870.30	227.35
870.61	227.36
870.92	227.37
871.23	227.36
871.54	227.33
871.85	227.34
872.16	227.38
872.47	227.39
872.78	227.35
873.09	227.34
873.40	227.31
873.71	227.33
874.02	227.34
874.33	227.32
874.64	227.30
874.95	227.32
875.26	227.31
875.56	227.38
875.87	227.34
876.18	227.33
876.49	227.42
876.80	227.40
877.11	227.41
877.42	227.39
877.73	227.40
878.04	227.45
878.35	227.43
878.66	227.41
878.96	227.38
879.27	227.35
879.58	227.35
879.89	227.34
880.20	227.36
880.51	227.33
880.82	227.36
881.12	227.33
881.43	227.31
881.74	227.27
882.05	227.24
882.36	227.26
882.67	227.27
882.97	227.16
883.28	227.17
883.59	227.14
883.90	227.15
884.21	227.17
884.51	227.13
884.82	227.12
885.13	227.16
885.44	227.17
885.74	227.18
886.05	227.20
886.36	227.19
886.67	227.12
886.98	227.19
887.28	227.21
887.59	227.20
887.90	227.20
888.20	227.20
888.51	227.20
888.82	227.16
889.13	227.13
889.43	227.22
889.74	227.16
890.05	227.13
890.35	227.11
890.66	227.11
890.97	227.11
891.28	227.11
891.58	227.08
891.89	227.09
892.20	227.07
892.50	227.04
892.81	227.05
893.12	227.08
893.42	227.01
893.73	226.98
894.04	227.00
894.34	226.98
894.65	226.98
894.95	226.97
895.26	226.97
895.57	227.01
895.87	226.88
896.18	226.91
896.48	226.92
896.79	226.95
897.10	226.93
897.40	226.91
897.71	226.89
898.01	226.83
898.32	226.85
898.63	226.84
898.93	226.84
899.24	226.85
899.54	226.84
899.85	226.83
900.15	226.83
900.46	226.82
900.76	226.82
901.07	226.82
901.38	226.82
901.68	226.84
901.99	226.78
902.29	226.82
902.60	226.80
902.90	226.77
903.21	226.73
903.51	226.75
903.82	226.75
904.12	226.74
904.43	226.79
904.73	226.75
905.03	226.75
905.34	226.85
905.64	226.80
905.95	226.78
906.25	226.79
906.56	226.80
906.86	226.77
907.17	226.78
907.47	226.80
907.77	226.80
908.08	226.76
908.38	226.77
908.69	226.79
908.99	226.82
909.30	226.87
909.60	226.90
909.90	226.89
910.21	226.84
910.51	226.83
910.81	226.81
911.12	226.84
911.42	226.86
911.73	226.75
912.03	226.81
912.33	226.88
912.64	226.87
912.94	226.85
913.24	226.85
913.55	226.83
913.85	226.84
914.15	226.85
914.46	226.89
914.76	226.91
915.06	226.90
915.37	226.90
915.67	226.89
915.97	226.86
916.27	226.82
916.58	226.87
916.88	226.88
917.18	226.86
917.49	226.91
917.79	226.91
918.09	226.93
918.39	226.95
918.70	226.90
919.00	226.90
919.30	226.95
919.60	226.95
919.91	226.97
920.21	226.95
920.51	226.92
920.81	226.92
921.12	226.92
921.42	226.94
921.72	226.93
922.02	226.90
922.32	226.93
922.63	226.96
922.93	227.02
923.23	227.00
923.53	227.02
923.83	226.96
924.13	226.98
924.44	226.96
924.74	226.95
925.04	226.94
925.34	226.96
925.64	226.91
925.94	226.91
926.24	226.96
926.55	226.97
926.85	227.00
927.15	226.99
927.45	226.99
927.75	226.97
928.05	226.95
928.35	227.01
928.65	227.02
928.95	227.02
929.26	226.97
929.56	227.02
929.86	227.04
930.16	227.05
930.46	227.02
930.76	227.05
931.06	227.02
931.36	227.03
931.66	227.03
931.96	227.01
932.26	227.03
932.56	226.99
932.86	227.01
933.16	227.02
933.46	227.01
933.76	226.98
934.06	226.99
934.36	227.05
934.66	226.99
934.96	226.96
935.26	226.97
935.56	227.01
935.86	226.98
936.16	226.96
936.46	226.93
936.76	226.93
937.06	226.90
937.36	226.88
937.66	226.87
937.96	226.86
938.26	226.86
938.56	226.85
938.86	226.84
939.16	226.85
939.46	226.84
939.76	226.86
940.06	226.88
940.35	226.85
940.65	226.80
940.95	226.82
941.25	226.82
941.55	226.77
941.85	226.76
942.15	226.78
942.45	226.78
942.75	226.79
943.04	226.82
943.34	226.84
943.64	226.87
943.94	226.89
944.24	226.88
944.54	226.88
944.84	226.89
945.13	226.89
945.43	226.89
945.73	226.90
946.03	226.86
946.33	226.84
946.62	226.82
946.92	226.79
947.22	226.79
947.52	226.77
947.82	226.78
948.11	226.75
948.41	226.72
948.71	226.75
949.01	226.77
949.31	226.69
949.60	226.65
949.90	226.65
950.20	226.64
950.50	226.64
950.79	226.64
951.09	226.66
951.39	226.65
951.69	226.65
951.98	226.66
952.28	226.66
952.58	226.70
952.87	226.72
953.17	226.76
953.47	226.73
953.76	226.74
954.06	226.76
954.36	226.76
954.66	226.75
954.95	226.77
955.25	226.76
955.55	226.81
955.84	226.80
956.14	226.82
956.44	226.83
956.73	226.82
957.03	226.85
957.32	226.82
957.62	226.83
957.92	226.82
958.21	226.82
958.51	226.93
958.81	226.94
959.10	226.96
959.40	226.99
959.69	227.02
959.99	227.04
960.29	227.01
960.58	227.00
960.88	227.03
961.17	227.01
961.47	227.04
961.76	227.03
962.06	227.09
962.36	227.06
962.65	227.05
962.95	227.07
963.24	227.04
963.54	227.08
963.83	227.09
964.13	227.08
964.42	227.06
964.72	226.99
965.01	226.99
965.31	226.97
965.60	226.94
965.90	226.98
966.19	226.97
966.49	226.98
966.78	226.99
967.08	227.00
967.37	226.98
967.67	226.94
967.96	226.96
968.26	226.91
968.55	226.93
968.85	226.94
969.14	226.89
969.43	226.90
969.73	226.87
970.02	226.89
970.32	226.88
970.61	226.87
970.91	226.84
971.20	226.82
971.49	226.81
971.79	226.83
972.08	226.78
972.38	226.78
972.67	226.79
972.96	226.81
973.26	226.81
973.55	226.85
973.85	226.85
974.14	226.86
974.43	226.90
974.73	226.88
975.02	226.87
975.31	226.88
975.61	226.91
975.90	226.86
976.19	226.85
976.49	226.87
976.78	226.88
977.07	226.91
977.37	226.94
977.66	226.94
977.95	226.92
978.24	226.93
978.54	226.96
978.83	226.95
979.12	226.95
979.42	226.95
979.71	226.93
980.00	226.91
980.29	226.91
980.59	226.89
980.88	226.93
981.17	226.94
981.46	226.94
981.76	226.92
982.05	226.96
982.34	226.93
982.63	226.94
982.93	226.94
983.22	226.95
983.51	226.89
983.80	226.95
984.09	226.94
984.39	226.94
984.68	226.87
984.97	226.87
985.26	226.85
985.55	226.84
985.85	226.80
986.14	226.81
986.43	226.79
986.72	226.80
987.01	226.75
987.30	226.76
987.59	226.79
987.89	226.80
988.18	226.80
988.47	226.80
988.76	226.78
989.05	226.77
989.34	226.77
989.63	226.81
989.92	226.74
990.22	226.76
990.51	226.77
990.80	226.80
991.09	226.80
991.38	226.80
991.67	226.77
991.96	226.79
992.25	226.81
992.54	226.78
992.83	226.76
993.12	226.76
993.41	226.78
993.70	226.77
993.99	226.77
994.28	226.79
994.58	226.80
994.87	226.81
995.16	226.79
995.45	226.77
995.74	226.74
996.03	226.79
996.32	226.78
996.61	226.77
996.90	226.77
997.19	226.76
997.48	226.75
997.77	226.76
998.06	226.74
998.34	226.72
998.63	226.73
998.92	226.73
999.21	226.72
999.50	226.72
999.79	226.68
1000.08	226.64
1000.37	226.62
1000.66	226.60
1000.95	226.62
1001.24	226.64
1001.53	226.65
1001.82	226.66
1002.11	226.64
1002.40	226.67
1002.68	226.70
1002.97	226.77
1003.26	226.75
1003.55	226.74
1003.84	226.78
1004.13	226.79
1004.42	226.79
1004.71	226.81
1004.99	226.83
1005.28	226.86
1005.57	226.82
1005.86	226.83
1006.15	226.86
1006.44	226.84
1006.72	226.84
1007.01	226.84
1007.30	226.82
1007.59	226.83
1007.88	226.79
1008.17	226.78
1008.45	226.72
1008.74	226.70
1009.03	226.65
1009.32	226.69
1009.60	226.69
1009.89	226.66
1010.18	226.64
1010.47	226.63
1010.76	226.61
1011.04	226.59
1011.33	226.59
1011.62	226.61
1011.91	226.65
1012.19	226.66
1012.48	226.67
1012.77	226.68
1013.05	226.69
1013.34	226.72
1013.63	226.68
1013.92	226.71
1014.20	226.71
1014.49	226.71
1014.78	226.72
1015.06	226.71
1015.35	226.69
1015.64	226.72
1015.92	226.75
1016.21	226.76
1016.50	226.79
1016.78	226.79
1017.07	226.78
1017.36	226.75
1017.64	226.74
1017.93	226.72
1018.22	226.70
1018.50	226.71
1018.79	226.67
1019.08	226.64
1019.36	226.63
1019.65	226.64
1019.93	226.66
1020.22	226.68
1020.51	226.71
1020.79	226.66
1021.08	226.47
1021.36	226.78
1021.65	225.96
1021.94	226.74
1022.22	226.96
1022.51	226.56
1022.79	227.11
1023.08	226.76
1023.36	227.30
1023.65	225.67
>>>>>End Processed Spectral Data<<<<<
