SpectraSuite Data File
++++++++++++++++++++++++++++++++++++
Date: Fri Feb 01 16:26:46 EST 2013
User: group
Dark Spectrum Present: No
Reference Spectrum Present: No
Number of Sampled Component Spectra: 1
Spectrometers: USB2E7196
Integration Time (usec): 35000 (USB2E7196)
Spectra Averaged: 100 (USB2E7196)
Boxcar Smoothing: 10 (USB2E7196)
Correct for Electrical Dark: No (USB2E7196)
Strobe/Lamp Enabled: No (USB2E7196)
Correct for Detector Non-linearity: No (USB2E7196)
Correct for Stray Light: No (USB2E7196)
Number of Pixels in Processed Spectrum: 2048
>>>>>Begin Processed Spectral Data<<<<<
339.09	0.00
339.48	214.10
339.86	215.12
340.24	217.21
340.63	218.91
341.01	221.60
341.39	220.77
341.78	222.80
342.16	224.09
342.54	223.91
342.93	212.62
343.31	223.37
343.69	223.93
344.07	224.41
344.46	224.85
344.84	225.20
345.22	225.43
345.60	225.70
345.99	225.86
346.37	225.97
346.75	226.08
347.13	226.14
347.52	226.17
347.90	226.26
348.28	226.28
348.66	226.32
349.05	226.33
349.43	226.40
349.81	226.44
350.19	226.46
350.57	226.49
350.96	226.56
351.34	226.63
351.72	226.70
352.10	226.80
352.48	226.82
352.87	226.86
353.25	226.92
353.63	226.96
354.01	227.01
354.39	227.06
354.77	227.13
355.15	227.23
355.54	227.28
355.92	227.25
356.30	227.32
356.68	227.43
357.06	227.50
357.44	227.50
357.82	227.57
358.20	227.66
358.58	227.76
358.97	227.81
359.35	227.90
359.73	227.96
360.11	228.02
360.49	228.09
360.87	228.17
361.25	228.20
361.63	228.27
362.01	228.33
362.39	228.35
362.77	228.36
363.15	228.39
363.53	228.43
363.91	228.47
364.29	228.48
364.67	228.40
365.05	228.40
365.43	228.43
365.81	228.46
366.19	228.49
366.57	228.53
366.95	228.48
367.33	228.43
367.71	228.42
368.09	228.41
368.47	228.41
368.85	228.35
369.23	228.36
369.61	228.31
369.99	228.31
370.37	228.32
370.75	228.36
371.13	228.33
371.51	228.28
371.89	228.26
372.27	228.22
372.65	228.20
373.03	228.14
373.41	228.10
373.78	228.04
374.16	227.93
374.54	227.85
374.92	227.81
375.30	227.75
375.68	227.67
376.06	227.63
376.44	227.54
376.82	227.50
377.19	227.41
377.57	227.35
377.95	227.24
378.33	227.19
378.71	227.05
379.09	226.95
379.47	226.91
379.84	226.82
380.22	226.73
380.60	226.63
380.98	226.59
381.36	226.52
381.73	226.44
382.11	226.40
382.49	226.30
382.87	226.22
383.25	226.20
383.62	226.26
384.00	226.17
384.38	226.12
384.76	226.06
385.13	226.06
385.51	225.98
385.89	225.96
386.27	225.90
386.64	225.89
387.02	225.83
387.40	225.78
387.78	225.75
388.15	225.73
388.53	225.70
388.91	225.66
389.29	225.62
389.66	225.59
390.04	225.56
390.42	225.61
390.79	225.60
391.17	225.57
391.55	225.47
391.92	225.45
392.30	225.48
392.68	225.44
393.05	225.44
393.43	225.46
393.81	225.44
394.18	225.46
394.56	225.48
394.94	225.56
395.31	225.58
395.69	225.64
396.06	225.68
396.44	225.75
396.82	225.76
397.19	225.87
397.57	225.91
397.95	225.95
398.32	225.95
398.70	226.03
399.07	226.08
399.45	226.11
399.82	226.18
400.20	226.21
400.58	226.32
400.95	226.37
401.33	226.43
401.70	226.58
402.08	226.65
402.45	226.72
402.83	226.79
403.20	226.85
403.58	226.94
403.95	227.07
404.33	227.17
404.71	227.29
405.08	227.45
405.46	227.56
405.83	227.72
406.21	227.85
406.58	227.97
406.96	228.15
407.33	228.34
407.70	228.52
408.08	228.79
408.45	229.00
408.83	229.22
409.20	229.48
409.58	229.65
409.95	229.90
410.33	230.18
410.70	230.42
411.08	230.74
411.45	231.04
411.82	231.32
412.20	231.69
412.57	232.11
412.95	232.37
413.32	232.82
413.69	233.21
414.07	233.65
414.44	234.14
414.82	234.61
415.19	235.11
415.56	235.66
415.94	236.20
416.31	236.82
416.68	237.45
417.06	238.13
417.43	238.82
417.81	239.60
418.18	240.35
418.55	241.19
418.93	242.05
419.30	242.93
419.67	243.87
420.04	244.82
420.42	245.77
420.79	246.99
421.16	248.09
421.54	249.30
421.91	250.50
422.28	251.77
422.66	253.07
423.03	254.44
423.40	255.74
423.77	257.12
424.15	258.51
424.52	260.02
424.89	261.62
425.26	263.17
425.64	264.60
426.01	266.20
426.38	267.87
426.75	269.54
427.13	271.30
427.50	273.06
427.87	274.91
428.24	276.77
428.61	278.52
428.99	280.51
429.36	282.57
429.73	284.68
430.10	286.62
430.47	288.68
430.85	290.74
431.22	293.01
431.59	295.35
431.96	297.62
432.33	300.10
432.70	302.50
433.08	305.29
433.45	307.91
433.82	310.55
434.19	313.37
434.56	316.19
434.93	318.82
435.30	321.45
435.68	324.34
436.05	327.18
436.42	329.98
436.79	332.45
437.16	335.10
437.53	337.86
437.90	340.71
438.27	343.47
438.64	346.31
439.01	348.86
439.38	351.13
439.75	353.29
440.13	355.74
440.50	358.05
440.87	359.92
441.24	361.86
441.61	363.95
441.98	365.48
442.35	367.25
442.72	369.11
443.09	370.95
443.46	371.92
443.83	372.49
444.20	372.97
444.57	373.84
444.94	374.14
445.31	374.51
445.68	374.87
446.05	374.92
446.42	374.59
446.79	374.20
447.16	373.79
447.53	373.45
447.90	372.29
448.27	371.11
448.64	369.49
449.01	368.39
449.37	366.47
449.74	364.59
450.11	362.37
450.48	359.91
450.85	357.39
451.22	355.31
451.59	353.31
451.96	351.36
452.33	348.76
452.70	346.44
453.07	343.59
453.43	340.70
453.80	337.96
454.17	335.29
454.54	332.76
454.91	330.03
455.28	327.40
455.65	324.97
456.02	322.56
456.38	320.45
456.75	317.76
457.12	315.50
457.49	313.30
457.86	311.11
458.23	309.25
458.59	307.15
458.96	305.04
459.33	303.20
459.70	301.39
460.07	299.90
460.43	298.17
460.80	296.56
461.17	295.13
461.54	293.64
461.91	292.16
462.27	290.71
462.64	289.47
463.01	288.12
463.38	286.82
463.74	285.44
464.11	284.28
464.48	283.27
464.85	282.19
465.21	281.31
465.58	280.40
465.95	279.27
466.32	278.37
466.68	277.48
467.05	276.59
467.42	275.65
467.78	274.70
468.15	273.85
468.52	273.23
468.88	272.38
469.25	271.59
469.62	270.99
469.98	270.30
470.35	269.66
470.72	269.08
471.08	268.40
471.45	267.87
471.82	267.36
472.18	266.75
472.55	266.29
472.92	265.76
473.28	265.33
473.65	264.92
474.02	264.56
474.38	264.18
474.75	263.85
475.11	263.51
475.48	263.24
475.85	263.02
476.21	262.78
476.58	262.61
476.94	262.47
477.31	262.32
477.67	262.19
478.04	262.07
478.41	262.00
478.77	262.05
479.14	262.00
479.50	262.00
479.87	262.09
480.23	262.20
480.60	262.27
480.96	262.38
481.33	262.64
481.69	262.84
482.06	263.05
482.42	263.28
482.79	263.56
483.15	263.90
483.52	264.30
483.88	264.66
484.25	265.07
484.61	265.53
484.98	265.99
485.34	266.57
485.71	267.16
486.07	267.77
486.44	268.34
486.80	269.03
487.17	269.80
487.53	270.62
487.90	271.46
488.26	272.45
488.62	273.46
488.99	274.42
489.35	275.45
489.72	276.58
490.08	277.77
490.44	279.03
490.81	280.39
491.17	281.75
491.54	283.26
491.90	284.79
492.26	286.44
492.63	288.21
492.99	289.99
493.36	291.95
493.72	293.98
494.08	296.13
494.45	298.43
494.81	300.75
495.17	303.17
495.54	305.79
495.90	308.46
496.26	311.26
496.63	314.25
496.99	317.35
497.35	320.62
497.72	324.06
498.08	327.62
498.44	331.26
498.80	335.21
499.17	339.21
499.53	343.37
499.89	347.74
500.26	352.26
500.62	356.97
500.98	361.91
501.34	367.00
501.71	372.34
502.07	377.78
502.43	383.46
502.79	389.29
503.16	395.33
503.52	401.65
503.88	408.05
504.24	414.68
504.60	421.61
504.97	428.79
505.33	436.07
505.69	443.77
506.05	451.56
506.41	459.42
506.78	467.55
507.14	476.03
507.50	484.76
507.86	493.76
508.22	503.00
508.59	512.18
508.95	521.83
509.31	531.65
509.67	541.72
510.03	552.02
510.39	562.65
510.75	573.44
511.12	584.30
511.48	595.53
511.84	606.92
512.20	618.41
512.56	630.32
512.92	642.48
513.28	654.78
513.64	667.24
514.00	679.91
514.37	692.86
514.73	705.90
515.09	718.91
515.45	732.16
515.81	745.72
516.17	759.65
516.53	773.64
516.89	787.75
517.25	801.90
517.61	816.28
517.97	830.60
518.33	844.99
518.69	859.76
519.05	874.70
519.41	889.91
519.77	905.37
520.13	920.80
520.49	936.12
520.85	951.50
521.21	967.23
521.57	983.33
521.93	999.05
522.29	1015.31
522.65	1031.47
523.01	1047.60
523.37	1063.44
523.73	1079.54
524.09	1095.60
524.45	1111.82
524.81	1128.40
525.17	1145.05
525.53	1161.92
525.89	1178.75
526.25	1195.52
526.61	1211.86
526.97	1228.43
527.33	1244.82
527.68	1261.30
528.04	1277.76
528.40	1294.27
528.76	1311.31
529.12	1327.88
529.48	1344.69
529.84	1360.68
530.20	1377.22
530.56	1394.16
530.91	1411.53
531.27	1428.24
531.63	1444.70
531.99	1461.22
532.35	1477.11
532.71	1493.01
533.07	1509.11
533.42	1524.90
533.78	1540.90
534.14	1557.02
534.50	1572.28
534.86	1588.05
535.21	1603.22
535.57	1619.06
535.93	1634.45
536.29	1649.03
536.65	1664.00
537.00	1678.65
537.36	1693.88
537.72	1708.29
538.08	1722.61
538.44	1736.43
538.79	1750.32
539.15	1763.84
539.51	1777.39
539.87	1791.60
540.22	1805.07
540.58	1818.81
540.94	1832.09
541.29	1844.74
541.65	1857.40
542.01	1870.54
542.37	1882.88
542.72	1895.08
543.08	1906.77
543.44	1919.10
543.79	1930.25
544.15	1941.24
544.51	1952.80
544.87	1963.66
545.22	1974.39
545.58	1984.55
545.94	1994.18
546.29	2003.87
546.65	2013.64
547.01	2022.84
547.36	2031.46
547.72	2040.02
548.07	2047.86
548.43	2055.88
548.79	2063.99
549.14	2071.53
549.50	2078.93
549.86	2086.53
550.21	2093.78
550.57	2100.79
550.92	2107.30
551.28	2114.19
551.64	2121.26
551.99	2127.62
552.35	2133.73
552.70	2139.96
553.06	2145.94
553.41	2152.30
553.77	2158.23
554.13	2164.31
554.48	2170.45
554.84	2175.99
555.19	2181.23
555.55	2186.28
555.90	2190.77
556.26	2195.53
556.61	2200.14
556.97	2204.35
557.32	2208.41
557.68	2212.74
558.03	2217.03
558.39	2220.70
558.74	2225.40
559.10	2229.19
559.45	2232.82
559.81	2237.01
560.16	2240.82
560.52	2244.13
560.87	2247.44
561.23	2250.18
561.58	2253.11
561.94	2255.66
562.29	2257.89
562.64	2260.43
563.00	2262.94
563.35	2266.39
563.71	2269.61
564.06	2272.88
564.42	2275.73
564.77	2278.26
565.12	2280.51
565.48	2282.51
565.83	2284.54
566.19	2285.99
566.54	2286.82
566.89	2288.00
567.25	2288.68
567.60	2289.91
567.96	2291.48
568.31	2292.34
568.66	2293.47
569.02	2294.06
569.37	2294.40
569.72	2295.42
570.08	2295.81
570.43	2296.02
570.78	2295.60
571.14	2294.05
571.49	2292.73
571.84	2292.47
572.20	2291.41
572.55	2290.21
572.90	2288.68
573.26	2287.29
573.61	2285.61
573.96	2283.99
574.31	2281.21
574.67	2278.42
575.02	2274.98
575.37	2271.70
575.72	2268.06
576.08	2264.73
576.43	2261.39
576.78	2257.78
577.13	2254.58
577.49	2251.59
577.84	2248.21
578.19	2244.53
578.54	2240.97
578.90	2236.95
579.25	2231.28
579.60	2226.49
579.95	2221.59
580.30	2216.86
580.66	2211.69
581.01	2206.79
581.36	2201.94
581.71	2197.84
582.06	2193.45
582.42	2189.00
582.77	2183.84
583.12	2179.37
583.47	2174.76
583.82	2170.02
584.17	2164.86
584.53	2159.58
584.88	2153.92
585.23	2148.08
585.58	2142.63
585.93	2137.31
586.28	2132.50
586.63	2127.70
586.98	2122.55
587.34	2118.05
587.69	2113.17
588.04	2107.91
588.39	2102.31
588.74	2095.90
589.09	2089.88
589.44	2083.10
589.79	2077.21
590.14	2071.75
590.49	2065.08
590.84	2058.74
591.19	2052.68
591.54	2046.27
591.89	2038.91
592.25	2032.08
592.60	2024.98
592.95	2017.46
593.30	2010.11
593.65	2002.62
594.00	1995.65
594.35	1988.42
594.70	1980.44
595.05	1973.12
595.40	1965.98
595.75	1958.59
596.10	1952.46
596.45	1945.67
596.80	1939.47
597.15	1932.89
597.50	1925.80
597.85	1919.53
598.19	1912.93
598.54	1905.75
598.89	1899.19
599.24	1893.29
599.59	1886.66
599.94	1880.54
600.29	1874.28
600.64	1867.65
600.99	1860.24
601.34	1853.39
601.69	1846.54
602.04	1839.61
602.39	1832.35
602.74	1825.57
603.08	1818.70
603.43	1811.91
603.78	1804.65
604.13	1797.54
604.48	1790.14
604.83	1783.27
605.18	1776.30
605.53	1768.43
605.87	1760.66
606.22	1753.43
606.57	1745.48
606.92	1738.18
607.27	1731.04
607.62	1724.14
607.96	1716.95
608.31	1710.36
608.66	1702.80
609.01	1695.28
609.36	1687.80
609.70	1679.74
610.05	1671.73
610.40	1664.12
610.75	1655.85
611.10	1648.20
611.44	1639.74
611.79	1631.86
612.14	1623.24
612.49	1614.12
612.83	1605.69
613.18	1597.45
613.53	1589.31
613.88	1580.83
614.22	1572.50
614.57	1563.81
614.92	1555.80
615.27	1548.17
615.61	1539.83
615.96	1531.75
616.31	1524.08
616.65	1516.68
617.00	1509.24
617.35	1501.56
617.70	1493.32
618.04	1484.77
618.39	1476.51
618.74	1469.00
619.08	1460.62
619.43	1452.93
619.78	1445.96
620.12	1438.81
620.47	1431.33
620.82	1423.17
621.16	1415.71
621.51	1408.22
621.85	1400.55
622.20	1392.00
622.55	1383.81
622.89	1375.95
623.24	1368.32
623.59	1360.98
623.93	1353.46
624.28	1346.12
624.62	1338.60
624.97	1331.42
625.32	1324.74
625.66	1317.72
626.01	1310.46
626.35	1303.06
626.70	1295.35
627.04	1287.52
627.39	1279.78
627.73	1272.31
628.08	1265.43
628.43	1258.22
628.77	1250.85
629.12	1243.36
629.46	1236.23
629.81	1228.74
630.15	1221.54
630.50	1214.17
630.84	1205.95
631.19	1198.06
631.53	1190.58
631.88	1183.02
632.22	1175.30
632.57	1168.00
632.91	1160.45
633.26	1152.96
633.60	1145.59
633.95	1138.49
634.29	1131.53
634.64	1124.76
634.98	1117.49
635.32	1110.31
635.67	1103.65
636.01	1096.97
636.36	1090.24
636.70	1083.65
637.05	1077.04
637.39	1070.54
637.73	1063.99
638.08	1058.03
638.42	1051.99
638.77	1045.55
639.11	1038.93
639.45	1032.58
639.80	1025.91
640.14	1019.54
640.49	1013.05
640.83	1006.71
641.17	1000.46
641.52	994.19
641.86	987.74
642.20	981.75
642.55	975.36
642.89	968.74
643.23	962.25
643.58	956.40
643.92	950.22
644.26	944.20
644.61	938.21
644.95	932.23
645.29	925.67
645.64	918.91
645.98	912.57
646.32	906.72
646.66	900.66
647.01	894.86
647.35	889.08
647.69	883.27
648.04	877.78
648.38	871.94
648.72	865.85
649.06	859.74
649.41	853.93
649.75	848.08
650.09	842.27
650.43	836.45
650.78	830.31
651.12	824.30
651.46	818.45
651.80	812.75
652.14	807.37
652.49	801.98
652.83	796.81
653.17	791.11
653.51	785.42
653.85	780.03
654.20	774.39
654.54	768.39
654.88	762.62
655.22	756.66
655.56	750.97
655.90	745.53
656.25	740.36
656.59	734.98
656.93	729.88
657.27	724.72
657.61	719.31
657.95	714.20
658.29	709.21
658.64	704.05
658.98	698.68
659.32	693.20
659.66	688.02
660.00	682.69
660.34	677.72
660.68	672.73
661.02	667.74
661.36	663.02
661.70	658.49
662.05	654.17
662.39	649.83
662.73	645.39
663.07	641.08
663.41	636.64
663.75	632.20
664.09	627.68
664.43	623.26
664.77	619.12
665.11	614.91
665.45	610.72
665.79	606.56
666.13	602.39
666.47	598.28
666.81	594.13
667.15	590.04
667.49	586.13
667.83	582.34
668.17	578.36
668.51	574.27
668.85	570.22
669.19	566.38
669.53	562.58
669.87	558.71
670.21	554.91
670.55	551.23
670.89	547.79
671.23	544.38
671.57	540.87
671.91	537.32
672.25	533.80
672.58	530.23
672.92	526.87
673.26	523.69
673.60	520.51
673.94	517.40
674.28	514.44
674.62	511.55
674.96	508.47
675.30	505.55
675.64	502.60
675.97	499.81
676.31	496.94
676.65	494.03
676.99	491.32
677.33	488.48
677.67	485.64
678.01	482.61
678.34	479.55
678.68	476.68
679.02	473.82
679.36	470.99
679.70	468.30
680.04	465.58
680.37	462.73
680.71	459.92
681.05	457.25
681.39	454.47
681.73	451.73
682.06	449.16
682.40	446.63
682.74	444.12
683.08	441.61
683.42	438.98
683.75	436.42
684.09	433.89
684.43	431.43
684.77	429.01
685.10	426.63
685.44	424.33
685.78	422.03
686.12	419.73
686.45	417.47
686.79	415.17
687.13	412.96
687.46	410.75
687.80	408.64
688.14	406.47
688.48	404.42
688.81	402.21
689.15	400.12
689.49	397.95
689.82	395.83
690.16	393.76
690.50	391.79
690.83	389.88
691.17	387.90
691.51	385.99
691.84	384.13
692.18	382.14
692.52	380.11
692.85	378.18
693.19	376.36
693.52	374.53
693.86	372.70
694.20	370.90
694.53	369.13
694.87	367.26
695.21	365.48
695.54	363.70
695.88	361.96
696.21	360.17
696.55	358.45
696.88	356.74
697.22	355.05
697.56	353.47
697.89	351.81
698.23	350.16
698.56	348.56
698.90	346.99
699.23	345.38
699.57	343.84
699.90	342.31
700.24	340.78
700.58	339.27
700.91	337.76
701.25	336.36
701.58	335.00
701.92	333.65
702.25	332.26
702.59	330.85
702.92	329.49
703.26	328.22
703.59	326.93
703.93	325.80
704.26	324.58
704.60	323.23
704.93	321.98
705.26	320.79
705.60	319.60
705.93	318.41
706.27	317.38
706.60	316.36
706.94	315.28
707.27	314.14
707.61	313.06
707.94	312.11
708.27	311.01
708.61	309.90
708.94	308.85
709.28	307.86
709.61	306.90
709.94	306.00
710.28	304.97
710.61	304.05
710.95	302.97
711.28	302.08
711.61	301.16
711.95	300.23
712.28	299.25
712.61	298.26
712.95	297.34
713.28	296.45
713.61	295.54
713.95	294.65
714.28	293.79
714.61	292.93
714.95	292.07
715.28	291.23
715.61	290.37
715.95	289.56
716.28	288.70
716.61	287.89
716.95	287.06
717.28	286.33
717.61	285.55
717.94	284.79
718.28	283.98
718.61	283.28
718.94	282.59
719.27	281.97
719.61	281.34
719.94	280.65
720.27	279.93
720.60	279.25
720.94	278.63
721.27	278.06
721.60	277.44
721.93	276.78
722.27	276.19
722.60	275.65
722.93	275.05
723.26	274.51
723.59	273.98
723.93	273.45
724.26	272.88
724.59	272.32
724.92	271.81
725.25	271.26
725.59	270.73
725.92	270.20
726.25	269.67
726.58	269.14
726.91	268.66
727.24	268.22
727.57	267.77
727.91	267.27
728.24	266.85
728.57	266.37
728.90	265.94
729.23	265.42
729.56	264.95
729.89	264.48
730.22	264.01
730.55	263.54
730.89	263.05
731.22	262.60
731.55	262.15
731.88	261.70
732.21	261.28
732.54	260.86
732.87	260.46
733.20	260.06
733.53	259.73
733.86	259.33
734.19	258.91
734.52	258.50
734.85	258.20
735.18	257.72
735.51	257.41
735.84	257.04
736.17	256.73
736.50	256.38
736.83	256.18
737.16	255.85
737.49	255.51
737.82	255.19
738.15	254.88
738.48	254.58
738.81	254.27
739.14	253.93
739.47	253.60
739.80	253.30
740.13	252.96
740.46	252.60
740.79	252.29
741.12	252.00
741.45	251.65
741.78	251.29
742.11	251.02
742.44	250.69
742.77	250.43
743.10	250.10
743.43	249.80
743.75	249.42
744.08	249.27
744.41	248.98
744.74	248.69
745.07	248.39
745.40	248.11
745.73	247.88
746.06	247.64
746.39	247.39
746.71	247.12
747.04	246.83
747.37	246.58
747.70	246.36
748.03	246.09
748.36	245.93
748.68	245.72
749.01	245.47
749.34	245.25
749.67	245.00
750.00	244.79
750.33	244.65
750.65	244.42
750.98	244.09
751.31	243.91
751.64	243.74
751.97	243.58
752.29	243.39
752.62	243.16
752.95	242.98
753.28	242.77
753.60	242.54
753.93	242.40
754.26	242.20
754.59	241.94
754.91	241.72
755.24	241.54
755.57	241.33
755.90	241.14
756.22	240.91
756.55	240.70
756.88	240.49
757.20	240.20
757.53	240.02
757.86	239.85
758.19	239.65
758.51	239.46
758.84	239.29
759.17	239.04
759.49	238.84
759.82	238.72
760.15	238.59
760.47	238.48
760.80	238.28
761.13	238.14
761.45	238.02
761.78	237.88
762.11	237.71
762.43	237.54
762.76	237.38
763.08	237.27
763.41	237.13
763.74	237.00
764.06	236.89
764.39	236.72
764.71	236.54
765.04	236.44
765.37	236.29
765.69	236.09
766.02	235.99
766.34	235.88
766.67	235.70
767.00	235.59
767.32	235.49
767.65	235.44
767.97	235.31
768.30	235.18
768.62	235.06
768.95	234.94
769.27	234.84
769.60	234.78
769.92	234.69
770.25	234.57
770.57	234.43
770.90	234.35
771.22	234.27
771.55	234.20
771.87	234.10
772.20	234.00
772.52	234.02
772.85	234.04
773.17	233.91
773.50	233.80
773.82	233.69
774.15	233.56
774.47	233.41
774.80	233.31
775.12	233.21
775.45	233.15
775.77	233.10
776.09	233.04
776.42	232.94
776.74	232.90
777.07	232.82
777.39	232.74
777.72	232.66
778.04	232.61
778.36	232.54
778.69	232.48
779.01	232.42
779.33	232.30
779.66	232.16
779.98	232.13
780.31	232.08
780.63	232.06
780.95	232.02
781.28	231.97
781.60	231.92
781.92	231.90
782.25	231.84
782.57	231.78
782.89	231.69
783.22	231.63
783.54	231.54
783.86	231.51
784.19	231.50
784.51	231.47
784.83	231.39
785.16	231.34
785.48	231.28
785.80	231.26
786.12	231.23
786.45	231.18
786.77	231.13
787.09	231.09
787.42	231.04
787.74	231.01
788.06	230.97
788.38	230.95
788.71	230.88
789.03	230.82
789.35	230.79
789.67	230.75
789.99	230.70
790.32	230.67
790.64	230.61
790.96	230.63
791.28	230.55
791.61	230.52
791.93	230.47
792.25	230.42
792.57	230.43
792.89	230.37
793.21	230.32
793.54	230.27
793.86	230.20
794.18	230.14
794.50	230.05
794.82	230.01
795.14	229.96
795.47	229.92
795.79	229.92
796.11	229.86
796.43	229.84
796.75	229.81
797.07	229.78
797.39	229.76
797.71	229.64
798.04	229.61
798.36	229.58
798.68	229.53
799.00	229.49
799.32	229.37
799.64	229.33
799.96	229.28
800.28	229.28
800.60	229.25
800.92	229.24
801.24	229.24
801.56	229.23
801.89	229.20
802.21	229.19
802.53	229.12
802.85	229.10
803.17	229.09
803.49	229.06
803.81	229.02
804.13	228.95
804.45	228.87
804.77	228.82
805.09	228.76
805.41	228.74
805.73	228.72
806.05	228.68
806.37	228.65
806.69	228.62
807.01	228.52
807.33	228.49
807.65	228.39
807.97	228.37
808.28	228.30
808.60	228.25
808.92	228.19
809.24	228.24
809.56	228.16
809.88	228.10
810.20	228.07
810.52	228.07
810.84	228.08
811.16	228.10
811.48	228.09
811.80	228.10
812.12	228.06
812.43	228.05
812.75	228.03
813.07	228.01
813.39	228.01
813.71	227.99
814.03	227.96
814.35	227.96
814.67	227.92
814.98	227.87
815.30	227.85
815.62	227.86
815.94	227.77
816.26	227.80
816.58	227.73
816.89	227.69
817.21	227.65
817.53	227.64
817.85	227.61
818.17	227.57
818.48	227.54
818.80	227.58
819.12	227.56
819.44	227.53
819.76	227.50
820.07	227.47
820.39	227.47
820.71	227.46
821.03	227.44
821.34	227.42
821.66	227.43
821.98	227.45
822.30	227.40
822.61	227.48
822.93	227.44
823.25	227.47
823.57	227.49
823.88	227.50
824.20	227.48
824.52	227.50
824.83	227.52
825.15	227.48
825.47	227.44
825.79	227.44
826.10	227.46
826.42	227.45
826.74	227.46
827.05	227.48
827.37	227.48
827.69	227.47
828.00	227.50
828.32	227.53
828.64	227.50
828.95	227.57
829.27	227.52
829.58	227.53
829.90	227.53
830.22	227.53
830.53	227.48
830.85	227.50
831.17	227.45
831.48	227.42
831.80	227.43
832.11	227.42
832.43	227.39
832.75	227.39
833.06	227.39
833.38	227.35
833.69	227.34
834.01	227.34
834.32	227.35
834.64	227.33
834.96	227.32
835.27	227.31
835.59	227.23
835.90	227.23
836.22	227.21
836.53	227.19
836.85	227.20
837.16	227.32
837.48	227.29
837.79	227.33
838.11	227.33
838.42	227.34
838.74	227.35
839.05	227.33
839.37	227.30
839.68	227.27
840.00	227.27
840.31	227.25
840.63	227.20
840.94	227.18
841.26	227.10
841.57	227.08
841.88	227.06
842.20	227.06
842.51	227.01
842.83	227.00
843.14	227.06
843.46	227.03
843.77	226.94
844.08	226.93
844.40	226.87
844.71	226.87
845.03	226.83
845.34	226.82
845.65	226.81
845.97	226.78
846.28	226.77
846.60	226.78
846.91	226.77
847.22	226.79
847.54	226.77
847.85	226.78
848.16	226.77
848.48	226.78
848.79	226.76
849.10	226.77
849.42	226.73
849.73	226.62
850.04	226.60
850.36	226.58
850.67	226.55
850.98	226.55
851.30	226.54
851.61	226.51
851.92	226.47
852.23	226.49
852.55	226.52
852.86	226.51
853.17	226.50
853.49	226.50
853.80	226.48
854.11	226.47
854.42	226.50
854.74	226.48
855.05	226.45
855.36	226.42
855.67	226.42
855.99	226.45
856.30	226.56
856.61	226.53
856.92	226.51
857.23	226.55
857.55	226.55
857.86	226.55
858.17	226.57
858.48	226.57
858.79	226.54
859.11	226.52
859.42	226.52
859.73	226.53
860.04	226.54
860.35	226.52
860.66	226.55
860.98	226.54
861.29	226.56
861.60	226.56
861.91	226.57
862.22	226.57
862.53	226.56
862.84	226.46
863.16	226.50
863.47	226.47
863.78	226.43
864.09	226.45
864.40	226.45
864.71	226.45
865.02	226.44
865.33	226.46
865.64	226.43
865.95	226.44
866.27	226.51
866.58	226.49
866.89	226.52
867.20	226.50
867.51	226.44
867.82	226.44
868.13	226.46
868.44	226.48
868.75	226.51
869.06	226.49
869.37	226.50
869.68	226.49
869.99	226.52
870.30	226.56
870.61	226.56
870.92	226.56
871.23	226.58
871.54	226.61
871.85	226.62
872.16	226.68
872.47	226.66
872.78	226.60
873.09	226.58
873.40	226.58
873.71	226.63
874.02	226.67
874.33	226.62
874.64	226.59
874.95	226.57
875.26	226.51
875.56	226.53
875.87	226.53
876.18	226.48
876.49	226.59
876.80	226.59
877.11	226.58
877.42	226.59
877.73	226.57
878.04	226.54
878.35	226.55
878.66	226.53
878.96	226.53
879.27	226.51
879.58	226.52
879.89	226.50
880.20	226.45
880.51	226.45
880.82	226.48
881.12	226.51
881.43	226.53
881.74	226.52
882.05	226.48
882.36	226.50
882.67	226.52
882.97	226.38
883.28	226.31
883.59	226.28
883.90	226.25
884.21	226.26
884.51	226.27
884.82	226.24
885.13	226.24
885.44	226.20
885.74	226.20
886.05	226.17
886.36	226.18
886.67	226.17
886.98	226.21
887.28	226.18
887.59	226.16
887.90	226.16
888.20	226.15
888.51	226.18
888.82	226.14
889.13	226.16
889.43	226.26
889.74	226.29
890.05	226.28
890.35	226.30
890.66	226.28
890.97	226.25
891.28	226.23
891.58	226.25
891.89	226.29
892.20	226.26
892.50	226.26
892.81	226.24
893.12	226.21
893.42	226.13
893.73	226.15
894.04	226.16
894.34	226.15
894.65	226.15
894.95	226.17
895.26	226.19
895.57	226.24
895.87	226.12
896.18	226.13
896.48	226.11
896.79	226.09
897.10	226.07
897.40	226.08
897.71	226.09
898.01	226.05
898.32	226.03
898.63	226.03
898.93	226.05
899.24	226.07
899.54	226.07
899.85	226.10
900.15	226.07
900.46	226.05
900.76	226.07
901.07	226.09
901.38	226.09
901.68	226.08
901.99	226.00
902.29	226.04
902.60	226.01
902.90	226.03
903.21	226.01
903.51	226.03
903.82	226.06
904.12	226.04
904.43	226.07
904.73	226.07
905.03	226.08
905.34	226.15
905.64	226.13
905.95	226.11
906.25	226.12
906.56	226.13
906.86	226.15
907.17	226.10
907.47	226.08
907.77	226.04
908.08	226.02
908.38	226.05
908.69	226.05
908.99	226.07
909.30	226.08
909.60	226.11
909.90	226.11
910.21	226.06
910.51	226.07
910.81	226.03
911.12	226.03
911.42	226.02
911.73	225.92
912.03	225.93
912.33	225.95
912.64	225.93
912.94	225.91
913.24	225.90
913.55	225.92
913.85	225.92
914.15	225.94
914.46	225.93
914.76	225.91
915.06	225.90
915.37	225.87
915.67	225.87
915.97	225.86
916.27	225.84
916.58	225.84
916.88	225.84
917.18	225.88
917.49	225.96
917.79	225.97
918.09	226.01
918.39	226.03
918.70	226.05
919.00	226.05
919.30	226.09
919.60	226.10
919.91	226.06
920.21	226.06
920.51	226.03
920.81	226.03
921.12	226.05
921.42	226.05
921.72	226.05
922.02	226.07
922.32	226.11
922.63	226.13
922.93	226.20
923.23	226.19
923.53	226.20
923.83	226.15
924.13	226.16
924.44	226.13
924.74	226.13
925.04	226.17
925.34	226.16
925.64	226.15
925.94	226.14
926.24	226.18
926.55	226.17
926.85	226.21
927.15	226.20
927.45	226.21
927.75	226.19
928.05	226.18
928.35	226.17
928.65	226.14
928.95	226.14
929.26	226.09
929.56	226.11
929.86	226.10
930.16	226.09
930.46	226.08
930.76	226.09
931.06	226.03
931.36	225.98
931.66	226.01
931.96	226.01
932.26	226.00
932.56	225.98
932.86	226.01
933.16	226.03
933.46	226.03
933.76	226.00
934.06	226.07
934.36	226.13
934.66	226.14
934.96	226.16
935.26	226.16
935.56	226.17
935.86	226.17
936.16	226.14
936.46	226.15
936.76	226.16
937.06	226.17
937.36	226.16
937.66	226.18
937.96	226.18
938.26	226.17
938.56	226.21
938.86	226.23
939.16	226.22
939.46	226.20
939.76	226.21
940.06	226.25
940.35	226.17
940.65	226.12
940.95	226.10
941.25	226.08
941.55	226.05
941.85	226.02
942.15	226.04
942.45	226.08
942.75	226.05
943.04	226.05
943.34	226.07
943.64	226.10
943.94	226.08
944.24	226.05
944.54	226.04
944.84	226.01
945.13	226.00
945.43	225.99
945.73	225.99
946.03	225.99
946.33	226.00
946.62	226.00
946.92	226.02
947.22	226.01
947.52	226.03
947.82	226.09
948.11	226.10
948.41	226.06
948.71	226.00
949.01	226.01
949.31	226.00
949.60	225.96
949.90	225.97
950.20	225.95
950.50	225.99
950.79	225.99
951.09	226.00
951.39	225.98
951.69	225.98
951.98	226.00
952.28	225.98
952.58	225.97
952.87	225.99
953.17	226.00
953.47	225.99
953.76	225.97
954.06	225.93
954.36	225.91
954.66	225.89
954.95	225.92
955.25	225.93
955.55	225.92
955.84	225.90
956.14	225.91
956.44	225.92
956.73	225.88
957.03	225.88
957.32	225.88
957.62	225.87
957.92	225.90
958.21	225.89
958.51	225.99
958.81	225.98
959.10	225.98
959.40	225.98
959.69	226.01
959.99	226.01
960.29	225.99
960.58	225.97
960.88	226.02
961.17	226.01
961.47	226.01
961.76	225.98
962.06	225.99
962.36	225.99
962.65	226.02
962.95	226.00
963.24	225.99
963.54	226.01
963.83	226.03
964.13	226.01
964.42	225.98
964.72	225.92
965.01	225.93
965.31	225.92
965.60	225.90
965.90	225.94
966.19	225.91
966.49	225.94
966.78	225.96
967.08	225.97
967.37	225.96
967.67	225.93
967.96	225.99
968.26	226.00
968.55	225.99
968.85	226.00
969.14	225.99
969.43	226.01
969.73	225.97
970.02	225.97
970.32	225.98
970.61	225.98
970.91	225.95
971.20	225.92
971.49	225.89
971.79	225.90
972.08	225.84
972.38	225.89
972.67	225.90
972.96	225.93
973.26	225.90
973.55	225.97
973.85	225.98
974.14	225.97
974.43	225.98
974.73	225.99
975.02	225.97
975.31	225.99
975.61	225.99
975.90	225.99
976.19	225.98
976.49	225.98
976.78	226.01
977.07	226.00
977.37	226.03
977.66	226.08
977.95	226.07
978.24	226.07
978.54	226.05
978.83	226.07
979.12	226.04
979.42	226.07
979.71	226.05
980.00	226.08
980.29	226.06
980.59	226.03
980.88	226.08
981.17	226.09
981.46	226.10
981.76	226.11
982.05	226.17
982.34	226.18
982.63	226.19
982.93	226.18
983.22	226.20
983.51	226.21
983.80	226.22
984.09	226.25
984.39	226.27
984.68	226.23
984.97	226.19
985.26	226.20
985.55	226.18
985.85	226.15
986.14	226.17
986.43	226.18
986.72	226.21
987.01	226.18
987.30	226.17
987.59	226.17
987.89	226.20
988.18	226.12
988.47	226.12
988.76	226.09
989.05	226.05
989.34	226.05
989.63	226.04
989.92	226.03
990.22	226.00
990.51	225.98
990.80	225.95
991.09	225.98
991.38	225.96
991.67	225.93
991.96	225.95
992.25	225.90
992.54	225.91
992.83	225.85
993.12	225.83
993.41	225.84
993.70	225.87
993.99	225.84
994.28	225.86
994.58	225.85
994.87	225.86
995.16	225.85
995.45	225.82
995.74	225.79
996.03	225.77
996.32	225.79
996.61	225.82
996.90	225.85
997.19	225.83
997.48	225.84
997.77	225.85
998.06	225.81
998.34	225.83
998.63	225.79
998.92	225.80
999.21	225.80
999.50	225.77
999.79	225.74
1000.08	225.75
1000.37	225.74
1000.66	225.74
1000.95	225.76
1001.24	225.77
1001.53	225.82
1001.82	225.80
1002.11	225.79
1002.40	225.80
1002.68	225.78
1002.97	225.85
1003.26	225.83
1003.55	225.82
1003.84	225.82
1004.13	225.85
1004.42	225.83
1004.71	225.85
1004.99	225.84
1005.28	225.86
1005.57	225.89
1005.86	225.84
1006.15	225.84
1006.44	225.84
1006.72	225.82
1007.01	225.80
1007.30	225.80
1007.59	225.79
1007.88	225.82
1008.17	225.83
1008.45	225.80
1008.74	225.79
1009.03	225.77
1009.32	225.77
1009.60	225.78
1009.89	225.77
1010.18	225.74
1010.47	225.74
1010.76	225.74
1011.04	225.75
1011.33	225.77
1011.62	225.77
1011.91	225.81
1012.19	225.79
1012.48	225.80
1012.77	225.81
1013.05	225.86
1013.34	225.89
1013.63	225.83
1013.92	225.84
1014.20	225.82
1014.49	225.84
1014.78	225.86
1015.06	225.81
1015.35	225.83
1015.64	225.84
1015.92	225.85
1016.21	225.87
1016.50	225.86
1016.78	225.90
1017.07	225.93
1017.36	225.91
1017.64	225.87
1017.93	225.86
1018.22	225.84
1018.50	225.86
1018.79	225.89
1019.08	225.86
1019.36	225.83
1019.65	225.84
1019.93	225.87
1020.22	225.89
1020.51	225.97
1020.79	225.93
1021.08	225.30
1021.36	225.95
1021.65	226.25
1021.94	225.82
1022.22	225.74
1022.51	225.69
1022.79	226.25
1023.08	225.97
1023.36	227.63
1023.65	225.33
>>>>>End Processed Spectral Data<<<<<
