SpectraSuite Data File
++++++++++++++++++++++++++++++++++++
Date: Fri Feb 01 15:40:57 EST 2013
User: group
Dark Spectrum Present: No
Reference Spectrum Present: No
Number of Sampled Component Spectra: 1
Spectrometers: USB2E7196
Integration Time (usec): 35000 (USB2E7196)
Spectra Averaged: 100 (USB2E7196)
Boxcar Smoothing: 10 (USB2E7196)
Correct for Electrical Dark: No (USB2E7196)
Strobe/Lamp Enabled: No (USB2E7196)
Correct for Detector Non-linearity: No (USB2E7196)
Correct for Stray Light: No (USB2E7196)
Number of Pixels in Processed Spectrum: 2048
>>>>>Begin Processed Spectral Data<<<<<
339.09	0.00
339.48	214.96
339.86	217.13
340.24	217.61
340.63	219.09
341.01	222.00
341.39	222.31
341.78	223.89
342.16	224.49
342.54	224.57
342.93	213.46
343.31	224.23
343.69	224.76
344.07	225.18
344.46	225.62
344.84	226.01
345.22	226.25
345.60	226.48
345.99	226.63
346.37	226.76
346.75	226.87
347.13	226.93
347.52	226.96
347.90	227.00
348.28	227.07
348.66	227.09
349.05	227.04
349.43	227.07
349.81	227.08
350.19	227.08
350.57	227.09
350.96	227.12
351.34	227.21
351.72	227.26
352.10	227.36
352.48	227.45
352.87	227.45
353.25	227.51
353.63	227.59
354.01	227.63
354.39	227.68
354.77	227.77
355.15	227.87
355.54	227.92
355.92	227.94
356.30	227.97
356.68	228.11
357.06	228.20
357.44	228.25
357.82	228.33
358.20	228.41
358.58	228.49
358.97	228.55
359.35	228.64
359.73	228.72
360.11	228.74
360.49	228.75
360.87	228.82
361.25	228.87
361.63	228.93
362.01	229.01
362.39	229.06
362.77	229.07
363.15	229.10
363.53	229.16
363.91	229.19
364.29	229.24
364.67	229.20
365.05	229.22
365.43	229.25
365.81	229.27
366.19	229.30
366.57	229.32
366.95	229.33
367.33	229.30
367.71	229.30
368.09	229.34
368.47	229.31
368.85	229.29
369.23	229.27
369.61	229.21
369.99	229.20
370.37	229.18
370.75	229.21
371.13	229.15
371.51	229.10
371.89	229.08
372.27	229.05
372.65	229.02
373.03	228.99
373.41	228.95
373.78	228.88
374.16	228.82
374.54	228.73
374.92	228.66
375.30	228.59
375.68	228.52
376.06	228.47
376.44	228.44
376.82	228.37
377.19	228.34
377.57	228.25
377.95	228.19
378.33	228.12
378.71	227.99
379.09	227.93
379.47	227.87
379.84	227.77
380.22	227.71
380.60	227.61
380.98	227.47
381.36	227.39
381.73	227.28
382.11	227.22
382.49	227.19
382.87	227.13
383.25	227.09
383.62	227.17
384.00	227.09
384.38	227.02
384.76	226.98
385.13	226.95
385.51	226.91
385.89	226.82
386.27	226.76
386.64	226.74
387.02	226.73
387.40	226.68
387.78	226.68
388.15	226.60
388.53	226.56
388.91	226.57
389.29	226.57
389.66	226.61
390.04	226.57
390.42	226.55
390.79	226.51
391.17	226.46
391.55	226.33
391.92	226.32
392.30	226.31
392.68	226.32
393.05	226.30
393.43	226.34
393.81	226.34
394.18	226.34
394.56	226.35
394.94	226.36
395.31	226.37
395.69	226.42
396.06	226.46
396.44	226.50
396.82	226.52
397.19	226.58
397.57	226.60
397.95	226.65
398.32	226.67
398.70	226.74
399.07	226.82
399.45	226.89
399.82	226.98
400.20	227.03
400.58	227.08
400.95	227.10
401.33	227.20
401.70	227.34
402.08	227.44
402.45	227.50
402.83	227.59
403.20	227.72
403.58	227.80
403.95	227.93
404.33	228.08
404.71	228.23
405.08	228.42
405.46	228.55
405.83	228.69
406.21	228.84
406.58	228.99
406.96	229.16
407.33	229.34
407.70	229.50
408.08	229.79
408.45	230.01
408.83	230.26
409.20	230.46
409.58	230.69
409.95	230.95
410.33	231.23
410.70	231.50
411.08	231.78
411.45	232.09
411.82	232.38
412.20	232.73
412.57	233.10
412.95	233.39
413.32	233.78
413.69	234.19
414.07	234.63
414.44	235.13
414.82	235.62
415.19	236.13
415.56	236.66
415.94	237.18
416.31	237.84
416.68	238.44
417.06	239.16
417.43	239.83
417.81	240.55
418.18	241.31
418.55	242.16
418.93	243.00
419.30	243.90
419.67	244.85
420.04	245.77
420.42	246.80
420.79	247.97
421.16	249.16
421.54	250.33
421.91	251.55
422.28	252.79
422.66	254.12
423.03	255.43
423.40	256.81
423.77	258.27
424.15	259.71
424.52	261.22
424.89	262.83
425.26	264.35
425.64	265.84
426.01	267.48
426.38	269.10
426.75	270.81
427.13	272.56
427.50	274.36
427.87	276.28
428.24	278.12
428.61	279.89
428.99	281.84
429.36	283.96
429.73	286.06
430.10	288.05
430.47	290.10
430.85	292.26
431.22	294.50
431.59	296.84
431.96	299.08
432.33	301.58
432.70	303.94
433.08	306.77
433.45	309.43
433.82	312.05
434.19	314.98
434.56	317.79
434.93	320.43
435.30	323.06
435.68	325.96
436.05	328.80
436.42	331.59
436.79	334.10
437.16	336.84
437.53	339.64
437.90	342.50
438.27	345.22
438.64	348.05
439.01	350.64
439.38	352.91
439.75	355.04
440.13	357.53
440.50	359.88
440.87	361.71
441.24	363.60
441.61	365.69
441.98	367.18
442.35	368.98
442.72	370.81
443.09	372.59
443.46	373.57
443.83	374.16
444.20	374.72
444.57	375.53
444.94	375.77
445.31	376.09
445.68	376.39
446.05	376.52
446.42	376.09
446.79	375.67
447.16	375.19
447.53	374.91
447.90	373.74
448.27	372.59
448.64	371.02
449.01	369.91
449.37	367.95
449.74	366.06
450.11	363.78
450.48	361.35
450.85	358.82
451.22	356.66
451.59	354.65
451.96	352.63
452.33	350.03
452.70	347.66
453.07	344.85
453.43	341.97
453.80	339.21
454.17	336.54
454.54	333.99
454.91	331.30
455.28	328.58
455.65	326.05
456.02	323.58
456.38	321.40
456.75	318.75
457.12	316.56
457.49	314.31
457.86	312.16
458.23	310.31
458.59	308.25
458.96	306.16
459.33	304.25
459.70	302.43
460.07	300.92
460.43	299.22
460.80	297.56
461.17	296.12
461.54	294.61
461.91	293.17
462.27	291.72
462.64	290.45
463.01	289.12
463.38	287.82
463.74	286.46
464.11	285.32
464.48	284.25
464.85	283.12
465.21	282.25
465.58	281.33
465.95	280.21
466.32	279.33
466.68	278.41
467.05	277.56
467.42	276.67
467.78	275.72
468.15	274.88
468.52	274.21
468.88	273.35
469.25	272.54
469.62	271.89
469.98	271.17
470.35	270.54
470.72	269.93
471.08	269.29
471.45	268.77
471.82	268.19
472.18	267.62
472.55	267.17
472.92	266.64
473.28	266.19
473.65	265.75
474.02	265.32
474.38	264.98
474.75	264.64
475.11	264.27
475.48	264.01
475.85	263.73
476.21	263.51
476.58	263.32
476.94	263.19
477.31	263.07
477.67	262.98
478.04	262.89
478.41	262.87
478.77	262.90
479.14	262.81
479.50	262.85
479.87	262.90
480.23	263.01
480.60	263.06
480.96	263.13
481.33	263.31
481.69	263.50
482.06	263.69
482.42	263.91
482.79	264.19
483.15	264.51
483.52	264.90
483.88	265.26
484.25	265.65
484.61	266.08
484.98	266.50
485.34	267.06
485.71	267.61
486.07	268.19
486.44	268.79
486.80	269.53
487.17	270.25
487.53	271.09
487.90	271.97
488.26	272.97
488.62	273.98
488.99	274.97
489.35	276.01
489.72	277.13
490.08	278.36
490.44	279.57
490.81	280.91
491.17	282.30
491.54	283.82
491.90	285.39
492.26	287.09
492.63	288.83
492.99	290.60
493.36	292.56
493.72	294.62
494.08	296.72
494.45	298.97
494.81	301.34
495.17	303.76
495.54	306.28
495.90	308.96
496.26	311.79
496.63	314.79
496.99	317.91
497.35	321.21
497.72	324.59
498.08	328.11
498.44	331.79
498.80	335.70
499.17	339.70
499.53	343.92
499.89	348.27
500.26	352.77
500.62	357.42
500.98	362.35
501.34	367.37
501.71	372.69
502.07	378.10
502.43	383.74
502.79	389.53
503.16	395.57
503.52	401.83
503.88	408.23
504.24	414.88
504.60	421.82
504.97	428.95
505.33	436.29
505.69	444.01
506.05	451.79
506.41	459.65
506.78	467.82
507.14	476.19
507.50	484.91
507.86	493.90
508.22	503.06
508.59	512.24
508.95	521.90
509.31	531.72
509.67	541.81
510.03	552.03
510.39	562.63
510.75	573.48
511.12	584.44
511.48	595.70
511.84	607.12
512.20	618.50
512.56	630.33
512.92	642.48
513.28	654.76
513.64	667.23
514.00	679.98
514.37	692.94
514.73	706.01
515.09	719.00
515.45	732.32
515.81	745.93
516.17	759.95
516.53	773.96
516.89	788.18
517.25	802.41
517.61	816.94
517.97	831.43
518.33	845.90
518.69	860.63
519.05	875.62
519.41	890.77
519.77	906.42
520.13	921.87
520.49	937.23
520.85	952.79
521.21	968.58
521.57	984.82
521.93	1000.56
522.29	1016.95
522.65	1033.20
523.01	1049.48
523.37	1065.56
523.73	1081.83
524.09	1098.01
524.45	1114.31
524.81	1130.94
525.17	1147.75
525.53	1164.61
525.89	1181.42
526.25	1198.27
526.61	1214.73
526.97	1231.54
527.33	1247.96
527.68	1264.75
528.04	1281.31
528.40	1297.91
528.76	1314.91
529.12	1331.45
529.48	1348.33
529.84	1364.35
530.20	1381.05
530.56	1398.09
530.91	1415.55
531.27	1432.29
531.63	1448.78
531.99	1465.41
532.35	1481.34
532.71	1497.18
533.07	1513.50
533.42	1529.43
533.78	1545.51
534.14	1561.84
534.50	1577.23
534.86	1593.18
535.21	1608.24
535.57	1624.12
535.93	1639.58
536.29	1654.29
536.65	1669.51
537.00	1684.49
537.36	1699.78
537.72	1714.35
538.08	1728.70
538.44	1742.48
538.79	1756.31
539.15	1769.99
539.51	1783.69
539.87	1798.10
540.22	1811.87
540.58	1825.58
540.94	1838.97
541.29	1851.84
541.65	1864.48
542.01	1877.83
542.37	1890.15
542.72	1902.71
543.08	1914.58
543.44	1926.99
543.79	1938.42
544.15	1949.33
544.51	1960.75
544.87	1971.79
545.22	1982.63
545.58	1992.96
545.94	2002.69
546.29	2012.55
546.65	2022.36
547.01	2031.62
547.36	2040.42
547.72	2048.90
548.07	2056.68
548.43	2064.81
548.79	2072.84
549.14	2080.39
549.50	2087.56
549.86	2095.23
550.21	2102.41
550.57	2109.48
550.92	2116.06
551.28	2123.06
551.64	2130.13
551.99	2136.61
552.35	2142.90
552.70	2148.97
553.06	2154.95
553.41	2161.36
553.77	2167.38
554.13	2173.57
554.48	2179.66
554.84	2184.98
555.19	2190.27
555.55	2195.67
555.90	2200.11
556.26	2205.00
556.61	2209.84
556.97	2214.13
557.32	2218.26
557.68	2222.49
558.03	2226.88
558.39	2230.56
558.74	2235.35
559.10	2239.15
559.45	2242.89
559.81	2247.08
560.16	2250.94
560.52	2254.13
560.87	2257.47
561.23	2260.21
561.58	2263.03
561.94	2265.56
562.29	2267.92
562.64	2270.58
563.00	2272.93
563.35	2276.38
563.71	2279.57
564.06	2282.63
564.42	2285.39
564.77	2287.92
565.12	2290.07
565.48	2291.86
565.83	2293.71
566.19	2294.69
566.54	2295.57
566.89	2296.54
567.25	2296.99
567.60	2298.31
567.96	2299.89
568.31	2300.70
568.66	2301.69
569.02	2302.36
569.37	2302.72
569.72	2303.60
570.08	2303.72
570.43	2303.86
570.78	2303.30
571.14	2301.65
571.49	2300.30
571.84	2300.10
572.20	2298.90
572.55	2297.80
572.90	2296.33
573.26	2294.92
573.61	2293.30
573.96	2291.48
574.31	2288.53
574.67	2285.53
575.02	2281.83
575.37	2278.54
575.72	2274.72
576.08	2271.46
576.43	2268.07
576.78	2264.43
577.13	2261.25
577.49	2258.25
577.84	2254.81
578.19	2251.01
578.54	2247.33
578.90	2243.07
579.25	2237.36
579.60	2232.34
579.95	2227.27
580.30	2222.16
580.66	2216.91
581.01	2211.95
581.36	2207.04
581.71	2202.92
582.06	2198.43
582.42	2193.90
582.77	2188.51
583.12	2183.93
583.47	2179.16
583.82	2174.10
584.17	2168.69
584.53	2163.25
584.88	2157.38
585.23	2151.39
585.58	2145.98
585.93	2140.55
586.28	2135.81
586.63	2130.71
586.98	2125.58
587.34	2121.04
587.69	2116.26
588.04	2110.97
588.39	2105.22
588.74	2098.77
589.09	2092.64
589.44	2085.82
589.79	2079.84
590.14	2074.28
590.49	2067.56
590.84	2061.12
591.19	2055.05
591.54	2048.60
591.89	2041.12
592.25	2034.37
592.60	2027.19
592.95	2019.57
593.30	2012.14
593.65	2004.37
594.00	1997.29
594.35	1990.08
594.70	1982.03
595.05	1974.66
595.40	1967.29
595.75	1959.83
596.10	1953.61
596.45	1946.78
596.80	1940.73
597.15	1933.97
597.50	1926.76
597.85	1920.52
598.19	1913.79
598.54	1906.65
598.89	1899.97
599.24	1893.98
599.59	1887.32
599.94	1881.04
600.29	1874.76
600.64	1868.29
600.99	1860.86
601.34	1854.06
601.69	1847.14
602.04	1840.22
602.39	1832.68
602.74	1825.85
603.08	1819.05
603.43	1812.18
603.78	1804.97
604.13	1797.54
604.48	1790.19
604.83	1783.32
605.18	1776.15
605.53	1768.16
605.87	1760.11
606.22	1752.92
606.57	1744.99
606.92	1737.58
607.27	1730.44
607.62	1723.25
607.96	1715.76
608.31	1709.17
608.66	1701.48
609.01	1693.85
609.36	1686.17
609.70	1678.26
610.05	1670.18
610.40	1662.44
610.75	1654.21
611.10	1646.31
611.44	1638.06
611.79	1630.16
612.14	1621.37
612.49	1612.28
612.83	1603.99
613.18	1595.86
613.53	1587.78
613.88	1579.15
614.22	1570.77
614.57	1562.17
614.92	1554.29
615.27	1546.81
615.61	1538.39
615.96	1530.41
616.31	1522.89
616.65	1515.50
617.00	1507.91
617.35	1500.37
617.70	1492.06
618.04	1483.48
618.39	1475.33
618.74	1467.58
619.08	1459.27
619.43	1451.81
619.78	1444.98
620.12	1437.73
620.47	1430.18
620.82	1421.90
621.16	1414.71
621.51	1407.20
621.85	1399.66
622.20	1391.14
622.55	1382.80
622.89	1375.08
623.24	1367.40
623.59	1359.94
623.93	1352.44
624.28	1345.20
624.62	1337.57
624.97	1330.44
625.32	1323.77
625.66	1316.80
626.01	1309.71
626.35	1302.25
626.70	1294.53
627.04	1286.68
627.39	1278.97
627.73	1271.61
628.08	1264.70
628.43	1257.26
628.77	1249.91
629.12	1242.33
629.46	1235.13
629.81	1227.75
630.15	1220.52
630.50	1213.22
630.84	1204.98
631.19	1197.25
631.53	1189.83
631.88	1182.36
632.22	1174.74
632.57	1167.35
632.91	1159.78
633.26	1152.41
633.60	1145.03
633.95	1137.98
634.29	1131.02
634.64	1124.31
634.98	1117.01
635.32	1110.01
635.67	1103.54
636.01	1096.95
636.36	1090.10
636.70	1083.63
637.05	1076.99
637.39	1070.44
637.73	1063.85
638.08	1057.90
638.42	1051.76
638.77	1045.29
639.11	1038.65
639.45	1032.37
639.80	1025.77
640.14	1019.38
640.49	1012.80
640.83	1006.48
641.17	1000.15
641.52	993.76
641.86	987.29
642.20	981.42
642.55	975.03
642.89	968.37
643.23	961.83
643.58	956.06
643.92	949.85
644.26	943.83
644.61	937.86
644.95	931.87
645.29	925.25
645.64	918.48
645.98	912.18
646.32	906.38
646.66	900.24
647.01	894.42
647.35	888.70
647.69	882.92
648.04	877.41
648.38	871.64
648.72	865.69
649.06	859.56
649.41	853.63
649.75	847.65
650.09	841.74
650.43	835.93
650.78	829.78
651.12	823.83
651.46	818.04
651.80	812.33
652.14	806.90
652.49	801.59
652.83	796.39
653.17	790.73
653.51	785.01
653.85	779.66
654.20	773.98
654.54	767.95
654.88	762.15
655.22	756.30
655.56	750.60
655.90	745.13
656.25	739.99
656.59	734.69
656.93	729.62
657.27	724.49
657.61	719.01
657.95	713.95
658.29	708.83
658.64	703.64
658.98	698.34
659.32	692.95
659.66	687.77
660.00	682.50
660.34	677.51
660.68	672.63
661.02	667.53
661.36	662.86
661.70	658.38
662.05	654.08
662.39	649.75
662.73	645.29
663.07	640.90
663.41	636.36
663.75	631.79
664.09	627.24
664.43	622.84
664.77	618.81
665.11	614.57
665.45	610.52
665.79	606.36
666.13	602.18
666.47	598.10
666.81	593.98
667.15	589.90
667.49	586.00
667.83	582.17
668.17	578.29
668.51	574.22
668.85	570.23
669.19	566.39
669.53	562.50
669.87	558.66
670.21	554.94
670.55	551.35
670.89	547.96
671.23	544.53
671.57	541.04
671.91	537.41
672.25	533.91
672.58	530.34
672.92	527.04
673.26	523.88
673.60	520.75
673.94	517.65
674.28	514.77
674.62	511.87
674.96	508.75
675.30	505.85
675.64	502.93
675.97	500.17
676.31	497.27
676.65	494.39
676.99	491.63
677.33	488.82
677.67	485.99
678.01	482.96
678.34	479.98
678.68	477.12
679.02	474.34
679.36	471.56
679.70	468.90
680.04	466.14
680.37	463.28
680.71	460.48
681.05	457.83
681.39	455.04
681.73	452.32
682.06	449.79
682.40	447.19
682.74	444.64
683.08	442.02
683.42	439.45
683.75	436.92
684.09	434.40
684.43	431.91
684.77	429.44
685.10	427.12
685.44	424.77
685.78	422.49
686.12	420.29
686.45	417.99
686.79	415.66
687.13	413.47
687.46	411.31
687.80	409.13
688.14	406.91
688.48	404.86
688.81	402.64
689.15	400.48
689.49	398.33
689.82	396.29
690.16	394.25
690.50	392.27
690.83	390.34
691.17	388.39
691.51	386.49
691.84	384.66
692.18	382.69
692.52	380.78
692.85	378.83
693.19	376.89
693.52	375.09
693.86	373.29
694.20	371.50
694.53	369.66
694.87	367.77
695.21	366.00
695.54	364.17
695.88	362.44
696.21	360.71
696.55	359.09
696.88	357.39
697.22	355.76
697.56	354.16
697.89	352.52
698.23	350.89
698.56	349.29
698.90	347.69
699.23	346.06
699.57	344.49
699.90	342.93
700.24	341.42
700.58	339.86
700.91	338.37
701.25	336.91
701.58	335.60
701.92	334.27
702.25	332.91
702.59	331.56
702.92	330.26
703.26	328.99
703.59	327.71
703.93	326.52
704.26	325.27
704.60	323.99
704.93	322.74
705.26	321.52
705.60	320.38
705.93	319.23
706.27	318.22
706.60	317.17
706.94	316.12
707.27	314.99
707.61	313.97
707.94	312.91
708.27	311.81
708.61	310.72
708.94	309.69
709.28	308.71
709.61	307.78
709.94	306.85
710.28	305.82
710.61	304.81
710.95	303.72
711.28	302.82
711.61	301.87
711.95	300.93
712.28	299.99
712.61	298.99
712.95	298.06
713.28	297.17
713.61	296.27
713.95	295.38
714.28	294.55
714.61	293.66
714.95	292.81
715.28	291.97
715.61	291.08
715.95	290.23
716.28	289.38
716.61	288.53
716.95	287.72
717.28	287.00
717.61	286.23
717.94	285.54
718.28	284.74
718.61	284.03
718.94	283.34
719.27	282.69
719.61	282.05
719.94	281.40
720.27	280.69
720.60	280.03
720.94	279.39
721.27	278.77
721.60	278.17
721.93	277.56
722.27	277.05
722.60	276.49
722.93	275.94
723.26	275.41
723.59	274.86
723.93	274.31
724.26	273.80
724.59	273.25
724.92	272.68
725.25	272.15
725.59	271.67
725.92	271.17
726.25	270.62
726.58	270.11
726.91	269.62
727.24	269.13
727.57	268.67
727.91	268.17
728.24	267.71
728.57	267.26
728.90	266.83
729.23	266.32
729.56	265.90
729.89	265.42
730.22	264.90
730.55	264.39
730.89	263.92
731.22	263.44
731.55	263.00
731.88	262.59
732.21	262.13
732.54	261.64
732.87	261.21
733.20	260.85
733.53	260.48
733.86	260.09
734.19	259.68
734.52	259.31
734.85	258.99
735.18	258.54
735.51	258.16
735.84	257.78
736.17	257.42
736.50	257.01
736.83	256.80
737.16	256.49
737.49	256.20
737.82	255.84
738.15	255.53
738.48	255.19
738.81	254.86
739.14	254.54
739.47	254.23
739.80	253.89
740.13	253.56
740.46	253.21
740.79	252.91
741.12	252.62
741.45	252.27
741.78	251.92
742.11	251.67
742.44	251.32
742.77	251.04
743.10	250.75
743.43	250.43
743.75	250.07
744.08	249.90
744.41	249.59
744.74	249.33
745.07	249.03
745.40	248.75
745.73	248.52
746.06	248.24
746.39	247.97
746.71	247.72
747.04	247.42
747.37	247.17
747.70	246.92
748.03	246.64
748.36	246.44
748.68	246.20
749.01	245.91
749.34	245.72
749.67	245.48
750.00	245.26
750.33	245.14
750.65	244.92
750.98	244.61
751.31	244.40
751.64	244.17
751.97	244.00
752.29	243.81
752.62	243.55
752.95	243.39
753.28	243.19
753.60	242.97
753.93	242.82
754.26	242.63
754.59	242.43
754.91	242.26
755.24	242.07
755.57	241.89
755.90	241.76
756.22	241.57
756.55	241.38
756.88	241.22
757.20	240.97
757.53	240.80
757.86	240.63
758.19	240.50
758.51	240.33
758.84	240.16
759.17	240.00
759.49	239.86
759.82	239.73
760.15	239.59
760.47	239.51
760.80	239.35
761.13	239.20
761.45	239.06
761.78	238.91
762.11	238.79
762.43	238.66
762.76	238.51
763.08	238.38
763.41	238.23
763.74	238.08
764.06	237.95
764.39	237.82
764.71	237.69
765.04	237.54
765.37	237.41
765.69	237.29
766.02	237.18
766.34	237.09
766.67	236.93
767.00	236.81
767.32	236.72
767.65	236.66
767.97	236.55
768.30	236.41
768.62	236.29
768.95	236.14
769.27	235.99
769.60	235.88
769.92	235.76
770.25	235.66
770.57	235.54
770.90	235.45
771.22	235.34
771.55	235.22
771.87	235.16
772.20	235.08
772.52	235.00
772.85	235.00
773.17	234.88
773.50	234.79
773.82	234.68
774.15	234.50
774.47	234.35
774.80	234.26
775.12	234.18
775.45	234.13
775.77	234.03
776.09	233.97
776.42	233.88
776.74	233.82
777.07	233.74
777.39	233.65
777.72	233.51
778.04	233.41
778.36	233.32
778.69	233.22
779.01	233.13
779.33	233.03
779.66	232.82
779.98	232.73
780.31	232.64
780.63	232.61
780.95	232.59
781.28	232.51
781.60	232.43
781.92	232.37
782.25	232.29
782.57	232.23
782.89	232.12
783.22	232.05
783.54	231.99
783.86	231.92
784.19	231.87
784.51	231.86
784.83	231.81
785.16	231.74
785.48	231.71
785.80	231.66
786.12	231.59
786.45	231.57
786.77	231.51
787.09	231.48
787.42	231.40
787.74	231.37
788.06	231.34
788.38	231.31
788.71	231.27
789.03	231.21
789.35	231.20
789.67	231.18
789.99	231.16
790.32	231.11
790.64	231.08
790.96	231.12
791.28	231.09
791.61	231.05
791.93	231.05
792.25	231.00
792.57	231.07
792.89	231.04
793.21	231.04
793.54	231.03
793.86	230.96
794.18	230.94
794.50	230.85
794.82	230.82
795.14	230.78
795.47	230.77
795.79	230.76
796.11	230.71
796.43	230.69
796.75	230.66
797.07	230.66
797.39	230.64
797.71	230.52
798.04	230.48
798.36	230.44
798.68	230.41
799.00	230.39
799.32	230.28
799.64	230.23
799.96	230.18
800.28	230.18
800.60	230.17
800.92	230.14
801.24	230.11
801.56	230.07
801.89	230.04
802.21	229.98
802.53	229.93
802.85	229.92
803.17	229.95
803.49	229.89
803.81	229.85
804.13	229.81
804.45	229.81
804.77	229.83
805.09	229.82
805.41	229.78
805.73	229.74
806.05	229.70
806.37	229.69
806.69	229.63
807.01	229.58
807.33	229.56
807.65	229.52
807.97	229.55
808.28	229.52
808.60	229.51
808.92	229.49
809.24	229.52
809.56	229.46
809.88	229.40
810.20	229.37
810.52	229.37
810.84	229.32
811.16	229.27
811.48	229.22
811.80	229.20
812.12	229.18
812.43	229.13
812.75	229.09
813.07	229.02
813.39	229.00
813.71	228.94
814.03	228.90
814.35	228.87
814.67	228.82
814.98	228.75
815.30	228.69
815.62	228.68
815.94	228.58
816.26	228.62
816.58	228.56
816.89	228.56
817.21	228.50
817.53	228.48
817.85	228.42
818.17	228.39
818.48	228.35
818.80	228.31
819.12	228.29
819.44	228.26
819.76	228.27
820.07	228.25
820.39	228.24
820.71	228.21
821.03	228.19
821.34	228.15
821.66	228.17
821.98	228.17
822.30	228.10
822.61	228.15
822.93	228.07
823.25	228.05
823.57	228.01
823.88	228.01
824.20	228.00
824.52	228.05
824.83	228.00
825.15	227.99
825.47	227.99
825.79	228.00
826.10	227.99
826.42	227.96
826.74	227.97
827.05	227.97
827.37	227.95
827.69	227.94
828.00	227.95
828.32	227.95
828.64	227.93
828.95	228.00
829.27	227.98
829.58	227.99
829.90	228.00
830.22	228.02
830.53	228.02
830.85	228.01
831.17	227.94
831.48	227.96
831.80	227.95
832.11	227.96
832.43	227.90
832.75	227.92
833.06	227.99
833.38	227.93
833.69	227.94
834.01	227.94
834.32	227.92
834.64	227.95
834.96	227.94
835.27	227.91
835.59	227.85
835.90	227.83
836.22	227.82
836.53	227.80
836.85	227.79
837.16	227.86
837.48	227.86
837.79	227.91
838.11	227.92
838.42	227.90
838.74	227.90
839.05	227.90
839.37	227.90
839.68	227.88
840.00	227.89
840.31	227.88
840.63	227.91
840.94	227.92
841.26	227.92
841.57	227.91
841.88	227.93
842.20	227.94
842.51	227.91
842.83	227.92
843.14	228.01
843.46	228.01
843.77	227.98
844.08	227.98
844.40	228.00
844.71	227.98
845.03	227.99
845.34	228.02
845.65	228.02
845.97	228.00
846.28	227.95
846.60	227.98
846.91	227.99
847.22	227.95
847.54	227.94
847.85	227.90
848.16	227.87
848.48	227.85
848.79	227.87
849.10	227.90
849.42	227.89
849.73	227.79
850.04	227.77
850.36	227.70
850.67	227.71
850.98	227.66
851.30	227.64
851.61	227.62
851.92	227.58
852.23	227.61
852.55	227.64
852.86	227.66
853.17	227.64
853.49	227.65
853.80	227.64
854.11	227.64
854.42	227.64
854.74	227.62
855.05	227.62
855.36	227.58
855.67	227.57
855.99	227.55
856.30	227.66
856.61	227.65
856.92	227.63
857.23	227.61
857.55	227.57
857.86	227.59
858.17	227.60
858.48	227.56
858.79	227.54
859.11	227.51
859.42	227.50
859.73	227.51
860.04	227.48
860.35	227.50
860.66	227.48
860.98	227.49
861.29	227.50
861.60	227.51
861.91	227.52
862.22	227.52
862.53	227.50
862.84	227.36
863.16	227.38
863.47	227.39
863.78	227.38
864.09	227.39
864.40	227.36
864.71	227.36
865.02	227.39
865.33	227.35
865.64	227.34
865.95	227.31
866.27	227.37
866.58	227.35
866.89	227.34
867.20	227.33
867.51	227.30
867.82	227.33
868.13	227.33
868.44	227.30
868.75	227.30
869.06	227.28
869.37	227.32
869.68	227.32
869.99	227.33
870.30	227.34
870.61	227.36
870.92	227.37
871.23	227.36
871.54	227.34
871.85	227.40
872.16	227.40
872.47	227.40
872.78	227.31
873.09	227.30
873.40	227.29
873.71	227.33
874.02	227.35
874.33	227.32
874.64	227.31
874.95	227.32
875.26	227.29
875.56	227.31
875.87	227.29
876.18	227.30
876.49	227.39
876.80	227.36
877.11	227.35
877.42	227.37
877.73	227.35
878.04	227.30
878.35	227.27
878.66	227.27
878.96	227.25
879.27	227.23
879.58	227.22
879.89	227.22
880.20	227.22
880.51	227.18
880.82	227.17
881.12	227.16
881.43	227.14
881.74	227.11
882.05	227.10
882.36	227.09
882.67	227.05
882.97	226.95
883.28	226.92
883.59	226.91
883.90	226.88
884.21	226.90
884.51	226.92
884.82	226.90
885.13	226.88
885.44	226.88
885.74	226.90
886.05	226.90
886.36	226.88
886.67	226.83
886.98	226.88
887.28	226.89
887.59	226.90
887.90	226.92
888.20	226.92
888.51	226.92
888.82	226.90
889.13	226.92
889.43	226.98
889.74	226.99
890.05	226.99
890.35	227.00
890.66	226.97
890.97	226.98
891.28	226.95
891.58	226.97
891.89	227.00
892.20	226.98
892.50	226.96
892.81	226.97
893.12	226.97
893.42	226.94
893.73	226.92
894.04	226.90
894.34	226.90
894.65	226.94
894.95	226.94
895.26	226.98
895.57	227.01
895.87	226.92
896.18	226.98
896.48	226.99
896.79	226.98
897.10	227.00
897.40	227.01
897.71	227.03
898.01	227.01
898.32	227.03
898.63	227.06
898.93	227.07
899.24	227.08
899.54	227.07
899.85	227.07
900.15	227.07
900.46	227.09
900.76	227.09
901.07	227.07
901.38	227.04
901.68	227.05
901.99	227.02
902.29	227.03
902.60	226.98
902.90	226.98
903.21	226.97
903.51	226.98
903.82	227.04
904.12	227.06
904.43	227.09
904.73	227.07
905.03	227.03
905.34	227.14
905.64	227.12
905.95	227.16
906.25	227.16
906.56	227.13
906.86	227.15
907.17	227.18
907.47	227.19
907.77	227.20
908.08	227.20
908.38	227.20
908.69	227.21
908.99	227.23
909.30	227.23
909.60	227.24
909.90	227.23
910.21	227.15
910.51	227.10
910.81	227.11
911.12	227.12
911.42	227.18
911.73	227.09
912.03	227.11
912.33	227.12
912.64	227.12
912.94	227.16
913.24	227.12
913.55	227.09
913.85	227.07
914.15	227.12
914.46	227.16
914.76	227.14
915.06	227.13
915.37	227.11
915.67	227.11
915.97	227.12
916.27	227.10
916.58	227.10
916.88	227.11
917.18	227.09
917.49	227.14
917.79	227.12
918.09	227.11
918.39	227.12
918.70	227.10
919.00	227.14
919.30	227.18
919.60	227.18
919.91	227.15
920.21	227.17
920.51	227.12
920.81	227.07
921.12	227.09
921.42	227.07
921.72	227.10
922.02	227.09
922.32	227.09
922.63	227.11
922.93	227.18
923.23	227.16
923.53	227.13
923.83	227.08
924.13	227.09
924.44	227.11
924.74	227.13
925.04	227.12
925.34	227.10
925.64	227.06
925.94	227.07
926.24	227.12
926.55	227.09
926.85	227.11
927.15	227.09
927.45	227.12
927.75	227.13
928.05	227.10
928.35	227.12
928.65	227.12
928.95	227.11
929.26	227.08
929.56	227.13
929.86	227.12
930.16	227.11
930.46	227.10
930.76	227.08
931.06	227.03
931.36	227.04
931.66	227.04
931.96	227.04
932.26	227.02
932.56	227.01
932.86	227.01
933.16	226.99
933.46	226.97
933.76	226.94
934.06	226.95
934.36	227.00
934.66	226.98
934.96	226.97
935.26	226.97
935.56	226.99
935.86	226.97
936.16	226.99
936.46	226.97
936.76	226.99
937.06	226.99
937.36	226.99
937.66	226.99
937.96	227.00
938.26	226.97
938.56	226.98
938.86	226.96
939.16	226.97
939.46	226.99
939.76	227.01
940.06	227.01
940.35	227.02
940.65	226.98
940.95	227.01
941.25	226.99
941.55	227.00
941.85	226.98
942.15	227.01
942.45	227.07
942.75	227.11
943.04	227.09
943.34	227.11
943.64	227.14
943.94	227.12
944.24	227.11
944.54	227.14
944.84	227.16
945.13	227.16
945.43	227.18
945.73	227.20
946.03	227.22
946.33	227.23
946.62	227.23
946.92	227.24
947.22	227.26
947.52	227.26
947.82	227.29
948.11	227.29
948.41	227.25
948.71	227.20
949.01	227.15
949.31	227.19
949.60	227.17
949.90	227.16
950.20	227.16
950.50	227.17
950.79	227.13
951.09	227.15
951.39	227.14
951.69	227.13
951.98	227.15
952.28	227.12
952.58	227.11
952.87	227.10
953.17	227.08
953.47	227.05
953.76	227.08
954.06	227.04
954.36	227.02
954.66	227.04
954.95	227.05
955.25	227.07
955.55	227.05
955.84	227.01
956.14	227.01
956.44	226.99
956.73	226.96
957.03	226.96
957.32	226.93
957.62	226.92
957.92	226.91
958.21	226.85
958.51	226.97
958.81	226.93
959.10	226.93
959.40	226.97
959.69	226.96
959.99	226.93
960.29	226.90
960.58	226.90
960.88	226.89
961.17	226.88
961.47	226.87
961.76	226.85
962.06	226.89
962.36	226.89
962.65	226.92
962.95	226.92
963.24	226.94
963.54	226.94
963.83	226.92
964.13	226.92
964.42	226.91
964.72	226.82
965.01	226.82
965.31	226.80
965.60	226.76
965.90	226.79
966.19	226.77
966.49	226.79
966.78	226.78
967.08	226.78
967.37	226.79
967.67	226.76
967.96	226.78
968.26	226.73
968.55	226.73
968.85	226.72
969.14	226.70
969.43	226.69
969.73	226.68
970.02	226.71
970.32	226.72
970.61	226.71
970.91	226.69
971.20	226.69
971.49	226.66
971.79	226.70
972.08	226.62
972.38	226.66
972.67	226.62
972.96	226.66
973.26	226.62
973.55	226.64
973.85	226.66
974.14	226.63
974.43	226.68
974.73	226.61
975.02	226.63
975.31	226.67
975.61	226.67
975.90	226.67
976.19	226.65
976.49	226.65
976.78	226.68
977.07	226.69
977.37	226.68
977.66	226.72
977.95	226.71
978.24	226.77
978.54	226.78
978.83	226.79
979.12	226.75
979.42	226.76
979.71	226.75
980.00	226.77
980.29	226.78
980.59	226.77
980.88	226.80
981.17	226.79
981.46	226.76
981.76	226.76
982.05	226.76
982.34	226.81
982.63	226.83
982.93	226.82
983.22	226.85
983.51	226.85
983.80	226.86
984.09	226.86
984.39	226.80
984.68	226.79
984.97	226.82
985.26	226.82
985.55	226.83
985.85	226.80
986.14	226.81
986.43	226.83
986.72	226.81
987.01	226.80
987.30	226.81
987.59	226.82
987.89	226.82
988.18	226.82
988.47	226.80
988.76	226.77
989.05	226.77
989.34	226.78
989.63	226.82
989.92	226.81
990.22	226.79
990.51	226.82
990.80	226.81
991.09	226.81
991.38	226.84
991.67	226.83
991.96	226.83
992.25	226.81
992.54	226.77
992.83	226.79
993.12	226.81
993.41	226.83
993.70	226.87
993.99	226.87
994.28	226.87
994.58	226.85
994.87	226.84
995.16	226.82
995.45	226.76
995.74	226.71
996.03	226.73
996.32	226.73
996.61	226.74
996.90	226.74
997.19	226.71
997.48	226.72
997.77	226.71
998.06	226.67
998.34	226.69
998.63	226.69
998.92	226.67
999.21	226.67
999.50	226.66
999.79	226.62
1000.08	226.62
1000.37	226.64
1000.66	226.66
1000.95	226.66
1001.24	226.64
1001.53	226.66
1001.82	226.66
1002.11	226.62
1002.40	226.63
1002.68	226.63
1002.97	226.70
1003.26	226.68
1003.55	226.68
1003.84	226.71
1004.13	226.78
1004.42	226.76
1004.71	226.77
1004.99	226.77
1005.28	226.76
1005.57	226.77
1005.86	226.77
1006.15	226.75
1006.44	226.71
1006.72	226.70
1007.01	226.69
1007.30	226.74
1007.59	226.75
1007.88	226.73
1008.17	226.75
1008.45	226.74
1008.74	226.73
1009.03	226.68
1009.32	226.71
1009.60	226.70
1009.89	226.70
1010.18	226.67
1010.47	226.66
1010.76	226.67
1011.04	226.68
1011.33	226.71
1011.62	226.71
1011.91	226.72
1012.19	226.75
1012.48	226.75
1012.77	226.74
1013.05	226.81
1013.34	226.81
1013.63	226.81
1013.92	226.84
1014.20	226.82
1014.49	226.82
1014.78	226.84
1015.06	226.83
1015.35	226.83
1015.64	226.85
1015.92	226.85
1016.21	226.84
1016.50	226.85
1016.78	226.86
1017.07	226.85
1017.36	226.83
1017.64	226.81
1017.93	226.84
1018.22	226.82
1018.50	226.84
1018.79	226.84
1019.08	226.78
1019.36	226.76
1019.65	226.76
1019.93	226.77
1020.22	226.82
1020.51	226.86
1020.79	226.81
1021.08	226.59
1021.36	226.60
1021.65	226.80
1021.94	226.56
1022.22	226.62
1022.51	226.64
1022.79	227.27
1023.08	227.05
1023.36	227.74
1023.65	226.13
>>>>>End Processed Spectral Data<<<<<
