SpectraSuite Data File
++++++++++++++++++++++++++++++++++++
Date: Fri Feb 01 17:33:23 EST 2013
User: group
Dark Spectrum Present: No
Reference Spectrum Present: No
Number of Sampled Component Spectra: 1
Spectrometers: USB2E7196
Integration Time (usec): 35000 (USB2E7196)
Spectra Averaged: 100 (USB2E7196)
Boxcar Smoothing: 10 (USB2E7196)
Correct for Electrical Dark: No (USB2E7196)
Strobe/Lamp Enabled: No (USB2E7196)
Correct for Detector Non-linearity: No (USB2E7196)
Correct for Stray Light: No (USB2E7196)
Number of Pixels in Processed Spectrum: 2048
>>>>>Begin Processed Spectral Data<<<<<
339.09	0.00
339.48	213.32
339.86	214.41
340.24	216.09
340.63	217.64
341.01	220.30
341.39	219.79
341.78	221.47
342.16	223.07
342.54	223.17
342.93	211.61
343.31	222.31
343.69	222.82
344.07	223.29
344.46	223.72
344.84	224.10
345.22	224.31
345.60	224.57
345.99	224.76
346.37	224.86
346.75	224.95
347.13	225.00
347.52	225.04
347.90	225.09
348.28	225.10
348.66	225.15
349.05	225.13
349.43	225.18
349.81	225.21
350.19	225.22
350.57	225.26
350.96	225.30
351.34	225.37
351.72	225.45
352.10	225.54
352.48	225.59
352.87	225.63
353.25	225.69
353.63	225.73
354.01	225.78
354.39	225.83
354.77	225.89
355.15	225.99
355.54	226.03
355.92	226.08
356.30	226.14
356.68	226.27
357.06	226.33
357.44	226.37
357.82	226.40
358.20	226.47
358.58	226.50
358.97	226.55
359.35	226.61
359.73	226.65
360.11	226.68
360.49	226.70
360.87	226.74
361.25	226.79
361.63	226.87
362.01	226.90
362.39	226.95
362.77	226.97
363.15	226.98
363.53	227.02
363.91	227.04
364.29	227.08
364.67	226.98
365.05	226.96
365.43	226.95
365.81	226.95
366.19	227.00
366.57	227.04
366.95	227.05
367.33	227.02
367.71	227.01
368.09	227.05
368.47	227.08
368.85	227.04
369.23	227.03
369.61	226.97
369.99	227.03
370.37	227.01
370.75	227.04
371.13	226.99
371.51	226.94
371.89	226.91
372.27	226.91
372.65	226.88
373.03	226.88
373.41	226.86
373.78	226.82
374.16	226.73
374.54	226.66
374.92	226.59
375.30	226.55
375.68	226.50
376.06	226.43
376.44	226.32
376.82	226.28
377.19	226.24
377.57	226.18
377.95	226.08
378.33	225.98
378.71	225.86
379.09	225.79
379.47	225.72
379.84	225.63
380.22	225.56
380.60	225.48
380.98	225.41
381.36	225.34
381.73	225.30
382.11	225.27
382.49	225.20
382.87	225.15
383.25	225.10
383.62	225.14
384.00	225.07
384.38	225.04
384.76	225.05
385.13	225.04
385.51	225.00
385.89	224.94
386.27	224.91
386.64	224.86
387.02	224.85
387.40	224.82
387.78	224.77
388.15	224.70
388.53	224.70
388.91	224.67
389.29	224.66
389.66	224.62
390.04	224.58
390.42	224.60
390.79	224.56
391.17	224.53
391.55	224.44
391.92	224.44
392.30	224.45
392.68	224.38
393.05	224.36
393.43	224.37
393.81	224.36
394.18	224.36
394.56	224.39
394.94	224.45
395.31	224.45
395.69	224.51
396.06	224.60
396.44	224.63
396.82	224.64
397.19	224.69
397.57	224.73
397.95	224.77
398.32	224.80
398.70	224.87
399.07	224.92
399.45	224.96
399.82	225.00
400.20	225.01
400.58	225.08
400.95	225.06
401.33	225.12
401.70	225.27
402.08	225.35
402.45	225.41
402.83	225.47
403.20	225.59
403.58	225.67
403.95	225.76
404.33	225.89
404.71	226.03
405.08	226.18
405.46	226.30
405.83	226.42
406.21	226.52
406.58	226.67
406.96	226.83
407.33	226.99
407.70	227.16
408.08	227.45
408.45	227.62
408.83	227.87
409.20	228.07
409.58	228.25
409.95	228.48
410.33	228.79
410.70	229.05
411.08	229.33
411.45	229.66
411.82	229.96
412.20	230.33
412.57	230.74
412.95	231.06
413.32	231.48
413.69	231.91
414.07	232.42
414.44	232.86
414.82	233.38
415.19	233.96
415.56	234.53
415.94	235.10
416.31	235.83
416.68	236.50
417.06	237.28
417.43	238.00
417.81	238.85
418.18	239.64
418.55	240.51
418.93	241.44
419.30	242.37
419.67	243.34
420.04	244.33
420.42	245.36
420.79	246.61
421.16	247.81
421.54	249.06
421.91	250.31
422.28	251.67
422.66	253.08
423.03	254.44
423.40	255.82
423.77	257.28
424.15	258.73
424.52	260.28
424.89	261.96
425.26	263.56
425.64	265.08
426.01	266.74
426.38	268.49
426.75	270.23
427.13	272.02
427.50	273.90
427.87	275.81
428.24	277.76
428.61	279.58
428.99	281.61
429.36	283.83
429.73	285.99
430.10	288.10
430.47	290.23
430.85	292.48
431.22	294.92
431.59	297.40
431.96	299.77
432.33	302.37
432.70	304.84
433.08	307.79
433.45	310.52
433.82	313.26
434.19	316.30
434.56	319.22
434.93	321.98
435.30	324.73
435.68	327.78
436.05	330.75
436.42	333.70
436.79	336.39
437.16	339.18
437.53	342.14
437.90	345.10
438.27	347.95
438.64	350.91
439.01	353.59
439.38	355.93
439.75	358.19
440.13	360.79
440.50	363.23
440.87	365.17
441.24	367.22
441.61	369.48
441.98	370.98
442.35	372.89
442.72	374.85
443.09	376.78
443.46	377.86
443.83	378.47
444.20	378.92
444.57	379.77
444.94	380.10
445.31	380.52
445.68	380.85
446.05	380.97
446.42	380.58
446.79	380.12
447.16	379.70
447.53	379.37
447.90	378.16
448.27	376.94
448.64	375.28
449.01	374.10
449.37	372.06
449.74	370.14
450.11	367.81
450.48	365.25
450.85	362.58
451.22	360.38
451.59	358.30
451.96	356.34
452.33	353.62
452.70	351.18
453.07	348.15
453.43	345.15
453.80	342.27
454.17	339.47
454.54	336.82
454.91	333.92
455.28	331.15
455.65	328.62
456.02	326.07
456.38	323.84
456.75	321.09
457.12	318.71
457.49	316.38
457.86	314.08
458.23	312.11
458.59	309.98
458.96	307.76
459.33	305.78
459.70	303.85
460.07	302.27
460.43	300.43
460.80	298.76
461.17	297.23
461.54	295.64
461.91	294.10
462.27	292.60
462.64	291.32
463.01	289.90
463.38	288.48
463.74	287.03
464.11	285.78
464.48	284.72
464.85	283.58
465.21	282.65
465.58	281.72
465.95	280.61
466.32	279.65
466.68	278.70
467.05	277.79
467.42	276.81
467.78	275.83
468.15	274.95
468.52	274.26
468.88	273.38
469.25	272.58
469.62	271.96
469.98	271.28
470.35	270.62
470.72	269.99
471.08	269.32
471.45	268.78
471.82	268.22
472.18	267.60
472.55	267.13
472.92	266.60
473.28	266.11
473.65	265.64
474.02	265.17
474.38	264.81
474.75	264.46
475.11	264.10
475.48	263.82
475.85	263.56
476.21	263.33
476.58	263.12
476.94	262.97
477.31	262.75
477.67	262.59
478.04	262.47
478.41	262.40
478.77	262.44
479.14	262.34
479.50	262.38
479.87	262.43
480.23	262.50
480.60	262.60
480.96	262.72
481.33	262.91
481.69	263.15
482.06	263.34
482.42	263.54
482.79	263.81
483.15	264.14
483.52	264.52
483.88	264.88
484.25	265.30
484.61	265.74
484.98	266.23
485.34	266.78
485.71	267.35
486.07	267.93
486.44	268.52
486.80	269.28
487.17	270.01
487.53	270.80
487.90	271.64
488.26	272.55
488.62	273.50
488.99	274.47
489.35	275.49
489.72	276.60
490.08	277.74
490.44	278.97
490.81	280.32
491.17	281.66
491.54	283.11
491.90	284.59
492.26	286.26
492.63	287.97
492.99	289.76
493.36	291.66
493.72	293.70
494.08	295.79
494.45	297.97
494.81	300.29
495.17	302.73
495.54	305.27
495.90	307.86
496.26	310.64
496.63	313.56
496.99	316.66
497.35	319.86
497.72	323.30
498.08	326.77
498.44	330.39
498.80	334.26
499.17	338.28
499.53	342.46
499.89	346.75
500.26	351.19
500.62	355.77
500.98	360.65
501.34	365.66
501.71	370.93
502.07	376.29
502.43	381.79
502.79	387.53
503.16	393.57
503.52	399.84
503.88	406.11
504.24	412.63
504.60	419.36
504.97	426.36
505.33	433.54
505.69	441.10
506.05	448.75
506.41	456.50
506.78	464.47
507.14	472.73
507.50	481.29
507.86	490.16
508.22	499.25
508.59	508.32
508.95	517.70
509.31	527.24
509.67	537.20
510.03	547.31
510.39	557.65
510.75	568.17
511.12	578.82
511.48	589.82
511.84	601.03
512.20	612.28
512.56	623.93
512.92	635.80
513.28	647.85
513.64	660.01
514.00	672.39
514.37	685.09
514.73	697.76
515.09	710.41
515.45	723.37
515.81	736.45
516.17	750.06
516.53	763.82
516.89	777.65
517.25	791.41
517.61	805.39
517.97	819.43
518.33	833.47
518.69	847.87
519.05	862.50
519.41	877.21
519.77	892.22
520.13	907.29
520.49	922.24
520.85	937.22
521.21	952.38
521.57	968.10
521.93	983.24
522.29	999.20
522.65	1015.00
523.01	1030.65
523.37	1046.27
523.73	1061.95
524.09	1077.59
524.45	1093.26
524.81	1109.44
525.17	1125.67
525.53	1141.99
525.89	1158.28
526.25	1174.60
526.61	1190.44
526.97	1206.71
527.33	1222.86
527.68	1238.93
528.04	1254.92
528.40	1270.95
528.76	1287.53
529.12	1303.71
529.48	1320.25
529.84	1335.72
530.20	1351.87
530.56	1368.34
530.91	1385.26
531.27	1401.54
531.63	1417.64
531.99	1434.00
532.35	1449.55
532.71	1465.19
533.07	1481.13
533.42	1496.74
533.78	1512.34
534.14	1528.22
534.50	1543.12
534.86	1558.57
535.21	1573.42
535.57	1588.92
535.93	1604.11
536.29	1618.58
536.65	1633.27
537.00	1647.60
537.36	1662.70
537.72	1676.92
538.08	1691.14
538.44	1704.60
538.79	1718.21
539.15	1731.38
539.51	1744.86
539.87	1758.94
540.22	1772.41
540.58	1785.84
540.94	1798.88
541.29	1811.52
541.65	1824.08
542.01	1837.15
542.37	1849.24
542.72	1861.44
543.08	1873.15
543.44	1885.40
543.79	1896.68
544.15	1907.53
544.51	1919.06
544.87	1929.80
545.22	1940.72
545.58	1950.96
545.94	1960.78
546.29	1970.70
546.65	1980.84
547.01	1990.14
547.36	1998.92
547.72	2007.39
548.07	2015.57
548.43	2023.79
548.79	2031.77
549.14	2039.56
549.50	2046.99
549.86	2054.81
550.21	2062.37
550.57	2069.75
550.92	2076.58
551.28	2083.74
551.64	2091.10
551.99	2097.92
552.35	2104.41
552.70	2110.62
553.06	2116.86
553.41	2123.49
553.77	2129.68
554.13	2135.79
554.48	2142.11
554.84	2148.05
555.19	2153.67
555.55	2159.04
555.90	2163.90
556.26	2169.43
556.61	2174.31
556.97	2179.17
557.32	2183.71
557.68	2188.19
558.03	2192.80
558.39	2196.82
558.74	2201.81
559.10	2206.14
559.45	2210.16
559.81	2214.80
560.16	2218.93
560.52	2222.60
560.87	2226.32
561.23	2229.28
561.58	2232.71
561.94	2235.61
562.29	2238.14
562.64	2241.31
563.00	2244.29
563.35	2248.16
563.71	2251.58
564.06	2255.06
564.42	2258.22
564.77	2261.24
565.12	2264.02
565.48	2266.52
565.83	2268.91
566.19	2270.77
566.54	2271.86
566.89	2273.51
567.25	2274.65
567.60	2276.48
567.96	2278.65
568.31	2280.12
568.66	2281.87
569.02	2282.87
569.37	2283.71
569.72	2285.20
570.08	2285.79
570.43	2286.10
570.78	2286.08
571.14	2284.95
571.49	2284.17
571.84	2284.19
572.20	2283.41
572.55	2282.76
572.90	2281.45
573.26	2280.44
573.61	2278.94
573.96	2277.80
574.31	2275.17
574.67	2272.51
575.02	2269.37
575.37	2266.19
575.72	2262.78
576.08	2259.76
576.43	2256.79
576.78	2253.58
577.13	2250.53
577.49	2247.69
577.84	2244.67
578.19	2241.21
578.54	2238.10
578.90	2234.43
579.25	2229.31
579.60	2224.87
579.95	2220.23
580.30	2215.57
580.66	2210.78
581.01	2206.28
581.36	2201.63
581.71	2197.84
582.06	2193.81
582.42	2189.66
582.77	2185.01
583.12	2180.84
583.47	2176.59
583.82	2171.97
584.17	2167.09
584.53	2162.03
584.88	2156.71
585.23	2151.45
585.58	2146.23
585.93	2141.05
586.28	2136.35
586.63	2131.61
586.98	2126.76
587.34	2122.27
587.69	2117.57
588.04	2112.64
588.39	2107.32
588.74	2101.14
589.09	2095.24
589.44	2088.93
589.79	2083.02
590.14	2077.42
590.49	2070.97
590.84	2064.58
591.19	2058.86
591.54	2052.62
591.89	2045.56
592.25	2039.21
592.60	2032.12
592.95	2025.02
593.30	2017.90
593.65	2010.49
594.00	2003.67
594.35	1996.54
594.70	1988.73
595.05	1982.04
595.40	1974.92
595.75	1967.54
596.10	1961.68
596.45	1955.14
596.80	1949.02
597.15	1942.60
597.50	1935.97
597.85	1929.64
598.19	1923.36
598.54	1916.50
598.89	1909.94
599.24	1904.12
599.59	1897.56
599.94	1891.44
600.29	1885.03
600.64	1878.45
600.99	1871.30
601.34	1864.62
601.69	1857.68
602.04	1851.00
602.39	1843.57
602.74	1836.82
603.08	1830.19
603.43	1823.33
603.78	1816.12
604.13	1808.83
604.48	1801.80
604.83	1794.81
605.18	1788.11
605.53	1780.16
605.87	1772.19
606.22	1765.00
606.57	1757.08
606.92	1749.61
607.27	1742.54
607.62	1735.75
607.96	1728.64
608.31	1722.16
608.66	1714.54
609.01	1707.24
609.36	1699.75
609.70	1691.77
610.05	1683.78
610.40	1676.18
610.75	1668.00
611.10	1660.25
611.44	1651.75
611.79	1643.57
612.14	1634.89
612.49	1625.57
612.83	1617.03
613.18	1608.74
613.53	1600.53
613.88	1591.75
614.22	1583.48
614.57	1574.78
614.92	1566.54
615.27	1558.96
615.61	1550.66
615.96	1542.51
616.31	1534.70
616.65	1527.09
617.00	1519.45
617.35	1511.59
617.70	1503.15
618.04	1494.44
618.39	1486.05
618.74	1478.61
619.08	1470.27
619.43	1462.49
619.78	1455.46
620.12	1448.29
620.47	1440.68
620.82	1432.33
621.16	1424.84
621.51	1417.10
621.85	1409.32
622.20	1400.81
622.55	1392.25
622.89	1384.20
623.24	1376.48
623.59	1368.82
623.93	1361.26
624.28	1353.88
624.62	1346.33
624.97	1339.05
625.32	1332.18
625.66	1325.03
626.01	1317.69
626.35	1310.31
626.70	1302.57
627.04	1294.84
627.39	1286.95
627.73	1279.48
628.08	1272.63
628.43	1265.42
628.77	1258.08
629.12	1250.59
629.46	1243.37
629.81	1235.74
630.15	1228.37
630.50	1220.91
630.84	1212.80
631.19	1204.70
631.53	1197.13
631.88	1189.48
632.22	1181.86
632.57	1174.48
632.91	1166.99
633.26	1159.53
633.60	1151.81
633.95	1144.53
634.29	1137.31
634.64	1130.52
634.98	1123.10
635.32	1115.89
635.67	1109.13
636.01	1102.35
636.36	1095.42
636.70	1088.77
637.05	1082.14
637.39	1075.59
637.73	1069.05
638.08	1063.02
638.42	1056.91
638.77	1050.41
639.11	1043.78
639.45	1037.28
639.80	1030.61
640.14	1024.26
640.49	1017.74
640.83	1011.52
641.17	1005.37
641.52	999.09
641.86	992.60
642.20	986.63
642.55	980.22
642.89	973.78
643.23	967.17
643.58	961.42
643.92	955.25
644.26	949.31
644.61	943.16
644.95	937.16
645.29	930.62
645.64	923.96
645.98	917.54
646.32	911.52
646.66	905.37
647.01	899.55
647.35	893.75
647.69	887.74
648.04	882.14
648.38	876.27
648.72	870.31
649.06	864.32
649.41	858.41
649.75	852.43
650.09	846.43
650.43	840.72
650.78	834.42
651.12	828.44
651.46	822.70
651.80	817.07
652.14	811.61
652.49	806.22
652.83	801.08
653.17	795.48
653.51	789.97
653.85	784.54
654.20	778.95
654.54	772.86
654.88	767.06
655.22	761.13
655.56	755.35
655.90	749.75
656.25	744.44
656.59	739.05
656.93	733.98
657.27	728.87
657.61	723.37
657.95	718.31
658.29	713.18
658.64	707.78
658.98	702.37
659.32	696.83
659.66	691.62
660.00	686.33
660.34	681.33
660.68	676.26
661.02	671.16
661.36	666.40
661.70	662.00
662.05	657.67
662.39	653.39
662.73	648.95
663.07	644.55
663.41	640.08
663.75	635.62
664.09	631.01
664.43	626.60
664.77	622.51
665.11	618.21
665.45	614.05
665.79	610.02
666.13	605.94
666.47	601.84
666.81	597.63
667.15	593.43
667.49	589.45
667.83	585.57
668.17	581.66
668.51	577.61
668.85	573.50
669.19	569.61
669.53	565.78
669.87	561.92
670.21	558.22
670.55	554.53
670.89	551.08
671.23	547.65
671.57	544.06
671.91	540.48
672.25	536.91
672.58	533.37
672.92	529.91
673.26	526.66
673.60	523.48
673.94	520.38
674.28	517.44
674.62	514.49
674.96	511.42
675.30	508.51
675.64	505.59
675.97	502.74
676.31	499.84
676.65	496.88
676.99	494.10
677.33	491.18
677.67	488.35
678.01	485.31
678.34	482.28
678.68	479.38
679.02	476.52
679.36	473.79
679.70	471.08
680.04	468.30
680.37	465.42
680.71	462.55
681.05	459.88
681.39	457.11
681.73	454.40
682.06	451.90
682.40	449.36
682.74	446.72
683.08	444.17
683.42	441.52
683.75	438.94
684.09	436.37
684.43	433.89
684.77	431.38
685.10	428.99
685.44	426.66
685.78	424.36
686.12	422.05
686.45	419.69
686.79	417.33
687.13	415.14
687.46	412.93
687.80	410.77
688.14	408.52
688.48	406.48
688.81	404.24
689.15	401.99
689.49	399.76
689.82	397.69
690.16	395.57
690.50	393.62
690.83	391.71
691.17	389.71
691.51	387.76
691.84	385.88
692.18	383.96
692.52	382.01
692.85	380.01
693.19	378.10
693.52	376.22
693.86	374.35
694.20	372.48
694.53	370.69
694.87	368.84
695.21	366.97
695.54	365.11
695.88	363.36
696.21	361.66
696.55	359.96
696.88	358.23
697.22	356.46
697.56	354.79
697.89	353.06
698.23	351.45
698.56	349.80
698.90	348.23
699.23	346.56
699.57	345.02
699.90	343.47
700.24	341.94
700.58	340.47
700.91	339.03
701.25	337.57
701.58	336.18
701.92	334.77
702.25	333.43
702.59	332.05
702.92	330.72
703.26	329.33
703.59	328.07
703.93	326.83
704.26	325.67
704.60	324.40
704.93	323.13
705.26	321.88
705.60	320.71
705.93	319.47
706.27	318.41
706.60	317.31
706.94	316.22
707.27	315.10
707.61	313.98
707.94	312.92
708.27	311.80
708.61	310.70
708.94	309.72
709.28	308.70
709.61	307.73
709.94	306.75
710.28	305.76
710.61	304.73
710.95	303.64
711.28	302.69
711.61	301.72
711.95	300.81
712.28	299.84
712.61	298.85
712.95	297.89
713.28	296.95
713.61	296.03
713.95	295.13
714.28	294.22
714.61	293.33
714.95	292.48
715.28	291.66
715.61	290.75
715.95	289.85
716.28	289.02
716.61	288.16
716.95	287.29
717.28	286.51
717.61	285.73
717.94	284.99
718.28	284.16
718.61	283.42
718.94	282.72
719.27	282.03
719.61	281.38
719.94	280.75
720.27	280.04
720.60	279.32
720.94	278.65
721.27	278.09
721.60	277.49
721.93	276.82
722.27	276.24
722.60	275.65
722.93	275.07
723.26	274.49
723.59	273.92
723.93	273.37
724.26	272.81
724.59	272.24
724.92	271.72
725.25	271.19
725.59	270.61
725.92	270.07
726.25	269.51
726.58	269.01
726.91	268.51
727.24	268.05
727.57	267.57
727.91	267.05
728.24	266.53
728.57	266.03
728.90	265.60
729.23	265.11
729.56	264.68
729.89	264.18
730.22	263.67
730.55	263.20
730.89	262.73
731.22	262.28
731.55	261.84
731.88	261.40
732.21	261.01
732.54	260.59
732.87	260.16
733.20	259.78
733.53	259.38
733.86	258.97
734.19	258.56
734.52	258.17
734.85	257.88
735.18	257.44
735.51	257.05
735.84	256.63
736.17	256.26
736.50	255.85
736.83	255.60
737.16	255.29
737.49	254.92
737.82	254.57
738.15	254.22
738.48	253.85
738.81	253.50
739.14	253.11
739.47	252.80
739.80	252.47
740.13	252.18
740.46	251.88
740.79	251.53
741.12	251.18
741.45	250.83
741.78	250.47
742.11	250.17
742.44	249.85
742.77	249.58
743.10	249.27
743.43	248.97
743.75	248.59
744.08	248.41
744.41	248.17
744.74	247.91
745.07	247.64
745.40	247.44
745.73	247.25
746.06	246.98
746.39	246.68
746.71	246.38
747.04	246.07
747.37	245.77
747.70	245.57
748.03	245.33
748.36	245.18
748.68	244.95
749.01	244.69
749.34	244.46
749.67	244.24
750.00	244.02
750.33	243.85
750.65	243.66
750.98	243.31
751.31	243.09
751.64	242.87
751.97	242.70
752.29	242.46
752.62	242.18
752.95	241.97
753.28	241.82
753.60	241.65
753.93	241.48
754.26	241.27
754.59	241.02
754.91	240.79
755.24	240.54
755.57	240.33
755.90	240.15
756.22	239.95
756.55	239.72
756.88	239.56
757.20	239.33
757.53	239.11
757.86	238.94
758.19	238.76
758.51	238.58
758.84	238.35
759.17	238.15
759.49	238.00
759.82	237.87
760.15	237.69
760.47	237.51
760.80	237.28
761.13	237.16
761.45	236.98
761.78	236.84
762.11	236.70
762.43	236.51
762.76	236.35
763.08	236.21
763.41	236.10
763.74	235.92
764.06	235.78
764.39	235.65
764.71	235.49
765.04	235.38
765.37	235.24
765.69	235.09
766.02	234.97
766.34	234.87
766.67	234.73
767.00	234.62
767.32	234.56
767.65	234.54
767.97	234.41
768.30	234.31
768.62	234.19
768.95	234.07
769.27	233.99
769.60	233.89
769.92	233.75
770.25	233.63
770.57	233.49
770.90	233.37
771.22	233.25
771.55	233.17
771.87	233.03
772.20	232.93
772.52	232.94
772.85	232.93
773.17	232.80
773.50	232.70
773.82	232.61
774.15	232.46
774.47	232.30
774.80	232.19
775.12	232.11
775.45	232.04
775.77	231.97
776.09	231.90
776.42	231.85
776.74	231.84
777.07	231.77
777.39	231.71
777.72	231.65
778.04	231.59
778.36	231.49
778.69	231.43
779.01	231.38
779.33	231.22
779.66	231.07
779.98	230.97
780.31	230.89
780.63	230.84
780.95	230.82
781.28	230.75
781.60	230.72
781.92	230.66
782.25	230.59
782.57	230.52
782.89	230.48
783.22	230.41
783.54	230.32
783.86	230.25
784.19	230.22
784.51	230.19
784.83	230.12
785.16	230.08
785.48	230.07
785.80	230.02
786.12	229.98
786.45	229.92
786.77	229.92
787.09	229.87
787.42	229.83
787.74	229.77
788.06	229.72
788.38	229.67
788.71	229.65
789.03	229.57
789.35	229.54
789.67	229.49
789.99	229.46
790.32	229.42
790.64	229.41
790.96	229.44
791.28	229.37
791.61	229.33
791.93	229.30
792.25	229.21
792.57	229.22
792.89	229.15
793.21	229.13
793.54	229.06
793.86	229.00
794.18	228.92
794.50	228.87
794.82	228.87
795.14	228.83
795.47	228.76
795.79	228.78
796.11	228.70
796.43	228.67
796.75	228.63
797.07	228.61
797.39	228.56
797.71	228.44
798.04	228.38
798.36	228.35
798.68	228.29
799.00	228.27
799.32	228.21
799.64	228.22
799.96	228.16
800.28	228.14
800.60	228.10
800.92	228.10
801.24	228.04
801.56	227.99
801.89	227.92
802.21	227.89
802.53	227.82
802.85	227.81
803.17	227.79
803.49	227.76
803.81	227.68
804.13	227.65
804.45	227.61
804.77	227.59
805.09	227.54
805.41	227.52
805.73	227.47
806.05	227.41
806.37	227.36
806.69	227.35
807.01	227.31
807.33	227.29
807.65	227.20
807.97	227.23
808.28	227.20
808.60	227.17
808.92	227.14
809.24	227.20
809.56	227.16
809.88	227.10
810.20	227.07
810.52	227.07
810.84	227.00
811.16	226.98
811.48	226.96
811.80	226.97
812.12	226.93
812.43	226.90
812.75	226.87
813.07	226.82
813.39	226.79
813.71	226.77
814.03	226.74
814.35	226.73
814.67	226.69
814.98	226.68
815.30	226.67
815.62	226.63
815.94	226.49
816.26	226.48
816.58	226.44
816.89	226.44
817.21	226.38
817.53	226.41
817.85	226.41
818.17	226.41
818.48	226.35
818.80	226.39
819.12	226.39
819.44	226.37
819.76	226.37
820.07	226.38
820.39	226.39
820.71	226.39
821.03	226.38
821.34	226.35
821.66	226.33
821.98	226.32
822.30	226.33
822.61	226.43
822.93	226.41
823.25	226.39
823.57	226.33
823.88	226.36
824.20	226.37
824.52	226.37
824.83	226.38
825.15	226.38
825.47	226.37
825.79	226.37
826.10	226.37
826.42	226.36
826.74	226.35
827.05	226.31
827.37	226.28
827.69	226.28
828.00	226.27
828.32	226.29
828.64	226.27
828.95	226.32
829.27	226.25
829.58	226.27
829.90	226.29
830.22	226.32
830.53	226.28
830.85	226.21
831.17	226.15
831.48	226.11
831.80	226.07
832.11	226.06
832.43	226.02
832.75	226.00
833.06	226.04
833.38	225.98
833.69	225.97
834.01	225.99
834.32	225.98
834.64	225.96
834.96	225.94
835.27	225.93
835.59	225.85
835.90	225.83
836.22	225.79
836.53	225.76
836.85	225.73
837.16	225.83
837.48	225.85
837.79	225.87
838.11	225.88
838.42	225.90
838.74	225.88
839.05	225.88
839.37	225.87
839.68	225.80
840.00	225.81
840.31	225.85
840.63	225.83
840.94	225.79
841.26	225.75
841.57	225.74
841.88	225.73
842.20	225.72
842.51	225.71
842.83	225.70
843.14	225.75
843.46	225.75
843.77	225.68
844.08	225.68
844.40	225.69
844.71	225.67
845.03	225.63
845.34	225.63
845.65	225.58
845.97	225.58
846.28	225.57
846.60	225.56
846.91	225.50
847.22	225.46
847.54	225.48
847.85	225.49
848.16	225.44
848.48	225.42
848.79	225.45
849.10	225.44
849.42	225.41
849.73	225.33
850.04	225.30
850.36	225.24
850.67	225.24
850.98	225.20
851.30	225.19
851.61	225.16
851.92	225.15
852.23	225.19
852.55	225.18
852.86	225.19
853.17	225.15
853.49	225.14
853.80	225.14
854.11	225.16
854.42	225.20
854.74	225.21
855.05	225.22
855.36	225.16
855.67	225.17
855.99	225.17
856.30	225.30
856.61	225.31
856.92	225.32
857.23	225.31
857.55	225.30
857.86	225.26
858.17	225.33
858.48	225.30
858.79	225.29
859.11	225.30
859.42	225.26
859.73	225.28
860.04	225.31
860.35	225.32
860.66	225.29
860.98	225.24
861.29	225.26
861.60	225.28
861.91	225.33
862.22	225.33
862.53	225.33
862.84	225.20
863.16	225.21
863.47	225.18
863.78	225.16
864.09	225.15
864.40	225.19
864.71	225.19
865.02	225.22
865.33	225.23
865.64	225.21
865.95	225.23
866.27	225.28
866.58	225.27
866.89	225.28
867.20	225.27
867.51	225.28
867.82	225.24
868.13	225.26
868.44	225.26
868.75	225.26
869.06	225.25
869.37	225.24
869.68	225.22
869.99	225.28
870.30	225.27
870.61	225.30
870.92	225.29
871.23	225.26
871.54	225.26
871.85	225.26
872.16	225.25
872.47	225.23
872.78	225.17
873.09	225.16
873.40	225.12
873.71	225.13
874.02	225.12
874.33	225.12
874.64	225.08
874.95	225.07
875.26	225.04
875.56	225.08
875.87	225.10
876.18	225.09
876.49	225.17
876.80	225.18
877.11	225.20
877.42	225.20
877.73	225.20
878.04	225.19
878.35	225.23
878.66	225.23
878.96	225.25
879.27	225.27
879.58	225.25
879.89	225.27
880.20	225.30
880.51	225.31
880.82	225.35
881.12	225.35
881.43	225.32
881.74	225.32
882.05	225.28
882.36	225.28
882.67	225.31
882.97	225.16
883.28	225.16
883.59	225.15
883.90	225.13
884.21	225.14
884.51	225.13
884.82	225.05
885.13	225.05
885.44	225.07
885.74	225.07
886.05	225.09
886.36	225.09
886.67	225.03
886.98	225.08
887.28	225.06
887.59	225.10
887.90	225.11
888.20	225.11
888.51	225.16
888.82	225.15
889.13	225.16
889.43	225.27
889.74	225.26
890.05	225.25
890.35	225.26
890.66	225.23
890.97	225.27
891.28	225.28
891.58	225.29
891.89	225.26
892.20	225.25
892.50	225.25
892.81	225.27
893.12	225.29
893.42	225.25
893.73	225.25
894.04	225.22
894.34	225.22
894.65	225.20
894.95	225.19
895.26	225.18
895.57	225.22
895.87	225.12
896.18	225.14
896.48	225.14
896.79	225.12
897.10	225.17
897.40	225.13
897.71	225.14
898.01	225.11
898.32	225.12
898.63	225.15
898.93	225.10
899.24	225.08
899.54	225.06
899.85	225.03
900.15	225.05
900.46	225.02
900.76	225.02
901.07	225.04
901.38	225.00
901.68	225.03
901.99	224.99
902.29	225.01
902.60	224.99
902.90	224.96
903.21	224.96
903.51	224.94
903.82	224.95
904.12	224.97
904.43	225.00
904.73	224.97
905.03	224.94
905.34	225.03
905.64	225.02
905.95	225.03
906.25	225.06
906.56	225.01
906.86	225.03
907.17	225.04
907.47	225.02
907.77	225.04
908.08	224.97
908.38	224.97
908.69	224.97
908.99	224.97
909.30	225.01
909.60	225.00
909.90	225.00
910.21	224.96
910.51	224.92
910.81	224.88
911.12	224.91
911.42	224.90
911.73	224.83
912.03	224.81
912.33	224.83
912.64	224.81
912.94	224.83
913.24	224.80
913.55	224.79
913.85	224.79
914.15	224.78
914.46	224.83
914.76	224.80
915.06	224.77
915.37	224.77
915.67	224.75
915.97	224.74
916.27	224.71
916.58	224.75
916.88	224.72
917.18	224.72
917.49	224.79
917.79	224.79
918.09	224.80
918.39	224.87
918.70	224.88
919.00	224.88
919.30	224.93
919.60	224.93
919.91	224.92
920.21	224.92
920.51	224.89
920.81	224.88
921.12	224.92
921.42	224.94
921.72	224.91
922.02	224.94
922.32	224.96
922.63	224.97
922.93	224.99
923.23	225.04
923.53	225.06
923.83	224.97
924.13	224.97
924.44	224.97
924.74	224.97
925.04	224.93
925.34	224.93
925.64	224.87
925.94	224.87
926.24	224.94
926.55	224.96
926.85	224.99
927.15	224.98
927.45	224.97
927.75	224.99
928.05	225.00
928.35	225.00
928.65	225.03
928.95	225.06
929.26	225.05
929.56	225.08
929.86	225.04
930.16	225.06
930.46	225.08
930.76	225.09
931.06	225.05
931.36	225.04
931.66	225.06
931.96	225.06
932.26	225.07
932.56	225.05
932.86	225.05
933.16	225.05
933.46	225.05
933.76	225.01
934.06	225.00
934.36	225.03
934.66	225.03
934.96	225.00
935.26	224.99
935.56	224.97
935.86	224.95
936.16	224.97
936.46	224.95
936.76	224.95
937.06	224.92
937.36	224.94
937.66	224.98
937.96	224.95
938.26	224.94
938.56	224.95
938.86	224.91
939.16	224.91
939.46	224.89
939.76	224.92
940.06	224.93
940.35	224.89
940.65	224.86
940.95	224.82
941.25	224.79
941.55	224.78
941.85	224.78
942.15	224.78
942.45	224.82
942.75	224.82
943.04	224.81
943.34	224.83
943.64	224.82
943.94	224.79
944.24	224.80
944.54	224.81
944.84	224.78
945.13	224.80
945.43	224.79
945.73	224.78
946.03	224.76
946.33	224.75
946.62	224.75
946.92	224.74
947.22	224.73
947.52	224.74
947.82	224.73
948.11	224.69
948.41	224.66
948.71	224.64
949.01	224.65
949.31	224.61
949.60	224.58
949.90	224.60
950.20	224.60
950.50	224.61
950.79	224.60
951.09	224.64
951.39	224.62
951.69	224.59
951.98	224.63
952.28	224.64
952.58	224.62
952.87	224.61
953.17	224.60
953.47	224.61
953.76	224.60
954.06	224.57
954.36	224.60
954.66	224.60
954.95	224.61
955.25	224.62
955.55	224.65
955.84	224.64
956.14	224.62
956.44	224.58
956.73	224.54
957.03	224.53
957.32	224.54
957.62	224.54
957.92	224.58
958.21	224.55
958.51	224.65
958.81	224.68
959.10	224.70
959.40	224.76
959.69	224.75
959.99	224.78
960.29	224.81
960.58	224.80
960.88	224.85
961.17	224.85
961.47	224.86
961.76	224.87
962.06	224.88
962.36	224.87
962.65	224.89
962.95	224.94
963.24	224.97
963.54	224.95
963.83	224.95
964.13	224.95
964.42	224.95
964.72	224.84
965.01	224.86
965.31	224.86
965.60	224.84
965.90	224.92
966.19	224.88
966.49	224.87
966.78	224.85
967.08	224.84
967.37	224.84
967.67	224.84
967.96	224.84
968.26	224.82
968.55	224.85
968.85	224.85
969.14	224.84
969.43	224.83
969.73	224.83
970.02	224.85
970.32	224.83
970.61	224.81
970.91	224.80
971.20	224.76
971.49	224.74
971.79	224.73
972.08	224.67
972.38	224.70
972.67	224.69
972.96	224.72
973.26	224.70
973.55	224.71
973.85	224.64
974.14	224.63
974.43	224.65
974.73	224.63
975.02	224.65
975.31	224.63
975.61	224.61
975.90	224.57
976.19	224.55
976.49	224.55
976.78	224.53
977.07	224.53
977.37	224.51
977.66	224.55
977.95	224.52
978.24	224.52
978.54	224.53
978.83	224.52
979.12	224.52
979.42	224.52
979.71	224.49
980.00	224.50
980.29	224.48
980.59	224.46
980.88	224.45
981.17	224.42
981.46	224.41
981.76	224.42
982.05	224.47
982.34	224.45
982.63	224.44
982.93	224.45
983.22	224.47
983.51	224.49
983.80	224.48
984.09	224.53
984.39	224.50
984.68	224.47
984.97	224.46
985.26	224.44
985.55	224.43
985.85	224.39
986.14	224.44
986.43	224.49
986.72	224.48
987.01	224.49
987.30	224.48
987.59	224.45
987.89	224.46
988.18	224.44
988.47	224.43
988.76	224.44
989.05	224.46
989.34	224.46
989.63	224.50
989.92	224.50
990.22	224.49
990.51	224.50
990.80	224.51
991.09	224.54
991.38	224.55
991.67	224.54
991.96	224.58
992.25	224.56
992.54	224.56
992.83	224.57
993.12	224.55
993.41	224.61
993.70	224.73
993.99	224.75
994.28	224.78
994.58	224.81
994.87	224.80
995.16	224.81
995.45	224.81
995.74	224.77
996.03	224.80
996.32	224.81
996.61	224.85
996.90	224.86
997.19	224.88
997.48	224.90
997.77	224.93
998.06	224.95
998.34	224.95
998.63	224.93
998.92	224.94
999.21	224.96
999.50	224.98
999.79	224.94
1000.08	224.94
1000.37	224.93
1000.66	224.91
1000.95	224.97
1001.24	224.99
1001.53	225.00
1001.82	224.99
1002.11	224.94
1002.40	224.94
1002.68	224.95
1002.97	225.03
1003.26	224.99
1003.55	225.00
1003.84	224.99
1004.13	225.01
1004.42	225.06
1004.71	225.09
1004.99	225.08
1005.28	225.09
1005.57	225.03
1005.86	224.99
1006.15	224.97
1006.44	224.97
1006.72	224.97
1007.01	224.93
1007.30	224.92
1007.59	224.89
1007.88	224.93
1008.17	224.93
1008.45	224.92
1008.74	224.86
1009.03	224.79
1009.32	224.83
1009.60	224.80
1009.89	224.77
1010.18	224.76
1010.47	224.71
1010.76	224.68
1011.04	224.70
1011.33	224.68
1011.62	224.68
1011.91	224.65
1012.19	224.66
1012.48	224.64
1012.77	224.65
1013.05	224.69
1013.34	224.70
1013.63	224.72
1013.92	224.72
1014.20	224.71
1014.49	224.72
1014.78	224.75
1015.06	224.71
1015.35	224.67
1015.64	224.70
1015.92	224.74
1016.21	224.71
1016.50	224.71
1016.78	224.73
1017.07	224.72
1017.36	224.74
1017.64	224.72
1017.93	224.75
1018.22	224.72
1018.50	224.73
1018.79	224.70
1019.08	224.66
1019.36	224.63
1019.65	224.57
1019.93	224.55
1020.22	224.54
1020.51	224.60
1020.79	224.57
1021.08	224.26
1021.36	224.56
1021.65	224.21
1021.94	224.60
1022.22	224.36
1022.51	223.75
1022.79	224.95
1023.08	224.06
1023.36	226.07
1023.65	224.12
>>>>>End Processed Spectral Data<<<<<
