SpectraSuite Data File
++++++++++++++++++++++++++++++++++++
Date: Fri Feb 01 15:04:22 EST 2013
User: group
Dark Spectrum Present: No
Reference Spectrum Present: No
Number of Sampled Component Spectra: 1
Spectrometers: USB2E7196
Integration Time (usec): 35000 (USB2E7196)
Spectra Averaged: 100 (USB2E7196)
Boxcar Smoothing: 10 (USB2E7196)
Correct for Electrical Dark: No (USB2E7196)
Strobe/Lamp Enabled: No (USB2E7196)
Correct for Detector Non-linearity: No (USB2E7196)
Correct for Stray Light: No (USB2E7196)
Number of Pixels in Processed Spectrum: 2048
>>>>>Begin Processed Spectral Data<<<<<
339.09	0.00
339.48	214.75
339.86	217.12
340.24	218.33
340.63	219.34
341.01	222.48
341.39	222.23
341.78	223.79
342.16	224.47
342.54	225.07
342.93	213.55
343.31	224.34
343.69	224.89
344.07	225.31
344.46	225.72
344.84	226.09
345.22	226.31
345.60	226.55
345.99	226.71
346.37	226.83
346.75	226.92
347.13	226.98
347.52	227.02
347.90	227.09
348.28	227.08
348.66	227.13
349.05	227.11
349.43	227.14
349.81	227.19
350.19	227.24
350.57	227.30
350.96	227.36
351.34	227.44
351.72	227.53
352.10	227.63
352.48	227.72
352.87	227.74
353.25	227.81
353.63	227.91
354.01	227.95
354.39	228.04
354.77	228.14
355.15	228.24
355.54	228.31
355.92	228.36
356.30	228.43
356.68	228.56
357.06	228.62
357.44	228.70
357.82	228.72
358.20	228.80
358.58	228.84
358.97	228.92
359.35	228.98
359.73	229.06
360.11	229.13
360.49	229.17
360.87	229.23
361.25	229.28
361.63	229.34
362.01	229.40
362.39	229.43
362.77	229.43
363.15	229.45
363.53	229.48
363.91	229.51
364.29	229.57
364.67	229.49
365.05	229.51
365.43	229.55
365.81	229.58
366.19	229.62
366.57	229.66
366.95	229.59
367.33	229.55
367.71	229.49
368.09	229.52
368.47	229.48
368.85	229.48
369.23	229.46
369.61	229.39
369.99	229.38
370.37	229.38
370.75	229.43
371.13	229.37
371.51	229.30
371.89	229.27
372.27	229.20
372.65	229.15
373.03	229.09
373.41	228.99
373.78	228.91
374.16	228.78
374.54	228.68
374.92	228.63
375.30	228.57
375.68	228.50
376.06	228.38
376.44	228.32
376.82	228.26
377.19	228.18
377.57	228.10
377.95	228.02
378.33	227.94
378.71	227.76
379.09	227.68
379.47	227.62
379.84	227.50
380.22	227.44
380.60	227.37
380.98	227.28
381.36	227.18
381.73	227.09
382.11	227.07
382.49	227.02
382.87	226.95
383.25	226.90
383.62	226.96
384.00	226.87
384.38	226.81
384.76	226.77
385.13	226.75
385.51	226.68
385.89	226.60
386.27	226.52
386.64	226.51
387.02	226.48
387.40	226.45
387.78	226.43
388.15	226.41
388.53	226.38
388.91	226.36
389.29	226.33
389.66	226.36
390.04	226.30
390.42	226.31
390.79	226.29
391.17	226.28
391.55	226.16
391.92	226.19
392.30	226.20
392.68	226.19
393.05	226.20
393.43	226.24
393.81	226.26
394.18	226.28
394.56	226.31
394.94	226.33
395.31	226.37
395.69	226.46
396.06	226.47
396.44	226.52
396.82	226.58
397.19	226.70
397.57	226.70
397.95	226.77
398.32	226.77
398.70	226.87
399.07	226.96
399.45	227.06
399.82	227.10
400.20	227.16
400.58	227.25
400.95	227.28
401.33	227.39
401.70	227.51
402.08	227.63
402.45	227.74
402.83	227.86
403.20	227.97
403.58	228.06
403.95	228.19
404.33	228.32
404.71	228.46
405.08	228.62
405.46	228.83
405.83	229.00
406.21	229.15
406.58	229.30
406.96	229.47
407.33	229.64
407.70	229.85
408.08	230.13
408.45	230.36
408.83	230.62
409.20	230.85
409.58	231.10
409.95	231.37
410.33	231.61
410.70	231.87
411.08	232.17
411.45	232.47
411.82	232.79
412.20	233.18
412.57	233.61
412.95	233.93
413.32	234.32
413.69	234.78
414.07	235.25
414.44	235.72
414.82	236.23
415.19	236.82
415.56	237.41
415.94	237.96
416.31	238.59
416.68	239.18
417.06	239.87
417.43	240.55
417.81	241.29
418.18	242.09
418.55	242.93
418.93	243.80
419.30	244.73
419.67	245.65
420.04	246.56
420.42	247.56
420.79	248.74
421.16	249.89
421.54	251.02
421.91	252.21
422.28	253.49
422.66	254.79
423.03	256.04
423.40	257.37
423.77	258.75
424.15	260.18
424.52	261.70
424.89	263.30
425.26	264.82
425.64	266.32
426.01	267.90
426.38	269.55
426.75	271.23
427.13	272.93
427.50	274.74
427.87	276.63
428.24	278.45
428.61	280.15
428.99	282.10
429.36	284.21
429.73	286.28
430.10	288.25
430.47	290.33
430.85	292.48
431.22	294.73
431.59	297.14
431.96	299.36
432.33	301.84
432.70	304.20
433.08	307.04
433.45	309.67
433.82	312.29
434.19	315.20
434.56	318.03
434.93	320.68
435.30	323.31
435.68	326.20
436.05	329.09
436.42	331.93
436.79	334.44
437.16	337.14
437.53	339.97
437.90	342.76
438.27	345.51
438.64	348.34
439.01	350.93
439.38	353.21
439.75	355.42
440.13	357.88
440.50	360.23
440.87	362.10
441.24	364.02
441.61	366.19
441.98	367.62
442.35	369.46
442.72	371.33
443.09	373.14
443.46	374.10
443.83	374.65
444.20	375.14
444.57	375.98
444.94	376.30
445.31	376.68
445.68	377.08
446.05	377.12
446.42	376.75
446.79	376.32
447.16	375.82
447.53	375.47
447.90	374.34
448.27	373.21
448.64	371.56
449.01	370.43
449.37	368.42
449.74	366.55
450.11	364.27
450.48	361.76
450.85	359.22
451.22	357.12
451.59	355.10
451.96	353.14
452.33	350.52
452.70	348.15
453.07	345.30
453.43	342.41
453.80	339.67
454.17	336.97
454.54	334.40
454.91	331.66
455.28	329.01
455.65	326.53
456.02	324.09
456.38	321.99
456.75	319.31
457.12	317.10
457.49	314.92
457.86	312.74
458.23	310.91
458.59	308.87
458.96	306.79
459.33	304.95
459.70	303.14
460.07	301.65
460.43	299.89
460.80	298.25
461.17	296.80
461.54	295.34
461.91	293.90
462.27	292.50
462.64	291.27
463.01	289.91
463.38	288.61
463.74	287.18
464.11	286.01
464.48	284.96
464.85	283.86
465.21	282.93
465.58	281.98
465.95	280.85
466.32	279.96
466.68	279.04
467.05	278.12
467.42	277.17
467.78	276.21
468.15	275.38
468.52	274.67
468.88	273.82
469.25	272.99
469.62	272.35
469.98	271.61
470.35	270.97
470.72	270.35
471.08	269.69
471.45	269.18
471.82	268.58
472.18	267.97
472.55	267.51
472.92	266.99
473.28	266.53
473.65	266.11
474.02	265.62
474.38	265.23
474.75	264.88
475.11	264.52
475.48	264.29
475.85	264.06
476.21	263.85
476.58	263.64
476.94	263.49
477.31	263.31
477.67	263.12
478.04	263.01
478.41	262.92
478.77	262.94
479.14	262.85
479.50	262.87
479.87	262.94
480.23	262.99
480.60	263.06
480.96	263.16
481.33	263.36
481.69	263.54
482.06	263.71
482.42	263.91
482.79	264.16
483.15	264.45
483.52	264.78
483.88	265.11
484.25	265.49
484.61	265.93
484.98	266.36
485.34	266.95
485.71	267.49
486.07	268.09
486.44	268.63
486.80	269.33
487.17	270.07
487.53	270.90
487.90	271.77
488.26	272.69
488.62	273.65
488.99	274.57
489.35	275.63
489.72	276.77
490.08	277.96
490.44	279.22
490.81	280.54
491.17	281.89
491.54	283.37
491.90	284.89
492.26	286.50
492.63	288.25
492.99	290.02
493.36	291.89
493.72	293.92
494.08	296.02
494.45	298.26
494.81	300.60
495.17	302.97
495.54	305.50
495.90	308.16
496.26	310.93
496.63	313.90
496.99	316.98
497.35	320.22
497.72	323.63
498.08	327.12
498.44	330.75
498.80	334.66
499.17	338.63
499.53	342.78
499.89	347.12
500.26	351.62
500.62	356.28
500.98	361.24
501.34	366.27
501.71	371.64
502.07	377.11
502.43	382.68
502.79	388.50
503.16	394.52
503.52	400.81
503.88	407.23
504.24	413.88
504.60	420.81
504.97	427.95
505.33	435.23
505.69	442.93
506.05	450.74
506.41	458.62
506.78	466.81
507.14	475.27
507.50	484.01
507.86	493.01
508.22	502.18
508.59	511.35
508.95	520.99
509.31	530.68
509.67	540.73
510.03	551.06
510.39	561.62
510.75	572.47
511.12	583.44
511.48	594.71
511.84	606.13
512.20	617.57
512.56	629.54
512.92	641.77
513.28	654.07
513.64	666.56
514.00	679.25
514.37	692.21
514.73	705.28
515.09	718.33
515.45	731.62
515.81	745.22
516.17	759.18
516.53	773.26
516.89	787.50
517.25	801.71
517.61	816.16
517.97	830.60
518.33	844.97
518.69	859.72
519.05	874.66
519.41	889.85
519.77	905.48
520.13	920.92
520.49	936.24
520.85	951.69
521.21	967.42
521.57	983.69
521.93	999.54
522.29	1016.00
522.65	1032.25
523.01	1048.52
523.37	1064.68
523.73	1081.00
524.09	1097.12
524.45	1113.52
524.81	1130.24
525.17	1147.09
525.53	1164.14
525.89	1181.14
526.25	1198.02
526.61	1214.55
526.97	1231.29
527.33	1247.86
527.68	1264.63
528.04	1281.23
528.40	1297.95
528.76	1315.16
529.12	1331.81
529.48	1348.64
529.84	1364.77
530.20	1381.52
530.56	1398.61
530.91	1416.04
531.27	1432.74
531.63	1449.39
531.99	1466.06
532.35	1482.09
532.71	1498.11
533.07	1514.36
533.42	1530.35
533.78	1546.40
534.14	1562.73
534.50	1578.14
534.86	1594.05
535.21	1609.15
535.57	1625.09
535.93	1640.58
536.29	1655.32
536.65	1670.60
537.00	1685.62
537.36	1700.92
537.72	1715.51
538.08	1729.97
538.44	1743.81
538.79	1757.80
539.15	1771.47
539.51	1785.28
539.87	1799.71
540.22	1813.47
540.58	1827.48
540.94	1840.88
541.29	1854.01
541.65	1866.66
542.01	1880.17
542.37	1892.51
542.72	1905.11
543.08	1917.08
543.44	1929.67
543.79	1941.03
544.15	1952.08
544.51	1963.56
544.87	1974.67
545.22	1985.52
545.58	1995.67
545.94	2005.55
546.29	2015.57
546.65	2025.36
547.01	2034.64
547.36	2043.45
547.72	2051.93
548.07	2059.61
548.43	2067.87
548.79	2075.86
549.14	2083.50
549.50	2090.85
549.86	2098.64
550.21	2105.86
550.57	2113.06
550.92	2119.53
551.28	2126.50
551.64	2133.42
551.99	2139.98
552.35	2145.96
552.70	2152.02
553.06	2158.21
553.41	2164.39
553.77	2170.33
554.13	2176.50
554.48	2182.51
554.84	2187.72
555.19	2193.08
555.55	2198.12
555.90	2202.47
556.26	2207.28
556.61	2212.02
556.97	2216.04
557.32	2220.12
557.68	2224.38
558.03	2228.55
558.39	2232.31
558.74	2237.00
559.10	2240.82
559.45	2244.40
559.81	2248.69
560.16	2252.48
560.52	2255.67
560.87	2259.18
561.23	2261.86
561.58	2264.82
561.94	2267.41
562.29	2269.94
562.64	2272.58
563.00	2275.27
563.35	2278.77
563.71	2281.86
564.06	2285.01
564.42	2287.90
564.77	2290.35
565.12	2292.28
565.48	2294.17
565.83	2295.88
566.19	2296.98
566.54	2297.96
566.89	2299.01
567.25	2299.61
567.60	2300.99
567.96	2302.43
568.31	2303.10
568.66	2303.94
569.02	2304.44
569.37	2304.51
569.72	2305.16
570.08	2305.11
570.43	2304.99
570.78	2304.13
571.14	2302.40
571.49	2300.92
571.84	2300.56
572.20	2298.95
572.55	2297.86
572.90	2296.06
573.26	2294.58
573.61	2292.86
573.96	2290.90
574.31	2287.93
574.67	2284.62
575.02	2280.69
575.37	2277.16
575.72	2273.14
576.08	2269.79
576.43	2266.30
576.78	2262.55
577.13	2259.30
577.49	2256.11
577.84	2252.46
578.19	2248.68
578.54	2244.98
578.90	2240.61
579.25	2234.79
579.60	2229.95
579.95	2224.93
580.30	2219.85
580.66	2214.63
581.01	2209.60
581.36	2204.50
581.71	2200.09
582.06	2195.58
582.42	2191.14
582.77	2185.86
583.12	2181.32
583.47	2176.45
583.82	2171.12
584.17	2165.91
584.53	2160.35
584.88	2154.57
585.23	2148.63
585.58	2143.06
585.93	2137.48
586.28	2132.71
586.63	2127.62
586.98	2122.42
587.34	2117.54
587.69	2112.60
588.04	2107.15
588.39	2101.26
588.74	2094.65
589.09	2088.41
589.44	2081.56
589.79	2075.30
590.14	2069.50
590.49	2062.71
590.84	2056.20
591.19	2050.18
591.54	2043.47
591.89	2035.70
592.25	2028.85
592.60	2021.59
592.95	2013.91
593.30	2006.42
593.65	1998.63
594.00	1991.43
594.35	1984.07
594.70	1975.97
595.05	1968.61
595.40	1961.31
595.75	1953.80
596.10	1947.51
596.45	1940.63
596.80	1934.44
597.15	1927.78
597.50	1920.45
597.85	1914.05
598.19	1907.41
598.54	1900.33
598.89	1893.69
599.24	1887.84
599.59	1880.99
599.94	1874.75
600.29	1868.53
600.64	1862.03
600.99	1854.49
601.34	1847.68
601.69	1840.81
602.04	1833.75
602.39	1826.43
602.74	1819.58
603.08	1812.74
603.43	1806.06
603.78	1798.72
604.13	1791.40
604.48	1784.14
604.83	1777.45
605.18	1770.43
605.53	1762.38
605.87	1754.33
606.22	1747.10
606.57	1739.28
606.92	1732.00
607.27	1724.82
607.62	1717.79
607.96	1710.43
608.31	1703.86
608.66	1696.11
609.01	1688.49
609.36	1681.03
609.70	1672.91
610.05	1664.73
610.40	1657.00
610.75	1648.62
611.10	1641.04
611.44	1632.83
611.79	1624.78
612.14	1616.14
612.49	1607.03
612.83	1598.70
613.18	1590.59
613.53	1582.44
613.88	1573.89
614.22	1565.61
614.57	1556.95
614.92	1548.98
615.27	1541.32
615.61	1532.98
615.96	1525.03
616.31	1517.47
616.65	1510.12
617.00	1502.65
617.35	1495.10
617.70	1486.77
618.04	1478.20
618.39	1469.99
618.74	1462.23
619.08	1454.00
619.43	1446.46
619.78	1439.63
620.12	1432.49
620.47	1424.90
620.82	1416.89
621.16	1409.51
621.51	1401.95
621.85	1394.42
622.20	1385.93
622.55	1377.74
622.89	1369.88
623.24	1362.29
623.59	1354.85
623.93	1347.34
624.28	1340.16
624.62	1332.59
624.97	1325.50
625.32	1318.97
625.66	1311.85
626.01	1304.68
626.35	1297.14
626.70	1289.43
627.04	1281.63
627.39	1273.83
627.73	1266.57
628.08	1259.66
628.43	1252.39
628.77	1244.96
629.12	1237.44
629.46	1230.20
629.81	1222.81
630.15	1215.74
630.50	1208.39
630.84	1200.29
631.19	1192.48
631.53	1184.96
631.88	1177.43
632.22	1169.86
632.57	1162.61
632.91	1155.18
633.26	1147.91
633.60	1140.66
633.95	1133.61
634.29	1126.58
634.64	1119.98
634.98	1112.59
635.32	1105.42
635.67	1098.89
636.01	1092.38
636.36	1085.61
636.70	1079.21
637.05	1072.65
637.39	1066.27
637.73	1059.83
638.08	1054.03
638.42	1048.06
638.77	1041.64
639.11	1035.13
639.45	1028.79
639.80	1022.05
640.14	1015.62
640.49	1009.10
640.83	1002.84
641.17	996.68
641.52	990.44
641.86	984.13
642.20	978.31
642.55	972.14
642.89	965.61
643.23	959.15
643.58	953.45
643.92	947.19
644.26	941.09
644.61	935.07
644.95	929.06
645.29	922.42
645.64	915.72
645.98	909.42
646.32	903.66
646.66	897.66
647.01	891.89
647.35	886.32
647.69	880.55
648.04	875.10
648.38	869.26
648.72	863.19
649.06	857.09
649.41	851.25
649.75	845.14
650.09	839.18
650.43	833.34
650.78	827.16
651.12	821.22
651.46	815.49
651.80	809.68
652.14	804.29
652.49	799.00
652.83	793.87
653.17	788.18
653.51	782.39
653.85	777.08
654.20	771.46
654.54	765.43
654.88	759.71
655.22	753.83
655.56	748.13
655.90	742.78
656.25	737.56
656.59	732.23
656.93	727.23
657.27	722.18
657.61	716.79
657.95	711.72
658.29	706.64
658.64	701.51
658.98	696.28
659.32	690.82
659.66	685.61
660.00	680.23
660.34	675.33
660.68	670.49
661.02	665.43
661.36	660.73
661.70	656.25
662.05	651.87
662.39	647.53
662.73	643.14
663.07	638.79
663.41	634.32
663.75	629.82
664.09	625.32
664.43	620.92
664.77	616.77
665.11	612.55
665.45	608.52
665.79	604.50
666.13	600.40
666.47	596.40
666.81	592.21
667.15	588.14
667.49	584.24
667.83	580.44
668.17	576.51
668.51	572.51
668.85	568.50
669.19	564.64
669.53	560.85
669.87	557.01
670.21	553.30
670.55	549.73
670.89	546.34
671.23	542.85
671.57	539.37
671.91	535.89
672.25	532.45
672.58	528.89
672.92	525.46
673.26	522.31
673.60	519.16
673.94	516.13
674.28	513.26
674.62	510.35
674.96	507.28
675.30	504.39
675.64	501.48
675.97	498.76
676.31	495.96
676.65	493.05
676.99	490.32
677.33	487.48
677.67	484.66
678.01	481.64
678.34	478.76
678.68	475.90
679.02	473.06
679.36	470.33
679.70	467.68
680.04	464.89
680.37	461.99
680.71	459.26
681.05	456.63
681.39	453.96
681.73	451.38
682.06	448.84
682.40	446.31
682.74	443.79
683.08	441.24
683.42	438.65
683.75	436.17
684.09	433.70
684.43	431.28
684.77	428.82
685.10	426.53
685.44	424.21
685.78	421.93
686.12	419.73
686.45	417.43
686.79	415.14
687.13	412.99
687.46	410.91
687.80	408.73
688.14	406.56
688.48	404.46
688.81	402.20
689.15	400.05
689.49	397.92
689.82	395.84
690.16	393.76
690.50	391.84
690.83	389.92
691.17	387.96
691.51	386.08
691.84	384.26
692.18	382.26
692.52	380.29
692.85	378.43
693.19	376.59
693.52	374.82
693.86	373.02
694.20	371.26
694.53	369.45
694.87	367.63
695.21	365.83
695.54	364.08
695.88	362.37
696.21	360.65
696.55	358.97
696.88	357.33
697.22	355.68
697.56	354.03
697.89	352.35
698.23	350.74
698.56	349.12
698.90	347.50
699.23	345.90
699.57	344.36
699.90	342.80
700.24	341.27
700.58	339.69
700.91	338.22
701.25	336.80
701.58	335.44
701.92	334.09
702.25	332.74
702.59	331.35
702.92	330.00
703.26	328.72
703.59	327.41
703.93	326.20
704.26	324.96
704.60	323.67
704.93	322.39
705.26	321.14
705.60	319.98
705.93	318.80
706.27	317.75
706.60	316.73
706.94	315.63
707.27	314.49
707.61	313.43
707.94	312.40
708.27	311.28
708.61	310.23
708.94	309.24
709.28	308.27
709.61	307.33
709.94	306.40
710.28	305.38
710.61	304.44
710.95	303.37
711.28	302.47
711.61	301.55
711.95	300.62
712.28	299.67
712.61	298.65
712.95	297.77
713.28	296.94
713.61	296.01
713.95	295.13
714.28	294.28
714.61	293.49
714.95	292.66
715.28	291.81
715.61	290.92
715.95	290.06
716.28	289.18
716.61	288.35
716.95	287.54
717.28	286.81
717.61	286.05
717.94	285.31
718.28	284.52
718.61	283.83
718.94	283.20
719.27	282.55
719.61	281.95
719.94	281.28
720.27	280.55
720.60	279.89
720.94	279.29
721.27	278.70
721.60	278.11
721.93	277.52
722.27	277.01
722.60	276.46
722.93	275.89
723.26	275.37
723.59	274.79
723.93	274.22
724.26	273.67
724.59	273.14
724.92	272.65
725.25	272.14
725.59	271.59
725.92	271.05
726.25	270.58
726.58	270.09
726.91	269.60
727.24	269.13
727.57	268.68
727.91	268.16
728.24	267.72
728.57	267.17
728.90	266.73
729.23	266.24
729.56	265.84
729.89	265.37
730.22	264.90
730.55	264.45
730.89	264.01
731.22	263.57
731.55	263.15
731.88	262.73
732.21	262.30
732.54	261.88
732.87	261.48
733.20	261.06
733.53	260.67
733.86	260.29
734.19	259.88
734.52	259.53
734.85	259.24
735.18	258.81
735.51	258.50
735.84	258.16
736.17	257.77
736.50	257.36
736.83	257.11
737.16	256.76
737.49	256.42
737.82	256.07
738.15	255.73
738.48	255.39
738.81	255.05
739.14	254.75
739.47	254.44
739.80	254.12
740.13	253.79
740.46	253.46
740.79	253.14
741.12	252.85
741.45	252.50
741.78	252.13
742.11	251.87
742.44	251.54
742.77	251.22
743.10	250.95
743.43	250.65
743.75	250.27
744.08	250.14
744.41	249.86
744.74	249.61
745.07	249.33
745.40	249.08
745.73	248.84
746.06	248.54
746.39	248.32
746.71	248.06
747.04	247.79
747.37	247.56
747.70	247.31
748.03	247.06
748.36	246.84
748.68	246.63
749.01	246.38
749.34	246.16
749.67	245.93
750.00	245.70
750.33	245.52
750.65	245.34
750.98	244.98
751.31	244.79
751.64	244.61
751.97	244.48
752.29	244.27
752.62	244.00
752.95	243.82
753.28	243.61
753.60	243.39
753.93	243.23
754.26	243.03
754.59	242.83
754.91	242.60
755.24	242.42
755.57	242.23
755.90	242.06
756.22	241.85
756.55	241.63
756.88	241.47
757.20	241.25
757.53	241.06
757.86	240.92
758.19	240.72
758.51	240.51
758.84	240.27
759.17	240.10
759.49	240.00
759.82	239.89
760.15	239.69
760.47	239.55
760.80	239.37
761.13	239.22
761.45	239.07
761.78	238.96
762.11	238.81
762.43	238.65
762.76	238.49
763.08	238.39
763.41	238.28
763.74	238.12
764.06	237.97
764.39	237.83
764.71	237.68
765.04	237.55
765.37	237.41
765.69	237.31
766.02	237.17
766.34	237.01
766.67	236.81
767.00	236.74
767.32	236.68
767.65	236.59
767.97	236.47
768.30	236.32
768.62	236.17
768.95	236.07
769.27	235.97
769.60	235.86
769.92	235.73
770.25	235.62
770.57	235.52
770.90	235.42
771.22	235.31
771.55	235.20
771.87	235.10
772.20	235.05
772.52	234.99
772.85	235.03
773.17	234.94
773.50	234.87
773.82	234.77
774.15	234.62
774.47	234.52
774.80	234.44
775.12	234.41
775.45	234.36
775.77	234.24
776.09	234.16
776.42	234.08
776.74	234.04
777.07	233.95
777.39	233.89
777.72	233.77
778.04	233.70
778.36	233.65
778.69	233.62
779.01	233.56
779.33	233.45
779.66	233.29
779.98	233.20
780.31	233.18
780.63	233.15
780.95	233.12
781.28	233.01
781.60	232.93
781.92	232.83
782.25	232.74
782.57	232.72
782.89	232.67
783.22	232.61
783.54	232.50
783.86	232.46
784.19	232.36
784.51	232.33
784.83	232.26
785.16	232.19
785.48	232.14
785.80	232.08
786.12	232.03
786.45	231.96
786.77	231.96
787.09	231.89
787.42	231.79
787.74	231.74
788.06	231.78
788.38	231.74
788.71	231.74
789.03	231.72
789.35	231.71
789.67	231.65
789.99	231.63
790.32	231.60
790.64	231.58
790.96	231.62
791.28	231.61
791.61	231.59
791.93	231.57
792.25	231.52
792.57	231.53
792.89	231.47
793.21	231.46
793.54	231.39
793.86	231.34
794.18	231.35
794.50	231.29
794.82	231.22
795.14	231.20
795.47	231.16
795.79	231.15
796.11	231.05
796.43	231.01
796.75	230.98
797.07	230.95
797.39	230.87
797.71	230.79
798.04	230.73
798.36	230.69
798.68	230.65
799.00	230.61
799.32	230.53
799.64	230.49
799.96	230.46
800.28	230.42
800.60	230.39
800.92	230.35
801.24	230.30
801.56	230.29
801.89	230.24
802.21	230.20
802.53	230.13
802.85	230.14
803.17	230.12
803.49	230.07
803.81	230.02
804.13	230.01
804.45	229.98
804.77	229.96
805.09	229.93
805.41	229.88
805.73	229.84
806.05	229.76
806.37	229.74
806.69	229.69
807.01	229.65
807.33	229.63
807.65	229.56
807.97	229.56
808.28	229.52
808.60	229.47
808.92	229.43
809.24	229.47
809.56	229.43
809.88	229.40
810.20	229.35
810.52	229.36
810.84	229.33
811.16	229.31
811.48	229.27
811.80	229.29
812.12	229.28
812.43	229.26
812.75	229.25
813.07	229.23
813.39	229.19
813.71	229.17
814.03	229.13
814.35	229.09
814.67	229.05
814.98	229.03
815.30	229.01
815.62	228.95
815.94	228.89
816.26	228.90
816.58	228.87
816.89	228.86
817.21	228.81
817.53	228.79
817.85	228.75
818.17	228.77
818.48	228.69
818.80	228.70
819.12	228.68
819.44	228.66
819.76	228.62
820.07	228.63
820.39	228.63
820.71	228.61
821.03	228.61
821.34	228.60
821.66	228.62
821.98	228.60
822.30	228.58
822.61	228.58
822.93	228.53
823.25	228.53
823.57	228.53
823.88	228.56
824.20	228.57
824.52	228.57
824.83	228.53
825.15	228.52
825.47	228.50
825.79	228.46
826.10	228.45
826.42	228.43
826.74	228.41
827.05	228.41
827.37	228.40
827.69	228.40
828.00	228.39
828.32	228.34
828.64	228.33
828.95	228.38
829.27	228.34
829.58	228.31
829.90	228.29
830.22	228.29
830.53	228.25
830.85	228.22
831.17	228.21
831.48	228.22
831.80	228.22
832.11	228.21
832.43	228.22
832.75	228.19
833.06	228.23
833.38	228.18
833.69	228.16
834.01	228.18
834.32	228.15
834.64	228.10
834.96	228.11
835.27	228.10
835.59	228.07
835.90	228.06
836.22	228.07
836.53	228.04
836.85	228.02
837.16	228.11
837.48	228.07
837.79	228.10
838.11	228.08
838.42	228.09
838.74	228.07
839.05	228.06
839.37	228.07
839.68	228.03
840.00	228.01
840.31	227.98
840.63	227.96
840.94	227.97
841.26	227.99
841.57	227.97
841.88	228.00
842.20	227.97
842.51	227.96
842.83	227.94
843.14	228.01
843.46	228.00
843.77	227.94
844.08	227.94
844.40	227.90
844.71	227.88
845.03	227.84
845.34	227.80
845.65	227.81
845.97	227.80
846.28	227.80
846.60	227.82
846.91	227.83
847.22	227.78
847.54	227.77
847.85	227.74
848.16	227.73
848.48	227.67
848.79	227.72
849.10	227.71
849.42	227.74
849.73	227.65
850.04	227.64
850.36	227.60
850.67	227.62
850.98	227.60
851.30	227.60
851.61	227.58
851.92	227.60
852.23	227.62
852.55	227.64
852.86	227.64
853.17	227.66
853.49	227.64
853.80	227.66
854.11	227.67
854.42	227.68
854.74	227.68
855.05	227.69
855.36	227.63
855.67	227.64
855.99	227.61
856.30	227.72
856.61	227.70
856.92	227.68
857.23	227.64
857.55	227.63
857.86	227.63
858.17	227.67
858.48	227.66
858.79	227.62
859.11	227.58
859.42	227.58
859.73	227.56
860.04	227.58
860.35	227.57
860.66	227.53
860.98	227.54
861.29	227.52
861.60	227.53
861.91	227.54
862.22	227.52
862.53	227.50
862.84	227.38
863.16	227.40
863.47	227.38
863.78	227.39
864.09	227.43
864.40	227.41
864.71	227.41
865.02	227.42
865.33	227.42
865.64	227.41
865.95	227.40
866.27	227.47
866.58	227.45
866.89	227.48
867.20	227.50
867.51	227.52
867.82	227.52
868.13	227.52
868.44	227.55
868.75	227.58
869.06	227.62
869.37	227.63
869.68	227.63
869.99	227.69
870.30	227.73
870.61	227.74
870.92	227.72
871.23	227.73
871.54	227.72
871.85	227.75
872.16	227.79
872.47	227.79
872.78	227.72
873.09	227.75
873.40	227.72
873.71	227.73
874.02	227.72
874.33	227.74
874.64	227.73
874.95	227.71
875.26	227.69
875.56	227.66
875.87	227.68
876.18	227.67
876.49	227.73
876.80	227.71
877.11	227.68
877.42	227.72
877.73	227.74
878.04	227.76
878.35	227.76
878.66	227.77
878.96	227.79
879.27	227.79
879.58	227.78
879.89	227.78
880.20	227.81
880.51	227.77
880.82	227.75
881.12	227.77
881.43	227.79
881.74	227.76
882.05	227.79
882.36	227.78
882.67	227.79
882.97	227.70
883.28	227.68
883.59	227.67
883.90	227.66
884.21	227.65
884.51	227.62
884.82	227.62
885.13	227.62
885.44	227.60
885.74	227.62
886.05	227.58
886.36	227.57
886.67	227.53
886.98	227.58
887.28	227.59
887.59	227.55
887.90	227.53
888.20	227.50
888.51	227.51
888.82	227.50
889.13	227.50
889.43	227.53
889.74	227.50
890.05	227.51
890.35	227.50
890.66	227.48
890.97	227.45
891.28	227.42
891.58	227.39
891.89	227.39
892.20	227.34
892.50	227.31
892.81	227.29
893.12	227.28
893.42	227.23
893.73	227.24
894.04	227.23
894.34	227.24
894.65	227.26
894.95	227.25
895.26	227.22
895.57	227.24
895.87	227.15
896.18	227.18
896.48	227.17
896.79	227.13
897.10	227.12
897.40	227.17
897.71	227.16
898.01	227.15
898.32	227.12
898.63	227.12
898.93	227.15
899.24	227.17
899.54	227.18
899.85	227.17
900.15	227.13
900.46	227.14
900.76	227.11
901.07	227.10
901.38	227.09
901.68	227.10
901.99	227.06
902.29	227.08
902.60	227.06
902.90	227.03
903.21	227.06
903.51	227.02
903.82	227.04
904.12	227.05
904.43	227.04
904.73	227.07
905.03	227.05
905.34	227.14
905.64	227.10
905.95	227.12
906.25	227.13
906.56	227.13
906.86	227.12
907.17	227.14
907.47	227.13
907.77	227.11
908.08	227.08
908.38	227.09
908.69	227.10
908.99	227.15
909.30	227.18
909.60	227.18
909.90	227.22
910.21	227.14
910.51	227.11
910.81	227.14
911.12	227.13
911.42	227.17
911.73	227.07
912.03	227.07
912.33	227.08
912.64	227.07
912.94	227.08
913.24	227.10
913.55	227.11
913.85	227.12
914.15	227.17
914.46	227.16
914.76	227.13
915.06	227.13
915.37	227.08
915.67	227.10
915.97	227.09
916.27	227.09
916.58	227.14
916.88	227.16
917.18	227.15
917.49	227.22
917.79	227.22
918.09	227.25
918.39	227.29
918.70	227.31
919.00	227.33
919.30	227.42
919.60	227.38
919.91	227.35
920.21	227.35
920.51	227.31
920.81	227.32
921.12	227.37
921.42	227.36
921.72	227.39
922.02	227.34
922.32	227.36
922.63	227.34
922.93	227.36
923.23	227.34
923.53	227.31
923.83	227.23
924.13	227.24
924.44	227.23
924.74	227.24
925.04	227.22
925.34	227.20
925.64	227.15
925.94	227.16
926.24	227.25
926.55	227.25
926.85	227.28
927.15	227.29
927.45	227.25
927.75	227.29
928.05	227.27
928.35	227.31
928.65	227.31
928.95	227.29
929.26	227.26
929.56	227.29
929.86	227.32
930.16	227.35
930.46	227.32
930.76	227.34
931.06	227.31
931.36	227.31
931.66	227.32
931.96	227.32
932.26	227.30
932.56	227.20
932.86	227.20
933.16	227.16
933.46	227.17
933.76	227.18
934.06	227.16
934.36	227.20
934.66	227.16
934.96	227.17
935.26	227.19
935.56	227.23
935.86	227.21
936.16	227.20
936.46	227.20
936.76	227.20
937.06	227.16
937.36	227.17
937.66	227.17
937.96	227.19
938.26	227.17
938.56	227.17
938.86	227.18
939.16	227.20
939.46	227.22
939.76	227.24
940.06	227.25
940.35	227.25
940.65	227.22
940.95	227.26
941.25	227.23
941.55	227.24
941.85	227.21
942.15	227.25
942.45	227.30
942.75	227.28
943.04	227.30
943.34	227.30
943.64	227.26
943.94	227.22
944.24	227.16
944.54	227.17
944.84	227.17
945.13	227.19
945.43	227.18
945.73	227.20
946.03	227.17
946.33	227.16
946.62	227.14
946.92	227.11
947.22	227.09
947.52	227.10
947.82	227.11
948.11	227.09
948.41	227.03
948.71	226.99
949.01	227.01
949.31	226.98
949.60	226.99
949.90	227.03
950.20	227.07
950.50	227.09
950.79	227.09
951.09	227.15
951.39	227.14
951.69	227.15
951.98	227.17
952.28	227.18
952.58	227.20
952.87	227.21
953.17	227.25
953.47	227.26
953.76	227.27
954.06	227.23
954.36	227.22
954.66	227.23
954.95	227.26
955.25	227.26
955.55	227.29
955.84	227.29
956.14	227.29
956.44	227.28
956.73	227.28
957.03	227.30
957.32	227.27
957.62	227.29
957.92	227.28
958.21	227.26
958.51	227.34
958.81	227.35
959.10	227.36
959.40	227.34
959.69	227.32
959.99	227.31
960.29	227.30
960.58	227.31
960.88	227.37
961.17	227.32
961.47	227.35
961.76	227.33
962.06	227.33
962.36	227.31
962.65	227.36
962.95	227.38
963.24	227.32
963.54	227.32
963.83	227.33
964.13	227.35
964.42	227.29
964.72	227.22
965.01	227.18
965.31	227.16
965.60	227.16
965.90	227.20
966.19	227.21
966.49	227.22
966.78	227.21
967.08	227.19
967.37	227.18
967.67	227.15
967.96	227.18
968.26	227.13
968.55	227.14
968.85	227.08
969.14	227.04
969.43	227.06
969.73	226.99
970.02	226.95
970.32	226.91
970.61	226.91
970.91	226.87
971.20	226.89
971.49	226.89
971.79	226.88
972.08	226.80
972.38	226.80
972.67	226.80
972.96	226.78
973.26	226.75
973.55	226.76
973.85	226.72
974.14	226.67
974.43	226.68
974.73	226.65
975.02	226.62
975.31	226.61
975.61	226.62
975.90	226.64
976.19	226.63
976.49	226.64
976.78	226.67
977.07	226.68
977.37	226.67
977.66	226.67
977.95	226.66
978.24	226.73
978.54	226.75
978.83	226.73
979.12	226.76
979.42	226.78
979.71	226.76
980.00	226.79
980.29	226.85
980.59	226.84
980.88	226.89
981.17	226.91
981.46	226.93
981.76	226.95
982.05	226.99
982.34	227.01
982.63	227.01
982.93	226.99
983.22	227.02
983.51	227.04
983.80	227.05
984.09	227.05
984.39	227.03
984.68	227.02
984.97	227.03
985.26	227.03
985.55	227.03
985.85	227.03
986.14	227.05
986.43	227.05
986.72	227.08
987.01	227.06
987.30	227.05
987.59	227.07
987.89	227.06
988.18	227.03
988.47	227.03
988.76	227.03
989.05	227.05
989.34	227.05
989.63	227.07
989.92	227.06
990.22	227.07
990.51	227.06
990.80	227.05
991.09	227.08
991.38	227.09
991.67	227.07
991.96	227.08
992.25	227.10
992.54	227.08
992.83	227.05
993.12	227.05
993.41	227.07
993.70	227.08
993.99	227.12
994.28	227.11
994.58	227.10
994.87	227.07
995.16	227.05
995.45	227.03
995.74	227.01
996.03	227.03
996.32	227.00
996.61	227.01
996.90	227.01
997.19	226.99
997.48	226.98
997.77	226.97
998.06	226.96
998.34	226.92
998.63	226.90
998.92	226.90
999.21	226.89
999.50	226.88
999.79	226.86
1000.08	226.83
1000.37	226.86
1000.66	226.85
1000.95	226.91
1001.24	226.90
1001.53	226.90
1001.82	226.87
1002.11	226.85
1002.40	226.89
1002.68	226.90
1002.97	226.98
1003.26	226.96
1003.55	226.96
1003.84	226.94
1004.13	226.95
1004.42	226.93
1004.71	226.92
1004.99	226.94
1005.28	226.96
1005.57	226.98
1005.86	226.97
1006.15	226.98
1006.44	226.94
1006.72	226.99
1007.01	226.94
1007.30	226.96
1007.59	226.97
1007.88	226.97
1008.17	226.97
1008.45	226.95
1008.74	226.91
1009.03	226.85
1009.32	226.84
1009.60	226.79
1009.89	226.80
1010.18	226.79
1010.47	226.82
1010.76	226.82
1011.04	226.81
1011.33	226.80
1011.62	226.78
1011.91	226.78
1012.19	226.77
1012.48	226.79
1012.77	226.75
1013.05	226.80
1013.34	226.78
1013.63	226.81
1013.92	226.80
1014.20	226.80
1014.49	226.80
1014.78	226.81
1015.06	226.79
1015.35	226.79
1015.64	226.83
1015.92	226.84
1016.21	226.82
1016.50	226.81
1016.78	226.83
1017.07	226.84
1017.36	226.84
1017.64	226.84
1017.93	226.85
1018.22	226.85
1018.50	226.84
1018.79	226.82
1019.08	226.78
1019.36	226.82
1019.65	226.77
1019.93	226.86
1020.22	226.86
1020.51	226.91
1020.79	226.89
1021.08	226.86
1021.36	226.49
1021.65	226.46
1021.94	226.81
1022.22	227.22
1022.51	226.64
1022.79	228.33
1023.08	227.10
1023.36	227.84
1023.65	226.66
>>>>>End Processed Spectral Data<<<<<
