SpectraSuite Data File
++++++++++++++++++++++++++++++++++++
Date: Fri Feb 01 17:07:55 EST 2013
User: group
Dark Spectrum Present: No
Reference Spectrum Present: No
Number of Sampled Component Spectra: 1
Spectrometers: USB2E7196
Integration Time (usec): 35000 (USB2E7196)
Spectra Averaged: 100 (USB2E7196)
Boxcar Smoothing: 10 (USB2E7196)
Correct for Electrical Dark: No (USB2E7196)
Strobe/Lamp Enabled: No (USB2E7196)
Correct for Detector Non-linearity: No (USB2E7196)
Correct for Stray Light: No (USB2E7196)
Number of Pixels in Processed Spectrum: 2048
>>>>>Begin Processed Spectral Data<<<<<
339.09	0.00
339.48	213.46
339.86	214.57
340.24	216.39
340.63	217.82
341.01	220.53
341.39	219.92
341.78	221.96
342.16	223.13
342.54	223.46
342.93	211.84
343.31	222.56
343.69	223.12
344.07	223.60
344.46	224.04
344.84	224.41
345.22	224.66
345.60	224.91
345.99	225.09
346.37	225.22
346.75	225.29
347.13	225.35
347.52	225.41
347.90	225.43
348.28	225.45
348.66	225.49
349.05	225.50
349.43	225.57
349.81	225.60
350.19	225.65
350.57	225.72
350.96	225.79
351.34	225.85
351.72	225.95
352.10	226.04
352.48	226.09
352.87	226.18
353.25	226.22
353.63	226.29
354.01	226.34
354.39	226.39
354.77	226.47
355.15	226.55
355.54	226.63
355.92	226.70
356.30	226.78
356.68	226.91
357.06	226.98
357.44	227.01
357.82	227.05
358.20	227.11
358.58	227.15
358.97	227.20
359.35	227.28
359.73	227.32
360.11	227.34
360.49	227.40
360.87	227.38
361.25	227.45
361.63	227.53
362.01	227.62
362.39	227.63
362.77	227.69
363.15	227.70
363.53	227.70
363.91	227.70
364.29	227.71
364.67	227.62
365.05	227.63
365.43	227.64
365.81	227.65
366.19	227.70
366.57	227.75
366.95	227.76
367.33	227.71
367.71	227.67
368.09	227.67
368.47	227.63
368.85	227.64
369.23	227.57
369.61	227.48
369.99	227.45
370.37	227.44
370.75	227.45
371.13	227.40
371.51	227.36
371.89	227.36
372.27	227.33
372.65	227.30
373.03	227.24
373.41	227.17
373.78	227.09
374.16	226.97
374.54	226.87
374.92	226.78
375.30	226.72
375.68	226.65
376.06	226.60
376.44	226.54
376.82	226.47
377.19	226.46
377.57	226.39
377.95	226.31
378.33	226.26
378.71	226.13
379.09	226.09
379.47	226.03
379.84	225.91
380.22	225.82
380.60	225.72
380.98	225.67
381.36	225.62
381.73	225.59
382.11	225.57
382.49	225.53
382.87	225.51
383.25	225.45
383.62	225.52
384.00	225.45
384.38	225.39
384.76	225.37
385.13	225.35
385.51	225.34
385.89	225.27
386.27	225.24
386.64	225.24
387.02	225.16
387.40	225.15
387.78	225.15
388.15	225.14
388.53	225.12
388.91	225.08
389.29	225.06
389.66	225.04
390.04	225.01
390.42	225.03
390.79	225.04
391.17	225.08
391.55	224.94
391.92	224.93
392.30	224.97
392.68	224.95
393.05	224.95
393.43	224.96
393.81	225.00
394.18	224.99
394.56	225.00
394.94	225.06
395.31	225.08
395.69	225.12
396.06	225.16
396.44	225.24
396.82	225.30
397.19	225.40
397.57	225.41
397.95	225.46
398.32	225.50
398.70	225.51
399.07	225.53
399.45	225.59
399.82	225.68
400.20	225.70
400.58	225.76
400.95	225.81
401.33	225.86
401.70	225.99
402.08	226.06
402.45	226.13
402.83	226.25
403.20	226.34
403.58	226.41
403.95	226.53
404.33	226.60
404.71	226.69
405.08	226.86
405.46	226.97
405.83	227.10
406.21	227.23
406.58	227.41
406.96	227.59
407.33	227.76
407.70	227.91
408.08	228.21
408.45	228.41
408.83	228.60
409.20	228.83
409.58	228.98
409.95	229.26
410.33	229.54
410.70	229.74
411.08	230.02
411.45	230.33
411.82	230.62
412.20	230.97
412.57	231.38
412.95	231.62
413.32	232.07
413.69	232.47
414.07	232.90
414.44	233.33
414.82	233.78
415.19	234.35
415.56	234.89
415.94	235.42
416.31	236.07
416.68	236.71
417.06	237.40
417.43	238.09
417.81	238.85
418.18	239.59
418.55	240.43
418.93	241.27
419.30	242.19
419.67	243.13
420.04	244.09
420.42	245.05
420.79	246.26
421.16	247.38
421.54	248.57
421.91	249.74
422.28	251.00
422.66	252.35
423.03	253.64
423.40	254.96
423.77	256.35
424.15	257.75
424.52	259.24
424.89	260.85
425.26	262.39
425.64	263.82
426.01	265.44
426.38	267.08
426.75	268.76
427.13	270.49
427.50	272.29
427.87	274.17
428.24	276.02
428.61	277.71
428.99	279.63
429.36	281.69
429.73	283.75
430.10	285.75
430.47	287.79
430.85	289.89
431.22	292.13
431.59	294.48
431.96	296.71
432.33	299.13
432.70	301.51
433.08	304.34
433.45	306.98
433.82	309.57
434.19	312.47
434.56	315.23
434.93	317.89
435.30	320.51
435.68	323.35
436.05	326.18
436.42	328.98
436.79	331.50
437.16	334.21
437.53	337.05
437.90	339.86
438.27	342.57
438.64	345.37
439.01	347.97
439.38	350.18
439.75	352.34
440.13	354.83
440.50	357.07
440.87	358.89
441.24	360.77
441.61	362.92
441.98	364.40
442.35	366.22
442.72	368.02
443.09	369.83
443.46	370.83
443.83	371.39
444.20	371.93
444.57	372.74
444.94	373.03
445.31	373.34
445.68	373.70
446.05	373.80
446.42	373.43
446.79	372.98
447.16	372.56
447.53	372.22
447.90	371.07
448.27	369.98
448.64	368.40
449.01	367.35
449.37	365.38
449.74	363.50
450.11	361.30
450.48	358.85
450.85	356.32
451.22	354.23
451.59	352.24
451.96	350.29
452.33	347.70
452.70	345.36
453.07	342.60
453.43	339.73
453.80	337.01
454.17	334.35
454.54	331.83
454.91	329.17
455.28	326.57
455.65	324.12
456.02	321.66
456.38	319.51
456.75	316.86
457.12	314.63
457.49	312.43
457.86	310.23
458.23	308.38
458.59	306.34
458.96	304.24
459.33	302.40
459.70	300.59
460.07	299.14
460.43	297.45
460.80	295.81
461.17	294.40
461.54	292.88
461.91	291.51
462.27	290.08
462.64	288.83
463.01	287.45
463.38	286.17
463.74	284.84
464.11	283.69
464.48	282.66
464.85	281.53
465.21	280.67
465.58	279.77
465.95	278.71
466.32	277.83
466.68	276.94
467.05	276.06
467.42	275.16
467.78	274.23
468.15	273.34
468.52	272.68
468.88	271.83
469.25	271.07
469.62	270.47
469.98	269.81
470.35	269.19
470.72	268.63
471.08	268.01
471.45	267.50
471.82	266.97
472.18	266.37
472.55	265.98
472.92	265.45
473.28	265.01
473.65	264.58
474.02	264.16
474.38	263.84
474.75	263.53
475.11	263.19
475.48	262.94
475.85	262.74
476.21	262.51
476.58	262.30
476.94	262.17
477.31	261.97
477.67	261.85
478.04	261.72
478.41	261.69
478.77	261.73
479.14	261.69
479.50	261.76
479.87	261.88
480.23	261.93
480.60	262.04
480.96	262.13
481.33	262.34
481.69	262.51
482.06	262.70
482.42	262.93
482.79	263.19
483.15	263.50
483.52	263.90
483.88	264.26
484.25	264.68
484.61	265.10
484.98	265.57
485.34	266.12
485.71	266.72
486.07	267.30
486.44	267.86
486.80	268.54
487.17	269.27
487.53	270.08
487.90	270.96
488.26	271.88
488.62	272.91
488.99	273.88
489.35	274.93
489.72	276.06
490.08	277.23
490.44	278.48
490.81	279.82
491.17	281.14
491.54	282.64
491.90	284.14
492.26	285.79
492.63	287.49
492.99	289.27
493.36	291.16
493.72	293.20
494.08	295.28
494.45	297.56
494.81	299.86
495.17	302.27
495.54	304.82
495.90	307.47
496.26	310.24
496.63	313.22
496.99	316.30
497.35	319.51
497.72	322.90
498.08	326.35
498.44	330.01
498.80	333.88
499.17	337.90
499.53	342.09
499.89	346.42
500.26	350.88
500.62	355.50
500.98	360.43
501.34	365.47
501.71	370.78
502.07	376.13
502.43	381.73
502.79	387.48
503.16	393.45
503.52	399.67
503.88	405.97
504.24	412.51
504.60	419.34
504.97	426.38
505.33	433.67
505.69	441.35
506.05	449.08
506.41	456.94
506.78	465.01
507.14	473.34
507.50	481.93
507.86	490.86
508.22	499.95
508.59	509.09
508.95	518.54
509.31	528.24
509.67	538.23
510.03	548.37
510.39	558.80
510.75	569.50
511.12	580.29
511.48	591.44
511.84	602.74
512.20	614.06
512.56	625.86
512.92	637.82
513.28	649.92
513.64	662.15
514.00	674.67
514.37	687.40
514.73	700.27
515.09	713.11
515.45	726.25
515.81	739.62
516.17	753.30
516.53	767.21
516.89	781.15
517.25	795.11
517.61	809.25
517.97	823.44
518.33	837.57
518.69	852.11
519.05	866.70
519.41	881.53
519.77	896.79
520.13	911.87
520.49	926.86
520.85	941.96
521.21	957.35
521.57	973.14
521.93	988.61
522.29	1004.65
522.65	1020.62
523.01	1036.42
523.37	1052.08
523.73	1067.85
524.09	1083.61
524.45	1099.49
524.81	1115.65
525.17	1132.05
525.53	1148.52
525.89	1164.99
526.25	1181.43
526.61	1197.62
526.97	1213.99
527.33	1230.08
527.68	1246.17
528.04	1262.35
528.40	1278.54
528.76	1295.23
529.12	1311.53
529.48	1327.99
529.84	1343.62
530.20	1359.71
530.56	1376.25
530.91	1393.25
531.27	1409.62
531.63	1425.70
531.99	1441.86
532.35	1457.42
532.71	1473.08
533.07	1489.00
533.42	1504.63
533.78	1520.31
534.14	1536.20
534.50	1551.21
534.86	1566.68
535.21	1581.69
535.57	1597.23
535.93	1612.36
536.29	1626.64
536.65	1641.24
537.00	1655.57
537.36	1670.55
537.72	1684.71
538.08	1698.81
538.44	1712.22
538.79	1725.84
539.15	1738.96
539.51	1752.31
539.87	1766.34
540.22	1779.61
540.58	1792.99
540.94	1805.78
541.29	1818.25
541.65	1830.63
542.01	1843.35
542.37	1855.36
542.72	1867.46
543.08	1878.93
543.44	1891.11
543.79	1902.29
544.15	1913.10
544.51	1924.53
544.87	1935.12
545.22	1945.80
545.58	1955.83
545.94	1965.46
546.29	1974.98
546.65	1984.81
547.01	1994.02
547.36	2002.48
547.72	2010.80
548.07	2018.57
548.43	2026.69
548.79	2034.56
549.14	2041.95
549.50	2049.19
549.86	2056.64
550.21	2063.89
550.57	2071.10
550.92	2077.52
551.28	2084.41
551.64	2091.32
551.99	2097.61
552.35	2103.75
552.70	2109.96
553.06	2115.92
553.41	2122.16
553.77	2128.27
554.13	2134.35
554.48	2140.60
554.84	2146.25
555.19	2151.45
555.55	2156.54
555.90	2161.07
556.26	2166.09
556.61	2170.71
556.97	2175.15
557.32	2179.28
557.68	2183.32
558.03	2187.56
558.39	2191.26
558.74	2196.00
559.10	2200.04
559.45	2203.76
559.81	2208.12
560.16	2211.92
560.52	2215.31
560.87	2218.79
561.23	2221.52
561.58	2224.50
561.94	2227.06
562.29	2229.34
562.64	2232.29
563.00	2235.06
563.35	2238.61
563.71	2241.76
564.06	2245.08
564.42	2248.12
564.77	2250.94
565.12	2253.57
565.48	2255.66
565.83	2257.81
566.19	2259.25
566.54	2260.11
566.89	2261.48
567.25	2262.28
567.60	2263.82
567.96	2265.77
568.31	2266.72
568.66	2268.15
569.02	2268.85
569.37	2269.23
569.72	2270.43
570.08	2270.56
570.43	2270.76
570.78	2270.50
571.14	2269.21
571.49	2268.13
571.84	2268.01
572.20	2267.14
572.55	2266.03
572.90	2264.60
573.26	2263.46
573.61	2261.98
573.96	2260.64
574.31	2258.06
574.67	2255.38
575.02	2251.91
575.37	2248.64
575.72	2245.18
576.08	2241.81
576.43	2238.70
576.78	2235.38
577.13	2232.48
577.49	2229.78
577.84	2226.60
578.19	2223.05
578.54	2219.79
578.90	2215.98
579.25	2210.76
579.60	2206.04
579.95	2201.38
580.30	2196.77
580.66	2191.85
581.01	2187.07
581.36	2182.32
581.71	2178.33
582.06	2174.11
582.42	2169.84
582.77	2164.96
583.12	2160.75
583.47	2156.53
583.82	2151.87
584.17	2146.84
584.53	2141.52
584.88	2136.03
585.23	2130.41
585.58	2125.19
585.93	2119.73
586.28	2114.96
586.63	2109.99
586.98	2105.14
587.34	2100.69
587.69	2095.81
588.04	2090.73
588.39	2085.27
588.74	2079.00
589.09	2072.97
589.44	2066.41
589.79	2060.62
590.14	2055.11
590.49	2048.46
590.84	2042.08
591.19	2036.24
591.54	2030.01
591.89	2022.85
592.25	2016.25
592.60	2009.24
592.95	2001.83
593.30	1994.80
593.65	1987.51
594.00	1980.67
594.35	1973.61
594.70	1965.66
595.05	1958.85
595.40	1951.77
595.75	1944.48
596.10	1938.47
596.45	1931.98
596.80	1926.05
597.15	1919.56
597.50	1912.63
597.85	1906.52
598.19	1900.12
598.54	1893.20
598.89	1886.65
599.24	1880.82
599.59	1874.45
599.94	1868.45
600.29	1862.29
600.64	1855.77
600.99	1848.52
601.34	1841.99
601.69	1835.05
602.04	1828.39
602.39	1821.19
602.74	1814.48
603.08	1807.82
603.43	1801.27
603.78	1794.08
604.13	1786.95
604.48	1779.93
604.83	1773.09
605.18	1766.45
605.53	1758.69
605.87	1750.75
606.22	1743.70
606.57	1735.95
606.92	1728.58
607.27	1721.53
607.62	1714.65
607.96	1707.46
608.31	1701.00
608.66	1693.41
609.01	1686.24
609.36	1678.81
609.70	1670.76
610.05	1662.72
610.40	1655.14
610.75	1646.94
611.10	1639.38
611.44	1630.99
611.79	1622.99
612.14	1614.52
612.49	1605.24
612.83	1596.86
613.18	1588.91
613.53	1580.80
613.88	1572.38
614.22	1564.37
614.57	1555.85
614.92	1547.99
615.27	1540.57
615.61	1532.22
615.96	1524.19
616.31	1516.39
616.65	1509.06
617.00	1501.69
617.35	1494.15
617.70	1485.92
618.04	1477.46
618.39	1469.31
618.74	1461.81
619.08	1453.69
619.43	1446.11
619.78	1439.31
620.12	1432.26
620.47	1424.72
620.82	1416.60
621.16	1409.19
621.51	1401.52
621.85	1393.93
622.20	1385.60
622.55	1377.30
622.89	1369.50
623.24	1361.95
623.59	1354.63
623.93	1347.17
624.28	1339.92
624.62	1332.41
624.97	1325.28
625.32	1318.50
625.66	1311.49
626.01	1304.38
626.35	1296.94
626.70	1289.28
627.04	1281.62
627.39	1273.86
627.73	1266.49
628.08	1259.73
628.43	1252.49
628.77	1245.19
629.12	1237.66
629.46	1230.45
629.81	1223.03
630.15	1215.81
630.50	1208.47
630.84	1200.37
631.19	1192.44
631.53	1184.95
631.88	1177.52
632.22	1169.92
632.57	1162.73
632.91	1155.22
633.26	1147.78
633.60	1140.38
633.95	1133.22
634.29	1126.21
634.64	1119.43
634.98	1112.21
635.32	1104.99
635.67	1098.42
636.01	1091.76
636.36	1084.93
636.70	1078.37
637.05	1071.87
637.39	1065.50
637.73	1058.93
638.08	1053.05
638.42	1047.09
638.77	1040.62
639.11	1034.07
639.45	1027.70
639.80	1021.07
640.14	1014.72
640.49	1008.25
640.83	1001.95
641.17	995.75
641.52	989.38
641.86	982.97
642.20	977.04
642.55	970.79
642.89	964.36
643.23	957.92
643.58	952.32
643.92	946.21
644.26	940.25
644.61	934.18
644.95	928.19
645.29	921.63
645.64	914.93
645.98	908.66
646.32	902.86
646.66	896.88
647.01	891.11
647.35	885.37
647.69	879.50
648.04	874.04
648.38	868.34
648.72	862.37
649.06	856.39
649.41	850.58
649.75	844.64
650.09	838.80
650.43	833.02
650.78	826.80
651.12	820.85
651.46	815.13
651.80	809.50
652.14	804.22
652.49	798.83
652.83	793.73
653.17	788.17
653.51	782.40
653.85	777.10
654.20	771.49
654.54	765.59
654.88	759.86
655.22	753.96
655.56	748.21
655.90	742.84
656.25	737.67
656.59	732.27
656.93	727.23
657.27	722.09
657.61	716.71
657.95	711.67
658.29	706.57
658.64	701.24
658.98	695.90
659.32	690.46
659.66	685.36
660.00	680.05
660.34	675.04
660.68	670.21
661.02	665.19
661.36	660.50
661.70	655.97
662.05	651.67
662.39	647.42
662.73	643.04
663.07	638.72
663.41	634.23
663.75	629.83
664.09	625.28
664.43	620.87
664.77	616.75
665.11	612.55
665.45	608.47
665.79	604.54
666.13	600.47
666.47	596.44
666.81	592.32
667.15	588.27
667.49	584.42
667.83	580.61
668.17	576.68
668.51	572.64
668.85	568.60
669.19	564.84
669.53	561.01
669.87	557.15
670.21	553.43
670.55	549.80
670.89	546.41
671.23	543.09
671.57	539.55
671.91	535.99
672.25	532.44
672.58	528.96
672.92	525.46
673.26	522.29
673.60	519.08
673.94	515.96
674.28	513.02
674.62	510.09
674.96	507.00
675.30	504.09
675.64	501.17
675.97	498.43
676.31	495.50
676.65	492.57
676.99	489.92
677.33	487.06
677.67	484.26
678.01	481.20
678.34	478.14
678.68	475.28
679.02	472.50
679.36	469.75
679.70	467.04
680.04	464.33
680.37	461.49
680.71	458.71
681.05	456.06
681.39	453.38
681.73	450.71
682.06	448.19
682.40	445.67
682.74	443.10
683.08	440.52
683.42	437.93
683.75	435.43
684.09	432.85
684.43	430.39
684.77	427.99
685.10	425.62
685.44	423.34
685.78	421.05
686.12	418.80
686.45	416.54
686.79	414.20
687.13	411.95
687.46	409.78
687.80	407.64
688.14	405.43
688.48	403.33
688.81	401.11
689.15	398.94
689.49	396.78
689.82	394.72
690.16	392.69
690.50	390.75
690.83	388.83
691.17	386.84
691.51	384.95
691.84	383.06
692.18	381.16
692.52	379.16
692.85	377.21
693.19	375.37
693.52	373.51
693.86	371.68
694.20	369.96
694.53	368.16
694.87	366.31
695.21	364.52
695.54	362.67
695.88	360.97
696.21	359.27
696.55	357.57
696.88	355.88
697.22	354.18
697.56	352.56
697.89	350.89
698.23	349.31
698.56	347.75
698.90	346.23
699.23	344.61
699.57	343.09
699.90	341.58
700.24	340.04
700.58	338.56
700.91	337.15
701.25	335.69
701.58	334.31
701.92	333.00
702.25	331.65
702.59	330.31
702.92	328.96
703.26	327.66
703.59	326.41
703.93	325.27
704.26	324.07
704.60	322.80
704.93	321.57
705.26	320.34
705.60	319.10
705.93	317.85
706.27	316.83
706.60	315.80
706.94	314.72
707.27	313.60
707.61	312.52
707.94	311.47
708.27	310.40
708.61	309.35
708.94	308.36
709.28	307.40
709.61	306.48
709.94	305.56
710.28	304.54
710.61	303.53
710.95	302.47
711.28	301.53
711.61	300.59
711.95	299.69
712.28	298.74
712.61	297.82
712.95	296.93
713.28	296.03
713.61	295.12
713.95	294.25
714.28	293.40
714.61	292.52
714.95	291.69
715.28	290.87
715.61	290.00
715.95	289.12
716.28	288.25
716.61	287.42
716.95	286.57
717.28	285.83
717.61	285.10
717.94	284.36
718.28	283.56
718.61	282.82
718.94	282.12
719.27	281.44
719.61	280.71
719.94	280.05
720.27	279.36
720.60	278.71
720.94	278.05
721.27	277.47
721.60	276.89
721.93	276.27
722.27	275.68
722.60	275.16
722.93	274.57
723.26	274.01
723.59	273.42
723.93	272.86
724.26	272.27
724.59	271.69
724.92	271.15
725.25	270.67
725.59	270.14
725.92	269.59
726.25	269.10
726.58	268.62
726.91	268.09
727.24	267.57
727.57	267.07
727.91	266.54
728.24	266.04
728.57	265.51
728.90	265.04
729.23	264.53
729.56	264.03
729.89	263.53
730.22	263.07
730.55	262.63
730.89	262.14
731.22	261.70
731.55	261.27
731.88	260.84
732.21	260.37
732.54	259.94
732.87	259.54
733.20	259.11
733.53	258.72
733.86	258.37
734.19	258.00
734.52	257.62
734.85	257.35
735.18	256.91
735.51	256.58
735.84	256.23
736.17	255.87
736.50	255.48
736.83	255.29
737.16	254.97
737.49	254.65
737.82	254.33
738.15	254.01
738.48	253.65
738.81	253.31
739.14	252.96
739.47	252.64
739.80	252.31
740.13	252.00
740.46	251.68
740.79	251.33
741.12	250.98
741.45	250.65
741.78	250.28
742.11	250.01
742.44	249.70
742.77	249.40
743.10	249.14
743.43	248.84
743.75	248.44
744.08	248.29
744.41	247.99
744.74	247.77
745.07	247.48
745.40	247.25
745.73	247.03
746.06	246.80
746.39	246.57
746.71	246.28
747.04	246.04
747.37	245.79
747.70	245.58
748.03	245.36
748.36	245.16
748.68	244.94
749.01	244.71
749.34	244.50
749.67	244.28
750.00	244.04
750.33	243.91
750.65	243.70
750.98	243.33
751.31	243.11
751.64	242.90
751.97	242.74
752.29	242.54
752.62	242.28
752.95	242.07
753.28	241.83
753.60	241.62
753.93	241.47
754.26	241.25
754.59	241.01
754.91	240.80
755.24	240.58
755.57	240.40
755.90	240.22
756.22	240.03
756.55	239.80
756.88	239.63
757.20	239.38
757.53	239.18
757.86	239.01
758.19	238.86
758.51	238.67
758.84	238.45
759.17	238.27
759.49	238.13
759.82	238.03
760.15	237.90
760.47	237.76
760.80	237.57
761.13	237.47
761.45	237.30
761.78	237.15
762.11	237.00
762.43	236.85
762.76	236.69
763.08	236.54
763.41	236.41
763.74	236.29
764.06	236.12
764.39	235.97
764.71	235.80
765.04	235.61
765.37	235.45
765.69	235.31
766.02	235.14
766.34	235.04
766.67	234.83
767.00	234.73
767.32	234.65
767.65	234.60
767.97	234.45
768.30	234.33
768.62	234.19
768.95	234.06
769.27	233.93
769.60	233.82
769.92	233.74
770.25	233.60
770.57	233.46
770.90	233.38
771.22	233.28
771.55	233.21
771.87	233.15
772.20	233.09
772.52	233.10
772.85	233.15
773.17	233.01
773.50	232.91
773.82	232.78
774.15	232.66
774.47	232.49
774.80	232.40
775.12	232.32
775.45	232.26
775.77	232.21
776.09	232.12
776.42	232.07
776.74	232.00
777.07	231.93
777.39	231.84
777.72	231.78
778.04	231.70
778.36	231.66
778.69	231.59
779.01	231.54
779.33	231.39
779.66	231.24
779.98	231.20
780.31	231.17
780.63	231.19
780.95	231.14
781.28	231.11
781.60	231.05
781.92	230.98
782.25	230.94
782.57	230.88
782.89	230.84
783.22	230.78
783.54	230.71
783.86	230.67
784.19	230.63
784.51	230.60
784.83	230.58
785.16	230.53
785.48	230.48
785.80	230.39
786.12	230.38
786.45	230.31
786.77	230.28
787.09	230.23
787.42	230.16
787.74	230.12
788.06	230.08
788.38	230.07
788.71	230.01
789.03	229.96
789.35	229.94
789.67	229.88
789.99	229.85
790.32	229.83
790.64	229.82
790.96	229.87
791.28	229.81
791.61	229.74
791.93	229.72
792.25	229.68
792.57	229.74
792.89	229.65
793.21	229.61
793.54	229.56
793.86	229.51
794.18	229.46
794.50	229.40
794.82	229.38
795.14	229.34
795.47	229.36
795.79	229.31
796.11	229.25
796.43	229.24
796.75	229.17
797.07	229.12
797.39	229.06
797.71	228.96
798.04	228.90
798.36	228.90
798.68	228.84
799.00	228.84
799.32	228.75
799.64	228.75
799.96	228.74
800.28	228.70
800.60	228.65
800.92	228.60
801.24	228.54
801.56	228.46
801.89	228.40
802.21	228.37
802.53	228.30
802.85	228.31
803.17	228.32
803.49	228.27
803.81	228.24
804.13	228.20
804.45	228.13
804.77	228.11
805.09	228.05
805.41	228.01
805.73	227.95
806.05	227.89
806.37	227.82
806.69	227.78
807.01	227.75
807.33	227.73
807.65	227.71
807.97	227.72
808.28	227.70
808.60	227.71
808.92	227.68
809.24	227.71
809.56	227.66
809.88	227.60
810.20	227.56
810.52	227.56
810.84	227.53
811.16	227.50
811.48	227.48
811.80	227.52
812.12	227.48
812.43	227.45
812.75	227.45
813.07	227.42
813.39	227.41
813.71	227.38
814.03	227.35
814.35	227.30
814.67	227.24
814.98	227.20
815.30	227.17
815.62	227.13
815.94	227.08
816.26	227.07
816.58	227.04
816.89	227.05
817.21	227.00
817.53	226.97
817.85	226.97
818.17	226.95
818.48	226.87
818.80	226.86
819.12	226.84
819.44	226.80
819.76	226.80
820.07	226.76
820.39	226.74
820.71	226.76
821.03	226.76
821.34	226.79
821.66	226.80
821.98	226.78
822.30	226.76
822.61	226.82
822.93	226.76
823.25	226.74
823.57	226.71
823.88	226.71
824.20	226.69
824.52	226.69
824.83	226.68
825.15	226.70
825.47	226.71
825.79	226.71
826.10	226.69
826.42	226.68
826.74	226.67
827.05	226.66
827.37	226.63
827.69	226.61
828.00	226.59
828.32	226.58
828.64	226.55
828.95	226.61
829.27	226.54
829.58	226.57
829.90	226.55
830.22	226.56
830.53	226.51
830.85	226.53
831.17	226.49
831.48	226.48
831.80	226.44
832.11	226.43
832.43	226.40
832.75	226.42
833.06	226.46
833.38	226.45
833.69	226.45
834.01	226.47
834.32	226.43
834.64	226.40
834.96	226.39
835.27	226.36
835.59	226.34
835.90	226.34
836.22	226.33
836.53	226.32
836.85	226.31
837.16	226.42
837.48	226.39
837.79	226.43
838.11	226.42
838.42	226.44
838.74	226.42
839.05	226.42
839.37	226.38
839.68	226.32
840.00	226.27
840.31	226.27
840.63	226.19
840.94	226.22
841.26	226.22
841.57	226.20
841.88	226.25
842.20	226.23
842.51	226.22
842.83	226.20
843.14	226.28
843.46	226.25
843.77	226.20
844.08	226.23
844.40	226.17
844.71	226.13
845.03	226.10
845.34	226.08
845.65	226.05
845.97	226.06
846.28	226.08
846.60	226.09
846.91	226.06
847.22	226.09
847.54	226.09
847.85	226.07
848.16	226.05
848.48	226.00
848.79	225.98
849.10	225.97
849.42	225.96
849.73	225.86
850.04	225.88
850.36	225.84
850.67	225.82
850.98	225.84
851.30	225.85
851.61	225.85
851.92	225.88
852.23	225.90
852.55	225.89
852.86	225.86
853.17	225.86
853.49	225.88
853.80	225.88
854.11	225.88
854.42	225.89
854.74	225.87
855.05	225.87
855.36	225.85
855.67	225.85
855.99	225.84
856.30	225.97
856.61	225.95
856.92	225.92
857.23	225.89
857.55	225.86
857.86	225.88
858.17	225.91
858.48	225.86
858.79	225.85
859.11	225.87
859.42	225.89
859.73	225.87
860.04	225.85
860.35	225.81
860.66	225.76
860.98	225.75
861.29	225.79
861.60	225.79
861.91	225.79
862.22	225.76
862.53	225.74
862.84	225.60
863.16	225.65
863.47	225.65
863.78	225.70
864.09	225.72
864.40	225.70
864.71	225.70
865.02	225.73
865.33	225.73
865.64	225.71
865.95	225.69
866.27	225.78
866.58	225.81
866.89	225.84
867.20	225.88
867.51	225.86
867.82	225.83
868.13	225.83
868.44	225.85
868.75	225.88
869.06	225.90
869.37	225.90
869.68	225.89
869.99	225.88
870.30	225.87
870.61	225.89
870.92	225.86
871.23	225.88
871.54	225.88
871.85	225.91
872.16	225.92
872.47	225.90
872.78	225.83
873.09	225.81
873.40	225.79
873.71	225.80
874.02	225.84
874.33	225.85
874.64	225.85
874.95	225.84
875.26	225.84
875.56	225.82
875.87	225.81
876.18	225.79
876.49	225.88
876.80	225.84
877.11	225.84
877.42	225.86
877.73	225.82
878.04	225.77
878.35	225.74
878.66	225.72
878.96	225.72
879.27	225.69
879.58	225.69
879.89	225.69
880.20	225.68
880.51	225.65
880.82	225.63
881.12	225.61
881.43	225.59
881.74	225.54
882.05	225.52
882.36	225.55
882.67	225.52
882.97	225.38
883.28	225.40
883.59	225.35
883.90	225.36
884.21	225.35
884.51	225.38
884.82	225.36
885.13	225.38
885.44	225.38
885.74	225.38
886.05	225.38
886.36	225.39
886.67	225.38
886.98	225.43
887.28	225.41
887.59	225.43
887.90	225.42
888.20	225.40
888.51	225.44
888.82	225.43
889.13	225.45
889.43	225.56
889.74	225.52
890.05	225.51
890.35	225.50
890.66	225.54
890.97	225.54
891.28	225.52
891.58	225.50
891.89	225.50
892.20	225.49
892.50	225.48
892.81	225.47
893.12	225.45
893.42	225.39
893.73	225.43
894.04	225.43
894.34	225.45
894.65	225.48
894.95	225.48
895.26	225.50
895.57	225.52
895.87	225.44
896.18	225.47
896.48	225.50
896.79	225.46
897.10	225.45
897.40	225.41
897.71	225.44
898.01	225.45
898.32	225.46
898.63	225.49
898.93	225.51
899.24	225.50
899.54	225.51
899.85	225.53
900.15	225.52
900.46	225.51
900.76	225.52
901.07	225.52
901.38	225.54
901.68	225.49
901.99	225.45
902.29	225.47
902.60	225.44
902.90	225.40
903.21	225.43
903.51	225.40
903.82	225.45
904.12	225.42
904.43	225.43
904.73	225.40
905.03	225.37
905.34	225.45
905.64	225.44
905.95	225.43
906.25	225.41
906.56	225.41
906.86	225.44
907.17	225.42
907.47	225.41
907.77	225.39
908.08	225.38
908.38	225.39
908.69	225.36
908.99	225.39
909.30	225.43
909.60	225.41
909.90	225.45
910.21	225.41
910.51	225.39
910.81	225.38
911.12	225.41
911.42	225.42
911.73	225.33
912.03	225.34
912.33	225.36
912.64	225.37
912.94	225.37
913.24	225.31
913.55	225.27
913.85	225.27
914.15	225.27
914.46	225.28
914.76	225.28
915.06	225.31
915.37	225.29
915.67	225.28
915.97	225.30
916.27	225.27
916.58	225.28
916.88	225.29
917.18	225.26
917.49	225.35
917.79	225.34
918.09	225.37
918.39	225.37
918.70	225.35
919.00	225.35
919.30	225.39
919.60	225.39
919.91	225.39
920.21	225.38
920.51	225.37
920.81	225.40
921.12	225.41
921.42	225.37
921.72	225.38
922.02	225.36
922.32	225.37
922.63	225.34
922.93	225.38
923.23	225.40
923.53	225.42
923.83	225.34
924.13	225.34
924.44	225.33
924.74	225.39
925.04	225.39
925.34	225.38
925.64	225.33
925.94	225.35
926.24	225.42
926.55	225.42
926.85	225.44
927.15	225.43
927.45	225.43
927.75	225.44
928.05	225.44
928.35	225.47
928.65	225.48
928.95	225.51
929.26	225.46
929.56	225.47
929.86	225.48
930.16	225.49
930.46	225.48
930.76	225.49
931.06	225.40
931.36	225.38
931.66	225.45
931.96	225.44
932.26	225.47
932.56	225.39
932.86	225.42
933.16	225.39
933.46	225.37
933.76	225.39
934.06	225.42
934.36	225.41
934.66	225.43
934.96	225.42
935.26	225.40
935.56	225.45
935.86	225.43
936.16	225.38
936.46	225.38
936.76	225.36
937.06	225.36
937.36	225.37
937.66	225.37
937.96	225.35
938.26	225.35
938.56	225.33
938.86	225.35
939.16	225.36
939.46	225.41
939.76	225.39
940.06	225.37
940.35	225.32
940.65	225.31
940.95	225.30
941.25	225.29
941.55	225.28
941.85	225.23
942.15	225.24
942.45	225.28
942.75	225.27
943.04	225.30
943.34	225.30
943.64	225.30
943.94	225.28
944.24	225.28
944.54	225.26
944.84	225.27
945.13	225.28
945.43	225.27
945.73	225.24
946.03	225.24
946.33	225.24
946.62	225.23
946.92	225.24
947.22	225.25
947.52	225.23
947.82	225.25
948.11	225.24
948.41	225.24
948.71	225.22
949.01	225.22
949.31	225.21
949.60	225.20
949.90	225.22
950.20	225.22
950.50	225.19
950.79	225.21
951.09	225.20
951.39	225.17
951.69	225.16
951.98	225.18
952.28	225.17
952.58	225.15
952.87	225.19
953.17	225.20
953.47	225.16
953.76	225.16
954.06	225.14
954.36	225.11
954.66	225.12
954.95	225.15
955.25	225.15
955.55	225.13
955.84	225.10
956.14	225.09
956.44	225.10
956.73	225.07
957.03	225.07
957.32	225.06
957.62	225.09
957.92	225.10
958.21	225.09
958.51	225.22
958.81	225.24
959.10	225.25
959.40	225.28
959.69	225.27
959.99	225.28
960.29	225.27
960.58	225.26
960.88	225.24
961.17	225.20
961.47	225.21
961.76	225.21
962.06	225.23
962.36	225.20
962.65	225.24
962.95	225.24
963.24	225.25
963.54	225.24
963.83	225.24
964.13	225.25
964.42	225.22
964.72	225.11
965.01	225.10
965.31	225.04
965.60	225.01
965.90	225.10
966.19	225.09
966.49	225.13
966.78	225.14
967.08	225.17
967.37	225.18
967.67	225.14
967.96	225.16
968.26	225.17
968.55	225.18
968.85	225.13
969.14	225.14
969.43	225.13
969.73	225.13
970.02	225.11
970.32	225.08
970.61	225.06
970.91	225.06
971.20	225.02
971.49	225.03
971.79	225.02
972.08	224.95
972.38	224.92
972.67	224.90
972.96	224.94
973.26	224.92
973.55	224.97
973.85	224.97
974.14	224.96
974.43	224.96
974.73	224.95
975.02	224.95
975.31	224.97
975.61	224.94
975.90	224.93
976.19	224.91
976.49	224.96
976.78	225.01
977.07	225.01
977.37	225.07
977.66	225.08
977.95	225.06
978.24	225.05
978.54	225.10
978.83	225.10
979.12	225.08
979.42	225.09
979.71	225.06
980.00	225.10
980.29	225.11
980.59	225.08
980.88	225.12
981.17	225.16
981.46	225.15
981.76	225.20
982.05	225.24
982.34	225.26
982.63	225.26
982.93	225.25
983.22	225.29
983.51	225.29
983.80	225.34
984.09	225.38
984.39	225.43
984.68	225.44
984.97	225.45
985.26	225.48
985.55	225.51
985.85	225.49
986.14	225.49
986.43	225.51
986.72	225.53
987.01	225.49
987.30	225.49
987.59	225.51
987.89	225.51
988.18	225.50
988.47	225.49
988.76	225.48
989.05	225.46
989.34	225.43
989.63	225.46
989.92	225.41
990.22	225.37
990.51	225.36
990.80	225.34
991.09	225.33
991.38	225.35
991.67	225.35
991.96	225.35
992.25	225.38
992.54	225.34
992.83	225.35
993.12	225.36
993.41	225.39
993.70	225.44
993.99	225.47
994.28	225.48
994.58	225.51
994.87	225.49
995.16	225.46
995.45	225.46
995.74	225.40
996.03	225.41
996.32	225.42
996.61	225.41
996.90	225.41
997.19	225.40
997.48	225.38
997.77	225.34
998.06	225.35
998.34	225.31
998.63	225.34
998.92	225.33
999.21	225.35
999.50	225.34
999.79	225.27
1000.08	225.25
1000.37	225.23
1000.66	225.21
1000.95	225.25
1001.24	225.29
1001.53	225.29
1001.82	225.32
1002.11	225.32
1002.40	225.34
1002.68	225.34
1002.97	225.43
1003.26	225.41
1003.55	225.42
1003.84	225.45
1004.13	225.49
1004.42	225.50
1004.71	225.48
1004.99	225.46
1005.28	225.47
1005.57	225.48
1005.86	225.46
1006.15	225.44
1006.44	225.44
1006.72	225.43
1007.01	225.39
1007.30	225.40
1007.59	225.42
1007.88	225.42
1008.17	225.43
1008.45	225.41
1008.74	225.40
1009.03	225.32
1009.32	225.32
1009.60	225.28
1009.89	225.26
1010.18	225.21
1010.47	225.21
1010.76	225.23
1011.04	225.26
1011.33	225.25
1011.62	225.21
1011.91	225.25
1012.19	225.26
1012.48	225.27
1012.77	225.26
1013.05	225.32
1013.34	225.28
1013.63	225.26
1013.92	225.20
1014.20	225.17
1014.49	225.19
1014.78	225.19
1015.06	225.16
1015.35	225.19
1015.64	225.22
1015.92	225.24
1016.21	225.24
1016.50	225.23
1016.78	225.21
1017.07	225.17
1017.36	225.14
1017.64	225.15
1017.93	225.17
1018.22	225.18
1018.50	225.16
1018.79	225.19
1019.08	225.13
1019.36	225.17
1019.65	225.15
1019.93	225.21
1020.22	225.24
1020.51	225.27
1020.79	225.28
1021.08	225.59
1021.36	224.98
1021.65	225.69
1021.94	224.84
1022.22	225.80
1022.51	224.68
1022.79	225.50
1023.08	225.46
1023.36	226.28
1023.65	225.22
>>>>>End Processed Spectral Data<<<<<
