SpectraSuite Data File
++++++++++++++++++++++++++++++++++++
Date: Fri Feb 01 15:16:34 EST 2013
User: group
Dark Spectrum Present: No
Reference Spectrum Present: No
Number of Sampled Component Spectra: 1
Spectrometers: USB2E7196
Integration Time (usec): 35000 (USB2E7196)
Spectra Averaged: 100 (USB2E7196)
Boxcar Smoothing: 10 (USB2E7196)
Correct for Electrical Dark: No (USB2E7196)
Strobe/Lamp Enabled: No (USB2E7196)
Correct for Detector Non-linearity: No (USB2E7196)
Correct for Stray Light: No (USB2E7196)
Number of Pixels in Processed Spectrum: 2048
>>>>>Begin Processed Spectral Data<<<<<
339.09	0.00
339.48	215.18
339.86	216.83
340.24	218.13
340.63	219.46
341.01	222.11
341.39	222.21
341.78	223.45
342.16	224.84
342.54	224.63
342.93	213.55
343.31	224.33
343.69	224.90
344.07	225.36
344.46	225.80
344.84	226.18
345.22	226.41
345.60	226.63
345.99	226.83
346.37	226.93
346.75	227.07
347.13	227.13
347.52	227.20
347.90	227.26
348.28	227.29
348.66	227.31
349.05	227.30
349.43	227.30
349.81	227.34
350.19	227.38
350.57	227.44
350.96	227.52
351.34	227.62
351.72	227.68
352.10	227.75
352.48	227.79
352.87	227.86
353.25	227.92
353.63	227.97
354.01	228.05
354.39	228.13
354.77	228.18
355.15	228.29
355.54	228.31
355.92	228.34
356.30	228.38
356.68	228.52
357.06	228.59
357.44	228.68
357.82	228.72
358.20	228.78
358.58	228.83
358.97	228.87
359.35	228.94
359.73	229.01
360.11	229.05
360.49	229.13
360.87	229.14
361.25	229.21
361.63	229.29
362.01	229.33
362.39	229.36
362.77	229.39
363.15	229.40
363.53	229.43
363.91	229.48
364.29	229.52
364.67	229.42
365.05	229.41
365.43	229.45
365.81	229.47
366.19	229.51
366.57	229.55
366.95	229.56
367.33	229.52
367.71	229.48
368.09	229.52
368.47	229.49
368.85	229.49
369.23	229.50
369.61	229.45
369.99	229.42
370.37	229.39
370.75	229.42
371.13	229.35
371.51	229.25
371.89	229.22
372.27	229.17
372.65	229.14
373.03	229.08
373.41	229.00
373.78	228.95
374.16	228.85
374.54	228.76
374.92	228.63
375.30	228.58
375.68	228.50
376.06	228.44
376.44	228.37
376.82	228.28
377.19	228.20
377.57	228.14
377.95	228.05
378.33	228.00
378.71	227.88
379.09	227.82
379.47	227.80
379.84	227.70
380.22	227.59
380.60	227.52
380.98	227.49
381.36	227.41
381.73	227.33
382.11	227.29
382.49	227.21
382.87	227.16
383.25	227.08
383.62	227.14
384.00	227.01
384.38	226.95
384.76	226.90
385.13	226.87
385.51	226.82
385.89	226.76
386.27	226.70
386.64	226.65
387.02	226.59
387.40	226.53
387.78	226.55
388.15	226.56
388.53	226.51
388.91	226.47
389.29	226.44
389.66	226.39
390.04	226.35
390.42	226.37
390.79	226.38
391.17	226.35
391.55	226.25
391.92	226.26
392.30	226.26
392.68	226.24
393.05	226.21
393.43	226.19
393.81	226.20
394.18	226.19
394.56	226.19
394.94	226.27
395.31	226.28
395.69	226.30
396.06	226.33
396.44	226.35
396.82	226.42
397.19	226.52
397.57	226.58
397.95	226.68
398.32	226.70
398.70	226.77
399.07	226.87
399.45	226.93
399.82	227.02
400.20	227.10
400.58	227.17
400.95	227.26
401.33	227.37
401.70	227.51
402.08	227.58
402.45	227.73
402.83	227.83
403.20	227.94
403.58	228.02
403.95	228.14
404.33	228.30
404.71	228.40
405.08	228.58
405.46	228.73
405.83	228.86
406.21	228.99
406.58	229.14
406.96	229.33
407.33	229.56
407.70	229.75
408.08	230.03
408.45	230.31
408.83	230.54
409.20	230.77
409.58	230.99
409.95	231.28
410.33	231.56
410.70	231.84
411.08	232.16
411.45	232.51
411.82	232.85
412.20	233.20
412.57	233.60
412.95	233.87
413.32	234.28
413.69	234.67
414.07	235.15
414.44	235.66
414.82	236.10
415.19	236.60
415.56	237.16
415.94	237.70
416.31	238.32
416.68	238.98
417.06	239.68
417.43	240.36
417.81	241.09
418.18	241.83
418.55	242.65
418.93	243.53
419.30	244.44
419.67	245.34
420.04	246.32
420.42	247.32
420.79	248.53
421.16	249.67
421.54	250.89
421.91	252.09
422.28	253.32
422.66	254.64
423.03	255.98
423.40	257.29
423.77	258.72
424.15	260.14
424.52	261.58
424.89	263.21
425.26	264.77
425.64	266.24
426.01	267.82
426.38	269.49
426.75	271.14
427.13	272.83
427.50	274.65
427.87	276.49
428.24	278.36
428.61	280.08
428.99	282.04
429.36	284.11
429.73	286.17
430.10	288.20
430.47	290.29
430.85	292.41
431.22	294.68
431.59	297.04
431.96	299.31
432.33	301.83
432.70	304.22
433.08	307.03
433.45	309.73
433.82	312.37
434.19	315.26
434.56	318.10
434.93	320.77
435.30	323.42
435.68	326.34
436.05	329.19
436.42	331.99
436.79	334.51
437.16	337.25
437.53	340.08
437.90	342.93
438.27	345.71
438.64	348.52
439.01	351.10
439.38	353.31
439.75	355.46
440.13	357.91
440.50	360.21
440.87	362.03
441.24	364.00
441.61	366.19
441.98	367.69
442.35	369.48
442.72	371.32
443.09	373.12
443.46	374.08
443.83	374.70
444.20	375.21
444.57	376.07
444.94	376.33
445.31	376.69
445.68	377.03
446.05	377.04
446.42	376.67
446.79	376.25
447.16	375.85
447.53	375.58
447.90	374.42
448.27	373.24
448.64	371.65
449.01	370.48
449.37	368.51
449.74	366.56
450.11	364.30
450.48	361.84
450.85	359.31
451.22	357.20
451.59	355.13
451.96	353.22
452.33	350.58
452.70	348.23
453.07	345.38
453.43	342.44
453.80	339.68
454.17	336.97
454.54	334.42
454.91	331.63
455.28	328.90
455.65	326.37
456.02	323.95
456.38	321.82
456.75	319.11
457.12	316.84
457.49	314.62
457.86	312.49
458.23	310.64
458.59	308.57
458.96	306.49
459.33	304.63
459.70	302.75
460.07	301.28
460.43	299.53
460.80	297.93
461.17	296.50
461.54	295.02
461.91	293.62
462.27	292.13
462.64	290.91
463.01	289.56
463.38	288.31
463.74	286.93
464.11	285.72
464.48	284.71
464.85	283.54
465.21	282.67
465.58	281.70
465.95	280.57
466.32	279.64
466.68	278.72
467.05	277.80
467.42	276.86
467.78	275.88
468.15	275.00
468.52	274.35
468.88	273.47
469.25	272.68
469.62	272.01
469.98	271.36
470.35	270.72
470.72	270.10
471.08	269.43
471.45	268.89
471.82	268.37
472.18	267.75
472.55	267.34
472.92	266.84
473.28	266.36
473.65	265.94
474.02	265.49
474.38	265.06
474.75	264.71
475.11	264.39
475.48	264.15
475.85	263.92
476.21	263.66
476.58	263.49
476.94	263.37
477.31	263.21
477.67	263.08
478.04	262.99
478.41	262.93
478.77	262.97
479.14	262.90
479.50	262.95
479.87	263.02
480.23	263.09
480.60	263.18
480.96	263.27
481.33	263.46
481.69	263.69
482.06	263.95
482.42	264.17
482.79	264.43
483.15	264.76
483.52	265.13
483.88	265.49
484.25	265.86
484.61	266.27
484.98	266.73
485.34	267.28
485.71	267.85
486.07	268.49
486.44	269.08
486.80	269.80
487.17	270.49
487.53	271.32
487.90	272.18
488.26	273.11
488.62	274.09
488.99	275.08
489.35	276.13
489.72	277.22
490.08	278.47
490.44	279.67
490.81	281.00
491.17	282.36
491.54	283.85
491.90	285.42
492.26	287.07
492.63	288.82
492.99	290.57
493.36	292.47
493.72	294.46
494.08	296.55
494.45	298.78
494.81	301.12
495.17	303.55
495.54	306.12
495.90	308.78
496.26	311.55
496.63	314.49
496.99	317.56
497.35	320.83
497.72	324.21
498.08	327.74
498.44	331.43
498.80	335.32
499.17	339.31
499.53	343.36
499.89	347.70
500.26	352.13
500.62	356.79
500.98	361.70
501.34	366.79
501.71	372.06
502.07	377.43
502.43	383.06
502.79	388.83
503.16	394.87
503.52	401.13
503.88	407.55
504.24	414.21
504.60	421.09
504.97	428.21
505.33	435.45
505.69	443.19
506.05	450.87
506.41	458.73
506.78	466.88
507.14	475.41
507.50	484.10
507.86	493.15
508.22	502.34
508.59	511.59
508.95	521.15
509.31	531.01
509.67	541.14
510.03	551.47
510.39	562.04
510.75	572.79
511.12	583.75
511.48	594.99
511.84	606.38
512.20	617.88
512.56	629.83
512.92	642.10
513.28	654.39
513.64	666.96
514.00	679.64
514.37	692.68
514.73	705.69
515.09	718.76
515.45	732.12
515.81	745.78
516.17	759.78
516.53	773.85
516.89	788.07
517.25	802.29
517.61	816.73
517.97	831.18
518.33	845.66
518.69	860.50
519.05	875.57
519.41	890.88
519.77	906.46
520.13	921.99
520.49	937.44
520.85	953.01
521.21	968.76
521.57	985.10
521.93	1000.85
522.29	1017.32
522.65	1033.70
523.01	1049.92
523.37	1065.97
523.73	1082.18
524.09	1098.40
524.45	1114.77
524.81	1131.42
525.17	1148.31
525.53	1165.35
525.89	1182.38
526.25	1199.14
526.61	1215.54
526.97	1232.37
527.33	1248.84
527.68	1265.54
528.04	1282.02
528.40	1298.71
528.76	1315.83
529.12	1332.53
529.48	1349.44
529.84	1365.51
530.20	1382.13
530.56	1399.25
530.91	1416.74
531.27	1433.67
531.63	1450.23
531.99	1466.84
532.35	1482.98
532.71	1498.88
533.07	1515.12
533.42	1531.07
533.78	1547.19
534.14	1563.62
534.50	1578.93
534.86	1594.97
535.21	1610.07
535.57	1626.17
535.93	1641.73
536.29	1656.42
536.65	1671.52
537.00	1686.32
537.36	1701.75
537.72	1716.35
538.08	1730.77
538.44	1744.56
538.79	1758.46
539.15	1772.27
539.51	1786.04
539.87	1800.37
540.22	1814.16
540.58	1828.00
540.94	1841.35
541.29	1854.45
541.65	1867.16
542.01	1880.53
542.37	1892.93
542.72	1905.45
543.08	1917.11
543.44	1929.45
543.79	1940.92
544.15	1951.81
544.51	1963.51
544.87	1974.40
545.22	1985.11
545.58	1995.42
545.94	2005.30
546.29	2015.17
546.65	2024.85
547.01	2034.14
547.36	2042.84
547.72	2051.39
548.07	2059.36
548.43	2067.63
548.79	2075.69
549.14	2083.19
549.50	2090.64
549.86	2098.30
550.21	2105.62
550.57	2112.90
550.92	2119.51
551.28	2126.54
551.64	2133.73
551.99	2140.29
552.35	2146.61
552.70	2152.92
553.06	2158.81
553.41	2165.09
553.77	2171.05
554.13	2177.33
554.48	2183.52
554.84	2189.07
555.19	2194.47
555.55	2199.43
555.90	2203.82
556.26	2208.62
556.61	2213.35
556.97	2217.43
557.32	2221.61
557.68	2225.77
558.03	2230.10
558.39	2233.73
558.74	2238.44
559.10	2242.24
559.45	2245.77
559.81	2250.03
560.16	2253.84
560.52	2257.24
560.87	2260.74
561.23	2263.45
561.58	2266.37
561.94	2268.85
562.29	2271.11
562.64	2273.59
563.00	2276.31
563.35	2279.89
563.71	2283.03
564.06	2286.32
564.42	2289.23
564.77	2291.72
565.12	2293.80
565.48	2295.63
565.83	2297.60
566.19	2298.82
566.54	2299.79
566.89	2300.95
567.25	2301.35
567.60	2302.67
567.96	2304.17
568.31	2304.89
568.66	2305.79
569.02	2306.19
569.37	2306.37
569.72	2307.17
570.08	2307.22
570.43	2307.13
570.78	2306.32
571.14	2304.65
571.49	2303.26
571.84	2302.83
572.20	2301.38
572.55	2300.42
572.90	2298.76
573.26	2297.21
573.61	2295.39
573.96	2293.49
574.31	2290.44
574.67	2287.38
575.02	2283.59
575.37	2280.10
575.72	2276.10
576.08	2272.81
576.43	2269.58
576.78	2265.93
577.13	2262.83
577.49	2259.72
577.84	2256.12
578.19	2252.38
578.54	2248.60
578.90	2244.16
579.25	2238.53
579.60	2233.57
579.95	2228.48
580.30	2223.30
580.66	2218.01
581.01	2212.99
581.36	2207.96
581.71	2203.81
582.06	2199.46
582.42	2194.97
582.77	2189.62
583.12	2185.02
583.47	2180.18
583.82	2174.94
584.17	2169.54
584.53	2163.76
584.88	2158.00
585.23	2152.07
585.58	2146.52
585.93	2140.98
586.28	2136.08
586.63	2130.93
586.98	2125.91
587.34	2121.20
587.69	2116.32
588.04	2110.93
588.39	2105.19
588.74	2098.70
589.09	2092.33
589.44	2085.29
589.79	2079.06
590.14	2073.43
590.49	2066.74
590.84	2060.23
591.19	2053.97
591.54	2047.33
591.89	2039.98
592.25	2033.02
592.60	2025.83
592.95	2018.19
593.30	2010.78
593.65	2003.18
594.00	1996.06
594.35	1988.68
594.70	1980.37
595.05	1973.02
595.40	1965.75
595.75	1958.18
596.10	1951.80
596.45	1944.92
596.80	1938.75
597.15	1932.05
597.50	1924.93
597.85	1918.58
598.19	1912.00
598.54	1904.95
598.89	1898.36
599.24	1892.38
599.59	1885.69
599.94	1879.52
600.29	1872.98
600.64	1866.42
600.99	1858.99
601.34	1852.06
601.69	1845.02
602.04	1838.19
602.39	1830.77
602.74	1823.89
603.08	1817.11
603.43	1810.39
603.78	1802.99
604.13	1795.71
604.48	1788.38
604.83	1781.43
605.18	1774.29
605.53	1766.05
605.87	1758.05
606.22	1750.82
606.57	1742.84
606.92	1735.52
607.27	1728.13
607.62	1721.32
607.96	1713.98
608.31	1707.21
608.66	1699.51
609.01	1691.98
609.36	1684.28
609.70	1676.27
610.05	1668.11
610.40	1660.41
610.75	1651.98
611.10	1644.52
611.44	1636.14
611.79	1628.25
612.14	1619.56
612.49	1610.50
612.83	1602.25
613.18	1594.08
613.53	1585.87
613.88	1577.38
614.22	1569.11
614.57	1560.61
614.92	1552.56
615.27	1544.99
615.61	1536.74
615.96	1528.86
616.31	1521.21
616.65	1513.99
617.00	1506.56
617.35	1498.97
617.70	1490.60
618.04	1482.03
618.39	1473.74
618.74	1466.12
619.08	1457.83
619.43	1450.27
619.78	1443.23
620.12	1436.07
620.47	1428.65
620.82	1420.58
621.16	1413.28
621.51	1405.69
621.85	1398.11
622.20	1389.58
622.55	1381.26
622.89	1373.53
623.24	1365.94
623.59	1358.47
623.93	1350.83
624.28	1343.49
624.62	1335.84
624.97	1328.66
625.32	1322.10
625.66	1315.14
626.01	1307.82
626.35	1300.26
626.70	1292.51
627.04	1284.89
627.39	1277.05
627.73	1269.60
628.08	1262.66
628.43	1255.23
628.77	1247.85
629.12	1240.25
629.46	1233.14
629.81	1225.68
630.15	1218.24
630.50	1210.84
630.84	1202.74
631.19	1194.88
631.53	1187.44
631.88	1179.96
632.22	1172.37
632.57	1165.05
632.91	1157.50
633.26	1150.22
633.60	1142.86
633.95	1135.83
634.29	1128.85
634.64	1122.17
634.98	1114.88
635.32	1107.84
635.67	1101.32
636.01	1094.68
636.36	1087.89
636.70	1081.37
637.05	1074.81
637.39	1068.50
637.73	1061.94
638.08	1056.12
638.42	1050.16
638.77	1043.63
639.11	1037.13
639.45	1030.81
639.80	1024.16
640.14	1017.64
640.49	1011.17
640.83	1004.96
641.17	998.68
641.52	992.33
641.86	986.01
642.20	980.12
642.55	973.80
642.89	967.18
643.23	960.72
643.58	954.95
643.92	948.78
644.26	942.72
644.61	936.75
644.95	930.69
645.29	924.07
645.64	917.38
645.98	911.14
646.32	905.29
646.66	899.23
647.01	893.37
647.35	887.77
647.69	881.90
648.04	876.44
648.38	870.67
648.72	864.69
649.06	858.64
649.41	852.71
649.75	846.69
650.09	840.83
650.43	835.02
650.78	828.91
651.12	822.89
651.46	817.17
651.80	811.32
652.14	805.97
652.49	800.64
652.83	795.36
653.17	789.60
653.51	783.84
653.85	778.49
654.20	772.92
654.54	766.94
654.88	761.27
655.22	755.34
655.56	749.67
655.90	744.21
656.25	738.98
656.59	733.72
656.93	728.63
657.27	723.44
657.61	718.05
657.95	712.91
658.29	707.82
658.64	702.57
658.98	697.31
659.32	691.85
659.66	686.63
660.00	681.41
660.34	676.53
660.68	671.71
661.02	666.63
661.36	661.90
661.70	657.44
662.05	653.05
662.39	648.71
662.73	644.27
663.07	639.91
663.41	635.42
663.75	630.86
664.09	626.37
664.43	622.04
664.77	617.91
665.11	613.68
665.45	609.62
665.79	605.62
666.13	601.53
666.47	597.47
666.81	593.32
667.15	589.20
667.49	585.33
667.83	581.54
668.17	577.64
668.51	573.67
668.85	569.67
669.19	565.88
669.53	562.06
669.87	558.23
670.21	554.55
670.55	550.98
670.89	547.60
671.23	544.17
671.57	540.61
671.91	537.07
672.25	533.60
672.58	530.09
672.92	526.72
673.26	523.57
673.60	520.44
673.94	517.35
674.28	514.48
674.62	511.53
674.96	508.38
675.30	505.41
675.64	502.45
675.97	499.67
676.31	496.80
676.65	493.86
676.99	491.06
677.33	488.18
677.67	485.34
678.01	482.30
678.34	479.31
678.68	476.44
679.02	473.62
679.36	470.91
679.70	468.22
680.04	465.42
680.37	462.54
680.71	459.73
681.05	457.15
681.39	454.42
681.73	451.77
682.06	449.26
682.40	446.76
682.74	444.25
683.08	441.71
683.42	439.09
683.75	436.64
684.09	434.17
684.43	431.73
684.77	429.26
685.10	426.94
685.44	424.68
685.78	422.44
686.12	420.27
686.45	417.95
686.79	415.65
687.13	413.48
687.46	411.31
687.80	409.17
688.14	407.01
688.48	405.00
688.81	402.79
689.15	400.67
689.49	398.58
689.82	396.49
690.16	394.39
690.50	392.46
690.83	390.51
691.17	388.55
691.51	386.63
691.84	384.84
692.18	382.93
692.52	380.95
692.85	379.06
693.19	377.15
693.52	375.36
693.86	373.58
694.20	371.77
694.53	370.02
694.87	368.21
695.21	366.42
695.54	364.54
695.88	362.86
696.21	361.10
696.55	359.43
696.88	357.77
697.22	356.13
697.56	354.52
697.89	352.89
698.23	351.23
698.56	349.66
698.90	347.99
699.23	346.34
699.57	344.75
699.90	343.22
700.24	341.69
700.58	340.16
700.91	338.66
701.25	337.24
701.58	335.86
701.92	334.51
702.25	333.11
702.59	331.81
702.92	330.46
703.26	329.15
703.59	327.88
703.93	326.66
704.26	325.46
704.60	324.16
704.93	322.90
705.26	321.68
705.60	320.50
705.93	319.39
706.27	318.37
706.60	317.38
706.94	316.28
707.27	315.15
707.61	314.11
707.94	313.09
708.27	312.01
708.61	310.95
708.94	309.92
709.28	308.96
709.61	307.95
709.94	307.02
710.28	305.99
710.61	305.00
710.95	303.97
711.28	303.03
711.61	302.14
711.95	301.19
712.28	300.20
712.61	299.22
712.95	298.27
713.28	297.40
713.61	296.50
713.95	295.63
714.28	294.79
714.61	293.91
714.95	293.09
715.28	292.27
715.61	291.39
715.95	290.54
716.28	289.66
716.61	288.85
716.95	288.01
717.28	287.33
717.61	286.57
717.94	285.82
718.28	285.01
718.61	284.26
718.94	283.60
719.27	282.96
719.61	282.32
719.94	281.66
720.27	280.95
720.60	280.27
720.94	279.64
721.27	279.06
721.60	278.48
721.93	277.86
722.27	277.31
722.60	276.78
722.93	276.20
723.26	275.70
723.59	275.14
723.93	274.63
724.26	274.06
724.59	273.52
724.92	272.98
725.25	272.49
725.59	271.95
725.92	271.42
726.25	270.93
726.58	270.45
726.91	269.96
727.24	269.47
727.57	269.02
727.91	268.50
728.24	268.05
728.57	267.56
728.90	267.12
729.23	266.57
729.56	266.13
729.89	265.65
730.22	265.16
730.55	264.71
730.89	264.25
731.22	263.81
731.55	263.36
731.88	262.94
732.21	262.50
732.54	262.05
732.87	261.61
733.20	261.20
733.53	260.83
733.86	260.44
734.19	260.04
734.52	259.63
734.85	259.33
735.18	258.90
735.51	258.52
735.84	258.12
736.17	257.78
736.50	257.34
736.83	257.13
737.16	256.77
737.49	256.41
737.82	256.04
738.15	255.72
738.48	255.38
738.81	255.08
739.14	254.76
739.47	254.48
739.80	254.17
740.13	253.89
740.46	253.58
740.79	253.24
741.12	252.94
741.45	252.63
741.78	252.29
742.11	252.01
742.44	251.72
742.77	251.46
743.10	251.15
743.43	250.90
743.75	250.52
744.08	250.36
744.41	250.10
744.74	249.84
745.07	249.52
745.40	249.29
745.73	249.02
746.06	248.75
746.39	248.49
746.71	248.23
747.04	247.94
747.37	247.64
747.70	247.42
748.03	247.15
748.36	246.91
748.68	246.65
749.01	246.40
749.34	246.14
749.67	245.89
750.00	245.65
750.33	245.50
750.65	245.27
750.98	244.95
751.31	244.74
751.64	244.52
751.97	244.37
752.29	244.15
752.62	243.88
752.95	243.69
753.28	243.46
753.60	243.22
753.93	243.03
754.26	242.84
754.59	242.63
754.91	242.43
755.24	242.25
755.57	242.03
755.90	241.85
756.22	241.67
756.55	241.50
756.88	241.30
757.20	241.03
757.53	240.83
757.86	240.64
758.19	240.44
758.51	240.28
758.84	240.06
759.17	239.89
759.49	239.75
759.82	239.64
760.15	239.51
760.47	239.36
760.80	239.19
761.13	239.08
761.45	238.90
761.78	238.78
762.11	238.65
762.43	238.55
762.76	238.40
763.08	238.28
763.41	238.14
763.74	238.05
764.06	237.94
764.39	237.80
764.71	237.68
765.04	237.56
765.37	237.45
765.69	237.35
766.02	237.23
766.34	237.11
766.67	236.97
767.00	236.86
767.32	236.80
767.65	236.78
767.97	236.64
768.30	236.55
768.62	236.45
768.95	236.35
769.27	236.24
769.60	236.16
769.92	236.04
770.25	235.92
770.57	235.84
770.90	235.73
771.22	235.61
771.55	235.52
771.87	235.43
772.20	235.33
772.52	235.34
772.85	235.35
773.17	235.28
773.50	235.16
773.82	235.08
774.15	234.99
774.47	234.85
774.80	234.76
775.12	234.66
775.45	234.58
775.77	234.45
776.09	234.36
776.42	234.27
776.74	234.25
777.07	234.21
777.39	234.08
777.72	234.00
778.04	233.98
778.36	233.91
778.69	233.88
779.01	233.82
779.33	233.66
779.66	233.48
779.98	233.42
780.31	233.37
780.63	233.32
780.95	233.26
781.28	233.19
781.60	233.13
781.92	233.07
782.25	233.02
782.57	232.97
782.89	232.91
783.22	232.84
783.54	232.75
783.86	232.67
784.19	232.64
784.51	232.61
784.83	232.54
785.16	232.47
785.48	232.38
785.80	232.35
786.12	232.31
786.45	232.25
786.77	232.20
787.09	232.15
787.42	232.09
787.74	232.04
788.06	231.97
788.38	231.90
788.71	231.89
789.03	231.84
789.35	231.83
789.67	231.76
789.99	231.75
790.32	231.68
790.64	231.66
790.96	231.69
791.28	231.62
791.61	231.59
791.93	231.55
792.25	231.54
792.57	231.54
792.89	231.46
793.21	231.44
793.54	231.40
793.86	231.33
794.18	231.26
794.50	231.18
794.82	231.16
795.14	231.14
795.47	231.07
795.79	231.02
796.11	230.95
796.43	230.91
796.75	230.84
797.07	230.83
797.39	230.83
797.71	230.71
798.04	230.70
798.36	230.67
798.68	230.66
799.00	230.61
799.32	230.53
799.64	230.50
799.96	230.44
800.28	230.39
800.60	230.33
800.92	230.30
801.24	230.27
801.56	230.21
801.89	230.16
802.21	230.15
802.53	230.12
802.85	230.12
803.17	230.15
803.49	230.11
803.81	230.03
804.13	229.99
804.45	229.96
804.77	229.93
805.09	229.87
805.41	229.82
805.73	229.80
806.05	229.75
806.37	229.72
806.69	229.69
807.01	229.65
807.33	229.65
807.65	229.66
807.97	229.67
808.28	229.64
808.60	229.63
808.92	229.58
809.24	229.62
809.56	229.54
809.88	229.48
810.20	229.47
810.52	229.53
810.84	229.44
811.16	229.39
811.48	229.34
811.80	229.37
812.12	229.33
812.43	229.30
812.75	229.29
813.07	229.29
813.39	229.27
813.71	229.27
814.03	229.21
814.35	229.15
814.67	229.10
814.98	229.07
815.30	229.07
815.62	229.06
815.94	228.98
816.26	229.01
816.58	229.00
816.89	228.97
817.21	228.90
817.53	228.91
817.85	228.91
818.17	228.90
818.48	228.84
818.80	228.86
819.12	228.83
819.44	228.81
819.76	228.78
820.07	228.81
820.39	228.79
820.71	228.79
821.03	228.78
821.34	228.78
821.66	228.80
821.98	228.78
822.30	228.79
822.61	228.80
822.93	228.75
823.25	228.75
823.57	228.71
823.88	228.71
824.20	228.67
824.52	228.67
824.83	228.68
825.15	228.64
825.47	228.59
825.79	228.61
826.10	228.59
826.42	228.54
826.74	228.54
827.05	228.50
827.37	228.51
827.69	228.50
828.00	228.49
828.32	228.46
828.64	228.42
828.95	228.42
829.27	228.37
829.58	228.37
829.90	228.37
830.22	228.41
830.53	228.35
830.85	228.33
831.17	228.28
831.48	228.27
831.80	228.27
832.11	228.28
832.43	228.25
832.75	228.23
833.06	228.29
833.38	228.22
833.69	228.21
834.01	228.17
834.32	228.17
834.64	228.15
834.96	228.13
835.27	228.10
835.59	228.06
835.90	228.06
836.22	228.03
836.53	227.99
836.85	227.93
837.16	228.07
837.48	228.11
837.79	228.13
838.11	228.12
838.42	228.12
838.74	228.13
839.05	228.10
839.37	228.09
839.68	228.01
840.00	227.98
840.31	228.00
840.63	227.99
840.94	227.96
841.26	227.95
841.57	227.93
841.88	227.95
842.20	227.93
842.51	227.91
842.83	227.88
843.14	227.95
843.46	227.98
843.77	227.90
844.08	227.85
844.40	227.78
844.71	227.76
845.03	227.76
845.34	227.69
845.65	227.67
845.97	227.67
846.28	227.68
846.60	227.68
846.91	227.63
847.22	227.62
847.54	227.64
847.85	227.65
848.16	227.67
848.48	227.64
848.79	227.64
849.10	227.63
849.42	227.65
849.73	227.54
850.04	227.51
850.36	227.47
850.67	227.49
850.98	227.52
851.30	227.51
851.61	227.49
851.92	227.51
852.23	227.53
852.55	227.53
852.86	227.53
853.17	227.53
853.49	227.58
853.80	227.64
854.11	227.65
854.42	227.65
854.74	227.61
855.05	227.62
855.36	227.60
855.67	227.61
855.99	227.60
856.30	227.73
856.61	227.72
856.92	227.70
857.23	227.70
857.55	227.70
857.86	227.69
858.17	227.75
858.48	227.73
858.79	227.72
859.11	227.71
859.42	227.70
859.73	227.71
860.04	227.70
860.35	227.67
860.66	227.58
860.98	227.58
861.29	227.59
861.60	227.60
861.91	227.63
862.22	227.62
862.53	227.62
862.84	227.51
863.16	227.55
863.47	227.55
863.78	227.54
864.09	227.53
864.40	227.53
864.71	227.48
865.02	227.47
865.33	227.44
865.64	227.41
865.95	227.42
866.27	227.49
866.58	227.44
866.89	227.42
867.20	227.46
867.51	227.46
867.82	227.44
868.13	227.46
868.44	227.40
868.75	227.42
869.06	227.44
869.37	227.47
869.68	227.41
869.99	227.40
870.30	227.42
870.61	227.43
870.92	227.42
871.23	227.43
871.54	227.45
871.85	227.47
872.16	227.49
872.47	227.46
872.78	227.38
873.09	227.42
873.40	227.40
873.71	227.40
874.02	227.36
874.33	227.35
874.64	227.33
874.95	227.36
875.26	227.30
875.56	227.29
875.87	227.25
876.18	227.29
876.49	227.40
876.80	227.38
877.11	227.35
877.42	227.34
877.73	227.30
878.04	227.25
878.35	227.27
878.66	227.28
878.96	227.32
879.27	227.33
879.58	227.31
879.89	227.31
880.20	227.35
880.51	227.35
880.82	227.37
881.12	227.36
881.43	227.34
881.74	227.34
882.05	227.35
882.36	227.33
882.67	227.33
882.97	227.23
883.28	227.23
883.59	227.22
883.90	227.24
884.21	227.26
884.51	227.29
884.82	227.25
885.13	227.28
885.44	227.24
885.74	227.23
886.05	227.24
886.36	227.27
886.67	227.21
886.98	227.26
887.28	227.24
887.59	227.25
887.90	227.22
888.20	227.21
888.51	227.21
888.82	227.19
889.13	227.19
889.43	227.29
889.74	227.29
890.05	227.29
890.35	227.31
890.66	227.30
890.97	227.29
891.28	227.29
891.58	227.26
891.89	227.28
892.20	227.25
892.50	227.26
892.81	227.24
893.12	227.26
893.42	227.22
893.73	227.23
894.04	227.23
894.34	227.27
894.65	227.26
894.95	227.27
895.26	227.30
895.57	227.31
895.87	227.20
896.18	227.24
896.48	227.24
896.79	227.23
897.10	227.25
897.40	227.27
897.71	227.31
898.01	227.30
898.32	227.31
898.63	227.31
898.93	227.30
899.24	227.29
899.54	227.29
899.85	227.30
900.15	227.34
900.46	227.32
900.76	227.34
901.07	227.40
901.38	227.42
901.68	227.46
901.99	227.44
902.29	227.43
902.60	227.41
902.90	227.42
903.21	227.41
903.51	227.39
903.82	227.40
904.12	227.39
904.43	227.38
904.73	227.38
905.03	227.40
905.34	227.49
905.64	227.51
905.95	227.49
906.25	227.50
906.56	227.46
906.86	227.48
907.17	227.48
907.47	227.46
907.77	227.45
908.08	227.41
908.38	227.43
908.69	227.45
908.99	227.43
909.30	227.43
909.60	227.43
909.90	227.45
910.21	227.46
910.51	227.45
910.81	227.43
911.12	227.44
911.42	227.47
911.73	227.40
912.03	227.39
912.33	227.41
912.64	227.40
912.94	227.41
913.24	227.39
913.55	227.37
913.85	227.36
914.15	227.33
914.46	227.34
914.76	227.32
915.06	227.29
915.37	227.28
915.67	227.29
915.97	227.27
916.27	227.23
916.58	227.21
916.88	227.20
917.18	227.21
917.49	227.24
917.79	227.21
918.09	227.22
918.39	227.25
918.70	227.24
919.00	227.25
919.30	227.26
919.60	227.24
919.91	227.23
920.21	227.21
920.51	227.23
920.81	227.18
921.12	227.21
921.42	227.24
921.72	227.24
922.02	227.23
922.32	227.23
922.63	227.24
922.93	227.30
923.23	227.32
923.53	227.30
923.83	227.21
924.13	227.20
924.44	227.18
924.74	227.15
925.04	227.17
925.34	227.16
925.64	227.10
925.94	227.10
926.24	227.15
926.55	227.16
926.85	227.15
927.15	227.16
927.45	227.13
927.75	227.11
928.05	227.11
928.35	227.10
928.65	227.12
928.95	227.11
929.26	227.04
929.56	227.02
929.86	227.03
930.16	227.07
930.46	227.08
930.76	227.11
931.06	227.09
931.36	227.05
931.66	227.10
931.96	227.16
932.26	227.17
932.56	227.12
932.86	227.14
933.16	227.13
933.46	227.12
933.76	227.14
934.06	227.15
934.36	227.16
934.66	227.17
934.96	227.18
935.26	227.21
935.56	227.24
935.86	227.22
936.16	227.23
936.46	227.18
936.76	227.16
937.06	227.14
937.36	227.15
937.66	227.17
937.96	227.14
938.26	227.11
938.56	227.10
938.86	227.10
939.16	227.11
939.46	227.11
939.76	227.12
940.06	227.12
940.35	227.12
940.65	227.08
940.95	227.10
941.25	227.07
941.55	227.05
941.85	227.04
942.15	227.05
942.45	227.05
942.75	227.08
943.04	227.12
943.34	227.11
943.64	227.09
943.94	227.08
944.24	227.05
944.54	227.05
944.84	227.05
945.13	227.04
945.43	227.02
945.73	227.03
946.03	227.02
946.33	227.01
946.62	227.00
946.92	227.00
947.22	226.98
947.52	226.98
947.82	227.01
948.11	226.98
948.41	226.97
948.71	227.00
949.01	227.00
949.31	226.96
949.60	226.97
949.90	226.98
950.20	226.96
950.50	227.00
950.79	226.99
951.09	227.02
951.39	227.03
951.69	227.00
951.98	227.01
952.28	227.02
952.58	227.02
952.87	226.99
953.17	227.03
953.47	226.98
953.76	226.97
954.06	226.93
954.36	226.91
954.66	226.92
954.95	226.91
955.25	226.95
955.55	226.97
955.84	226.96
956.14	226.95
956.44	226.98
956.73	226.93
957.03	226.96
957.32	226.94
957.62	226.95
957.92	226.98
958.21	226.96
958.51	227.10
958.81	227.10
959.10	227.12
959.40	227.14
959.69	227.18
959.99	227.21
960.29	227.23
960.58	227.24
960.88	227.28
961.17	227.27
961.47	227.26
961.76	227.24
962.06	227.26
962.36	227.26
962.65	227.25
962.95	227.29
963.24	227.27
963.54	227.27
963.83	227.26
964.13	227.25
964.42	227.23
964.72	227.16
965.01	227.17
965.31	227.20
965.60	227.16
965.90	227.23
966.19	227.20
966.49	227.21
966.78	227.23
967.08	227.22
967.37	227.22
967.67	227.21
967.96	227.23
968.26	227.21
968.55	227.24
968.85	227.22
969.14	227.20
969.43	227.20
969.73	227.17
970.02	227.19
970.32	227.20
970.61	227.21
970.91	227.15
971.20	227.11
971.49	227.10
971.79	227.12
972.08	227.05
972.38	227.09
972.67	227.08
972.96	227.10
973.26	227.08
973.55	227.10
973.85	227.07
974.14	227.10
974.43	227.12
974.73	227.09
975.02	227.10
975.31	227.10
975.61	227.08
975.90	227.10
976.19	227.07
976.49	227.06
976.78	227.06
977.07	227.08
977.37	227.08
977.66	227.09
977.95	227.06
978.24	227.04
978.54	227.02
978.83	227.01
979.12	226.99
979.42	226.98
979.71	226.97
980.00	227.00
980.29	226.99
980.59	226.95
980.88	226.96
981.17	226.95
981.46	226.95
981.76	226.94
982.05	226.96
982.34	226.95
982.63	226.94
982.93	226.93
983.22	226.95
983.51	226.96
983.80	226.99
984.09	227.00
984.39	227.02
984.68	227.03
984.97	227.01
985.26	227.00
985.55	226.99
985.85	226.95
986.14	226.93
986.43	226.92
986.72	226.91
987.01	226.89
987.30	226.90
987.59	226.86
987.89	226.86
988.18	226.84
988.47	226.83
988.76	226.82
989.05	226.80
989.34	226.78
989.63	226.82
989.92	226.78
990.22	226.75
990.51	226.76
990.80	226.73
991.09	226.72
991.38	226.73
991.67	226.72
991.96	226.73
992.25	226.72
992.54	226.68
992.83	226.68
993.12	226.67
993.41	226.69
993.70	226.75
993.99	226.77
994.28	226.77
994.58	226.79
994.87	226.78
995.16	226.78
995.45	226.78
995.74	226.69
996.03	226.69
996.32	226.72
996.61	226.71
996.90	226.70
997.19	226.70
997.48	226.69
997.77	226.67
998.06	226.66
998.34	226.68
998.63	226.71
998.92	226.69
999.21	226.70
999.50	226.69
999.79	226.67
1000.08	226.67
1000.37	226.66
1000.66	226.65
1000.95	226.65
1001.24	226.67
1001.53	226.65
1001.82	226.66
1002.11	226.66
1002.40	226.66
1002.68	226.67
1002.97	226.74
1003.26	226.74
1003.55	226.76
1003.84	226.77
1004.13	226.82
1004.42	226.81
1004.71	226.84
1004.99	226.85
1005.28	226.86
1005.57	226.86
1005.86	226.86
1006.15	226.83
1006.44	226.83
1006.72	226.84
1007.01	226.86
1007.30	226.85
1007.59	226.86
1007.88	226.88
1008.17	226.90
1008.45	226.89
1008.74	226.86
1009.03	226.83
1009.32	226.85
1009.60	226.83
1009.89	226.81
1010.18	226.80
1010.47	226.79
1010.76	226.75
1011.04	226.77
1011.33	226.78
1011.62	226.78
1011.91	226.77
1012.19	226.80
1012.48	226.77
1012.77	226.79
1013.05	226.82
1013.34	226.83
1013.63	226.85
1013.92	226.86
1014.20	226.87
1014.49	226.87
1014.78	226.86
1015.06	226.83
1015.35	226.82
1015.64	226.83
1015.92	226.86
1016.21	226.86
1016.50	226.89
1016.78	226.95
1017.07	226.97
1017.36	226.98
1017.64	226.97
1017.93	226.96
1018.22	226.96
1018.50	226.98
1018.79	226.97
1019.08	226.93
1019.36	226.94
1019.65	226.92
1019.93	226.95
1020.22	226.97
1020.51	227.04
1020.79	227.04
1021.08	226.83
1021.36	226.60
1021.65	226.79
1021.94	226.96
1022.22	226.85
1022.51	226.80
1022.79	227.50
1023.08	227.63
1023.36	228.21
1023.65	226.46
>>>>>End Processed Spectral Data<<<<<
