SpectraSuite Data File
++++++++++++++++++++++++++++++++++++
Date: Fri Feb 01 17:14:37 EST 2013
User: group
Dark Spectrum Present: No
Reference Spectrum Present: No
Number of Sampled Component Spectra: 1
Spectrometers: USB2E7196
Integration Time (usec): 35000 (USB2E7196)
Spectra Averaged: 100 (USB2E7196)
Boxcar Smoothing: 10 (USB2E7196)
Correct for Electrical Dark: No (USB2E7196)
Strobe/Lamp Enabled: No (USB2E7196)
Correct for Detector Non-linearity: No (USB2E7196)
Correct for Stray Light: No (USB2E7196)
Number of Pixels in Processed Spectrum: 2048
>>>>>Begin Processed Spectral Data<<<<<
339.09	0.00
339.48	213.40
339.86	214.53
340.24	216.18
340.63	217.31
341.01	219.99
341.39	220.05
341.78	221.11
342.16	222.37
342.54	222.83
342.93	211.48
343.31	222.21
343.69	222.72
344.07	223.17
344.46	223.62
344.84	223.99
345.22	224.23
345.60	224.47
345.99	224.67
346.37	224.81
346.75	224.93
347.13	225.04
347.52	225.11
347.90	225.17
348.28	225.21
348.66	225.28
349.05	225.30
349.43	225.35
349.81	225.37
350.19	225.44
350.57	225.52
350.96	225.61
351.34	225.68
351.72	225.79
352.10	225.91
352.48	225.97
352.87	226.02
353.25	226.09
353.63	226.14
354.01	226.24
354.39	226.30
354.77	226.41
355.15	226.48
355.54	226.55
355.92	226.59
356.30	226.69
356.68	226.82
357.06	226.88
357.44	226.94
357.82	227.00
358.20	227.10
358.58	227.16
358.97	227.19
359.35	227.27
359.73	227.33
360.11	227.36
360.49	227.42
360.87	227.47
361.25	227.55
361.63	227.65
362.01	227.67
362.39	227.72
362.77	227.72
363.15	227.73
363.53	227.74
363.91	227.79
364.29	227.81
364.67	227.73
365.05	227.74
365.43	227.74
365.81	227.79
366.19	227.79
366.57	227.84
366.95	227.85
367.33	227.79
367.71	227.76
368.09	227.80
368.47	227.76
368.85	227.74
369.23	227.72
369.61	227.66
369.99	227.64
370.37	227.62
370.75	227.65
371.13	227.64
371.51	227.58
371.89	227.51
372.27	227.43
372.65	227.39
373.03	227.33
373.41	227.27
373.78	227.20
374.16	227.08
374.54	227.00
374.92	226.93
375.30	226.90
375.68	226.86
376.06	226.80
376.44	226.76
376.82	226.69
377.19	226.63
377.57	226.56
377.95	226.45
378.33	226.38
378.71	226.26
379.09	226.14
379.47	226.12
379.84	226.05
380.22	226.01
380.60	225.93
380.98	225.85
381.36	225.80
381.73	225.72
382.11	225.69
382.49	225.61
382.87	225.55
383.25	225.47
383.62	225.52
384.00	225.42
384.38	225.32
384.76	225.29
385.13	225.27
385.51	225.23
385.89	225.17
386.27	225.12
386.64	225.09
387.02	225.06
387.40	224.99
387.78	224.97
388.15	224.91
388.53	224.87
388.91	224.84
389.29	224.79
389.66	224.76
390.04	224.73
390.42	224.72
390.79	224.71
391.17	224.68
391.55	224.58
391.92	224.57
392.30	224.59
392.68	224.58
393.05	224.59
393.43	224.59
393.81	224.62
394.18	224.63
394.56	224.61
394.94	224.68
395.31	224.67
395.69	224.71
396.06	224.77
396.44	224.80
396.82	224.85
397.19	224.95
397.57	225.00
397.95	225.06
398.32	225.05
398.70	225.10
399.07	225.18
399.45	225.21
399.82	225.26
400.20	225.27
400.58	225.34
400.95	225.34
401.33	225.43
401.70	225.56
402.08	225.65
402.45	225.77
402.83	225.86
403.20	225.97
403.58	226.06
403.95	226.20
404.33	226.31
404.71	226.41
405.08	226.59
405.46	226.71
405.83	226.82
406.21	226.96
406.58	227.09
406.96	227.23
407.33	227.42
407.70	227.63
408.08	227.94
408.45	228.17
408.83	228.41
409.20	228.61
409.58	228.80
409.95	229.09
410.33	229.31
410.70	229.57
411.08	229.89
411.45	230.23
411.82	230.52
412.20	230.91
412.57	231.35
412.95	231.62
413.32	232.06
413.69	232.52
414.07	232.97
414.44	233.47
414.82	233.93
415.19	234.49
415.56	235.02
415.94	235.54
416.31	236.14
416.68	236.79
417.06	237.50
417.43	238.21
417.81	238.98
418.18	239.79
418.55	240.65
418.93	241.54
419.30	242.41
419.67	243.37
420.04	244.32
420.42	245.34
420.79	246.57
421.16	247.75
421.54	248.95
421.91	250.19
422.28	251.49
422.66	252.88
423.03	254.21
423.40	255.57
423.77	257.06
424.15	258.54
424.52	260.05
424.89	261.73
425.26	263.30
425.64	264.75
426.01	266.34
426.38	268.00
426.75	269.72
427.13	271.52
427.50	273.33
427.87	275.29
428.24	277.16
428.61	278.95
428.99	280.91
429.36	283.04
429.73	285.16
430.10	287.24
430.47	289.30
430.85	291.41
431.22	293.69
431.59	296.09
431.96	298.35
432.33	300.86
432.70	303.24
433.08	306.08
433.45	308.84
433.82	311.51
434.19	314.45
434.56	317.29
434.93	319.98
435.30	322.67
435.68	325.59
436.05	328.47
436.42	331.28
436.79	333.86
437.16	336.60
437.53	339.48
437.90	342.33
438.27	345.15
438.64	348.08
439.01	350.78
439.38	353.09
439.75	355.32
440.13	357.87
440.50	360.28
440.87	362.15
441.24	364.05
441.61	366.28
441.98	367.82
442.35	369.67
442.72	371.52
443.09	373.35
443.46	374.33
443.83	374.93
444.20	375.51
444.57	376.38
444.94	376.69
445.31	377.07
445.68	377.44
446.05	377.58
446.42	377.23
446.79	376.79
447.16	376.29
447.53	376.02
447.90	374.86
448.27	373.69
448.64	372.14
449.01	371.06
449.37	369.06
449.74	367.14
450.11	364.86
450.48	362.42
450.85	359.88
451.22	357.77
451.59	355.72
451.96	353.72
452.33	351.06
452.70	348.67
453.07	345.81
453.43	342.88
453.80	340.00
454.17	337.24
454.54	334.64
454.91	331.92
455.28	329.19
455.65	326.62
456.02	324.16
456.38	321.96
456.75	319.20
457.12	316.90
457.49	314.63
457.86	312.41
458.23	310.53
458.59	308.45
458.96	306.30
459.33	304.40
459.70	302.51
460.07	300.98
460.43	299.23
460.80	297.56
461.17	296.06
461.54	294.53
461.91	293.08
462.27	291.61
462.64	290.33
463.01	288.96
463.38	287.65
463.74	286.21
464.11	285.02
464.48	283.99
464.85	282.90
465.21	282.01
465.58	281.09
465.95	279.98
466.32	279.07
466.68	278.14
467.05	277.25
467.42	276.32
467.78	275.33
468.15	274.44
468.52	273.78
468.88	272.89
469.25	272.15
469.62	271.55
469.98	270.84
470.35	270.17
470.72	269.56
471.08	268.92
471.45	268.40
471.82	267.86
472.18	267.23
472.55	266.75
472.92	266.24
473.28	265.76
473.65	265.29
474.02	264.81
474.38	264.46
474.75	264.12
475.11	263.80
475.48	263.56
475.85	263.33
476.21	263.10
476.58	262.95
476.94	262.76
477.31	262.56
477.67	262.42
478.04	262.35
478.41	262.27
478.77	262.32
479.14	262.23
479.50	262.22
479.87	262.34
480.23	262.40
480.60	262.48
480.96	262.54
481.33	262.73
481.69	262.91
482.06	263.08
482.42	263.27
482.79	263.50
483.15	263.82
483.52	264.15
483.88	264.47
484.25	264.83
484.61	265.25
484.98	265.72
485.34	266.31
485.71	266.87
486.07	267.43
486.44	267.97
486.80	268.69
487.17	269.42
487.53	270.16
487.90	270.99
488.26	271.91
488.62	272.90
488.99	273.85
489.35	274.90
489.72	276.06
490.08	277.27
490.44	278.55
490.81	279.86
491.17	281.21
491.54	282.68
491.90	284.22
492.26	285.90
492.63	287.62
492.99	289.40
493.36	291.32
493.72	293.41
494.08	295.57
494.45	297.81
494.81	300.19
495.17	302.70
495.54	305.31
495.90	307.98
496.26	310.79
496.63	313.75
496.99	316.89
497.35	320.13
497.72	323.53
498.08	327.05
498.44	330.71
498.80	334.65
499.17	338.71
499.53	342.88
499.89	347.23
500.26	351.68
500.62	356.33
500.98	361.22
501.34	366.27
501.71	371.56
502.07	376.99
502.43	382.57
502.79	388.35
503.16	394.39
503.52	400.68
503.88	407.04
504.24	413.67
504.60	420.57
504.97	427.65
505.33	434.93
505.69	442.53
506.05	450.29
506.41	458.14
506.78	466.25
507.14	474.61
507.50	483.25
507.86	492.26
508.22	501.36
508.59	510.51
508.95	519.92
509.31	529.61
509.67	539.53
510.03	549.70
510.39	560.11
510.75	570.73
511.12	581.35
511.48	592.48
511.84	603.77
512.20	615.02
512.56	626.73
512.92	638.65
513.28	650.83
513.64	663.01
514.00	675.44
514.37	688.10
514.73	701.08
515.09	713.94
515.45	726.93
515.81	740.29
516.17	754.05
516.53	767.99
516.89	781.94
517.25	795.88
517.61	809.97
517.97	824.21
518.33	838.39
518.69	853.01
519.05	867.79
519.41	882.66
519.77	897.85
520.13	913.10
520.49	928.31
520.85	943.48
521.21	958.88
521.57	974.82
521.93	990.32
522.29	1006.22
522.65	1022.20
523.01	1038.12
523.37	1053.81
523.73	1069.64
524.09	1085.43
524.45	1101.35
524.81	1117.78
525.17	1134.23
525.53	1150.65
525.89	1167.23
526.25	1183.76
526.61	1199.78
526.97	1216.17
527.33	1232.41
527.68	1248.61
528.04	1264.80
528.40	1280.89
528.76	1297.72
529.12	1314.04
529.48	1330.62
529.84	1346.38
530.20	1362.59
530.56	1379.12
530.91	1396.18
531.27	1412.68
531.63	1428.78
531.99	1445.06
532.35	1460.78
532.71	1476.54
533.07	1492.57
533.42	1508.15
533.78	1523.99
534.14	1539.98
534.50	1555.14
534.86	1570.75
535.21	1585.80
535.57	1601.52
535.93	1616.80
536.29	1631.33
536.65	1646.03
537.00	1660.42
537.36	1675.41
537.72	1689.58
538.08	1703.89
538.44	1717.43
538.79	1731.03
539.15	1744.41
539.51	1757.92
539.87	1771.85
540.22	1785.22
540.58	1798.75
540.94	1811.69
541.29	1823.97
541.65	1836.38
542.01	1849.27
542.37	1861.40
542.72	1873.55
543.08	1885.06
543.44	1897.32
543.79	1908.49
544.15	1919.44
544.51	1931.09
544.87	1941.96
545.22	1953.02
545.58	1963.26
545.94	1973.18
546.29	1983.07
546.65	1993.09
547.01	2002.46
547.36	2011.33
547.72	2020.02
548.07	2028.19
548.43	2036.50
548.79	2044.64
549.14	2052.45
549.50	2059.92
549.86	2067.64
550.21	2075.09
550.57	2082.45
550.92	2089.26
551.28	2096.49
551.64	2103.73
551.99	2110.25
552.35	2116.71
552.70	2122.88
553.06	2129.17
553.41	2135.71
553.77	2141.71
554.13	2147.97
554.48	2154.11
554.84	2159.83
555.19	2165.09
555.55	2170.32
555.90	2175.02
556.26	2180.48
556.61	2185.40
556.97	2190.00
557.32	2194.47
557.68	2198.85
558.03	2203.32
558.39	2207.10
558.74	2211.84
559.10	2215.93
559.45	2219.92
559.81	2224.19
560.16	2228.26
560.52	2231.58
560.87	2235.04
561.23	2238.18
561.58	2241.21
561.94	2244.16
562.29	2246.61
562.64	2249.88
563.00	2252.63
563.35	2256.44
563.71	2259.77
564.06	2262.90
564.42	2266.11
564.77	2269.03
565.12	2271.73
565.48	2274.13
565.83	2276.46
566.19	2278.25
566.54	2279.34
566.89	2280.80
567.25	2281.82
567.60	2283.36
567.96	2285.49
568.31	2286.65
568.66	2287.97
569.02	2288.95
569.37	2289.67
569.72	2290.93
570.08	2291.31
570.43	2291.59
570.78	2291.40
571.14	2290.09
571.49	2289.37
571.84	2289.18
572.20	2288.13
572.55	2287.29
572.90	2285.60
573.26	2284.51
573.61	2282.86
573.96	2281.57
574.31	2278.88
574.67	2276.21
575.02	2272.82
575.37	2269.52
575.72	2266.05
576.08	2262.86
576.43	2259.55
576.78	2256.19
577.13	2253.00
577.49	2249.81
577.84	2246.68
578.19	2243.05
578.54	2239.83
578.90	2235.84
579.25	2230.58
579.60	2226.07
579.95	2221.50
580.30	2216.83
580.66	2211.76
581.01	2206.93
581.36	2202.23
581.71	2198.46
582.06	2194.48
582.42	2190.37
582.77	2185.46
583.12	2181.13
583.47	2176.93
583.82	2172.36
584.17	2167.38
584.53	2162.23
584.88	2157.02
585.23	2151.59
585.58	2146.22
585.93	2140.87
586.28	2136.06
586.63	2131.23
586.98	2126.26
587.34	2121.38
587.69	2116.64
588.04	2111.74
588.39	2106.50
588.74	2100.09
589.09	2093.96
589.44	2087.15
589.79	2081.04
590.14	2075.38
590.49	2068.91
590.84	2062.42
591.19	2056.50
591.54	2049.99
591.89	2042.97
592.25	2036.52
592.60	2029.35
592.95	2022.31
593.30	2015.22
593.65	2007.82
594.00	2000.78
594.35	1993.55
594.70	1985.60
595.05	1978.58
595.40	1971.38
595.75	1964.00
596.10	1958.13
596.45	1951.65
596.80	1945.71
597.15	1939.45
597.50	1932.79
597.85	1926.55
598.19	1920.22
598.54	1913.57
598.89	1907.05
599.24	1901.23
599.59	1894.93
599.94	1888.75
600.29	1882.42
600.64	1875.78
600.99	1868.57
601.34	1862.04
601.69	1855.11
602.04	1848.55
602.39	1841.33
602.74	1834.57
603.08	1827.99
603.43	1821.08
603.78	1813.80
604.13	1806.61
604.48	1799.31
604.83	1792.44
605.18	1785.57
605.53	1777.57
605.87	1769.28
606.22	1762.06
606.57	1753.92
606.92	1746.16
607.27	1739.11
607.62	1732.13
607.96	1725.02
608.31	1718.51
608.66	1711.00
609.01	1703.55
609.36	1696.02
609.70	1688.13
610.05	1680.22
610.40	1672.44
610.75	1664.27
611.10	1656.56
611.44	1648.09
611.79	1640.01
612.14	1631.40
612.49	1622.09
612.83	1613.69
613.18	1605.60
613.53	1597.43
613.88	1588.98
614.22	1580.66
614.57	1571.92
614.92	1563.71
615.27	1556.22
615.61	1548.00
615.96	1539.74
616.31	1532.05
616.65	1524.54
617.00	1516.88
617.35	1509.08
617.70	1500.77
618.04	1492.34
618.39	1484.00
618.74	1476.41
619.08	1468.06
619.43	1460.32
619.78	1453.46
620.12	1446.26
620.47	1438.68
620.82	1430.36
621.16	1422.83
621.51	1415.21
621.85	1407.54
622.20	1399.16
622.55	1390.58
622.89	1382.52
623.24	1374.83
623.59	1367.20
623.93	1359.60
624.28	1352.26
624.62	1344.68
624.97	1337.33
625.32	1330.20
625.66	1323.00
626.01	1315.68
626.35	1308.42
626.70	1300.60
627.04	1292.84
627.39	1284.94
627.73	1277.42
628.08	1270.58
628.43	1263.37
628.77	1255.92
629.12	1248.52
629.46	1241.38
629.81	1233.80
630.15	1226.41
630.50	1219.00
630.84	1210.89
631.19	1202.87
631.53	1195.23
631.88	1187.61
632.22	1179.93
632.57	1172.68
632.91	1165.11
633.26	1157.72
633.60	1150.06
633.95	1142.79
634.29	1135.56
634.64	1128.75
634.98	1121.43
635.32	1114.24
635.67	1107.54
636.01	1100.86
636.36	1093.97
636.70	1087.23
637.05	1080.70
637.39	1074.26
637.73	1067.79
638.08	1061.81
638.42	1055.83
638.77	1049.35
639.11	1042.84
639.45	1036.39
639.80	1029.71
640.14	1023.40
640.49	1016.81
640.83	1010.64
641.17	1004.48
641.52	998.31
641.86	991.77
642.20	985.80
642.55	979.30
642.89	972.86
643.23	966.16
643.58	960.37
643.92	954.24
644.26	948.29
644.61	942.22
644.95	936.15
645.29	929.64
645.64	922.93
645.98	916.60
646.32	910.47
646.66	904.54
647.01	898.68
647.35	892.96
647.69	887.05
648.04	881.32
648.38	875.53
648.72	869.51
649.06	863.59
649.41	857.71
649.75	851.91
650.09	845.89
650.43	840.20
650.78	833.92
651.12	827.95
651.46	821.97
651.80	816.33
652.14	810.90
652.49	805.53
652.83	800.32
653.17	794.73
653.51	789.20
653.85	783.72
654.20	778.10
654.54	772.03
654.88	766.33
655.22	760.52
655.56	754.72
655.90	749.13
656.25	743.83
656.59	738.57
656.93	733.39
657.27	728.27
657.61	722.74
657.95	717.60
658.29	712.45
658.64	707.23
658.98	701.77
659.32	696.19
659.66	690.98
660.00	685.68
660.34	680.64
660.68	675.63
661.02	670.52
661.36	665.86
661.70	661.38
662.05	656.99
662.39	652.69
662.73	648.22
663.07	643.74
663.41	639.32
663.75	634.74
664.09	630.18
664.43	625.78
664.77	621.75
665.11	617.52
665.45	613.37
665.79	609.28
666.13	605.17
666.47	601.11
666.81	596.90
667.15	592.81
667.49	588.80
667.83	584.86
668.17	580.93
668.51	576.79
668.85	572.72
669.19	568.80
669.53	564.87
669.87	561.03
670.21	557.33
670.55	553.64
670.89	550.22
671.23	546.74
671.57	543.14
671.91	539.59
672.25	536.07
672.58	532.56
672.92	529.13
673.26	525.89
673.60	522.64
673.94	519.53
674.28	516.48
674.62	513.56
674.96	510.52
675.30	507.64
675.64	504.71
675.97	501.87
676.31	499.01
676.65	496.03
676.99	493.25
677.33	490.33
677.67	487.46
678.01	484.39
678.34	481.44
678.68	478.56
679.02	475.67
679.36	472.88
679.70	470.07
680.04	467.30
680.37	464.47
680.71	461.68
681.05	459.00
681.39	456.29
681.73	453.52
682.06	450.98
682.40	448.38
682.74	445.80
683.08	443.16
683.42	440.48
683.75	437.96
684.09	435.37
684.43	432.95
684.77	430.51
685.10	428.13
685.44	425.75
685.78	423.41
686.12	421.12
686.45	418.76
686.79	416.50
687.13	414.28
687.46	412.10
687.80	409.91
688.14	407.65
688.48	405.59
688.81	403.43
689.15	401.26
689.49	399.04
689.82	396.99
690.16	394.90
690.50	392.94
690.83	391.03
691.17	389.03
691.51	387.06
691.84	385.17
692.18	383.25
692.52	381.32
692.85	379.38
693.19	377.50
693.52	375.65
693.86	373.76
694.20	371.94
694.53	370.05
694.87	368.19
695.21	366.43
695.54	364.58
695.88	362.77
696.21	361.03
696.55	359.34
696.88	357.68
697.22	355.98
697.56	354.29
697.89	352.65
698.23	351.10
698.56	349.53
698.90	347.94
699.23	346.28
699.57	344.72
699.90	343.16
700.24	341.59
700.58	340.10
700.91	338.65
701.25	337.18
701.58	335.83
701.92	334.51
702.25	333.13
702.59	331.76
702.92	330.47
703.26	329.13
703.59	327.87
703.93	326.63
704.26	325.42
704.60	324.22
704.93	322.92
705.26	321.63
705.60	320.36
705.93	319.18
706.27	318.12
706.60	317.03
706.94	315.92
707.27	314.75
707.61	313.61
707.94	312.55
708.27	311.48
708.61	310.37
708.94	309.27
709.28	308.26
709.61	307.27
709.94	306.27
710.28	305.28
710.61	304.26
710.95	303.13
711.28	302.19
711.61	301.19
711.95	300.24
712.28	299.29
712.61	298.37
712.95	297.42
713.28	296.51
713.61	295.56
713.95	294.65
714.28	293.83
714.61	292.96
714.95	292.09
715.28	291.23
715.61	290.37
715.95	289.55
716.28	288.66
716.61	287.84
716.95	287.02
717.28	286.20
717.61	285.42
717.94	284.68
718.28	283.83
718.61	283.08
718.94	282.36
719.27	281.67
719.61	280.97
719.94	280.28
720.27	279.55
720.60	278.91
720.94	278.31
721.27	277.67
721.60	277.12
721.93	276.53
722.27	275.93
722.60	275.36
722.93	274.76
723.26	274.25
723.59	273.66
723.93	273.10
724.26	272.52
724.59	271.97
724.92	271.40
725.25	270.90
725.59	270.37
725.92	269.87
726.25	269.31
726.58	268.81
726.91	268.30
727.24	267.81
727.57	267.31
727.91	266.73
728.24	266.30
728.57	265.74
728.90	265.27
729.23	264.76
729.56	264.31
729.89	263.82
730.22	263.30
730.55	262.82
730.89	262.37
731.22	261.94
731.55	261.51
731.88	261.13
732.21	260.71
732.54	260.29
732.87	259.84
733.20	259.46
733.53	259.07
733.86	258.71
734.19	258.31
734.52	257.92
734.85	257.64
735.18	257.23
735.51	256.92
735.84	256.54
736.17	256.21
736.50	255.81
736.83	255.55
737.16	255.22
737.49	254.89
737.82	254.53
738.15	254.24
738.48	253.87
738.81	253.51
739.14	253.18
739.47	252.86
739.80	252.57
740.13	252.25
740.46	251.92
740.79	251.61
741.12	251.33
741.45	251.02
741.78	250.66
742.11	250.35
742.44	250.03
742.77	249.76
743.10	249.47
743.43	249.21
743.75	248.85
744.08	248.71
744.41	248.46
744.74	248.21
745.07	247.93
745.40	247.71
745.73	247.52
746.06	247.22
746.39	246.96
746.71	246.71
747.04	246.47
747.37	246.20
747.70	245.95
748.03	245.71
748.36	245.51
748.68	245.25
749.01	245.03
749.34	244.80
749.67	244.57
750.00	244.34
750.33	244.16
750.65	243.96
750.98	243.60
751.31	243.35
751.64	243.15
751.97	242.98
752.29	242.75
752.62	242.46
752.95	242.25
753.28	242.04
753.60	241.84
753.93	241.63
754.26	241.46
754.59	241.22
754.91	240.99
755.24	240.76
755.57	240.57
755.90	240.37
756.22	240.17
756.55	239.95
756.88	239.74
757.20	239.46
757.53	239.27
757.86	239.06
758.19	238.93
758.51	238.71
758.84	238.46
759.17	238.28
759.49	238.13
759.82	238.04
760.15	237.85
760.47	237.65
760.80	237.47
761.13	237.30
761.45	237.16
761.78	237.01
762.11	236.85
762.43	236.69
762.76	236.53
763.08	236.37
763.41	236.23
763.74	236.09
764.06	235.96
764.39	235.81
764.71	235.69
765.04	235.52
765.37	235.40
765.69	235.29
766.02	235.18
766.34	235.03
766.67	234.87
767.00	234.77
767.32	234.71
767.65	234.64
767.97	234.53
768.30	234.38
768.62	234.23
768.95	234.11
769.27	234.01
769.60	233.92
769.92	233.82
770.25	233.70
770.57	233.58
770.90	233.49
771.22	233.37
771.55	233.24
771.87	233.14
772.20	233.03
772.52	233.00
772.85	233.02
773.17	232.92
773.50	232.82
773.82	232.74
774.15	232.59
774.47	232.49
774.80	232.38
775.12	232.35
775.45	232.29
775.77	232.23
776.09	232.15
776.42	232.09
776.74	232.03
777.07	231.97
777.39	231.89
777.72	231.82
778.04	231.76
778.36	231.72
778.69	231.70
779.01	231.65
779.33	231.52
779.66	231.32
779.98	231.27
780.31	231.21
780.63	231.21
780.95	231.20
781.28	231.14
781.60	231.10
781.92	231.02
782.25	230.98
782.57	230.93
782.89	230.91
783.22	230.84
783.54	230.77
783.86	230.74
784.19	230.69
784.51	230.70
784.83	230.67
785.16	230.64
785.48	230.57
785.80	230.50
786.12	230.47
786.45	230.46
786.77	230.44
787.09	230.39
787.42	230.30
787.74	230.24
788.06	230.18
788.38	230.15
788.71	230.11
789.03	230.09
789.35	230.03
789.67	229.94
789.99	229.94
790.32	229.86
790.64	229.81
790.96	229.87
791.28	229.76
791.61	229.68
791.93	229.62
792.25	229.58
792.57	229.64
792.89	229.59
793.21	229.53
793.54	229.47
793.86	229.41
794.18	229.35
794.50	229.31
794.82	229.27
795.14	229.21
795.47	229.18
795.79	229.08
796.11	229.03
796.43	228.97
796.75	228.93
797.07	228.91
797.39	228.86
797.71	228.74
798.04	228.74
798.36	228.71
798.68	228.67
799.00	228.65
799.32	228.56
799.64	228.54
799.96	228.49
800.28	228.46
800.60	228.41
800.92	228.39
801.24	228.34
801.56	228.29
801.89	228.26
802.21	228.23
802.53	228.19
802.85	228.16
803.17	228.19
803.49	228.13
803.81	228.08
804.13	228.02
804.45	227.99
804.77	227.92
805.09	227.83
805.41	227.79
805.73	227.74
806.05	227.66
806.37	227.60
806.69	227.58
807.01	227.54
807.33	227.52
807.65	227.47
807.97	227.47
808.28	227.44
808.60	227.42
808.92	227.36
809.24	227.42
809.56	227.39
809.88	227.33
810.20	227.29
810.52	227.28
810.84	227.26
811.16	227.23
811.48	227.22
811.80	227.27
812.12	227.23
812.43	227.23
812.75	227.23
813.07	227.18
813.39	227.13
813.71	227.11
814.03	227.09
814.35	227.05
814.67	227.02
814.98	226.99
815.30	226.93
815.62	226.92
815.94	226.81
816.26	226.85
816.58	226.80
816.89	226.79
817.21	226.79
817.53	226.80
817.85	226.77
818.17	226.73
818.48	226.69
818.80	226.74
819.12	226.71
819.44	226.68
819.76	226.68
820.07	226.64
820.39	226.60
820.71	226.62
821.03	226.61
821.34	226.56
821.66	226.57
821.98	226.60
822.30	226.57
822.61	226.66
822.93	226.64
823.25	226.66
823.57	226.66
823.88	226.63
824.20	226.61
824.52	226.65
824.83	226.68
825.15	226.67
825.47	226.65
825.79	226.61
826.10	226.63
826.42	226.64
826.74	226.67
827.05	226.68
827.37	226.66
827.69	226.65
828.00	226.68
828.32	226.69
828.64	226.68
828.95	226.75
829.27	226.70
829.58	226.65
829.90	226.66
830.22	226.66
830.53	226.65
830.85	226.65
831.17	226.59
831.48	226.55
831.80	226.55
832.11	226.51
832.43	226.54
832.75	226.50
833.06	226.54
833.38	226.54
833.69	226.55
834.01	226.56
834.32	226.56
834.64	226.53
834.96	226.50
835.27	226.44
835.59	226.37
835.90	226.32
836.22	226.32
836.53	226.30
836.85	226.27
837.16	226.37
837.48	226.35
837.79	226.37
838.11	226.36
838.42	226.34
838.74	226.35
839.05	226.31
839.37	226.33
839.68	226.26
840.00	226.23
840.31	226.22
840.63	226.19
840.94	226.13
841.26	226.08
841.57	226.10
841.88	226.11
842.20	226.07
842.51	226.05
842.83	226.04
843.14	226.11
843.46	226.10
843.77	226.01
844.08	225.96
844.40	225.91
844.71	225.91
845.03	225.89
845.34	225.85
845.65	225.81
845.97	225.75
846.28	225.71
846.60	225.69
846.91	225.66
847.22	225.64
847.54	225.69
847.85	225.68
848.16	225.64
848.48	225.62
848.79	225.66
849.10	225.64
849.42	225.62
849.73	225.51
850.04	225.50
850.36	225.46
850.67	225.50
850.98	225.51
851.30	225.50
851.61	225.48
851.92	225.48
852.23	225.54
852.55	225.53
852.86	225.54
853.17	225.56
853.49	225.59
853.80	225.60
854.11	225.60
854.42	225.63
854.74	225.61
855.05	225.61
855.36	225.57
855.67	225.61
855.99	225.62
856.30	225.67
856.61	225.65
856.92	225.66
857.23	225.68
857.55	225.66
857.86	225.67
858.17	225.69
858.48	225.68
858.79	225.67
859.11	225.69
859.42	225.67
859.73	225.64
860.04	225.60
860.35	225.61
860.66	225.59
860.98	225.58
861.29	225.63
861.60	225.66
861.91	225.68
862.22	225.64
862.53	225.64
862.84	225.57
863.16	225.60
863.47	225.56
863.78	225.55
864.09	225.55
864.40	225.57
864.71	225.57
865.02	225.57
865.33	225.56
865.64	225.58
865.95	225.62
866.27	225.70
866.58	225.73
866.89	225.74
867.20	225.72
867.51	225.74
867.82	225.73
868.13	225.73
868.44	225.72
868.75	225.79
869.06	225.79
869.37	225.81
869.68	225.80
869.99	225.86
870.30	225.84
870.61	225.87
870.92	225.88
871.23	225.90
871.54	225.93
871.85	225.93
872.16	225.95
872.47	225.92
872.78	225.87
873.09	225.87
873.40	225.84
873.71	225.84
874.02	225.85
874.33	225.81
874.64	225.81
874.95	225.82
875.26	225.75
875.56	225.68
875.87	225.70
876.18	225.70
876.49	225.77
876.80	225.78
877.11	225.75
877.42	225.77
877.73	225.73
878.04	225.70
878.35	225.70
878.66	225.69
878.96	225.71
879.27	225.70
879.58	225.66
879.89	225.65
880.20	225.66
880.51	225.62
880.82	225.62
881.12	225.60
881.43	225.59
881.74	225.59
882.05	225.65
882.36	225.63
882.67	225.59
882.97	225.49
883.28	225.48
883.59	225.46
883.90	225.43
884.21	225.46
884.51	225.44
884.82	225.43
885.13	225.37
885.44	225.36
885.74	225.32
886.05	225.32
886.36	225.31
886.67	225.28
886.98	225.32
887.28	225.34
887.59	225.33
887.90	225.32
888.20	225.29
888.51	225.27
888.82	225.27
889.13	225.26
889.43	225.36
889.74	225.34
890.05	225.32
890.35	225.26
890.66	225.22
890.97	225.20
891.28	225.20
891.58	225.20
891.89	225.18
892.20	225.16
892.50	225.15
892.81	225.14
893.12	225.15
893.42	225.13
893.73	225.11
894.04	225.08
894.34	225.09
894.65	225.11
894.95	225.12
895.26	225.07
895.57	225.14
895.87	224.98
896.18	225.02
896.48	225.04
896.79	225.09
897.10	225.11
897.40	225.14
897.71	225.13
898.01	225.14
898.32	225.16
898.63	225.17
898.93	225.20
899.24	225.18
899.54	225.14
899.85	225.12
900.15	225.12
900.46	225.18
900.76	225.19
901.07	225.20
901.38	225.20
901.68	225.23
901.99	225.20
902.29	225.26
902.60	225.25
902.90	225.24
903.21	225.22
903.51	225.24
903.82	225.25
904.12	225.25
904.43	225.28
904.73	225.30
905.03	225.31
905.34	225.42
905.64	225.43
905.95	225.45
906.25	225.48
906.56	225.47
906.86	225.45
907.17	225.44
907.47	225.46
907.77	225.42
908.08	225.42
908.38	225.41
908.69	225.42
908.99	225.45
909.30	225.46
909.60	225.43
909.90	225.42
910.21	225.38
910.51	225.38
910.81	225.37
911.12	225.36
911.42	225.38
911.73	225.28
912.03	225.27
912.33	225.32
912.64	225.29
912.94	225.25
913.24	225.24
913.55	225.24
913.85	225.22
914.15	225.25
914.46	225.22
914.76	225.21
915.06	225.17
915.37	225.13
915.67	225.10
915.97	225.14
916.27	225.11
916.58	225.12
916.88	225.09
917.18	225.09
917.49	225.15
917.79	225.12
918.09	225.12
918.39	225.14
918.70	225.08
919.00	225.04
919.30	225.13
919.60	225.12
919.91	225.09
920.21	225.06
920.51	225.03
920.81	225.00
921.12	225.01
921.42	225.00
921.72	224.99
922.02	225.02
922.32	225.00
922.63	225.02
922.93	225.06
923.23	225.05
923.53	225.02
923.83	224.97
924.13	224.97
924.44	224.96
924.74	224.95
925.04	225.00
925.34	225.04
925.64	224.95
925.94	224.94
926.24	224.99
926.55	224.99
926.85	225.00
927.15	225.01
927.45	225.02
927.75	225.02
928.05	225.01
928.35	224.97
928.65	224.99
928.95	225.00
929.26	224.95
929.56	224.97
929.86	225.00
930.16	224.97
930.46	224.98
930.76	225.01
931.06	224.97
931.36	224.92
931.66	224.89
931.96	224.91
932.26	224.93
932.56	224.90
932.86	224.92
933.16	224.93
933.46	224.92
933.76	224.90
934.06	224.94
934.36	225.00
934.66	225.02
934.96	225.01
935.26	225.00
935.56	225.04
935.86	225.01
936.16	224.99
936.46	225.01
936.76	225.03
937.06	225.02
937.36	225.08
937.66	225.09
937.96	225.09
938.26	225.14
938.56	225.13
938.86	225.12
939.16	225.15
939.46	225.17
939.76	225.19
940.06	225.23
940.35	225.23
940.65	225.16
940.95	225.18
941.25	225.16
941.55	225.16
941.85	225.15
942.15	225.20
942.45	225.23
942.75	225.22
943.04	225.19
943.34	225.19
943.64	225.15
943.94	225.15
944.24	225.18
944.54	225.15
944.84	225.13
945.13	225.12
945.43	225.09
945.73	225.09
946.03	225.07
946.33	225.04
946.62	225.02
946.92	225.04
947.22	225.05
947.52	225.04
947.82	225.08
948.11	225.05
948.41	225.03
948.71	224.98
949.01	224.97
949.31	224.97
949.60	224.95
949.90	224.98
950.20	224.98
950.50	224.95
950.79	224.94
951.09	224.96
951.39	224.98
951.69	224.97
951.98	224.97
952.28	225.00
952.58	224.97
952.87	224.97
953.17	224.97
953.47	224.96
953.76	224.96
954.06	224.89
954.36	224.87
954.66	224.83
954.95	224.84
955.25	224.83
955.55	224.82
955.84	224.80
956.14	224.79
956.44	224.79
956.73	224.78
957.03	224.77
957.32	224.77
957.62	224.75
957.92	224.77
958.21	224.78
958.51	224.85
958.81	224.87
959.10	224.87
959.40	224.85
959.69	224.85
959.99	224.86
960.29	224.89
960.58	224.91
960.88	224.98
961.17	224.98
961.47	224.98
961.76	225.00
962.06	225.05
962.36	225.04
962.65	225.03
962.95	225.02
963.24	225.03
963.54	225.05
963.83	225.09
964.13	225.05
964.42	225.02
964.72	224.97
965.01	224.98
965.31	224.98
965.60	224.98
965.90	225.02
966.19	224.99
966.49	225.00
966.78	224.99
967.08	224.97
967.37	224.99
967.67	224.99
967.96	225.00
968.26	224.99
968.55	224.99
968.85	225.04
969.14	225.04
969.43	225.04
969.73	225.06
970.02	225.03
970.32	225.03
970.61	225.01
970.91	224.96
971.20	224.93
971.49	224.96
971.79	224.96
972.08	224.91
972.38	224.93
972.67	224.94
972.96	224.95
973.26	224.95
973.55	225.00
973.85	225.00
974.14	225.03
974.43	225.05
974.73	225.05
975.02	225.03
975.31	225.05
975.61	225.08
975.90	225.05
976.19	225.06
976.49	225.10
976.78	225.12
977.07	225.13
977.37	225.17
977.66	225.17
977.95	225.18
978.24	225.21
978.54	225.24
978.83	225.24
979.12	225.22
979.42	225.21
979.71	225.17
980.00	225.17
980.29	225.15
980.59	225.12
980.88	225.17
981.17	225.13
981.46	225.14
981.76	225.11
982.05	225.13
982.34	225.14
982.63	225.13
982.93	225.13
983.22	225.14
983.51	225.18
983.80	225.20
984.09	225.21
984.39	225.18
984.68	225.19
984.97	225.16
985.26	225.17
985.55	225.19
985.85	225.20
986.14	225.22
986.43	225.22
986.72	225.19
987.01	225.16
987.30	225.15
987.59	225.14
987.89	225.13
988.18	225.11
988.47	225.06
988.76	225.04
989.05	225.03
989.34	225.02
989.63	225.01
989.92	224.99
990.22	224.97
990.51	224.93
990.80	224.91
991.09	224.93
991.38	224.94
991.67	224.90
991.96	224.87
992.25	224.84
992.54	224.84
992.83	224.83
993.12	224.81
993.41	224.85
993.70	224.91
993.99	224.95
994.28	224.93
994.58	224.99
994.87	224.96
995.16	224.95
995.45	224.94
995.74	224.87
996.03	224.87
996.32	224.89
996.61	224.94
996.90	224.95
997.19	224.94
997.48	224.96
997.77	224.97
998.06	224.98
998.34	224.97
998.63	224.99
998.92	224.99
999.21	225.01
999.50	225.00
999.79	224.96
1000.08	224.95
1000.37	224.95
1000.66	224.92
1000.95	224.96
1001.24	224.99
1001.53	225.03
1001.82	225.05
1002.11	225.01
1002.40	225.02
1002.68	225.04
1002.97	225.09
1003.26	225.09
1003.55	225.05
1003.84	225.06
1004.13	225.11
1004.42	225.14
1004.71	225.11
1004.99	225.11
1005.28	225.14
1005.57	225.15
1005.86	225.13
1006.15	225.12
1006.44	225.13
1006.72	225.13
1007.01	225.14
1007.30	225.15
1007.59	225.11
1007.88	225.15
1008.17	225.19
1008.45	225.16
1008.74	225.15
1009.03	225.11
1009.32	225.12
1009.60	225.15
1009.89	225.15
1010.18	225.09
1010.47	225.08
1010.76	225.12
1011.04	225.14
1011.33	225.15
1011.62	225.16
1011.91	225.18
1012.19	225.20
1012.48	225.20
1012.77	225.19
1013.05	225.24
1013.34	225.24
1013.63	225.24
1013.92	225.23
1014.20	225.21
1014.49	225.22
1014.78	225.21
1015.06	225.18
1015.35	225.18
1015.64	225.19
1015.92	225.19
1016.21	225.17
1016.50	225.14
1016.78	225.14
1017.07	225.11
1017.36	225.08
1017.64	225.06
1017.93	225.04
1018.22	225.02
1018.50	225.00
1018.79	225.00
1019.08	224.95
1019.36	224.94
1019.65	224.92
1019.93	224.95
1020.22	224.95
1020.51	225.00
1020.79	224.99
1021.08	224.55
1021.36	224.76
1021.65	224.79
1021.94	225.31
1022.22	224.91
1022.51	224.69
1022.79	225.38
1023.08	225.03
1023.36	226.47
1023.65	224.88
>>>>>End Processed Spectral Data<<<<<
