SpectraSuite Data File
++++++++++++++++++++++++++++++++++++
Date: Fri Feb 01 15:37:52 EST 2013
User: group
Dark Spectrum Present: No
Reference Spectrum Present: No
Number of Sampled Component Spectra: 1
Spectrometers: USB2E7196
Integration Time (usec): 35000 (USB2E7196)
Spectra Averaged: 100 (USB2E7196)
Boxcar Smoothing: 10 (USB2E7196)
Correct for Electrical Dark: No (USB2E7196)
Strobe/Lamp Enabled: No (USB2E7196)
Correct for Detector Non-linearity: No (USB2E7196)
Correct for Stray Light: No (USB2E7196)
Number of Pixels in Processed Spectrum: 2048
>>>>>Begin Processed Spectral Data<<<<<
339.09	0.00
339.48	214.78
339.86	216.70
340.24	217.73
340.63	218.78
341.01	222.16
341.39	221.98
341.78	222.84
342.16	224.30
342.54	224.87
342.93	213.31
343.31	224.12
343.69	224.65
344.07	225.09
344.46	225.52
344.84	225.90
345.22	226.12
345.60	226.34
345.99	226.54
346.37	226.64
346.75	226.74
347.13	226.75
347.52	226.78
347.90	226.86
348.28	226.87
348.66	226.87
349.05	226.87
349.43	226.89
349.81	226.94
350.19	226.97
350.57	227.01
350.96	227.07
351.34	227.14
351.72	227.24
352.10	227.33
352.48	227.38
352.87	227.46
353.25	227.54
353.63	227.61
354.01	227.68
354.39	227.79
354.77	227.86
355.15	227.96
355.54	228.03
355.92	228.09
356.30	228.13
356.68	228.24
357.06	228.32
357.44	228.42
357.82	228.47
358.20	228.55
358.58	228.57
358.97	228.63
359.35	228.67
359.73	228.73
360.11	228.80
360.49	228.87
360.87	228.94
361.25	228.97
361.63	229.06
362.01	229.11
362.39	229.13
362.77	229.16
363.15	229.17
363.53	229.19
363.91	229.19
364.29	229.26
364.67	229.23
365.05	229.22
365.43	229.23
365.81	229.22
366.19	229.26
366.57	229.32
366.95	229.33
367.33	229.30
367.71	229.30
368.09	229.31
368.47	229.28
368.85	229.23
369.23	229.22
369.61	229.16
369.99	229.13
370.37	229.09
370.75	229.09
371.13	229.05
371.51	229.02
371.89	229.00
372.27	228.93
372.65	228.89
373.03	228.85
373.41	228.74
373.78	228.70
374.16	228.61
374.54	228.51
374.92	228.44
375.30	228.37
375.68	228.26
376.06	228.17
376.44	228.10
376.82	228.02
377.19	227.95
377.57	227.85
377.95	227.77
378.33	227.71
378.71	227.58
379.09	227.54
379.47	227.49
379.84	227.44
380.22	227.37
380.60	227.28
380.98	227.22
381.36	227.17
381.73	227.10
382.11	227.05
382.49	226.98
382.87	226.92
383.25	226.84
383.62	226.90
384.00	226.83
384.38	226.78
384.76	226.78
385.13	226.76
385.51	226.71
385.89	226.64
386.27	226.58
386.64	226.59
387.02	226.53
387.40	226.46
387.78	226.42
388.15	226.37
388.53	226.33
388.91	226.28
389.29	226.28
389.66	226.28
390.04	226.21
390.42	226.22
390.79	226.20
391.17	226.20
391.55	226.11
391.92	226.11
392.30	226.13
392.68	226.11
393.05	226.11
393.43	226.14
393.81	226.19
394.18	226.20
394.56	226.22
394.94	226.26
395.31	226.29
395.69	226.36
396.06	226.44
396.44	226.49
396.82	226.56
397.19	226.64
397.57	226.69
397.95	226.77
398.32	226.80
398.70	226.87
399.07	226.99
399.45	227.04
399.82	227.12
400.20	227.15
400.58	227.24
400.95	227.28
401.33	227.39
401.70	227.53
402.08	227.65
402.45	227.75
402.83	227.88
403.20	228.00
403.58	228.10
403.95	228.23
404.33	228.35
404.71	228.49
405.08	228.70
405.46	228.81
405.83	228.98
406.21	229.14
406.58	229.30
406.96	229.47
407.33	229.68
407.70	229.90
408.08	230.22
408.45	230.42
408.83	230.69
409.20	230.91
409.58	231.09
409.95	231.34
410.33	231.59
410.70	231.83
411.08	232.10
411.45	232.42
411.82	232.74
412.20	233.08
412.57	233.51
412.95	233.79
413.32	234.21
413.69	234.62
414.07	235.07
414.44	235.53
414.82	235.97
415.19	236.52
415.56	237.03
415.94	237.55
416.31	238.17
416.68	238.76
417.06	239.49
417.43	240.20
417.81	240.97
418.18	241.72
418.55	242.56
418.93	243.43
419.30	244.31
419.67	245.25
420.04	246.23
420.42	247.17
420.79	248.34
421.16	249.50
421.54	250.66
421.91	251.85
422.28	253.11
422.66	254.45
423.03	255.75
423.40	257.06
423.77	258.46
424.15	259.85
424.52	261.35
424.89	262.94
425.26	264.49
425.64	265.93
426.01	267.54
426.38	269.19
426.75	270.85
427.13	272.54
427.50	274.27
427.87	276.13
428.24	278.01
428.61	279.72
428.99	281.61
429.36	283.72
429.73	285.81
430.10	287.83
430.47	289.90
430.85	291.99
431.22	294.23
431.59	296.61
431.96	298.90
432.33	301.39
432.70	303.74
433.08	306.51
433.45	309.17
433.82	311.75
434.19	314.58
434.56	317.49
434.93	320.15
435.30	322.80
435.68	325.72
436.05	328.52
436.42	331.34
436.79	333.90
437.16	336.62
437.53	339.43
437.90	342.24
438.27	344.94
438.64	347.84
439.01	350.46
439.38	352.71
439.75	354.88
440.13	357.39
440.50	359.74
440.87	361.65
441.24	363.58
441.61	365.77
441.98	367.36
442.35	369.09
442.72	370.97
443.09	372.81
443.46	373.82
443.83	374.45
444.20	374.99
444.57	375.85
444.94	376.14
445.31	376.49
445.68	376.86
446.05	376.99
446.42	376.62
446.79	376.18
447.16	375.70
447.53	375.40
447.90	374.27
448.27	373.16
448.64	371.57
449.01	370.46
449.37	368.51
449.74	366.59
450.11	364.37
450.48	361.92
450.85	359.36
451.22	357.19
451.59	355.14
451.96	353.21
452.33	350.59
452.70	348.26
453.07	345.45
453.43	342.55
453.80	339.79
454.17	337.06
454.54	334.51
454.91	331.82
455.28	329.13
455.65	326.63
456.02	324.13
456.38	321.95
456.75	319.28
457.12	317.02
457.49	314.78
457.86	312.58
458.23	310.72
458.59	308.67
458.96	306.61
459.33	304.77
459.70	302.86
460.07	301.34
460.43	299.59
460.80	297.93
461.17	296.49
461.54	294.96
461.91	293.53
462.27	292.10
462.64	290.87
463.01	289.51
463.38	288.17
463.74	286.81
464.11	285.65
464.48	284.61
464.85	283.49
465.21	282.60
465.58	281.65
465.95	280.54
466.32	279.62
466.68	278.69
467.05	277.75
467.42	276.88
467.78	275.92
468.15	275.03
468.52	274.35
468.88	273.47
469.25	272.66
469.62	272.03
469.98	271.34
470.35	270.69
470.72	270.05
471.08	269.37
471.45	268.78
471.82	268.24
472.18	267.65
472.55	267.20
472.92	266.69
473.28	266.24
473.65	265.76
474.02	265.30
474.38	264.88
474.75	264.53
475.11	264.16
475.48	263.91
475.85	263.68
476.21	263.48
476.58	263.30
476.94	263.17
477.31	262.98
477.67	262.81
478.04	262.65
478.41	262.58
478.77	262.65
479.14	262.58
479.50	262.55
479.87	262.59
480.23	262.64
480.60	262.69
480.96	262.76
481.33	262.98
481.69	263.17
482.06	263.39
482.42	263.61
482.79	263.86
483.15	264.15
483.52	264.51
483.88	264.84
484.25	265.21
484.61	265.64
484.98	266.12
485.34	266.69
485.71	267.32
486.07	267.96
486.44	268.53
486.80	269.27
487.17	270.02
487.53	270.84
487.90	271.73
488.26	272.63
488.62	273.68
488.99	274.64
489.35	275.69
489.72	276.86
490.08	278.09
490.44	279.37
490.81	280.74
491.17	282.13
491.54	283.63
491.90	285.20
492.26	286.83
492.63	288.54
492.99	290.33
493.36	292.24
493.72	294.25
494.08	296.34
494.45	298.58
494.81	300.95
495.17	303.45
495.54	306.01
495.90	308.77
496.26	311.55
496.63	314.51
496.99	317.64
497.35	320.91
497.72	324.33
498.08	327.86
498.44	331.51
498.80	335.43
499.17	339.53
499.53	343.70
499.89	348.10
500.26	352.65
500.62	357.36
500.98	362.29
501.34	367.42
501.71	372.78
502.07	378.23
502.43	383.83
502.79	389.64
503.16	395.69
503.52	401.96
503.88	408.37
504.24	414.98
504.60	421.89
504.97	429.02
505.33	436.31
505.69	444.03
506.05	451.85
506.41	459.69
506.78	467.85
507.14	476.27
507.50	485.01
507.86	494.02
508.22	503.19
508.59	512.39
508.95	521.98
509.31	531.78
509.67	541.91
510.03	552.20
510.39	562.66
510.75	573.47
511.12	584.42
511.48	595.68
511.84	607.18
512.20	618.74
512.56	630.68
512.92	642.86
513.28	655.15
513.64	667.67
514.00	680.40
514.37	693.27
514.73	706.42
515.09	719.50
515.45	732.79
515.81	746.39
516.17	760.38
516.53	774.48
516.89	788.61
517.25	802.73
517.61	817.11
517.97	831.69
518.33	846.12
518.69	860.83
519.05	875.83
519.41	890.99
519.77	906.48
520.13	921.96
520.49	937.39
520.85	952.79
521.21	968.51
521.57	984.78
521.93	1000.69
522.29	1017.05
522.65	1033.20
523.01	1049.41
523.37	1065.45
523.73	1081.65
524.09	1097.72
524.45	1114.13
524.81	1130.86
525.17	1147.74
525.53	1164.66
525.89	1181.58
526.25	1198.44
526.61	1214.81
526.97	1231.59
527.33	1248.09
527.68	1264.62
528.04	1281.13
528.40	1297.85
528.76	1314.87
529.12	1331.36
529.48	1348.19
529.84	1364.15
530.20	1380.82
530.56	1397.92
530.91	1415.45
531.27	1432.26
531.63	1448.84
531.99	1465.50
532.35	1481.44
532.71	1497.39
533.07	1513.62
533.42	1529.46
533.78	1545.61
534.14	1562.02
534.50	1577.42
534.86	1593.29
535.21	1608.49
535.57	1624.41
535.93	1639.83
536.29	1654.60
536.65	1669.80
537.00	1684.54
537.36	1699.87
537.72	1714.45
538.08	1728.81
538.44	1742.43
538.79	1756.21
539.15	1769.89
539.51	1783.44
539.87	1797.70
540.22	1811.50
540.58	1825.25
540.94	1838.82
541.29	1851.65
541.65	1864.33
542.01	1877.58
542.37	1889.92
542.72	1902.40
543.08	1914.14
543.44	1926.56
543.79	1937.94
544.15	1949.01
544.51	1960.61
544.87	1971.73
545.22	1982.65
545.58	1992.87
545.94	2002.72
546.29	2012.65
546.65	2022.34
547.01	2031.78
547.36	2040.61
547.72	2049.10
548.07	2056.97
548.43	2064.99
548.79	2073.19
549.14	2080.66
549.50	2087.98
549.86	2095.62
550.21	2102.95
550.57	2110.26
550.92	2116.99
551.28	2123.94
551.64	2130.84
551.99	2137.31
552.35	2143.42
552.70	2149.47
553.06	2155.40
553.41	2161.75
553.77	2167.86
554.13	2174.02
554.48	2180.20
554.84	2185.56
555.19	2190.67
555.55	2195.92
555.90	2200.44
556.26	2205.16
556.61	2209.96
556.97	2214.20
557.32	2218.38
557.68	2222.39
558.03	2226.65
558.39	2230.37
558.74	2235.03
559.10	2239.01
559.45	2242.74
559.81	2247.02
560.16	2250.79
560.52	2254.00
560.87	2257.43
561.23	2260.16
561.58	2263.21
561.94	2265.63
562.29	2268.18
562.64	2271.01
563.00	2273.41
563.35	2277.02
563.71	2280.16
564.06	2283.27
564.42	2286.11
564.77	2288.65
565.12	2291.02
565.48	2292.86
565.83	2294.56
566.19	2295.82
566.54	2296.74
566.89	2297.95
567.25	2298.44
567.60	2299.84
567.96	2301.52
568.31	2302.30
568.66	2303.26
569.02	2303.89
569.37	2304.19
569.72	2304.92
570.08	2304.94
570.43	2304.97
570.78	2304.17
571.14	2302.65
571.49	2301.29
571.84	2300.84
572.20	2299.61
572.55	2298.63
572.90	2297.10
573.26	2295.67
573.61	2293.88
573.96	2292.14
574.31	2288.93
574.67	2285.94
575.02	2282.37
575.37	2279.03
575.72	2275.26
576.08	2271.86
576.43	2268.51
576.78	2264.82
577.13	2261.76
577.49	2258.64
577.84	2255.22
578.19	2251.51
578.54	2247.85
578.90	2243.66
579.25	2238.21
579.60	2233.20
579.95	2228.06
580.30	2222.98
580.66	2217.73
581.01	2212.92
581.36	2207.75
581.71	2203.59
582.06	2199.12
582.42	2194.56
582.77	2189.26
583.12	2184.66
583.47	2179.89
583.82	2174.61
584.17	2169.21
584.53	2163.63
584.88	2157.94
585.23	2152.00
585.58	2146.51
585.93	2140.87
586.28	2136.00
586.63	2130.91
586.98	2125.92
587.34	2121.24
587.69	2116.28
588.04	2111.03
588.39	2105.20
588.74	2098.79
589.09	2092.60
589.44	2085.76
589.79	2079.70
590.14	2074.10
590.49	2067.48
590.84	2061.13
591.19	2055.21
591.54	2048.89
591.89	2041.32
592.25	2034.49
592.60	2027.39
592.95	2019.74
593.30	2012.39
593.65	2004.78
594.00	1997.69
594.35	1990.35
594.70	1982.23
595.05	1974.96
595.40	1967.57
595.75	1960.11
596.10	1953.83
596.45	1946.97
596.80	1940.77
597.15	1934.02
597.50	1926.87
597.85	1920.45
598.19	1913.76
598.54	1906.66
598.89	1899.90
599.24	1894.11
599.59	1887.40
599.94	1881.17
600.29	1874.68
600.64	1868.18
600.99	1860.72
601.34	1853.81
601.69	1846.90
602.04	1839.92
602.39	1832.53
602.74	1825.87
603.08	1819.07
603.43	1812.40
603.78	1805.18
604.13	1797.92
604.48	1790.64
604.83	1783.77
605.18	1776.65
605.53	1768.59
605.87	1760.49
606.22	1753.32
606.57	1745.32
606.92	1737.96
607.27	1730.63
607.62	1723.82
607.96	1716.54
608.31	1709.89
608.66	1702.20
609.01	1694.47
609.36	1686.91
609.70	1679.01
610.05	1670.74
610.40	1662.93
610.75	1654.47
611.10	1646.79
611.44	1638.39
611.79	1630.34
612.14	1621.52
612.49	1612.39
612.83	1604.03
613.18	1595.91
613.53	1587.78
613.88	1579.19
614.22	1570.88
614.57	1562.36
614.92	1554.33
615.27	1546.62
615.61	1538.27
615.96	1530.29
616.31	1522.72
616.65	1515.42
617.00	1507.70
617.35	1500.25
617.70	1491.99
618.04	1483.54
618.39	1475.36
618.74	1467.79
619.08	1459.55
619.43	1452.04
619.78	1445.12
620.12	1437.92
620.47	1430.42
620.82	1422.23
621.16	1414.86
621.51	1407.38
621.85	1399.76
622.20	1391.18
622.55	1382.93
622.89	1375.06
623.24	1367.35
623.59	1359.99
623.93	1352.46
624.28	1345.28
624.62	1337.56
624.97	1330.39
625.32	1323.68
625.66	1316.64
626.01	1309.45
626.35	1301.97
626.70	1294.38
627.04	1286.62
627.39	1278.92
627.73	1271.46
628.08	1264.48
628.43	1257.13
628.77	1249.66
629.12	1242.10
629.46	1234.99
629.81	1227.50
630.15	1220.44
630.50	1213.18
630.84	1204.92
631.19	1196.97
631.53	1189.56
631.88	1182.01
632.22	1174.40
632.57	1167.02
632.91	1159.35
633.26	1151.95
633.60	1144.61
633.95	1137.39
634.29	1130.41
634.64	1123.74
634.98	1116.30
635.32	1109.19
635.67	1102.67
636.01	1096.04
636.36	1089.29
636.70	1082.75
637.05	1076.30
637.39	1069.81
637.73	1063.24
638.08	1057.37
638.42	1051.46
638.77	1044.94
639.11	1038.35
639.45	1031.93
639.80	1025.21
640.14	1018.88
640.49	1012.36
640.83	1006.02
641.17	999.80
641.52	993.47
641.86	986.99
642.20	981.21
642.55	974.93
642.89	968.44
643.23	961.95
643.58	956.18
643.92	950.05
644.26	943.87
644.61	937.79
644.95	931.85
645.29	925.25
645.64	918.39
645.98	912.06
646.32	906.25
646.66	900.27
647.01	894.57
647.35	888.90
647.69	883.02
648.04	877.54
648.38	871.69
648.72	865.68
649.06	859.62
649.41	853.74
649.75	847.76
650.09	841.71
650.43	835.88
650.78	829.57
651.12	823.52
651.46	817.81
651.80	812.04
652.14	806.55
652.49	801.17
652.83	796.07
653.17	790.41
653.51	784.71
653.85	779.35
654.20	773.72
654.54	767.73
654.88	762.03
655.22	756.10
655.56	750.42
655.90	744.96
656.25	739.67
656.59	734.33
656.93	729.25
657.27	724.17
657.61	718.78
657.95	713.80
658.29	708.76
658.64	703.56
658.98	698.30
659.32	692.90
659.66	687.79
660.00	682.44
660.34	677.54
660.68	672.66
661.02	667.57
661.36	662.85
661.70	658.41
662.05	654.03
662.39	649.71
662.73	645.31
663.07	640.95
663.41	636.51
663.75	632.07
664.09	627.55
664.43	623.17
664.77	619.06
665.11	614.83
665.45	610.75
665.79	606.64
666.13	602.48
666.47	598.42
666.81	594.22
667.15	590.16
667.49	586.22
667.83	582.38
668.17	578.52
668.51	574.50
668.85	570.41
669.19	566.57
669.53	562.74
669.87	558.82
670.21	555.10
670.55	551.51
670.89	548.10
671.23	544.66
671.57	541.11
671.91	537.61
672.25	534.08
672.58	530.55
672.92	527.18
673.26	524.07
673.60	520.91
673.94	517.84
674.28	514.92
674.62	511.99
674.96	508.93
675.30	505.95
675.64	502.98
675.97	500.27
676.31	497.45
676.65	494.51
676.99	491.83
677.33	488.99
677.67	486.17
678.01	483.05
678.34	480.06
678.68	477.23
679.02	474.38
679.36	471.65
679.70	468.92
680.04	466.12
680.37	463.20
680.71	460.37
681.05	457.77
681.39	455.00
681.73	452.35
682.06	449.83
682.40	447.27
682.74	444.78
683.08	442.21
683.42	439.59
683.75	437.09
684.09	434.59
684.43	432.12
684.77	429.63
685.10	427.33
685.44	425.01
685.78	422.73
686.12	420.51
686.45	418.21
686.79	415.90
687.13	413.72
687.46	411.59
687.80	409.46
688.14	407.15
688.48	405.15
688.81	402.86
689.15	400.73
689.49	398.59
689.82	396.48
690.16	394.37
690.50	392.41
690.83	390.49
691.17	388.50
691.51	386.61
691.84	384.78
692.18	382.85
692.52	380.84
692.85	378.92
693.19	377.04
693.52	375.23
693.86	373.47
694.20	371.70
694.53	369.93
694.87	368.10
695.21	366.39
695.54	364.54
695.88	362.88
696.21	361.13
696.55	359.47
696.88	357.78
697.22	356.16
697.56	354.51
697.89	352.84
698.23	351.20
698.56	349.59
698.90	347.96
699.23	346.30
699.57	344.79
699.90	343.20
700.24	341.67
700.58	340.13
700.91	338.61
701.25	337.18
701.58	335.78
701.92	334.43
702.25	333.04
702.59	331.71
702.92	330.37
703.26	329.09
703.59	327.83
703.93	326.66
704.26	325.43
704.60	324.19
704.93	322.93
705.26	321.68
705.60	320.50
705.93	319.41
706.27	318.38
706.60	317.34
706.94	316.27
707.27	315.14
707.61	314.08
707.94	313.08
708.27	312.00
708.61	310.95
708.94	309.91
709.28	308.95
709.61	307.96
709.94	306.98
710.28	305.97
710.61	305.02
710.95	303.97
711.28	303.03
711.61	302.07
711.95	301.15
712.28	300.23
712.61	299.27
712.95	298.29
713.28	297.43
713.61	296.53
713.95	295.66
714.28	294.82
714.61	293.97
714.95	293.13
715.28	292.22
715.61	291.32
715.95	290.47
716.28	289.60
716.61	288.78
716.95	288.00
717.28	287.25
717.61	286.43
717.94	285.67
718.28	284.89
718.61	284.16
718.94	283.45
719.27	282.78
719.61	282.13
719.94	281.50
720.27	280.78
720.60	280.09
720.94	279.46
721.27	278.86
721.60	278.27
721.93	277.65
722.27	277.18
722.60	276.66
722.93	276.07
723.26	275.54
723.59	274.95
723.93	274.39
724.26	273.83
724.59	273.28
724.92	272.74
725.25	272.23
725.59	271.70
725.92	271.20
726.25	270.65
726.58	270.15
726.91	269.68
727.24	269.20
727.57	268.75
727.91	268.24
728.24	267.76
728.57	267.24
728.90	266.75
729.23	266.23
729.56	265.75
729.89	265.30
730.22	264.82
730.55	264.34
730.89	263.84
731.22	263.38
731.55	262.94
731.88	262.55
732.21	262.14
732.54	261.69
732.87	261.28
733.20	260.92
733.53	260.56
733.86	260.16
734.19	259.74
734.52	259.34
734.85	259.02
735.18	258.59
735.51	258.27
735.84	257.95
736.17	257.57
736.50	257.20
736.83	256.96
737.16	256.64
737.49	256.34
737.82	256.04
738.15	255.71
738.48	255.38
738.81	255.03
739.14	254.69
739.47	254.41
739.80	254.08
740.13	253.77
740.46	253.41
740.79	253.07
741.12	252.80
741.45	252.49
741.78	252.14
742.11	251.86
742.44	251.50
742.77	251.18
743.10	250.85
743.43	250.55
743.75	250.17
744.08	250.01
744.41	249.72
744.74	249.45
745.07	249.20
745.40	248.97
745.73	248.74
746.06	248.46
746.39	248.21
746.71	247.95
747.04	247.67
747.37	247.43
747.70	247.18
748.03	246.90
748.36	246.70
748.68	246.47
749.01	246.23
749.34	246.03
749.67	245.81
750.00	245.67
750.33	245.53
750.65	245.33
750.98	245.04
751.31	244.80
751.64	244.58
751.97	244.39
752.29	244.14
752.62	243.93
752.95	243.73
753.28	243.49
753.60	243.30
753.93	243.14
754.26	242.95
754.59	242.75
754.91	242.55
755.24	242.34
755.57	242.16
755.90	241.98
756.22	241.79
756.55	241.56
756.88	241.33
757.20	241.09
757.53	240.89
757.86	240.71
758.19	240.57
758.51	240.40
758.84	240.21
759.17	240.07
759.49	239.89
759.82	239.80
760.15	239.65
760.47	239.52
760.80	239.35
761.13	239.20
761.45	239.04
761.78	238.93
762.11	238.77
762.43	238.63
762.76	238.51
763.08	238.40
763.41	238.28
763.74	238.16
764.06	238.01
764.39	237.86
764.71	237.65
765.04	237.51
765.37	237.38
765.69	237.25
766.02	237.09
766.34	236.96
766.67	236.77
767.00	236.68
767.32	236.62
767.65	236.54
767.97	236.44
768.30	236.33
768.62	236.21
768.95	236.09
769.27	235.99
769.60	235.83
769.92	235.70
770.25	235.61
770.57	235.51
770.90	235.40
771.22	235.28
771.55	235.21
771.87	235.09
772.20	234.97
772.52	234.95
772.85	234.99
773.17	234.89
773.50	234.79
773.82	234.67
774.15	234.50
774.47	234.39
774.80	234.28
775.12	234.18
775.45	234.06
775.77	233.99
776.09	233.90
776.42	233.84
776.74	233.79
777.07	233.68
777.39	233.60
777.72	233.52
778.04	233.48
778.36	233.43
778.69	233.38
779.01	233.35
779.33	233.19
779.66	232.98
779.98	232.93
780.31	232.87
780.63	232.88
780.95	232.80
781.28	232.71
781.60	232.63
781.92	232.54
782.25	232.50
782.57	232.44
782.89	232.37
783.22	232.30
783.54	232.21
783.86	232.19
784.19	232.10
784.51	232.09
784.83	232.03
785.16	231.96
785.48	231.91
785.80	231.84
786.12	231.84
786.45	231.81
786.77	231.79
787.09	231.73
787.42	231.62
787.74	231.60
788.06	231.57
788.38	231.55
788.71	231.54
789.03	231.49
789.35	231.48
789.67	231.43
789.99	231.41
790.32	231.39
790.64	231.34
790.96	231.38
791.28	231.27
791.61	231.21
791.93	231.18
792.25	231.11
792.57	231.15
792.89	231.06
793.21	231.06
793.54	230.97
793.86	230.95
794.18	230.94
794.50	230.88
794.82	230.82
795.14	230.82
795.47	230.79
795.79	230.76
796.11	230.70
796.43	230.68
796.75	230.62
797.07	230.59
797.39	230.55
797.71	230.46
798.04	230.45
798.36	230.45
798.68	230.43
799.00	230.41
799.32	230.30
799.64	230.28
799.96	230.19
800.28	230.19
800.60	230.14
800.92	230.10
801.24	230.07
801.56	230.06
801.89	230.00
802.21	229.98
802.53	229.96
802.85	229.96
803.17	229.97
803.49	229.92
803.81	229.87
804.13	229.82
804.45	229.78
804.77	229.76
805.09	229.71
805.41	229.64
805.73	229.60
806.05	229.57
806.37	229.54
806.69	229.54
807.01	229.51
807.33	229.47
807.65	229.43
807.97	229.44
808.28	229.40
808.60	229.36
808.92	229.31
809.24	229.35
809.56	229.30
809.88	229.23
810.20	229.24
810.52	229.22
810.84	229.19
811.16	229.14
811.48	229.08
811.80	229.09
812.12	229.06
812.43	229.08
812.75	229.04
813.07	229.00
813.39	228.99
813.71	228.91
814.03	228.89
814.35	228.88
814.67	228.84
814.98	228.79
815.30	228.77
815.62	228.74
815.94	228.62
816.26	228.62
816.58	228.57
816.89	228.54
817.21	228.48
817.53	228.48
817.85	228.47
818.17	228.49
818.48	228.45
818.80	228.46
819.12	228.43
819.44	228.42
819.76	228.38
820.07	228.36
820.39	228.39
820.71	228.38
821.03	228.33
821.34	228.29
821.66	228.27
821.98	228.28
822.30	228.27
822.61	228.31
822.93	228.26
823.25	228.28
823.57	228.26
823.88	228.30
824.20	228.28
824.52	228.29
824.83	228.26
825.15	228.23
825.47	228.21
825.79	228.18
826.10	228.19
826.42	228.16
826.74	228.15
827.05	228.13
827.37	228.16
827.69	228.15
828.00	228.12
828.32	228.14
828.64	228.11
828.95	228.14
829.27	228.10
829.58	228.07
829.90	228.06
830.22	228.08
830.53	228.03
830.85	228.04
831.17	228.01
831.48	228.00
831.80	228.02
832.11	228.03
832.43	228.03
832.75	228.00
833.06	228.07
833.38	228.04
833.69	228.02
834.01	227.98
834.32	227.97
834.64	227.99
834.96	227.97
835.27	227.97
835.59	227.95
835.90	227.97
836.22	227.98
836.53	227.96
836.85	227.92
837.16	228.04
837.48	228.01
837.79	228.03
838.11	228.06
838.42	228.04
838.74	228.03
839.05	228.05
839.37	228.04
839.68	227.96
840.00	227.95
840.31	228.01
840.63	228.00
840.94	228.01
841.26	227.98
841.57	228.01
841.88	228.00
842.20	227.99
842.51	227.96
842.83	227.96
843.14	228.04
843.46	228.04
843.77	227.97
844.08	227.97
844.40	227.92
844.71	227.88
845.03	227.88
845.34	227.87
845.65	227.85
845.97	227.86
846.28	227.89
846.60	227.92
846.91	227.86
847.22	227.87
847.54	227.88
847.85	227.89
848.16	227.87
848.48	227.83
848.79	227.85
849.10	227.84
849.42	227.84
849.73	227.73
850.04	227.74
850.36	227.70
850.67	227.74
850.98	227.75
851.30	227.75
851.61	227.73
851.92	227.72
852.23	227.70
852.55	227.70
852.86	227.67
853.17	227.65
853.49	227.64
853.80	227.62
854.11	227.60
854.42	227.57
854.74	227.55
855.05	227.58
855.36	227.48
855.67	227.48
855.99	227.48
856.30	227.60
856.61	227.58
856.92	227.55
857.23	227.51
857.55	227.48
857.86	227.47
858.17	227.42
858.48	227.42
858.79	227.40
859.11	227.41
859.42	227.43
859.73	227.41
860.04	227.42
860.35	227.40
860.66	227.41
860.98	227.42
861.29	227.43
861.60	227.40
861.91	227.44
862.22	227.45
862.53	227.40
862.84	227.29
863.16	227.33
863.47	227.34
863.78	227.34
864.09	227.35
864.40	227.36
864.71	227.43
865.02	227.43
865.33	227.43
865.64	227.41
865.95	227.38
866.27	227.44
866.58	227.41
866.89	227.41
867.20	227.40
867.51	227.37
867.82	227.38
868.13	227.43
868.44	227.42
868.75	227.45
869.06	227.47
869.37	227.48
869.68	227.45
869.99	227.48
870.30	227.49
870.61	227.52
870.92	227.48
871.23	227.45
871.54	227.43
871.85	227.46
872.16	227.49
872.47	227.50
872.78	227.43
873.09	227.46
873.40	227.46
873.71	227.44
874.02	227.48
874.33	227.47
874.64	227.45
874.95	227.46
875.26	227.42
875.56	227.40
875.87	227.37
876.18	227.39
876.49	227.48
876.80	227.46
877.11	227.42
877.42	227.44
877.73	227.42
878.04	227.44
878.35	227.41
878.66	227.41
878.96	227.41
879.27	227.41
879.58	227.40
879.89	227.40
880.20	227.43
880.51	227.37
880.82	227.38
881.12	227.39
881.43	227.36
881.74	227.37
882.05	227.36
882.36	227.38
882.67	227.36
882.97	227.23
883.28	227.24
883.59	227.27
883.90	227.29
884.21	227.29
884.51	227.28
884.82	227.27
885.13	227.28
885.44	227.26
885.74	227.24
886.05	227.25
886.36	227.23
886.67	227.20
886.98	227.28
887.28	227.28
887.59	227.27
887.90	227.27
888.20	227.24
888.51	227.25
888.82	227.18
889.13	227.20
889.43	227.30
889.74	227.28
890.05	227.27
890.35	227.24
890.66	227.22
890.97	227.21
891.28	227.20
891.58	227.16
891.89	227.16
892.20	227.16
892.50	227.14
892.81	227.14
893.12	227.14
893.42	227.09
893.73	227.07
894.04	227.06
894.34	227.03
894.65	227.02
894.95	227.01
895.26	227.06
895.57	227.07
895.87	226.97
896.18	226.96
896.48	226.96
896.79	226.97
897.10	226.95
897.40	226.98
897.71	226.98
898.01	226.98
898.32	226.98
898.63	226.99
898.93	226.99
899.24	226.99
899.54	226.97
899.85	226.97
900.15	226.98
900.46	226.98
900.76	227.03
901.07	227.06
901.38	227.03
901.68	227.01
901.99	226.96
902.29	226.97
902.60	226.99
902.90	226.96
903.21	226.93
903.51	226.94
903.82	226.92
904.12	226.92
904.43	226.92
904.73	226.94
905.03	226.93
905.34	227.01
905.64	227.01
905.95	227.00
906.25	227.01
906.56	227.03
906.86	227.02
907.17	226.99
907.47	226.97
907.77	226.99
908.08	227.02
908.38	227.03
908.69	227.02
908.99	227.04
909.30	227.06
909.60	227.08
909.90	227.11
910.21	227.11
910.51	227.12
910.81	227.11
911.12	227.11
911.42	227.13
911.73	227.05
912.03	227.05
912.33	227.10
912.64	227.10
912.94	227.07
913.24	227.11
913.55	227.08
913.85	227.10
914.15	227.11
914.46	227.10
914.76	227.12
915.06	227.11
915.37	227.11
915.67	227.12
915.97	227.11
916.27	227.08
916.58	227.07
916.88	227.03
917.18	227.06
917.49	227.13
917.79	227.12
918.09	227.14
918.39	227.18
918.70	227.18
919.00	227.17
919.30	227.22
919.60	227.17
919.91	227.15
920.21	227.15
920.51	227.16
920.81	227.16
921.12	227.16
921.42	227.16
921.72	227.16
922.02	227.18
922.32	227.20
922.63	227.21
922.93	227.25
923.23	227.27
923.53	227.27
923.83	227.20
924.13	227.20
924.44	227.19
924.74	227.15
925.04	227.16
925.34	227.13
925.64	227.07
925.94	227.08
926.24	227.16
926.55	227.17
926.85	227.16
927.15	227.17
927.45	227.15
927.75	227.13
928.05	227.07
928.35	227.03
928.65	227.06
928.95	227.06
929.26	227.01
929.56	227.04
929.86	227.00
930.16	226.96
930.46	226.95
930.76	226.96
931.06	226.95
931.36	226.89
931.66	226.92
931.96	226.91
932.26	226.87
932.56	226.85
932.86	226.81
933.16	226.80
933.46	226.77
933.76	226.75
934.06	226.78
934.36	226.84
934.66	226.83
934.96	226.80
935.26	226.80
935.56	226.81
935.86	226.77
936.16	226.74
936.46	226.75
936.76	226.74
937.06	226.74
937.36	226.74
937.66	226.75
937.96	226.73
938.26	226.73
938.56	226.75
938.86	226.73
939.16	226.78
939.46	226.76
939.76	226.78
940.06	226.77
940.35	226.77
940.65	226.72
940.95	226.75
941.25	226.72
941.55	226.68
941.85	226.69
942.15	226.72
942.45	226.76
942.75	226.76
943.04	226.75
943.34	226.72
943.64	226.72
943.94	226.70
944.24	226.73
944.54	226.78
944.84	226.77
945.13	226.76
945.43	226.74
945.73	226.77
946.03	226.73
946.33	226.75
946.62	226.73
946.92	226.74
947.22	226.73
947.52	226.71
947.82	226.78
948.11	226.75
948.41	226.72
948.71	226.72
949.01	226.74
949.31	226.75
949.60	226.75
949.90	226.77
950.20	226.77
950.50	226.77
950.79	226.74
951.09	226.77
951.39	226.79
951.69	226.75
951.98	226.73
952.28	226.78
952.58	226.77
952.87	226.79
953.17	226.81
953.47	226.81
953.76	226.86
954.06	226.83
954.36	226.83
954.66	226.82
954.95	226.84
955.25	226.85
955.55	226.84
955.84	226.85
956.14	226.85
956.44	226.86
956.73	226.83
957.03	226.86
957.32	226.84
957.62	226.81
957.92	226.83
958.21	226.84
958.51	226.92
958.81	226.94
959.10	226.91
959.40	226.92
959.69	226.93
959.99	226.93
960.29	226.88
960.58	226.90
960.88	226.93
961.17	226.92
961.47	226.92
961.76	226.90
962.06	226.89
962.36	226.88
962.65	226.86
962.95	226.85
963.24	226.80
963.54	226.80
963.83	226.79
964.13	226.80
964.42	226.74
964.72	226.69
965.01	226.65
965.31	226.64
965.60	226.62
965.90	226.64
966.19	226.62
966.49	226.65
966.78	226.65
967.08	226.64
967.37	226.60
967.67	226.56
967.96	226.60
968.26	226.58
968.55	226.58
968.85	226.61
969.14	226.63
969.43	226.63
969.73	226.61
970.02	226.61
970.32	226.59
970.61	226.62
970.91	226.57
971.20	226.57
971.49	226.56
971.79	226.54
972.08	226.50
972.38	226.50
972.67	226.52
972.96	226.54
973.26	226.54
973.55	226.60
973.85	226.62
974.14	226.61
974.43	226.63
974.73	226.63
975.02	226.61
975.31	226.63
975.61	226.65
975.90	226.66
976.19	226.66
976.49	226.68
976.78	226.68
977.07	226.71
977.37	226.71
977.66	226.77
977.95	226.74
978.24	226.72
978.54	226.75
978.83	226.74
979.12	226.75
979.42	226.77
979.71	226.75
980.00	226.77
980.29	226.77
980.59	226.76
980.88	226.80
981.17	226.84
981.46	226.84
981.76	226.84
982.05	226.85
982.34	226.86
982.63	226.87
982.93	226.87
983.22	226.89
983.51	226.91
983.80	226.91
984.09	226.98
984.39	227.04
984.68	227.02
984.97	227.01
985.26	227.02
985.55	227.00
985.85	226.99
986.14	227.01
986.43	227.03
986.72	227.02
987.01	226.96
987.30	226.94
987.59	226.90
987.89	226.93
988.18	226.93
988.47	226.92
988.76	226.93
989.05	226.94
989.34	226.93
989.63	226.99
989.92	226.97
990.22	226.93
990.51	226.87
990.80	226.87
991.09	226.91
991.38	226.88
991.67	226.88
991.96	226.88
992.25	226.87
992.54	226.86
992.83	226.86
993.12	226.90
993.41	226.90
993.70	226.96
993.99	226.95
994.28	226.95
994.58	226.97
994.87	226.94
995.16	226.95
995.45	226.94
995.74	226.84
996.03	226.86
996.32	226.87
996.61	226.89
996.90	226.86
997.19	226.85
997.48	226.85
997.77	226.83
998.06	226.84
998.34	226.82
998.63	226.80
998.92	226.80
999.21	226.77
999.50	226.77
999.79	226.71
1000.08	226.72
1000.37	226.73
1000.66	226.72
1000.95	226.75
1001.24	226.72
1001.53	226.71
1001.82	226.72
1002.11	226.66
1002.40	226.66
1002.68	226.65
1002.97	226.73
1003.26	226.70
1003.55	226.69
1003.84	226.71
1004.13	226.72
1004.42	226.71
1004.71	226.75
1004.99	226.75
1005.28	226.77
1005.57	226.72
1005.86	226.73
1006.15	226.71
1006.44	226.67
1006.72	226.68
1007.01	226.66
1007.30	226.69
1007.59	226.68
1007.88	226.72
1008.17	226.72
1008.45	226.69
1008.74	226.69
1009.03	226.67
1009.32	226.69
1009.60	226.68
1009.89	226.66
1010.18	226.62
1010.47	226.62
1010.76	226.58
1011.04	226.59
1011.33	226.61
1011.62	226.65
1011.91	226.70
1012.19	226.71
1012.48	226.73
1012.77	226.77
1013.05	226.81
1013.34	226.80
1013.63	226.81
1013.92	226.80
1014.20	226.83
1014.49	226.84
1014.78	226.87
1015.06	226.81
1015.35	226.80
1015.64	226.83
1015.92	226.87
1016.21	226.89
1016.50	226.91
1016.78	226.92
1017.07	226.90
1017.36	226.87
1017.64	226.88
1017.93	226.89
1018.22	226.90
1018.50	226.89
1018.79	226.86
1019.08	226.82
1019.36	226.82
1019.65	226.84
1019.93	226.88
1020.22	226.91
1020.51	226.99
1020.79	226.98
1021.08	226.90
1021.36	226.62
1021.65	226.89
1021.94	226.93
1022.22	226.78
1022.51	227.07
1022.79	227.68
1023.08	227.18
1023.36	228.26
1023.65	226.72
>>>>>End Processed Spectral Data<<<<<
