SpectraSuite Data File
++++++++++++++++++++++++++++++++++++
Date: Fri Feb 01 16:04:52 EST 2013
User: group
Dark Spectrum Present: No
Reference Spectrum Present: No
Number of Sampled Component Spectra: 1
Spectrometers: USB2E7196
Integration Time (usec): 35000 (USB2E7196)
Spectra Averaged: 100 (USB2E7196)
Boxcar Smoothing: 10 (USB2E7196)
Correct for Electrical Dark: No (USB2E7196)
Strobe/Lamp Enabled: No (USB2E7196)
Correct for Detector Non-linearity: No (USB2E7196)
Correct for Stray Light: No (USB2E7196)
Number of Pixels in Processed Spectrum: 2048
>>>>>Begin Processed Spectral Data<<<<<
339.09	0.00
339.48	214.77
339.86	216.02
340.24	217.87
340.63	218.72
341.01	221.42
341.39	221.25
341.78	222.70
342.16	224.74
342.54	224.62
342.93	212.99
343.31	223.77
343.69	224.30
344.07	224.77
344.46	225.19
344.84	225.56
345.22	225.79
345.60	226.05
345.99	226.26
346.37	226.36
346.75	226.46
347.13	226.53
347.52	226.59
347.90	226.66
348.28	226.70
348.66	226.74
349.05	226.74
349.43	226.76
349.81	226.83
350.19	226.89
350.57	226.94
350.96	227.02
351.34	227.09
351.72	227.17
352.10	227.29
352.48	227.37
352.87	227.42
353.25	227.51
353.63	227.56
354.01	227.63
354.39	227.70
354.77	227.78
355.15	227.85
355.54	227.90
355.92	227.97
356.30	228.06
356.68	228.19
357.06	228.29
357.44	228.34
357.82	228.40
358.20	228.43
358.58	228.51
358.97	228.58
359.35	228.64
359.73	228.71
360.11	228.74
360.49	228.77
360.87	228.82
361.25	228.88
361.63	228.95
362.01	228.98
362.39	229.05
362.77	229.08
363.15	229.13
363.53	229.15
363.91	229.17
364.29	229.17
364.67	229.12
365.05	229.10
365.43	229.11
365.81	229.09
366.19	229.19
366.57	229.19
366.95	229.20
367.33	229.17
367.71	229.15
368.09	229.17
368.47	229.17
368.85	229.18
369.23	229.15
369.61	229.10
369.99	229.11
370.37	229.06
370.75	229.10
371.13	229.02
371.51	228.99
371.89	228.94
372.27	228.89
372.65	228.84
373.03	228.81
373.41	228.77
373.78	228.73
374.16	228.60
374.54	228.53
374.92	228.47
375.30	228.40
375.68	228.34
376.06	228.28
376.44	228.21
376.82	228.14
377.19	228.08
377.57	227.99
377.95	227.86
378.33	227.77
378.71	227.63
379.09	227.59
379.47	227.54
379.84	227.46
380.22	227.41
380.60	227.32
380.98	227.26
381.36	227.20
381.73	227.13
382.11	227.08
382.49	227.00
382.87	226.92
383.25	226.88
383.62	226.92
384.00	226.84
384.38	226.76
384.76	226.70
385.13	226.72
385.51	226.70
385.89	226.67
386.27	226.62
386.64	226.58
387.02	226.51
387.40	226.47
387.78	226.43
388.15	226.38
388.53	226.34
388.91	226.26
389.29	226.22
389.66	226.19
390.04	226.16
390.42	226.16
390.79	226.16
391.17	226.15
391.55	226.04
391.92	226.04
392.30	226.04
392.68	226.04
393.05	226.03
393.43	226.02
393.81	226.04
394.18	226.04
394.56	226.08
394.94	226.13
395.31	226.11
395.69	226.17
396.06	226.21
396.44	226.23
396.82	226.27
397.19	226.36
397.57	226.42
397.95	226.45
398.32	226.50
398.70	226.54
399.07	226.58
399.45	226.61
399.82	226.68
400.20	226.75
400.58	226.77
400.95	226.79
401.33	226.89
401.70	227.03
402.08	227.12
402.45	227.20
402.83	227.29
403.20	227.39
403.58	227.49
403.95	227.64
404.33	227.80
404.71	227.91
405.08	228.06
405.46	228.19
405.83	228.37
406.21	228.52
406.58	228.70
406.96	228.88
407.33	229.05
407.70	229.22
408.08	229.50
408.45	229.76
408.83	230.04
409.20	230.24
409.58	230.39
409.95	230.67
410.33	230.93
410.70	231.16
411.08	231.48
411.45	231.76
411.82	232.05
412.20	232.39
412.57	232.81
412.95	233.14
413.32	233.54
413.69	233.92
414.07	234.31
414.44	234.77
414.82	235.25
415.19	235.81
415.56	236.34
415.94	236.84
416.31	237.46
416.68	238.04
417.06	238.75
417.43	239.46
417.81	240.21
418.18	241.00
418.55	241.87
418.93	242.75
419.30	243.68
419.67	244.62
420.04	245.54
420.42	246.54
420.79	247.72
421.16	248.88
421.54	250.08
421.91	251.34
422.28	252.59
422.66	253.92
423.03	255.22
423.40	256.58
423.77	258.00
424.15	259.43
424.52	260.96
424.89	262.56
425.26	264.07
425.64	265.54
426.01	267.14
426.38	268.79
426.75	270.47
427.13	272.20
427.50	274.01
427.87	275.93
428.24	277.81
428.61	279.56
428.99	281.51
429.36	283.62
429.73	285.67
430.10	287.66
430.47	289.73
430.85	291.85
431.22	294.09
431.59	296.46
431.96	298.68
432.33	301.15
432.70	303.54
433.08	306.39
433.45	309.05
433.82	311.63
434.19	314.51
434.56	317.33
434.93	320.00
435.30	322.60
435.68	325.46
436.05	328.26
436.42	331.08
436.79	333.55
437.16	336.27
437.53	339.12
437.90	341.97
438.27	344.70
438.64	347.57
439.01	350.16
439.38	352.40
439.75	354.60
440.13	357.10
440.50	359.43
440.87	361.31
441.24	363.22
441.61	365.39
441.98	366.87
442.35	368.65
442.72	370.48
443.09	372.26
443.46	373.26
443.83	373.84
444.20	374.27
444.57	375.13
444.94	375.40
445.31	375.76
445.68	376.09
446.05	376.13
446.42	375.69
446.79	375.29
447.16	374.81
447.53	374.47
447.90	373.30
448.27	372.15
448.64	370.53
449.01	369.42
449.37	367.41
449.74	365.50
450.11	363.27
450.48	360.83
450.85	358.35
451.22	356.21
451.59	354.17
451.96	352.26
452.33	349.63
452.70	347.26
453.07	344.39
453.43	341.46
453.80	338.74
454.17	336.10
454.54	333.54
454.91	330.87
455.28	328.20
455.65	325.70
456.02	323.26
456.38	321.11
456.75	318.43
457.12	316.21
457.49	314.01
457.86	311.86
458.23	309.94
458.59	307.88
458.96	305.78
459.33	303.95
459.70	302.08
460.07	300.60
460.43	298.89
460.80	297.28
461.17	295.89
461.54	294.38
461.91	292.94
462.27	291.48
462.64	290.21
463.01	288.87
463.38	287.59
463.74	286.23
464.11	285.07
464.48	284.04
464.85	282.95
465.21	282.07
465.58	281.13
465.95	280.05
466.32	279.13
466.68	278.24
467.05	277.33
467.42	276.44
467.78	275.49
468.15	274.60
468.52	273.94
468.88	273.07
469.25	272.30
469.62	271.68
469.98	271.02
470.35	270.39
470.72	269.79
471.08	269.15
471.45	268.60
471.82	268.05
472.18	267.48
472.55	267.06
472.92	266.53
473.28	266.11
473.65	265.67
474.02	265.27
474.38	264.91
474.75	264.61
475.11	264.28
475.48	264.04
475.85	263.80
476.21	263.58
476.58	263.38
476.94	263.26
477.31	263.11
477.67	262.97
478.04	262.87
478.41	262.83
478.77	262.83
479.14	262.79
479.50	262.78
479.87	262.84
480.23	262.92
480.60	263.03
480.96	263.11
481.33	263.31
481.69	263.46
482.06	263.69
482.42	263.91
482.79	264.17
483.15	264.48
483.52	264.84
483.88	265.20
484.25	265.59
484.61	265.99
484.98	266.43
485.34	266.96
485.71	267.56
486.07	268.13
486.44	268.71
486.80	269.35
487.17	270.10
487.53	270.87
487.90	271.69
488.26	272.56
488.62	273.54
488.99	274.50
489.35	275.56
489.72	276.67
490.08	277.83
490.44	279.08
490.81	280.43
491.17	281.81
491.54	283.28
491.90	284.84
492.26	286.52
492.63	288.26
492.99	290.03
493.36	291.92
493.72	293.96
494.08	296.07
494.45	298.34
494.81	300.72
495.17	303.14
495.54	305.69
495.90	308.42
496.26	311.21
496.63	314.18
496.99	317.27
497.35	320.56
497.72	323.97
498.08	327.51
498.44	331.17
498.80	335.13
499.17	339.18
499.53	343.30
499.89	347.68
500.26	352.20
500.62	356.92
500.98	361.91
501.34	367.01
501.71	372.39
502.07	377.84
502.43	383.46
502.79	389.35
503.16	395.43
503.52	401.73
503.88	408.11
504.24	414.78
504.60	421.71
504.97	428.82
505.33	436.20
505.69	443.91
506.05	451.72
506.41	459.59
506.78	467.76
507.14	476.29
507.50	485.03
507.86	494.03
508.22	503.24
508.59	512.43
508.95	521.94
509.31	531.79
509.67	541.93
510.03	552.25
510.39	562.79
510.75	573.64
511.12	584.62
511.48	595.95
511.84	607.38
512.20	618.89
512.56	630.83
512.92	642.98
513.28	655.33
513.64	667.90
514.00	680.65
514.37	693.69
514.73	706.83
515.09	719.83
515.45	733.13
515.81	746.70
516.17	760.72
516.53	774.93
516.89	789.09
517.25	803.31
517.61	817.76
517.97	832.28
518.33	846.70
518.69	861.45
519.05	876.44
519.41	891.70
519.77	907.32
520.13	922.80
520.49	938.19
520.85	953.68
521.21	969.26
521.57	985.46
521.93	1001.15
522.29	1017.50
522.65	1033.85
523.01	1050.16
523.37	1066.24
523.73	1082.36
524.09	1098.48
524.45	1114.73
524.81	1131.28
525.17	1148.03
525.53	1164.81
525.89	1181.65
526.25	1198.41
526.61	1214.75
526.97	1231.48
527.33	1247.85
527.68	1264.39
528.04	1280.92
528.40	1297.49
528.76	1314.54
529.12	1331.10
529.48	1347.94
529.84	1363.82
530.20	1380.37
530.56	1397.27
530.91	1414.60
531.27	1431.33
531.63	1447.77
531.99	1464.32
532.35	1480.25
532.71	1496.13
533.07	1512.45
533.42	1528.25
533.78	1544.35
534.14	1560.58
534.50	1575.74
534.86	1591.58
535.21	1606.69
535.57	1622.48
535.93	1637.94
536.29	1652.62
536.65	1667.53
537.00	1682.22
537.36	1697.43
537.72	1711.73
538.08	1725.99
538.44	1739.60
538.79	1753.36
539.15	1766.69
539.51	1780.19
539.87	1794.41
540.22	1807.92
540.58	1821.32
540.94	1834.59
541.29	1847.18
541.65	1859.74
542.01	1872.75
542.37	1884.98
542.72	1897.29
543.08	1909.00
543.44	1921.12
543.79	1932.23
544.15	1943.19
544.51	1954.62
544.87	1965.55
545.22	1976.47
545.58	1986.67
545.94	1996.53
546.29	2006.40
546.65	2016.50
547.01	2025.75
547.36	2034.46
547.72	2043.01
548.07	2051.17
548.43	2059.30
548.79	2067.33
549.14	2075.05
549.50	2082.62
549.86	2090.25
550.21	2097.69
550.57	2104.83
550.92	2111.57
551.28	2118.74
551.64	2125.97
551.99	2132.53
552.35	2138.78
552.70	2144.96
553.06	2151.16
553.41	2157.49
553.77	2163.50
554.13	2169.52
554.48	2175.78
554.84	2181.40
555.19	2186.61
555.55	2191.74
555.90	2196.27
556.26	2201.27
556.61	2205.75
556.97	2210.10
557.32	2214.33
557.68	2218.43
558.03	2222.86
558.39	2226.57
558.74	2231.20
559.10	2235.04
559.45	2238.73
559.81	2242.93
560.16	2246.77
560.52	2249.75
560.87	2253.24
561.23	2255.96
561.58	2258.99
561.94	2261.64
562.29	2263.96
562.64	2266.68
563.00	2269.24
563.35	2272.76
563.71	2275.90
564.06	2279.24
564.42	2282.11
564.77	2284.67
565.12	2287.01
565.48	2288.82
565.83	2290.65
566.19	2292.10
566.54	2292.99
566.89	2294.14
567.25	2294.96
567.60	2296.21
567.96	2297.99
568.31	2298.75
568.66	2299.78
569.02	2300.20
569.37	2300.41
569.72	2301.29
570.08	2301.51
570.43	2301.57
570.78	2301.14
571.14	2299.70
571.49	2298.45
571.84	2298.00
572.20	2296.95
572.55	2295.87
572.90	2294.25
573.26	2292.83
573.61	2291.03
573.96	2289.30
574.31	2286.37
574.67	2283.16
575.02	2279.55
575.37	2276.26
575.72	2272.66
576.08	2269.37
576.43	2266.12
576.78	2262.57
577.13	2259.32
577.49	2256.11
577.84	2252.60
578.19	2248.76
578.54	2245.14
578.90	2240.86
579.25	2235.34
579.60	2230.35
579.95	2225.44
580.30	2220.52
580.66	2215.38
581.01	2210.33
581.36	2205.51
581.71	2201.42
582.06	2197.14
582.42	2192.66
582.77	2187.41
583.12	2182.74
583.47	2178.13
583.82	2173.20
584.17	2167.97
584.53	2162.55
584.88	2157.04
585.23	2151.45
585.58	2145.98
585.93	2140.50
586.28	2135.83
586.63	2130.85
586.98	2125.78
587.34	2120.90
587.69	2116.05
588.04	2110.86
588.39	2105.32
588.74	2098.76
589.09	2092.62
589.44	2085.71
589.79	2079.64
590.14	2074.03
590.49	2067.47
590.84	2061.09
591.19	2054.91
591.54	2048.45
591.89	2041.16
592.25	2034.38
592.60	2027.07
592.95	2019.58
593.30	2012.20
593.65	2004.57
594.00	1997.50
594.35	1990.19
594.70	1982.21
595.05	1975.05
595.40	1967.84
595.75	1960.21
596.10	1953.94
596.45	1947.26
596.80	1941.20
597.15	1934.73
597.50	1927.78
597.85	1921.31
598.19	1914.69
598.54	1907.69
598.89	1901.05
599.24	1895.14
599.59	1888.46
599.94	1882.21
600.29	1875.84
600.64	1869.23
600.99	1861.79
601.34	1854.90
601.69	1847.99
602.04	1841.24
602.39	1833.87
602.74	1827.02
603.08	1820.39
603.43	1813.72
603.78	1806.34
604.13	1799.12
604.48	1791.84
604.83	1784.73
605.18	1777.85
605.53	1769.79
605.87	1761.81
606.22	1754.44
606.57	1746.37
606.92	1739.00
607.27	1731.75
607.62	1724.98
607.96	1717.69
608.31	1711.03
608.66	1703.40
609.01	1695.73
609.36	1688.03
609.70	1679.86
610.05	1671.71
610.40	1664.03
610.75	1655.62
611.10	1647.93
611.44	1639.40
611.79	1631.40
612.14	1622.74
612.49	1613.46
612.83	1605.10
613.18	1597.01
613.53	1588.95
613.88	1580.49
614.22	1572.37
614.57	1563.86
614.92	1555.72
615.27	1548.30
615.61	1539.98
615.96	1531.97
616.31	1524.45
616.65	1517.11
617.00	1509.71
617.35	1502.06
617.70	1493.71
618.04	1485.34
618.39	1477.16
618.74	1469.65
619.08	1461.28
619.43	1453.86
619.78	1446.98
620.12	1439.85
620.47	1432.34
620.82	1424.15
621.16	1416.72
621.51	1409.06
621.85	1401.43
622.20	1392.86
622.55	1384.44
622.89	1376.58
623.24	1368.93
623.59	1361.49
623.93	1353.99
624.28	1346.77
624.62	1339.25
624.97	1332.09
625.32	1325.16
625.66	1318.02
626.01	1310.87
626.35	1303.50
626.70	1295.64
627.04	1287.96
627.39	1280.06
627.73	1272.58
628.08	1265.73
628.43	1258.51
628.77	1251.13
629.12	1243.49
629.46	1236.31
629.81	1228.83
630.15	1221.60
630.50	1214.28
630.84	1206.14
631.19	1198.19
631.53	1190.61
631.88	1183.06
632.22	1175.45
632.57	1168.19
632.91	1160.72
633.26	1153.25
633.60	1145.89
633.95	1138.72
634.29	1131.54
634.64	1124.88
634.98	1117.50
635.32	1110.39
635.67	1103.66
636.01	1096.97
636.36	1090.21
636.70	1083.65
637.05	1077.01
637.39	1070.63
637.73	1064.06
638.08	1058.17
638.42	1052.18
638.77	1045.78
639.11	1039.19
639.45	1032.85
639.80	1026.19
640.14	1019.76
640.49	1013.27
640.83	1006.96
641.17	1000.83
641.52	994.55
641.86	988.11
642.20	982.33
642.55	975.97
642.89	969.55
643.23	963.00
643.58	957.26
643.92	951.07
644.26	945.15
644.61	939.00
644.95	933.04
645.29	926.45
645.64	919.77
645.98	913.40
646.32	907.54
646.66	901.46
647.01	895.72
647.35	890.08
647.69	884.19
648.04	878.60
648.38	872.78
648.72	866.76
649.06	860.70
649.41	854.84
649.75	848.84
650.09	842.98
650.43	837.18
650.78	831.08
651.12	825.13
651.46	819.32
651.80	813.63
652.14	808.17
652.49	802.80
652.83	797.59
653.17	791.91
653.51	786.15
653.85	780.80
654.20	775.14
654.54	769.07
654.88	763.38
655.22	757.50
655.56	751.80
655.90	746.41
656.25	741.17
656.59	735.73
656.93	730.74
657.27	725.52
657.61	720.09
657.95	714.92
658.29	709.85
658.64	704.63
658.98	699.31
659.32	693.95
659.66	688.71
660.00	683.37
660.34	678.48
660.68	673.62
661.02	668.54
661.36	663.89
661.70	659.42
662.05	655.01
662.39	650.64
662.73	646.21
663.07	641.81
663.41	637.31
663.75	632.86
664.09	628.25
664.43	623.83
664.77	619.72
665.11	615.50
665.45	611.36
665.79	607.23
666.13	603.13
666.47	598.98
666.81	594.78
667.15	590.65
667.49	586.67
667.83	582.83
668.17	578.92
668.51	574.77
668.85	570.73
669.19	566.89
669.53	563.12
669.87	559.20
670.21	555.47
670.55	551.88
670.89	548.41
671.23	544.92
671.57	541.41
671.91	537.86
672.25	534.32
672.58	530.82
672.92	527.44
673.26	524.24
673.60	521.05
673.94	517.97
674.28	515.07
674.62	512.12
674.96	508.96
675.30	506.03
675.64	503.10
675.97	500.33
676.31	497.48
676.65	494.53
676.99	491.83
677.33	488.94
677.67	486.11
678.01	483.08
678.34	480.12
678.68	477.24
679.02	474.42
679.36	471.62
679.70	468.92
680.04	466.18
680.37	463.29
680.71	460.53
681.05	457.89
681.39	455.19
681.73	452.53
682.06	450.05
682.40	447.47
682.74	444.96
683.08	442.38
683.42	439.75
683.75	437.20
684.09	434.59
684.43	432.14
684.77	429.74
685.10	427.40
685.44	425.08
685.78	422.77
686.12	420.50
686.45	418.27
686.79	415.93
687.13	413.68
687.46	411.55
687.80	409.41
688.14	407.21
688.48	405.15
688.81	402.92
689.15	400.77
689.49	398.66
689.82	396.54
690.16	394.48
690.50	392.51
690.83	390.59
691.17	388.65
691.51	386.73
691.84	384.84
692.18	382.87
692.52	380.91
692.85	379.01
693.19	377.15
693.52	375.31
693.86	373.52
694.20	371.78
694.53	369.96
694.87	368.05
695.21	366.27
695.54	364.42
695.88	362.73
696.21	360.98
696.55	359.29
696.88	357.64
697.22	355.99
697.56	354.34
697.89	352.74
698.23	351.16
698.56	349.56
698.90	347.94
699.23	346.38
699.57	344.82
699.90	343.27
700.24	341.72
700.58	340.16
700.91	338.64
701.25	337.17
701.58	335.78
701.92	334.42
702.25	333.06
702.59	331.67
702.92	330.30
703.26	329.01
703.59	327.69
703.93	326.45
704.26	325.18
704.60	323.91
704.93	322.64
705.26	321.35
705.60	320.21
705.93	319.07
706.27	318.01
706.60	316.98
706.94	315.92
707.27	314.78
707.61	313.71
707.94	312.74
708.27	311.65
708.61	310.57
708.94	309.59
709.28	308.57
709.61	307.64
709.94	306.71
710.28	305.69
710.61	304.74
710.95	303.69
711.28	302.78
711.61	301.85
711.95	300.93
712.28	300.02
712.61	298.99
712.95	298.03
713.28	297.17
713.61	296.22
713.95	295.31
714.28	294.47
714.61	293.61
714.95	292.75
715.28	291.93
715.61	291.05
715.95	290.19
716.28	289.32
716.61	288.46
716.95	287.61
717.28	286.83
717.61	286.05
717.94	285.33
718.28	284.50
718.61	283.72
718.94	282.97
719.27	282.30
719.61	281.66
719.94	281.00
720.27	280.25
720.60	279.60
720.94	278.97
721.27	278.37
721.60	277.81
721.93	277.17
722.27	276.61
722.60	276.06
722.93	275.51
723.26	274.98
723.59	274.42
723.93	273.90
724.26	273.36
724.59	272.79
724.92	272.27
725.25	271.76
725.59	271.24
725.92	270.76
726.25	270.24
726.58	269.74
726.91	269.23
727.24	268.73
727.57	268.28
727.91	267.73
728.24	267.24
728.57	266.73
728.90	266.30
729.23	265.75
729.56	265.34
729.89	264.85
730.22	264.39
730.55	263.91
730.89	263.46
731.22	263.04
731.55	262.63
731.88	262.22
732.21	261.79
732.54	261.40
732.87	260.98
733.20	260.58
733.53	260.20
733.86	259.84
734.19	259.42
734.52	259.02
734.85	258.74
735.18	258.35
735.51	257.98
735.84	257.64
736.17	257.32
736.50	256.91
736.83	256.70
737.16	256.36
737.49	256.08
737.82	255.71
738.15	255.36
738.48	255.02
738.81	254.65
739.14	254.32
739.47	254.02
739.80	253.71
740.13	253.45
740.46	253.10
740.79	252.79
741.12	252.52
741.45	252.22
741.78	251.91
742.11	251.64
742.44	251.31
742.77	250.99
743.10	250.69
743.43	250.40
743.75	249.97
744.08	249.85
744.41	249.54
744.74	249.28
745.07	249.04
745.40	248.80
745.73	248.57
746.06	248.35
746.39	248.08
746.71	247.81
747.04	247.47
747.37	247.24
747.70	246.98
748.03	246.75
748.36	246.56
748.68	246.32
749.01	246.10
749.34	245.91
749.67	245.70
750.00	245.49
750.33	245.35
750.65	245.18
750.98	244.83
751.31	244.61
751.64	244.43
751.97	244.23
752.29	244.03
752.62	243.79
752.95	243.58
753.28	243.38
753.60	243.18
753.93	243.04
754.26	242.85
754.59	242.65
754.91	242.42
755.24	242.20
755.57	241.99
755.90	241.77
756.22	241.56
756.55	241.36
756.88	241.18
757.20	240.95
757.53	240.75
757.86	240.58
758.19	240.42
758.51	240.25
758.84	240.05
759.17	239.88
759.49	239.73
759.82	239.62
760.15	239.46
760.47	239.29
760.80	239.10
761.13	238.99
761.45	238.82
761.78	238.67
762.11	238.51
762.43	238.34
762.76	238.22
763.08	238.08
763.41	237.92
763.74	237.76
764.06	237.58
764.39	237.42
764.71	237.30
765.04	237.18
765.37	237.05
765.69	236.89
766.02	236.74
766.34	236.61
766.67	236.43
767.00	236.34
767.32	236.31
767.65	236.25
767.97	236.10
768.30	235.98
768.62	235.86
768.95	235.72
769.27	235.61
769.60	235.49
769.92	235.38
770.25	235.28
770.57	235.18
770.90	235.12
771.22	235.00
771.55	234.88
771.87	234.75
772.20	234.62
772.52	234.64
772.85	234.67
773.17	234.57
773.50	234.46
773.82	234.34
774.15	234.18
774.47	234.03
774.80	233.96
775.12	233.90
775.45	233.83
775.77	233.78
776.09	233.72
776.42	233.64
776.74	233.60
777.07	233.52
777.39	233.46
777.72	233.34
778.04	233.29
778.36	233.21
778.69	233.14
779.01	233.10
779.33	232.94
779.66	232.78
779.98	232.67
780.31	232.62
780.63	232.60
780.95	232.51
781.28	232.45
781.60	232.34
781.92	232.29
782.25	232.23
782.57	232.13
782.89	232.09
783.22	232.06
783.54	232.01
783.86	231.96
784.19	231.90
784.51	231.87
784.83	231.83
785.16	231.77
785.48	231.74
785.80	231.68
786.12	231.64
786.45	231.62
786.77	231.58
787.09	231.52
787.42	231.41
787.74	231.38
788.06	231.38
788.38	231.34
788.71	231.28
789.03	231.23
789.35	231.22
789.67	231.13
789.99	231.06
790.32	230.94
790.64	230.91
790.96	230.95
791.28	230.87
791.61	230.83
791.93	230.81
792.25	230.72
792.57	230.75
792.89	230.68
793.21	230.63
793.54	230.61
793.86	230.56
794.18	230.54
794.50	230.50
794.82	230.46
795.14	230.44
795.47	230.41
795.79	230.38
796.11	230.32
796.43	230.35
796.75	230.31
797.07	230.31
797.39	230.27
797.71	230.13
798.04	230.12
798.36	230.07
798.68	230.03
799.00	230.04
799.32	229.96
799.64	229.94
799.96	229.89
800.28	229.87
800.60	229.85
800.92	229.84
801.24	229.78
801.56	229.73
801.89	229.69
802.21	229.68
802.53	229.64
802.85	229.62
803.17	229.60
803.49	229.56
803.81	229.51
804.13	229.47
804.45	229.47
804.77	229.47
805.09	229.46
805.41	229.42
805.73	229.40
806.05	229.34
806.37	229.29
806.69	229.26
807.01	229.21
807.33	229.21
807.65	229.13
807.97	229.14
808.28	229.11
808.60	229.11
808.92	229.05
809.24	229.05
809.56	229.04
809.88	229.01
810.20	228.98
810.52	229.02
810.84	228.99
811.16	228.93
811.48	228.86
811.80	228.85
812.12	228.80
812.43	228.78
812.75	228.75
813.07	228.78
813.39	228.81
813.71	228.77
814.03	228.75
814.35	228.76
814.67	228.71
814.98	228.68
815.30	228.62
815.62	228.60
815.94	228.53
816.26	228.54
816.58	228.49
816.89	228.49
817.21	228.41
817.53	228.38
817.85	228.40
818.17	228.40
818.48	228.36
818.80	228.38
819.12	228.33
819.44	228.32
819.76	228.27
820.07	228.25
820.39	228.23
820.71	228.25
821.03	228.22
821.34	228.23
821.66	228.24
821.98	228.25
822.30	228.22
822.61	228.31
822.93	228.28
823.25	228.27
823.57	228.24
823.88	228.27
824.20	228.29
824.52	228.29
824.83	228.27
825.15	228.26
825.47	228.25
825.79	228.27
826.10	228.26
826.42	228.24
826.74	228.22
827.05	228.23
827.37	228.19
827.69	228.17
828.00	228.16
828.32	228.14
828.64	228.18
828.95	228.22
829.27	228.19
829.58	228.14
829.90	228.15
830.22	228.16
830.53	228.11
830.85	228.11
831.17	228.07
831.48	228.06
831.80	228.09
832.11	228.08
832.43	228.04
832.75	228.05
833.06	228.10
833.38	228.04
833.69	228.01
834.01	228.03
834.32	228.02
834.64	228.03
834.96	228.02
835.27	227.97
835.59	227.94
835.90	227.90
836.22	227.94
836.53	227.89
836.85	227.86
837.16	227.95
837.48	227.94
837.79	227.99
838.11	227.98
838.42	227.96
838.74	227.95
839.05	227.95
839.37	227.92
839.68	227.88
840.00	227.86
840.31	227.90
840.63	227.86
840.94	227.85
841.26	227.79
841.57	227.79
841.88	227.79
842.20	227.77
842.51	227.74
842.83	227.70
843.14	227.78
843.46	227.77
843.77	227.68
844.08	227.63
844.40	227.55
844.71	227.51
845.03	227.46
845.34	227.41
845.65	227.38
845.97	227.37
846.28	227.35
846.60	227.36
846.91	227.30
847.22	227.26
847.54	227.28
847.85	227.27
848.16	227.22
848.48	227.21
848.79	227.23
849.10	227.19
849.42	227.20
849.73	227.09
850.04	227.08
850.36	227.05
850.67	227.06
850.98	227.06
851.30	227.09
851.61	227.09
851.92	227.07
852.23	227.09
852.55	227.08
852.86	227.07
853.17	227.05
853.49	227.06
853.80	227.09
854.11	227.07
854.42	227.08
854.74	227.07
855.05	227.05
855.36	226.98
855.67	227.01
855.99	226.98
856.30	227.08
856.61	227.09
856.92	227.10
857.23	227.13
857.55	227.13
857.86	227.11
858.17	227.10
858.48	227.11
858.79	227.13
859.11	227.13
859.42	227.13
859.73	227.17
860.04	227.19
860.35	227.16
860.66	227.15
860.98	227.15
861.29	227.17
861.60	227.16
861.91	227.21
862.22	227.22
862.53	227.23
862.84	227.16
863.16	227.20
863.47	227.17
863.78	227.13
864.09	227.13
864.40	227.17
864.71	227.21
865.02	227.25
865.33	227.26
865.64	227.25
865.95	227.25
866.27	227.28
866.58	227.26
866.89	227.29
867.20	227.31
867.51	227.31
867.82	227.37
868.13	227.39
868.44	227.38
868.75	227.37
869.06	227.38
869.37	227.38
869.68	227.33
869.99	227.38
870.30	227.44
870.61	227.49
870.92	227.50
871.23	227.52
871.54	227.53
871.85	227.52
872.16	227.52
872.47	227.51
872.78	227.50
873.09	227.54
873.40	227.53
873.71	227.52
874.02	227.55
874.33	227.52
874.64	227.54
874.95	227.54
875.26	227.50
875.56	227.50
875.87	227.53
876.18	227.53
876.49	227.59
876.80	227.55
877.11	227.48
877.42	227.44
877.73	227.35
878.04	227.34
878.35	227.33
878.66	227.35
878.96	227.37
879.27	227.34
879.58	227.26
879.89	227.22
880.20	227.22
880.51	227.17
880.82	227.13
881.12	227.11
881.43	227.08
881.74	227.08
882.05	227.08
882.36	227.05
882.67	227.03
882.97	226.94
883.28	226.92
883.59	226.92
883.90	226.93
884.21	226.97
884.51	226.96
884.82	226.91
885.13	226.89
885.44	226.85
885.74	226.80
886.05	226.82
886.36	226.85
886.67	226.78
886.98	226.85
887.28	226.85
887.59	226.81
887.90	226.82
888.20	226.83
888.51	226.81
888.82	226.79
889.13	226.80
889.43	226.87
889.74	226.86
890.05	226.85
890.35	226.82
890.66	226.80
890.97	226.76
891.28	226.79
891.58	226.76
891.89	226.74
892.20	226.76
892.50	226.72
892.81	226.69
893.12	226.67
893.42	226.61
893.73	226.58
894.04	226.57
894.34	226.58
894.65	226.57
894.95	226.55
895.26	226.53
895.57	226.58
895.87	226.46
896.18	226.46
896.48	226.48
896.79	226.47
897.10	226.48
897.40	226.46
897.71	226.48
898.01	226.47
898.32	226.49
898.63	226.47
898.93	226.48
899.24	226.49
899.54	226.51
899.85	226.47
900.15	226.50
900.46	226.53
900.76	226.52
901.07	226.48
901.38	226.48
901.68	226.52
901.99	226.46
902.29	226.49
902.60	226.50
902.90	226.50
903.21	226.48
903.51	226.47
903.82	226.50
904.12	226.52
904.43	226.53
904.73	226.53
905.03	226.55
905.34	226.66
905.64	226.66
905.95	226.69
906.25	226.72
906.56	226.71
906.86	226.72
907.17	226.70
907.47	226.72
907.77	226.74
908.08	226.73
908.38	226.74
908.69	226.74
908.99	226.76
909.30	226.77
909.60	226.79
909.90	226.83
910.21	226.83
910.51	226.79
910.81	226.82
911.12	226.83
911.42	226.84
911.73	226.75
912.03	226.78
912.33	226.81
912.64	226.84
912.94	226.83
913.24	226.84
913.55	226.89
913.85	226.92
914.15	226.94
914.46	226.95
914.76	226.96
915.06	226.97
915.37	227.00
915.67	226.98
915.97	227.01
916.27	226.98
916.58	227.00
916.88	226.99
917.18	226.97
917.49	227.06
917.79	227.06
918.09	227.05
918.39	227.10
918.70	227.08
919.00	227.04
919.30	227.06
919.60	227.06
919.91	227.01
920.21	227.03
920.51	227.01
920.81	227.01
921.12	227.03
921.42	227.04
921.72	227.00
922.02	227.05
922.32	227.03
922.63	227.03
922.93	227.04
923.23	227.06
923.53	227.05
923.83	226.97
924.13	226.96
924.44	227.00
924.74	226.99
925.04	227.01
925.34	227.01
925.64	227.00
925.94	226.98
926.24	227.02
926.55	226.99
926.85	226.97
927.15	226.94
927.45	226.90
927.75	226.86
928.05	226.87
928.35	226.84
928.65	226.83
928.95	226.82
929.26	226.81
929.56	226.78
929.86	226.79
930.16	226.75
930.46	226.73
930.76	226.69
931.06	226.58
931.36	226.57
931.66	226.59
931.96	226.55
932.26	226.55
932.56	226.51
932.86	226.51
933.16	226.54
933.46	226.50
933.76	226.48
934.06	226.50
934.36	226.53
934.66	226.51
934.96	226.51
935.26	226.52
935.56	226.55
935.86	226.55
936.16	226.53
936.46	226.54
936.76	226.54
937.06	226.54
937.36	226.58
937.66	226.56
937.96	226.56
938.26	226.57
938.56	226.57
938.86	226.58
939.16	226.60
939.46	226.60
939.76	226.62
940.06	226.62
940.35	226.61
940.65	226.58
940.95	226.61
941.25	226.60
941.55	226.59
941.85	226.55
942.15	226.60
942.45	226.63
942.75	226.64
943.04	226.66
943.34	226.68
943.64	226.68
943.94	226.67
944.24	226.67
944.54	226.66
944.84	226.64
945.13	226.62
945.43	226.60
945.73	226.61
946.03	226.61
946.33	226.59
946.62	226.60
946.92	226.54
947.22	226.56
947.52	226.55
947.82	226.57
948.11	226.58
948.41	226.52
948.71	226.52
949.01	226.52
949.31	226.52
949.60	226.51
949.90	226.54
950.20	226.55
950.50	226.58
950.79	226.59
951.09	226.64
951.39	226.64
951.69	226.64
951.98	226.63
952.28	226.64
952.58	226.65
952.87	226.63
953.17	226.67
953.47	226.66
953.76	226.67
954.06	226.64
954.36	226.63
954.66	226.63
954.95	226.61
955.25	226.64
955.55	226.64
955.84	226.63
956.14	226.62
956.44	226.60
956.73	226.56
957.03	226.57
957.32	226.58
957.62	226.55
957.92	226.56
958.21	226.57
958.51	226.68
958.81	226.70
959.10	226.72
959.40	226.74
959.69	226.69
959.99	226.70
960.29	226.72
960.58	226.71
960.88	226.72
961.17	226.69
961.47	226.67
961.76	226.64
962.06	226.65
962.36	226.64
962.65	226.65
962.95	226.67
963.24	226.70
963.54	226.64
963.83	226.64
964.13	226.64
964.42	226.63
964.72	226.56
965.01	226.57
965.31	226.56
965.60	226.52
965.90	226.60
966.19	226.60
966.49	226.59
966.78	226.57
967.08	226.57
967.37	226.59
967.67	226.59
967.96	226.62
968.26	226.60
968.55	226.62
968.85	226.62
969.14	226.60
969.43	226.56
969.73	226.61
970.02	226.64
970.32	226.61
970.61	226.59
970.91	226.58
971.20	226.54
971.49	226.52
971.79	226.53
972.08	226.48
972.38	226.47
972.67	226.45
972.96	226.46
973.26	226.46
973.55	226.48
973.85	226.47
974.14	226.46
974.43	226.46
974.73	226.46
975.02	226.43
975.31	226.46
975.61	226.44
975.90	226.41
976.19	226.36
976.49	226.38
976.78	226.35
977.07	226.34
977.37	226.36
977.66	226.40
977.95	226.39
978.24	226.42
978.54	226.45
978.83	226.48
979.12	226.51
979.42	226.52
979.71	226.51
980.00	226.52
980.29	226.57
980.59	226.56
980.88	226.59
981.17	226.59
981.46	226.59
981.76	226.58
982.05	226.61
982.34	226.65
982.63	226.65
982.93	226.71
983.22	226.72
983.51	226.73
983.80	226.73
984.09	226.77
984.39	226.77
984.68	226.75
984.97	226.75
985.26	226.71
985.55	226.71
985.85	226.71
986.14	226.73
986.43	226.74
986.72	226.75
987.01	226.73
987.30	226.74
987.59	226.74
987.89	226.78
988.18	226.78
988.47	226.77
988.76	226.80
989.05	226.78
989.34	226.77
989.63	226.78
989.92	226.79
990.22	226.80
990.51	226.81
990.80	226.80
991.09	226.80
991.38	226.82
991.67	226.83
991.96	226.81
992.25	226.84
992.54	226.81
992.83	226.79
993.12	226.77
993.41	226.77
993.70	226.81
993.99	226.81
994.28	226.78
994.58	226.81
994.87	226.81
995.16	226.79
995.45	226.79
995.74	226.77
996.03	226.76
996.32	226.73
996.61	226.72
996.90	226.73
997.19	226.73
997.48	226.73
997.77	226.73
998.06	226.73
998.34	226.67
998.63	226.63
998.92	226.64
999.21	226.64
999.50	226.63
999.79	226.64
1000.08	226.65
1000.37	226.64
1000.66	226.61
1000.95	226.61
1001.24	226.62
1001.53	226.63
1001.82	226.60
1002.11	226.55
1002.40	226.57
1002.68	226.60
1002.97	226.66
1003.26	226.63
1003.55	226.61
1003.84	226.59
1004.13	226.63
1004.42	226.64
1004.71	226.65
1004.99	226.63
1005.28	226.63
1005.57	226.63
1005.86	226.56
1006.15	226.55
1006.44	226.56
1006.72	226.54
1007.01	226.49
1007.30	226.47
1007.59	226.47
1007.88	226.47
1008.17	226.51
1008.45	226.48
1008.74	226.44
1009.03	226.36
1009.32	226.37
1009.60	226.35
1009.89	226.33
1010.18	226.32
1010.47	226.31
1010.76	226.32
1011.04	226.33
1011.33	226.33
1011.62	226.31
1011.91	226.31
1012.19	226.29
1012.48	226.30
1012.77	226.31
1013.05	226.39
1013.34	226.42
1013.63	226.37
1013.92	226.41
1014.20	226.36
1014.49	226.36
1014.78	226.35
1015.06	226.36
1015.35	226.35
1015.64	226.37
1015.92	226.40
1016.21	226.39
1016.50	226.40
1016.78	226.41
1017.07	226.43
1017.36	226.43
1017.64	226.45
1017.93	226.45
1018.22	226.43
1018.50	226.41
1018.79	226.43
1019.08	226.39
1019.36	226.38
1019.65	226.42
1019.93	226.45
1020.22	226.48
1020.51	226.51
1020.79	226.50
1021.08	225.88
1021.36	226.27
1021.65	226.49
1021.94	226.52
1022.22	226.55
1022.51	226.72
1022.79	227.40
1023.08	226.89
1023.36	227.22
1023.65	225.83
>>>>>End Processed Spectral Data<<<<<
