SpectraSuite Data File
++++++++++++++++++++++++++++++++++++
Date: Fri Feb 01 16:29:43 EST 2013
User: group
Dark Spectrum Present: No
Reference Spectrum Present: No
Number of Sampled Component Spectra: 1
Spectrometers: USB2E7196
Integration Time (usec): 35000 (USB2E7196)
Spectra Averaged: 100 (USB2E7196)
Boxcar Smoothing: 10 (USB2E7196)
Correct for Electrical Dark: No (USB2E7196)
Strobe/Lamp Enabled: No (USB2E7196)
Correct for Detector Non-linearity: No (USB2E7196)
Correct for Stray Light: No (USB2E7196)
Number of Pixels in Processed Spectrum: 2048
>>>>>Begin Processed Spectral Data<<<<<
339.09	0.00
339.48	214.38
339.86	215.46
340.24	217.18
340.63	218.20
341.01	220.60
341.39	220.76
341.78	222.27
342.16	223.32
342.54	224.13
342.93	212.27
343.31	223.00
343.69	223.50
344.07	223.95
344.46	224.34
344.84	224.70
345.22	224.94
345.60	225.19
345.99	225.38
346.37	225.50
346.75	225.53
347.13	225.64
347.52	225.66
347.90	225.73
348.28	225.76
348.66	225.82
349.05	225.79
349.43	225.83
349.81	225.88
350.19	225.92
350.57	225.97
350.96	226.03
351.34	226.12
351.72	226.22
352.10	226.32
352.48	226.41
352.87	226.47
353.25	226.53
353.63	226.60
354.01	226.65
354.39	226.74
354.77	226.87
355.15	227.00
355.54	227.09
355.92	227.15
356.30	227.21
356.68	227.34
357.06	227.47
357.44	227.52
357.82	227.58
358.20	227.70
358.58	227.78
358.97	227.84
359.35	227.93
359.73	228.02
360.11	228.07
360.49	228.11
360.87	228.17
361.25	228.22
361.63	228.29
362.01	228.36
362.39	228.40
362.77	228.40
363.15	228.41
363.53	228.46
363.91	228.51
364.29	228.54
364.67	228.48
365.05	228.49
365.43	228.51
365.81	228.54
366.19	228.56
366.57	228.59
366.95	228.62
367.33	228.57
367.71	228.58
368.09	228.63
368.47	228.65
368.85	228.64
369.23	228.65
369.61	228.59
369.99	228.58
370.37	228.58
370.75	228.65
371.13	228.62
371.51	228.56
371.89	228.54
372.27	228.51
372.65	228.48
373.03	228.42
373.41	228.38
373.78	228.35
374.16	228.29
374.54	228.24
374.92	228.14
375.30	228.08
375.68	228.00
376.06	227.94
376.44	227.85
376.82	227.78
377.19	227.67
377.57	227.61
377.95	227.50
378.33	227.40
378.71	227.30
379.09	227.20
379.47	227.13
379.84	227.02
380.22	226.92
380.60	226.83
380.98	226.73
381.36	226.65
381.73	226.53
382.11	226.46
382.49	226.39
382.87	226.32
383.25	226.25
383.62	226.31
384.00	226.23
384.38	226.18
384.76	226.14
385.13	226.15
385.51	226.10
385.89	226.07
386.27	226.04
386.64	225.97
387.02	225.92
387.40	225.89
387.78	225.88
388.15	225.86
388.53	225.81
388.91	225.81
389.29	225.77
389.66	225.77
390.04	225.73
390.42	225.73
390.79	225.71
391.17	225.69
391.55	225.53
391.92	225.52
392.30	225.50
392.68	225.47
393.05	225.45
393.43	225.46
393.81	225.43
394.18	225.45
394.56	225.45
394.94	225.46
395.31	225.44
395.69	225.49
396.06	225.51
396.44	225.57
396.82	225.60
397.19	225.67
397.57	225.68
397.95	225.74
398.32	225.75
398.70	225.82
399.07	225.91
399.45	225.98
399.82	226.00
400.20	226.06
400.58	226.11
400.95	226.15
401.33	226.23
401.70	226.39
402.08	226.44
402.45	226.53
402.83	226.68
403.20	226.82
403.58	226.89
403.95	227.05
404.33	227.22
404.71	227.35
405.08	227.54
405.46	227.68
405.83	227.81
406.21	227.98
406.58	228.14
406.96	228.29
407.33	228.48
407.70	228.70
408.08	228.99
408.45	229.24
408.83	229.48
409.20	229.70
409.58	229.88
409.95	230.16
410.33	230.44
410.70	230.64
411.08	230.94
411.45	231.25
411.82	231.53
412.20	231.84
412.57	232.25
412.95	232.54
413.32	232.96
413.69	233.36
414.07	233.75
414.44	234.18
414.82	234.64
415.19	235.20
415.56	235.75
415.94	236.30
416.31	236.91
416.68	237.57
417.06	238.28
417.43	238.97
417.81	239.72
418.18	240.52
418.55	241.40
418.93	242.24
419.30	243.14
419.67	244.10
420.04	245.04
420.42	246.01
420.79	247.21
421.16	248.38
421.54	249.56
421.91	250.81
422.28	252.10
422.66	253.45
423.03	254.74
423.40	256.07
423.77	257.42
424.15	258.84
424.52	260.35
424.89	261.96
425.26	263.52
425.64	264.97
426.01	266.54
426.38	268.15
426.75	269.83
427.13	271.53
427.50	273.30
427.87	275.21
428.24	277.07
428.61	278.78
428.99	280.71
429.36	282.80
429.73	284.83
430.10	286.85
430.47	288.89
430.85	290.99
431.22	293.19
431.59	295.61
431.96	297.87
432.33	300.28
432.70	302.61
433.08	305.37
433.45	307.99
433.82	310.59
434.19	313.48
434.56	316.25
434.93	318.90
435.30	321.49
435.68	324.30
436.05	327.10
436.42	329.86
436.79	332.36
437.16	335.04
437.53	337.87
437.90	340.65
438.27	343.40
438.64	346.23
439.01	348.85
439.38	351.04
439.75	353.17
440.13	355.65
440.50	358.01
440.87	359.87
441.24	361.80
441.61	363.95
441.98	365.42
442.35	367.17
442.72	369.04
443.09	370.86
443.46	371.91
443.83	372.52
444.20	372.99
444.57	373.80
444.94	374.13
445.31	374.46
445.68	374.80
446.05	374.85
446.42	374.44
446.79	373.97
447.16	373.54
447.53	373.24
447.90	372.11
448.27	370.94
448.64	369.39
449.01	368.21
449.37	366.21
449.74	364.34
450.11	362.18
450.48	359.69
450.85	357.17
451.22	355.01
451.59	352.99
451.96	351.09
452.33	348.50
452.70	346.11
453.07	343.26
453.43	340.41
453.80	337.67
454.17	334.97
454.54	332.45
454.91	329.76
455.28	327.08
455.65	324.67
456.02	322.25
456.38	320.14
456.75	317.58
457.12	315.38
457.49	313.19
457.86	311.02
458.23	309.23
458.59	307.22
458.96	305.12
459.33	303.28
459.70	301.49
460.07	300.03
460.43	298.33
460.80	296.73
461.17	295.31
461.54	293.82
461.91	292.44
462.27	291.04
462.64	289.79
463.01	288.48
463.38	287.13
463.74	285.77
464.11	284.57
464.48	283.50
464.85	282.38
465.21	281.53
465.58	280.62
465.95	279.53
466.32	278.60
466.68	277.73
467.05	276.85
467.42	275.94
467.78	275.04
468.15	274.18
468.52	273.56
468.88	272.71
469.25	271.96
469.62	271.38
469.98	270.68
470.35	270.03
470.72	269.45
471.08	268.81
471.45	268.26
471.82	267.72
472.18	267.13
472.55	266.75
472.92	266.22
473.28	265.78
473.65	265.30
474.02	264.85
474.38	264.46
474.75	264.15
475.11	263.78
475.48	263.48
475.85	263.24
476.21	262.99
476.58	262.80
476.94	262.64
477.31	262.46
477.67	262.35
478.04	262.28
478.41	262.20
478.77	262.24
479.14	262.21
479.50	262.25
479.87	262.31
480.23	262.35
480.60	262.41
480.96	262.49
481.33	262.71
481.69	262.94
482.06	263.16
482.42	263.36
482.79	263.66
483.15	263.98
483.52	264.36
483.88	264.70
484.25	265.06
484.61	265.50
484.98	265.97
485.34	266.54
485.71	267.12
486.07	267.74
486.44	268.34
486.80	269.04
487.17	269.76
487.53	270.61
487.90	271.50
488.26	272.43
488.62	273.44
488.99	274.39
489.35	275.44
489.72	276.55
490.08	277.74
490.44	278.98
490.81	280.30
491.17	281.66
491.54	283.17
491.90	284.75
492.26	286.39
492.63	288.13
492.99	289.86
493.36	291.77
493.72	293.80
494.08	295.90
494.45	298.13
494.81	300.50
495.17	302.96
495.54	305.51
495.90	308.19
496.26	311.02
496.63	314.04
496.99	317.15
497.35	320.47
497.72	323.91
498.08	327.40
498.44	331.08
498.80	335.07
499.17	339.16
499.53	343.31
499.89	347.73
500.26	352.23
500.62	356.92
500.98	361.91
501.34	366.97
501.71	372.34
502.07	377.81
502.43	383.46
502.79	389.28
503.16	395.40
503.52	401.70
503.88	408.07
504.24	414.70
504.60	421.60
504.97	428.70
505.33	436.00
505.69	443.75
506.05	451.51
506.41	459.38
506.78	467.52
507.14	476.01
507.50	484.71
507.86	493.76
508.22	502.93
508.59	512.15
508.95	521.76
509.31	531.52
509.67	541.62
510.03	551.88
510.39	562.41
510.75	573.17
511.12	584.08
511.48	595.42
511.84	606.85
512.20	618.37
512.56	630.27
512.92	642.48
513.28	654.76
513.64	667.21
514.00	679.92
514.37	692.87
514.73	705.91
515.09	718.92
515.45	732.16
515.81	745.75
516.17	759.63
516.53	773.72
516.89	787.88
517.25	802.00
517.61	816.40
517.97	830.83
518.33	845.19
518.69	859.99
519.05	874.88
519.41	889.93
519.77	905.46
520.13	920.93
520.49	936.27
520.85	951.67
521.21	967.30
521.57	983.45
521.93	999.10
522.29	1015.43
522.65	1031.55
523.01	1047.64
523.37	1063.62
523.73	1079.80
524.09	1095.81
524.45	1112.08
524.81	1128.69
525.17	1145.43
525.53	1162.33
525.89	1179.20
526.25	1195.85
526.61	1212.21
526.97	1228.93
527.33	1245.31
527.68	1261.85
528.04	1278.19
528.40	1294.66
528.76	1311.69
529.12	1328.27
529.48	1345.12
529.84	1361.03
530.20	1377.64
530.56	1394.71
530.91	1412.04
531.27	1428.69
531.63	1445.07
531.99	1461.53
532.35	1477.29
532.71	1493.02
533.07	1509.06
533.42	1524.71
533.78	1540.72
534.14	1556.85
534.50	1572.07
534.86	1587.83
535.21	1602.87
535.57	1618.69
535.93	1634.03
536.29	1648.78
536.65	1663.53
537.00	1678.08
537.36	1693.25
537.72	1707.69
538.08	1721.78
538.44	1735.47
538.79	1749.27
539.15	1762.87
539.51	1776.44
539.87	1790.76
540.22	1804.44
540.58	1818.11
540.94	1831.29
541.29	1844.11
541.65	1856.84
542.01	1870.05
542.37	1882.22
542.72	1894.48
543.08	1906.15
543.44	1918.52
543.79	1929.65
544.15	1940.71
544.51	1952.33
544.87	1963.35
545.22	1973.99
545.58	1984.26
545.94	1993.87
546.29	2003.50
546.65	2013.30
547.01	2022.41
547.36	2031.02
547.72	2039.50
548.07	2047.24
548.43	2055.51
548.79	2063.44
549.14	2070.77
549.50	2077.91
549.86	2085.59
550.21	2093.01
550.57	2100.15
550.92	2106.64
551.28	2113.67
551.64	2120.65
551.99	2127.03
552.35	2133.04
552.70	2139.18
553.06	2145.20
553.41	2151.50
553.77	2157.47
554.13	2163.51
554.48	2169.82
554.84	2175.32
555.19	2180.38
555.55	2185.57
555.90	2189.93
556.26	2194.87
556.61	2199.62
556.97	2204.00
557.32	2208.01
557.68	2212.04
558.03	2216.25
558.39	2219.93
558.74	2224.47
559.10	2228.20
559.45	2232.02
559.81	2236.29
560.16	2240.16
560.52	2243.36
560.87	2246.95
561.23	2249.78
561.58	2252.78
561.94	2255.23
562.29	2257.50
562.64	2260.37
563.00	2262.90
563.35	2266.45
563.71	2269.43
564.06	2272.81
564.42	2275.79
564.77	2278.39
565.12	2280.74
565.48	2282.78
565.83	2284.70
566.19	2286.09
566.54	2287.05
566.89	2288.06
567.25	2288.65
567.60	2289.98
567.96	2291.69
568.31	2292.50
568.66	2293.65
569.02	2294.16
569.37	2294.55
569.72	2295.53
570.08	2295.72
570.43	2295.97
570.78	2295.49
571.14	2294.06
571.49	2292.65
571.84	2292.29
572.20	2291.34
572.55	2290.30
572.90	2288.73
573.26	2287.48
573.61	2285.95
573.96	2284.32
574.31	2281.42
574.67	2278.67
575.02	2275.17
575.37	2271.79
575.72	2268.08
576.08	2264.84
576.43	2261.69
576.78	2258.04
577.13	2254.97
577.49	2252.01
577.84	2248.51
578.19	2244.87
578.54	2241.48
578.90	2237.31
579.25	2231.88
579.60	2226.86
579.95	2221.91
580.30	2216.94
580.66	2211.81
581.01	2206.83
581.36	2202.08
581.71	2198.08
582.06	2193.60
582.42	2189.10
582.77	2184.04
583.12	2179.50
583.47	2174.81
583.82	2169.96
584.17	2164.80
584.53	2159.29
584.88	2153.63
585.23	2147.99
585.58	2142.70
585.93	2137.20
586.28	2132.40
586.63	2127.23
586.98	2122.38
587.34	2117.74
587.69	2113.03
588.04	2107.78
588.39	2102.18
588.74	2095.74
589.09	2089.57
589.44	2082.75
589.79	2076.92
590.14	2071.35
590.49	2064.85
590.84	2058.54
591.19	2052.42
591.54	2046.13
591.89	2038.87
592.25	2032.06
592.60	2025.00
592.95	2017.30
593.30	2009.93
593.65	2002.53
594.00	1995.68
594.35	1988.41
594.70	1980.53
595.05	1973.38
595.40	1966.19
595.75	1958.74
596.10	1952.63
596.45	1945.93
596.80	1940.01
597.15	1933.40
597.50	1926.32
597.85	1919.97
598.19	1913.33
598.54	1906.20
598.89	1899.53
599.24	1893.74
599.59	1887.20
599.94	1880.94
600.29	1874.62
600.64	1868.07
600.99	1860.58
601.34	1853.80
601.69	1846.84
602.04	1839.90
602.39	1832.61
602.74	1825.80
603.08	1819.03
603.43	1812.30
603.78	1804.98
604.13	1797.57
604.48	1790.18
604.83	1783.39
605.18	1776.38
605.53	1768.41
605.87	1760.57
606.22	1753.45
606.57	1745.39
606.92	1738.03
607.27	1730.85
607.62	1723.96
607.96	1716.74
608.31	1710.21
608.66	1702.57
609.01	1695.12
609.36	1687.53
609.70	1679.47
610.05	1671.49
610.40	1663.85
610.75	1655.45
611.10	1647.82
611.44	1639.59
611.79	1631.73
612.14	1623.04
612.49	1613.94
612.83	1605.53
613.18	1597.35
613.53	1589.03
613.88	1580.48
614.22	1572.22
614.57	1563.56
614.92	1555.61
615.27	1548.04
615.61	1539.74
615.96	1531.79
616.31	1524.15
616.65	1516.87
617.00	1509.22
617.35	1501.54
617.70	1493.28
618.04	1484.75
618.39	1476.60
618.74	1468.88
619.08	1460.42
619.43	1452.83
619.78	1445.82
620.12	1438.70
620.47	1431.27
620.82	1423.22
621.16	1415.87
621.51	1408.27
621.85	1400.72
622.20	1392.15
622.55	1383.73
622.89	1375.89
623.24	1368.18
623.59	1360.69
623.93	1353.13
624.28	1346.05
624.62	1338.56
624.97	1331.37
625.32	1324.72
625.66	1317.63
626.01	1310.53
626.35	1303.14
626.70	1295.32
627.04	1287.66
627.39	1279.80
627.73	1272.40
628.08	1265.57
628.43	1258.29
628.77	1250.90
629.12	1243.41
629.46	1236.26
629.81	1228.92
630.15	1221.64
630.50	1214.23
630.84	1206.03
631.19	1198.05
631.53	1190.47
631.88	1182.79
632.22	1175.15
632.57	1167.67
632.91	1160.24
633.26	1152.76
633.60	1145.43
633.95	1138.47
634.29	1131.41
634.64	1124.75
634.98	1117.36
635.32	1110.06
635.67	1103.47
636.01	1096.84
636.36	1089.91
636.70	1083.42
637.05	1076.83
637.39	1070.43
637.73	1063.88
638.08	1057.96
638.42	1051.95
638.77	1045.46
639.11	1038.96
639.45	1032.54
639.80	1025.95
640.14	1019.50
640.49	1013.01
640.83	1006.66
641.17	1000.33
641.52	993.89
641.86	987.46
642.20	981.53
642.55	975.32
642.89	968.82
643.23	962.23
643.58	956.51
643.92	950.30
644.26	944.23
644.61	938.11
644.95	932.14
645.29	925.55
645.64	918.86
645.98	912.60
646.32	906.67
646.66	900.64
647.01	894.89
647.35	889.16
647.69	883.27
648.04	877.78
648.38	871.99
648.72	866.09
649.06	860.06
649.41	854.22
649.75	848.23
650.09	842.29
650.43	836.54
650.78	830.29
651.12	824.35
651.46	818.62
651.80	812.85
652.14	807.44
652.49	802.10
652.83	796.94
653.17	791.16
653.51	785.47
653.85	780.09
654.20	774.39
654.54	768.34
654.88	762.66
655.22	756.73
655.56	751.03
655.90	745.60
656.25	740.32
656.59	734.91
656.93	729.79
657.27	724.63
657.61	719.22
657.95	714.21
658.29	709.14
658.64	703.88
658.98	698.58
659.32	693.17
659.66	687.95
660.00	682.66
660.34	677.79
660.68	672.91
661.02	667.88
661.36	663.21
661.70	658.67
662.05	654.31
662.39	650.09
662.73	645.63
663.07	641.21
663.41	636.76
663.75	632.26
664.09	627.64
664.43	623.25
664.77	619.13
665.11	614.84
665.45	610.72
665.79	606.63
666.13	602.49
666.47	598.30
666.81	594.15
667.15	590.02
667.49	586.10
667.83	582.28
668.17	578.30
668.51	574.15
668.85	570.24
669.19	566.40
669.53	562.50
669.87	558.60
670.21	554.91
670.55	551.28
670.89	547.85
671.23	544.43
671.57	540.92
671.91	537.36
672.25	533.84
672.58	530.27
672.92	526.82
673.26	523.65
673.60	520.52
673.94	517.43
674.28	514.47
674.62	511.48
674.96	508.35
675.30	505.47
675.64	502.61
675.97	499.78
676.31	496.88
676.65	493.91
676.99	491.22
677.33	488.32
677.67	485.44
678.01	482.41
678.34	479.44
678.68	476.49
679.02	473.62
679.36	470.95
679.70	468.24
680.04	465.56
680.37	462.68
680.71	459.90
681.05	457.29
681.39	454.60
681.73	451.95
682.06	449.43
682.40	446.87
682.74	444.34
683.08	441.80
683.42	439.20
683.75	436.72
684.09	434.16
684.43	431.67
684.77	429.27
685.10	426.92
685.44	424.64
685.78	422.42
686.12	420.22
686.45	417.83
686.79	415.55
687.13	413.34
687.46	411.22
687.80	409.07
688.14	406.84
688.48	404.77
688.81	402.53
689.15	400.44
689.49	398.30
689.82	396.19
690.16	394.07
690.50	392.13
690.83	390.17
691.17	388.17
691.51	386.27
691.84	384.38
692.18	382.51
692.52	380.50
692.85	378.54
693.19	376.67
693.52	374.87
693.86	373.05
694.20	371.26
694.53	369.43
694.87	367.60
695.21	365.77
695.54	363.93
695.88	362.22
696.21	360.43
696.55	358.76
696.88	357.10
697.22	355.45
697.56	353.83
697.89	352.19
698.23	350.58
698.56	348.97
698.90	347.45
699.23	345.78
699.57	344.27
699.90	342.72
700.24	341.13
700.58	339.61
700.91	338.10
701.25	336.64
701.58	335.29
701.92	333.93
702.25	332.58
702.59	331.19
702.92	329.86
703.26	328.56
703.59	327.24
703.93	326.06
704.26	324.81
704.60	323.49
704.93	322.22
705.26	320.97
705.60	319.79
705.93	318.57
706.27	317.49
706.60	316.40
706.94	315.35
707.27	314.27
707.61	313.19
707.94	312.15
708.27	311.06
708.61	309.99
708.94	309.00
709.28	308.05
709.61	307.09
709.94	306.16
710.28	305.15
710.61	304.17
710.95	303.08
711.28	302.19
711.61	301.24
711.95	300.34
712.28	299.45
712.61	298.46
712.95	297.50
713.28	296.62
713.61	295.77
713.95	294.88
714.28	294.04
714.61	293.16
714.95	292.33
715.28	291.44
715.61	290.54
715.95	289.64
716.28	288.79
716.61	288.00
716.95	287.19
717.28	286.45
717.61	285.68
717.94	284.93
718.28	284.11
718.61	283.37
718.94	282.65
719.27	281.98
719.61	281.35
719.94	280.73
720.27	280.02
720.60	279.34
720.94	278.69
721.27	278.08
721.60	277.50
721.93	276.89
722.27	276.37
722.60	275.80
722.93	275.23
723.26	274.68
723.59	274.10
723.93	273.49
724.26	272.93
724.59	272.38
724.92	271.88
725.25	271.41
725.59	270.89
725.92	270.42
726.25	269.92
726.58	269.42
726.91	268.94
727.24	268.46
727.57	268.00
727.91	267.50
728.24	267.03
728.57	266.55
728.90	266.10
729.23	265.57
729.56	265.15
729.89	264.71
730.22	264.19
730.55	263.75
730.89	263.31
731.22	262.86
731.55	262.41
731.88	261.95
732.21	261.51
732.54	261.09
732.87	260.63
733.20	260.23
733.53	259.83
733.86	259.42
734.19	259.07
734.52	258.69
734.85	258.40
735.18	257.99
735.51	257.65
735.84	257.29
736.17	256.98
736.50	256.56
736.83	256.31
737.16	256.01
737.49	255.65
737.82	255.31
738.15	254.99
738.48	254.65
738.81	254.30
739.14	253.97
739.47	253.67
739.80	253.35
740.13	253.04
740.46	252.72
740.79	252.38
741.12	252.07
741.45	251.74
741.78	251.37
742.11	251.09
742.44	250.77
742.77	250.48
743.10	250.16
743.43	249.88
743.75	249.49
744.08	249.32
744.41	249.03
744.74	248.78
745.07	248.50
745.40	248.26
745.73	248.03
746.06	247.76
746.39	247.49
746.71	247.22
747.04	246.91
747.37	246.64
747.70	246.38
748.03	246.11
748.36	245.86
748.68	245.61
749.01	245.34
749.34	245.11
749.67	244.88
750.00	244.65
750.33	244.47
750.65	244.28
750.98	243.95
751.31	243.75
751.64	243.54
751.97	243.39
752.29	243.15
752.62	242.90
752.95	242.68
753.28	242.46
753.60	242.29
753.93	242.16
754.26	241.95
754.59	241.76
754.91	241.60
755.24	241.43
755.57	241.24
755.90	241.07
756.22	240.83
756.55	240.60
756.88	240.42
757.20	240.19
757.53	239.97
757.86	239.79
758.19	239.64
758.51	239.44
758.84	239.19
759.17	239.04
759.49	238.87
759.82	238.78
760.15	238.65
760.47	238.47
760.80	238.28
761.13	238.16
761.45	237.98
761.78	237.83
762.11	237.64
762.43	237.48
762.76	237.33
763.08	237.21
763.41	237.09
763.74	236.96
764.06	236.83
764.39	236.69
764.71	236.53
765.04	236.38
765.37	236.27
765.69	236.15
766.02	236.02
766.34	235.89
766.67	235.69
767.00	235.60
767.32	235.56
767.65	235.46
767.97	235.33
768.30	235.23
768.62	235.12
768.95	235.00
769.27	234.89
769.60	234.78
769.92	234.67
770.25	234.56
770.57	234.44
770.90	234.33
771.22	234.24
771.55	234.16
771.87	234.08
772.20	233.98
772.52	233.96
772.85	234.02
773.17	233.93
773.50	233.87
773.82	233.76
774.15	233.59
774.47	233.46
774.80	233.41
775.12	233.33
775.45	233.26
775.77	233.22
776.09	233.15
776.42	233.06
776.74	233.00
777.07	232.90
777.39	232.84
777.72	232.79
778.04	232.75
778.36	232.69
778.69	232.60
779.01	232.51
779.33	232.36
779.66	232.12
779.98	232.06
780.31	231.95
780.63	231.92
780.95	231.91
781.28	231.87
781.60	231.75
781.92	231.67
782.25	231.58
782.57	231.50
782.89	231.43
783.22	231.38
783.54	231.34
783.86	231.31
784.19	231.21
784.51	231.17
784.83	231.07
785.16	230.99
785.48	230.91
785.80	230.84
786.12	230.82
786.45	230.82
786.77	230.75
787.09	230.76
787.42	230.65
787.74	230.55
788.06	230.50
788.38	230.46
788.71	230.44
789.03	230.42
789.35	230.36
789.67	230.30
789.99	230.25
790.32	230.20
790.64	230.15
790.96	230.22
791.28	230.13
791.61	230.06
791.93	230.03
792.25	230.03
792.57	230.07
792.89	229.99
793.21	229.94
793.54	229.88
793.86	229.80
794.18	229.77
794.50	229.73
794.82	229.67
795.14	229.63
795.47	229.60
795.79	229.54
796.11	229.55
796.43	229.52
796.75	229.52
797.07	229.49
797.39	229.46
797.71	229.34
798.04	229.35
798.36	229.35
798.68	229.34
799.00	229.28
799.32	229.23
799.64	229.23
799.96	229.19
800.28	229.21
800.60	229.20
800.92	229.20
801.24	229.17
801.56	229.16
801.89	229.14
802.21	229.11
802.53	229.05
802.85	229.00
803.17	228.97
803.49	228.92
803.81	228.85
804.13	228.84
804.45	228.83
804.77	228.75
805.09	228.68
805.41	228.62
805.73	228.60
806.05	228.53
806.37	228.51
806.69	228.49
807.01	228.45
807.33	228.42
807.65	228.34
807.97	228.38
808.28	228.35
808.60	228.33
808.92	228.31
809.24	228.34
809.56	228.30
809.88	228.30
810.20	228.27
810.52	228.27
810.84	228.19
811.16	228.13
811.48	228.13
811.80	228.16
812.12	228.13
812.43	228.15
812.75	228.15
813.07	228.12
813.39	228.10
813.71	228.07
814.03	228.04
814.35	228.06
814.67	228.01
814.98	227.98
815.30	227.92
815.62	227.89
815.94	227.82
816.26	227.86
816.58	227.79
816.89	227.81
817.21	227.80
817.53	227.81
817.85	227.82
818.17	227.80
818.48	227.77
818.80	227.78
819.12	227.71
819.44	227.67
819.76	227.65
820.07	227.61
820.39	227.59
820.71	227.55
821.03	227.50
821.34	227.47
821.66	227.49
821.98	227.48
822.30	227.47
822.61	227.50
822.93	227.43
823.25	227.44
823.57	227.40
823.88	227.38
824.20	227.35
824.52	227.36
824.83	227.35
825.15	227.36
825.47	227.35
825.79	227.36
826.10	227.36
826.42	227.33
826.74	227.31
827.05	227.27
827.37	227.30
827.69	227.29
828.00	227.30
828.32	227.25
828.64	227.25
828.95	227.28
829.27	227.28
829.58	227.28
829.90	227.28
830.22	227.29
830.53	227.24
830.85	227.23
831.17	227.20
831.48	227.18
831.80	227.14
832.11	227.12
832.43	227.11
832.75	227.06
833.06	227.13
833.38	227.13
833.69	227.16
834.01	227.13
834.32	227.09
834.64	227.03
834.96	227.04
835.27	227.04
835.59	226.99
835.90	226.94
836.22	226.92
836.53	226.90
836.85	226.86
837.16	226.97
837.48	226.95
837.79	226.99
838.11	226.99
838.42	226.99
838.74	226.99
839.05	226.96
839.37	226.97
839.68	226.90
840.00	226.86
840.31	226.84
840.63	226.85
840.94	226.86
841.26	226.88
841.57	226.88
841.88	226.87
842.20	226.86
842.51	226.83
842.83	226.83
843.14	226.89
843.46	226.90
843.77	226.85
844.08	226.87
844.40	226.82
844.71	226.80
845.03	226.81
845.34	226.79
845.65	226.80
845.97	226.81
846.28	226.80
846.60	226.83
846.91	226.82
847.22	226.83
847.54	226.84
847.85	226.83
848.16	226.80
848.48	226.79
848.79	226.83
849.10	226.86
849.42	226.83
849.73	226.76
850.04	226.72
850.36	226.68
850.67	226.69
850.98	226.69
851.30	226.69
851.61	226.67
851.92	226.70
852.23	226.73
852.55	226.71
852.86	226.68
853.17	226.68
853.49	226.69
853.80	226.69
854.11	226.71
854.42	226.71
854.74	226.69
855.05	226.66
855.36	226.60
855.67	226.58
855.99	226.60
856.30	226.69
856.61	226.69
856.92	226.67
857.23	226.66
857.55	226.59
857.86	226.54
858.17	226.54
858.48	226.48
858.79	226.45
859.11	226.45
859.42	226.48
859.73	226.44
860.04	226.42
860.35	226.36
860.66	226.30
860.98	226.27
861.29	226.28
861.60	226.26
861.91	226.28
862.22	226.26
862.53	226.20
862.84	226.09
863.16	226.12
863.47	226.12
863.78	226.10
864.09	226.15
864.40	226.18
864.71	226.18
865.02	226.18
865.33	226.14
865.64	226.09
865.95	226.09
866.27	226.15
866.58	226.15
866.89	226.17
867.20	226.19
867.51	226.19
867.82	226.20
868.13	226.25
868.44	226.23
868.75	226.28
869.06	226.33
869.37	226.35
869.68	226.32
869.99	226.31
870.30	226.30
870.61	226.32
870.92	226.34
871.23	226.31
871.54	226.34
871.85	226.35
872.16	226.36
872.47	226.34
872.78	226.31
873.09	226.32
873.40	226.34
873.71	226.34
874.02	226.37
874.33	226.32
874.64	226.26
874.95	226.27
875.26	226.23
875.56	226.21
875.87	226.20
876.18	226.20
876.49	226.31
876.80	226.31
877.11	226.28
877.42	226.28
877.73	226.32
878.04	226.30
878.35	226.31
878.66	226.35
878.96	226.38
879.27	226.35
879.58	226.34
879.89	226.32
880.20	226.35
880.51	226.32
880.82	226.36
881.12	226.40
881.43	226.40
881.74	226.43
882.05	226.44
882.36	226.43
882.67	226.49
882.97	226.40
883.28	226.42
883.59	226.42
883.90	226.43
884.21	226.43
884.51	226.42
884.82	226.45
885.13	226.45
885.44	226.44
885.74	226.48
886.05	226.50
886.36	226.52
886.67	226.47
886.98	226.54
887.28	226.52
887.59	226.53
887.90	226.52
888.20	226.50
888.51	226.51
888.82	226.51
889.13	226.48
889.43	226.52
889.74	226.50
890.05	226.51
890.35	226.49
890.66	226.49
890.97	226.47
891.28	226.41
891.58	226.39
891.89	226.41
892.20	226.39
892.50	226.35
892.81	226.32
893.12	226.33
893.42	226.26
893.73	226.28
894.04	226.26
894.34	226.25
894.65	226.26
894.95	226.27
895.26	226.26
895.57	226.31
895.87	226.23
896.18	226.23
896.48	226.22
896.79	226.22
897.10	226.21
897.40	226.20
897.71	226.23
898.01	226.27
898.32	226.26
898.63	226.24
898.93	226.24
899.24	226.26
899.54	226.24
899.85	226.24
900.15	226.24
900.46	226.21
900.76	226.23
901.07	226.19
901.38	226.15
901.68	226.13
901.99	226.07
902.29	226.05
902.60	226.02
902.90	226.01
903.21	226.00
903.51	225.99
903.82	226.01
904.12	226.01
904.43	225.95
904.73	225.94
905.03	225.93
905.34	226.03
905.64	225.99
905.95	225.99
906.25	226.00
906.56	225.99
906.86	226.02
907.17	225.98
907.47	225.99
907.77	225.97
908.08	225.98
908.38	225.99
908.69	226.00
908.99	226.04
909.30	226.03
909.60	226.03
909.90	226.02
910.21	226.04
910.51	225.99
910.81	226.00
911.12	226.03
911.42	226.08
911.73	225.97
912.03	226.01
912.33	226.05
912.64	226.04
912.94	226.04
913.24	226.04
913.55	226.04
913.85	226.06
914.15	226.10
914.46	226.12
914.76	226.11
915.06	226.12
915.37	226.12
915.67	226.15
915.97	226.16
916.27	226.15
916.58	226.15
916.88	226.16
917.18	226.19
917.49	226.21
917.79	226.20
918.09	226.20
918.39	226.23
918.70	226.22
919.00	226.23
919.30	226.27
919.60	226.27
919.91	226.30
920.21	226.31
920.51	226.28
920.81	226.27
921.12	226.32
921.42	226.32
921.72	226.32
922.02	226.32
922.32	226.32
922.63	226.33
922.93	226.40
923.23	226.47
923.53	226.44
923.83	226.40
924.13	226.41
924.44	226.42
924.74	226.42
925.04	226.44
925.34	226.45
925.64	226.41
925.94	226.40
926.24	226.45
926.55	226.43
926.85	226.49
927.15	226.50
927.45	226.46
927.75	226.45
928.05	226.41
928.35	226.42
928.65	226.44
928.95	226.45
929.26	226.38
929.56	226.34
929.86	226.37
930.16	226.37
930.46	226.35
930.76	226.35
931.06	226.30
931.36	226.26
931.66	226.27
931.96	226.26
932.26	226.27
932.56	226.22
932.86	226.23
933.16	226.22
933.46	226.17
933.76	226.16
934.06	226.19
934.36	226.23
934.66	226.20
934.96	226.17
935.26	226.15
935.56	226.16
935.86	226.15
936.16	226.13
936.46	226.06
936.76	226.05
937.06	226.03
937.36	226.05
937.66	226.05
937.96	226.02
938.26	225.98
938.56	225.94
938.86	225.94
939.16	225.93
939.46	225.88
939.76	225.87
940.06	225.89
940.35	225.87
940.65	225.83
940.95	225.87
941.25	225.86
941.55	225.87
941.85	225.85
942.15	225.87
942.45	225.90
942.75	225.92
943.04	225.93
943.34	225.94
943.64	225.89
943.94	225.90
944.24	225.92
944.54	225.96
944.84	225.95
945.13	225.94
945.43	225.96
945.73	225.99
946.03	226.02
946.33	225.98
946.62	225.96
946.92	225.95
947.22	225.92
947.52	225.94
947.82	225.93
948.11	225.93
948.41	225.93
948.71	225.89
949.01	225.93
949.31	225.92
949.60	225.90
949.90	225.94
950.20	225.91
950.50	225.89
950.79	225.91
951.09	225.94
951.39	225.94
951.69	225.92
951.98	225.96
952.28	225.98
952.58	226.00
952.87	226.01
953.17	226.05
953.47	226.03
953.76	226.02
954.06	226.05
954.36	226.06
954.66	226.04
954.95	226.09
955.25	226.07
955.55	226.10
955.84	226.14
956.14	226.14
956.44	226.19
956.73	226.24
957.03	226.24
957.32	226.25
957.62	226.27
957.92	226.29
958.21	226.29
958.51	226.39
958.81	226.43
959.10	226.45
959.40	226.47
959.69	226.52
959.99	226.57
960.29	226.57
960.58	226.57
960.88	226.61
961.17	226.58
961.47	226.60
961.76	226.58
962.06	226.55
962.36	226.56
962.65	226.55
962.95	226.53
963.24	226.48
963.54	226.48
963.83	226.44
964.13	226.44
964.42	226.40
964.72	226.35
965.01	226.34
965.31	226.34
965.60	226.30
965.90	226.34
966.19	226.30
966.49	226.29
966.78	226.28
967.08	226.24
967.37	226.22
967.67	226.22
967.96	226.23
968.26	226.26
968.55	226.25
968.85	226.24
969.14	226.23
969.43	226.28
969.73	226.25
970.02	226.26
970.32	226.23
970.61	226.23
970.91	226.16
971.20	226.14
971.49	226.11
971.79	226.13
972.08	226.04
972.38	226.04
972.67	226.01
972.96	226.03
973.26	226.03
973.55	226.05
973.85	226.01
974.14	225.98
974.43	225.96
974.73	225.95
975.02	225.94
975.31	225.94
975.61	225.91
975.90	225.92
976.19	225.88
976.49	225.90
976.78	225.94
977.07	225.97
977.37	225.99
977.66	225.98
977.95	225.93
978.24	225.94
978.54	225.94
978.83	225.94
979.12	225.89
979.42	225.91
979.71	225.88
980.00	225.88
980.29	225.89
980.59	225.87
980.88	225.88
981.17	225.89
981.46	225.89
981.76	225.92
982.05	225.95
982.34	225.99
982.63	225.99
982.93	225.94
983.22	225.93
983.51	225.91
983.80	225.93
984.09	225.95
984.39	225.94
984.68	225.93
984.97	225.93
985.26	225.94
985.55	225.93
985.85	225.94
986.14	225.94
986.43	225.96
986.72	225.94
987.01	225.94
987.30	225.92
987.59	225.90
987.89	225.90
988.18	225.85
988.47	225.82
988.76	225.80
989.05	225.82
989.34	225.81
989.63	225.86
989.92	225.87
990.22	225.89
990.51	225.92
990.80	225.91
991.09	225.92
991.38	225.95
991.67	225.94
991.96	225.94
992.25	226.00
992.54	226.00
992.83	226.02
993.12	225.99
993.41	226.04
993.70	226.07
993.99	226.09
994.28	226.13
994.58	226.18
994.87	226.18
995.16	226.15
995.45	226.15
995.74	226.11
996.03	226.12
996.32	226.12
996.61	226.14
996.90	226.16
997.19	226.15
997.48	226.14
997.77	226.14
998.06	226.14
998.34	226.11
998.63	226.09
998.92	226.10
999.21	226.12
999.50	226.10
999.79	226.07
1000.08	226.08
1000.37	226.08
1000.66	226.04
1000.95	226.08
1001.24	226.11
1001.53	226.13
1001.82	226.14
1002.11	226.12
1002.40	226.12
1002.68	226.13
1002.97	226.18
1003.26	226.19
1003.55	226.16
1003.84	226.15
1004.13	226.20
1004.42	226.22
1004.71	226.24
1004.99	226.25
1005.28	226.28
1005.57	226.28
1005.86	226.31
1006.15	226.30
1006.44	226.28
1006.72	226.31
1007.01	226.27
1007.30	226.27
1007.59	226.27
1007.88	226.26
1008.17	226.25
1008.45	226.24
1008.74	226.19
1009.03	226.16
1009.32	226.17
1009.60	226.16
1009.89	226.17
1010.18	226.11
1010.47	226.12
1010.76	226.10
1011.04	226.10
1011.33	226.09
1011.62	226.10
1011.91	226.09
1012.19	226.09
1012.48	226.06
1012.77	226.05
1013.05	226.10
1013.34	226.09
1013.63	226.05
1013.92	226.04
1014.20	226.07
1014.49	226.09
1014.78	226.12
1015.06	226.07
1015.35	226.04
1015.64	226.07
1015.92	226.07
1016.21	226.07
1016.50	226.01
1016.78	226.02
1017.07	226.01
1017.36	225.98
1017.64	225.96
1017.93	225.96
1018.22	225.91
1018.50	225.92
1018.79	225.93
1019.08	225.90
1019.36	225.86
1019.65	225.86
1019.93	225.88
1020.22	225.85
1020.51	225.88
1020.79	225.84
1021.08	225.58
1021.36	225.59
1021.65	226.34
1021.94	226.20
1022.22	225.32
1022.51	225.70
1022.79	226.06
1023.08	225.69
1023.36	227.04
1023.65	225.77
>>>>>End Processed Spectral Data<<<<<
