SpectraSuite Data File
++++++++++++++++++++++++++++++++++++
Date: Fri Feb 01 14:53:49 EST 2013
User: group
Dark Spectrum Present: No
Reference Spectrum Present: No
Number of Sampled Component Spectra: 1
Spectrometers: USB2E7196
Integration Time (usec): 35000 (USB2E7196)
Spectra Averaged: 100 (USB2E7196)
Boxcar Smoothing: 10 (USB2E7196)
Correct for Electrical Dark: No (USB2E7196)
Strobe/Lamp Enabled: No (USB2E7196)
Correct for Detector Non-linearity: No (USB2E7196)
Correct for Stray Light: No (USB2E7196)
Number of Pixels in Processed Spectrum: 2048
>>>>>Begin Processed Spectral Data<<<<<
339.09	0.00
339.48	215.12
339.86	217.01
340.24	217.99
340.63	219.03
341.01	222.00
341.39	222.90
341.78	223.71
342.16	224.93
342.54	225.70
342.93	213.62
343.31	224.44
343.69	225.01
344.07	225.48
344.46	225.93
344.84	226.34
345.22	226.61
345.60	226.83
345.99	227.03
346.37	227.14
346.75	227.21
347.13	227.27
347.52	227.34
347.90	227.38
348.28	227.39
348.66	227.42
349.05	227.43
349.43	227.48
349.81	227.54
350.19	227.57
350.57	227.64
350.96	227.71
351.34	227.78
351.72	227.83
352.10	227.93
352.48	227.97
352.87	228.03
353.25	228.07
353.63	228.12
354.01	228.18
354.39	228.24
354.77	228.34
355.15	228.47
355.54	228.55
355.92	228.62
356.30	228.70
356.68	228.87
357.06	228.93
357.44	228.97
357.82	229.02
358.20	229.11
358.58	229.20
358.97	229.25
359.35	229.32
359.73	229.41
360.11	229.45
360.49	229.53
360.87	229.56
361.25	229.63
361.63	229.72
362.01	229.75
362.39	229.81
362.77	229.83
363.15	229.84
363.53	229.83
363.91	229.87
364.29	229.88
364.67	229.78
365.05	229.80
365.43	229.82
365.81	229.84
366.19	229.86
366.57	229.88
366.95	229.88
367.33	229.81
367.71	229.77
368.09	229.78
368.47	229.76
368.85	229.71
369.23	229.70
369.61	229.63
369.99	229.62
370.37	229.60
370.75	229.64
371.13	229.58
371.51	229.55
371.89	229.47
372.27	229.45
372.65	229.38
373.03	229.31
373.41	229.21
373.78	229.14
374.16	229.04
374.54	228.95
374.92	228.87
375.30	228.81
375.68	228.72
376.06	228.62
376.44	228.51
376.82	228.43
377.19	228.32
377.57	228.25
377.95	228.15
378.33	228.05
378.71	227.87
379.09	227.79
379.47	227.71
379.84	227.63
380.22	227.52
380.60	227.43
380.98	227.36
381.36	227.31
381.73	227.23
382.11	227.18
382.49	227.06
382.87	226.98
383.25	226.91
383.62	226.98
384.00	226.91
384.38	226.88
384.76	226.88
385.13	226.84
385.51	226.77
385.89	226.73
386.27	226.67
386.64	226.63
387.02	226.57
387.40	226.52
387.78	226.48
388.15	226.47
388.53	226.44
388.91	226.42
389.29	226.36
389.66	226.34
390.04	226.27
390.42	226.28
390.79	226.25
391.17	226.27
391.55	226.16
391.92	226.16
392.30	226.18
392.68	226.15
393.05	226.17
393.43	226.18
393.81	226.17
394.18	226.15
394.56	226.20
394.94	226.28
395.31	226.30
395.69	226.35
396.06	226.40
396.44	226.45
396.82	226.49
397.19	226.61
397.57	226.63
397.95	226.73
398.32	226.76
398.70	226.85
399.07	226.92
399.45	226.99
399.82	227.05
400.20	227.12
400.58	227.20
400.95	227.27
401.33	227.37
401.70	227.55
402.08	227.68
402.45	227.80
402.83	227.92
403.20	228.06
403.58	228.18
403.95	228.29
404.33	228.44
404.71	228.59
405.08	228.79
405.46	228.98
405.83	229.12
406.21	229.28
406.58	229.46
406.96	229.63
407.33	229.83
407.70	230.06
408.08	230.32
408.45	230.57
408.83	230.84
409.20	231.07
409.58	231.27
409.95	231.56
410.33	231.82
410.70	232.06
411.08	232.35
411.45	232.71
411.82	233.05
412.20	233.43
412.57	233.84
412.95	234.12
413.32	234.51
413.69	234.95
414.07	235.39
414.44	235.84
414.82	236.30
415.19	236.82
415.56	237.36
415.94	237.90
416.31	238.56
416.68	239.16
417.06	239.86
417.43	240.54
417.81	241.28
418.18	242.09
418.55	242.93
418.93	243.80
419.30	244.66
419.67	245.59
420.04	246.55
420.42	247.52
420.79	248.70
421.16	249.85
421.54	251.04
421.91	252.26
422.28	253.51
422.66	254.86
423.03	256.18
423.40	257.51
423.77	258.91
424.15	260.29
424.52	261.76
424.89	263.36
425.26	264.87
425.64	266.33
426.01	267.89
426.38	269.52
426.75	271.19
427.13	272.89
427.50	274.71
427.87	276.54
428.24	278.44
428.61	280.18
428.99	282.13
429.36	284.19
429.73	286.27
430.10	288.35
430.47	290.40
430.85	292.49
431.22	294.76
431.59	297.17
431.96	299.42
432.33	301.94
432.70	304.36
433.08	307.18
433.45	309.86
433.82	312.48
434.19	315.41
434.56	318.25
434.93	320.95
435.30	323.55
435.68	326.52
436.05	329.33
436.42	332.15
436.79	334.67
437.16	337.37
437.53	340.20
437.90	342.97
438.27	345.74
438.64	348.59
439.01	351.14
439.38	353.37
439.75	355.54
440.13	358.03
440.50	360.33
440.87	362.16
441.24	364.09
441.61	366.23
441.98	367.70
442.35	369.50
442.72	371.32
443.09	373.13
443.46	374.07
443.83	374.65
444.20	375.14
444.57	375.96
444.94	376.29
445.31	376.61
445.68	376.96
446.05	377.04
446.42	376.64
446.79	376.27
447.16	375.81
447.53	375.46
447.90	374.31
448.27	373.18
448.64	371.60
449.01	370.45
449.37	368.50
449.74	366.58
450.11	364.30
450.48	361.85
450.85	359.35
451.22	357.18
451.59	355.15
451.96	353.17
452.33	350.61
452.70	348.24
453.07	345.39
453.43	342.49
453.80	339.77
454.17	337.10
454.54	334.52
454.91	331.80
455.28	329.13
455.65	326.63
456.02	324.17
456.38	322.02
456.75	319.32
457.12	317.07
457.49	314.86
457.86	312.72
458.23	310.88
458.59	308.80
458.96	306.74
459.33	304.94
459.70	303.09
460.07	301.55
460.43	299.83
460.80	298.25
461.17	296.83
461.54	295.26
461.91	293.83
462.27	292.42
462.64	291.20
463.01	289.87
463.38	288.59
463.74	287.16
464.11	286.03
464.48	285.04
464.85	283.92
465.21	283.06
465.58	282.10
465.95	281.01
466.32	280.09
466.68	279.19
467.05	278.25
467.42	277.37
467.78	276.42
468.15	275.55
468.52	274.87
468.88	274.00
469.25	273.23
469.62	272.61
469.98	271.88
470.35	271.19
470.72	270.61
471.08	269.94
471.45	269.43
471.82	268.89
472.18	268.22
472.55	267.80
472.92	267.28
473.28	266.82
473.65	266.37
474.02	265.91
474.38	265.52
474.75	265.20
475.11	264.85
475.48	264.58
475.85	264.30
476.21	264.07
476.58	263.88
476.94	263.73
477.31	263.53
477.67	263.40
478.04	263.30
478.41	263.18
478.77	263.21
479.14	263.12
479.50	263.11
479.87	263.24
480.23	263.32
480.60	263.35
480.96	263.42
481.33	263.58
481.69	263.76
482.06	263.97
482.42	264.13
482.79	264.36
483.15	264.70
483.52	265.10
483.88	265.42
484.25	265.79
484.61	266.19
484.98	266.64
485.34	267.18
485.71	267.74
486.07	268.35
486.44	268.85
486.80	269.53
487.17	270.19
487.53	270.95
487.90	271.77
488.26	272.69
488.62	273.65
488.99	274.65
489.35	275.67
489.72	276.76
490.08	277.94
490.44	279.18
490.81	280.45
491.17	281.73
491.54	283.18
491.90	284.67
492.26	286.30
492.63	288.03
492.99	289.74
493.36	291.59
493.72	293.62
494.08	295.73
494.45	297.96
494.81	300.31
495.17	302.74
495.54	305.24
495.90	307.88
496.26	310.66
496.63	313.57
496.99	316.62
497.35	319.85
497.72	323.19
498.08	326.67
498.44	330.27
498.80	334.22
499.17	338.20
499.53	342.35
499.89	346.71
500.26	351.12
500.62	355.77
500.98	360.76
501.34	365.78
501.71	371.09
502.07	376.49
502.43	382.06
502.79	387.82
503.16	393.86
503.52	400.08
503.88	406.44
504.24	413.04
504.60	419.88
504.97	426.96
505.33	434.27
505.69	441.96
506.05	449.73
506.41	457.58
506.78	465.74
507.14	474.20
507.50	482.91
507.86	491.91
508.22	501.14
508.59	510.30
508.95	519.88
509.31	529.62
509.67	539.71
510.03	550.00
510.39	560.55
510.75	571.34
511.12	582.27
511.48	593.60
511.84	605.01
512.20	616.54
512.56	628.53
512.92	640.68
513.28	652.98
513.64	665.56
514.00	678.26
514.37	691.18
514.73	704.20
515.09	717.21
515.45	730.52
515.81	744.10
516.17	758.02
516.53	772.15
516.89	786.32
517.25	800.55
517.61	815.04
517.97	829.49
518.33	843.96
518.69	858.87
519.05	873.85
519.41	889.07
519.77	904.67
520.13	920.11
520.49	935.48
520.85	950.92
521.21	966.59
521.57	982.87
521.93	998.72
522.29	1015.23
522.65	1031.56
523.01	1047.90
523.37	1064.01
523.73	1080.33
524.09	1096.51
524.45	1112.94
524.81	1129.54
525.17	1146.41
525.53	1163.43
525.89	1180.38
526.25	1197.12
526.61	1213.53
526.97	1230.34
527.33	1246.84
527.68	1263.57
528.04	1280.21
528.40	1296.94
528.76	1314.05
529.12	1330.71
529.48	1347.64
529.84	1363.68
530.20	1380.32
530.56	1397.38
530.91	1414.64
531.27	1431.39
531.63	1447.90
531.99	1464.44
532.35	1480.62
532.71	1496.48
533.07	1512.74
533.42	1528.65
533.78	1544.83
534.14	1561.13
534.50	1576.57
534.86	1592.54
535.21	1607.73
535.57	1623.78
535.93	1639.42
536.29	1654.24
536.65	1669.52
537.00	1684.31
537.36	1699.68
537.72	1714.37
538.08	1728.83
538.44	1742.85
538.79	1756.89
539.15	1770.64
539.51	1784.49
539.87	1798.89
540.22	1812.77
540.58	1826.68
540.94	1840.05
541.29	1853.10
541.65	1865.95
542.01	1879.32
542.37	1891.65
542.72	1904.09
543.08	1915.87
543.44	1928.21
543.79	1939.50
544.15	1950.35
544.51	1962.02
544.87	1973.00
545.22	1983.84
545.58	1994.07
545.94	2003.81
546.29	2013.78
546.65	2023.53
547.01	2032.78
547.36	2041.46
547.72	2049.94
548.07	2057.73
548.43	2066.05
548.79	2074.01
549.14	2081.53
549.50	2088.86
549.86	2096.72
550.21	2104.08
550.57	2111.27
550.92	2117.85
551.28	2125.02
551.64	2132.05
551.99	2138.59
552.35	2144.76
552.70	2150.79
553.06	2156.75
553.41	2163.04
553.77	2168.90
554.13	2175.03
554.48	2181.10
554.84	2186.53
555.19	2191.81
555.55	2196.85
555.90	2201.32
556.26	2206.07
556.61	2210.63
556.97	2214.64
557.32	2218.61
557.68	2222.70
558.03	2226.94
558.39	2230.59
558.74	2234.93
559.10	2238.74
559.45	2242.15
559.81	2246.29
560.16	2249.91
560.52	2253.07
560.87	2256.62
561.23	2259.08
561.58	2262.01
561.94	2264.47
562.29	2266.83
562.64	2269.41
563.00	2272.04
563.35	2275.40
563.71	2278.49
564.06	2281.67
564.42	2284.54
564.77	2286.93
565.12	2289.00
565.48	2290.68
565.83	2292.30
566.19	2293.62
566.54	2294.58
566.89	2295.71
567.25	2296.27
567.60	2297.49
567.96	2298.97
568.31	2299.41
568.66	2300.40
569.02	2300.75
569.37	2300.96
569.72	2301.47
570.08	2301.30
570.43	2301.05
570.78	2300.03
571.14	2298.28
571.49	2296.77
571.84	2296.14
572.20	2294.63
572.55	2293.38
572.90	2291.59
573.26	2290.07
573.61	2288.14
573.96	2286.04
574.31	2282.71
574.67	2279.34
575.02	2275.56
575.37	2271.96
575.72	2267.95
576.08	2264.52
576.43	2261.06
576.78	2257.22
577.13	2253.85
577.49	2250.61
577.84	2247.04
578.19	2243.18
578.54	2239.32
578.90	2234.86
579.25	2229.19
579.60	2224.18
579.95	2219.04
580.30	2213.92
580.66	2208.51
581.01	2203.50
581.36	2198.41
581.71	2194.22
582.06	2189.67
582.42	2185.17
582.77	2179.75
583.12	2175.09
583.47	2170.24
583.82	2165.01
584.17	2159.52
584.53	2153.95
584.88	2148.18
585.23	2142.15
585.58	2136.61
585.93	2130.99
586.28	2126.19
586.63	2120.95
586.98	2115.77
587.34	2111.09
587.69	2105.93
588.04	2100.63
588.39	2094.65
588.74	2088.10
589.09	2081.87
589.44	2074.96
589.79	2068.60
590.14	2062.72
590.49	2056.02
590.84	2049.33
591.19	2043.09
591.54	2036.46
591.89	2028.87
592.25	2021.86
592.60	2014.59
592.95	2006.82
593.30	1999.43
593.65	1991.65
594.00	1984.47
594.35	1977.13
594.70	1968.72
595.05	1961.53
595.40	1954.21
595.75	1946.57
596.10	1940.17
596.45	1933.14
596.80	1926.85
597.15	1920.15
597.50	1913.08
597.85	1906.38
598.19	1899.74
598.54	1892.71
598.89	1886.01
599.24	1880.05
599.59	1873.41
599.94	1867.08
600.29	1860.77
600.64	1854.08
600.99	1846.55
601.34	1839.76
601.69	1832.77
602.04	1825.89
602.39	1818.48
602.74	1811.38
603.08	1804.78
603.43	1798.12
603.78	1790.85
604.13	1783.73
604.48	1776.46
604.83	1769.63
605.18	1762.89
605.53	1754.88
605.87	1746.86
606.22	1739.64
606.57	1731.78
606.92	1724.43
607.27	1717.26
607.62	1710.33
607.96	1703.11
608.31	1696.55
608.66	1688.89
609.01	1681.38
609.36	1673.91
609.70	1665.98
610.05	1658.15
610.40	1650.55
610.75	1642.19
611.10	1634.67
611.44	1626.37
611.79	1618.49
612.14	1609.87
612.49	1600.77
612.83	1592.60
613.18	1584.61
613.53	1576.73
613.88	1568.24
614.22	1560.12
614.57	1551.83
614.92	1543.82
615.27	1536.38
615.61	1528.11
615.96	1520.20
616.31	1512.51
616.65	1505.14
617.00	1497.58
617.35	1489.97
617.70	1481.72
618.04	1473.23
618.39	1465.01
618.74	1457.38
619.08	1449.24
619.43	1441.83
619.78	1435.09
620.12	1427.88
620.47	1420.31
620.82	1412.21
621.16	1404.84
621.51	1397.23
621.85	1389.54
622.20	1381.15
622.55	1372.82
622.89	1365.02
623.24	1357.58
623.59	1350.38
623.93	1343.04
624.28	1335.88
624.62	1328.45
624.97	1321.24
625.32	1314.59
625.66	1307.62
626.01	1300.48
626.35	1293.01
626.70	1285.27
627.04	1277.55
627.39	1269.80
627.73	1262.46
628.08	1255.51
628.43	1248.30
628.77	1240.92
629.12	1233.32
629.46	1226.25
629.81	1218.87
630.15	1211.81
630.50	1204.43
630.84	1196.31
631.19	1188.46
631.53	1181.11
631.88	1173.54
632.22	1165.99
632.57	1158.76
632.91	1151.33
633.26	1144.02
633.60	1136.65
633.95	1129.63
634.29	1122.65
634.64	1116.12
634.98	1108.82
635.32	1101.75
635.67	1095.25
636.01	1088.81
636.36	1082.09
636.70	1075.54
637.05	1069.13
637.39	1062.66
637.73	1056.16
638.08	1050.31
638.42	1044.32
638.77	1037.90
639.11	1031.39
639.45	1025.08
639.80	1018.43
640.14	1012.09
640.49	1005.59
640.83	999.49
641.17	993.33
641.52	986.99
641.86	980.59
642.20	974.83
642.55	968.65
642.89	962.13
643.23	955.55
643.58	949.87
643.92	943.80
644.26	937.73
644.61	931.75
644.95	925.82
645.29	919.28
645.64	912.61
645.98	906.31
646.32	900.54
646.66	894.61
647.01	888.91
647.35	883.18
647.69	877.41
648.04	871.89
648.38	866.23
648.72	860.31
649.06	854.24
649.41	848.40
649.75	842.42
650.09	836.57
650.43	830.89
650.78	824.80
651.12	818.79
651.46	813.07
651.80	807.32
652.14	801.99
652.49	796.69
652.83	791.55
653.17	785.89
653.51	780.22
653.85	774.82
654.20	769.28
654.54	763.41
654.88	757.74
655.22	751.88
655.56	746.17
655.90	740.77
656.25	735.61
656.59	730.27
656.93	725.21
657.27	720.15
657.61	714.76
657.95	709.70
658.29	704.75
658.64	699.60
658.98	694.40
659.32	688.93
659.66	683.70
660.00	678.48
660.34	673.61
660.68	668.72
661.02	663.72
661.36	658.99
661.70	654.51
662.05	650.26
662.39	645.96
662.73	641.47
663.07	637.08
663.41	632.66
663.75	628.21
664.09	623.68
664.43	619.31
664.77	615.22
665.11	611.03
665.45	606.98
665.79	602.93
666.13	598.83
666.47	594.81
666.81	590.71
667.15	586.61
667.49	582.78
667.83	579.09
668.17	575.28
668.51	571.32
668.85	567.39
669.19	563.50
669.53	559.73
669.87	555.92
670.21	552.30
670.55	548.74
670.89	545.38
671.23	542.09
671.57	538.63
671.91	535.15
672.25	531.72
672.58	528.22
672.92	524.87
673.26	521.83
673.60	518.73
673.94	515.67
674.28	512.78
674.62	509.80
674.96	506.71
675.30	503.78
675.64	500.90
675.97	498.07
676.31	495.28
676.65	492.39
676.99	489.75
677.33	486.97
677.67	484.13
678.01	481.11
678.34	478.07
678.68	475.23
679.02	472.47
679.36	469.69
679.70	467.04
680.04	464.34
680.37	461.46
680.71	458.67
681.05	456.14
681.39	453.45
681.73	450.87
682.06	448.36
682.40	445.89
682.74	443.36
683.08	440.85
683.42	438.22
683.75	435.75
684.09	433.21
684.43	430.72
684.77	428.30
685.10	425.99
685.44	423.78
685.78	421.50
686.12	419.23
686.45	416.94
686.79	414.65
687.13	412.51
687.46	410.36
687.80	408.23
688.14	406.00
688.48	403.97
688.81	401.72
689.15	399.59
689.49	397.43
689.82	395.35
690.16	393.28
690.50	391.36
690.83	389.45
691.17	387.46
691.51	385.59
691.84	383.76
692.18	381.82
692.52	379.82
692.85	377.94
693.19	376.11
693.52	374.38
693.86	372.55
694.20	370.77
694.53	368.95
694.87	367.14
695.21	365.38
695.54	363.56
695.88	361.87
696.21	360.16
696.55	358.51
696.88	356.82
697.22	355.19
697.56	353.61
697.89	351.96
698.23	350.42
698.56	348.80
698.90	347.21
699.23	345.63
699.57	344.14
699.90	342.59
700.24	341.06
700.58	339.52
700.91	338.07
701.25	336.61
701.58	335.30
701.92	333.94
702.25	332.61
702.59	331.28
702.92	330.00
703.26	328.70
703.59	327.43
703.93	326.32
704.26	325.08
704.60	323.76
704.93	322.51
705.26	321.26
705.60	320.09
705.93	318.99
706.27	317.98
706.60	316.92
706.94	315.90
707.27	314.80
707.61	313.78
707.94	312.80
708.27	311.72
708.61	310.62
708.94	309.64
709.28	308.66
709.61	307.69
709.94	306.77
710.28	305.75
710.61	304.77
710.95	303.73
711.28	302.84
711.61	301.95
711.95	301.03
712.28	300.09
712.61	299.19
712.95	298.27
713.28	297.41
713.61	296.53
713.95	295.63
714.28	294.75
714.61	293.89
714.95	293.02
715.28	292.21
715.61	291.35
715.95	290.49
716.28	289.67
716.61	288.88
716.95	288.08
717.28	287.39
717.61	286.62
717.94	285.86
718.28	285.09
718.61	284.37
718.94	283.69
719.27	283.04
719.61	282.35
719.94	281.72
720.27	281.01
720.60	280.35
720.94	279.74
721.27	279.17
721.60	278.61
721.93	278.01
722.27	277.45
722.60	276.90
722.93	276.33
723.26	275.75
723.59	275.20
723.93	274.62
724.26	274.05
724.59	273.54
724.92	273.00
725.25	272.51
725.59	272.00
725.92	271.53
726.25	271.00
726.58	270.53
726.91	270.02
727.24	269.50
727.57	269.00
727.91	268.49
728.24	267.99
728.57	267.50
728.90	267.09
729.23	266.58
729.56	266.13
729.89	265.71
730.22	265.24
730.55	264.74
730.89	264.34
731.22	263.90
731.55	263.45
731.88	263.02
732.21	262.59
732.54	262.15
732.87	261.67
733.20	261.27
733.53	260.90
733.86	260.52
734.19	260.14
734.52	259.76
734.85	259.45
735.18	259.04
735.51	258.63
735.84	258.25
736.17	257.89
736.50	257.51
736.83	257.24
737.16	256.89
737.49	256.55
737.82	256.15
738.15	255.77
738.48	255.46
738.81	255.13
739.14	254.77
739.47	254.46
739.80	254.16
740.13	253.86
740.46	253.49
740.79	253.14
741.12	252.83
741.45	252.53
741.78	252.21
742.11	251.95
742.44	251.64
742.77	251.35
743.10	251.08
743.43	250.77
743.75	250.38
744.08	250.23
744.41	249.99
744.74	249.75
745.07	249.49
745.40	249.22
745.73	248.99
746.06	248.76
746.39	248.50
746.71	248.24
747.04	247.96
747.37	247.73
747.70	247.51
748.03	247.26
748.36	247.04
748.68	246.81
749.01	246.54
749.34	246.32
749.67	246.06
750.00	245.82
750.33	245.68
750.65	245.49
750.98	245.14
751.31	244.90
751.64	244.68
751.97	244.51
752.29	244.31
752.62	244.08
752.95	243.86
753.28	243.66
753.60	243.45
753.93	243.28
754.26	243.04
754.59	242.81
754.91	242.60
755.24	242.40
755.57	242.16
755.90	241.95
756.22	241.75
756.55	241.59
756.88	241.41
757.20	241.16
757.53	240.97
757.86	240.84
758.19	240.71
758.51	240.55
758.84	240.33
759.17	240.19
759.49	240.00
759.82	239.87
760.15	239.73
760.47	239.61
760.80	239.46
761.13	239.34
761.45	239.21
761.78	239.10
762.11	238.95
762.43	238.82
762.76	238.69
763.08	238.62
763.41	238.51
763.74	238.34
764.06	238.23
764.39	238.08
764.71	237.93
765.04	237.79
765.37	237.69
765.69	237.60
766.02	237.45
766.34	237.34
766.67	237.16
767.00	237.04
767.32	236.97
767.65	236.91
767.97	236.83
768.30	236.72
768.62	236.58
768.95	236.47
769.27	236.34
769.60	236.25
769.92	236.08
770.25	235.92
770.57	235.81
770.90	235.70
771.22	235.58
771.55	235.48
771.87	235.34
772.20	235.19
772.52	235.15
772.85	235.17
773.17	235.06
773.50	234.99
773.82	234.88
774.15	234.76
774.47	234.58
774.80	234.45
775.12	234.36
775.45	234.27
775.77	234.18
776.09	234.14
776.42	234.06
776.74	234.02
777.07	233.93
777.39	233.87
777.72	233.79
778.04	233.74
778.36	233.66
778.69	233.61
779.01	233.57
779.33	233.42
779.66	233.26
779.98	233.20
780.31	233.13
780.63	233.11
780.95	233.05
781.28	233.00
781.60	232.94
781.92	232.88
782.25	232.85
782.57	232.81
782.89	232.70
783.22	232.64
783.54	232.57
783.86	232.55
784.19	232.48
784.51	232.46
784.83	232.38
785.16	232.31
785.48	232.29
785.80	232.23
786.12	232.19
786.45	232.11
786.77	232.10
787.09	232.02
787.42	231.96
787.74	231.91
788.06	231.86
788.38	231.84
788.71	231.77
789.03	231.72
789.35	231.69
789.67	231.66
789.99	231.66
790.32	231.62
790.64	231.61
790.96	231.66
791.28	231.57
791.61	231.57
791.93	231.52
792.25	231.45
792.57	231.50
792.89	231.46
793.21	231.45
793.54	231.36
793.86	231.33
794.18	231.28
794.50	231.24
794.82	231.24
795.14	231.21
795.47	231.22
795.79	231.18
796.11	231.12
796.43	231.08
796.75	231.03
797.07	230.99
797.39	230.95
797.71	230.85
798.04	230.82
798.36	230.77
798.68	230.78
799.00	230.78
799.32	230.68
799.64	230.67
799.96	230.64
800.28	230.68
800.60	230.70
800.92	230.66
801.24	230.63
801.56	230.58
801.89	230.56
802.21	230.54
802.53	230.52
802.85	230.53
803.17	230.55
803.49	230.50
803.81	230.43
804.13	230.38
804.45	230.36
804.77	230.33
805.09	230.30
805.41	230.24
805.73	230.18
806.05	230.13
806.37	230.11
806.69	230.07
807.01	230.01
807.33	229.96
807.65	229.90
807.97	229.90
808.28	229.83
808.60	229.79
808.92	229.73
809.24	229.77
809.56	229.72
809.88	229.65
810.20	229.62
810.52	229.65
810.84	229.61
811.16	229.53
811.48	229.52
811.80	229.50
812.12	229.47
812.43	229.48
812.75	229.44
813.07	229.40
813.39	229.37
813.71	229.36
814.03	229.31
814.35	229.30
814.67	229.23
814.98	229.21
815.30	229.20
815.62	229.13
815.94	229.04
816.26	229.03
816.58	229.00
816.89	228.99
817.21	228.93
817.53	228.89
817.85	228.89
818.17	228.86
818.48	228.82
818.80	228.83
819.12	228.79
819.44	228.76
819.76	228.72
820.07	228.71
820.39	228.67
820.71	228.67
821.03	228.65
821.34	228.66
821.66	228.64
821.98	228.63
822.30	228.64
822.61	228.67
822.93	228.63
823.25	228.62
823.57	228.61
823.88	228.61
824.20	228.62
824.52	228.63
824.83	228.60
825.15	228.58
825.47	228.53
825.79	228.49
826.10	228.47
826.42	228.46
826.74	228.43
827.05	228.38
827.37	228.39
827.69	228.37
828.00	228.35
828.32	228.34
828.64	228.33
828.95	228.41
829.27	228.36
829.58	228.33
829.90	228.33
830.22	228.31
830.53	228.29
830.85	228.27
831.17	228.23
831.48	228.25
831.80	228.25
832.11	228.26
832.43	228.26
832.75	228.26
833.06	228.31
833.38	228.29
833.69	228.29
834.01	228.31
834.32	228.31
834.64	228.30
834.96	228.31
835.27	228.28
835.59	228.24
835.90	228.24
836.22	228.23
836.53	228.22
836.85	228.23
837.16	228.34
837.48	228.35
837.79	228.39
838.11	228.39
838.42	228.40
838.74	228.41
839.05	228.42
839.37	228.47
839.68	228.41
840.00	228.40
840.31	228.43
840.63	228.38
840.94	228.39
841.26	228.36
841.57	228.35
841.88	228.38
842.20	228.40
842.51	228.38
842.83	228.43
843.14	228.46
843.46	228.45
843.77	228.39
844.08	228.38
844.40	228.31
844.71	228.30
845.03	228.30
845.34	228.29
845.65	228.26
845.97	228.25
846.28	228.26
846.60	228.28
846.91	228.26
847.22	228.27
847.54	228.28
847.85	228.29
848.16	228.27
848.48	228.22
848.79	228.21
849.10	228.21
849.42	228.17
849.73	228.13
850.04	228.10
850.36	228.07
850.67	228.09
850.98	228.11
851.30	228.11
851.61	228.08
851.92	228.07
852.23	228.08
852.55	228.03
852.86	228.04
853.17	228.02
853.49	228.03
853.80	228.02
854.11	228.01
854.42	228.02
854.74	228.01
855.05	227.99
855.36	227.93
855.67	227.93
855.99	227.91
856.30	227.99
856.61	227.98
856.92	227.94
857.23	227.94
857.55	227.90
857.86	227.88
858.17	227.88
858.48	227.89
858.79	227.87
859.11	227.89
859.42	227.86
859.73	227.83
860.04	227.85
860.35	227.84
860.66	227.79
860.98	227.78
861.29	227.78
861.60	227.75
861.91	227.76
862.22	227.74
862.53	227.73
862.84	227.65
863.16	227.68
863.47	227.70
863.78	227.66
864.09	227.69
864.40	227.71
864.71	227.71
865.02	227.69
865.33	227.70
865.64	227.71
865.95	227.70
866.27	227.78
866.58	227.74
866.89	227.74
867.20	227.77
867.51	227.74
867.82	227.73
868.13	227.80
868.44	227.78
868.75	227.82
869.06	227.85
869.37	227.83
869.68	227.80
869.99	227.80
870.30	227.80
870.61	227.80
870.92	227.77
871.23	227.76
871.54	227.76
871.85	227.76
872.16	227.75
872.47	227.75
872.78	227.72
873.09	227.72
873.40	227.72
873.71	227.74
874.02	227.74
874.33	227.73
874.64	227.72
874.95	227.75
875.26	227.73
875.56	227.71
875.87	227.71
876.18	227.70
876.49	227.81
876.80	227.81
877.11	227.80
877.42	227.86
877.73	227.87
878.04	227.88
878.35	227.87
878.66	227.90
878.96	227.90
879.27	227.87
879.58	227.85
879.89	227.84
880.20	227.83
880.51	227.81
880.82	227.85
881.12	227.85
881.43	227.82
881.74	227.80
882.05	227.81
882.36	227.81
882.67	227.80
882.97	227.70
883.28	227.68
883.59	227.70
883.90	227.65
884.21	227.64
884.51	227.65
884.82	227.63
885.13	227.62
885.44	227.61
885.74	227.63
886.05	227.62
886.36	227.60
886.67	227.58
886.98	227.64
887.28	227.62
887.59	227.61
887.90	227.62
888.20	227.62
888.51	227.65
888.82	227.63
889.13	227.65
889.43	227.70
889.74	227.71
890.05	227.68
890.35	227.68
890.66	227.67
890.97	227.65
891.28	227.66
891.58	227.66
891.89	227.65
892.20	227.62
892.50	227.62
892.81	227.63
893.12	227.64
893.42	227.57
893.73	227.59
894.04	227.55
894.34	227.55
894.65	227.55
894.95	227.52
895.26	227.53
895.57	227.56
895.87	227.48
896.18	227.45
896.48	227.51
896.79	227.49
897.10	227.51
897.40	227.48
897.71	227.50
898.01	227.47
898.32	227.48
898.63	227.47
898.93	227.48
899.24	227.48
899.54	227.43
899.85	227.46
900.15	227.42
900.46	227.42
900.76	227.40
901.07	227.36
901.38	227.34
901.68	227.34
901.99	227.28
902.29	227.27
902.60	227.27
902.90	227.21
903.21	227.20
903.51	227.21
903.82	227.25
904.12	227.19
904.43	227.21
904.73	227.21
905.03	227.22
905.34	227.30
905.64	227.30
905.95	227.32
906.25	227.31
906.56	227.32
906.86	227.32
907.17	227.34
907.47	227.35
907.77	227.36
908.08	227.35
908.38	227.36
908.69	227.38
908.99	227.39
909.30	227.40
909.60	227.40
909.90	227.39
910.21	227.36
910.51	227.40
910.81	227.38
911.12	227.40
911.42	227.41
911.73	227.35
912.03	227.34
912.33	227.42
912.64	227.42
912.94	227.43
913.24	227.44
913.55	227.45
913.85	227.46
914.15	227.50
914.46	227.50
914.76	227.47
915.06	227.48
915.37	227.46
915.67	227.47
915.97	227.50
916.27	227.48
916.58	227.52
916.88	227.53
917.18	227.53
917.49	227.57
917.79	227.58
918.09	227.59
918.39	227.63
918.70	227.57
919.00	227.56
919.30	227.60
919.60	227.56
919.91	227.52
920.21	227.51
920.51	227.47
920.81	227.48
921.12	227.55
921.42	227.56
921.72	227.60
922.02	227.59
922.32	227.57
922.63	227.59
922.93	227.61
923.23	227.58
923.53	227.58
923.83	227.49
924.13	227.49
924.44	227.47
924.74	227.47
925.04	227.50
925.34	227.49
925.64	227.45
925.94	227.47
926.24	227.55
926.55	227.54
926.85	227.57
927.15	227.57
927.45	227.57
927.75	227.55
928.05	227.54
928.35	227.53
928.65	227.56
928.95	227.56
929.26	227.52
929.56	227.52
929.86	227.54
930.16	227.53
930.46	227.52
930.76	227.51
931.06	227.46
931.36	227.42
931.66	227.43
931.96	227.44
932.26	227.47
932.56	227.46
932.86	227.46
933.16	227.45
933.46	227.44
933.76	227.41
934.06	227.43
934.36	227.45
934.66	227.46
934.96	227.46
935.26	227.43
935.56	227.43
935.86	227.44
936.16	227.42
936.46	227.43
936.76	227.40
937.06	227.43
937.36	227.44
937.66	227.43
937.96	227.45
938.26	227.44
938.56	227.40
938.86	227.39
939.16	227.41
939.46	227.42
939.76	227.42
940.06	227.45
940.35	227.42
940.65	227.39
940.95	227.39
941.25	227.35
941.55	227.38
941.85	227.37
942.15	227.39
942.45	227.42
942.75	227.43
943.04	227.42
943.34	227.43
943.64	227.42
943.94	227.43
944.24	227.41
944.54	227.42
944.84	227.44
945.13	227.39
945.43	227.38
945.73	227.37
946.03	227.36
946.33	227.32
946.62	227.35
946.92	227.35
947.22	227.34
947.52	227.33
947.82	227.33
948.11	227.31
948.41	227.29
948.71	227.27
949.01	227.28
949.31	227.30
949.60	227.27
949.90	227.31
950.20	227.31
950.50	227.34
950.79	227.33
951.09	227.33
951.39	227.36
951.69	227.34
951.98	227.38
952.28	227.35
952.58	227.38
952.87	227.36
953.17	227.37
953.47	227.38
953.76	227.40
954.06	227.39
954.36	227.40
954.66	227.39
954.95	227.44
955.25	227.44
955.55	227.47
955.84	227.48
956.14	227.48
956.44	227.50
956.73	227.46
957.03	227.48
957.32	227.50
957.62	227.48
957.92	227.51
958.21	227.51
958.51	227.65
958.81	227.65
959.10	227.65
959.40	227.67
959.69	227.67
959.99	227.70
960.29	227.66
960.58	227.65
960.88	227.68
961.17	227.64
961.47	227.64
961.76	227.59
962.06	227.60
962.36	227.56
962.65	227.58
962.95	227.56
963.24	227.56
963.54	227.52
963.83	227.55
964.13	227.52
964.42	227.47
964.72	227.38
965.01	227.37
965.31	227.34
965.60	227.30
965.90	227.36
966.19	227.33
966.49	227.36
966.78	227.35
967.08	227.37
967.37	227.39
967.67	227.37
967.96	227.42
968.26	227.37
968.55	227.42
968.85	227.38
969.14	227.40
969.43	227.36
969.73	227.38
970.02	227.34
970.32	227.38
970.61	227.36
970.91	227.31
971.20	227.32
971.49	227.34
971.79	227.35
972.08	227.30
972.38	227.32
972.67	227.32
972.96	227.34
973.26	227.31
973.55	227.33
973.85	227.34
974.14	227.29
974.43	227.34
974.73	227.32
975.02	227.31
975.31	227.27
975.61	227.28
975.90	227.28
976.19	227.27
976.49	227.24
976.78	227.28
977.07	227.30
977.37	227.33
977.66	227.33
977.95	227.34
978.24	227.33
978.54	227.34
978.83	227.33
979.12	227.31
979.42	227.30
979.71	227.22
980.00	227.21
980.29	227.23
980.59	227.17
980.88	227.19
981.17	227.22
981.46	227.23
981.76	227.22
982.05	227.24
982.34	227.26
982.63	227.24
982.93	227.20
983.22	227.22
983.51	227.19
983.80	227.20
984.09	227.17
984.39	227.16
984.68	227.13
984.97	227.13
985.26	227.14
985.55	227.15
985.85	227.15
986.14	227.15
986.43	227.14
986.72	227.14
987.01	227.10
987.30	227.09
987.59	227.06
987.89	227.06
988.18	227.02
988.47	227.01
988.76	227.00
989.05	227.00
989.34	227.01
989.63	227.04
989.92	227.00
990.22	227.03
990.51	227.05
990.80	227.06
991.09	227.06
991.38	227.10
991.67	227.11
991.96	227.11
992.25	227.13
992.54	227.12
992.83	227.12
993.12	227.15
993.41	227.16
993.70	227.21
993.99	227.25
994.28	227.26
994.58	227.29
994.87	227.32
995.16	227.34
995.45	227.33
995.74	227.33
996.03	227.34
996.32	227.32
996.61	227.33
996.90	227.34
997.19	227.36
997.48	227.32
997.77	227.27
998.06	227.28
998.34	227.28
998.63	227.31
998.92	227.33
999.21	227.32
999.50	227.36
999.79	227.32
1000.08	227.31
1000.37	227.31
1000.66	227.31
1000.95	227.33
1001.24	227.33
1001.53	227.33
1001.82	227.30
1002.11	227.31
1002.40	227.32
1002.68	227.32
1002.97	227.40
1003.26	227.39
1003.55	227.38
1003.84	227.44
1004.13	227.48
1004.42	227.48
1004.71	227.46
1004.99	227.46
1005.28	227.50
1005.57	227.47
1005.86	227.49
1006.15	227.47
1006.44	227.45
1006.72	227.43
1007.01	227.38
1007.30	227.38
1007.59	227.38
1007.88	227.38
1008.17	227.41
1008.45	227.38
1008.74	227.37
1009.03	227.32
1009.32	227.29
1009.60	227.32
1009.89	227.29
1010.18	227.21
1010.47	227.22
1010.76	227.21
1011.04	227.23
1011.33	227.22
1011.62	227.21
1011.91	227.21
1012.19	227.23
1012.48	227.23
1012.77	227.25
1013.05	227.31
1013.34	227.31
1013.63	227.26
1013.92	227.25
1014.20	227.22
1014.49	227.21
1014.78	227.16
1015.06	227.14
1015.35	227.12
1015.64	227.13
1015.92	227.12
1016.21	227.14
1016.50	227.16
1016.78	227.16
1017.07	227.14
1017.36	227.10
1017.64	227.10
1017.93	227.10
1018.22	227.09
1018.50	227.10
1018.79	227.08
1019.08	227.04
1019.36	227.06
1019.65	227.08
1019.93	227.11
1020.22	227.13
1020.51	227.18
1020.79	227.18
1021.08	227.15
1021.36	226.98
1021.65	227.21
1021.94	227.11
1022.22	227.37
1022.51	226.93
1022.79	227.57
1023.08	227.47
1023.36	227.97
1023.65	226.69
>>>>>End Processed Spectral Data<<<<<
