SpectraSuite Data File
++++++++++++++++++++++++++++++++++++
Date: Fri Feb 01 16:22:09 EST 2013
User: group
Dark Spectrum Present: No
Reference Spectrum Present: No
Number of Sampled Component Spectra: 1
Spectrometers: USB2E7196
Integration Time (usec): 35000 (USB2E7196)
Spectra Averaged: 100 (USB2E7196)
Boxcar Smoothing: 10 (USB2E7196)
Correct for Electrical Dark: No (USB2E7196)
Strobe/Lamp Enabled: No (USB2E7196)
Correct for Detector Non-linearity: No (USB2E7196)
Correct for Stray Light: No (USB2E7196)
Number of Pixels in Processed Spectrum: 2048
>>>>>Begin Processed Spectral Data<<<<<
339.09	0.00
339.48	214.55
339.86	215.90
340.24	216.50
340.63	218.36
341.01	221.03
341.39	220.91
341.78	222.38
342.16	223.53
342.54	223.44
342.93	212.46
343.31	223.16
343.69	223.67
344.07	224.10
344.46	224.55
344.84	224.93
345.22	225.15
345.60	225.41
345.99	225.58
346.37	225.71
346.75	225.85
347.13	225.90
347.52	225.96
347.90	226.04
348.28	226.07
348.66	226.10
349.05	226.10
349.43	226.13
349.81	226.14
350.19	226.17
350.57	226.22
350.96	226.28
351.34	226.37
351.72	226.44
352.10	226.53
352.48	226.61
352.87	226.66
353.25	226.71
353.63	226.76
354.01	226.80
354.39	226.86
354.77	226.90
355.15	226.97
355.54	227.00
355.92	227.03
356.30	227.10
356.68	227.22
357.06	227.29
357.44	227.33
357.82	227.40
358.20	227.49
358.58	227.54
358.97	227.62
359.35	227.72
359.73	227.80
360.11	227.85
360.49	227.87
360.87	227.91
361.25	228.00
361.63	228.07
362.01	228.13
362.39	228.16
362.77	228.23
363.15	228.26
363.53	228.32
363.91	228.36
364.29	228.37
364.67	228.30
365.05	228.32
365.43	228.35
365.81	228.37
366.19	228.39
366.57	228.45
366.95	228.44
367.33	228.44
367.71	228.42
368.09	228.44
368.47	228.45
368.85	228.42
369.23	228.46
369.61	228.41
369.99	228.44
370.37	228.42
370.75	228.42
371.13	228.36
371.51	228.31
371.89	228.26
372.27	228.25
372.65	228.22
373.03	228.17
373.41	228.14
373.78	228.07
374.16	227.97
374.54	227.90
374.92	227.87
375.30	227.76
375.68	227.70
376.06	227.66
376.44	227.56
376.82	227.50
377.19	227.43
377.57	227.37
377.95	227.27
378.33	227.18
378.71	227.10
379.09	227.06
379.47	227.02
379.84	226.95
380.22	226.89
380.60	226.82
380.98	226.75
381.36	226.65
381.73	226.59
382.11	226.58
382.49	226.49
382.87	226.36
383.25	226.33
383.62	226.41
384.00	226.33
384.38	226.30
384.76	226.27
385.13	226.23
385.51	226.17
385.89	226.13
386.27	226.13
386.64	226.08
387.02	226.03
387.40	225.98
387.78	225.94
388.15	225.87
388.53	225.81
388.91	225.79
389.29	225.81
389.66	225.82
390.04	225.75
390.42	225.77
390.79	225.80
391.17	225.80
391.55	225.64
391.92	225.62
392.30	225.62
392.68	225.63
393.05	225.60
393.43	225.58
393.81	225.60
394.18	225.58
394.56	225.57
394.94	225.60
395.31	225.62
395.69	225.66
396.06	225.70
396.44	225.75
396.82	225.77
397.19	225.83
397.57	225.84
397.95	225.92
398.32	225.91
398.70	225.97
399.07	226.02
399.45	226.11
399.82	226.18
400.20	226.22
400.58	226.23
400.95	226.26
401.33	226.38
401.70	226.49
402.08	226.56
402.45	226.67
402.83	226.77
403.20	226.88
403.58	226.92
403.95	227.08
404.33	227.21
404.71	227.33
405.08	227.50
405.46	227.63
405.83	227.77
406.21	227.92
406.58	228.06
406.96	228.21
407.33	228.36
407.70	228.56
408.08	228.83
408.45	229.05
408.83	229.32
409.20	229.55
409.58	229.72
409.95	229.99
410.33	230.24
410.70	230.50
411.08	230.79
411.45	231.13
411.82	231.40
412.20	231.73
412.57	232.14
412.95	232.43
413.32	232.84
413.69	233.23
414.07	233.68
414.44	234.15
414.82	234.63
415.19	235.19
415.56	235.71
415.94	236.27
416.31	236.87
416.68	237.48
417.06	238.16
417.43	238.84
417.81	239.60
418.18	240.40
418.55	241.23
418.93	242.09
419.30	243.01
419.67	243.93
420.04	244.89
420.42	245.85
420.79	246.99
421.16	248.11
421.54	249.32
421.91	250.54
422.28	251.76
422.66	253.09
423.03	254.40
423.40	255.75
423.77	257.12
424.15	258.60
424.52	260.09
424.89	261.71
425.26	263.26
425.64	264.72
426.01	266.33
426.38	267.98
426.75	269.69
427.13	271.43
427.50	273.24
427.87	275.11
428.24	276.99
428.61	278.74
428.99	280.71
429.36	282.82
429.73	284.83
430.10	286.85
430.47	288.94
430.85	291.04
431.22	293.27
431.59	295.65
431.96	297.85
432.33	300.33
432.70	302.70
433.08	305.47
433.45	308.08
433.82	310.63
434.19	313.53
434.56	316.34
434.93	318.93
435.30	321.56
435.68	324.41
436.05	327.24
436.42	330.04
436.79	332.54
437.16	335.22
437.53	338.11
437.90	340.94
438.27	343.65
438.64	346.46
439.01	349.03
439.38	351.28
439.75	353.44
440.13	355.93
440.50	358.21
440.87	360.13
441.24	362.09
441.61	364.25
441.98	365.67
442.35	367.40
442.72	369.29
443.09	371.09
443.46	372.10
443.83	372.70
444.20	373.22
444.57	374.06
444.94	374.33
445.31	374.66
445.68	375.03
446.05	375.08
446.42	374.70
446.79	374.30
447.16	373.83
447.53	373.54
447.90	372.36
448.27	371.22
448.64	369.64
449.01	368.47
449.37	366.51
449.74	364.66
450.11	362.44
450.48	359.96
450.85	357.45
451.22	355.32
451.59	353.30
451.96	351.31
452.33	348.69
452.70	346.32
453.07	343.49
453.43	340.52
453.80	337.78
454.17	335.13
454.54	332.55
454.91	329.82
455.28	327.15
455.65	324.70
456.02	322.30
456.38	320.13
456.75	317.50
457.12	315.28
457.49	313.06
457.86	310.89
458.23	309.04
458.59	306.99
458.96	304.93
459.33	303.06
459.70	301.23
460.07	299.75
460.43	298.03
460.80	296.42
461.17	295.05
461.54	293.55
461.91	292.12
462.27	290.74
462.64	289.54
463.01	288.20
463.38	286.92
463.74	285.54
464.11	284.36
464.48	283.38
464.85	282.28
465.21	281.40
465.58	280.48
465.95	279.37
466.32	278.48
466.68	277.62
467.05	276.76
467.42	275.90
467.78	275.02
468.15	274.21
468.52	273.56
468.88	272.68
469.25	271.93
469.62	271.32
469.98	270.62
470.35	269.99
470.72	269.37
471.08	268.68
471.45	268.13
471.82	267.61
472.18	266.99
472.55	266.53
472.92	266.00
473.28	265.54
473.65	265.13
474.02	264.67
474.38	264.28
474.75	263.95
475.11	263.60
475.48	263.30
475.85	263.04
476.21	262.83
476.58	262.66
476.94	262.48
477.31	262.30
477.67	262.15
478.04	262.05
478.41	262.01
478.77	262.11
479.14	262.05
479.50	262.05
479.87	262.15
480.23	262.24
480.60	262.37
480.96	262.48
481.33	262.67
481.69	262.86
482.06	263.07
482.42	263.27
482.79	263.51
483.15	263.82
483.52	264.21
483.88	264.58
484.25	264.99
484.61	265.46
484.98	265.93
485.34	266.48
485.71	267.10
486.07	267.74
486.44	268.30
486.80	269.05
487.17	269.82
487.53	270.62
487.90	271.47
488.26	272.39
488.62	273.38
488.99	274.36
489.35	275.43
489.72	276.55
490.08	277.79
490.44	279.07
490.81	280.43
491.17	281.76
491.54	283.22
491.90	284.75
492.26	286.41
492.63	288.13
492.99	289.95
493.36	291.83
493.72	293.85
494.08	295.91
494.45	298.15
494.81	300.52
495.17	302.99
495.54	305.61
495.90	308.30
496.26	311.14
496.63	314.15
496.99	317.28
497.35	320.54
497.72	323.93
498.08	327.45
498.44	331.10
498.80	335.09
499.17	339.13
499.53	343.33
499.89	347.71
500.26	352.25
500.62	356.94
500.98	361.93
501.34	367.04
501.71	372.43
502.07	377.97
502.43	383.57
502.79	389.40
503.16	395.45
503.52	401.73
503.88	408.17
504.24	414.86
504.60	421.79
504.97	428.97
505.33	436.30
505.69	444.00
506.05	451.85
506.41	459.76
506.78	467.95
507.14	476.40
507.50	485.11
507.86	494.12
508.22	503.32
508.59	512.51
508.95	522.09
509.31	531.91
509.67	541.96
510.03	552.29
510.39	562.82
510.75	573.66
511.12	584.60
511.48	595.85
511.84	607.25
512.20	618.74
512.56	630.64
512.92	642.93
513.28	655.31
513.64	667.74
514.00	680.45
514.37	693.40
514.73	706.44
515.09	719.49
515.45	732.85
515.81	746.37
516.17	760.35
516.53	774.43
516.89	788.62
517.25	802.78
517.61	817.15
517.97	831.60
518.33	845.98
518.69	860.69
519.05	875.69
519.41	890.78
519.77	906.29
520.13	921.65
520.49	936.92
520.85	952.28
521.21	967.99
521.57	984.11
521.93	999.74
522.29	1016.07
522.65	1032.16
523.01	1048.30
523.37	1064.28
523.73	1080.37
524.09	1096.42
524.45	1112.55
524.81	1129.12
525.17	1145.88
525.53	1162.75
525.89	1179.64
526.25	1196.48
526.61	1212.75
526.97	1229.49
527.33	1245.83
527.68	1262.41
528.04	1278.80
528.40	1295.33
528.76	1312.27
529.12	1328.86
529.48	1345.75
529.84	1361.67
530.20	1378.34
530.56	1395.31
530.91	1412.76
531.27	1429.50
531.63	1445.94
531.99	1462.47
532.35	1478.28
532.71	1494.13
533.07	1510.26
533.42	1526.06
533.78	1542.01
534.14	1558.35
534.50	1573.60
534.86	1589.52
535.21	1604.75
535.57	1620.73
535.93	1636.12
536.29	1650.87
536.65	1665.76
537.00	1680.46
537.36	1695.72
537.72	1710.20
538.08	1724.48
538.44	1738.14
538.79	1751.99
539.15	1765.60
539.51	1779.30
539.87	1793.55
540.22	1807.15
540.58	1820.86
540.94	1834.08
541.29	1846.90
541.65	1859.42
542.01	1872.47
542.37	1884.65
542.72	1896.94
543.08	1908.47
543.44	1920.76
543.79	1931.91
544.15	1942.93
544.51	1954.44
544.87	1965.33
545.22	1976.01
545.58	1986.09
545.94	1995.82
546.29	2005.55
546.65	2015.20
547.01	2024.56
547.36	2033.35
547.72	2041.73
548.07	2049.57
548.43	2057.65
548.79	2065.67
549.14	2073.07
549.50	2080.45
549.86	2088.18
550.21	2095.31
550.57	2102.53
550.92	2109.19
551.28	2116.19
551.64	2123.25
551.99	2129.75
552.35	2135.83
552.70	2142.07
553.06	2148.11
553.41	2154.45
553.77	2160.49
554.13	2166.64
554.48	2172.66
554.84	2178.07
555.19	2183.46
555.55	2188.58
555.90	2192.96
556.26	2197.80
556.61	2202.59
556.97	2206.88
557.32	2210.82
557.68	2215.06
558.03	2219.35
558.39	2222.96
558.74	2227.66
559.10	2231.49
559.45	2235.11
559.81	2239.46
560.16	2243.29
560.52	2246.57
560.87	2249.93
561.23	2252.59
561.58	2255.54
561.94	2257.99
562.29	2260.42
562.64	2263.12
563.00	2265.66
563.35	2269.29
563.71	2272.35
564.06	2275.57
564.42	2278.49
564.77	2281.11
565.12	2283.42
565.48	2285.29
565.83	2287.26
566.19	2288.58
566.54	2289.51
566.89	2290.77
567.25	2291.35
567.60	2292.54
567.96	2294.10
568.31	2295.03
568.66	2296.19
569.02	2296.74
569.37	2297.20
569.72	2298.05
570.08	2298.07
570.43	2298.09
570.78	2297.49
571.14	2296.02
571.49	2294.66
571.84	2294.39
572.20	2293.31
572.55	2292.34
572.90	2290.75
573.26	2289.30
573.61	2287.58
573.96	2285.85
574.31	2282.83
574.67	2279.96
575.02	2276.51
575.37	2273.22
575.72	2269.36
576.08	2266.03
576.43	2262.78
576.78	2259.13
577.13	2255.91
577.49	2252.91
577.84	2249.53
578.19	2245.94
578.54	2242.46
578.90	2238.29
579.25	2232.62
579.60	2227.75
579.95	2222.71
580.30	2217.79
580.66	2212.75
581.01	2207.89
581.36	2203.07
581.71	2198.95
582.06	2194.48
582.42	2190.11
582.77	2185.08
583.12	2180.67
583.47	2176.03
583.82	2171.10
584.17	2165.94
584.53	2160.58
584.88	2155.06
585.23	2149.42
585.58	2143.92
585.93	2138.43
586.28	2133.83
586.63	2128.93
586.98	2123.89
587.34	2119.27
587.69	2114.47
588.04	2109.15
588.39	2103.49
588.74	2097.03
589.09	2090.96
589.44	2084.36
589.79	2078.39
590.14	2072.63
590.49	2066.09
590.84	2059.81
591.19	2053.82
591.54	2047.36
591.89	2040.01
592.25	2033.30
592.60	2026.22
592.95	2018.70
593.30	2011.42
593.65	2003.73
594.00	1996.77
594.35	1989.58
594.70	1981.55
595.05	1974.45
595.40	1967.30
595.75	1959.79
596.10	1953.63
596.45	1946.90
596.80	1940.70
597.15	1934.00
597.50	1927.06
597.85	1920.63
598.19	1913.91
598.54	1906.84
598.89	1900.24
599.24	1894.38
599.59	1887.75
599.94	1881.53
600.29	1875.26
600.64	1868.72
600.99	1861.42
601.34	1854.59
601.69	1847.70
602.04	1840.99
602.39	1833.65
602.74	1826.85
603.08	1820.24
603.43	1813.56
603.78	1806.33
604.13	1799.17
604.48	1791.94
604.83	1785.11
605.18	1778.12
605.53	1770.12
605.87	1762.16
606.22	1755.05
606.57	1747.15
606.92	1739.81
607.27	1732.57
607.62	1725.65
607.96	1718.43
608.31	1711.85
608.66	1704.20
609.01	1696.61
609.36	1688.86
609.70	1680.82
610.05	1672.84
610.40	1665.14
610.75	1656.77
611.10	1649.09
611.44	1640.70
611.79	1632.66
612.14	1623.85
612.49	1614.67
612.83	1606.28
613.18	1598.07
613.53	1589.80
613.88	1581.29
614.22	1572.96
614.57	1564.38
614.92	1556.36
615.27	1548.78
615.61	1540.43
615.96	1532.38
616.31	1524.70
616.65	1517.39
617.00	1509.76
617.35	1501.96
617.70	1493.64
618.04	1485.09
618.39	1476.79
618.74	1469.06
619.08	1460.78
619.43	1453.26
619.78	1446.42
620.12	1439.30
620.47	1431.87
620.82	1423.66
621.16	1416.11
621.51	1408.52
621.85	1400.83
622.20	1392.27
622.55	1383.82
622.89	1375.96
623.24	1368.38
623.59	1361.02
623.93	1353.43
624.28	1346.23
624.62	1338.71
624.97	1331.46
625.32	1324.70
625.66	1317.71
626.01	1310.55
626.35	1303.12
626.70	1295.45
627.04	1287.74
627.39	1280.00
627.73	1272.55
628.08	1265.76
628.43	1258.66
628.77	1251.17
629.12	1243.64
629.46	1236.57
629.81	1229.19
630.15	1221.95
630.50	1214.55
630.84	1206.36
631.19	1198.52
631.53	1191.05
631.88	1183.49
632.22	1175.95
632.57	1168.67
632.91	1161.06
633.26	1153.68
633.60	1146.29
633.95	1139.03
634.29	1131.98
634.64	1125.24
634.98	1117.89
635.32	1110.58
635.67	1103.86
636.01	1097.24
636.36	1090.39
636.70	1083.73
637.05	1077.19
637.39	1070.67
637.73	1064.16
638.08	1058.36
638.42	1052.31
638.77	1045.80
639.11	1039.25
639.45	1032.83
639.80	1026.15
640.14	1019.90
640.49	1013.38
640.83	1007.12
641.17	1000.92
641.52	994.55
641.86	988.10
642.20	982.26
642.55	976.03
642.89	969.67
643.23	963.17
643.58	957.47
643.92	951.37
644.26	945.27
644.61	939.27
644.95	933.20
645.29	926.50
645.64	919.82
645.98	913.51
646.32	907.68
646.66	901.64
647.01	895.91
647.35	890.08
647.69	884.19
648.04	878.64
648.38	872.89
648.72	866.89
649.06	860.90
649.41	854.99
649.75	849.05
650.09	842.99
650.43	837.21
650.78	831.03
651.12	825.02
651.46	819.35
651.80	813.57
652.14	808.26
652.49	802.91
652.83	797.73
653.17	792.11
653.51	786.36
653.85	781.01
654.20	775.34
654.54	769.35
654.88	763.58
655.22	757.60
655.56	751.88
655.90	746.35
656.25	741.06
656.59	735.70
656.93	730.54
657.27	725.40
657.61	719.97
657.95	714.89
658.29	709.79
658.64	704.51
658.98	699.20
659.32	693.69
659.66	688.45
660.00	683.04
660.34	678.06
660.68	673.14
661.02	667.99
661.36	663.27
661.70	658.74
662.05	654.44
662.39	650.14
662.73	645.67
663.07	641.36
663.41	636.87
663.75	632.41
664.09	627.88
664.43	623.48
664.77	619.33
665.11	615.03
665.45	610.86
665.79	606.77
666.13	602.60
666.47	598.52
666.81	594.36
667.15	590.29
667.49	586.33
667.83	582.51
668.17	578.59
668.51	574.42
668.85	570.39
669.19	566.50
669.53	562.64
669.87	558.73
670.21	554.95
670.55	551.33
670.89	547.83
671.23	544.36
671.57	540.86
671.91	537.28
672.25	533.77
672.58	530.25
672.92	526.83
673.26	523.69
673.60	520.52
673.94	517.35
674.28	514.45
674.62	511.53
674.96	508.42
675.30	505.54
675.64	502.60
675.97	499.86
676.31	497.01
676.65	494.08
676.99	491.47
677.33	488.59
677.67	485.79
678.01	482.73
678.34	479.83
678.68	476.92
679.02	474.20
679.36	471.45
679.70	468.76
680.04	466.01
680.37	463.13
680.71	460.32
681.05	457.75
681.39	454.99
681.73	452.32
682.06	449.76
682.40	447.18
682.74	444.72
683.08	442.18
683.42	439.54
683.75	437.10
684.09	434.47
684.43	432.02
684.77	429.53
685.10	427.21
685.44	424.89
685.78	422.56
686.12	420.23
686.45	417.94
686.79	415.63
687.13	413.43
687.46	411.26
687.80	409.10
688.14	406.88
688.48	404.83
688.81	402.59
689.15	400.46
689.49	398.34
689.82	396.27
690.16	394.12
690.50	392.19
690.83	390.20
691.17	388.28
691.51	386.39
691.84	384.57
692.18	382.68
692.52	380.69
692.85	378.76
693.19	376.90
693.52	375.04
693.86	373.25
694.20	371.45
694.53	369.67
694.87	367.78
695.21	365.96
695.54	364.14
695.88	362.41
696.21	360.69
696.55	358.98
696.88	357.23
697.22	355.61
697.56	353.98
697.89	352.34
698.23	350.70
698.56	349.10
698.90	347.49
699.23	345.78
699.57	344.18
699.90	342.65
700.24	341.14
700.58	339.60
700.91	338.05
701.25	336.62
701.58	335.22
701.92	333.89
702.25	332.51
702.59	331.13
702.92	329.78
703.26	328.46
703.59	327.19
703.93	326.02
704.26	324.74
704.60	323.43
704.93	322.17
705.26	320.90
705.60	319.74
705.93	318.52
706.27	317.50
706.60	316.48
706.94	315.36
707.27	314.22
707.61	313.19
707.94	312.18
708.27	311.05
708.61	309.97
708.94	308.97
709.28	308.02
709.61	307.03
709.94	306.09
710.28	305.04
710.61	304.04
710.95	302.96
711.28	302.06
711.61	301.13
711.95	300.19
712.28	299.24
712.61	298.22
712.95	297.32
713.28	296.44
713.61	295.53
713.95	294.68
714.28	293.80
714.61	292.94
714.95	292.09
715.28	291.25
715.61	290.36
715.95	289.50
716.28	288.63
716.61	287.84
716.95	287.01
717.28	286.28
717.61	285.54
717.94	284.80
718.28	283.95
718.61	283.21
718.94	282.53
719.27	281.88
719.61	281.23
719.94	280.53
720.27	279.81
720.60	279.15
720.94	278.49
721.27	277.93
721.60	277.35
721.93	276.76
722.27	276.22
722.60	275.71
722.93	275.15
723.26	274.66
723.59	274.05
723.93	273.54
724.26	272.95
724.59	272.38
724.92	271.87
725.25	271.40
725.59	270.89
725.92	270.39
726.25	269.86
726.58	269.37
726.91	268.89
727.24	268.42
727.57	267.94
727.91	267.43
728.24	266.95
728.57	266.42
728.90	265.95
729.23	265.47
729.56	265.00
729.89	264.52
730.22	264.02
730.55	263.56
730.89	263.10
731.22	262.69
731.55	262.29
731.88	261.89
732.21	261.47
732.54	261.00
732.87	260.54
733.20	260.14
733.53	259.73
733.86	259.38
734.19	259.01
734.52	258.66
734.85	258.32
735.18	257.90
735.51	257.56
735.84	257.20
736.17	256.81
736.50	256.43
736.83	256.22
737.16	255.84
737.49	255.55
737.82	255.19
738.15	254.85
738.48	254.50
738.81	254.10
739.14	253.79
739.47	253.51
739.80	253.22
740.13	252.93
740.46	252.63
740.79	252.30
741.12	251.98
741.45	251.62
741.78	251.29
742.11	251.02
742.44	250.71
742.77	250.43
743.10	250.14
743.43	249.84
743.75	249.44
744.08	249.30
744.41	249.02
744.74	248.78
745.07	248.50
745.40	248.28
745.73	248.08
746.06	247.80
746.39	247.52
746.71	247.23
747.04	246.95
747.37	246.70
747.70	246.45
748.03	246.21
748.36	246.01
748.68	245.79
749.01	245.53
749.34	245.28
749.67	245.04
750.00	244.85
750.33	244.67
750.65	244.47
750.98	244.15
751.31	243.91
751.64	243.66
751.97	243.49
752.29	243.24
752.62	242.98
752.95	242.80
753.28	242.62
753.60	242.44
753.93	242.31
754.26	242.11
754.59	241.88
754.91	241.67
755.24	241.47
755.57	241.26
755.90	241.06
756.22	240.86
756.55	240.67
756.88	240.50
757.20	240.26
757.53	240.04
757.86	239.84
758.19	239.70
758.51	239.57
758.84	239.38
759.17	239.21
759.49	239.08
759.82	238.95
760.15	238.79
760.47	238.65
760.80	238.45
761.13	238.31
761.45	238.18
761.78	238.03
762.11	237.89
762.43	237.74
762.76	237.64
763.08	237.53
763.41	237.40
763.74	237.25
764.06	237.14
764.39	237.00
764.71	236.87
765.04	236.71
765.37	236.57
765.69	236.45
766.02	236.28
766.34	236.13
766.67	235.97
767.00	235.85
767.32	235.75
767.65	235.67
767.97	235.54
768.30	235.45
768.62	235.34
768.95	235.19
769.27	235.05
769.60	234.97
769.92	234.87
770.25	234.73
770.57	234.58
770.90	234.49
771.22	234.39
771.55	234.32
771.87	234.25
772.20	234.13
772.52	234.11
772.85	234.15
773.17	234.08
773.50	233.98
773.82	233.85
774.15	233.69
774.47	233.53
774.80	233.43
775.12	233.31
775.45	233.22
775.77	233.17
776.09	233.11
776.42	232.98
776.74	232.89
777.07	232.82
777.39	232.74
777.72	232.62
778.04	232.56
778.36	232.47
778.69	232.39
779.01	232.33
779.33	232.19
779.66	231.97
779.98	231.90
780.31	231.84
780.63	231.84
780.95	231.80
781.28	231.76
781.60	231.70
781.92	231.63
782.25	231.60
782.57	231.53
782.89	231.45
783.22	231.41
783.54	231.34
783.86	231.27
784.19	231.21
784.51	231.21
784.83	231.14
785.16	231.06
785.48	231.01
785.80	230.96
786.12	230.90
786.45	230.88
786.77	230.86
787.09	230.78
787.42	230.70
787.74	230.65
788.06	230.60
788.38	230.59
788.71	230.55
789.03	230.51
789.35	230.46
789.67	230.43
789.99	230.41
790.32	230.37
790.64	230.37
790.96	230.43
791.28	230.37
791.61	230.31
791.93	230.29
792.25	230.24
792.57	230.27
792.89	230.21
793.21	230.17
793.54	230.12
793.86	230.09
794.18	230.06
794.50	230.04
794.82	230.00
795.14	229.97
795.47	229.97
795.79	229.90
796.11	229.87
796.43	229.82
796.75	229.80
797.07	229.76
797.39	229.73
797.71	229.62
798.04	229.56
798.36	229.57
798.68	229.54
799.00	229.50
799.32	229.42
799.64	229.41
799.96	229.39
800.28	229.37
800.60	229.33
800.92	229.30
801.24	229.25
801.56	229.23
801.89	229.17
802.21	229.09
802.53	229.10
802.85	229.06
803.17	229.12
803.49	229.05
803.81	229.02
804.13	228.96
804.45	228.92
804.77	228.92
805.09	228.90
805.41	228.87
805.73	228.86
806.05	228.80
806.37	228.76
806.69	228.71
807.01	228.67
807.33	228.70
807.65	228.66
807.97	228.67
808.28	228.66
808.60	228.66
808.92	228.67
809.24	228.66
809.56	228.64
809.88	228.54
810.20	228.50
810.52	228.51
810.84	228.47
811.16	228.47
811.48	228.43
811.80	228.43
812.12	228.41
812.43	228.40
812.75	228.39
813.07	228.35
813.39	228.34
813.71	228.29
814.03	228.25
814.35	228.23
814.67	228.18
814.98	228.13
815.30	228.07
815.62	227.99
815.94	227.90
816.26	227.95
816.58	227.91
816.89	227.94
817.21	227.88
817.53	227.85
817.85	227.80
818.17	227.83
818.48	227.75
818.80	227.73
819.12	227.69
819.44	227.66
819.76	227.62
820.07	227.60
820.39	227.62
820.71	227.58
821.03	227.52
821.34	227.51
821.66	227.47
821.98	227.47
822.30	227.44
822.61	227.50
822.93	227.44
823.25	227.46
823.57	227.41
823.88	227.45
824.20	227.46
824.52	227.45
824.83	227.39
825.15	227.36
825.47	227.32
825.79	227.28
826.10	227.25
826.42	227.26
826.74	227.25
827.05	227.23
827.37	227.24
827.69	227.27
828.00	227.26
828.32	227.30
828.64	227.30
828.95	227.39
829.27	227.34
829.58	227.32
829.90	227.30
830.22	227.31
830.53	227.25
830.85	227.28
831.17	227.25
831.48	227.26
831.80	227.26
832.11	227.28
832.43	227.29
832.75	227.29
833.06	227.37
833.38	227.32
833.69	227.28
834.01	227.29
834.32	227.27
834.64	227.25
834.96	227.24
835.27	227.22
835.59	227.15
835.90	227.13
836.22	227.13
836.53	227.11
836.85	227.10
837.16	227.18
837.48	227.14
837.79	227.19
838.11	227.21
838.42	227.20
838.74	227.20
839.05	227.19
839.37	227.19
839.68	227.12
840.00	227.14
840.31	227.17
840.63	227.12
840.94	227.09
841.26	227.07
841.57	227.07
841.88	227.06
842.20	227.05
842.51	227.04
842.83	227.05
843.14	227.11
843.46	227.07
843.77	227.01
844.08	227.02
844.40	226.98
844.71	226.96
845.03	226.93
845.34	226.93
845.65	226.93
845.97	226.92
846.28	226.89
846.60	226.86
846.91	226.85
847.22	226.85
847.54	226.87
847.85	226.88
848.16	226.83
848.48	226.82
848.79	226.86
849.10	226.87
849.42	226.84
849.73	226.78
850.04	226.76
850.36	226.76
850.67	226.76
850.98	226.76
851.30	226.70
851.61	226.71
851.92	226.70
852.23	226.77
852.55	226.77
852.86	226.77
853.17	226.80
853.49	226.81
853.80	226.83
854.11	226.85
854.42	226.85
854.74	226.85
855.05	226.83
855.36	226.75
855.67	226.74
855.99	226.74
856.30	226.87
856.61	226.87
856.92	226.86
857.23	226.85
857.55	226.82
857.86	226.86
858.17	226.87
858.48	226.82
858.79	226.78
859.11	226.79
859.42	226.79
859.73	226.77
860.04	226.76
860.35	226.71
860.66	226.68
860.98	226.67
861.29	226.68
861.60	226.71
861.91	226.76
862.22	226.75
862.53	226.73
862.84	226.58
863.16	226.60
863.47	226.58
863.78	226.57
864.09	226.55
864.40	226.55
864.71	226.56
865.02	226.57
865.33	226.56
865.64	226.53
865.95	226.56
866.27	226.65
866.58	226.62
866.89	226.64
867.20	226.62
867.51	226.60
867.82	226.57
868.13	226.57
868.44	226.53
868.75	226.52
869.06	226.55
869.37	226.54
869.68	226.53
869.99	226.57
870.30	226.55
870.61	226.59
870.92	226.57
871.23	226.54
871.54	226.57
871.85	226.56
872.16	226.57
872.47	226.55
872.78	226.45
873.09	226.45
873.40	226.44
873.71	226.45
874.02	226.45
874.33	226.49
874.64	226.45
874.95	226.49
875.26	226.48
875.56	226.45
875.87	226.51
876.18	226.48
876.49	226.56
876.80	226.55
877.11	226.54
877.42	226.55
877.73	226.56
878.04	226.52
878.35	226.53
878.66	226.52
878.96	226.52
879.27	226.51
879.58	226.51
879.89	226.50
880.20	226.51
880.51	226.51
880.82	226.49
881.12	226.50
881.43	226.44
881.74	226.42
882.05	226.41
882.36	226.35
882.67	226.39
882.97	226.27
883.28	226.24
883.59	226.22
883.90	226.22
884.21	226.24
884.51	226.24
884.82	226.23
885.13	226.23
885.44	226.18
885.74	226.21
886.05	226.20
886.36	226.20
886.67	226.16
886.98	226.18
887.28	226.18
887.59	226.18
887.90	226.25
888.20	226.24
888.51	226.27
888.82	226.25
889.13	226.24
889.43	226.33
889.74	226.32
890.05	226.30
890.35	226.27
890.66	226.22
890.97	226.21
891.28	226.18
891.58	226.15
891.89	226.18
892.20	226.14
892.50	226.13
892.81	226.10
893.12	226.10
893.42	226.08
893.73	226.08
894.04	226.07
894.34	226.05
894.65	226.05
894.95	226.02
895.26	226.04
895.57	226.07
895.87	225.97
896.18	226.00
896.48	226.01
896.79	226.03
897.10	226.05
897.40	226.05
897.71	226.08
898.01	226.09
898.32	226.07
898.63	226.07
898.93	226.09
899.24	226.09
899.54	226.12
899.85	226.10
900.15	226.09
900.46	226.13
900.76	226.13
901.07	226.15
901.38	226.15
901.68	226.16
901.99	226.09
902.29	226.13
902.60	226.11
902.90	226.11
903.21	226.12
903.51	226.12
903.82	226.12
904.12	226.10
904.43	226.13
904.73	226.18
905.03	226.17
905.34	226.27
905.64	226.29
905.95	226.28
906.25	226.28
906.56	226.28
906.86	226.27
907.17	226.25
907.47	226.25
907.77	226.28
908.08	226.27
908.38	226.28
908.69	226.28
908.99	226.31
909.30	226.34
909.60	226.33
909.90	226.35
910.21	226.34
910.51	226.33
910.81	226.35
911.12	226.33
911.42	226.37
911.73	226.27
912.03	226.30
912.33	226.33
912.64	226.30
912.94	226.31
913.24	226.29
913.55	226.30
913.85	226.28
914.15	226.29
914.46	226.33
914.76	226.32
915.06	226.32
915.37	226.30
915.67	226.27
915.97	226.27
916.27	226.25
916.58	226.27
916.88	226.28
917.18	226.27
917.49	226.36
917.79	226.32
918.09	226.35
918.39	226.35
918.70	226.31
919.00	226.31
919.30	226.35
919.60	226.37
919.91	226.36
920.21	226.36
920.51	226.31
920.81	226.27
921.12	226.31
921.42	226.32
921.72	226.30
922.02	226.32
922.32	226.34
922.63	226.34
922.93	226.37
923.23	226.39
923.53	226.35
923.83	226.27
924.13	226.28
924.44	226.28
924.74	226.27
925.04	226.30
925.34	226.32
925.64	226.27
925.94	226.25
926.24	226.31
926.55	226.28
926.85	226.31
927.15	226.32
927.45	226.30
927.75	226.26
928.05	226.27
928.35	226.26
928.65	226.28
928.95	226.29
929.26	226.27
929.56	226.24
929.86	226.25
930.16	226.21
930.46	226.20
930.76	226.19
931.06	226.14
931.36	226.10
931.66	226.13
931.96	226.13
932.26	226.15
932.56	226.09
932.86	226.12
933.16	226.11
933.46	226.10
933.76	226.10
934.06	226.11
934.36	226.16
934.66	226.15
934.96	226.11
935.26	226.10
935.56	226.12
935.86	226.09
936.16	226.08
936.46	226.09
936.76	226.08
937.06	226.02
937.36	226.03
937.66	226.04
937.96	226.02
938.26	226.03
938.56	226.02
938.86	226.03
939.16	226.04
939.46	226.04
939.76	226.05
940.06	226.04
940.35	226.01
940.65	225.95
940.95	225.94
941.25	225.93
941.55	225.93
941.85	225.91
942.15	225.95
942.45	225.99
942.75	225.97
943.04	225.95
943.34	225.99
943.64	226.00
943.94	225.98
944.24	225.98
944.54	225.94
944.84	225.90
945.13	225.89
945.43	225.92
945.73	225.93
946.03	225.92
946.33	225.91
946.62	225.90
946.92	225.92
947.22	225.96
947.52	225.96
947.82	225.94
948.11	225.95
948.41	225.94
948.71	225.89
949.01	225.92
949.31	225.95
949.60	225.98
949.90	226.01
950.20	226.01
950.50	225.98
950.79	226.02
951.09	226.07
951.39	226.08
951.69	226.04
951.98	226.06
952.28	226.07
952.58	226.05
952.87	226.07
953.17	226.08
953.47	226.06
953.76	226.05
954.06	226.06
954.36	226.04
954.66	226.05
954.95	226.09
955.25	226.09
955.55	226.08
955.84	226.04
956.14	226.04
956.44	226.06
956.73	226.07
957.03	226.08
957.32	226.08
957.62	226.07
957.92	226.08
958.21	226.08
958.51	226.18
958.81	226.22
959.10	226.21
959.40	226.24
959.69	226.23
959.99	226.24
960.29	226.22
960.58	226.21
960.88	226.23
961.17	226.20
961.47	226.22
961.76	226.21
962.06	226.24
962.36	226.22
962.65	226.19
962.95	226.19
963.24	226.16
963.54	226.14
963.83	226.15
964.13	226.14
964.42	226.13
964.72	226.04
965.01	226.01
965.31	225.97
965.60	225.92
965.90	225.99
966.19	225.97
966.49	225.99
966.78	225.99
967.08	225.97
967.37	225.96
967.67	225.94
967.96	225.95
968.26	225.94
968.55	225.93
968.85	225.96
969.14	225.99
969.43	225.98
969.73	225.93
970.02	225.88
970.32	225.88
970.61	225.86
970.91	225.82
971.20	225.83
971.49	225.86
971.79	225.87
972.08	225.79
972.38	225.80
972.67	225.79
972.96	225.79
973.26	225.77
973.55	225.80
973.85	225.79
974.14	225.77
974.43	225.77
974.73	225.77
975.02	225.76
975.31	225.73
975.61	225.74
975.90	225.77
976.19	225.82
976.49	225.81
976.78	225.82
977.07	225.86
977.37	225.85
977.66	225.86
977.95	225.83
978.24	225.83
978.54	225.85
978.83	225.85
979.12	225.85
979.42	225.87
979.71	225.85
980.00	225.84
980.29	225.85
980.59	225.83
980.88	225.88
981.17	225.86
981.46	225.87
981.76	225.88
982.05	225.92
982.34	225.90
982.63	225.91
982.93	225.88
983.22	225.89
983.51	225.88
983.80	225.89
984.09	225.94
984.39	225.93
984.68	225.90
984.97	225.91
985.26	225.89
985.55	225.89
985.85	225.85
986.14	225.88
986.43	225.91
986.72	225.91
987.01	225.88
987.30	225.89
987.59	225.87
987.89	225.90
988.18	225.86
988.47	225.85
988.76	225.85
989.05	225.87
989.34	225.86
989.63	225.88
989.92	225.86
990.22	225.86
990.51	225.87
990.80	225.89
991.09	225.91
991.38	225.92
991.67	225.91
991.96	225.91
992.25	225.93
992.54	225.91
992.83	225.94
993.12	225.90
993.41	225.94
993.70	225.99
993.99	225.96
994.28	225.97
994.58	226.00
994.87	225.95
995.16	225.96
995.45	225.94
995.74	225.90
996.03	225.91
996.32	225.89
996.61	225.90
996.90	225.89
997.19	225.89
997.48	225.91
997.77	225.92
998.06	225.95
998.34	225.91
998.63	225.91
998.92	225.88
999.21	225.90
999.50	225.86
999.79	225.84
1000.08	225.81
1000.37	225.83
1000.66	225.81
1000.95	225.84
1001.24	225.83
1001.53	225.84
1001.82	225.84
1002.11	225.83
1002.40	225.85
1002.68	225.90
1002.97	225.94
1003.26	225.92
1003.55	225.88
1003.84	225.88
1004.13	225.89
1004.42	225.92
1004.71	225.92
1004.99	225.92
1005.28	225.94
1005.57	225.92
1005.86	225.89
1006.15	225.92
1006.44	225.92
1006.72	225.91
1007.01	225.91
1007.30	225.92
1007.59	225.91
1007.88	225.91
1008.17	225.92
1008.45	225.89
1008.74	225.85
1009.03	225.81
1009.32	225.80
1009.60	225.84
1009.89	225.81
1010.18	225.78
1010.47	225.78
1010.76	225.77
1011.04	225.79
1011.33	225.79
1011.62	225.81
1011.91	225.84
1012.19	225.83
1012.48	225.83
1012.77	225.86
1013.05	225.90
1013.34	225.89
1013.63	225.89
1013.92	225.91
1014.20	225.90
1014.49	225.93
1014.78	225.93
1015.06	225.95
1015.35	225.94
1015.64	225.92
1015.92	225.93
1016.21	225.92
1016.50	225.93
1016.78	225.94
1017.07	225.95
1017.36	225.94
1017.64	225.92
1017.93	225.95
1018.22	225.98
1018.50	225.98
1018.79	225.99
1019.08	225.96
1019.36	225.97
1019.65	226.00
1019.93	226.03
1020.22	226.09
1020.51	226.13
1020.79	226.13
1021.08	226.51
1021.36	225.89
1021.65	226.53
1021.94	226.11
1022.22	225.93
1022.51	226.51
1022.79	226.34
1023.08	226.87
1023.36	227.10
1023.65	226.02
>>>>>End Processed Spectral Data<<<<<
