SpectraSuite Data File
++++++++++++++++++++++++++++++++++++
Date: Fri Feb 01 14:55:09 EST 2013
User: group
Dark Spectrum Present: No
Reference Spectrum Present: No
Number of Sampled Component Spectra: 1
Spectrometers: USB2E7196
Integration Time (usec): 35000 (USB2E7196)
Spectra Averaged: 100 (USB2E7196)
Boxcar Smoothing: 10 (USB2E7196)
Correct for Electrical Dark: No (USB2E7196)
Strobe/Lamp Enabled: No (USB2E7196)
Correct for Detector Non-linearity: No (USB2E7196)
Correct for Stray Light: No (USB2E7196)
Number of Pixels in Processed Spectrum: 2048
>>>>>Begin Processed Spectral Data<<<<<
339.09	0.00
339.48	215.67
339.86	217.15
340.24	218.21
340.63	219.95
341.01	221.91
341.39	222.50
341.78	223.60
342.16	224.99
342.54	225.60
342.93	213.79
343.31	224.58
343.69	225.13
344.07	225.57
344.46	226.01
344.84	226.37
345.22	226.63
345.60	226.86
345.99	227.04
346.37	227.18
346.75	227.26
347.13	227.32
347.52	227.35
347.90	227.44
348.28	227.46
348.66	227.46
349.05	227.46
349.43	227.52
349.81	227.55
350.19	227.59
350.57	227.65
350.96	227.68
351.34	227.75
351.72	227.81
352.10	227.91
352.48	227.95
352.87	228.00
353.25	228.08
353.63	228.15
354.01	228.20
354.39	228.25
354.77	228.29
355.15	228.36
355.54	228.45
355.92	228.47
356.30	228.53
356.68	228.67
357.06	228.74
357.44	228.78
357.82	228.83
358.20	228.94
358.58	228.98
358.97	229.07
359.35	229.14
359.73	229.24
360.11	229.28
360.49	229.31
360.87	229.36
361.25	229.39
361.63	229.48
362.01	229.53
362.39	229.57
362.77	229.65
363.15	229.66
363.53	229.67
363.91	229.70
364.29	229.73
364.67	229.64
365.05	229.63
365.43	229.63
365.81	229.64
366.19	229.65
366.57	229.72
366.95	229.72
367.33	229.70
367.71	229.67
368.09	229.67
368.47	229.65
368.85	229.62
369.23	229.62
369.61	229.52
369.99	229.53
370.37	229.52
370.75	229.51
371.13	229.49
371.51	229.42
371.89	229.36
372.27	229.31
372.65	229.26
373.03	229.21
373.41	229.13
373.78	229.08
374.16	228.99
374.54	228.90
374.92	228.81
375.30	228.74
375.68	228.66
376.06	228.59
376.44	228.52
376.82	228.46
377.19	228.37
377.57	228.30
377.95	228.17
378.33	228.06
378.71	227.91
379.09	227.80
379.47	227.74
379.84	227.67
380.22	227.55
380.60	227.46
380.98	227.37
381.36	227.28
381.73	227.20
382.11	227.11
382.49	227.01
382.87	226.94
383.25	226.85
383.62	226.88
384.00	226.82
384.38	226.74
384.76	226.68
385.13	226.68
385.51	226.63
385.89	226.56
386.27	226.52
386.64	226.48
387.02	226.43
387.40	226.39
387.78	226.33
388.15	226.30
388.53	226.28
388.91	226.30
389.29	226.28
389.66	226.26
390.04	226.24
390.42	226.24
390.79	226.21
391.17	226.24
391.55	226.11
391.92	226.08
392.30	226.11
392.68	226.11
393.05	226.11
393.43	226.09
393.81	226.11
394.18	226.12
394.56	226.15
394.94	226.19
395.31	226.21
395.69	226.31
396.06	226.38
396.44	226.41
396.82	226.42
397.19	226.52
397.57	226.57
397.95	226.66
398.32	226.69
398.70	226.79
399.07	226.86
399.45	226.95
399.82	227.05
400.20	227.13
400.58	227.20
400.95	227.23
401.33	227.38
401.70	227.56
402.08	227.69
402.45	227.81
402.83	227.98
403.20	228.10
403.58	228.17
403.95	228.31
404.33	228.47
404.71	228.64
405.08	228.85
405.46	229.00
405.83	229.15
406.21	229.34
406.58	229.48
406.96	229.63
407.33	229.83
407.70	230.04
408.08	230.32
408.45	230.56
408.83	230.81
409.20	231.06
409.58	231.23
409.95	231.50
410.33	231.79
410.70	232.03
411.08	232.36
411.45	232.69
411.82	233.00
412.20	233.36
412.57	233.77
412.95	234.08
413.32	234.49
413.69	234.91
414.07	235.34
414.44	235.82
414.82	236.35
415.19	236.89
415.56	237.45
415.94	237.99
416.31	238.62
416.68	239.22
417.06	239.91
417.43	240.61
417.81	241.38
418.18	242.12
418.55	242.97
418.93	243.81
419.30	244.68
419.67	245.67
420.04	246.59
420.42	247.58
420.79	248.74
421.16	249.92
421.54	251.13
421.91	252.33
422.28	253.61
422.66	254.93
423.03	256.24
423.40	257.55
423.77	258.96
424.15	260.37
424.52	261.86
424.89	263.46
425.26	264.99
425.64	266.42
426.01	268.04
426.38	269.70
426.75	271.37
427.13	273.09
427.50	274.82
427.87	276.73
428.24	278.55
428.61	280.30
428.99	282.23
429.36	284.33
429.73	286.42
430.10	288.42
430.47	290.49
430.85	292.63
431.22	294.87
431.59	297.23
431.96	299.53
432.33	301.99
432.70	304.34
433.08	307.14
433.45	309.80
433.82	312.36
434.19	315.23
434.56	318.04
434.93	320.71
435.30	323.34
435.68	326.24
436.05	329.06
436.42	331.88
436.79	334.41
437.16	337.10
437.53	339.91
437.90	342.75
438.27	345.45
438.64	348.24
439.01	350.85
439.38	353.09
439.75	355.23
440.13	357.75
440.50	360.14
440.87	362.01
441.24	363.94
441.61	366.17
441.98	367.70
442.35	369.52
442.72	371.41
443.09	373.27
443.46	374.23
443.83	374.86
444.20	375.32
444.57	376.14
444.94	376.40
445.31	376.77
445.68	377.09
446.05	377.19
446.42	376.83
446.79	376.42
447.16	375.96
447.53	375.66
447.90	374.52
448.27	373.36
448.64	371.80
449.01	370.67
449.37	368.67
449.74	366.75
450.11	364.49
450.48	361.99
450.85	359.41
451.22	357.29
451.59	355.27
451.96	353.30
452.33	350.71
452.70	348.36
453.07	345.50
453.43	342.61
453.80	339.85
454.17	337.17
454.54	334.59
454.91	331.86
455.28	329.17
455.65	326.68
456.02	324.19
456.38	322.02
456.75	319.35
457.12	317.08
457.49	314.84
457.86	312.68
458.23	310.84
458.59	308.79
458.96	306.68
459.33	304.79
459.70	302.98
460.07	301.44
460.43	299.68
460.80	298.03
461.17	296.56
461.54	295.07
461.91	293.60
462.27	292.17
462.64	290.89
463.01	289.54
463.38	288.23
463.74	286.84
464.11	285.66
464.48	284.66
464.85	283.54
465.21	282.64
465.58	281.71
465.95	280.57
466.32	279.67
466.68	278.78
467.05	277.92
467.42	276.99
467.78	276.05
468.15	275.19
468.52	274.53
468.88	273.68
469.25	272.87
469.62	272.25
469.98	271.57
470.35	270.98
470.72	270.36
471.08	269.71
471.45	269.17
471.82	268.63
472.18	267.99
472.55	267.54
472.92	267.04
473.28	266.55
473.65	266.12
474.02	265.66
474.38	265.27
474.75	264.92
475.11	264.55
475.48	264.30
475.85	264.06
476.21	263.80
476.58	263.59
476.94	263.43
477.31	263.26
477.67	263.12
478.04	262.98
478.41	262.90
478.77	262.92
479.14	262.84
479.50	262.82
479.87	262.88
480.23	262.97
480.60	263.01
480.96	263.09
481.33	263.31
481.69	263.49
482.06	263.65
482.42	263.82
482.79	264.08
483.15	264.38
483.52	264.76
483.88	265.14
484.25	265.54
484.61	265.97
484.98	266.42
485.34	266.96
485.71	267.59
486.07	268.20
486.44	268.77
486.80	269.45
487.17	270.19
487.53	271.01
487.90	271.89
488.26	272.82
488.62	273.86
488.99	274.78
489.35	275.82
489.72	276.97
490.08	278.16
490.44	279.39
490.81	280.74
491.17	282.05
491.54	283.51
491.90	285.04
492.26	286.69
492.63	288.40
492.99	290.15
493.36	291.99
493.72	294.01
494.08	296.10
494.45	298.33
494.81	300.68
495.17	303.11
495.54	305.62
495.90	308.30
496.26	311.02
496.63	313.98
496.99	317.06
497.35	320.32
497.72	323.69
498.08	327.15
498.44	330.79
498.80	334.65
499.17	338.65
499.53	342.78
499.89	347.09
500.26	351.59
500.62	356.25
500.98	361.18
501.34	366.21
501.71	371.51
502.07	376.88
502.43	382.50
502.79	388.23
503.16	394.25
503.52	400.45
503.88	406.83
504.24	413.40
504.60	420.28
504.97	427.32
505.33	434.60
505.69	442.30
506.05	450.03
506.41	457.90
506.78	466.03
507.14	474.44
507.50	483.17
507.86	492.13
508.22	501.25
508.59	510.47
508.95	520.04
509.31	529.79
509.67	539.88
510.03	550.09
510.39	560.57
510.75	571.37
511.12	582.32
511.48	593.63
511.84	605.05
512.20	616.55
512.56	628.51
512.92	640.70
513.28	653.00
513.64	665.46
514.00	678.18
514.37	691.13
514.73	704.15
515.09	717.16
515.45	730.40
515.81	744.08
516.17	758.01
516.53	772.14
516.89	786.31
517.25	800.48
517.61	814.89
517.97	829.53
518.33	843.95
518.69	858.79
519.05	873.80
519.41	889.05
519.77	904.60
520.13	920.15
520.49	935.55
520.85	951.07
521.21	966.85
521.57	983.20
521.93	998.98
522.29	1015.46
522.65	1031.75
523.01	1048.01
523.37	1064.14
523.73	1080.48
524.09	1096.63
524.45	1113.01
524.81	1129.75
525.17	1146.74
525.53	1163.57
525.89	1180.58
526.25	1197.32
526.61	1213.82
526.97	1230.55
527.33	1247.06
527.68	1263.70
528.04	1280.35
528.40	1297.01
528.76	1314.11
529.12	1330.75
529.48	1347.78
529.84	1363.93
530.20	1380.72
530.56	1398.02
530.91	1415.42
531.27	1432.23
531.63	1448.74
531.99	1465.46
532.35	1481.57
532.71	1497.45
533.07	1513.86
533.42	1529.73
533.78	1545.93
534.14	1562.32
534.50	1577.76
534.86	1593.82
535.21	1609.07
535.57	1625.01
535.93	1640.54
536.29	1655.45
536.65	1670.56
537.00	1685.34
537.36	1700.63
537.72	1715.32
538.08	1729.70
538.44	1743.41
538.79	1757.36
539.15	1771.23
539.51	1785.05
539.87	1799.40
540.22	1813.25
540.58	1827.12
540.94	1840.53
541.29	1853.64
541.65	1866.34
542.01	1879.65
542.37	1891.95
542.72	1904.39
543.08	1916.34
543.44	1928.81
543.79	1940.11
544.15	1951.05
544.51	1962.60
544.87	1973.70
545.22	1984.32
545.58	1994.51
545.94	2004.53
546.29	2014.35
546.65	2024.12
547.01	2033.26
547.36	2042.12
547.72	2050.47
548.07	2058.26
548.43	2066.53
548.79	2074.50
549.14	2081.98
549.50	2089.43
549.86	2097.16
550.21	2104.52
550.57	2111.60
550.92	2118.11
551.28	2125.10
551.64	2132.37
551.99	2139.05
552.35	2145.00
552.70	2151.18
553.06	2157.25
553.41	2163.53
553.77	2169.48
554.13	2175.67
554.48	2181.86
554.84	2187.07
555.19	2192.58
555.55	2197.75
555.90	2202.16
556.26	2206.92
556.61	2211.55
556.97	2215.60
557.32	2219.66
557.68	2223.66
558.03	2227.88
558.39	2231.54
558.74	2236.07
559.10	2239.67
559.45	2243.20
559.81	2247.66
560.16	2251.41
560.52	2254.36
560.87	2257.67
561.23	2260.23
561.58	2263.05
561.94	2265.38
562.29	2267.82
562.64	2270.35
563.00	2272.92
563.35	2276.37
563.71	2279.30
564.06	2282.55
564.42	2285.41
564.77	2287.72
565.12	2289.88
565.48	2291.66
565.83	2293.49
566.19	2294.73
566.54	2295.56
566.89	2296.58
567.25	2296.86
567.60	2298.17
567.96	2299.83
568.31	2300.53
568.66	2301.47
569.02	2301.76
569.37	2302.02
569.72	2302.65
570.08	2302.55
570.43	2302.38
570.78	2301.49
571.14	2299.90
571.49	2298.39
571.84	2297.82
572.20	2296.46
572.55	2295.13
572.90	2293.47
573.26	2291.83
573.61	2289.97
573.96	2288.08
574.31	2284.86
574.67	2281.69
575.02	2277.79
575.37	2274.20
575.72	2270.19
576.08	2266.77
576.43	2263.37
576.78	2259.55
577.13	2256.26
577.49	2253.11
577.84	2249.50
578.19	2245.70
578.54	2241.81
578.90	2237.25
579.25	2231.65
579.60	2226.63
579.95	2221.55
580.30	2216.15
580.66	2210.89
581.01	2205.76
581.36	2200.64
581.71	2196.31
582.06	2191.64
582.42	2186.97
582.77	2181.71
583.12	2176.85
583.47	2171.91
583.82	2166.59
584.17	2161.29
584.53	2155.57
584.88	2149.63
585.23	2143.51
585.58	2137.90
585.93	2132.33
586.28	2127.52
586.63	2122.30
586.98	2116.95
587.34	2112.22
587.69	2107.24
588.04	2101.79
588.39	2095.96
588.74	2089.32
589.09	2083.04
589.44	2076.12
589.79	2070.02
590.14	2064.16
590.49	2057.48
590.84	2050.93
591.19	2044.85
591.54	2038.29
591.89	2030.66
592.25	2023.69
592.60	2016.48
592.95	2008.80
593.30	2001.34
593.65	1993.47
594.00	1986.29
594.35	1979.01
594.70	1970.82
595.05	1963.60
595.40	1956.15
595.75	1948.59
596.10	1942.30
596.45	1935.31
596.80	1929.05
597.15	1922.16
597.50	1914.95
597.85	1908.66
598.19	1901.96
598.54	1894.86
598.89	1888.00
599.24	1882.22
599.59	1875.47
599.94	1869.16
600.29	1862.64
600.64	1855.94
600.99	1848.49
601.34	1841.67
601.69	1834.70
602.04	1827.69
602.39	1820.30
602.74	1813.48
603.08	1806.66
603.43	1799.95
603.78	1792.80
604.13	1785.69
604.48	1778.40
604.83	1771.58
605.18	1764.43
605.53	1756.56
605.87	1748.50
606.22	1741.34
606.57	1733.41
606.92	1726.22
607.27	1719.05
607.62	1712.15
607.96	1705.06
608.31	1698.45
608.66	1690.69
609.01	1683.27
609.36	1675.90
609.70	1668.04
610.05	1660.03
610.40	1652.47
610.75	1644.18
611.10	1636.55
611.44	1628.23
611.79	1620.44
612.14	1611.76
612.49	1602.69
612.83	1594.33
613.18	1586.22
613.53	1578.22
613.88	1569.74
614.22	1561.37
614.57	1552.94
614.92	1545.02
615.27	1537.38
615.61	1529.23
615.96	1521.39
616.31	1513.82
616.65	1506.47
617.00	1498.84
617.35	1491.21
617.70	1482.79
618.04	1474.33
618.39	1466.11
618.74	1458.58
619.08	1450.35
619.43	1442.90
619.78	1436.14
620.12	1429.03
620.47	1421.66
620.82	1413.54
621.16	1406.17
621.51	1398.69
621.85	1391.16
622.20	1382.72
622.55	1374.42
622.89	1366.63
623.24	1359.08
623.59	1351.78
623.93	1344.31
624.28	1337.15
624.62	1329.74
624.97	1322.63
625.32	1315.96
625.66	1309.14
626.01	1301.92
626.35	1294.41
626.70	1286.67
627.04	1278.93
627.39	1271.19
627.73	1263.81
628.08	1256.83
628.43	1249.50
628.77	1242.18
629.12	1234.56
629.46	1227.41
629.81	1220.12
630.15	1212.99
630.50	1205.57
630.84	1197.38
631.19	1189.40
631.53	1181.94
631.88	1174.39
632.22	1166.88
632.57	1159.52
632.91	1151.93
633.26	1144.62
633.60	1137.43
633.95	1130.44
634.29	1123.45
634.64	1116.78
634.98	1109.48
635.32	1102.44
635.67	1095.99
636.01	1089.40
636.36	1082.68
636.70	1076.21
637.05	1069.74
637.39	1063.38
637.73	1056.97
638.08	1051.16
638.42	1045.31
638.77	1038.84
639.11	1032.27
639.45	1026.01
639.80	1019.43
640.14	1013.09
640.49	1006.54
640.83	1000.26
641.17	994.04
641.52	987.80
641.86	981.45
642.20	975.66
642.55	969.39
642.89	962.91
643.23	956.45
643.58	950.78
643.92	944.64
644.26	938.46
644.61	932.41
644.95	926.38
645.29	919.74
645.64	913.05
645.98	906.83
646.32	901.10
646.66	894.98
647.01	889.29
647.35	883.55
647.69	877.86
648.04	872.40
648.38	866.65
648.72	860.64
649.06	854.63
649.41	848.75
649.75	842.83
650.09	836.99
650.43	831.21
650.78	825.04
651.12	819.21
651.46	813.58
651.80	807.79
652.14	802.47
652.49	797.18
652.83	792.05
653.17	786.46
653.51	780.82
653.85	775.60
654.20	769.99
654.54	764.06
654.88	758.29
655.22	752.47
655.56	746.86
655.90	741.44
656.25	736.24
656.59	730.98
656.93	725.88
657.27	720.76
657.61	715.38
657.95	710.33
658.29	705.26
658.64	700.15
658.98	694.96
659.32	689.55
659.66	684.41
660.00	679.16
660.34	674.24
660.68	669.36
661.02	664.32
661.36	659.65
661.70	655.29
662.05	651.02
662.39	646.67
662.73	642.26
663.07	637.99
663.41	633.62
663.75	629.09
664.09	624.60
664.43	620.17
664.77	616.10
665.11	611.94
665.45	607.88
665.79	603.83
666.13	599.75
666.47	595.62
666.81	591.46
667.15	587.33
667.49	583.46
667.83	579.71
668.17	575.86
668.51	571.83
668.85	567.84
669.19	564.06
669.53	560.23
669.87	556.35
670.21	552.66
670.55	549.03
670.89	545.69
671.23	542.32
671.57	538.86
671.91	535.34
672.25	531.79
672.58	528.22
672.92	524.78
673.26	521.61
673.60	518.57
673.94	515.51
674.28	512.65
674.62	509.73
674.96	506.65
675.30	503.70
675.64	500.80
675.97	497.95
676.31	495.04
676.65	492.16
676.99	489.48
677.33	486.65
677.67	483.86
678.01	480.82
678.34	477.83
678.68	475.01
679.02	472.24
679.36	469.51
679.70	466.82
680.04	464.13
680.37	461.28
680.71	458.49
681.05	455.89
681.39	453.19
681.73	450.57
682.06	448.00
682.40	445.48
682.74	442.95
683.08	440.47
683.42	437.89
683.75	435.43
684.09	432.96
684.43	430.50
684.77	428.04
685.10	425.73
685.44	423.45
685.78	421.18
686.12	418.96
686.45	416.74
686.79	414.53
687.13	412.34
687.46	410.23
687.80	408.13
688.14	405.94
688.48	403.88
688.81	401.57
689.15	399.46
689.49	397.34
689.82	395.33
690.16	393.27
690.50	391.40
690.83	389.44
691.17	387.44
691.51	385.52
691.84	383.68
692.18	381.75
692.52	379.80
692.85	377.89
693.19	376.05
693.52	374.25
693.86	372.44
694.20	370.68
694.53	368.87
694.87	366.99
695.21	365.25
695.54	363.49
695.88	361.85
696.21	360.18
696.55	358.52
696.88	356.85
697.22	355.25
697.56	353.62
697.89	351.98
698.23	350.39
698.56	348.86
698.90	347.30
699.23	345.67
699.57	344.14
699.90	342.60
700.24	341.06
700.58	339.54
700.91	338.04
701.25	336.60
701.58	335.26
701.92	333.95
702.25	332.57
702.59	331.19
702.92	329.91
703.26	328.64
703.59	327.38
703.93	326.19
704.26	324.93
704.60	323.66
704.93	322.44
705.26	321.24
705.60	320.04
705.93	318.90
706.27	317.92
706.60	316.91
706.94	315.83
707.27	314.74
707.61	313.68
707.94	312.70
708.27	311.62
708.61	310.54
708.94	309.55
709.28	308.59
709.61	307.66
709.94	306.69
710.28	305.64
710.61	304.65
710.95	303.58
711.28	302.67
711.61	301.75
711.95	300.83
712.28	299.84
712.61	298.89
712.95	297.97
713.28	297.08
713.61	296.17
713.95	295.31
714.28	294.46
714.61	293.60
714.95	292.71
715.28	291.90
715.61	291.03
715.95	290.16
716.28	289.31
716.61	288.49
716.95	287.66
717.28	286.95
717.61	286.20
717.94	285.48
718.28	284.68
718.61	283.99
718.94	283.28
719.27	282.62
719.61	282.01
719.94	281.34
720.27	280.64
720.60	279.96
720.94	279.37
721.27	278.73
721.60	278.18
721.93	277.59
722.27	277.02
722.60	276.47
722.93	275.90
723.26	275.38
723.59	274.78
723.93	274.24
724.26	273.66
724.59	273.10
724.92	272.60
725.25	272.12
725.59	271.53
725.92	271.03
726.25	270.55
726.58	270.04
726.91	269.56
727.24	269.07
727.57	268.59
727.91	268.05
728.24	267.60
728.57	267.13
728.90	266.68
729.23	266.18
729.56	265.74
729.89	265.31
730.22	264.81
730.55	264.38
730.89	263.95
731.22	263.52
731.55	263.10
731.88	262.65
732.21	262.20
732.54	261.82
732.87	261.42
733.20	261.04
733.53	260.63
733.86	260.25
734.19	259.89
734.52	259.53
734.85	259.23
735.18	258.82
735.51	258.47
735.84	258.12
736.17	257.79
736.50	257.41
736.83	257.17
737.16	256.87
737.49	256.53
737.82	256.18
738.15	255.82
738.48	255.52
738.81	255.18
739.14	254.86
739.47	254.54
739.80	254.23
740.13	253.89
740.46	253.58
740.79	253.26
741.12	252.94
741.45	252.62
741.78	252.31
742.11	252.04
742.44	251.69
742.77	251.39
743.10	251.10
743.43	250.83
743.75	250.45
744.08	250.29
744.41	250.03
744.74	249.74
745.07	249.53
745.40	249.24
745.73	249.02
746.06	248.78
746.39	248.52
746.71	248.27
747.04	248.02
747.37	247.76
747.70	247.51
748.03	247.25
748.36	247.06
748.68	246.78
749.01	246.56
749.34	246.32
749.67	246.10
750.00	245.89
750.33	245.73
750.65	245.51
750.98	245.16
751.31	244.95
751.64	244.77
751.97	244.57
752.29	244.32
752.62	244.09
752.95	243.86
753.28	243.67
753.60	243.45
753.93	243.29
754.26	243.11
754.59	242.90
754.91	242.70
755.24	242.50
755.57	242.33
755.90	242.15
756.22	241.95
756.55	241.75
756.88	241.55
757.20	241.34
757.53	241.15
757.86	240.97
758.19	240.79
758.51	240.62
758.84	240.43
759.17	240.27
759.49	240.09
759.82	239.98
760.15	239.83
760.47	239.70
760.80	239.51
761.13	239.37
761.45	239.22
761.78	239.09
762.11	238.94
762.43	238.76
762.76	238.62
763.08	238.49
763.41	238.36
763.74	238.25
764.06	238.09
764.39	237.96
764.71	237.85
765.04	237.68
765.37	237.54
765.69	237.40
766.02	237.32
766.34	237.20
766.67	237.04
767.00	236.92
767.32	236.82
767.65	236.77
767.97	236.62
768.30	236.48
768.62	236.35
768.95	236.25
769.27	236.14
769.60	236.02
769.92	235.93
770.25	235.84
770.57	235.69
770.90	235.59
771.22	235.45
771.55	235.36
771.87	235.30
772.20	235.22
772.52	235.23
772.85	235.24
773.17	235.16
773.50	235.06
773.82	234.97
774.15	234.84
774.47	234.71
774.80	234.67
775.12	234.61
775.45	234.54
775.77	234.45
776.09	234.41
776.42	234.36
776.74	234.34
777.07	234.24
777.39	234.18
777.72	234.07
778.04	234.05
778.36	234.00
778.69	233.94
779.01	233.88
779.33	233.72
779.66	233.57
779.98	233.50
780.31	233.49
780.63	233.45
780.95	233.41
781.28	233.35
781.60	233.29
781.92	233.24
782.25	233.19
782.57	233.16
782.89	233.10
783.22	233.03
783.54	232.90
783.86	232.88
784.19	232.81
784.51	232.78
784.83	232.72
785.16	232.67
785.48	232.60
785.80	232.55
786.12	232.52
786.45	232.46
786.77	232.42
787.09	232.31
787.42	232.24
787.74	232.20
788.06	232.15
788.38	232.08
788.71	232.05
789.03	232.00
789.35	231.95
789.67	231.88
789.99	231.85
790.32	231.82
790.64	231.79
790.96	231.79
791.28	231.77
791.61	231.69
791.93	231.62
792.25	231.57
792.57	231.60
792.89	231.51
793.21	231.45
793.54	231.40
793.86	231.36
794.18	231.34
794.50	231.27
794.82	231.22
795.14	231.19
795.47	231.12
795.79	231.12
796.11	231.06
796.43	231.02
796.75	230.97
797.07	230.96
797.39	230.90
797.71	230.85
798.04	230.80
798.36	230.78
798.68	230.75
799.00	230.73
799.32	230.65
799.64	230.64
799.96	230.62
800.28	230.61
800.60	230.56
800.92	230.50
801.24	230.46
801.56	230.43
801.89	230.39
802.21	230.39
802.53	230.33
802.85	230.32
803.17	230.34
803.49	230.29
803.81	230.26
804.13	230.19
804.45	230.13
804.77	230.10
805.09	230.08
805.41	230.04
805.73	230.02
806.05	229.95
806.37	229.94
806.69	229.92
807.01	229.85
807.33	229.86
807.65	229.82
807.97	229.85
808.28	229.81
808.60	229.76
808.92	229.71
809.24	229.72
809.56	229.65
809.88	229.57
810.20	229.55
810.52	229.55
810.84	229.50
811.16	229.47
811.48	229.45
811.80	229.45
812.12	229.44
812.43	229.40
812.75	229.39
813.07	229.38
813.39	229.31
813.71	229.29
814.03	229.24
814.35	229.20
814.67	229.16
814.98	229.14
815.30	229.14
815.62	229.07
815.94	228.99
816.26	229.06
816.58	229.07
816.89	229.02
817.21	228.97
817.53	229.00
817.85	229.01
818.17	228.99
818.48	228.95
818.80	228.93
819.12	228.92
819.44	228.90
819.76	228.88
820.07	228.91
820.39	228.91
820.71	228.93
821.03	228.93
821.34	228.89
821.66	228.91
821.98	228.90
822.30	228.93
822.61	228.96
822.93	228.90
823.25	228.87
823.57	228.88
823.88	228.86
824.20	228.83
824.52	228.81
824.83	228.78
825.15	228.76
825.47	228.75
825.79	228.77
826.10	228.76
826.42	228.72
826.74	228.72
827.05	228.71
827.37	228.71
827.69	228.70
828.00	228.71
828.32	228.67
828.64	228.66
828.95	228.68
829.27	228.65
829.58	228.63
829.90	228.65
830.22	228.67
830.53	228.66
830.85	228.66
831.17	228.62
831.48	228.60
831.80	228.58
832.11	228.56
832.43	228.50
832.75	228.46
833.06	228.51
833.38	228.46
833.69	228.43
834.01	228.38
834.32	228.39
834.64	228.36
834.96	228.35
835.27	228.34
835.59	228.28
835.90	228.26
836.22	228.27
836.53	228.24
836.85	228.22
837.16	228.29
837.48	228.28
837.79	228.32
838.11	228.36
838.42	228.35
838.74	228.38
839.05	228.37
839.37	228.38
839.68	228.32
840.00	228.35
840.31	228.35
840.63	228.36
840.94	228.32
841.26	228.29
841.57	228.30
841.88	228.30
842.20	228.30
842.51	228.30
842.83	228.27
843.14	228.34
843.46	228.33
843.77	228.27
844.08	228.25
844.40	228.20
844.71	228.17
845.03	228.16
845.34	228.16
845.65	228.16
845.97	228.14
846.28	228.14
846.60	228.14
846.91	228.17
847.22	228.14
847.54	228.14
847.85	228.15
848.16	228.14
848.48	228.11
848.79	228.15
849.10	228.13
849.42	228.15
849.73	228.08
850.04	228.07
850.36	228.03
850.67	228.04
850.98	228.05
851.30	228.04
851.61	228.04
851.92	228.01
852.23	228.07
852.55	228.06
852.86	228.06
853.17	228.04
853.49	228.03
853.80	228.06
854.11	228.07
854.42	228.07
854.74	228.04
855.05	228.06
855.36	228.01
855.67	228.00
855.99	227.99
856.30	228.10
856.61	228.08
856.92	228.06
857.23	228.07
857.55	228.06
857.86	228.06
858.17	228.06
858.48	228.06
858.79	228.02
859.11	228.03
859.42	228.03
859.73	228.03
860.04	228.01
860.35	227.99
860.66	227.97
860.98	228.00
861.29	228.03
861.60	228.01
861.91	228.01
862.22	228.03
862.53	227.97
862.84	227.84
863.16	227.90
863.47	227.89
863.78	227.90
864.09	227.91
864.40	227.89
864.71	227.91
865.02	227.89
865.33	227.89
865.64	227.88
865.95	227.87
866.27	227.93
866.58	227.92
866.89	227.92
867.20	227.92
867.51	227.90
867.82	227.89
868.13	227.91
868.44	227.90
868.75	227.91
869.06	227.92
869.37	227.93
869.68	227.84
869.99	227.86
870.30	227.87
870.61	227.87
870.92	227.89
871.23	227.88
871.54	227.91
871.85	227.91
872.16	227.91
872.47	227.92
872.78	227.85
873.09	227.85
873.40	227.83
873.71	227.81
874.02	227.84
874.33	227.83
874.64	227.83
874.95	227.86
875.26	227.83
875.56	227.83
875.87	227.85
876.18	227.88
876.49	227.97
876.80	227.93
877.11	227.92
877.42	227.89
877.73	227.87
878.04	227.82
878.35	227.80
878.66	227.80
878.96	227.76
879.27	227.79
879.58	227.78
879.89	227.76
880.20	227.78
880.51	227.74
880.82	227.74
881.12	227.72
881.43	227.70
881.74	227.68
882.05	227.65
882.36	227.62
882.67	227.62
882.97	227.50
883.28	227.49
883.59	227.48
883.90	227.50
884.21	227.54
884.51	227.53
884.82	227.51
885.13	227.51
885.44	227.53
885.74	227.49
886.05	227.47
886.36	227.48
886.67	227.46
886.98	227.48
887.28	227.46
887.59	227.41
887.90	227.40
888.20	227.41
888.51	227.41
888.82	227.39
889.13	227.40
889.43	227.50
889.74	227.49
890.05	227.47
890.35	227.43
890.66	227.38
890.97	227.39
891.28	227.40
891.58	227.39
891.89	227.36
892.20	227.37
892.50	227.38
892.81	227.36
893.12	227.37
893.42	227.35
893.73	227.35
894.04	227.40
894.34	227.41
894.65	227.40
894.95	227.41
895.26	227.43
895.57	227.48
895.87	227.39
896.18	227.43
896.48	227.44
896.79	227.47
897.10	227.50
897.40	227.48
897.71	227.50
898.01	227.52
898.32	227.56
898.63	227.56
898.93	227.56
899.24	227.58
899.54	227.58
899.85	227.57
900.15	227.56
900.46	227.56
900.76	227.55
901.07	227.60
901.38	227.61
901.68	227.62
901.99	227.54
902.29	227.54
902.60	227.53
902.90	227.53
903.21	227.50
903.51	227.48
903.82	227.51
904.12	227.51
904.43	227.48
904.73	227.50
905.03	227.51
905.34	227.58
905.64	227.56
905.95	227.57
906.25	227.58
906.56	227.58
906.86	227.58
907.17	227.57
907.47	227.56
907.77	227.57
908.08	227.55
908.38	227.59
908.69	227.62
908.99	227.61
909.30	227.63
909.60	227.65
909.90	227.70
910.21	227.69
910.51	227.67
910.81	227.68
911.12	227.65
911.42	227.63
911.73	227.52
912.03	227.53
912.33	227.53
912.64	227.53
912.94	227.53
913.24	227.51
913.55	227.50
913.85	227.49
914.15	227.48
914.46	227.48
914.76	227.45
915.06	227.41
915.37	227.40
915.67	227.36
915.97	227.33
916.27	227.30
916.58	227.26
916.88	227.25
917.18	227.23
917.49	227.30
917.79	227.25
918.09	227.30
918.39	227.32
918.70	227.32
919.00	227.33
919.30	227.34
919.60	227.36
919.91	227.34
920.21	227.32
920.51	227.28
920.81	227.28
921.12	227.30
921.42	227.30
921.72	227.30
922.02	227.31
922.32	227.35
922.63	227.33
922.93	227.40
923.23	227.42
923.53	227.44
923.83	227.37
924.13	227.45
924.44	227.42
924.74	227.42
925.04	227.44
925.34	227.40
925.64	227.36
925.94	227.36
926.24	227.41
926.55	227.43
926.85	227.42
927.15	227.43
927.45	227.40
927.75	227.39
928.05	227.39
928.35	227.37
928.65	227.33
928.95	227.34
929.26	227.33
929.56	227.35
929.86	227.35
930.16	227.37
930.46	227.32
930.76	227.33
931.06	227.31
931.36	227.29
931.66	227.33
931.96	227.32
932.26	227.33
932.56	227.31
932.86	227.29
933.16	227.31
933.46	227.29
933.76	227.31
934.06	227.33
934.36	227.36
934.66	227.35
934.96	227.39
935.26	227.40
935.56	227.38
935.86	227.36
936.16	227.36
936.46	227.34
936.76	227.37
937.06	227.37
937.36	227.36
937.66	227.37
937.96	227.37
938.26	227.36
938.56	227.35
938.86	227.37
939.16	227.40
939.46	227.41
939.76	227.44
940.06	227.46
940.35	227.47
940.65	227.44
940.95	227.45
941.25	227.42
941.55	227.42
941.85	227.41
942.15	227.42
942.45	227.43
942.75	227.41
943.04	227.37
943.34	227.39
943.64	227.38
943.94	227.37
944.24	227.37
944.54	227.42
944.84	227.42
945.13	227.39
945.43	227.39
945.73	227.37
946.03	227.36
946.33	227.33
946.62	227.29
946.92	227.28
947.22	227.29
947.52	227.30
947.82	227.31
948.11	227.33
948.41	227.33
948.71	227.30
949.01	227.33
949.31	227.34
949.60	227.34
949.90	227.36
950.20	227.34
950.50	227.35
950.79	227.31
951.09	227.30
951.39	227.27
951.69	227.24
951.98	227.28
952.28	227.26
952.58	227.26
952.87	227.27
953.17	227.28
953.47	227.27
953.76	227.28
954.06	227.26
954.36	227.18
954.66	227.16
954.95	227.16
955.25	227.16
955.55	227.16
955.84	227.11
956.14	227.13
956.44	227.13
956.73	227.09
957.03	227.12
957.32	227.12
957.62	227.11
957.92	227.12
958.21	227.11
958.51	227.21
958.81	227.22
959.10	227.24
959.40	227.26
959.69	227.26
959.99	227.26
960.29	227.26
960.58	227.25
960.88	227.31
961.17	227.29
961.47	227.26
961.76	227.25
962.06	227.31
962.36	227.29
962.65	227.28
962.95	227.29
963.24	227.26
963.54	227.27
963.83	227.30
964.13	227.31
964.42	227.29
964.72	227.22
965.01	227.20
965.31	227.15
965.60	227.12
965.90	227.21
966.19	227.20
966.49	227.19
966.78	227.22
967.08	227.18
967.37	227.20
967.67	227.22
967.96	227.25
968.26	227.24
968.55	227.24
968.85	227.25
969.14	227.23
969.43	227.26
969.73	227.25
970.02	227.23
970.32	227.21
970.61	227.19
970.91	227.15
971.20	227.16
971.49	227.17
971.79	227.18
972.08	227.09
972.38	227.08
972.67	227.09
972.96	227.14
973.26	227.17
973.55	227.19
973.85	227.19
974.14	227.15
974.43	227.16
974.73	227.13
975.02	227.15
975.31	227.15
975.61	227.13
975.90	227.14
976.19	227.14
976.49	227.16
976.78	227.20
977.07	227.22
977.37	227.23
977.66	227.25
977.95	227.24
978.24	227.26
978.54	227.27
978.83	227.27
979.12	227.22
979.42	227.19
979.71	227.18
980.00	227.19
980.29	227.22
980.59	227.19
980.88	227.23
981.17	227.21
981.46	227.25
981.76	227.25
982.05	227.28
982.34	227.29
982.63	227.29
982.93	227.28
983.22	227.26
983.51	227.25
983.80	227.27
984.09	227.30
984.39	227.28
984.68	227.27
984.97	227.25
985.26	227.27
985.55	227.27
985.85	227.26
986.14	227.26
986.43	227.25
986.72	227.25
987.01	227.20
987.30	227.20
987.59	227.17
987.89	227.15
988.18	227.11
988.47	227.09
988.76	227.04
989.05	227.04
989.34	227.05
989.63	227.07
989.92	227.02
990.22	226.98
990.51	227.00
990.80	226.97
991.09	227.01
991.38	227.00
991.67	226.99
991.96	226.95
992.25	226.96
992.54	226.91
992.83	226.91
993.12	226.90
993.41	226.90
993.70	226.91
993.99	226.94
994.28	226.94
994.58	226.99
994.87	227.01
995.16	226.99
995.45	226.99
995.74	226.95
996.03	226.96
996.32	226.99
996.61	227.01
996.90	227.03
997.19	227.03
997.48	227.04
997.77	227.04
998.06	227.04
998.34	227.01
998.63	227.03
998.92	227.08
999.21	227.10
999.50	227.11
999.79	227.08
1000.08	227.10
1000.37	227.13
1000.66	227.09
1000.95	227.11
1001.24	227.13
1001.53	227.13
1001.82	227.15
1002.11	227.13
1002.40	227.14
1002.68	227.14
1002.97	227.24
1003.26	227.20
1003.55	227.18
1003.84	227.16
1004.13	227.22
1004.42	227.25
1004.71	227.27
1004.99	227.23
1005.28	227.29
1005.57	227.31
1005.86	227.33
1006.15	227.33
1006.44	227.27
1006.72	227.28
1007.01	227.31
1007.30	227.34
1007.59	227.34
1007.88	227.33
1008.17	227.37
1008.45	227.34
1008.74	227.31
1009.03	227.27
1009.32	227.31
1009.60	227.30
1009.89	227.34
1010.18	227.31
1010.47	227.28
1010.76	227.26
1011.04	227.26
1011.33	227.24
1011.62	227.22
1011.91	227.23
1012.19	227.22
1012.48	227.28
1012.77	227.29
1013.05	227.30
1013.34	227.27
1013.63	227.28
1013.92	227.30
1014.20	227.29
1014.49	227.29
1014.78	227.31
1015.06	227.23
1015.35	227.19
1015.64	227.21
1015.92	227.23
1016.21	227.24
1016.50	227.25
1016.78	227.27
1017.07	227.29
1017.36	227.25
1017.64	227.23
1017.93	227.19
1018.22	227.19
1018.50	227.19
1018.79	227.18
1019.08	227.15
1019.36	227.17
1019.65	227.17
1019.93	227.19
1020.22	227.21
1020.51	227.25
1020.79	227.22
1021.08	227.24
1021.36	227.89
1021.65	226.92
1021.94	227.45
1022.22	227.71
1022.51	227.14
1022.79	227.60
1023.08	227.50
1023.36	228.27
1023.65	226.59
>>>>>End Processed Spectral Data<<<<<
