SpectraSuite Data File
++++++++++++++++++++++++++++++++++++
Date: Fri Feb 01 16:26:35 EST 2013
User: group
Dark Spectrum Present: No
Reference Spectrum Present: No
Number of Sampled Component Spectra: 1
Spectrometers: USB2E7196
Integration Time (usec): 35000 (USB2E7196)
Spectra Averaged: 100 (USB2E7196)
Boxcar Smoothing: 10 (USB2E7196)
Correct for Electrical Dark: No (USB2E7196)
Strobe/Lamp Enabled: No (USB2E7196)
Correct for Detector Non-linearity: No (USB2E7196)
Correct for Stray Light: No (USB2E7196)
Number of Pixels in Processed Spectrum: 2048
>>>>>Begin Processed Spectral Data<<<<<
339.09	0.00
339.48	213.91
339.86	215.88
340.24	216.83
340.63	218.81
341.01	220.88
341.39	221.47
341.78	223.14
342.16	223.86
342.54	224.43
342.93	212.60
343.31	223.32
343.69	223.86
344.07	224.29
344.46	224.70
344.84	225.07
345.22	225.34
345.60	225.57
345.99	225.70
346.37	225.83
346.75	225.91
347.13	225.96
347.52	225.97
347.90	226.04
348.28	226.03
348.66	226.11
349.05	226.09
349.43	226.12
349.81	226.17
350.19	226.22
350.57	226.30
350.96	226.36
351.34	226.44
351.72	226.55
352.10	226.66
352.48	226.73
352.87	226.75
353.25	226.79
353.63	226.81
354.01	226.89
354.39	226.91
354.77	226.99
355.15	227.08
355.54	227.16
355.92	227.20
356.30	227.26
356.68	227.38
357.06	227.47
357.44	227.49
357.82	227.53
358.20	227.58
358.58	227.62
358.97	227.68
359.35	227.77
359.73	227.82
360.11	227.87
360.49	227.94
360.87	227.98
361.25	228.02
361.63	228.11
362.01	228.16
362.39	228.24
362.77	228.25
363.15	228.27
363.53	228.31
363.91	228.32
364.29	228.36
364.67	228.27
365.05	228.31
365.43	228.34
365.81	228.37
366.19	228.43
366.57	228.47
366.95	228.45
367.33	228.42
367.71	228.40
368.09	228.40
368.47	228.38
368.85	228.36
369.23	228.39
369.61	228.34
369.99	228.32
370.37	228.27
370.75	228.31
371.13	228.27
371.51	228.24
371.89	228.21
372.27	228.15
372.65	228.13
373.03	228.08
373.41	228.06
373.78	228.03
374.16	227.93
374.54	227.85
374.92	227.80
375.30	227.76
375.68	227.70
376.06	227.65
376.44	227.59
376.82	227.54
377.19	227.46
377.57	227.38
377.95	227.29
378.33	227.23
378.71	227.11
379.09	227.07
379.47	227.00
379.84	226.92
380.22	226.90
380.60	226.81
380.98	226.74
381.36	226.66
381.73	226.57
382.11	226.52
382.49	226.47
382.87	226.42
383.25	226.36
383.62	226.40
384.00	226.35
384.38	226.30
384.76	226.26
385.13	226.26
385.51	226.23
385.89	226.17
386.27	226.12
386.64	226.09
387.02	226.04
387.40	226.02
387.78	226.00
388.15	225.94
388.53	225.87
388.91	225.85
389.29	225.83
389.66	225.82
390.04	225.78
390.42	225.76
390.79	225.72
391.17	225.69
391.55	225.58
391.92	225.58
392.30	225.58
392.68	225.55
393.05	225.53
393.43	225.56
393.81	225.60
394.18	225.61
394.56	225.64
394.94	225.66
395.31	225.66
395.69	225.72
396.06	225.75
396.44	225.79
396.82	225.81
397.19	225.90
397.57	225.92
397.95	226.00
398.32	226.02
398.70	226.07
399.07	226.14
399.45	226.16
399.82	226.20
400.20	226.25
400.58	226.35
400.95	226.37
401.33	226.45
401.70	226.58
402.08	226.67
402.45	226.74
402.83	226.86
403.20	226.97
403.58	227.04
403.95	227.14
404.33	227.27
404.71	227.38
405.08	227.55
405.46	227.65
405.83	227.77
406.21	227.89
406.58	228.06
406.96	228.22
407.33	228.42
407.70	228.59
408.08	228.87
408.45	229.08
408.83	229.32
409.20	229.50
409.58	229.67
409.95	229.91
410.33	230.18
410.70	230.42
411.08	230.70
411.45	230.99
411.82	231.27
412.20	231.65
412.57	232.08
412.95	232.35
413.32	232.79
413.69	233.15
414.07	233.64
414.44	234.08
414.82	234.54
415.19	235.08
415.56	235.65
415.94	236.13
416.31	236.78
416.68	237.44
417.06	238.17
417.43	238.85
417.81	239.62
418.18	240.38
418.55	241.21
418.93	242.09
419.30	242.99
419.67	243.95
420.04	244.84
420.42	245.81
420.79	247.01
421.16	248.18
421.54	249.41
421.91	250.60
422.28	251.86
422.66	253.20
423.03	254.51
423.40	255.84
423.77	257.30
424.15	258.70
424.52	260.15
424.89	261.73
425.26	263.26
425.64	264.70
426.01	266.30
426.38	267.96
426.75	269.61
427.13	271.36
427.50	273.18
427.87	275.06
428.24	276.94
428.61	278.63
428.99	280.54
429.36	282.60
429.73	284.63
430.10	286.65
430.47	288.73
430.85	290.83
431.22	293.04
431.59	295.42
431.96	297.67
432.33	300.11
432.70	302.50
433.08	305.34
433.45	307.97
433.82	310.54
434.19	313.44
434.56	316.23
434.93	318.84
435.30	321.42
435.68	324.29
436.05	327.08
436.42	329.89
436.79	332.39
437.16	335.10
437.53	337.96
437.90	340.75
438.27	343.42
438.64	346.23
439.01	348.82
439.38	351.01
439.75	353.13
440.13	355.61
440.50	357.92
440.87	359.73
441.24	361.67
441.61	363.83
441.98	365.30
442.35	367.05
442.72	368.93
443.09	370.72
443.46	371.71
443.83	372.35
444.20	372.84
444.57	373.70
444.94	373.98
445.31	374.29
445.68	374.63
446.05	374.74
446.42	374.35
446.79	373.92
447.16	373.50
447.53	373.19
447.90	372.08
448.27	370.94
448.64	369.37
449.01	368.22
449.37	366.22
449.74	364.30
450.11	362.09
450.48	359.60
450.85	357.12
451.22	354.99
451.59	352.95
451.96	351.04
452.33	348.39
452.70	346.04
453.07	343.23
453.43	340.34
453.80	337.59
454.17	334.95
454.54	332.43
454.91	329.67
455.28	326.98
455.65	324.52
456.02	322.07
456.38	319.94
456.75	317.29
457.12	315.09
457.49	312.91
457.86	310.77
458.23	308.90
458.59	306.88
458.96	304.80
459.33	302.92
459.70	301.04
460.07	299.56
460.43	297.83
460.80	296.22
461.17	294.81
461.54	293.31
461.91	291.85
462.27	290.41
462.64	289.19
463.01	287.86
463.38	286.57
463.74	285.20
464.11	284.02
464.48	283.00
464.85	281.90
465.21	281.06
465.58	280.14
465.95	279.05
466.32	278.14
466.68	277.24
467.05	276.36
467.42	275.49
467.78	274.59
468.15	273.74
468.52	273.11
468.88	272.25
469.25	271.50
469.62	270.91
469.98	270.28
470.35	269.68
470.72	269.11
471.08	268.43
471.45	267.92
471.82	267.42
472.18	266.86
472.55	266.43
472.92	265.86
473.28	265.42
473.65	265.01
474.02	264.58
474.38	264.23
474.75	263.92
475.11	263.56
475.48	263.32
475.85	263.12
476.21	262.86
476.58	262.72
476.94	262.56
477.31	262.42
477.67	262.27
478.04	262.16
478.41	262.09
478.77	262.18
479.14	262.12
479.50	262.12
479.87	262.20
480.23	262.25
480.60	262.35
480.96	262.45
481.33	262.67
481.69	262.93
482.06	263.15
482.42	263.38
482.79	263.67
483.15	263.99
483.52	264.37
483.88	264.76
484.25	265.15
484.61	265.60
484.98	266.04
485.34	266.63
485.71	267.23
486.07	267.84
486.44	268.37
486.80	269.12
487.17	269.87
487.53	270.69
487.90	271.57
488.26	272.52
488.62	273.52
488.99	274.47
489.35	275.45
489.72	276.56
490.08	277.81
490.44	279.04
490.81	280.35
491.17	281.70
491.54	283.17
491.90	284.72
492.26	286.39
492.63	288.15
492.99	289.90
493.36	291.76
493.72	293.82
494.08	295.93
494.45	298.16
494.81	300.47
495.17	302.92
495.54	305.50
495.90	308.20
496.26	311.03
496.63	313.99
496.99	317.12
497.35	320.41
497.72	323.76
498.08	327.30
498.44	331.03
498.80	334.96
499.17	338.99
499.53	343.15
499.89	347.49
500.26	351.99
500.62	356.67
500.98	361.68
501.34	366.80
501.71	372.12
502.07	377.60
502.43	383.25
502.79	389.06
503.16	395.13
503.52	401.40
503.88	407.80
504.24	414.45
504.60	421.32
504.97	428.45
505.33	435.78
505.69	443.43
506.05	451.19
506.41	459.08
506.78	467.23
507.14	475.66
507.50	484.43
507.86	493.46
508.22	502.62
508.59	511.77
508.95	521.37
509.31	531.17
509.67	541.21
510.03	551.56
510.39	562.10
510.75	572.92
511.12	583.84
511.48	595.10
511.84	606.56
512.20	618.06
512.56	629.97
512.92	642.17
513.28	654.63
513.64	667.08
514.00	679.81
514.37	692.74
514.73	705.81
515.09	718.82
515.45	732.03
515.81	745.62
516.17	759.60
516.53	773.69
516.89	787.89
517.25	802.07
517.61	816.40
517.97	830.93
518.33	845.32
518.69	860.03
519.05	875.06
519.41	890.21
519.77	905.80
520.13	921.25
520.49	936.58
520.85	951.92
521.21	967.56
521.57	983.66
521.93	999.31
522.29	1015.64
522.65	1031.86
523.01	1048.02
523.37	1064.07
523.73	1080.21
524.09	1096.30
524.45	1112.56
524.81	1129.06
525.17	1145.84
525.53	1162.57
525.89	1179.40
526.25	1196.07
526.61	1212.27
526.97	1228.94
527.33	1245.39
527.68	1261.81
528.04	1278.27
528.40	1294.73
528.76	1311.64
529.12	1328.19
529.48	1345.09
529.84	1360.92
530.20	1377.39
530.56	1394.29
530.91	1411.56
531.27	1428.18
531.63	1444.42
531.99	1460.95
532.35	1476.87
532.71	1492.69
533.07	1508.91
533.42	1524.72
533.78	1540.73
534.14	1556.94
534.50	1572.15
534.86	1587.88
535.21	1603.00
535.57	1618.83
535.93	1634.23
536.29	1648.88
536.65	1663.82
537.00	1678.45
537.36	1693.72
537.72	1708.22
538.08	1722.68
538.44	1736.42
538.79	1750.29
539.15	1764.02
539.51	1777.63
539.87	1791.96
540.22	1805.64
540.58	1819.27
540.94	1832.39
541.29	1845.34
541.65	1858.06
542.01	1871.20
542.37	1883.34
542.72	1895.70
543.08	1907.42
543.44	1919.72
543.79	1930.91
544.15	1941.91
544.51	1953.41
544.87	1964.33
545.22	1975.03
545.58	1985.17
545.94	1994.69
546.29	2004.53
546.65	2014.12
547.01	2023.36
547.36	2031.86
547.72	2040.13
548.07	2047.87
548.43	2055.98
548.79	2063.87
549.14	2071.31
549.50	2078.62
549.86	2086.25
550.21	2093.64
550.57	2100.59
550.92	2107.21
551.28	2114.39
551.64	2121.33
551.99	2127.89
552.35	2133.94
552.70	2139.99
553.06	2145.87
553.41	2152.31
553.77	2158.21
554.13	2164.48
554.48	2170.62
554.84	2176.19
555.19	2181.51
555.55	2186.71
555.90	2191.25
556.26	2196.06
556.61	2200.77
556.97	2205.05
557.32	2209.12
557.68	2213.10
558.03	2217.42
558.39	2220.97
558.74	2225.70
559.10	2229.69
559.45	2233.35
559.81	2237.66
560.16	2241.57
560.52	2244.81
560.87	2248.26
561.23	2250.91
561.58	2253.73
561.94	2256.10
562.29	2258.29
562.64	2261.03
563.00	2263.60
563.35	2267.14
563.71	2270.11
564.06	2273.37
564.42	2276.19
564.77	2278.85
565.12	2281.15
565.48	2283.20
565.83	2285.27
566.19	2286.40
566.54	2287.17
566.89	2288.21
567.25	2288.90
567.60	2290.15
567.96	2291.86
568.31	2292.60
568.66	2293.86
569.02	2294.37
569.37	2294.70
569.72	2295.69
570.08	2295.85
570.43	2295.98
570.78	2295.52
571.14	2294.24
571.49	2292.84
571.84	2292.55
572.20	2291.46
572.55	2290.56
572.90	2288.91
573.26	2287.49
573.61	2285.86
573.96	2284.25
574.31	2281.40
574.67	2278.43
575.02	2275.00
575.37	2271.63
575.72	2268.02
576.08	2264.69
576.43	2261.56
576.78	2258.01
577.13	2254.93
577.49	2251.88
577.84	2248.33
578.19	2244.68
578.54	2241.05
578.90	2236.95
579.25	2231.45
579.60	2226.48
579.95	2221.52
580.30	2216.64
580.66	2211.58
581.01	2206.70
581.36	2201.84
581.71	2197.69
582.06	2193.41
582.42	2188.95
582.77	2183.78
583.12	2179.20
583.47	2174.40
583.82	2169.40
584.17	2164.37
584.53	2158.87
584.88	2153.34
585.23	2147.68
585.58	2142.26
585.93	2136.90
586.28	2132.15
586.63	2127.25
586.98	2122.40
587.34	2117.70
587.69	2112.84
588.04	2107.62
588.39	2102.04
588.74	2095.56
589.09	2089.48
589.44	2082.60
589.79	2076.73
590.14	2071.27
590.49	2064.80
590.84	2058.59
591.19	2052.62
591.54	2046.09
591.89	2038.79
592.25	2032.07
592.60	2024.91
592.95	2017.43
593.30	2010.14
593.65	2002.57
594.00	1995.61
594.35	1988.35
594.70	1980.34
595.05	1973.15
595.40	1965.92
595.75	1958.44
596.10	1952.40
596.45	1945.73
596.80	1939.74
597.15	1933.15
597.50	1926.06
597.85	1919.68
598.19	1913.04
598.54	1905.95
598.89	1899.47
599.24	1893.60
599.59	1886.84
599.94	1880.77
600.29	1874.33
600.64	1867.75
600.99	1860.41
601.34	1853.49
601.69	1846.58
602.04	1839.71
602.39	1832.43
602.74	1825.59
603.08	1818.79
603.43	1812.04
603.78	1804.68
604.13	1797.40
604.48	1790.04
604.83	1783.11
605.18	1776.28
605.53	1768.33
605.87	1760.49
606.22	1753.14
606.57	1745.29
606.92	1738.03
607.27	1730.92
607.62	1724.03
607.96	1716.83
608.31	1710.28
608.66	1702.79
609.01	1695.26
609.36	1687.75
609.70	1679.86
610.05	1671.88
610.40	1664.25
610.75	1655.88
611.10	1648.33
611.44	1639.93
611.79	1632.10
612.14	1623.53
612.49	1614.33
612.83	1605.99
613.18	1597.89
613.53	1589.80
613.88	1581.37
614.22	1573.13
614.57	1564.31
614.92	1556.26
615.27	1548.70
615.61	1540.38
615.96	1532.33
616.31	1524.66
616.65	1517.30
617.00	1509.60
617.35	1501.88
617.70	1493.64
618.04	1485.17
618.39	1476.86
618.74	1469.35
619.08	1460.90
619.43	1453.30
619.78	1446.31
620.12	1439.17
620.47	1431.49
620.82	1423.35
621.16	1415.84
621.51	1408.25
621.85	1400.63
622.20	1392.15
622.55	1383.80
622.89	1375.91
623.24	1368.18
623.59	1360.72
623.93	1353.21
624.28	1346.05
624.62	1338.53
624.97	1331.28
625.32	1324.56
625.66	1317.52
626.01	1310.30
626.35	1302.93
626.70	1295.17
627.04	1287.44
627.39	1279.53
627.73	1272.19
628.08	1265.29
628.43	1257.89
628.77	1250.46
629.12	1242.95
629.46	1235.75
629.81	1228.29
630.15	1220.97
630.50	1213.60
630.84	1205.41
631.19	1197.51
631.53	1189.94
631.88	1182.36
632.22	1174.77
632.57	1167.46
632.91	1160.03
633.26	1152.52
633.60	1145.00
633.95	1137.92
634.29	1130.82
634.64	1124.11
634.98	1116.74
635.32	1109.55
635.67	1102.96
636.01	1096.35
636.36	1089.59
636.70	1083.08
637.05	1076.55
637.39	1070.16
637.73	1063.72
638.08	1057.86
638.42	1051.81
638.77	1045.41
639.11	1038.82
639.45	1032.48
639.80	1025.77
640.14	1019.32
640.49	1012.91
640.83	1006.70
641.17	1000.43
641.52	994.12
641.86	987.72
642.20	981.83
642.55	975.55
642.89	969.15
643.23	962.53
643.58	956.85
643.92	950.64
644.26	944.50
644.61	938.44
644.95	932.39
645.29	925.74
645.64	919.04
645.98	912.71
646.32	906.87
646.66	900.79
647.01	894.98
647.35	889.17
647.69	883.20
648.04	877.66
648.38	871.92
648.72	865.95
649.06	859.89
649.41	853.99
649.75	848.03
650.09	842.06
650.43	836.34
650.78	830.18
651.12	824.26
651.46	818.63
651.80	812.93
652.14	807.52
652.49	802.13
652.83	796.90
653.17	791.20
653.51	785.57
653.85	780.20
654.20	774.55
654.54	768.62
654.88	762.98
655.22	757.09
655.56	751.37
655.90	745.90
656.25	740.70
656.59	735.32
656.93	730.24
657.27	725.09
657.61	719.69
657.95	714.52
658.29	709.39
658.64	704.10
658.98	698.77
659.32	693.30
659.66	688.13
660.00	682.77
660.34	677.93
660.68	672.98
661.02	667.90
661.36	663.21
661.70	658.69
662.05	654.32
662.39	649.97
662.73	645.48
663.07	641.12
663.41	636.61
663.75	632.12
664.09	627.57
664.43	623.16
664.77	618.98
665.11	614.73
665.45	610.61
665.79	606.58
666.13	602.43
666.47	598.31
666.81	594.17
667.15	590.16
667.49	586.18
667.83	582.32
668.17	578.38
668.51	574.31
668.85	570.32
669.19	566.47
669.53	562.68
669.87	558.87
670.21	555.12
670.55	551.49
670.89	548.13
671.23	544.75
671.57	541.19
671.91	537.64
672.25	534.07
672.58	530.51
672.92	527.07
673.26	523.88
673.60	520.73
673.94	517.63
674.28	514.67
674.62	511.70
674.96	508.65
675.30	505.80
675.64	502.88
675.97	500.05
676.31	497.16
676.65	494.16
676.99	491.45
677.33	488.62
677.67	485.83
678.01	482.75
678.34	479.73
678.68	476.86
679.02	474.07
679.36	471.36
679.70	468.68
680.04	465.89
680.37	462.99
680.71	460.21
681.05	457.57
681.39	454.83
681.73	452.19
682.06	449.59
682.40	446.96
682.74	444.46
683.08	441.94
683.42	439.34
683.75	436.87
684.09	434.26
684.43	431.77
684.77	429.27
685.10	426.92
685.44	424.58
685.78	422.34
686.12	420.08
686.45	417.80
686.79	415.50
687.13	413.29
687.46	411.18
687.80	409.01
688.14	406.83
688.48	404.74
688.81	402.48
689.15	400.32
689.49	398.19
689.82	396.07
690.16	393.98
690.50	392.04
690.83	390.10
691.17	388.10
691.51	386.20
691.84	384.37
692.18	382.44
692.52	380.45
692.85	378.52
693.19	376.65
693.52	374.77
693.86	372.93
694.20	371.17
694.53	369.34
694.87	367.49
695.21	365.71
695.54	363.93
695.88	362.21
696.21	360.51
696.55	358.84
696.88	357.15
697.22	355.48
697.56	353.87
697.89	352.22
698.23	350.63
698.56	349.05
698.90	347.49
699.23	345.87
699.57	344.34
699.90	342.80
700.24	341.22
700.58	339.72
700.91	338.26
701.25	336.77
701.58	335.39
701.92	334.03
702.25	332.63
702.59	331.24
702.92	329.89
703.26	328.55
703.59	327.25
703.93	326.08
704.26	324.79
704.60	323.49
704.93	322.21
705.26	320.99
705.60	319.79
705.93	318.60
706.27	317.54
706.60	316.49
706.94	315.39
707.27	314.27
707.61	313.22
707.94	312.18
708.27	311.11
708.61	310.08
708.94	309.10
709.28	308.11
709.61	307.16
709.94	306.25
710.28	305.27
710.61	304.33
710.95	303.22
711.28	302.37
711.61	301.40
711.95	300.50
712.28	299.53
712.61	298.53
712.95	297.58
713.28	296.68
713.61	295.80
713.95	294.92
714.28	294.05
714.61	293.20
714.95	292.32
715.28	291.46
715.61	290.55
715.95	289.71
716.28	288.84
716.61	287.96
716.95	287.08
717.28	286.32
717.61	285.49
717.94	284.79
718.28	283.91
718.61	283.18
718.94	282.45
719.27	281.77
719.61	281.17
719.94	280.52
720.27	279.81
720.60	279.11
720.94	278.47
721.27	277.87
721.60	277.28
721.93	276.66
722.27	276.12
722.60	275.51
722.93	274.91
723.26	274.41
723.59	273.86
723.93	273.28
724.26	272.75
724.59	272.23
724.92	271.67
725.25	271.22
725.59	270.70
725.92	270.16
726.25	269.61
726.58	269.11
726.91	268.61
727.24	268.11
727.57	267.64
727.91	267.14
728.24	266.69
728.57	266.17
728.90	265.72
729.23	265.21
729.56	264.80
729.89	264.32
730.22	263.80
730.55	263.34
730.89	262.94
731.22	262.47
731.55	262.03
731.88	261.59
732.21	261.17
732.54	260.74
732.87	260.36
733.20	260.03
733.53	259.63
733.86	259.26
734.19	258.90
734.52	258.51
734.85	258.19
735.18	257.76
735.51	257.40
735.84	257.06
736.17	256.78
736.50	256.39
736.83	256.17
737.16	255.86
737.49	255.54
737.82	255.19
738.15	254.91
738.48	254.56
738.81	254.22
739.14	253.90
739.47	253.57
739.80	253.28
740.13	252.96
740.46	252.61
740.79	252.28
741.12	251.96
741.45	251.67
741.78	251.37
742.11	251.10
742.44	250.79
742.77	250.47
743.10	250.14
743.43	249.88
743.75	249.50
744.08	249.34
744.41	249.08
744.74	248.83
745.07	248.51
745.40	248.28
745.73	248.10
746.06	247.84
746.39	247.62
746.71	247.33
747.04	247.02
747.37	246.81
747.70	246.60
748.03	246.36
748.36	246.14
748.68	245.86
749.01	245.65
749.34	245.44
749.67	245.25
750.00	245.04
750.33	244.86
750.65	244.63
750.98	244.32
751.31	244.11
751.64	243.91
751.97	243.75
752.29	243.52
752.62	243.24
752.95	243.02
753.28	242.79
753.60	242.58
753.93	242.43
754.26	242.21
754.59	241.98
754.91	241.75
755.24	241.55
755.57	241.40
755.90	241.17
756.22	240.99
756.55	240.78
756.88	240.60
757.20	240.36
757.53	240.15
757.86	239.95
758.19	239.79
758.51	239.61
758.84	239.40
759.17	239.23
759.49	239.08
759.82	238.96
760.15	238.81
760.47	238.66
760.80	238.48
761.13	238.32
761.45	238.16
761.78	238.01
762.11	237.86
762.43	237.70
762.76	237.53
763.08	237.39
763.41	237.24
763.74	237.07
764.06	236.92
764.39	236.80
764.71	236.64
765.04	236.49
765.37	236.32
765.69	236.17
766.02	236.03
766.34	235.89
766.67	235.75
767.00	235.62
767.32	235.55
767.65	235.46
767.97	235.32
768.30	235.19
768.62	235.10
768.95	234.95
769.27	234.83
769.60	234.73
769.92	234.61
770.25	234.49
770.57	234.35
770.90	234.24
771.22	234.12
771.55	234.02
771.87	233.92
772.20	233.84
772.52	233.82
772.85	233.86
773.17	233.77
773.50	233.64
773.82	233.53
774.15	233.40
774.47	233.27
774.80	233.21
775.12	233.12
775.45	233.03
775.77	232.97
776.09	232.88
776.42	232.82
776.74	232.78
777.07	232.71
777.39	232.63
777.72	232.57
778.04	232.53
778.36	232.46
778.69	232.38
779.01	232.34
779.33	232.20
779.66	232.04
779.98	231.96
780.31	231.92
780.63	231.93
780.95	231.86
781.28	231.78
781.60	231.70
781.92	231.64
782.25	231.59
782.57	231.52
782.89	231.48
783.22	231.39
783.54	231.31
783.86	231.27
784.19	231.26
784.51	231.25
784.83	231.19
785.16	231.14
785.48	231.09
785.80	231.05
786.12	231.02
786.45	230.95
786.77	230.95
787.09	230.90
787.42	230.80
787.74	230.79
788.06	230.77
788.38	230.74
788.71	230.70
789.03	230.67
789.35	230.63
789.67	230.57
789.99	230.55
790.32	230.48
790.64	230.43
790.96	230.45
791.28	230.37
791.61	230.31
791.93	230.31
792.25	230.32
792.57	230.35
792.89	230.29
793.21	230.26
793.54	230.20
793.86	230.17
794.18	230.11
794.50	230.08
794.82	230.04
795.14	230.00
795.47	230.00
795.79	229.96
796.11	229.90
796.43	229.87
796.75	229.84
797.07	229.83
797.39	229.79
797.71	229.69
798.04	229.66
798.36	229.65
798.68	229.57
799.00	229.52
799.32	229.38
799.64	229.36
799.96	229.31
800.28	229.25
800.60	229.19
800.92	229.19
801.24	229.14
801.56	229.10
801.89	229.08
802.21	229.08
802.53	229.01
802.85	229.03
803.17	229.07
803.49	229.04
803.81	229.00
804.13	228.98
804.45	228.94
804.77	228.90
805.09	228.83
805.41	228.80
805.73	228.76
806.05	228.69
806.37	228.65
806.69	228.64
807.01	228.61
807.33	228.61
807.65	228.52
807.97	228.55
808.28	228.52
808.60	228.46
808.92	228.37
809.24	228.41
809.56	228.33
809.88	228.24
810.20	228.21
810.52	228.20
810.84	228.15
811.16	228.12
811.48	228.08
811.80	228.10
812.12	228.08
812.43	228.07
812.75	228.08
813.07	228.05
813.39	228.02
813.71	228.00
814.03	227.95
814.35	227.96
814.67	227.90
814.98	227.90
815.30	227.87
815.62	227.84
815.94	227.76
816.26	227.81
816.58	227.75
816.89	227.75
817.21	227.72
817.53	227.73
817.85	227.73
818.17	227.70
818.48	227.65
818.80	227.65
819.12	227.65
819.44	227.62
819.76	227.62
820.07	227.61
820.39	227.61
820.71	227.63
821.03	227.63
821.34	227.57
821.66	227.58
821.98	227.59
822.30	227.59
822.61	227.65
822.93	227.59
823.25	227.61
823.57	227.58
823.88	227.59
824.20	227.58
824.52	227.59
824.83	227.63
825.15	227.63
825.47	227.64
825.79	227.60
826.10	227.63
826.42	227.63
826.74	227.64
827.05	227.63
827.37	227.61
827.69	227.60
828.00	227.64
828.32	227.60
828.64	227.59
828.95	227.66
829.27	227.63
829.58	227.63
829.90	227.64
830.22	227.64
830.53	227.61
830.85	227.57
831.17	227.53
831.48	227.49
831.80	227.46
832.11	227.44
832.43	227.44
832.75	227.42
833.06	227.49
833.38	227.43
833.69	227.41
834.01	227.41
834.32	227.39
834.64	227.33
834.96	227.35
835.27	227.34
835.59	227.28
835.90	227.23
836.22	227.21
836.53	227.17
836.85	227.13
837.16	227.23
837.48	227.20
837.79	227.23
838.11	227.19
838.42	227.22
838.74	227.22
839.05	227.21
839.37	227.17
839.68	227.07
840.00	227.07
840.31	227.10
840.63	227.07
840.94	227.03
841.26	227.00
841.57	226.97
841.88	226.97
842.20	226.94
842.51	226.93
842.83	226.90
843.14	227.02
843.46	227.04
843.77	226.93
844.08	226.93
844.40	226.86
844.71	226.84
845.03	226.81
845.34	226.78
845.65	226.73
845.97	226.76
846.28	226.76
846.60	226.78
846.91	226.74
847.22	226.74
847.54	226.77
847.85	226.81
848.16	226.81
848.48	226.75
848.79	226.78
849.10	226.76
849.42	226.74
849.73	226.64
850.04	226.62
850.36	226.60
850.67	226.63
850.98	226.63
851.30	226.62
851.61	226.60
851.92	226.62
852.23	226.62
852.55	226.62
852.86	226.56
853.17	226.54
853.49	226.53
853.80	226.54
854.11	226.52
854.42	226.49
854.74	226.46
855.05	226.48
855.36	226.44
855.67	226.47
855.99	226.47
856.30	226.53
856.61	226.52
856.92	226.50
857.23	226.48
857.55	226.50
857.86	226.51
858.17	226.51
858.48	226.45
858.79	226.45
859.11	226.45
859.42	226.47
859.73	226.48
860.04	226.50
860.35	226.46
860.66	226.42
860.98	226.44
861.29	226.45
861.60	226.44
861.91	226.47
862.22	226.41
862.53	226.41
862.84	226.31
863.16	226.35
863.47	226.34
863.78	226.36
864.09	226.35
864.40	226.36
864.71	226.39
865.02	226.43
865.33	226.44
865.64	226.45
865.95	226.46
866.27	226.49
866.58	226.48
866.89	226.48
867.20	226.52
867.51	226.51
867.82	226.53
868.13	226.56
868.44	226.54
868.75	226.58
869.06	226.60
869.37	226.61
869.68	226.57
869.99	226.60
870.30	226.61
870.61	226.67
870.92	226.65
871.23	226.62
871.54	226.65
871.85	226.67
872.16	226.66
872.47	226.64
872.78	226.60
873.09	226.60
873.40	226.62
873.71	226.63
874.02	226.68
874.33	226.65
874.64	226.62
874.95	226.64
875.26	226.64
875.56	226.65
875.87	226.66
876.18	226.68
876.49	226.76
876.80	226.73
877.11	226.70
877.42	226.70
877.73	226.69
878.04	226.66
878.35	226.65
878.66	226.65
878.96	226.67
879.27	226.67
879.58	226.68
879.89	226.67
880.20	226.69
880.51	226.65
880.82	226.68
881.12	226.70
881.43	226.68
881.74	226.63
882.05	226.60
882.36	226.60
882.67	226.61
882.97	226.49
883.28	226.49
883.59	226.46
883.90	226.50
884.21	226.51
884.51	226.50
884.82	226.49
885.13	226.51
885.44	226.51
885.74	226.51
886.05	226.48
886.36	226.45
886.67	226.37
886.98	226.41
887.28	226.39
887.59	226.38
887.90	226.36
888.20	226.38
888.51	226.38
888.82	226.36
889.13	226.39
889.43	226.49
889.74	226.49
890.05	226.50
890.35	226.48
890.66	226.46
890.97	226.43
891.28	226.39
891.58	226.33
891.89	226.33
892.20	226.30
892.50	226.29
892.81	226.31
893.12	226.33
893.42	226.27
893.73	226.26
894.04	226.25
894.34	226.28
894.65	226.27
894.95	226.27
895.26	226.27
895.57	226.27
895.87	226.15
896.18	226.13
896.48	226.14
896.79	226.12
897.10	226.16
897.40	226.16
897.71	226.17
898.01	226.18
898.32	226.17
898.63	226.16
898.93	226.14
899.24	226.15
899.54	226.13
899.85	226.12
900.15	226.13
900.46	226.11
900.76	226.11
901.07	226.12
901.38	226.15
901.68	226.15
901.99	226.10
902.29	226.12
902.60	226.13
902.90	226.12
903.21	226.10
903.51	226.08
903.82	226.12
904.12	226.14
904.43	226.13
904.73	226.15
905.03	226.19
905.34	226.31
905.64	226.29
905.95	226.30
906.25	226.30
906.56	226.29
906.86	226.31
907.17	226.32
907.47	226.33
907.77	226.32
908.08	226.32
908.38	226.34
908.69	226.34
908.99	226.34
909.30	226.34
909.60	226.37
909.90	226.37
910.21	226.36
910.51	226.34
910.81	226.38
911.12	226.35
911.42	226.36
911.73	226.26
912.03	226.24
912.33	226.28
912.64	226.30
912.94	226.31
913.24	226.27
913.55	226.26
913.85	226.27
914.15	226.26
914.46	226.26
914.76	226.24
915.06	226.26
915.37	226.28
915.67	226.28
915.97	226.26
916.27	226.23
916.58	226.23
916.88	226.24
917.18	226.20
917.49	226.31
917.79	226.30
918.09	226.32
918.39	226.39
918.70	226.37
919.00	226.35
919.30	226.41
919.60	226.42
919.91	226.43
920.21	226.42
920.51	226.41
920.81	226.41
921.12	226.41
921.42	226.36
921.72	226.34
922.02	226.34
922.32	226.36
922.63	226.39
922.93	226.43
923.23	226.45
923.53	226.49
923.83	226.40
924.13	226.37
924.44	226.35
924.74	226.36
925.04	226.34
925.34	226.32
925.64	226.28
925.94	226.27
926.24	226.32
926.55	226.29
926.85	226.25
927.15	226.24
927.45	226.24
927.75	226.25
928.05	226.25
928.35	226.20
928.65	226.19
928.95	226.17
929.26	226.10
929.56	226.09
929.86	226.07
930.16	226.03
930.46	226.05
930.76	226.08
931.06	226.00
931.36	226.00
931.66	226.02
931.96	226.00
932.26	226.01
932.56	225.93
932.86	225.94
933.16	225.96
933.46	225.91
933.76	225.90
934.06	225.91
934.36	225.91
934.66	225.94
934.96	225.93
935.26	225.94
935.56	225.99
935.86	225.95
936.16	225.91
936.46	225.91
936.76	225.90
937.06	225.86
937.36	225.86
937.66	225.88
937.96	225.87
938.26	225.85
938.56	225.81
938.86	225.83
939.16	225.85
939.46	225.88
939.76	225.89
940.06	225.89
940.35	225.89
940.65	225.85
940.95	225.87
941.25	225.87
941.55	225.89
941.85	225.88
942.15	225.92
942.45	225.94
942.75	225.94
943.04	225.93
943.34	225.97
943.64	226.00
943.94	225.95
944.24	225.94
944.54	225.96
944.84	225.96
945.13	225.96
945.43	225.95
945.73	225.95
946.03	225.97
946.33	225.97
946.62	225.97
946.92	225.99
947.22	225.98
947.52	225.94
947.82	225.91
948.11	225.89
948.41	225.85
948.71	225.86
949.01	225.89
949.31	225.89
949.60	225.88
949.90	225.87
950.20	225.87
950.50	225.91
950.79	225.91
951.09	225.95
951.39	225.95
951.69	225.95
951.98	225.99
952.28	226.01
952.58	226.01
952.87	226.01
953.17	226.01
953.47	226.01
953.76	226.04
954.06	226.04
954.36	226.05
954.66	226.07
954.95	226.10
955.25	226.11
955.55	226.12
955.84	226.12
956.14	226.15
956.44	226.18
956.73	226.13
957.03	226.09
957.32	226.08
957.62	226.06
957.92	226.06
958.21	226.02
958.51	226.11
958.81	226.14
959.10	226.12
959.40	226.15
959.69	226.17
959.99	226.20
960.29	226.19
960.58	226.17
960.88	226.17
961.17	226.11
961.47	226.11
961.76	226.08
962.06	226.09
962.36	226.05
962.65	226.05
962.95	226.07
963.24	226.08
963.54	226.07
963.83	226.07
964.13	226.04
964.42	226.01
964.72	225.91
965.01	225.90
965.31	225.89
965.60	225.85
965.90	225.91
966.19	225.84
966.49	225.82
966.78	225.82
967.08	225.81
967.37	225.81
967.67	225.76
967.96	225.77
968.26	225.76
968.55	225.77
968.85	225.76
969.14	225.73
969.43	225.71
969.73	225.70
970.02	225.70
970.32	225.70
970.61	225.67
970.91	225.62
971.20	225.59
971.49	225.56
971.79	225.56
972.08	225.46
972.38	225.49
972.67	225.49
972.96	225.49
973.26	225.47
973.55	225.50
973.85	225.52
974.14	225.51
974.43	225.51
974.73	225.48
975.02	225.48
975.31	225.48
975.61	225.47
975.90	225.47
976.19	225.47
976.49	225.46
976.78	225.51
977.07	225.55
977.37	225.58
977.66	225.61
977.95	225.62
978.24	225.62
978.54	225.66
978.83	225.66
979.12	225.63
979.42	225.65
979.71	225.65
980.00	225.66
980.29	225.66
980.59	225.61
980.88	225.64
981.17	225.64
981.46	225.67
981.76	225.70
982.05	225.74
982.34	225.75
982.63	225.79
982.93	225.81
983.22	225.83
983.51	225.83
983.80	225.84
984.09	225.89
984.39	225.93
984.68	225.90
984.97	225.93
985.26	225.98
985.55	226.00
985.85	226.00
986.14	226.04
986.43	226.04
986.72	226.07
987.01	226.06
987.30	226.08
987.59	226.08
987.89	226.09
988.18	226.10
988.47	226.11
988.76	226.09
989.05	226.04
989.34	226.06
989.63	226.12
989.92	226.10
990.22	226.09
990.51	226.08
990.80	226.12
991.09	226.10
991.38	226.11
991.67	226.09
991.96	226.07
992.25	226.06
992.54	226.06
992.83	226.10
993.12	226.14
993.41	226.16
993.70	226.18
993.99	226.19
994.28	226.16
994.58	226.17
994.87	226.15
995.16	226.18
995.45	226.17
995.74	226.12
996.03	226.13
996.32	226.15
996.61	226.15
996.90	226.13
997.19	226.12
997.48	226.10
997.77	226.05
998.06	226.04
998.34	226.02
998.63	226.04
998.92	225.99
999.21	225.98
999.50	225.95
999.79	225.95
1000.08	225.92
1000.37	225.92
1000.66	225.89
1000.95	225.92
1001.24	225.92
1001.53	225.92
1001.82	225.90
1002.11	225.88
1002.40	225.84
1002.68	225.87
1002.97	225.91
1003.26	225.88
1003.55	225.86
1003.84	225.91
1004.13	225.97
1004.42	225.94
1004.71	225.93
1004.99	225.94
1005.28	225.94
1005.57	225.94
1005.86	225.92
1006.15	225.91
1006.44	225.89
1006.72	225.89
1007.01	225.88
1007.30	225.86
1007.59	225.82
1007.88	225.83
1008.17	225.82
1008.45	225.82
1008.74	225.77
1009.03	225.71
1009.32	225.72
1009.60	225.73
1009.89	225.71
1010.18	225.64
1010.47	225.67
1010.76	225.67
1011.04	225.68
1011.33	225.66
1011.62	225.64
1011.91	225.66
1012.19	225.67
1012.48	225.67
1012.77	225.65
1013.05	225.67
1013.34	225.68
1013.63	225.74
1013.92	225.73
1014.20	225.71
1014.49	225.71
1014.78	225.75
1015.06	225.74
1015.35	225.77
1015.64	225.80
1015.92	225.83
1016.21	225.87
1016.50	225.86
1016.78	225.84
1017.07	225.81
1017.36	225.80
1017.64	225.81
1017.93	225.81
1018.22	225.79
1018.50	225.79
1018.79	225.83
1019.08	225.77
1019.36	225.79
1019.65	225.75
1019.93	225.78
1020.22	225.81
1020.51	225.85
1020.79	225.82
1021.08	225.54
1021.36	225.26
1021.65	226.04
1021.94	225.27
1022.22	226.05
1022.51	225.87
1022.79	225.93
1023.08	226.07
1023.36	226.69
1023.65	225.58
>>>>>End Processed Spectral Data<<<<<
