SpectraSuite Data File
++++++++++++++++++++++++++++++++++++
Date: Fri Feb 01 16:32:44 EST 2013
User: group
Dark Spectrum Present: No
Reference Spectrum Present: No
Number of Sampled Component Spectra: 1
Spectrometers: USB2E7196
Integration Time (usec): 35000 (USB2E7196)
Spectra Averaged: 100 (USB2E7196)
Boxcar Smoothing: 10 (USB2E7196)
Correct for Electrical Dark: No (USB2E7196)
Strobe/Lamp Enabled: No (USB2E7196)
Correct for Detector Non-linearity: No (USB2E7196)
Correct for Stray Light: No (USB2E7196)
Number of Pixels in Processed Spectrum: 2048
>>>>>Begin Processed Spectral Data<<<<<
339.09	0.00
339.48	214.28
339.86	216.29
340.24	217.07
340.63	218.03
341.01	221.54
341.39	221.11
341.78	223.06
342.16	223.52
342.54	223.85
342.93	212.67
343.31	223.40
343.69	223.95
344.07	224.38
344.46	224.80
344.84	225.18
345.22	225.44
345.60	225.66
345.99	225.82
346.37	225.95
346.75	226.07
347.13	226.12
347.52	226.14
347.90	226.18
348.28	226.21
348.66	226.26
349.05	226.21
349.43	226.26
349.81	226.31
350.19	226.36
350.57	226.42
350.96	226.49
351.34	226.55
351.72	226.59
352.10	226.67
352.48	226.76
352.87	226.82
353.25	226.84
353.63	226.91
354.01	226.99
354.39	227.07
354.77	227.13
355.15	227.22
355.54	227.30
355.92	227.34
356.30	227.40
356.68	227.49
357.06	227.57
357.44	227.62
357.82	227.64
358.20	227.67
358.58	227.72
358.97	227.77
359.35	227.85
359.73	227.95
360.11	228.00
360.49	228.05
360.87	228.10
361.25	228.14
361.63	228.20
362.01	228.22
362.39	228.23
362.77	228.27
363.15	228.31
363.53	228.33
363.91	228.32
364.29	228.37
364.67	228.34
365.05	228.35
365.43	228.36
365.81	228.40
366.19	228.49
366.57	228.51
366.95	228.51
367.33	228.48
367.71	228.43
368.09	228.47
368.47	228.42
368.85	228.39
369.23	228.38
369.61	228.37
369.99	228.35
370.37	228.34
370.75	228.34
371.13	228.29
371.51	228.23
371.89	228.25
372.27	228.19
372.65	228.14
373.03	228.08
373.41	227.99
373.78	227.92
374.16	227.83
374.54	227.74
374.92	227.66
375.30	227.62
375.68	227.56
376.06	227.50
376.44	227.42
376.82	227.39
377.19	227.29
377.57	227.17
377.95	227.09
378.33	227.00
378.71	226.88
379.09	226.82
379.47	226.80
379.84	226.71
380.22	226.66
380.60	226.57
380.98	226.52
381.36	226.49
381.73	226.38
382.11	226.33
382.49	226.28
382.87	226.23
383.25	226.18
383.62	226.23
384.00	226.15
384.38	226.13
384.76	226.08
385.13	226.11
385.51	226.13
385.89	226.05
386.27	226.04
386.64	225.98
387.02	225.95
387.40	225.91
387.78	225.88
388.15	225.84
388.53	225.83
388.91	225.79
389.29	225.78
389.66	225.80
390.04	225.73
390.42	225.71
390.79	225.71
391.17	225.67
391.55	225.55
391.92	225.54
392.30	225.54
392.68	225.49
393.05	225.48
393.43	225.42
393.81	225.42
394.18	225.40
394.56	225.45
394.94	225.48
395.31	225.47
395.69	225.51
396.06	225.53
396.44	225.56
396.82	225.56
397.19	225.62
397.57	225.64
397.95	225.69
398.32	225.73
398.70	225.78
399.07	225.90
399.45	225.95
399.82	226.01
400.20	226.08
400.58	226.17
400.95	226.19
401.33	226.30
401.70	226.47
402.08	226.56
402.45	226.65
402.83	226.74
403.20	226.85
403.58	226.93
403.95	227.05
404.33	227.17
404.71	227.31
405.08	227.48
405.46	227.61
405.83	227.77
406.21	227.89
406.58	228.05
406.96	228.20
407.33	228.40
407.70	228.56
408.08	228.80
408.45	229.03
408.83	229.28
409.20	229.53
409.58	229.65
409.95	229.93
410.33	230.20
410.70	230.46
411.08	230.73
411.45	231.05
411.82	231.36
412.20	231.68
412.57	232.12
412.95	232.39
413.32	232.81
413.69	233.22
414.07	233.68
414.44	234.12
414.82	234.59
415.19	235.12
415.56	235.68
415.94	236.25
416.31	236.88
416.68	237.48
417.06	238.16
417.43	238.90
417.81	239.64
418.18	240.38
418.55	241.20
418.93	242.07
419.30	242.94
419.67	243.88
420.04	244.86
420.42	245.82
420.79	247.00
421.16	248.16
421.54	249.36
421.91	250.57
422.28	251.80
422.66	253.13
423.03	254.41
423.40	255.76
423.77	257.11
424.15	258.56
424.52	260.03
424.89	261.64
425.26	263.20
425.64	264.64
426.01	266.22
426.38	267.85
426.75	269.50
427.13	271.21
427.50	273.01
427.87	274.89
428.24	276.75
428.61	278.49
428.99	280.39
429.36	282.46
429.73	284.51
430.10	286.57
430.47	288.58
430.85	290.68
431.22	292.89
431.59	295.30
431.96	297.46
432.33	299.93
432.70	302.27
433.08	305.03
433.45	307.68
433.82	310.25
434.19	313.18
434.56	315.98
434.93	318.66
435.30	321.24
435.68	324.10
436.05	326.90
436.42	329.67
436.79	332.14
437.16	334.78
437.53	337.63
437.90	340.38
438.27	343.13
438.64	345.89
439.01	348.41
439.38	350.64
439.75	352.82
440.13	355.28
440.50	357.59
440.87	359.46
441.24	361.36
441.61	363.56
441.98	364.98
442.35	366.78
442.72	368.62
443.09	370.39
443.46	371.40
443.83	371.99
444.20	372.45
444.57	373.34
444.94	373.67
445.31	373.96
445.68	374.32
446.05	374.42
446.42	374.13
446.79	373.79
447.16	373.29
447.53	372.94
447.90	371.82
448.27	370.65
448.64	369.07
449.01	367.95
449.37	365.97
449.74	364.11
450.11	361.85
450.48	359.38
450.85	356.93
451.22	354.75
451.59	352.73
451.96	350.85
452.33	348.25
452.70	345.90
453.07	343.12
453.43	340.25
453.80	337.49
454.17	334.79
454.54	332.21
454.91	329.52
455.28	326.89
455.65	324.41
456.02	322.02
456.38	319.88
456.75	317.22
457.12	315.04
457.49	312.83
457.86	310.68
458.23	308.83
458.59	306.75
458.96	304.68
459.33	302.86
459.70	300.98
460.07	299.49
460.43	297.76
460.80	296.15
461.17	294.69
461.54	293.21
461.91	291.75
462.27	290.35
462.64	289.14
463.01	287.80
463.38	286.52
463.74	285.18
464.11	284.03
464.48	283.03
464.85	281.89
465.21	281.01
465.58	280.12
465.95	279.06
466.32	278.19
466.68	277.33
467.05	276.43
467.42	275.57
467.78	274.65
468.15	273.83
468.52	273.14
468.88	272.34
469.25	271.57
469.62	270.98
469.98	270.27
470.35	269.62
470.72	269.03
471.08	268.42
471.45	267.87
471.82	267.37
472.18	266.75
472.55	266.36
472.92	265.84
473.28	265.37
473.65	264.92
474.02	264.50
474.38	264.12
474.75	263.78
475.11	263.46
475.48	263.18
475.85	262.97
476.21	262.75
476.58	262.53
476.94	262.39
477.31	262.23
477.67	262.09
478.04	261.99
478.41	261.93
478.77	261.95
479.14	261.88
479.50	261.84
479.87	261.92
480.23	262.00
480.60	262.10
480.96	262.21
481.33	262.40
481.69	262.59
482.06	262.80
482.42	263.02
482.79	263.26
483.15	263.60
483.52	263.97
483.88	264.32
484.25	264.71
484.61	265.12
484.98	265.59
485.34	266.17
485.71	266.78
486.07	267.41
486.44	267.97
486.80	268.69
487.17	269.46
487.53	270.29
487.90	271.09
488.26	272.05
488.62	273.04
488.99	274.03
489.35	275.10
489.72	276.22
490.08	277.43
490.44	278.71
490.81	280.03
491.17	281.36
491.54	282.84
491.90	284.41
492.26	286.05
492.63	287.80
492.99	289.61
493.36	291.55
493.72	293.63
494.08	295.75
494.45	298.02
494.81	300.43
495.17	302.88
495.54	305.52
495.90	308.19
496.26	311.01
496.63	313.98
496.99	317.08
497.35	320.37
497.72	323.81
498.08	327.33
498.44	330.98
498.80	334.94
499.17	339.03
499.53	343.20
499.89	347.61
500.26	352.17
500.62	356.82
500.98	361.77
501.34	366.84
501.71	372.18
502.07	377.63
502.43	383.20
502.79	388.96
503.16	395.00
503.52	401.32
503.88	407.77
504.24	414.44
504.60	421.34
504.97	428.49
505.33	435.83
505.69	443.49
506.05	451.33
506.41	459.23
506.78	467.37
507.14	475.84
507.50	484.53
507.86	493.56
508.22	502.76
508.59	511.99
508.95	521.59
509.31	531.45
509.67	541.54
510.03	551.82
510.39	562.41
510.75	573.19
511.12	584.13
511.48	595.38
511.84	606.81
512.20	618.30
512.56	630.27
512.92	642.40
513.28	654.83
513.64	667.25
514.00	679.94
514.37	692.88
514.73	705.91
515.09	719.02
515.45	732.23
515.81	745.88
516.17	759.84
516.53	773.84
516.89	787.89
517.25	801.97
517.61	816.42
517.97	830.85
518.33	845.32
518.69	860.05
519.05	874.90
519.41	889.99
519.77	905.50
520.13	920.87
520.49	936.13
520.85	951.38
521.21	967.04
521.57	983.21
521.93	998.93
522.29	1015.21
522.65	1031.33
523.01	1047.51
523.37	1063.39
523.73	1079.39
524.09	1095.36
524.45	1111.60
524.81	1128.15
525.17	1144.79
525.53	1161.64
525.89	1178.47
526.25	1195.17
526.61	1211.57
526.97	1228.35
527.33	1244.74
527.68	1261.20
528.04	1277.68
528.40	1294.20
528.76	1311.10
529.12	1327.57
529.48	1344.41
529.84	1360.29
530.20	1376.85
530.56	1393.75
530.91	1411.09
531.27	1427.76
531.63	1444.29
531.99	1460.78
532.35	1476.59
532.71	1492.41
533.07	1508.56
533.42	1524.20
533.78	1540.12
534.14	1556.39
534.50	1571.56
534.86	1587.25
535.21	1602.44
535.57	1618.20
535.93	1633.56
536.29	1648.38
536.65	1663.24
537.00	1677.75
537.36	1693.01
537.72	1707.28
538.08	1721.53
538.44	1735.19
538.79	1748.89
539.15	1762.40
539.51	1776.01
539.87	1790.28
540.22	1803.84
540.58	1817.37
540.94	1830.52
541.29	1843.24
541.65	1855.67
542.01	1868.60
542.37	1880.75
542.72	1892.91
543.08	1904.60
543.44	1916.87
543.79	1927.92
544.15	1938.95
544.51	1950.40
544.87	1961.22
545.22	1971.98
545.58	1982.19
545.94	1991.86
546.29	2001.72
546.65	2011.37
547.01	2020.59
547.36	2029.23
547.72	2037.69
548.07	2045.56
548.43	2053.78
548.79	2061.78
549.14	2069.23
549.50	2076.43
549.86	2084.12
550.21	2091.47
550.57	2098.50
550.92	2105.19
551.28	2112.32
551.64	2119.31
551.99	2125.79
552.35	2131.96
552.70	2138.13
553.06	2144.12
553.41	2150.39
553.77	2156.50
554.13	2162.65
554.48	2168.86
554.84	2174.35
555.19	2179.67
555.55	2184.92
555.90	2189.29
556.26	2194.21
556.61	2199.01
556.97	2203.52
557.32	2207.65
557.68	2211.79
558.03	2216.28
558.39	2219.83
558.74	2224.36
559.10	2228.20
559.45	2231.93
559.81	2236.26
560.16	2240.15
560.52	2243.29
560.87	2246.76
561.23	2249.33
561.58	2252.22
561.94	2254.68
562.29	2257.15
562.64	2259.84
563.00	2262.29
563.35	2265.85
563.71	2269.07
564.06	2272.31
564.42	2275.15
564.77	2277.72
565.12	2280.00
565.48	2281.83
565.83	2283.98
566.19	2285.29
566.54	2286.26
566.89	2287.48
567.25	2288.02
567.60	2289.22
567.96	2290.82
568.31	2291.73
568.66	2292.82
569.02	2293.48
569.37	2293.74
569.72	2294.70
570.08	2294.79
570.43	2295.01
570.78	2294.62
571.14	2293.08
571.49	2291.79
571.84	2291.54
572.20	2290.51
572.55	2289.48
572.90	2288.06
573.26	2286.71
573.61	2284.96
573.96	2283.37
574.31	2280.45
574.67	2277.55
575.02	2274.05
575.37	2270.83
575.72	2267.04
576.08	2263.70
576.43	2260.52
576.78	2257.00
577.13	2253.80
577.49	2250.78
577.84	2247.25
578.19	2243.43
578.54	2239.96
578.90	2235.77
579.25	2230.32
579.60	2225.40
579.95	2220.60
580.30	2215.57
580.66	2210.37
581.01	2205.56
581.36	2200.63
581.71	2196.49
582.06	2192.10
582.42	2187.71
582.77	2182.54
583.12	2178.09
583.47	2173.61
583.82	2168.62
584.17	2163.55
584.53	2158.21
584.88	2152.72
585.23	2147.08
585.58	2141.70
585.93	2136.28
586.28	2131.54
586.63	2126.59
586.98	2121.63
587.34	2116.90
587.69	2112.05
588.04	2106.82
588.39	2101.28
588.74	2094.77
589.09	2088.64
589.44	2081.91
589.79	2075.90
590.14	2070.42
590.49	2063.77
590.84	2057.51
591.19	2051.50
591.54	2045.02
591.89	2037.62
592.25	2030.97
592.60	2023.86
592.95	2016.28
593.30	2008.92
593.65	2001.42
594.00	1994.35
594.35	1987.20
594.70	1979.19
595.05	1972.06
595.40	1964.86
595.75	1957.40
596.10	1951.25
596.45	1944.71
596.80	1938.62
597.15	1932.15
597.50	1925.07
597.85	1918.74
598.19	1912.13
598.54	1905.06
598.89	1898.46
599.24	1892.73
599.59	1885.97
599.94	1879.83
600.29	1873.58
600.64	1867.06
600.99	1859.75
601.34	1853.05
601.69	1846.15
602.04	1839.38
602.39	1832.16
602.74	1825.34
603.08	1818.61
603.43	1812.02
603.78	1804.68
604.13	1797.55
604.48	1790.21
604.83	1783.37
605.18	1776.46
605.53	1768.54
605.87	1760.61
606.22	1753.33
606.57	1745.24
606.92	1737.96
607.27	1730.67
607.62	1723.71
607.96	1716.40
608.31	1709.67
608.66	1702.00
609.01	1694.38
609.36	1686.86
609.70	1678.78
610.05	1670.69
610.40	1663.00
610.75	1654.58
611.10	1646.94
611.44	1638.44
611.79	1630.52
612.14	1621.81
612.49	1612.70
612.83	1604.23
613.18	1596.18
613.53	1588.17
613.88	1579.58
614.22	1571.33
614.57	1562.76
614.92	1554.91
615.27	1547.39
615.61	1539.12
615.96	1531.03
616.31	1523.36
616.65	1515.90
617.00	1508.40
617.35	1500.80
617.70	1492.58
618.04	1484.23
618.39	1475.98
618.74	1468.45
619.08	1460.09
619.43	1452.55
619.78	1445.54
620.12	1438.44
620.47	1430.88
620.82	1422.62
621.16	1415.32
621.51	1407.62
621.85	1400.05
622.20	1391.41
622.55	1383.05
622.89	1375.26
623.24	1367.71
623.59	1360.36
623.93	1352.95
624.28	1345.78
624.62	1338.26
624.97	1331.01
625.32	1324.19
625.66	1317.34
626.01	1310.17
626.35	1302.86
626.70	1295.21
627.04	1287.50
627.39	1279.69
627.73	1272.31
628.08	1265.42
628.43	1258.18
628.77	1250.88
629.12	1243.35
629.46	1236.25
629.81	1228.85
630.15	1221.59
630.50	1214.16
630.84	1205.91
631.19	1198.04
631.53	1190.48
631.88	1182.91
632.22	1175.38
632.57	1168.05
632.91	1160.35
633.26	1152.96
633.60	1145.61
633.95	1138.48
634.29	1131.53
634.64	1124.78
634.98	1117.46
635.32	1110.34
635.67	1103.72
636.01	1097.05
636.36	1090.24
636.70	1083.72
637.05	1077.08
637.39	1070.57
637.73	1064.08
638.08	1058.25
638.42	1052.16
638.77	1045.74
639.11	1039.19
639.45	1032.73
639.80	1026.05
640.14	1019.63
640.49	1013.06
640.83	1006.66
641.17	1000.37
641.52	993.92
641.86	987.43
642.20	981.47
642.55	975.20
642.89	968.68
643.23	962.15
643.58	956.42
643.92	950.21
644.26	944.23
644.61	938.25
644.95	932.20
645.29	925.60
645.64	918.79
645.98	912.39
646.32	906.54
646.66	900.53
647.01	894.80
647.35	889.13
647.69	883.26
648.04	877.77
648.38	872.03
648.72	866.05
649.06	859.99
649.41	854.17
649.75	848.13
650.09	842.16
650.43	836.33
650.78	830.13
651.12	824.27
651.46	818.45
651.80	812.67
652.14	807.33
652.49	801.95
652.83	796.87
653.17	791.18
653.51	785.52
653.85	780.13
654.20	774.47
654.54	768.49
654.88	762.80
655.22	756.90
655.56	751.19
655.90	745.79
656.25	740.66
656.59	735.25
656.93	730.27
657.27	725.18
657.61	719.81
657.95	714.72
658.29	709.57
658.64	704.35
658.98	699.04
659.32	693.58
659.66	688.38
660.00	683.00
660.34	678.09
660.68	673.05
661.02	667.99
661.36	663.29
661.70	658.72
662.05	654.36
662.39	650.03
662.73	645.59
663.07	641.25
663.41	636.81
663.75	632.36
664.09	627.70
664.43	623.26
664.77	619.14
665.11	614.85
665.45	610.68
665.79	606.53
666.13	602.46
666.47	598.31
666.81	594.17
667.15	590.10
667.49	586.25
667.83	582.46
668.17	578.55
668.51	574.46
668.85	570.44
669.19	566.57
669.53	562.72
669.87	558.85
670.21	555.13
670.55	551.47
670.89	548.05
671.23	544.63
671.57	541.08
671.91	537.47
672.25	533.98
672.58	530.47
672.92	527.16
673.26	523.95
673.60	520.75
673.94	517.63
674.28	514.69
674.62	511.62
674.96	508.47
675.30	505.58
675.64	502.60
675.97	499.80
676.31	496.94
676.65	494.05
676.99	491.29
677.33	488.38
677.67	485.54
678.01	482.50
678.34	479.54
678.68	476.69
679.02	473.91
679.36	471.15
679.70	468.42
680.04	465.62
680.37	462.73
680.71	459.92
681.05	457.29
681.39	454.54
681.73	451.91
682.06	449.41
682.40	446.85
682.74	444.35
683.08	441.82
683.42	439.19
683.75	436.69
684.09	434.11
684.43	431.63
684.77	429.18
685.10	426.84
685.44	424.49
685.78	422.18
686.12	419.93
686.45	417.61
686.79	415.27
687.13	413.07
687.46	410.91
687.80	408.80
688.14	406.57
688.48	404.53
688.81	402.27
689.15	400.06
689.49	397.86
689.82	395.76
690.16	393.69
690.50	391.75
690.83	389.74
691.17	387.76
691.51	385.90
691.84	384.02
692.18	382.05
692.52	380.09
692.85	378.16
693.19	376.25
693.52	374.41
693.86	372.64
694.20	370.82
694.53	369.05
694.87	367.22
695.21	365.46
695.54	363.63
695.88	361.88
696.21	360.23
696.55	358.57
696.88	356.89
697.22	355.21
697.56	353.56
697.89	351.94
698.23	350.35
698.56	348.70
698.90	347.12
699.23	345.44
699.57	343.89
699.90	342.36
700.24	340.85
700.58	339.32
700.91	337.82
701.25	336.38
701.58	335.03
701.92	333.65
702.25	332.25
702.59	330.86
702.92	329.60
703.26	328.27
703.59	326.95
703.93	325.77
704.26	324.56
704.60	323.26
704.93	321.97
705.26	320.73
705.60	319.57
705.93	318.39
706.27	317.40
706.60	316.33
706.94	315.23
707.27	314.12
707.61	313.08
707.94	312.04
708.27	310.96
708.61	309.84
708.94	308.88
709.28	307.91
709.61	306.98
709.94	306.00
710.28	304.94
710.61	303.96
710.95	302.87
711.28	301.95
711.61	301.02
711.95	300.12
712.28	299.18
712.61	298.19
712.95	297.28
713.28	296.39
713.61	295.54
713.95	294.64
714.28	293.80
714.61	292.90
714.95	292.07
715.28	291.23
715.61	290.37
715.95	289.49
716.28	288.66
716.61	287.79
716.95	286.93
717.28	286.18
717.61	285.44
717.94	284.71
718.28	283.88
718.61	283.16
718.94	282.42
719.27	281.76
719.61	281.15
719.94	280.50
720.27	279.77
720.60	279.10
720.94	278.47
721.27	277.85
721.60	277.26
721.93	276.66
722.27	276.10
722.60	275.51
722.93	274.91
723.26	274.35
723.59	273.81
723.93	273.25
724.26	272.72
724.59	272.15
724.92	271.63
725.25	271.16
725.59	270.62
725.92	270.14
726.25	269.61
726.58	269.06
726.91	268.52
727.24	268.05
727.57	267.57
727.91	267.09
728.24	266.62
728.57	266.14
728.90	265.70
729.23	265.24
729.56	264.83
729.89	264.36
730.22	263.83
730.55	263.36
730.89	262.95
731.22	262.49
731.55	262.05
731.88	261.61
732.21	261.16
732.54	260.74
732.87	260.32
733.20	259.91
733.53	259.55
733.86	259.20
734.19	258.82
734.52	258.45
734.85	258.11
735.18	257.70
735.51	257.36
735.84	256.95
736.17	256.58
736.50	256.17
736.83	255.95
737.16	255.65
737.49	255.34
737.82	255.02
738.15	254.70
738.48	254.39
738.81	254.07
739.14	253.72
739.47	253.39
739.80	253.05
740.13	252.77
740.46	252.41
740.79	252.06
741.12	251.73
741.45	251.39
741.78	251.05
742.11	250.78
742.44	250.46
742.77	250.19
743.10	249.89
743.43	249.64
743.75	249.27
744.08	249.14
744.41	248.87
744.74	248.56
745.07	248.27
745.40	248.00
745.73	247.82
746.06	247.54
746.39	247.30
746.71	247.07
747.04	246.80
747.37	246.57
747.70	246.35
748.03	246.11
748.36	245.92
748.68	245.64
749.01	245.38
749.34	245.13
749.67	244.92
750.00	244.71
750.33	244.49
750.65	244.27
750.98	243.91
751.31	243.68
751.64	243.47
751.97	243.30
752.29	243.08
752.62	242.79
752.95	242.61
753.28	242.39
753.60	242.15
753.93	241.95
754.26	241.77
754.59	241.52
754.91	241.30
755.24	241.08
755.57	240.91
755.90	240.73
756.22	240.55
756.55	240.30
756.88	240.11
757.20	239.90
757.53	239.72
757.86	239.54
758.19	239.37
758.51	239.17
758.84	238.96
759.17	238.77
759.49	238.57
759.82	238.46
760.15	238.32
760.47	238.17
760.80	238.02
761.13	237.86
761.45	237.72
761.78	237.58
762.11	237.45
762.43	237.29
762.76	237.14
763.08	237.02
763.41	236.92
763.74	236.78
764.06	236.63
764.39	236.49
764.71	236.37
765.04	236.21
765.37	236.09
765.69	235.98
766.02	235.88
766.34	235.77
766.67	235.57
767.00	235.43
767.32	235.37
767.65	235.30
767.97	235.19
768.30	235.11
768.62	235.01
768.95	234.88
769.27	234.81
769.60	234.72
769.92	234.59
770.25	234.47
770.57	234.36
770.90	234.21
771.22	234.08
771.55	233.95
771.87	233.91
772.20	233.79
772.52	233.80
772.85	233.85
773.17	233.77
773.50	233.73
773.82	233.65
774.15	233.51
774.47	233.39
774.80	233.26
775.12	233.13
775.45	232.99
775.77	232.92
776.09	232.82
776.42	232.79
776.74	232.74
777.07	232.62
777.39	232.54
777.72	232.51
778.04	232.45
778.36	232.40
778.69	232.32
779.01	232.29
779.33	232.12
779.66	231.89
779.98	231.82
780.31	231.72
780.63	231.71
780.95	231.67
781.28	231.59
781.60	231.57
781.92	231.54
782.25	231.51
782.57	231.45
782.89	231.41
783.22	231.30
783.54	231.22
783.86	231.20
784.19	231.13
784.51	231.12
784.83	231.05
785.16	230.98
785.48	230.95
785.80	230.88
786.12	230.82
786.45	230.81
786.77	230.77
787.09	230.75
787.42	230.65
787.74	230.61
788.06	230.56
788.38	230.52
788.71	230.47
789.03	230.47
789.35	230.45
789.67	230.41
789.99	230.39
790.32	230.37
790.64	230.34
790.96	230.39
791.28	230.26
791.61	230.22
791.93	230.21
792.25	230.16
792.57	230.20
792.89	230.18
793.21	230.15
793.54	230.12
793.86	230.08
794.18	230.05
794.50	230.01
794.82	230.02
795.14	229.97
795.47	229.92
795.79	229.88
796.11	229.84
796.43	229.78
796.75	229.73
797.07	229.70
797.39	229.65
797.71	229.56
798.04	229.54
798.36	229.52
798.68	229.50
799.00	229.48
799.32	229.42
799.64	229.40
799.96	229.34
800.28	229.33
800.60	229.28
800.92	229.25
801.24	229.21
801.56	229.17
801.89	229.11
802.21	229.11
802.53	229.01
802.85	228.98
803.17	229.02
803.49	228.98
803.81	228.92
804.13	228.85
804.45	228.81
804.77	228.83
805.09	228.80
805.41	228.72
805.73	228.66
806.05	228.60
806.37	228.51
806.69	228.47
807.01	228.44
807.33	228.45
807.65	228.39
807.97	228.40
808.28	228.38
808.60	228.37
808.92	228.32
809.24	228.40
809.56	228.36
809.88	228.28
810.20	228.26
810.52	228.23
810.84	228.23
811.16	228.17
811.48	228.12
811.80	228.13
812.12	228.09
812.43	228.10
812.75	228.06
813.07	228.08
813.39	228.07
813.71	228.03
814.03	227.97
814.35	227.96
814.67	227.87
814.98	227.83
815.30	227.82
815.62	227.78
815.94	227.69
816.26	227.72
816.58	227.67
816.89	227.64
817.21	227.64
817.53	227.62
817.85	227.63
818.17	227.62
818.48	227.57
818.80	227.60
819.12	227.55
819.44	227.55
819.76	227.50
820.07	227.48
820.39	227.48
820.71	227.44
821.03	227.43
821.34	227.40
821.66	227.38
821.98	227.36
822.30	227.35
822.61	227.37
822.93	227.29
823.25	227.29
823.57	227.26
823.88	227.24
824.20	227.27
824.52	227.30
824.83	227.24
825.15	227.20
825.47	227.15
825.79	227.15
826.10	227.11
826.42	227.11
826.74	227.08
827.05	227.06
827.37	227.09
827.69	227.07
828.00	227.10
828.32	227.10
828.64	227.07
828.95	227.11
829.27	227.07
829.58	227.07
829.90	227.05
830.22	227.06
830.53	227.07
830.85	227.02
831.17	226.98
831.48	227.00
831.80	227.04
832.11	227.02
832.43	227.02
832.75	227.03
833.06	227.08
833.38	227.05
833.69	227.03
834.01	227.01
834.32	226.99
834.64	226.95
834.96	226.91
835.27	226.91
835.59	226.85
835.90	226.83
836.22	226.85
836.53	226.81
836.85	226.80
837.16	226.88
837.48	226.85
837.79	226.89
838.11	226.90
838.42	226.86
838.74	226.90
839.05	226.84
839.37	226.83
839.68	226.77
840.00	226.78
840.31	226.77
840.63	226.77
840.94	226.76
841.26	226.75
841.57	226.77
841.88	226.76
842.20	226.75
842.51	226.73
842.83	226.69
843.14	226.80
843.46	226.83
843.77	226.72
844.08	226.72
844.40	226.67
844.71	226.66
845.03	226.65
845.34	226.63
845.65	226.64
845.97	226.65
846.28	226.69
846.60	226.68
846.91	226.67
847.22	226.67
847.54	226.69
847.85	226.70
848.16	226.71
848.48	226.70
848.79	226.79
849.10	226.84
849.42	226.83
849.73	226.74
850.04	226.73
850.36	226.69
850.67	226.72
850.98	226.73
851.30	226.75
851.61	226.74
851.92	226.72
852.23	226.76
852.55	226.75
852.86	226.70
853.17	226.72
853.49	226.73
853.80	226.74
854.11	226.75
854.42	226.75
854.74	226.68
855.05	226.66
855.36	226.61
855.67	226.55
855.99	226.57
856.30	226.69
856.61	226.68
856.92	226.69
857.23	226.69
857.55	226.66
857.86	226.63
858.17	226.65
858.48	226.61
858.79	226.57
859.11	226.59
859.42	226.55
859.73	226.50
860.04	226.49
860.35	226.46
860.66	226.41
860.98	226.41
861.29	226.44
861.60	226.43
861.91	226.43
862.22	226.42
862.53	226.37
862.84	226.24
863.16	226.25
863.47	226.26
863.78	226.24
864.09	226.26
864.40	226.25
864.71	226.23
865.02	226.25
865.33	226.24
865.64	226.20
865.95	226.21
866.27	226.29
866.58	226.31
866.89	226.31
867.20	226.30
867.51	226.28
867.82	226.26
868.13	226.31
868.44	226.26
868.75	226.28
869.06	226.32
869.37	226.34
869.68	226.33
869.99	226.31
870.30	226.31
870.61	226.31
870.92	226.29
871.23	226.28
871.54	226.32
871.85	226.31
872.16	226.34
872.47	226.33
872.78	226.30
873.09	226.27
873.40	226.27
873.71	226.25
874.02	226.26
874.33	226.26
874.64	226.24
874.95	226.29
875.26	226.25
875.56	226.25
875.87	226.24
876.18	226.20
876.49	226.31
876.80	226.30
877.11	226.29
877.42	226.31
877.73	226.33
878.04	226.32
878.35	226.36
878.66	226.35
878.96	226.35
879.27	226.32
879.58	226.33
879.89	226.32
880.20	226.37
880.51	226.39
880.82	226.41
881.12	226.40
881.43	226.36
881.74	226.38
882.05	226.38
882.36	226.38
882.67	226.43
882.97	226.31
883.28	226.31
883.59	226.30
883.90	226.32
884.21	226.33
884.51	226.33
884.82	226.33
885.13	226.34
885.44	226.37
885.74	226.38
886.05	226.41
886.36	226.43
886.67	226.40
886.98	226.49
887.28	226.49
887.59	226.49
887.90	226.52
888.20	226.50
888.51	226.52
888.82	226.51
889.13	226.50
889.43	226.58
889.74	226.59
890.05	226.56
890.35	226.54
890.66	226.56
890.97	226.58
891.28	226.55
891.58	226.52
891.89	226.51
892.20	226.50
892.50	226.45
892.81	226.46
893.12	226.43
893.42	226.34
893.73	226.34
894.04	226.33
894.34	226.33
894.65	226.33
894.95	226.26
895.26	226.29
895.57	226.29
895.87	226.21
896.18	226.24
896.48	226.26
896.79	226.26
897.10	226.24
897.40	226.21
897.71	226.21
898.01	226.20
898.32	226.21
898.63	226.19
898.93	226.21
899.24	226.19
899.54	226.23
899.85	226.23
900.15	226.22
900.46	226.22
900.76	226.20
901.07	226.20
901.38	226.23
901.68	226.24
901.99	226.18
902.29	226.22
902.60	226.18
902.90	226.14
903.21	226.10
903.51	226.12
903.82	226.12
904.12	226.09
904.43	226.15
904.73	226.11
905.03	226.14
905.34	226.23
905.64	226.20
905.95	226.17
906.25	226.16
906.56	226.16
906.86	226.18
907.17	226.20
907.47	226.19
907.77	226.16
908.08	226.11
908.38	226.15
908.69	226.12
908.99	226.15
909.30	226.17
909.60	226.18
909.90	226.16
910.21	226.11
910.51	226.11
910.81	226.08
911.12	226.07
911.42	226.08
911.73	225.97
912.03	226.00
912.33	226.01
912.64	226.00
912.94	225.97
913.24	225.94
913.55	225.93
913.85	225.93
914.15	225.94
914.46	225.97
914.76	225.94
915.06	225.94
915.37	225.91
915.67	225.89
915.97	225.88
916.27	225.86
916.58	225.87
916.88	225.86
917.18	225.85
917.49	225.92
917.79	225.94
918.09	225.95
918.39	225.97
918.70	225.96
919.00	225.99
919.30	226.00
919.60	226.01
919.91	225.99
920.21	226.00
920.51	225.99
920.81	225.99
921.12	226.03
921.42	226.01
921.72	226.02
922.02	226.03
922.32	226.03
922.63	226.03
922.93	226.10
923.23	226.10
923.53	226.07
923.83	226.03
924.13	226.00
924.44	225.97
924.74	226.01
925.04	226.02
925.34	225.99
925.64	226.00
925.94	225.98
926.24	226.06
926.55	226.04
926.85	226.03
927.15	226.03
927.45	226.04
927.75	226.05
928.05	226.04
928.35	226.04
928.65	226.08
928.95	226.12
929.26	226.08
929.56	226.09
929.86	226.10
930.16	226.09
930.46	226.12
930.76	226.16
931.06	226.09
931.36	226.07
931.66	226.10
931.96	226.14
932.26	226.15
932.56	226.08
932.86	226.10
933.16	226.13
933.46	226.10
933.76	226.05
934.06	226.03
934.36	226.08
934.66	226.07
934.96	226.03
935.26	226.03
935.56	226.06
935.86	226.05
936.16	226.05
936.46	226.04
936.76	226.01
937.06	225.98
937.36	226.00
937.66	226.03
937.96	226.02
938.26	225.95
938.56	225.93
938.86	225.91
939.16	225.92
939.46	225.92
939.76	225.92
940.06	225.95
940.35	225.95
940.65	225.92
940.95	225.94
941.25	225.93
941.55	225.90
941.85	225.88
942.15	225.90
942.45	225.94
942.75	225.94
943.04	225.93
943.34	225.95
943.64	225.93
943.94	225.89
944.24	225.90
944.54	225.92
944.84	225.95
945.13	225.93
945.43	225.92
945.73	225.90
946.03	225.90
946.33	225.89
946.62	225.87
946.92	225.85
947.22	225.84
947.52	225.86
947.82	225.89
948.11	225.84
948.41	225.83
948.71	225.80
949.01	225.81
949.31	225.79
949.60	225.78
949.90	225.81
950.20	225.81
950.50	225.82
950.79	225.81
951.09	225.80
951.39	225.83
951.69	225.82
951.98	225.84
952.28	225.86
952.58	225.85
952.87	225.87
953.17	225.90
953.47	225.88
953.76	225.89
954.06	225.86
954.36	225.89
954.66	225.90
954.95	225.92
955.25	225.93
955.55	225.99
955.84	225.98
956.14	226.00
956.44	225.99
956.73	225.97
957.03	226.01
957.32	226.00
957.62	226.01
957.92	226.01
958.21	226.02
958.51	226.09
958.81	226.10
959.10	226.09
959.40	226.12
959.69	226.13
959.99	226.17
960.29	226.18
960.58	226.17
960.88	226.21
961.17	226.21
961.47	226.21
961.76	226.16
962.06	226.18
962.36	226.16
962.65	226.20
962.95	226.17
963.24	226.13
963.54	226.18
963.83	226.19
964.13	226.19
964.42	226.16
964.72	226.11
965.01	226.16
965.31	226.15
965.60	226.12
965.90	226.19
966.19	226.12
966.49	226.13
966.78	226.10
967.08	226.08
967.37	226.05
967.67	226.02
967.96	226.05
968.26	226.01
968.55	226.00
968.85	225.97
969.14	225.99
969.43	225.99
969.73	225.95
970.02	225.91
970.32	225.89
970.61	225.88
970.91	225.85
971.20	225.81
971.49	225.85
971.79	225.86
972.08	225.78
972.38	225.82
972.67	225.83
972.96	225.87
973.26	225.85
973.55	225.90
973.85	225.90
974.14	225.90
974.43	225.95
974.73	225.90
975.02	225.92
975.31	225.92
975.61	225.90
975.90	225.89
976.19	225.90
976.49	225.89
976.78	225.91
977.07	225.90
977.37	225.89
977.66	225.87
977.95	225.83
978.24	225.83
978.54	225.83
978.83	225.80
979.12	225.77
979.42	225.77
979.71	225.75
980.00	225.78
980.29	225.78
980.59	225.73
980.88	225.80
981.17	225.79
981.46	225.76
981.76	225.77
982.05	225.78
982.34	225.77
982.63	225.79
982.93	225.79
983.22	225.81
983.51	225.80
983.80	225.80
984.09	225.82
984.39	225.82
984.68	225.80
984.97	225.85
985.26	225.87
985.55	225.89
985.85	225.86
986.14	225.86
986.43	225.85
986.72	225.85
987.01	225.84
987.30	225.83
987.59	225.82
987.89	225.82
988.18	225.83
988.47	225.81
988.76	225.81
989.05	225.80
989.34	225.78
989.63	225.82
989.92	225.82
990.22	225.79
990.51	225.82
990.80	225.82
991.09	225.79
991.38	225.79
991.67	225.76
991.96	225.76
992.25	225.72
992.54	225.74
992.83	225.75
993.12	225.73
993.41	225.78
993.70	225.84
993.99	225.87
994.28	225.89
994.58	225.92
994.87	225.91
995.16	225.89
995.45	225.90
995.74	225.89
996.03	225.90
996.32	225.92
996.61	225.91
996.90	225.89
997.19	225.90
997.48	225.89
997.77	225.92
998.06	225.90
998.34	225.93
998.63	225.90
998.92	225.89
999.21	225.90
999.50	225.91
999.79	225.89
1000.08	225.86
1000.37	225.83
1000.66	225.79
1000.95	225.83
1001.24	225.87
1001.53	225.90
1001.82	225.85
1002.11	225.85
1002.40	225.84
1002.68	225.89
1002.97	225.95
1003.26	225.94
1003.55	225.92
1003.84	225.94
1004.13	225.99
1004.42	225.97
1004.71	225.98
1004.99	225.99
1005.28	226.00
1005.57	225.95
1005.86	225.94
1006.15	225.93
1006.44	225.93
1006.72	225.95
1007.01	225.92
1007.30	225.93
1007.59	225.88
1007.88	225.92
1008.17	225.91
1008.45	225.90
1008.74	225.83
1009.03	225.80
1009.32	225.76
1009.60	225.74
1009.89	225.68
1010.18	225.63
1010.47	225.64
1010.76	225.60
1011.04	225.55
1011.33	225.54
1011.62	225.54
1011.91	225.52
1012.19	225.51
1012.48	225.51
1012.77	225.48
1013.05	225.51
1013.34	225.46
1013.63	225.45
1013.92	225.44
1014.20	225.43
1014.49	225.42
1014.78	225.43
1015.06	225.40
1015.35	225.42
1015.64	225.44
1015.92	225.48
1016.21	225.49
1016.50	225.49
1016.78	225.52
1017.07	225.58
1017.36	225.57
1017.64	225.56
1017.93	225.60
1018.22	225.61
1018.50	225.63
1018.79	225.64
1019.08	225.62
1019.36	225.68
1019.65	225.69
1019.93	225.73
1020.22	225.75
1020.51	225.81
1020.79	225.80
1021.08	225.77
1021.36	225.91
1021.65	225.26
1021.94	225.93
1022.22	226.09
1022.51	225.66
1022.79	226.31
1023.08	225.97
1023.36	226.90
1023.65	225.41
>>>>>End Processed Spectral Data<<<<<
