SpectraSuite Data File
++++++++++++++++++++++++++++++++++++
Date: Fri Feb 01 17:12:45 EST 2013
User: group
Dark Spectrum Present: No
Reference Spectrum Present: No
Number of Sampled Component Spectra: 1
Spectrometers: USB2E7196
Integration Time (usec): 35000 (USB2E7196)
Spectra Averaged: 100 (USB2E7196)
Boxcar Smoothing: 10 (USB2E7196)
Correct for Electrical Dark: No (USB2E7196)
Strobe/Lamp Enabled: No (USB2E7196)
Correct for Detector Non-linearity: No (USB2E7196)
Correct for Stray Light: No (USB2E7196)
Number of Pixels in Processed Spectrum: 2048
>>>>>Begin Processed Spectral Data<<<<<
339.09	0.00
339.48	213.10
339.86	214.22
340.24	216.02
340.63	217.27
341.01	219.91
341.39	219.89
341.78	221.49
342.16	222.90
342.54	223.00
342.93	211.48
343.31	222.19
343.69	222.75
344.07	223.23
344.46	223.65
344.84	224.03
345.22	224.29
345.60	224.53
345.99	224.72
346.37	224.83
346.75	224.95
347.13	225.03
347.52	225.14
347.90	225.21
348.28	225.24
348.66	225.32
349.05	225.29
349.43	225.33
349.81	225.40
350.19	225.47
350.57	225.54
350.96	225.59
351.34	225.68
351.72	225.76
352.10	225.86
352.48	225.95
352.87	226.02
353.25	226.10
353.63	226.20
354.01	226.28
354.39	226.38
354.77	226.45
355.15	226.55
355.54	226.59
355.92	226.64
356.30	226.75
356.68	226.88
357.06	226.98
357.44	227.04
357.82	227.05
358.20	227.15
358.58	227.21
358.97	227.26
359.35	227.33
359.73	227.39
360.11	227.44
360.49	227.50
360.87	227.54
361.25	227.58
361.63	227.65
362.01	227.69
362.39	227.71
362.77	227.77
363.15	227.81
363.53	227.84
363.91	227.87
364.29	227.87
364.67	227.80
365.05	227.84
365.43	227.86
365.81	227.89
366.19	227.90
366.57	227.95
366.95	227.97
367.33	227.92
367.71	227.93
368.09	227.93
368.47	227.91
368.85	227.93
369.23	227.94
369.61	227.87
369.99	227.87
370.37	227.83
370.75	227.81
371.13	227.75
371.51	227.72
371.89	227.66
372.27	227.64
372.65	227.59
373.03	227.52
373.41	227.48
373.78	227.40
374.16	227.31
374.54	227.23
374.92	227.18
375.30	227.09
375.68	227.04
376.06	227.00
376.44	226.92
376.82	226.82
377.19	226.75
377.57	226.68
377.95	226.58
378.33	226.54
378.71	226.42
379.09	226.36
379.47	226.29
379.84	226.23
380.22	226.13
380.60	226.06
380.98	226.01
381.36	225.95
381.73	225.90
382.11	225.87
382.49	225.78
382.87	225.70
383.25	225.68
383.62	225.71
384.00	225.63
384.38	225.60
384.76	225.56
385.13	225.54
385.51	225.49
385.89	225.42
386.27	225.40
386.64	225.39
387.02	225.32
387.40	225.28
387.78	225.25
388.15	225.23
388.53	225.21
388.91	225.17
389.29	225.11
389.66	225.07
390.04	225.01
390.42	225.02
390.79	225.01
391.17	224.98
391.55	224.85
391.92	224.83
392.30	224.78
392.68	224.76
393.05	224.72
393.43	224.76
393.81	224.79
394.18	224.73
394.56	224.72
394.94	224.78
395.31	224.79
395.69	224.83
396.06	224.84
396.44	224.85
396.82	224.86
397.19	224.93
397.57	224.95
397.95	225.05
398.32	225.06
398.70	225.11
399.07	225.18
399.45	225.28
399.82	225.33
400.20	225.42
400.58	225.50
400.95	225.54
401.33	225.58
401.70	225.72
402.08	225.83
402.45	225.90
402.83	226.00
403.20	226.11
403.58	226.18
403.95	226.34
404.33	226.44
404.71	226.57
405.08	226.76
405.46	226.93
405.83	227.06
406.21	227.22
406.58	227.41
406.96	227.56
407.33	227.74
407.70	227.94
408.08	228.23
408.45	228.41
408.83	228.69
409.20	228.91
409.58	229.11
409.95	229.38
410.33	229.68
410.70	229.92
411.08	230.22
411.45	230.57
411.82	230.85
412.20	231.25
412.57	231.65
412.95	231.97
413.32	232.37
413.69	232.75
414.07	233.17
414.44	233.62
414.82	234.12
415.19	234.66
415.56	235.20
415.94	235.72
416.31	236.38
416.68	237.04
417.06	237.76
417.43	238.43
417.81	239.24
418.18	240.03
418.55	240.88
418.93	241.76
419.30	242.68
419.67	243.63
420.04	244.61
420.42	245.63
420.79	246.84
421.16	248.02
421.54	249.27
421.91	250.51
422.28	251.81
422.66	253.14
423.03	254.43
423.40	255.77
423.77	257.20
424.15	258.65
424.52	260.10
424.89	261.76
425.26	263.31
425.64	264.76
426.01	266.38
426.38	268.09
426.75	269.76
427.13	271.46
427.50	273.28
427.87	275.18
428.24	277.06
428.61	278.78
428.99	280.75
429.36	282.84
429.73	284.91
430.10	286.94
430.47	288.98
430.85	291.12
431.22	293.38
431.59	295.81
431.96	298.09
432.33	300.58
432.70	302.96
433.08	305.83
433.45	308.46
433.82	311.08
434.19	313.97
434.56	316.82
434.93	319.51
435.30	322.16
435.68	325.04
436.05	327.87
436.42	330.73
436.79	333.27
437.16	335.97
437.53	338.86
437.90	341.73
438.27	344.56
438.64	347.45
439.01	350.07
439.38	352.34
439.75	354.53
440.13	357.08
440.50	359.43
440.87	361.32
441.24	363.33
441.61	365.51
441.98	367.00
442.35	368.80
442.72	370.70
443.09	372.51
443.46	373.58
443.83	374.23
444.20	374.76
444.57	375.60
444.94	375.97
445.31	376.31
445.68	376.70
446.05	376.78
446.42	376.40
446.79	376.05
447.16	375.62
447.53	375.34
447.90	374.22
448.27	373.04
448.64	371.42
449.01	370.31
449.37	368.32
449.74	366.42
450.11	364.23
450.48	361.76
450.85	359.24
451.22	357.03
451.59	354.95
451.96	353.01
452.33	350.39
452.70	347.98
453.07	345.16
453.43	342.17
453.80	339.38
454.17	336.68
454.54	334.11
454.91	331.31
455.28	328.59
455.65	326.04
456.02	323.60
456.38	321.44
456.75	318.71
457.12	316.47
457.49	314.19
457.86	312.01
458.23	310.10
458.59	308.05
458.96	305.96
459.33	304.07
459.70	302.18
460.07	300.65
460.43	298.90
460.80	297.21
461.17	295.77
461.54	294.28
461.91	292.82
462.27	291.34
462.64	290.10
463.01	288.74
463.38	287.42
463.74	286.04
464.11	284.87
464.48	283.83
464.85	282.71
465.21	281.87
465.58	280.94
465.95	279.84
466.32	278.93
466.68	278.01
467.05	277.13
467.42	276.22
467.78	275.27
468.15	274.41
468.52	273.77
468.88	272.87
469.25	272.07
469.62	271.43
469.98	270.74
470.35	270.07
470.72	269.43
471.08	268.75
471.45	268.20
471.82	267.61
472.18	266.98
472.55	266.52
472.92	266.00
473.28	265.52
473.65	265.07
474.02	264.59
474.38	264.27
474.75	263.92
475.11	263.59
475.48	263.33
475.85	263.09
476.21	262.81
476.58	262.67
476.94	262.51
477.31	262.34
477.67	262.15
478.04	262.06
478.41	261.99
478.77	262.06
479.14	262.00
479.50	262.02
479.87	262.14
480.23	262.20
480.60	262.28
480.96	262.31
481.33	262.50
481.69	262.68
482.06	262.85
482.42	263.06
482.79	263.28
483.15	263.61
483.52	264.00
483.88	264.36
484.25	264.73
484.61	265.15
484.98	265.60
485.34	266.21
485.71	266.77
486.07	267.38
486.44	267.95
486.80	268.64
487.17	269.33
487.53	270.10
487.90	270.97
488.26	271.90
488.62	272.90
488.99	273.87
489.35	274.90
489.72	276.04
490.08	277.22
490.44	278.48
490.81	279.78
491.17	281.14
491.54	282.61
491.90	284.16
492.26	285.81
492.63	287.52
492.99	289.29
493.36	291.19
493.72	293.29
494.08	295.37
494.45	297.62
494.81	300.06
495.17	302.52
495.54	305.09
495.90	307.77
496.26	310.58
496.63	313.53
496.99	316.66
497.35	319.88
497.72	323.29
498.08	326.78
498.44	330.46
498.80	334.38
499.17	338.43
499.53	342.64
499.89	347.02
500.26	351.56
500.62	356.22
500.98	361.19
501.34	366.23
501.71	371.57
502.07	376.98
502.43	382.58
502.79	388.40
503.16	394.46
503.52	400.68
503.88	407.01
504.24	413.64
504.60	420.48
504.97	427.61
505.33	434.90
505.69	442.61
506.05	450.36
506.41	458.13
506.78	466.20
507.14	474.52
507.50	483.10
507.86	492.01
508.22	501.11
508.59	510.25
508.95	519.69
509.31	529.42
509.67	539.39
510.03	549.54
510.39	559.99
510.75	570.62
511.12	581.46
511.48	592.59
511.84	603.89
512.20	615.29
512.56	627.01
512.92	638.97
513.28	651.13
513.64	663.38
514.00	675.92
514.37	688.68
514.73	701.52
515.09	714.38
515.45	727.46
515.81	740.78
516.17	754.59
516.53	768.45
516.89	782.35
517.25	796.37
517.61	810.57
517.97	824.70
518.33	838.85
518.69	853.40
519.05	868.16
519.41	883.07
519.77	898.26
520.13	913.44
520.49	928.67
520.85	943.70
521.21	959.13
521.57	975.00
521.93	990.51
522.29	1006.63
522.65	1022.57
523.01	1038.36
523.37	1054.03
523.73	1069.78
524.09	1085.60
524.45	1101.58
524.81	1117.88
525.17	1134.24
525.53	1150.79
525.89	1167.30
526.25	1183.81
526.61	1199.88
526.97	1216.30
527.33	1232.56
527.68	1248.83
528.04	1264.87
528.40	1281.11
528.76	1297.76
529.12	1314.15
529.48	1330.58
529.84	1346.25
530.20	1362.56
530.56	1379.28
530.91	1396.49
531.27	1413.00
531.63	1429.20
531.99	1445.39
532.35	1461.00
532.71	1476.72
533.07	1492.73
533.42	1508.43
533.78	1524.18
534.14	1540.12
534.50	1555.24
534.86	1570.75
535.21	1585.69
535.57	1601.29
535.93	1616.60
536.29	1631.19
536.65	1645.84
537.00	1660.30
537.36	1675.31
537.72	1689.54
538.08	1703.82
538.44	1717.33
538.79	1730.94
539.15	1744.24
539.51	1757.69
539.87	1771.76
540.22	1785.17
540.58	1798.61
540.94	1811.52
541.29	1823.87
541.65	1836.39
542.01	1849.32
542.37	1861.52
542.72	1873.78
543.08	1885.48
543.44	1897.67
543.79	1908.76
544.15	1919.61
544.51	1931.10
544.87	1942.05
545.22	1952.83
545.58	1963.07
545.94	1972.87
546.29	1982.66
546.65	1992.60
547.01	2002.05
547.36	2010.80
547.72	2019.37
548.07	2027.43
548.43	2035.64
548.79	2043.75
549.14	2051.46
549.50	2058.72
549.86	2066.36
550.21	2073.68
550.57	2080.93
550.92	2087.66
551.28	2094.87
551.64	2102.15
551.99	2108.78
552.35	2115.14
552.70	2121.42
553.06	2127.49
553.41	2134.01
553.77	2140.18
554.13	2146.37
554.48	2152.50
554.84	2158.34
555.19	2163.72
555.55	2168.94
555.90	2173.79
556.26	2179.03
556.61	2183.81
556.97	2188.46
557.32	2192.76
557.68	2197.15
558.03	2201.59
558.39	2205.45
558.74	2210.08
559.10	2214.14
559.45	2218.07
559.81	2222.39
560.16	2226.36
560.52	2229.69
560.87	2233.26
561.23	2236.14
561.58	2239.06
561.94	2241.83
562.29	2244.19
562.64	2247.16
563.00	2249.93
563.35	2253.62
563.71	2256.99
564.06	2260.31
564.42	2263.39
564.77	2266.38
565.12	2268.98
565.48	2271.21
565.83	2273.34
566.19	2275.10
566.54	2276.17
566.89	2277.68
567.25	2278.73
567.60	2280.17
567.96	2282.26
568.31	2283.32
568.66	2284.68
569.02	2285.60
569.37	2286.26
569.72	2287.43
570.08	2287.96
570.43	2288.27
570.78	2288.05
571.14	2286.74
571.49	2285.68
571.84	2285.53
572.20	2284.49
572.55	2283.76
572.90	2282.27
573.26	2281.25
573.61	2279.75
573.96	2278.33
574.31	2275.45
574.67	2272.53
575.02	2269.27
575.37	2265.93
575.72	2262.40
576.08	2259.09
576.43	2255.97
576.78	2252.62
577.13	2249.57
577.49	2246.33
577.84	2243.17
578.19	2239.57
578.54	2236.30
578.90	2232.37
579.25	2227.16
579.60	2222.48
579.95	2217.60
580.30	2212.90
580.66	2207.79
581.01	2202.95
581.36	2198.30
581.71	2194.49
582.06	2190.47
582.42	2186.30
582.77	2181.41
583.12	2177.02
583.47	2172.78
583.82	2168.18
584.17	2163.03
584.53	2157.73
584.88	2152.45
585.23	2146.90
585.58	2141.48
585.93	2136.11
586.28	2131.43
586.63	2126.65
586.98	2121.81
587.34	2117.15
587.69	2112.35
588.04	2107.52
588.39	2102.04
588.74	2095.74
589.09	2089.76
589.44	2083.08
589.79	2076.98
590.14	2071.39
590.49	2065.07
590.84	2058.80
591.19	2052.92
591.54	2046.69
591.89	2039.68
592.25	2033.29
592.60	2026.26
592.95	2019.14
593.30	2012.00
593.65	2004.63
594.00	1997.60
594.35	1990.51
594.70	1982.62
595.05	1975.82
595.40	1968.61
595.75	1961.26
596.10	1955.22
596.45	1948.64
596.80	1942.55
597.15	1936.26
597.50	1929.68
597.85	1923.34
598.19	1916.86
598.54	1910.18
598.89	1903.77
599.24	1898.01
599.59	1891.50
599.94	1885.32
600.29	1878.87
600.64	1872.41
600.99	1865.11
601.34	1858.32
601.69	1851.28
602.04	1844.64
602.39	1837.32
602.74	1830.44
603.08	1823.94
603.43	1817.20
603.78	1810.02
604.13	1802.89
604.48	1795.77
604.83	1788.87
605.18	1782.07
605.53	1774.16
605.87	1765.98
606.22	1758.61
606.57	1750.65
606.92	1742.98
607.27	1735.95
607.62	1729.16
607.96	1721.97
608.31	1715.60
608.66	1708.25
609.01	1700.74
609.36	1693.29
609.70	1685.25
610.05	1677.34
610.40	1669.75
610.75	1661.55
611.10	1653.78
611.44	1645.33
611.79	1637.15
612.14	1628.36
612.49	1619.08
612.83	1610.59
613.18	1602.36
613.53	1594.28
613.88	1585.70
614.22	1577.54
614.57	1568.81
614.92	1560.75
615.27	1553.33
615.61	1545.00
615.96	1536.93
616.31	1529.33
616.65	1521.88
617.00	1514.41
617.35	1506.62
617.70	1498.25
618.04	1489.72
618.39	1481.48
618.74	1473.93
619.08	1465.69
619.43	1458.03
619.78	1451.03
620.12	1443.95
620.47	1436.39
620.82	1428.14
621.16	1420.59
621.51	1412.93
621.85	1405.24
622.20	1396.70
622.55	1388.12
622.89	1380.02
623.24	1372.17
623.59	1364.70
623.93	1357.04
624.28	1349.67
624.62	1342.23
624.97	1334.97
625.32	1328.06
625.66	1320.99
626.01	1313.75
626.35	1306.42
626.70	1298.61
627.04	1290.88
627.39	1282.94
627.73	1275.52
628.08	1268.67
628.43	1261.50
628.77	1254.27
629.12	1246.85
629.46	1239.69
629.81	1232.16
630.15	1224.88
630.50	1217.50
630.84	1209.35
631.19	1201.43
631.53	1193.83
631.88	1186.16
632.22	1178.42
632.57	1171.05
632.91	1163.50
633.26	1156.14
633.60	1148.62
633.95	1141.39
634.29	1134.23
634.64	1127.52
634.98	1120.23
635.32	1112.98
635.67	1106.24
636.01	1099.45
636.36	1092.58
636.70	1086.01
637.05	1079.45
637.39	1073.02
637.73	1066.58
638.08	1060.63
638.42	1054.62
638.77	1048.17
639.11	1041.67
639.45	1035.28
639.80	1028.69
640.14	1022.25
640.49	1015.71
640.83	1009.36
641.17	1003.18
641.52	996.94
641.86	990.37
642.20	984.50
642.55	978.08
642.89	971.70
643.23	965.02
643.58	959.24
643.92	953.08
644.26	947.08
644.61	940.94
644.95	934.77
645.29	928.20
645.64	921.45
645.98	915.04
646.32	909.01
646.66	902.98
647.01	897.13
647.35	891.39
647.69	885.42
648.04	879.87
648.38	874.05
648.72	868.12
649.06	862.19
649.41	856.18
649.75	850.27
650.09	844.21
650.43	838.45
650.78	832.25
651.12	826.19
651.46	820.45
651.80	814.84
652.14	809.48
652.49	804.02
652.83	798.84
653.17	793.28
653.51	787.63
653.85	782.18
654.20	776.60
654.54	770.58
654.88	764.82
655.22	758.91
655.56	753.14
655.90	747.56
656.25	742.35
656.59	736.99
656.93	731.88
657.27	726.77
657.61	721.29
657.95	716.17
658.29	711.08
658.64	705.73
658.98	700.36
659.32	694.88
659.66	689.70
660.00	684.49
660.34	679.50
660.68	674.49
661.02	669.45
661.36	664.66
661.70	660.15
662.05	655.84
662.39	651.51
662.73	647.08
663.07	642.69
663.41	638.22
663.75	633.79
664.09	629.24
664.43	624.84
664.77	620.80
665.11	616.55
665.45	612.35
665.79	608.33
666.13	604.20
666.47	600.11
666.81	595.99
667.15	591.74
667.49	587.77
667.83	583.93
668.17	580.03
668.51	575.94
668.85	571.86
669.19	567.96
669.53	564.13
669.87	560.29
670.21	556.58
670.55	552.91
670.89	549.41
671.23	545.95
671.57	542.38
671.91	538.92
672.25	535.34
672.58	531.90
672.92	528.42
673.26	525.26
673.60	522.01
673.94	518.93
674.28	516.01
674.62	513.05
674.96	510.00
675.30	507.07
675.64	504.21
675.97	501.42
676.31	498.53
676.65	495.57
676.99	492.83
677.33	489.99
677.67	487.14
678.01	484.14
678.34	481.18
678.68	478.29
679.02	475.43
679.36	472.71
679.70	469.93
680.04	467.21
680.37	464.32
680.71	461.55
681.05	458.86
681.39	456.09
681.73	453.44
682.06	450.88
682.40	448.31
682.74	445.70
683.08	443.10
683.42	440.43
683.75	437.90
684.09	435.30
684.43	432.78
684.77	430.26
685.10	427.82
685.44	425.46
685.78	423.15
686.12	420.83
686.45	418.44
686.79	416.14
687.13	413.85
687.46	411.63
687.80	409.44
688.14	407.16
688.48	405.11
688.81	402.88
689.15	400.72
689.49	398.53
689.82	396.44
690.16	394.33
690.50	392.43
690.83	390.48
691.17	388.50
691.51	386.55
691.84	384.67
692.18	382.76
692.52	380.83
692.85	378.86
693.19	377.00
693.52	375.16
693.86	373.31
694.20	371.48
694.53	369.70
694.87	367.86
695.21	366.06
695.54	364.21
695.88	362.41
696.21	360.64
696.55	358.98
696.88	357.27
697.22	355.62
697.56	353.95
697.89	352.28
698.23	350.67
698.56	349.07
698.90	347.54
699.23	345.93
699.57	344.37
699.90	342.82
700.24	341.21
700.58	339.70
700.91	338.21
701.25	336.79
701.58	335.37
701.92	333.96
702.25	332.57
702.59	331.18
702.92	329.86
703.26	328.55
703.59	327.20
703.93	326.00
704.26	324.76
704.60	323.48
704.93	322.19
705.26	320.91
705.60	319.69
705.93	318.47
706.27	317.39
706.60	316.30
706.94	315.25
707.27	314.15
707.61	313.08
707.94	312.02
708.27	310.91
708.61	309.81
708.94	308.79
709.28	307.81
709.61	306.84
709.94	305.90
710.28	304.87
710.61	303.87
710.95	302.78
711.28	301.82
711.61	300.87
711.95	299.98
712.28	299.08
712.61	298.13
712.95	297.21
713.28	296.31
713.61	295.42
713.95	294.52
714.28	293.64
714.61	292.74
714.95	291.90
715.28	291.09
715.61	290.24
715.95	289.42
716.28	288.57
716.61	287.78
716.95	286.98
717.28	286.25
717.61	285.51
717.94	284.79
718.28	284.02
718.61	283.27
718.94	282.52
719.27	281.89
719.61	281.23
719.94	280.58
720.27	279.86
720.60	279.21
720.94	278.59
721.27	278.02
721.60	277.48
721.93	276.90
722.27	276.34
722.60	275.81
722.93	275.21
723.26	274.67
723.59	274.12
723.93	273.53
724.26	272.97
724.59	272.43
724.92	271.89
725.25	271.40
725.59	270.90
725.92	270.40
726.25	269.84
726.58	269.34
726.91	268.82
727.24	268.34
727.57	267.85
727.91	267.28
728.24	266.78
728.57	266.28
728.90	265.79
729.23	265.29
729.56	264.79
729.89	264.32
730.22	263.81
730.55	263.29
730.89	262.84
731.22	262.34
731.55	261.90
731.88	261.46
732.21	261.00
732.54	260.56
732.87	260.13
733.20	259.70
733.53	259.33
733.86	258.96
734.19	258.53
734.52	258.11
734.85	257.80
735.18	257.39
735.51	256.98
735.84	256.58
736.17	256.17
736.50	255.81
736.83	255.56
737.16	255.25
737.49	254.93
737.82	254.55
738.15	254.26
738.48	253.94
738.81	253.61
739.14	253.30
739.47	252.99
739.80	252.69
740.13	252.40
740.46	252.06
740.79	251.71
741.12	251.40
741.45	251.08
741.78	250.74
742.11	250.51
742.44	250.16
742.77	249.88
743.10	249.60
743.43	249.27
743.75	248.88
744.08	248.69
744.41	248.41
744.74	248.14
745.07	247.83
745.40	247.56
745.73	247.35
746.06	247.06
746.39	246.77
746.71	246.49
747.04	246.20
747.37	245.90
747.70	245.70
748.03	245.47
748.36	245.26
748.68	245.04
749.01	244.76
749.34	244.59
749.67	244.35
750.00	244.16
750.33	244.04
750.65	243.84
750.98	243.49
751.31	243.26
751.64	243.05
751.97	242.88
752.29	242.65
752.62	242.37
752.95	242.14
753.28	241.94
753.60	241.75
753.93	241.61
754.26	241.43
754.59	241.18
754.91	240.96
755.24	240.75
755.57	240.54
755.90	240.30
756.22	240.10
756.55	239.91
756.88	239.67
757.20	239.42
757.53	239.19
757.86	239.05
758.19	238.91
758.51	238.73
758.84	238.51
759.17	238.31
759.49	238.17
759.82	238.10
760.15	237.96
760.47	237.80
760.80	237.59
761.13	237.45
761.45	237.31
761.78	237.17
762.11	237.03
762.43	236.86
762.76	236.77
763.08	236.63
763.41	236.50
763.74	236.38
764.06	236.26
764.39	236.14
764.71	236.02
765.04	235.84
765.37	235.70
765.69	235.58
766.02	235.49
766.34	235.36
766.67	235.17
767.00	235.05
767.32	234.98
767.65	234.94
767.97	234.81
768.30	234.71
768.62	234.58
768.95	234.44
769.27	234.35
769.60	234.24
769.92	234.12
770.25	234.02
770.57	233.91
770.90	233.78
771.22	233.70
771.55	233.60
771.87	233.55
772.20	233.51
772.52	233.51
772.85	233.53
773.17	233.42
773.50	233.32
773.82	233.24
774.15	233.12
774.47	232.96
774.80	232.89
775.12	232.76
775.45	232.69
775.77	232.65
776.09	232.56
776.42	232.48
776.74	232.44
777.07	232.38
777.39	232.31
777.72	232.22
778.04	232.16
778.36	232.08
778.69	231.99
779.01	231.88
779.33	231.72
779.66	231.55
779.98	231.48
780.31	231.42
780.63	231.33
780.95	231.26
781.28	231.21
781.60	231.15
781.92	231.13
782.25	231.04
782.57	230.96
782.89	230.93
783.22	230.85
783.54	230.78
783.86	230.71
784.19	230.64
784.51	230.62
784.83	230.52
785.16	230.46
785.48	230.40
785.80	230.36
786.12	230.34
786.45	230.27
786.77	230.24
787.09	230.17
787.42	230.12
787.74	230.11
788.06	230.06
788.38	230.01
788.71	229.95
789.03	229.91
789.35	229.90
789.67	229.83
789.99	229.78
790.32	229.73
790.64	229.70
790.96	229.77
791.28	229.66
791.61	229.66
791.93	229.65
792.25	229.61
792.57	229.60
792.89	229.51
793.21	229.48
793.54	229.45
793.86	229.43
794.18	229.41
794.50	229.33
794.82	229.30
795.14	229.28
795.47	229.25
795.79	229.21
796.11	229.17
796.43	229.14
796.75	229.10
797.07	229.09
797.39	229.04
797.71	228.94
798.04	228.91
798.36	228.84
798.68	228.79
799.00	228.75
799.32	228.70
799.64	228.70
799.96	228.66
800.28	228.62
800.60	228.56
800.92	228.49
801.24	228.43
801.56	228.42
801.89	228.35
802.21	228.34
802.53	228.31
802.85	228.29
803.17	228.28
803.49	228.24
803.81	228.19
804.13	228.16
804.45	228.08
804.77	228.07
805.09	228.07
805.41	228.05
805.73	228.01
806.05	227.96
806.37	227.93
806.69	227.90
807.01	227.88
807.33	227.87
807.65	227.80
807.97	227.83
808.28	227.78
808.60	227.75
808.92	227.71
809.24	227.74
809.56	227.69
809.88	227.64
810.20	227.64
810.52	227.63
810.84	227.56
811.16	227.56
811.48	227.52
811.80	227.51
812.12	227.45
812.43	227.44
812.75	227.42
813.07	227.39
813.39	227.37
813.71	227.36
814.03	227.32
814.35	227.33
814.67	227.25
814.98	227.22
815.30	227.21
815.62	227.17
815.94	227.07
816.26	227.10
816.58	227.08
816.89	227.05
817.21	227.00
817.53	227.01
817.85	226.99
818.17	226.95
818.48	226.92
818.80	226.95
819.12	226.92
819.44	226.90
819.76	226.95
820.07	226.93
820.39	226.89
820.71	226.90
821.03	226.90
821.34	226.87
821.66	226.92
821.98	226.92
822.30	226.91
822.61	226.97
822.93	226.90
823.25	226.87
823.57	226.83
823.88	226.85
824.20	226.87
824.52	226.86
824.83	226.84
825.15	226.83
825.47	226.80
825.79	226.79
826.10	226.80
826.42	226.74
826.74	226.75
827.05	226.77
827.37	226.76
827.69	226.73
828.00	226.74
828.32	226.71
828.64	226.66
828.95	226.72
829.27	226.69
829.58	226.74
829.90	226.77
830.22	226.83
830.53	226.78
830.85	226.72
831.17	226.71
831.48	226.76
831.80	226.75
832.11	226.74
832.43	226.71
832.75	226.69
833.06	226.71
833.38	226.65
833.69	226.65
834.01	226.60
834.32	226.61
834.64	226.58
834.96	226.57
835.27	226.58
835.59	226.52
835.90	226.49
836.22	226.42
836.53	226.40
836.85	226.35
837.16	226.44
837.48	226.48
837.79	226.49
838.11	226.45
838.42	226.43
838.74	226.41
839.05	226.41
839.37	226.41
839.68	226.35
840.00	226.34
840.31	226.33
840.63	226.31
840.94	226.29
841.26	226.29
841.57	226.29
841.88	226.35
842.20	226.31
842.51	226.29
842.83	226.27
843.14	226.36
843.46	226.34
843.77	226.29
844.08	226.24
844.40	226.22
844.71	226.19
845.03	226.21
845.34	226.19
845.65	226.20
845.97	226.16
846.28	226.15
846.60	226.14
846.91	226.10
847.22	226.13
847.54	226.16
847.85	226.17
848.16	226.14
848.48	226.07
848.79	226.11
849.10	226.11
849.42	226.16
849.73	226.05
850.04	226.07
850.36	226.01
850.67	226.05
850.98	226.03
851.30	226.08
851.61	226.05
851.92	226.05
852.23	226.06
852.55	226.08
852.86	226.08
853.17	226.10
853.49	226.11
853.80	226.12
854.11	226.11
854.42	226.09
854.74	226.06
855.05	226.05
855.36	225.96
855.67	225.97
855.99	225.95
856.30	226.06
856.61	226.03
856.92	226.01
857.23	226.00
857.55	225.99
857.86	225.97
858.17	225.96
858.48	225.91
858.79	225.89
859.11	225.93
859.42	225.92
859.73	225.92
860.04	225.95
860.35	225.89
860.66	225.86
860.98	225.87
861.29	225.88
861.60	225.86
861.91	225.90
862.22	225.87
862.53	225.82
862.84	225.69
863.16	225.71
863.47	225.69
863.78	225.70
864.09	225.71
864.40	225.71
864.71	225.74
865.02	225.76
865.33	225.77
865.64	225.68
865.95	225.68
866.27	225.73
866.58	225.69
866.89	225.70
867.20	225.69
867.51	225.68
867.82	225.69
868.13	225.70
868.44	225.67
868.75	225.68
869.06	225.71
869.37	225.72
869.68	225.70
869.99	225.73
870.30	225.71
870.61	225.72
870.92	225.71
871.23	225.68
871.54	225.70
871.85	225.69
872.16	225.74
872.47	225.74
872.78	225.63
873.09	225.65
873.40	225.67
873.71	225.68
874.02	225.71
874.33	225.66
874.64	225.65
874.95	225.67
875.26	225.64
875.56	225.63
875.87	225.62
876.18	225.62
876.49	225.72
876.80	225.72
877.11	225.67
877.42	225.69
877.73	225.70
878.04	225.68
878.35	225.66
878.66	225.64
878.96	225.64
879.27	225.66
879.58	225.63
879.89	225.59
880.20	225.64
880.51	225.59
880.82	225.61
881.12	225.62
881.43	225.59
881.74	225.60
882.05	225.57
882.36	225.56
882.67	225.55
882.97	225.46
883.28	225.45
883.59	225.49
883.90	225.47
884.21	225.49
884.51	225.47
884.82	225.47
885.13	225.49
885.44	225.46
885.74	225.45
886.05	225.45
886.36	225.45
886.67	225.37
886.98	225.42
887.28	225.42
887.59	225.43
887.90	225.44
888.20	225.44
888.51	225.46
888.82	225.46
889.13	225.49
889.43	225.55
889.74	225.55
890.05	225.50
890.35	225.48
890.66	225.46
890.97	225.44
891.28	225.43
891.58	225.42
891.89	225.42
892.20	225.43
892.50	225.42
892.81	225.43
893.12	225.45
893.42	225.42
893.73	225.44
894.04	225.43
894.34	225.37
894.65	225.36
894.95	225.33
895.26	225.34
895.57	225.36
895.87	225.28
896.18	225.29
896.48	225.31
896.79	225.30
897.10	225.31
897.40	225.34
897.71	225.37
898.01	225.37
898.32	225.39
898.63	225.41
898.93	225.43
899.24	225.41
899.54	225.41
899.85	225.43
900.15	225.40
900.46	225.42
900.76	225.50
901.07	225.53
901.38	225.55
901.68	225.54
901.99	225.46
902.29	225.50
902.60	225.50
902.90	225.48
903.21	225.51
903.51	225.51
903.82	225.51
904.12	225.52
904.43	225.51
904.73	225.51
905.03	225.50
905.34	225.57
905.64	225.59
905.95	225.57
906.25	225.55
906.56	225.57
906.86	225.58
907.17	225.56
907.47	225.53
907.77	225.54
908.08	225.55
908.38	225.59
908.69	225.57
908.99	225.59
909.30	225.62
909.60	225.61
909.90	225.61
910.21	225.61
910.51	225.59
910.81	225.59
911.12	225.61
911.42	225.62
911.73	225.54
912.03	225.57
912.33	225.61
912.64	225.61
912.94	225.58
913.24	225.57
913.55	225.58
913.85	225.57
914.15	225.56
914.46	225.58
914.76	225.54
915.06	225.53
915.37	225.52
915.67	225.48
915.97	225.50
916.27	225.45
916.58	225.45
916.88	225.47
917.18	225.47
917.49	225.50
917.79	225.49
918.09	225.50
918.39	225.50
918.70	225.46
919.00	225.48
919.30	225.52
919.60	225.51
919.91	225.49
920.21	225.49
920.51	225.49
920.81	225.48
921.12	225.50
921.42	225.49
921.72	225.50
922.02	225.51
922.32	225.51
922.63	225.53
922.93	225.57
923.23	225.56
923.53	225.51
923.83	225.44
924.13	225.45
924.44	225.40
924.74	225.41
925.04	225.44
925.34	225.44
925.64	225.39
925.94	225.36
926.24	225.42
926.55	225.38
926.85	225.38
927.15	225.40
927.45	225.40
927.75	225.40
928.05	225.37
928.35	225.35
928.65	225.32
928.95	225.31
929.26	225.24
929.56	225.23
929.86	225.22
930.16	225.22
930.46	225.17
930.76	225.18
931.06	225.11
931.36	225.08
931.66	225.06
931.96	225.11
932.26	225.13
932.56	225.08
932.86	225.11
933.16	225.11
933.46	225.05
933.76	225.04
934.06	225.07
934.36	225.10
934.66	225.12
934.96	225.11
935.26	225.13
935.56	225.16
935.86	225.13
936.16	225.16
936.46	225.18
936.76	225.18
937.06	225.19
937.36	225.21
937.66	225.20
937.96	225.21
938.26	225.14
938.56	225.13
938.86	225.13
939.16	225.15
939.46	225.15
939.76	225.17
940.06	225.19
940.35	225.18
940.65	225.14
940.95	225.15
941.25	225.19
941.55	225.19
941.85	225.20
942.15	225.26
942.45	225.31
942.75	225.33
943.04	225.36
943.34	225.38
943.64	225.42
943.94	225.44
944.24	225.42
944.54	225.49
944.84	225.51
945.13	225.51
945.43	225.51
945.73	225.52
946.03	225.52
946.33	225.52
946.62	225.49
946.92	225.50
947.22	225.51
947.52	225.47
947.82	225.48
948.11	225.51
948.41	225.48
948.71	225.44
949.01	225.44
949.31	225.46
949.60	225.46
949.90	225.45
950.20	225.44
950.50	225.46
950.79	225.43
951.09	225.41
951.39	225.40
951.69	225.42
951.98	225.44
952.28	225.46
952.58	225.45
952.87	225.45
953.17	225.44
953.47	225.42
953.76	225.45
954.06	225.41
954.36	225.36
954.66	225.36
954.95	225.39
955.25	225.38
955.55	225.34
955.84	225.33
956.14	225.34
956.44	225.35
956.73	225.32
957.03	225.34
957.32	225.32
957.62	225.31
957.92	225.30
958.21	225.28
958.51	225.39
958.81	225.42
959.10	225.42
959.40	225.47
959.69	225.46
959.99	225.44
960.29	225.44
960.58	225.42
960.88	225.42
961.17	225.39
961.47	225.36
961.76	225.37
962.06	225.37
962.36	225.35
962.65	225.36
962.95	225.35
963.24	225.32
963.54	225.34
963.83	225.36
964.13	225.35
964.42	225.28
964.72	225.18
965.01	225.16
965.31	225.16
965.60	225.12
965.90	225.17
966.19	225.13
966.49	225.16
966.78	225.13
967.08	225.09
967.37	225.08
967.67	225.08
967.96	225.08
968.26	225.06
968.55	225.05
968.85	225.03
969.14	225.02
969.43	225.03
969.73	225.02
970.02	224.99
970.32	224.97
970.61	225.01
970.91	224.97
971.20	224.92
971.49	224.90
971.79	224.92
972.08	224.88
972.38	224.93
972.67	224.90
972.96	224.95
973.26	224.98
973.55	225.02
973.85	225.02
974.14	225.02
974.43	225.02
974.73	225.03
975.02	225.01
975.31	225.03
975.61	225.02
975.90	224.99
976.19	224.97
976.49	225.00
976.78	225.00
977.07	225.02
977.37	225.04
977.66	225.07
977.95	225.03
978.24	225.05
978.54	225.04
978.83	225.03
979.12	225.04
979.42	225.04
979.71	225.03
980.00	225.04
980.29	225.02
980.59	225.02
980.88	225.04
981.17	225.04
981.46	225.02
981.76	225.05
982.05	225.11
982.34	225.15
982.63	225.15
982.93	225.18
983.22	225.22
983.51	225.23
983.80	225.22
984.09	225.24
984.39	225.23
984.68	225.20
984.97	225.21
985.26	225.22
985.55	225.22
985.85	225.22
986.14	225.24
986.43	225.28
986.72	225.30
987.01	225.28
987.30	225.29
987.59	225.29
987.89	225.28
988.18	225.23
988.47	225.21
988.76	225.19
989.05	225.16
989.34	225.13
989.63	225.17
989.92	225.15
990.22	225.16
990.51	225.15
990.80	225.17
991.09	225.19
991.38	225.19
991.67	225.17
991.96	225.17
992.25	225.16
992.54	225.11
992.83	225.09
993.12	225.08
993.41	225.10
993.70	225.14
993.99	225.16
994.28	225.18
994.58	225.20
994.87	225.23
995.16	225.22
995.45	225.23
995.74	225.18
996.03	225.20
996.32	225.19
996.61	225.20
996.90	225.21
997.19	225.17
997.48	225.16
997.77	225.17
998.06	225.16
998.34	225.14
998.63	225.17
998.92	225.20
999.21	225.21
999.50	225.21
999.79	225.17
1000.08	225.17
1000.37	225.15
1000.66	225.13
1000.95	225.12
1001.24	225.14
1001.53	225.11
1001.82	225.10
1002.11	225.10
1002.40	225.11
1002.68	225.13
1002.97	225.18
1003.26	225.18
1003.55	225.17
1003.84	225.15
1004.13	225.15
1004.42	225.17
1004.71	225.17
1004.99	225.13
1005.28	225.15
1005.57	225.13
1005.86	225.12
1006.15	225.12
1006.44	225.12
1006.72	225.15
1007.01	225.15
1007.30	225.14
1007.59	225.15
1007.88	225.19
1008.17	225.19
1008.45	225.19
1008.74	225.14
1009.03	225.10
1009.32	225.12
1009.60	225.13
1009.89	225.18
1010.18	225.16
1010.47	225.16
1010.76	225.16
1011.04	225.18
1011.33	225.19
1011.62	225.22
1011.91	225.24
1012.19	225.25
1012.48	225.26
1012.77	225.27
1013.05	225.28
1013.34	225.29
1013.63	225.30
1013.92	225.28
1014.20	225.28
1014.49	225.30
1014.78	225.31
1015.06	225.27
1015.35	225.30
1015.64	225.33
1015.92	225.34
1016.21	225.32
1016.50	225.30
1016.78	225.30
1017.07	225.33
1017.36	225.31
1017.64	225.29
1017.93	225.34
1018.22	225.31
1018.50	225.31
1018.79	225.27
1019.08	225.24
1019.36	225.24
1019.65	225.24
1019.93	225.25
1020.22	225.28
1020.51	225.32
1020.79	225.33
1021.08	224.93
1021.36	224.88
1021.65	224.86
1021.94	225.13
1022.22	225.35
1022.51	225.29
1022.79	225.28
1023.08	225.66
1023.36	226.73
1023.65	225.05
>>>>>End Processed Spectral Data<<<<<
