SpectraSuite Data File
++++++++++++++++++++++++++++++++++++
Date: Fri Feb 01 17:20:10 EST 2013
User: group
Dark Spectrum Present: No
Reference Spectrum Present: No
Number of Sampled Component Spectra: 1
Spectrometers: USB2E7196
Integration Time (usec): 35000 (USB2E7196)
Spectra Averaged: 100 (USB2E7196)
Boxcar Smoothing: 10 (USB2E7196)
Correct for Electrical Dark: No (USB2E7196)
Strobe/Lamp Enabled: No (USB2E7196)
Correct for Detector Non-linearity: No (USB2E7196)
Correct for Stray Light: No (USB2E7196)
Number of Pixels in Processed Spectrum: 2048
>>>>>Begin Processed Spectral Data<<<<<
339.09	0.00
339.48	213.02
339.86	214.24
340.24	215.53
340.63	217.48
341.01	220.23
341.39	219.99
341.78	221.60
342.16	222.79
342.54	223.05
342.93	211.41
343.31	222.09
343.69	222.63
344.07	223.10
344.46	223.53
344.84	223.89
345.22	224.10
345.60	224.33
345.99	224.48
346.37	224.58
346.75	224.66
347.13	224.73
347.52	224.78
347.90	224.85
348.28	224.92
348.66	224.95
349.05	224.94
349.43	225.03
349.81	225.08
350.19	225.07
350.57	225.11
350.96	225.17
351.34	225.24
351.72	225.33
352.10	225.40
352.48	225.49
352.87	225.56
353.25	225.65
353.63	225.71
354.01	225.81
354.39	225.89
354.77	225.98
355.15	226.10
355.54	226.16
355.92	226.20
356.30	226.29
356.68	226.42
357.06	226.48
357.44	226.54
357.82	226.63
358.20	226.76
358.58	226.84
358.97	226.91
359.35	226.99
359.73	227.07
360.11	227.16
360.49	227.22
360.87	227.25
361.25	227.28
361.63	227.39
362.01	227.42
362.39	227.47
362.77	227.54
363.15	227.54
363.53	227.58
363.91	227.62
364.29	227.62
364.67	227.57
365.05	227.60
365.43	227.59
365.81	227.59
366.19	227.62
366.57	227.66
366.95	227.65
367.33	227.66
367.71	227.66
368.09	227.67
368.47	227.64
368.85	227.66
369.23	227.67
369.61	227.60
369.99	227.60
370.37	227.60
370.75	227.60
371.13	227.57
371.51	227.52
371.89	227.45
372.27	227.42
372.65	227.41
373.03	227.37
373.41	227.35
373.78	227.31
374.16	227.19
374.54	227.11
374.92	227.05
375.30	227.01
375.68	226.92
376.06	226.84
376.44	226.78
376.82	226.68
377.19	226.62
377.57	226.56
377.95	226.44
378.33	226.37
378.71	226.26
379.09	226.20
379.47	226.14
379.84	226.12
380.22	226.03
380.60	225.92
380.98	225.86
381.36	225.78
381.73	225.69
382.11	225.68
382.49	225.64
382.87	225.55
383.25	225.48
383.62	225.54
384.00	225.47
384.38	225.46
384.76	225.45
385.13	225.46
385.51	225.40
385.89	225.38
386.27	225.32
386.64	225.32
387.02	225.27
387.40	225.25
387.78	225.21
388.15	225.19
388.53	225.19
388.91	225.17
389.29	225.11
389.66	225.09
390.04	225.05
390.42	225.02
390.79	225.05
391.17	225.00
391.55	224.86
391.92	224.85
392.30	224.82
392.68	224.79
393.05	224.76
393.43	224.80
393.81	224.82
394.18	224.82
394.56	224.79
394.94	224.82
395.31	224.84
395.69	224.87
396.06	224.90
396.44	224.92
396.82	224.92
397.19	225.03
397.57	225.07
397.95	225.16
398.32	225.16
398.70	225.19
399.07	225.28
399.45	225.36
399.82	225.41
400.20	225.46
400.58	225.52
400.95	225.56
401.33	225.65
401.70	225.76
402.08	225.82
402.45	225.90
402.83	225.99
403.20	226.07
403.58	226.15
403.95	226.25
404.33	226.37
404.71	226.50
405.08	226.65
405.46	226.79
405.83	226.89
406.21	227.04
406.58	227.17
406.96	227.32
407.33	227.49
407.70	227.68
408.08	227.96
408.45	228.18
408.83	228.42
409.20	228.60
409.58	228.77
409.95	229.06
410.33	229.33
410.70	229.58
411.08	229.86
411.45	230.15
411.82	230.48
412.20	230.85
412.57	231.29
412.95	231.58
413.32	231.97
413.69	232.39
414.07	232.85
414.44	233.33
414.82	233.84
415.19	234.39
415.56	234.97
415.94	235.50
416.31	236.17
416.68	236.81
417.06	237.57
417.43	238.29
417.81	239.07
418.18	239.86
418.55	240.75
418.93	241.65
419.30	242.60
419.67	243.55
420.04	244.51
420.42	245.52
420.79	246.75
421.16	247.96
421.54	249.17
421.91	250.41
422.28	251.73
422.66	253.08
423.03	254.43
423.40	255.80
423.77	257.30
424.15	258.77
424.52	260.31
424.89	261.94
425.26	263.56
425.64	265.05
426.01	266.73
426.38	268.42
426.75	270.16
427.13	271.95
427.50	273.84
427.87	275.76
428.24	277.65
428.61	279.42
428.99	281.42
429.36	283.59
429.73	285.75
430.10	287.81
430.47	289.95
430.85	292.14
431.22	294.43
431.59	296.85
431.96	299.19
432.33	301.75
432.70	304.18
433.08	307.03
433.45	309.76
433.82	312.42
434.19	315.38
434.56	318.30
434.93	321.05
435.30	323.78
435.68	326.80
436.05	329.75
436.42	332.62
436.79	335.23
437.16	338.00
437.53	340.88
437.90	343.79
438.27	346.59
438.64	349.52
439.01	352.20
439.38	354.54
439.75	356.72
440.13	359.25
440.50	361.68
440.87	363.64
441.24	365.61
441.61	367.84
441.98	369.38
442.35	371.22
442.72	373.06
443.09	374.90
443.46	375.96
443.83	376.61
444.20	377.20
444.57	378.08
444.94	378.40
445.31	378.82
445.68	379.22
446.05	379.36
446.42	378.93
446.79	378.53
447.16	378.05
447.53	377.72
447.90	376.63
448.27	375.46
448.64	373.83
449.01	372.73
449.37	370.71
449.74	368.78
450.11	366.49
450.48	364.00
450.85	361.40
451.22	359.17
451.59	357.05
451.96	355.03
452.33	352.35
452.70	349.92
453.07	346.94
453.43	343.95
453.80	341.07
454.17	338.36
454.54	335.71
454.91	332.88
455.28	330.15
455.65	327.57
456.02	325.02
456.38	322.79
456.75	320.04
457.12	317.74
457.49	315.44
457.86	313.23
458.23	311.33
458.59	309.22
458.96	307.07
459.33	305.22
459.70	303.28
460.07	301.73
460.43	300.01
460.80	298.37
461.17	296.91
461.54	295.36
461.91	293.88
462.27	292.40
462.64	291.15
463.01	289.72
463.38	288.39
463.74	286.97
464.11	285.77
464.48	284.72
464.85	283.56
465.21	282.67
465.58	281.67
465.95	280.52
466.32	279.56
466.68	278.60
467.05	277.60
467.42	276.72
467.78	275.79
468.15	274.84
468.52	274.19
468.88	273.29
469.25	272.47
469.62	271.81
469.98	271.12
470.35	270.47
470.72	269.87
471.08	269.15
471.45	268.59
471.82	268.03
472.18	267.40
472.55	266.98
472.92	266.43
473.28	266.02
473.65	265.58
474.02	265.11
474.38	264.76
474.75	264.43
475.11	264.06
475.48	263.76
475.85	263.55
476.21	263.26
476.58	263.07
476.94	262.94
477.31	262.77
477.67	262.62
478.04	262.51
478.41	262.46
478.77	262.52
479.14	262.45
479.50	262.42
479.87	262.51
480.23	262.57
480.60	262.67
480.96	262.72
481.33	262.93
481.69	263.12
482.06	263.31
482.42	263.56
482.79	263.78
483.15	264.09
483.52	264.46
483.88	264.81
484.25	265.18
484.61	265.64
484.98	266.10
485.34	266.66
485.71	267.21
486.07	267.80
486.44	268.39
486.80	269.10
487.17	269.87
487.53	270.67
487.90	271.53
488.26	272.43
488.62	273.39
488.99	274.32
489.35	275.43
489.72	276.55
490.08	277.72
490.44	278.97
490.81	280.31
491.17	281.64
491.54	283.14
491.90	284.69
492.26	286.26
492.63	288.00
492.99	289.78
493.36	291.68
493.72	293.74
494.08	295.83
494.45	298.09
494.81	300.43
495.17	302.83
495.54	305.37
495.90	308.07
496.26	310.87
496.63	313.83
496.99	316.90
497.35	320.12
497.72	323.51
498.08	327.04
498.44	330.69
498.80	334.59
499.17	338.66
499.53	342.75
499.89	347.11
500.26	351.55
500.62	356.19
500.98	361.14
501.34	366.19
501.71	371.44
502.07	376.77
502.43	382.29
502.79	388.06
503.16	394.09
503.52	400.26
503.88	406.56
504.24	413.15
504.60	419.94
504.97	427.04
505.33	434.26
505.69	441.92
506.05	449.59
506.41	457.38
506.78	465.39
507.14	473.72
507.50	482.40
507.86	491.27
508.22	500.35
508.59	509.40
508.95	518.82
509.31	528.51
509.67	538.55
510.03	548.71
510.39	559.12
510.75	569.74
511.12	580.45
511.48	591.54
511.84	602.74
512.20	614.07
512.56	625.72
512.92	637.64
513.28	649.69
513.64	661.89
514.00	674.34
514.37	687.09
514.73	699.87
515.09	712.58
515.45	725.58
515.81	738.87
516.17	752.57
516.53	766.41
516.89	780.32
517.25	794.19
517.61	808.36
517.97	822.56
518.33	836.69
518.69	851.27
519.05	865.93
519.41	880.76
519.77	895.87
520.13	911.06
520.49	926.15
520.85	941.16
521.21	956.47
521.57	972.38
521.93	987.74
522.29	1003.81
522.65	1019.73
523.01	1035.54
523.37	1051.31
523.73	1067.17
524.09	1082.86
524.45	1098.74
524.81	1114.93
525.17	1131.19
525.53	1147.60
525.89	1164.10
526.25	1180.51
526.61	1196.69
526.97	1213.13
527.33	1229.40
527.68	1245.56
528.04	1261.69
528.40	1277.95
528.76	1294.68
529.12	1310.90
529.48	1327.50
529.84	1343.12
530.20	1359.32
530.56	1375.92
530.91	1392.97
531.27	1409.33
531.63	1425.45
531.99	1441.80
532.35	1457.59
532.71	1473.29
533.07	1489.25
533.42	1504.99
533.78	1520.71
534.14	1536.58
534.50	1551.51
534.86	1567.02
535.21	1582.02
535.57	1597.65
535.93	1612.96
536.29	1627.56
536.65	1642.31
537.00	1656.65
537.36	1671.90
537.72	1686.19
538.08	1700.65
538.44	1714.08
538.79	1727.71
539.15	1741.16
539.51	1754.63
539.87	1768.70
540.22	1782.25
540.58	1795.81
540.94	1808.85
541.29	1821.51
541.65	1834.14
542.01	1847.25
542.37	1859.60
542.72	1871.76
543.08	1883.59
543.44	1895.87
543.79	1907.11
544.15	1918.11
544.51	1929.70
544.87	1940.46
545.22	1951.41
545.58	1961.44
545.94	1971.35
546.29	1981.28
546.65	1991.30
547.01	2000.59
547.36	2009.32
547.72	2017.96
548.07	2026.10
548.43	2034.29
548.79	2042.34
549.14	2050.04
549.50	2057.55
549.86	2065.22
550.21	2072.85
550.57	2080.05
550.92	2086.84
551.28	2094.03
551.64	2101.36
551.99	2108.22
552.35	2114.61
552.70	2120.84
553.06	2126.96
553.41	2133.49
553.77	2139.75
554.13	2145.92
554.48	2152.28
554.84	2158.29
555.19	2163.69
555.55	2169.17
555.90	2173.97
556.26	2179.26
556.61	2184.11
556.97	2188.76
557.32	2193.22
557.68	2197.65
558.03	2202.23
558.39	2206.04
558.74	2210.92
559.10	2215.03
559.45	2218.76
559.81	2223.26
560.16	2227.60
560.52	2231.25
560.87	2234.97
561.23	2238.03
561.58	2241.23
561.94	2244.06
562.29	2246.38
562.64	2249.63
563.00	2252.33
563.35	2256.17
563.71	2259.64
564.06	2263.20
564.42	2266.47
564.77	2269.43
565.12	2272.20
565.48	2274.50
565.83	2276.83
566.19	2278.72
566.54	2279.97
566.89	2281.80
567.25	2282.86
567.60	2284.35
567.96	2286.41
568.31	2287.61
568.66	2289.06
569.02	2290.11
569.37	2290.80
569.72	2292.26
570.08	2292.73
570.43	2293.23
570.78	2293.08
571.14	2291.99
571.49	2290.89
571.84	2290.78
572.20	2289.93
572.55	2289.09
572.90	2287.72
573.26	2286.81
573.61	2285.19
573.96	2283.91
574.31	2281.22
574.67	2278.61
575.02	2275.38
575.37	2272.31
575.72	2268.99
576.08	2265.92
576.43	2262.82
576.78	2259.69
577.13	2256.59
577.49	2253.60
577.84	2250.41
578.19	2246.83
578.54	2243.59
578.90	2239.90
579.25	2234.73
579.60	2230.16
579.95	2225.53
580.30	2220.90
580.66	2215.90
581.01	2211.26
581.36	2206.38
581.71	2202.47
582.06	2198.24
582.42	2194.03
582.77	2189.22
583.12	2184.92
583.47	2180.57
583.82	2176.05
584.17	2170.86
584.53	2165.78
584.88	2160.53
585.23	2155.07
585.58	2149.78
585.93	2144.56
586.28	2139.78
586.63	2134.98
586.98	2130.04
587.34	2125.44
587.69	2120.75
588.04	2115.82
588.39	2110.57
588.74	2104.35
589.09	2098.43
589.44	2092.10
589.79	2086.21
590.14	2080.78
590.49	2074.31
590.84	2067.99
591.19	2062.03
591.54	2055.96
591.89	2048.91
592.25	2042.34
592.60	2035.18
592.95	2028.07
593.30	2020.82
593.65	2013.54
594.00	2006.68
594.35	1999.57
594.70	1991.67
595.05	1984.75
595.40	1977.45
595.75	1969.98
596.10	1964.04
596.45	1957.42
596.80	1951.18
597.15	1944.75
597.50	1937.86
597.85	1931.38
598.19	1924.93
598.54	1918.08
598.89	1911.42
599.24	1905.37
599.59	1898.82
599.94	1892.74
600.29	1886.38
600.64	1879.76
600.99	1872.50
601.34	1865.67
601.69	1858.64
602.04	1851.92
602.39	1844.54
602.74	1837.80
603.08	1831.09
603.43	1824.31
603.78	1816.99
604.13	1809.80
604.48	1802.67
604.83	1795.73
605.18	1788.91
605.53	1781.04
605.87	1772.98
606.22	1765.82
606.57	1757.90
606.92	1750.37
607.27	1743.26
607.62	1736.39
607.96	1729.25
608.31	1722.78
608.66	1715.20
609.01	1707.81
609.36	1700.22
609.70	1692.26
610.05	1684.35
610.40	1676.61
610.75	1668.25
611.10	1660.59
611.44	1652.12
611.79	1643.96
612.14	1635.29
612.49	1626.06
612.83	1617.51
613.18	1609.30
613.53	1601.09
613.88	1592.58
614.22	1584.45
614.57	1575.69
614.92	1567.64
615.27	1560.09
615.61	1551.60
615.96	1543.46
616.31	1535.63
616.65	1528.17
617.00	1520.61
617.35	1512.70
617.70	1504.35
618.04	1495.91
618.39	1487.46
618.74	1479.91
619.08	1471.48
619.43	1463.78
619.78	1456.80
620.12	1449.59
620.47	1441.94
620.82	1433.73
621.16	1426.21
621.51	1418.40
621.85	1410.71
622.20	1401.98
622.55	1393.41
622.89	1385.37
623.24	1377.66
623.59	1370.22
623.93	1362.56
624.28	1355.18
624.62	1347.76
624.97	1340.49
625.32	1333.41
625.66	1326.43
626.01	1319.07
626.35	1311.61
626.70	1303.74
627.04	1296.02
627.39	1288.12
627.73	1280.66
628.08	1273.58
628.43	1266.32
628.77	1259.03
629.12	1251.39
629.46	1244.21
629.81	1236.61
630.15	1229.25
630.50	1221.84
630.84	1213.58
631.19	1205.56
631.53	1197.83
631.88	1190.07
632.22	1182.35
632.57	1175.07
632.91	1167.39
633.26	1160.02
633.60	1152.55
633.95	1145.29
634.29	1138.03
634.64	1131.23
634.98	1123.91
635.32	1116.69
635.67	1109.89
636.01	1103.08
636.36	1096.27
636.70	1089.73
637.05	1083.18
637.39	1076.70
637.73	1070.11
638.08	1064.16
638.42	1058.13
638.77	1051.75
639.11	1045.17
639.45	1038.72
639.80	1032.03
640.14	1025.57
640.49	1018.95
640.83	1012.60
641.17	1006.35
641.52	1000.02
641.86	993.57
642.20	987.58
642.55	981.11
642.89	974.62
643.23	967.88
643.58	962.04
643.92	955.65
644.26	949.64
644.61	943.53
644.95	937.49
645.29	930.94
645.64	924.16
645.98	917.70
646.32	911.70
646.66	905.63
647.01	899.77
647.35	893.99
647.69	887.98
648.04	882.45
648.38	876.64
648.72	870.74
649.06	864.62
649.41	858.61
649.75	852.69
650.09	846.66
650.43	840.98
650.78	834.81
651.12	828.91
651.46	823.11
651.80	817.42
652.14	811.85
652.49	806.39
652.83	801.18
653.17	795.55
653.51	789.95
653.85	784.50
654.20	778.93
654.54	772.96
654.88	767.21
655.22	761.21
655.56	755.47
655.90	749.79
656.25	744.52
656.59	739.23
656.93	734.10
657.27	729.02
657.61	723.47
657.95	718.33
658.29	713.19
658.64	707.78
658.98	702.34
659.32	696.89
659.66	691.68
660.00	686.42
660.34	681.41
660.68	676.36
661.02	671.31
661.36	666.57
661.70	662.03
662.05	657.67
662.39	653.41
662.73	648.96
663.07	644.67
663.41	640.23
663.75	635.68
664.09	631.11
664.43	626.66
664.77	622.51
665.11	618.28
665.45	614.11
665.79	610.10
666.13	605.99
666.47	601.89
666.81	597.73
667.15	593.56
667.49	589.64
667.83	585.75
668.17	581.77
668.51	577.62
668.85	573.53
669.19	569.67
669.53	565.76
669.87	561.89
670.21	558.15
670.55	554.50
670.89	551.03
671.23	547.59
671.57	544.03
671.91	540.54
672.25	536.92
672.58	533.33
672.92	529.87
673.26	526.66
673.60	523.47
673.94	520.33
674.28	517.35
674.62	514.35
674.96	511.30
675.30	508.39
675.64	505.48
675.97	502.69
676.31	499.79
676.65	496.84
676.99	494.07
677.33	491.13
677.67	488.28
678.01	485.24
678.34	482.24
678.68	479.33
679.02	476.49
679.36	473.72
679.70	471.06
680.04	468.30
680.37	465.43
680.71	462.60
681.05	459.92
681.39	457.16
681.73	454.46
682.06	451.90
682.40	449.34
682.74	446.74
683.08	444.12
683.42	441.52
683.75	439.00
684.09	436.42
684.43	433.94
684.77	431.45
685.10	429.04
685.44	426.70
685.78	424.37
686.12	422.08
686.45	419.77
686.79	417.45
687.13	415.25
687.46	413.03
687.80	410.88
688.14	408.62
688.48	406.57
688.81	404.30
689.15	402.13
689.49	399.90
689.82	397.80
690.16	395.65
690.50	393.64
690.83	391.68
691.17	389.62
691.51	387.67
691.84	385.76
692.18	383.87
692.52	381.95
692.85	379.98
693.19	378.05
693.52	376.18
693.86	374.26
694.20	372.41
694.53	370.59
694.87	368.69
695.21	366.90
695.54	365.01
695.88	363.25
696.21	361.47
696.55	359.79
696.88	358.07
697.22	356.43
697.56	354.76
697.89	353.07
698.23	351.49
698.56	349.86
698.90	348.28
699.23	346.63
699.57	344.99
699.90	343.41
700.24	341.86
700.58	340.30
700.91	338.81
701.25	337.35
701.58	335.97
701.92	334.65
702.25	333.24
702.59	331.90
702.92	330.57
703.26	329.25
703.59	327.96
703.93	326.73
704.26	325.47
704.60	324.19
704.93	322.90
705.26	321.62
705.60	320.44
705.93	319.24
706.27	318.17
706.60	317.12
706.94	316.02
707.27	314.88
707.61	313.83
707.94	312.76
708.27	311.64
708.61	310.54
708.94	309.44
709.28	308.48
709.61	307.49
709.94	306.60
710.28	305.60
710.61	304.58
710.95	303.48
711.28	302.53
711.61	301.57
711.95	300.66
712.28	299.71
712.61	298.74
712.95	297.76
713.28	296.82
713.61	295.88
713.95	295.01
714.28	294.14
714.61	293.26
714.95	292.43
715.28	291.61
715.61	290.69
715.95	289.82
716.28	288.98
716.61	288.11
716.95	287.21
717.28	286.43
717.61	285.65
717.94	284.93
718.28	284.07
718.61	283.34
718.94	282.59
719.27	281.84
719.61	281.16
719.94	280.49
720.27	279.76
720.60	279.09
720.94	278.43
721.27	277.81
721.60	277.22
721.93	276.56
722.27	275.98
722.60	275.43
722.93	274.83
723.26	274.25
723.59	273.67
723.93	273.09
724.26	272.50
724.59	271.93
724.92	271.41
725.25	270.96
725.59	270.45
725.92	269.94
726.25	269.48
726.58	268.97
726.91	268.47
727.24	268.00
727.57	267.52
727.91	266.98
728.24	266.47
728.57	265.94
728.90	265.49
729.23	264.97
729.56	264.54
729.89	264.10
730.22	263.62
730.55	263.12
730.89	262.69
731.22	262.26
731.55	261.84
731.88	261.38
732.21	260.97
732.54	260.50
732.87	260.10
733.20	259.70
733.53	259.26
733.86	258.89
734.19	258.49
734.52	258.09
734.85	257.79
735.18	257.40
735.51	257.07
735.84	256.71
736.17	256.38
736.50	255.95
736.83	255.71
737.16	255.38
737.49	255.08
737.82	254.73
738.15	254.38
738.48	254.02
738.81	253.70
739.14	253.35
739.47	253.03
739.80	252.71
740.13	252.44
740.46	252.18
740.79	251.80
741.12	251.50
741.45	251.19
741.78	250.84
742.11	250.56
742.44	250.22
742.77	249.92
743.10	249.59
743.43	249.31
743.75	248.95
744.08	248.78
744.41	248.50
744.74	248.23
745.07	247.94
745.40	247.70
745.73	247.47
746.06	247.21
746.39	246.93
746.71	246.64
747.04	246.35
747.37	246.08
747.70	245.85
748.03	245.63
748.36	245.40
748.68	245.19
749.01	244.91
749.34	244.69
749.67	244.47
750.00	244.26
750.33	244.07
750.65	243.86
750.98	243.49
751.31	243.26
751.64	243.03
751.97	242.90
752.29	242.65
752.62	242.35
752.95	242.13
753.28	241.94
753.60	241.74
753.93	241.52
754.26	241.32
754.59	241.11
754.91	240.89
755.24	240.65
755.57	240.41
755.90	240.25
756.22	240.06
756.55	239.83
756.88	239.66
757.20	239.42
757.53	239.17
757.86	239.01
758.19	238.87
758.51	238.67
758.84	238.45
759.17	238.29
759.49	238.14
759.82	238.01
760.15	237.84
760.47	237.67
760.80	237.51
761.13	237.37
761.45	237.20
761.78	237.00
762.11	236.90
762.43	236.77
762.76	236.59
763.08	236.45
763.41	236.33
763.74	236.16
764.06	236.00
764.39	235.89
764.71	235.77
765.04	235.60
765.37	235.48
765.69	235.35
766.02	235.23
766.34	235.10
766.67	234.98
767.00	234.86
767.32	234.80
767.65	234.75
767.97	234.61
768.30	234.51
768.62	234.43
768.95	234.29
769.27	234.19
769.60	234.11
769.92	233.95
770.25	233.85
770.57	233.74
770.90	233.67
771.22	233.55
771.55	233.41
771.87	233.33
772.20	233.22
772.52	233.20
772.85	233.24
773.17	233.12
773.50	233.01
773.82	232.90
774.15	232.77
774.47	232.58
774.80	232.47
775.12	232.36
775.45	232.27
775.77	232.17
776.09	232.08
776.42	232.01
776.74	231.97
777.07	231.87
777.39	231.81
777.72	231.70
778.04	231.63
778.36	231.57
778.69	231.52
779.01	231.44
779.33	231.27
779.66	231.06
779.98	231.01
780.31	230.91
780.63	230.91
780.95	230.87
781.28	230.84
781.60	230.77
781.92	230.70
782.25	230.66
782.57	230.63
782.89	230.54
783.22	230.46
783.54	230.35
783.86	230.32
784.19	230.25
784.51	230.24
784.83	230.18
785.16	230.12
785.48	230.07
785.80	230.04
786.12	229.99
786.45	229.93
786.77	229.87
787.09	229.82
787.42	229.74
787.74	229.68
788.06	229.62
788.38	229.62
788.71	229.58
789.03	229.52
789.35	229.51
789.67	229.51
789.99	229.46
790.32	229.46
790.64	229.41
790.96	229.43
791.28	229.35
791.61	229.30
791.93	229.27
792.25	229.23
792.57	229.25
792.89	229.19
793.21	229.18
793.54	229.15
793.86	229.09
794.18	229.07
794.50	229.01
794.82	229.00
795.14	228.94
795.47	228.90
795.79	228.88
796.11	228.80
796.43	228.74
796.75	228.73
797.07	228.71
797.39	228.67
797.71	228.61
798.04	228.60
798.36	228.59
798.68	228.54
799.00	228.49
799.32	228.43
799.64	228.42
799.96	228.35
800.28	228.34
800.60	228.35
800.92	228.31
801.24	228.26
801.56	228.21
801.89	228.18
802.21	228.15
802.53	228.13
802.85	228.13
803.17	228.16
803.49	228.07
803.81	228.01
804.13	227.97
804.45	227.89
804.77	227.86
805.09	227.81
805.41	227.77
805.73	227.74
806.05	227.67
806.37	227.63
806.69	227.61
807.01	227.57
807.33	227.55
807.65	227.47
807.97	227.48
808.28	227.43
808.60	227.38
808.92	227.36
809.24	227.40
809.56	227.34
809.88	227.24
810.20	227.24
810.52	227.23
810.84	227.21
811.16	227.18
811.48	227.16
811.80	227.18
812.12	227.19
812.43	227.19
812.75	227.19
813.07	227.15
813.39	227.14
813.71	227.10
814.03	227.06
814.35	227.03
814.67	227.00
814.98	226.96
815.30	226.97
815.62	226.93
815.94	226.82
816.26	226.85
816.58	226.83
816.89	226.82
817.21	226.77
817.53	226.75
817.85	226.74
818.17	226.69
818.48	226.63
818.80	226.58
819.12	226.51
819.44	226.46
819.76	226.41
820.07	226.38
820.39	226.38
820.71	226.37
821.03	226.36
821.34	226.34
821.66	226.34
821.98	226.31
822.30	226.27
822.61	226.31
822.93	226.24
823.25	226.24
823.57	226.21
823.88	226.24
824.20	226.22
824.52	226.20
824.83	226.17
825.15	226.15
825.47	226.15
825.79	226.18
826.10	226.17
826.42	226.19
826.74	226.19
827.05	226.16
827.37	226.16
827.69	226.13
828.00	226.09
828.32	226.09
828.64	226.07
828.95	226.08
829.27	226.03
829.58	226.02
829.90	226.03
830.22	226.02
830.53	225.97
830.85	225.96
831.17	225.96
831.48	225.99
831.80	225.96
832.11	225.97
832.43	225.93
832.75	225.91
833.06	225.98
833.38	225.96
833.69	225.95
834.01	225.90
834.32	225.87
834.64	225.88
834.96	225.89
835.27	225.89
835.59	225.91
835.90	225.90
836.22	225.90
836.53	225.89
836.85	225.89
837.16	226.01
837.48	226.01
837.79	226.06
838.11	226.04
838.42	226.06
838.74	226.07
839.05	226.08
839.37	226.09
839.68	225.98
840.00	225.98
840.31	226.01
840.63	226.04
840.94	226.05
841.26	226.06
841.57	226.02
841.88	226.04
842.20	226.04
842.51	226.02
842.83	226.05
843.14	226.11
843.46	226.09
843.77	226.02
844.08	226.01
844.40	225.97
844.71	225.97
845.03	225.94
845.34	225.91
845.65	225.91
845.97	225.88
846.28	225.90
846.60	225.93
846.91	225.88
847.22	225.89
847.54	225.92
847.85	225.88
848.16	225.91
848.48	225.87
848.79	225.88
849.10	225.87
849.42	225.86
849.73	225.76
850.04	225.76
850.36	225.74
850.67	225.77
850.98	225.77
851.30	225.77
851.61	225.80
851.92	225.78
852.23	225.80
852.55	225.83
852.86	225.81
853.17	225.80
853.49	225.79
853.80	225.77
854.11	225.78
854.42	225.81
854.74	225.77
855.05	225.75
855.36	225.71
855.67	225.71
855.99	225.69
856.30	225.77
856.61	225.74
856.92	225.71
857.23	225.66
857.55	225.63
857.86	225.61
858.17	225.59
858.48	225.57
858.79	225.54
859.11	225.53
859.42	225.53
859.73	225.49
860.04	225.50
860.35	225.48
860.66	225.44
860.98	225.41
861.29	225.42
861.60	225.45
861.91	225.45
862.22	225.45
862.53	225.44
862.84	225.33
863.16	225.37
863.47	225.34
863.78	225.32
864.09	225.36
864.40	225.36
864.71	225.37
865.02	225.38
865.33	225.35
865.64	225.33
865.95	225.32
866.27	225.38
866.58	225.39
866.89	225.39
867.20	225.39
867.51	225.38
867.82	225.36
868.13	225.37
868.44	225.36
868.75	225.38
869.06	225.36
869.37	225.39
869.68	225.34
869.99	225.38
870.30	225.40
870.61	225.39
870.92	225.34
871.23	225.32
871.54	225.31
871.85	225.36
872.16	225.38
872.47	225.38
872.78	225.30
873.09	225.30
873.40	225.30
873.71	225.30
874.02	225.33
874.33	225.37
874.64	225.36
874.95	225.35
875.26	225.36
875.56	225.36
875.87	225.37
876.18	225.39
876.49	225.49
876.80	225.48
877.11	225.47
877.42	225.51
877.73	225.53
878.04	225.53
878.35	225.49
878.66	225.49
878.96	225.48
879.27	225.51
879.58	225.51
879.89	225.49
880.20	225.53
880.51	225.52
880.82	225.47
881.12	225.47
881.43	225.48
881.74	225.42
882.05	225.42
882.36	225.43
882.67	225.41
882.97	225.31
883.28	225.30
883.59	225.28
883.90	225.30
884.21	225.29
884.51	225.29
884.82	225.28
885.13	225.29
885.44	225.30
885.74	225.28
886.05	225.25
886.36	225.27
886.67	225.19
886.98	225.23
887.28	225.26
887.59	225.28
887.90	225.27
888.20	225.27
888.51	225.29
888.82	225.28
889.13	225.30
889.43	225.37
889.74	225.37
890.05	225.36
890.35	225.31
890.66	225.29
890.97	225.25
891.28	225.25
891.58	225.22
891.89	225.20
892.20	225.20
892.50	225.19
892.81	225.17
893.12	225.15
893.42	225.10
893.73	225.09
894.04	225.06
894.34	225.06
894.65	225.09
894.95	225.05
895.26	225.01
895.57	225.05
895.87	224.92
896.18	224.95
896.48	224.94
896.79	224.98
897.10	224.97
897.40	225.01
897.71	225.01
898.01	224.99
898.32	224.99
898.63	224.97
898.93	225.00
899.24	224.97
899.54	224.99
899.85	224.97
900.15	224.92
900.46	224.93
900.76	224.94
901.07	224.93
901.38	224.95
901.68	224.96
901.99	224.88
902.29	224.90
902.60	224.90
902.90	224.91
903.21	224.89
903.51	224.90
903.82	224.93
904.12	224.93
904.43	224.95
904.73	224.95
905.03	224.97
905.34	225.05
905.64	225.11
905.95	225.13
906.25	225.13
906.56	225.17
906.86	225.17
907.17	225.16
907.47	225.18
907.77	225.15
908.08	225.11
908.38	225.14
908.69	225.18
908.99	225.19
909.30	225.18
909.60	225.18
909.90	225.22
910.21	225.18
910.51	225.19
910.81	225.18
911.12	225.20
911.42	225.22
911.73	225.13
912.03	225.10
912.33	225.12
912.64	225.15
912.94	225.15
913.24	225.12
913.55	225.10
913.85	225.11
914.15	225.15
914.46	225.22
914.76	225.24
915.06	225.24
915.37	225.22
915.67	225.23
915.97	225.23
916.27	225.19
916.58	225.21
916.88	225.22
917.18	225.21
917.49	225.31
917.79	225.30
918.09	225.33
918.39	225.35
918.70	225.33
919.00	225.30
919.30	225.34
919.60	225.37
919.91	225.37
920.21	225.39
920.51	225.36
920.81	225.32
921.12	225.33
921.42	225.30
921.72	225.32
922.02	225.32
922.32	225.33
922.63	225.34
922.93	225.38
923.23	225.39
923.53	225.40
923.83	225.31
924.13	225.32
924.44	225.32
924.74	225.35
925.04	225.35
925.34	225.37
925.64	225.35
925.94	225.35
926.24	225.41
926.55	225.37
926.85	225.37
927.15	225.39
927.45	225.37
927.75	225.38
928.05	225.37
928.35	225.38
928.65	225.39
928.95	225.42
929.26	225.35
929.56	225.36
929.86	225.38
930.16	225.37
930.46	225.36
930.76	225.31
931.06	225.25
931.36	225.24
931.66	225.25
931.96	225.23
932.26	225.21
932.56	225.13
932.86	225.16
933.16	225.13
933.46	225.13
933.76	225.12
934.06	225.13
934.36	225.19
934.66	225.15
934.96	225.12
935.26	225.10
935.56	225.15
935.86	225.11
936.16	225.07
936.46	225.05
936.76	225.05
937.06	225.05
937.36	225.04
937.66	225.05
937.96	225.03
938.26	225.01
938.56	225.01
938.86	225.02
939.16	225.00
939.46	225.02
939.76	224.99
940.06	224.99
940.35	224.97
940.65	224.85
940.95	224.86
941.25	224.85
941.55	224.85
941.85	224.83
942.15	224.86
942.45	224.88
942.75	224.86
943.04	224.86
943.34	224.88
943.64	224.90
943.94	224.89
944.24	224.89
944.54	224.90
944.84	224.87
945.13	224.84
945.43	224.85
945.73	224.81
946.03	224.82
946.33	224.82
946.62	224.79
946.92	224.82
947.22	224.78
947.52	224.79
947.82	224.78
948.11	224.78
948.41	224.76
948.71	224.73
949.01	224.74
949.31	224.74
949.60	224.73
949.90	224.70
950.20	224.69
950.50	224.70
950.79	224.68
951.09	224.75
951.39	224.77
951.69	224.74
951.98	224.78
952.28	224.79
952.58	224.77
952.87	224.80
953.17	224.82
953.47	224.85
953.76	224.86
954.06	224.85
954.36	224.82
954.66	224.80
954.95	224.82
955.25	224.81
955.55	224.84
955.84	224.83
956.14	224.90
956.44	224.91
956.73	224.88
957.03	224.91
957.32	224.85
957.62	224.85
957.92	224.89
958.21	224.88
958.51	224.99
958.81	225.03
959.10	225.04
959.40	225.02
959.69	225.04
959.99	225.05
960.29	225.06
960.58	225.09
960.88	225.13
961.17	225.15
961.47	225.15
961.76	225.10
962.06	225.12
962.36	225.07
962.65	225.07
962.95	225.11
963.24	225.11
963.54	225.17
963.83	225.19
964.13	225.16
964.42	225.15
964.72	225.09
965.01	225.06
965.31	225.04
965.60	225.05
965.90	225.10
966.19	225.10
966.49	225.14
966.78	225.08
967.08	225.08
967.37	225.05
967.67	225.07
967.96	225.12
968.26	225.09
968.55	225.14
968.85	225.15
969.14	225.12
969.43	225.10
969.73	225.05
970.02	225.05
970.32	225.06
970.61	225.06
970.91	225.02
971.20	225.03
971.49	225.02
971.79	225.05
972.08	225.01
972.38	224.98
972.67	224.95
972.96	224.97
973.26	224.95
973.55	224.99
973.85	224.97
974.14	224.96
974.43	225.02
974.73	224.98
975.02	224.97
975.31	224.96
975.61	224.94
975.90	224.95
976.19	224.94
976.49	224.95
976.78	224.95
977.07	224.95
977.37	224.94
977.66	224.95
977.95	224.94
978.24	224.92
978.54	224.95
978.83	224.91
979.12	224.94
979.42	224.93
979.71	224.90
980.00	224.92
980.29	224.90
980.59	224.84
980.88	224.82
981.17	224.81
981.46	224.81
981.76	224.82
982.05	224.86
982.34	224.87
982.63	224.84
982.93	224.85
983.22	224.88
983.51	224.87
983.80	224.91
984.09	224.90
984.39	224.87
984.68	224.84
984.97	224.85
985.26	224.81
985.55	224.82
985.85	224.81
986.14	224.80
986.43	224.84
986.72	224.84
987.01	224.84
987.30	224.82
987.59	224.81
987.89	224.83
988.18	224.79
988.47	224.75
988.76	224.75
989.05	224.70
989.34	224.70
989.63	224.72
989.92	224.67
990.22	224.67
990.51	224.67
990.80	224.68
991.09	224.68
991.38	224.69
991.67	224.70
991.96	224.68
992.25	224.67
992.54	224.64
992.83	224.65
993.12	224.64
993.41	224.64
993.70	224.72
993.99	224.69
994.28	224.68
994.58	224.72
994.87	224.72
995.16	224.74
995.45	224.72
995.74	224.70
996.03	224.70
996.32	224.71
996.61	224.72
996.90	224.71
997.19	224.75
997.48	224.75
997.77	224.72
998.06	224.72
998.34	224.72
998.63	224.72
998.92	224.71
999.21	224.73
999.50	224.76
999.79	224.69
1000.08	224.71
1000.37	224.74
1000.66	224.72
1000.95	224.73
1001.24	224.76
1001.53	224.75
1001.82	224.74
1002.11	224.75
1002.40	224.78
1002.68	224.79
1002.97	224.86
1003.26	224.83
1003.55	224.84
1003.84	224.89
1004.13	224.93
1004.42	224.94
1004.71	224.93
1004.99	224.96
1005.28	224.95
1005.57	224.93
1005.86	224.94
1006.15	224.93
1006.44	224.90
1006.72	224.89
1007.01	224.89
1007.30	224.87
1007.59	224.87
1007.88	224.87
1008.17	224.87
1008.45	224.80
1008.74	224.80
1009.03	224.76
1009.32	224.76
1009.60	224.77
1009.89	224.75
1010.18	224.70
1010.47	224.68
1010.76	224.68
1011.04	224.65
1011.33	224.68
1011.62	224.69
1011.91	224.68
1012.19	224.71
1012.48	224.73
1012.77	224.72
1013.05	224.76
1013.34	224.78
1013.63	224.77
1013.92	224.78
1014.20	224.77
1014.49	224.81
1014.78	224.82
1015.06	224.82
1015.35	224.84
1015.64	224.84
1015.92	224.85
1016.21	224.86
1016.50	224.88
1016.78	224.88
1017.07	224.88
1017.36	224.86
1017.64	224.82
1017.93	224.83
1018.22	224.81
1018.50	224.79
1018.79	224.80
1019.08	224.76
1019.36	224.77
1019.65	224.74
1019.93	224.78
1020.22	224.78
1020.51	224.81
1020.79	224.82
1021.08	224.44
1021.36	224.26
1021.65	224.82
1021.94	224.58
1022.22	225.20
1022.51	224.09
1022.79	225.45
1023.08	224.67
1023.36	226.01
1023.65	225.07
>>>>>End Processed Spectral Data<<<<<
