SpectraSuite Data File
++++++++++++++++++++++++++++++++++++
Date: Fri Feb 01 15:25:00 EST 2013
User: group
Dark Spectrum Present: No
Reference Spectrum Present: No
Number of Sampled Component Spectra: 1
Spectrometers: USB2E7196
Integration Time (usec): 35000 (USB2E7196)
Spectra Averaged: 100 (USB2E7196)
Boxcar Smoothing: 10 (USB2E7196)
Correct for Electrical Dark: No (USB2E7196)
Strobe/Lamp Enabled: No (USB2E7196)
Correct for Detector Non-linearity: No (USB2E7196)
Correct for Stray Light: No (USB2E7196)
Number of Pixels in Processed Spectrum: 2048
>>>>>Begin Processed Spectral Data<<<<<
339.09	0.00
339.48	215.07
339.86	216.91
340.24	218.07
340.63	219.45
341.01	222.29
341.39	222.05
341.78	223.12
342.16	224.62
342.54	225.14
342.93	213.42
343.31	224.21
343.69	224.73
344.07	225.14
344.46	225.57
344.84	225.94
345.22	226.17
345.60	226.42
345.99	226.62
346.37	226.75
346.75	226.83
347.13	226.88
347.52	226.94
347.90	227.01
348.28	227.03
348.66	227.04
349.05	227.04
349.43	227.07
349.81	227.15
350.19	227.23
350.57	227.23
350.96	227.26
351.34	227.35
351.72	227.44
352.10	227.55
352.48	227.61
352.87	227.66
353.25	227.73
353.63	227.79
354.01	227.84
354.39	227.90
354.77	227.99
355.15	228.12
355.54	228.14
355.92	228.16
356.30	228.23
356.68	228.39
357.06	228.48
357.44	228.57
357.82	228.60
358.20	228.70
358.58	228.80
358.97	228.87
359.35	228.95
359.73	229.02
360.11	229.10
360.49	229.13
360.87	229.20
361.25	229.25
361.63	229.35
362.01	229.39
362.39	229.43
362.77	229.47
363.15	229.50
363.53	229.55
363.91	229.59
364.29	229.62
364.67	229.53
365.05	229.56
365.43	229.54
365.81	229.58
366.19	229.62
366.57	229.66
366.95	229.66
367.33	229.61
367.71	229.60
368.09	229.61
368.47	229.62
368.85	229.60
369.23	229.58
369.61	229.51
369.99	229.52
370.37	229.50
370.75	229.55
371.13	229.50
371.51	229.46
371.89	229.43
372.27	229.39
372.65	229.40
373.03	229.31
373.41	229.27
373.78	229.21
374.16	229.09
374.54	229.00
374.92	228.93
375.30	228.89
375.68	228.81
376.06	228.74
376.44	228.67
376.82	228.62
377.19	228.58
377.57	228.48
377.95	228.39
378.33	228.31
378.71	228.19
379.09	228.13
379.47	228.08
379.84	227.97
380.22	227.90
380.60	227.81
380.98	227.75
381.36	227.69
381.73	227.62
382.11	227.56
382.49	227.46
382.87	227.40
383.25	227.35
383.62	227.42
384.00	227.36
384.38	227.29
384.76	227.24
385.13	227.20
385.51	227.17
385.89	227.11
386.27	227.08
386.64	226.98
387.02	226.95
387.40	226.90
387.78	226.87
388.15	226.85
388.53	226.79
388.91	226.74
389.29	226.70
389.66	226.71
390.04	226.68
390.42	226.72
390.79	226.68
391.17	226.65
391.55	226.53
391.92	226.52
392.30	226.52
392.68	226.49
393.05	226.47
393.43	226.49
393.81	226.52
394.18	226.50
394.56	226.55
394.94	226.56
395.31	226.58
395.69	226.66
396.06	226.68
396.44	226.73
396.82	226.79
397.19	226.87
397.57	226.89
397.95	226.96
398.32	226.98
398.70	227.06
399.07	227.13
399.45	227.17
399.82	227.20
400.20	227.26
400.58	227.36
400.95	227.40
401.33	227.51
401.70	227.68
402.08	227.79
402.45	227.87
402.83	228.00
403.20	228.10
403.58	228.19
403.95	228.32
404.33	228.49
404.71	228.58
405.08	228.75
405.46	228.86
405.83	229.01
406.21	229.16
406.58	229.33
406.96	229.51
407.33	229.71
407.70	229.93
408.08	230.19
408.45	230.39
408.83	230.65
409.20	230.86
409.58	230.99
409.95	231.25
410.33	231.54
410.70	231.77
411.08	232.09
411.45	232.41
411.82	232.72
412.20	233.02
412.57	233.45
412.95	233.77
413.32	234.21
413.69	234.60
414.07	235.03
414.44	235.53
414.82	235.98
415.19	236.52
415.56	237.10
415.94	237.68
416.31	238.33
416.68	238.94
417.06	239.67
417.43	240.40
417.81	241.15
418.18	241.89
418.55	242.76
418.93	243.62
419.30	244.52
419.67	245.48
420.04	246.45
420.42	247.45
420.79	248.62
421.16	249.77
421.54	250.98
421.91	252.22
422.28	253.44
422.66	254.82
423.03	256.10
423.40	257.40
423.77	258.80
424.15	260.18
424.52	261.66
424.89	263.26
425.26	264.82
425.64	266.28
426.01	267.89
426.38	269.53
426.75	271.19
427.13	272.90
427.50	274.69
427.87	276.58
428.24	278.46
428.61	280.21
428.99	282.16
429.36	284.29
429.73	286.39
430.10	288.47
430.47	290.53
430.85	292.69
431.22	294.93
431.59	297.32
431.96	299.66
432.33	302.17
432.70	304.57
433.08	307.36
433.45	310.07
433.82	312.67
434.19	315.58
434.56	318.39
434.93	321.05
435.30	323.67
435.68	326.58
436.05	329.38
436.42	332.20
436.79	334.73
437.16	337.41
437.53	340.22
437.90	343.03
438.27	345.77
438.64	348.60
439.01	351.20
439.38	353.44
439.75	355.57
440.13	358.04
440.50	360.38
440.87	362.24
441.24	364.15
441.61	366.32
441.98	367.85
442.35	369.72
442.72	371.58
443.09	373.39
443.46	374.38
443.83	375.00
444.20	375.53
444.57	376.34
444.94	376.62
445.31	376.94
445.68	377.24
446.05	377.29
446.42	376.91
446.79	376.48
447.16	376.01
447.53	375.70
447.90	374.53
448.27	373.31
448.64	371.73
449.01	370.60
449.37	368.63
449.74	366.70
450.11	364.44
450.48	361.93
450.85	359.40
451.22	357.25
451.59	355.20
451.96	353.20
452.33	350.60
452.70	348.24
453.07	345.41
453.43	342.50
453.80	339.79
454.17	337.09
454.54	334.57
454.91	331.86
455.28	329.14
455.65	326.66
456.02	324.22
456.38	322.06
456.75	319.38
457.12	317.09
457.49	314.86
457.86	312.68
458.23	310.91
458.59	308.86
458.96	306.79
459.33	304.96
459.70	303.08
460.07	301.60
460.43	299.88
460.80	298.27
461.17	296.84
461.54	295.33
461.91	293.92
462.27	292.47
462.64	291.19
463.01	289.87
463.38	288.61
463.74	287.25
464.11	286.08
464.48	285.04
464.85	283.92
465.21	283.04
465.58	282.13
465.95	280.95
466.32	280.06
466.68	279.12
467.05	278.21
467.42	277.34
467.78	276.40
468.15	275.50
468.52	274.81
468.88	273.94
469.25	273.15
469.62	272.50
469.98	271.83
470.35	271.23
470.72	270.63
471.08	269.96
471.45	269.43
471.82	268.88
472.18	268.28
472.55	267.83
472.92	267.31
473.28	266.81
473.65	266.40
474.02	265.94
474.38	265.59
474.75	265.30
475.11	264.94
475.48	264.67
475.85	264.48
476.21	264.25
476.58	264.08
476.94	263.93
477.31	263.74
477.67	263.56
478.04	263.44
478.41	263.33
478.77	263.36
479.14	263.30
479.50	263.30
479.87	263.39
480.23	263.51
480.60	263.59
480.96	263.69
481.33	263.90
481.69	264.09
482.06	264.25
482.42	264.42
482.79	264.69
483.15	265.02
483.52	265.37
483.88	265.71
484.25	266.10
484.61	266.53
484.98	266.96
485.34	267.52
485.71	268.12
486.07	268.72
486.44	269.27
486.80	269.96
487.17	270.70
487.53	271.52
487.90	272.34
488.26	273.25
488.62	274.22
488.99	275.16
489.35	276.19
489.72	277.30
490.08	278.49
490.44	279.68
490.81	280.98
491.17	282.31
491.54	283.78
491.90	285.26
492.26	286.91
492.63	288.67
492.99	290.44
493.36	292.32
493.72	294.36
494.08	296.45
494.45	298.67
494.81	300.97
495.17	303.36
495.54	305.91
495.90	308.61
496.26	311.41
496.63	314.33
496.99	317.39
497.35	320.64
497.72	324.03
498.08	327.57
498.44	331.28
498.80	335.18
499.17	339.20
499.53	343.39
499.89	347.75
500.26	352.27
500.62	356.95
500.98	361.93
501.34	367.05
501.71	372.40
502.07	377.85
502.43	383.45
502.79	389.29
503.16	395.39
503.52	401.64
503.88	408.07
504.24	414.75
504.60	421.70
504.97	428.79
505.33	436.17
505.69	443.85
506.05	451.58
506.41	459.49
506.78	467.74
507.14	476.24
507.50	485.02
507.86	494.03
508.22	503.26
508.59	512.50
508.95	522.07
509.31	531.89
509.67	541.95
510.03	552.29
510.39	562.76
510.75	573.51
511.12	584.41
511.48	595.69
511.84	607.14
512.20	618.70
512.56	630.71
512.92	642.85
513.28	655.16
513.64	667.68
514.00	680.39
514.37	693.30
514.73	706.36
515.09	719.40
515.45	732.72
515.81	746.29
516.17	760.24
516.53	774.35
516.89	788.56
517.25	802.86
517.61	817.33
517.97	831.93
518.33	846.49
518.69	861.37
519.05	876.44
519.41	891.70
519.77	907.19
520.13	922.69
520.49	938.08
520.85	953.69
521.21	969.39
521.57	985.66
521.93	1001.43
522.29	1017.83
522.65	1034.13
523.01	1050.34
523.37	1066.45
523.73	1082.65
524.09	1098.83
524.45	1115.26
524.81	1131.98
525.17	1148.82
525.53	1165.79
525.89	1182.62
526.25	1199.52
526.61	1215.85
526.97	1232.63
527.33	1249.13
527.68	1265.84
528.04	1282.40
528.40	1299.05
528.76	1316.28
529.12	1332.88
529.48	1349.84
529.84	1365.91
530.20	1382.63
530.56	1399.71
530.91	1417.12
531.27	1433.96
531.63	1450.46
531.99	1467.07
532.35	1482.92
532.71	1498.96
533.07	1515.20
533.42	1531.16
533.78	1547.22
534.14	1563.64
534.50	1578.93
534.86	1595.08
535.21	1610.32
535.57	1626.34
535.93	1641.91
536.29	1656.71
536.65	1671.82
537.00	1686.71
537.36	1702.12
537.72	1716.68
538.08	1731.19
538.44	1745.03
538.79	1759.03
539.15	1772.86
539.51	1786.66
539.87	1801.20
540.22	1814.89
540.58	1828.75
540.94	1842.19
541.29	1855.20
541.65	1867.93
542.01	1881.44
542.37	1893.69
542.72	1906.14
543.08	1917.96
543.44	1930.28
543.79	1941.60
544.15	1952.75
544.51	1964.36
544.87	1975.34
545.22	1986.21
545.58	1996.48
545.94	2006.37
546.29	2016.19
546.65	2025.88
547.01	2035.13
547.36	2043.91
547.72	2052.46
548.07	2060.31
548.43	2068.64
548.79	2076.70
549.14	2084.32
549.50	2091.51
549.86	2099.28
550.21	2106.58
550.57	2113.76
550.92	2120.54
551.28	2127.57
551.64	2134.61
551.99	2141.19
552.35	2147.39
552.70	2153.39
553.06	2159.42
553.41	2165.74
553.77	2171.83
554.13	2177.99
554.48	2184.15
554.84	2189.61
555.19	2194.88
555.55	2200.01
555.90	2204.36
556.26	2209.06
556.61	2213.85
556.97	2218.11
557.32	2222.22
557.68	2226.43
558.03	2230.66
558.39	2234.36
558.74	2238.98
559.10	2242.82
559.45	2246.37
559.81	2250.76
560.16	2254.51
560.52	2257.83
560.87	2261.23
561.23	2263.90
561.58	2266.88
561.94	2269.36
562.29	2271.73
562.64	2274.46
563.00	2277.23
563.35	2280.72
563.71	2283.88
564.06	2286.91
564.42	2289.69
564.77	2292.19
565.12	2294.33
565.48	2296.11
565.83	2297.82
566.19	2298.96
566.54	2300.07
566.89	2301.19
567.25	2301.66
567.60	2303.20
567.96	2304.68
568.31	2305.49
568.66	2306.49
569.02	2307.10
569.37	2307.29
569.72	2308.01
570.08	2308.05
570.43	2307.93
570.78	2307.23
571.14	2305.73
571.49	2304.45
571.84	2304.13
572.20	2302.79
572.55	2301.66
572.90	2300.31
573.26	2298.83
573.61	2297.25
573.96	2295.26
574.31	2292.19
574.67	2289.09
575.02	2285.27
575.37	2281.77
575.72	2277.82
576.08	2274.45
576.43	2271.08
576.78	2267.36
577.13	2264.14
577.49	2260.99
577.84	2257.41
578.19	2253.57
578.54	2249.87
578.90	2245.46
579.25	2239.96
579.60	2234.97
579.95	2229.93
580.30	2224.79
580.66	2219.61
581.01	2214.55
581.36	2209.55
581.71	2205.25
582.06	2200.68
582.42	2196.17
582.77	2190.93
583.12	2186.29
583.47	2181.37
583.82	2176.15
584.17	2170.86
584.53	2165.42
584.88	2159.76
585.23	2153.91
585.58	2148.43
585.93	2142.93
586.28	2138.12
586.63	2132.87
586.98	2127.75
587.34	2123.04
587.69	2117.99
588.04	2112.67
588.39	2106.92
588.74	2100.37
589.09	2094.20
589.44	2087.34
589.79	2081.34
590.14	2075.59
590.49	2068.94
590.84	2062.61
591.19	2056.65
591.54	2050.07
591.89	2042.44
592.25	2035.49
592.60	2028.24
592.95	2020.70
593.30	2013.21
593.65	2005.57
594.00	1998.48
594.35	1991.23
594.70	1983.01
595.05	1975.67
595.40	1968.26
595.75	1960.69
596.10	1954.32
596.45	1947.43
596.80	1941.15
597.15	1934.32
597.50	1927.18
597.85	1920.89
598.19	1914.11
598.54	1906.75
598.89	1900.14
599.24	1894.23
599.59	1887.51
599.94	1881.26
600.29	1874.84
600.64	1868.14
600.99	1860.67
601.34	1853.83
601.69	1846.84
602.04	1839.80
602.39	1832.52
602.74	1825.70
603.08	1818.89
603.43	1812.18
603.78	1804.96
604.13	1797.78
604.48	1790.37
604.83	1783.59
605.18	1776.38
605.53	1768.29
605.87	1760.30
606.22	1752.94
606.57	1744.92
606.92	1737.59
607.27	1730.34
607.62	1723.38
607.96	1716.11
608.31	1709.39
608.66	1701.64
609.01	1693.90
609.36	1686.54
609.70	1678.55
610.05	1670.46
610.40	1662.70
610.75	1654.48
611.10	1646.82
611.44	1638.38
611.79	1630.56
612.14	1621.78
612.49	1612.66
612.83	1604.50
613.18	1596.45
613.53	1588.41
613.88	1579.87
614.22	1571.54
614.57	1562.97
614.92	1554.88
615.27	1547.28
615.61	1538.93
615.96	1531.07
616.31	1523.49
616.65	1516.05
617.00	1508.54
617.35	1500.89
617.70	1492.48
618.04	1483.91
618.39	1475.60
618.74	1468.06
619.08	1459.64
619.43	1452.21
619.78	1445.39
620.12	1438.14
620.47	1430.42
620.82	1422.30
621.16	1414.99
621.51	1407.41
621.85	1399.73
622.20	1391.19
622.55	1382.85
622.89	1375.10
623.24	1367.48
623.59	1360.19
623.93	1352.59
624.28	1345.16
624.62	1337.56
624.97	1330.50
625.32	1323.76
625.66	1316.71
626.01	1309.44
626.35	1302.06
626.70	1294.16
627.04	1286.32
627.39	1278.54
627.73	1271.29
628.08	1264.36
628.43	1256.99
628.77	1249.61
629.12	1242.03
629.46	1234.83
629.81	1227.47
630.15	1220.08
630.50	1212.58
630.84	1204.34
631.19	1196.58
631.53	1189.19
631.88	1181.63
632.22	1174.07
632.57	1166.69
632.91	1159.22
633.26	1151.86
633.60	1144.56
633.95	1137.56
634.29	1130.63
634.64	1124.00
634.98	1116.63
635.32	1109.44
635.67	1102.86
636.01	1096.24
636.36	1089.50
636.70	1083.06
637.05	1076.43
637.39	1070.12
637.73	1063.63
638.08	1057.78
638.42	1051.74
638.77	1045.27
639.11	1038.70
639.45	1032.32
639.80	1025.67
640.14	1019.23
640.49	1012.65
640.83	1006.30
641.17	999.98
641.52	993.56
641.86	987.14
642.20	981.28
642.55	975.06
642.89	968.56
643.23	962.03
643.58	956.18
643.92	949.94
644.26	943.82
644.61	937.82
644.95	931.75
645.29	925.15
645.64	918.40
645.98	912.05
646.32	906.23
646.66	900.24
647.01	894.38
647.35	888.70
647.69	882.97
648.04	877.45
648.38	871.66
648.72	865.66
649.06	859.54
649.41	853.72
649.75	847.63
650.09	841.69
650.43	835.88
650.78	829.74
651.12	823.84
651.46	818.22
651.80	812.37
652.14	806.95
652.49	801.46
652.83	796.29
653.17	790.64
653.51	784.90
653.85	779.46
654.20	773.85
654.54	767.85
654.88	762.00
655.22	756.10
655.56	750.44
655.90	745.01
656.25	739.76
656.59	734.36
656.93	729.34
657.27	724.16
657.61	718.71
657.95	713.72
658.29	708.63
658.64	703.36
658.98	698.12
659.32	692.68
659.66	687.56
660.00	682.26
660.34	677.28
660.68	672.40
661.02	667.38
661.36	662.67
661.70	658.22
662.05	653.94
662.39	649.59
662.73	645.13
663.07	640.74
663.41	636.26
663.75	631.77
664.09	627.22
664.43	622.84
664.77	618.75
665.11	614.43
665.45	610.29
665.79	606.24
666.13	602.10
666.47	598.07
666.81	593.86
667.15	589.67
667.49	585.81
667.83	581.98
668.17	578.01
668.51	573.91
668.85	569.85
669.19	566.04
669.53	562.20
669.87	558.31
670.21	554.60
670.55	550.99
670.89	547.53
671.23	544.09
671.57	540.61
671.91	537.08
672.25	533.58
672.58	530.10
672.92	526.65
673.26	523.53
673.60	520.37
673.94	517.35
674.28	514.43
674.62	511.50
674.96	508.30
675.30	505.47
675.64	502.65
675.97	499.86
676.31	497.01
676.65	494.11
676.99	491.43
677.33	488.56
677.67	485.70
678.01	482.70
678.34	479.74
678.68	476.84
679.02	473.99
679.36	471.24
679.70	468.51
680.04	465.80
680.37	462.92
680.71	460.20
681.05	457.54
681.39	454.85
681.73	452.18
682.06	449.77
682.40	447.11
682.74	444.51
683.08	441.99
683.42	439.34
683.75	436.81
684.09	434.25
684.43	431.82
684.77	429.36
685.10	427.05
685.44	424.72
685.78	422.46
686.12	420.24
686.45	417.94
686.79	415.63
687.13	413.49
687.46	411.30
687.80	409.11
688.14	406.93
688.48	404.91
688.81	402.65
689.15	400.48
689.49	398.39
689.82	396.37
690.16	394.29
690.50	392.34
690.83	390.40
691.17	388.44
691.51	386.59
691.84	384.82
692.18	382.87
692.52	380.91
692.85	378.98
693.19	377.13
693.52	375.37
693.86	373.59
694.20	371.78
694.53	370.02
694.87	368.19
695.21	366.42
695.54	364.60
695.88	362.93
696.21	361.22
696.55	359.53
696.88	357.88
697.22	356.23
697.56	354.62
697.89	352.99
698.23	351.46
698.56	349.81
698.90	348.21
699.23	346.56
699.57	345.04
699.90	343.56
700.24	342.04
700.58	340.42
700.91	338.93
701.25	337.47
701.58	336.12
701.92	334.77
702.25	333.41
702.59	332.04
702.92	330.71
703.26	329.41
703.59	328.16
703.93	326.95
704.26	325.71
704.60	324.44
704.93	323.17
705.26	321.86
705.60	320.71
705.93	319.52
706.27	318.52
706.60	317.45
706.94	316.31
707.27	315.16
707.61	314.14
707.94	313.11
708.27	312.04
708.61	310.93
708.94	309.92
709.28	308.96
709.61	308.05
709.94	307.06
710.28	306.02
710.61	305.05
710.95	303.99
711.28	303.05
711.61	302.10
711.95	301.18
712.28	300.25
712.61	299.24
712.95	298.33
713.28	297.47
713.61	296.58
713.95	295.70
714.28	294.88
714.61	294.02
714.95	293.18
715.28	292.31
715.61	291.44
715.95	290.59
716.28	289.71
716.61	288.85
716.95	288.05
717.28	287.37
717.61	286.61
717.94	285.84
718.28	285.03
718.61	284.27
718.94	283.59
719.27	282.89
719.61	282.24
719.94	281.57
720.27	280.85
720.60	280.18
720.94	279.56
721.27	278.96
721.60	278.40
721.93	277.78
722.27	277.23
722.60	276.70
722.93	276.14
723.26	275.59
723.59	275.02
723.93	274.45
724.26	273.83
724.59	273.29
724.92	272.79
725.25	272.32
725.59	271.86
725.92	271.38
726.25	270.88
726.58	270.40
726.91	269.90
727.24	269.40
727.57	268.95
727.91	268.48
728.24	268.04
728.57	267.54
728.90	267.12
729.23	266.60
729.56	266.17
729.89	265.69
730.22	265.20
730.55	264.74
730.89	264.34
731.22	263.90
731.55	263.45
731.88	263.04
732.21	262.65
732.54	262.21
732.87	261.77
733.20	261.39
733.53	260.99
733.86	260.63
734.19	260.26
734.52	259.88
734.85	259.55
735.18	259.10
735.51	258.76
735.84	258.37
736.17	258.04
736.50	257.65
736.83	257.42
737.16	257.11
737.49	256.80
737.82	256.47
738.15	256.14
738.48	255.82
738.81	255.49
739.14	255.14
739.47	254.80
739.80	254.48
740.13	254.18
740.46	253.86
740.79	253.51
741.12	253.20
741.45	252.88
741.78	252.51
742.11	252.27
742.44	251.91
742.77	251.64
743.10	251.34
743.43	251.03
743.75	250.65
744.08	250.48
744.41	250.21
744.74	249.94
745.07	249.69
745.40	249.44
745.73	249.22
746.06	248.92
746.39	248.65
746.71	248.40
747.04	248.09
747.37	247.84
747.70	247.60
748.03	247.34
748.36	247.07
748.68	246.84
749.01	246.56
749.34	246.34
749.67	246.07
750.00	245.84
750.33	245.68
750.65	245.46
750.98	245.10
751.31	244.85
751.64	244.58
751.97	244.39
752.29	244.14
752.62	243.85
752.95	243.67
753.28	243.46
753.60	243.26
753.93	243.11
754.26	242.90
754.59	242.65
754.91	242.45
755.24	242.27
755.57	242.05
755.90	241.88
756.22	241.70
756.55	241.51
756.88	241.33
757.20	241.08
757.53	240.88
757.86	240.73
758.19	240.56
758.51	240.41
758.84	240.18
759.17	240.01
759.49	239.87
759.82	239.74
760.15	239.58
760.47	239.37
760.80	239.20
761.13	239.06
761.45	238.95
761.78	238.80
762.11	238.64
762.43	238.52
762.76	238.36
763.08	238.22
763.41	238.10
763.74	237.97
764.06	237.83
764.39	237.71
764.71	237.54
765.04	237.41
765.37	237.24
765.69	237.09
766.02	236.97
766.34	236.85
766.67	236.69
767.00	236.61
767.32	236.57
767.65	236.50
767.97	236.41
768.30	236.31
768.62	236.20
768.95	236.09
769.27	235.96
769.60	235.85
769.92	235.72
770.25	235.62
770.57	235.48
770.90	235.40
771.22	235.29
771.55	235.22
771.87	235.14
772.20	235.06
772.52	235.08
772.85	235.11
773.17	235.03
773.50	234.94
773.82	234.80
774.15	234.68
774.47	234.54
774.80	234.41
775.12	234.33
775.45	234.25
775.77	234.20
776.09	234.12
776.42	234.07
776.74	234.00
777.07	233.93
777.39	233.86
777.72	233.77
778.04	233.70
778.36	233.65
778.69	233.58
779.01	233.56
779.33	233.41
779.66	233.23
779.98	233.12
780.31	233.08
780.63	233.05
780.95	232.99
781.28	232.92
781.60	232.86
781.92	232.77
782.25	232.75
782.57	232.67
782.89	232.64
783.22	232.56
783.54	232.52
783.86	232.47
784.19	232.42
784.51	232.38
784.83	232.32
785.16	232.26
785.48	232.20
785.80	232.15
786.12	232.09
786.45	232.04
786.77	232.04
787.09	231.99
787.42	231.90
787.74	231.86
788.06	231.84
788.38	231.79
788.71	231.74
789.03	231.68
789.35	231.63
789.67	231.57
789.99	231.53
790.32	231.50
790.64	231.47
790.96	231.52
791.28	231.47
791.61	231.43
791.93	231.41
792.25	231.41
792.57	231.41
792.89	231.37
793.21	231.33
793.54	231.24
793.86	231.20
794.18	231.20
794.50	231.14
794.82	231.11
795.14	231.11
795.47	231.09
795.79	231.05
796.11	230.99
796.43	230.98
796.75	230.96
797.07	230.89
797.39	230.84
797.71	230.75
798.04	230.71
798.36	230.69
798.68	230.64
799.00	230.58
799.32	230.51
799.64	230.50
799.96	230.44
800.28	230.44
800.60	230.41
800.92	230.36
801.24	230.35
801.56	230.27
801.89	230.20
802.21	230.16
802.53	230.09
802.85	230.10
803.17	230.09
803.49	230.04
803.81	230.02
804.13	229.98
804.45	229.93
804.77	229.90
805.09	229.86
805.41	229.81
805.73	229.79
806.05	229.74
806.37	229.69
806.69	229.70
807.01	229.67
807.33	229.66
807.65	229.62
807.97	229.59
808.28	229.58
808.60	229.58
808.92	229.56
809.24	229.63
809.56	229.63
809.88	229.56
810.20	229.53
810.52	229.53
810.84	229.48
811.16	229.45
811.48	229.42
811.80	229.45
812.12	229.42
812.43	229.42
812.75	229.41
813.07	229.39
813.39	229.36
813.71	229.31
814.03	229.24
814.35	229.24
814.67	229.21
814.98	229.19
815.30	229.14
815.62	229.07
815.94	228.97
816.26	228.97
816.58	228.94
816.89	228.96
817.21	228.93
817.53	228.95
817.85	228.95
818.17	228.90
818.48	228.83
818.80	228.87
819.12	228.80
819.44	228.75
819.76	228.73
820.07	228.73
820.39	228.70
820.71	228.70
821.03	228.67
821.34	228.65
821.66	228.64
821.98	228.65
822.30	228.66
822.61	228.70
822.93	228.62
823.25	228.60
823.57	228.56
823.88	228.56
824.20	228.50
824.52	228.51
824.83	228.53
825.15	228.49
825.47	228.46
825.79	228.47
826.10	228.47
826.42	228.44
826.74	228.39
827.05	228.39
827.37	228.37
827.69	228.36
828.00	228.37
828.32	228.34
828.64	228.34
828.95	228.38
829.27	228.33
829.58	228.32
829.90	228.32
830.22	228.30
830.53	228.24
830.85	228.23
831.17	228.20
831.48	228.18
831.80	228.19
832.11	228.16
832.43	228.14
832.75	228.13
833.06	228.21
833.38	228.21
833.69	228.24
834.01	228.23
834.32	228.20
834.64	228.18
834.96	228.21
835.27	228.19
835.59	228.15
835.90	228.13
836.22	228.14
836.53	228.11
836.85	228.10
837.16	228.19
837.48	228.18
837.79	228.20
838.11	228.20
838.42	228.18
838.74	228.18
839.05	228.17
839.37	228.14
839.68	228.06
840.00	228.04
840.31	228.05
840.63	228.06
840.94	228.06
841.26	228.02
841.57	227.99
841.88	227.99
842.20	227.95
842.51	227.93
842.83	227.91
843.14	227.99
843.46	228.02
843.77	227.96
844.08	227.95
844.40	227.90
844.71	227.90
845.03	227.87
845.34	227.87
845.65	227.87
845.97	227.86
846.28	227.86
846.60	227.87
846.91	227.79
847.22	227.77
847.54	227.77
847.85	227.80
848.16	227.75
848.48	227.74
848.79	227.81
849.10	227.84
849.42	227.84
849.73	227.76
850.04	227.73
850.36	227.72
850.67	227.74
850.98	227.76
851.30	227.76
851.61	227.75
851.92	227.74
852.23	227.78
852.55	227.81
852.86	227.82
853.17	227.81
853.49	227.83
853.80	227.84
854.11	227.89
854.42	227.89
854.74	227.91
855.05	227.93
855.36	227.87
855.67	227.84
855.99	227.85
856.30	227.95
856.61	227.92
856.92	227.92
857.23	227.87
857.55	227.84
857.86	227.81
858.17	227.85
858.48	227.84
858.79	227.78
859.11	227.76
859.42	227.74
859.73	227.73
860.04	227.74
860.35	227.73
860.66	227.65
860.98	227.65
861.29	227.66
861.60	227.67
861.91	227.70
862.22	227.67
862.53	227.66
862.84	227.53
863.16	227.58
863.47	227.57
863.78	227.61
864.09	227.64
864.40	227.66
864.71	227.67
865.02	227.68
865.33	227.70
865.64	227.69
865.95	227.68
866.27	227.72
866.58	227.71
866.89	227.72
867.20	227.71
867.51	227.69
867.82	227.68
868.13	227.66
868.44	227.64
868.75	227.68
869.06	227.69
869.37	227.75
869.68	227.72
869.99	227.71
870.30	227.70
870.61	227.70
870.92	227.71
871.23	227.69
871.54	227.72
871.85	227.76
872.16	227.77
872.47	227.77
872.78	227.73
873.09	227.72
873.40	227.73
873.71	227.75
874.02	227.73
874.33	227.71
874.64	227.70
874.95	227.70
875.26	227.68
875.56	227.66
875.87	227.62
876.18	227.62
876.49	227.73
876.80	227.72
877.11	227.69
877.42	227.65
877.73	227.62
878.04	227.58
878.35	227.53
878.66	227.52
878.96	227.53
879.27	227.51
879.58	227.53
879.89	227.49
880.20	227.51
880.51	227.49
880.82	227.48
881.12	227.49
881.43	227.47
881.74	227.44
882.05	227.40
882.36	227.41
882.67	227.38
882.97	227.25
883.28	227.23
883.59	227.21
883.90	227.26
884.21	227.26
884.51	227.26
884.82	227.26
885.13	227.27
885.44	227.25
885.74	227.24
886.05	227.22
886.36	227.24
886.67	227.22
886.98	227.26
887.28	227.28
887.59	227.26
887.90	227.26
888.20	227.28
888.51	227.29
888.82	227.30
889.13	227.36
889.43	227.46
889.74	227.45
890.05	227.48
890.35	227.44
890.66	227.46
890.97	227.46
891.28	227.47
891.58	227.47
891.89	227.50
892.20	227.50
892.50	227.47
892.81	227.49
893.12	227.49
893.42	227.52
893.73	227.52
894.04	227.53
894.34	227.58
894.65	227.56
894.95	227.60
895.26	227.61
895.57	227.62
895.87	227.52
896.18	227.59
896.48	227.62
896.79	227.63
897.10	227.63
897.40	227.61
897.71	227.64
898.01	227.64
898.32	227.64
898.63	227.65
898.93	227.67
899.24	227.65
899.54	227.64
899.85	227.63
900.15	227.62
900.46	227.63
900.76	227.59
901.07	227.63
901.38	227.62
901.68	227.65
901.99	227.63
902.29	227.67
902.60	227.64
902.90	227.61
903.21	227.60
903.51	227.58
903.82	227.61
904.12	227.60
904.43	227.61
904.73	227.61
905.03	227.62
905.34	227.73
905.64	227.74
905.95	227.76
906.25	227.71
906.56	227.72
906.86	227.71
907.17	227.73
907.47	227.71
907.77	227.72
908.08	227.67
908.38	227.66
908.69	227.63
908.99	227.64
909.30	227.64
909.60	227.66
909.90	227.66
910.21	227.61
910.51	227.58
910.81	227.56
911.12	227.53
911.42	227.52
911.73	227.42
912.03	227.41
912.33	227.43
912.64	227.46
912.94	227.43
913.24	227.40
913.55	227.39
913.85	227.38
914.15	227.33
914.46	227.33
914.76	227.27
915.06	227.26
915.37	227.25
915.67	227.23
915.97	227.19
916.27	227.18
916.58	227.23
916.88	227.23
917.18	227.23
917.49	227.27
917.79	227.27
918.09	227.28
918.39	227.27
918.70	227.23
919.00	227.23
919.30	227.24
919.60	227.27
919.91	227.27
920.21	227.27
920.51	227.25
920.81	227.23
921.12	227.25
921.42	227.29
921.72	227.28
922.02	227.29
922.32	227.33
922.63	227.33
922.93	227.37
923.23	227.37
923.53	227.36
923.83	227.34
924.13	227.34
924.44	227.34
924.74	227.37
925.04	227.39
925.34	227.37
925.64	227.37
925.94	227.34
926.24	227.39
926.55	227.41
926.85	227.45
927.15	227.48
927.45	227.48
927.75	227.46
928.05	227.44
928.35	227.41
928.65	227.41
928.95	227.41
929.26	227.34
929.56	227.35
929.86	227.34
930.16	227.32
930.46	227.31
930.76	227.31
931.06	227.27
931.36	227.24
931.66	227.23
931.96	227.24
932.26	227.25
932.56	227.22
932.86	227.18
933.16	227.18
933.46	227.13
933.76	227.11
934.06	227.11
934.36	227.17
934.66	227.19
934.96	227.16
935.26	227.17
935.56	227.20
935.86	227.21
936.16	227.19
936.46	227.18
936.76	227.20
937.06	227.19
937.36	227.21
937.66	227.22
937.96	227.26
938.26	227.23
938.56	227.21
938.86	227.20
939.16	227.23
939.46	227.22
939.76	227.25
940.06	227.28
940.35	227.27
940.65	227.21
940.95	227.22
941.25	227.21
941.55	227.18
941.85	227.16
942.15	227.17
942.45	227.20
942.75	227.21
943.04	227.22
943.34	227.26
943.64	227.23
943.94	227.23
944.24	227.19
944.54	227.20
944.84	227.21
945.13	227.20
945.43	227.17
945.73	227.20
946.03	227.18
946.33	227.14
946.62	227.16
946.92	227.16
947.22	227.17
947.52	227.18
947.82	227.18
948.11	227.21
948.41	227.17
948.71	227.15
949.01	227.12
949.31	227.08
949.60	227.03
949.90	227.06
950.20	227.05
950.50	227.07
950.79	227.07
951.09	227.07
951.39	227.05
951.69	227.04
951.98	227.07
952.28	227.07
952.58	227.08
952.87	227.06
953.17	227.07
953.47	227.06
953.76	227.03
954.06	227.03
954.36	226.98
954.66	226.97
954.95	226.99
955.25	227.00
955.55	227.04
955.84	227.05
956.14	227.02
956.44	227.02
956.73	226.98
957.03	227.00
957.32	226.98
957.62	227.02
957.92	227.03
958.21	227.02
958.51	227.12
958.81	227.11
959.10	227.11
959.40	227.13
959.69	227.13
959.99	227.20
960.29	227.20
960.58	227.18
960.88	227.22
961.17	227.22
961.47	227.23
961.76	227.21
962.06	227.23
962.36	227.20
962.65	227.17
962.95	227.19
963.24	227.18
963.54	227.21
963.83	227.21
964.13	227.21
964.42	227.17
964.72	227.12
965.01	227.13
965.31	227.15
965.60	227.12
965.90	227.19
966.19	227.15
966.49	227.18
966.78	227.21
967.08	227.22
967.37	227.20
967.67	227.19
967.96	227.22
968.26	227.21
968.55	227.26
968.85	227.31
969.14	227.30
969.43	227.29
969.73	227.29
970.02	227.28
970.32	227.28
970.61	227.28
970.91	227.26
971.20	227.27
971.49	227.25
971.79	227.28
972.08	227.21
972.38	227.20
972.67	227.22
972.96	227.22
973.26	227.23
973.55	227.27
973.85	227.27
974.14	227.26
974.43	227.28
974.73	227.28
975.02	227.24
975.31	227.25
975.61	227.24
975.90	227.21
976.19	227.21
976.49	227.22
976.78	227.22
977.07	227.18
977.37	227.17
977.66	227.18
977.95	227.13
978.24	227.11
978.54	227.14
978.83	227.08
979.12	227.09
979.42	227.05
979.71	227.02
980.00	227.00
980.29	226.98
980.59	226.92
980.88	226.93
981.17	226.92
981.46	226.92
981.76	226.91
982.05	226.96
982.34	226.95
982.63	226.92
982.93	226.91
983.22	226.95
983.51	226.96
983.80	226.95
984.09	226.98
984.39	226.96
984.68	226.92
984.97	226.92
985.26	226.89
985.55	226.89
985.85	226.88
986.14	226.89
986.43	226.91
986.72	226.93
987.01	226.88
987.30	226.89
987.59	226.89
987.89	226.88
988.18	226.85
988.47	226.84
988.76	226.84
989.05	226.81
989.34	226.80
989.63	226.81
989.92	226.81
990.22	226.79
990.51	226.79
990.80	226.83
991.09	226.85
991.38	226.84
991.67	226.84
991.96	226.83
992.25	226.84
992.54	226.81
992.83	226.81
993.12	226.81
993.41	226.80
993.70	226.82
993.99	226.84
994.28	226.86
994.58	226.87
994.87	226.89
995.16	226.90
995.45	226.86
995.74	226.85
996.03	226.87
996.32	226.84
996.61	226.87
996.90	226.86
997.19	226.87
997.48	226.89
997.77	226.89
998.06	226.89
998.34	226.88
998.63	226.87
998.92	226.88
999.21	226.90
999.50	226.94
999.79	226.91
1000.08	226.93
1000.37	226.91
1000.66	226.90
1000.95	226.90
1001.24	226.90
1001.53	226.95
1001.82	226.96
1002.11	226.91
1002.40	226.97
1002.68	227.01
1002.97	227.04
1003.26	227.05
1003.55	227.04
1003.84	227.07
1004.13	227.11
1004.42	227.13
1004.71	227.14
1004.99	227.14
1005.28	227.18
1005.57	227.15
1005.86	227.18
1006.15	227.14
1006.44	227.13
1006.72	227.15
1007.01	227.15
1007.30	227.15
1007.59	227.13
1007.88	227.12
1008.17	227.14
1008.45	227.12
1008.74	227.07
1009.03	227.03
1009.32	227.03
1009.60	227.02
1009.89	227.00
1010.18	226.94
1010.47	226.93
1010.76	226.92
1011.04	226.93
1011.33	226.92
1011.62	226.92
1011.91	226.92
1012.19	226.92
1012.48	226.93
1012.77	226.89
1013.05	226.94
1013.34	226.96
1013.63	226.96
1013.92	227.00
1014.20	226.99
1014.49	226.94
1014.78	226.96
1015.06	226.95
1015.35	226.93
1015.64	226.96
1015.92	226.96
1016.21	226.99
1016.50	226.99
1016.78	226.99
1017.07	226.99
1017.36	226.98
1017.64	226.98
1017.93	226.97
1018.22	226.98
1018.50	226.97
1018.79	226.99
1019.08	226.94
1019.36	226.95
1019.65	226.92
1019.93	226.91
1020.22	226.94
1020.51	227.02
1020.79	226.97
1021.08	226.79
1021.36	226.74
1021.65	226.92
1021.94	226.93
1022.22	227.15
1022.51	226.71
1022.79	227.36
1023.08	227.31
1023.36	227.91
1023.65	226.12
>>>>>End Processed Spectral Data<<<<<
