SpectraSuite Data File
++++++++++++++++++++++++++++++++++++
Date: Fri Feb 01 18:00:56 EST 2013
User: group
Dark Spectrum Present: No
Reference Spectrum Present: No
Number of Sampled Component Spectra: 1
Spectrometers: USB2E7196
Integration Time (usec): 35000 (USB2E7196)
Spectra Averaged: 100 (USB2E7196)
Boxcar Smoothing: 10 (USB2E7196)
Correct for Electrical Dark: No (USB2E7196)
Strobe/Lamp Enabled: No (USB2E7196)
Correct for Detector Non-linearity: No (USB2E7196)
Correct for Stray Light: No (USB2E7196)
Number of Pixels in Processed Spectrum: 2048
>>>>>Begin Processed Spectral Data<<<<<
339.09	0.00
339.48	212.96
339.86	214.49
340.24	215.93
340.63	217.05
341.01	220.00
341.39	219.90
341.78	221.07
342.16	222.39
342.54	223.17
342.93	211.43
343.31	222.08
343.69	222.61
344.07	223.07
344.46	223.49
344.84	223.88
345.22	224.12
345.60	224.39
345.99	224.58
346.37	224.69
346.75	224.78
347.13	224.83
347.52	224.88
347.90	224.96
348.28	224.97
348.66	225.01
349.05	225.02
349.43	225.06
349.81	225.13
350.19	225.18
350.57	225.24
350.96	225.31
351.34	225.44
351.72	225.56
352.10	225.65
352.48	225.73
352.87	225.78
353.25	225.87
353.63	225.92
354.01	225.94
354.39	226.08
354.77	226.15
355.15	226.26
355.54	226.29
355.92	226.33
356.30	226.39
356.68	226.52
357.06	226.58
357.44	226.61
357.82	226.65
358.20	226.74
358.58	226.80
358.97	226.89
359.35	226.97
359.73	227.02
360.11	227.07
360.49	227.12
360.87	227.17
361.25	227.19
361.63	227.25
362.01	227.35
362.39	227.33
362.77	227.38
363.15	227.40
363.53	227.44
363.91	227.49
364.29	227.54
364.67	227.47
365.05	227.48
365.43	227.53
365.81	227.56
366.19	227.59
366.57	227.59
366.95	227.57
367.33	227.52
367.71	227.51
368.09	227.51
368.47	227.51
368.85	227.48
369.23	227.50
369.61	227.47
369.99	227.48
370.37	227.46
370.75	227.49
371.13	227.43
371.51	227.40
371.89	227.34
372.27	227.27
372.65	227.23
373.03	227.20
373.41	227.11
373.78	227.02
374.16	226.92
374.54	226.89
374.92	226.82
375.30	226.77
375.68	226.70
376.06	226.64
376.44	226.57
376.82	226.51
377.19	226.43
377.57	226.32
377.95	226.21
378.33	226.13
378.71	226.01
379.09	225.98
379.47	225.92
379.84	225.85
380.22	225.77
380.60	225.70
380.98	225.65
381.36	225.62
381.73	225.59
382.11	225.56
382.49	225.51
382.87	225.42
383.25	225.36
383.62	225.41
384.00	225.34
384.38	225.29
384.76	225.27
385.13	225.25
385.51	225.22
385.89	225.17
386.27	225.15
386.64	225.10
387.02	225.06
387.40	225.02
387.78	225.01
388.15	225.01
388.53	224.97
388.91	224.92
389.29	224.89
389.66	224.84
390.04	224.77
390.42	224.75
390.79	224.74
391.17	224.73
391.55	224.61
391.92	224.61
392.30	224.63
392.68	224.55
393.05	224.55
393.43	224.55
393.81	224.54
394.18	224.50
394.56	224.50
394.94	224.51
395.31	224.54
395.69	224.59
396.06	224.60
396.44	224.67
396.82	224.69
397.19	224.75
397.57	224.77
397.95	224.87
398.32	224.86
398.70	224.89
399.07	224.96
399.45	224.99
399.82	225.05
400.20	225.07
400.58	225.17
400.95	225.19
401.33	225.27
401.70	225.46
402.08	225.57
402.45	225.64
402.83	225.76
403.20	225.86
403.58	225.91
403.95	226.05
404.33	226.19
404.71	226.30
405.08	226.48
405.46	226.65
405.83	226.80
406.21	226.98
406.58	227.19
406.96	227.41
407.33	227.62
407.70	227.85
408.08	228.17
408.45	228.46
408.83	228.73
409.20	229.03
409.58	229.21
409.95	229.54
410.33	229.93
410.70	230.22
411.08	230.60
411.45	230.98
411.82	231.38
412.20	231.77
412.57	232.34
412.95	232.75
413.32	233.28
413.69	233.80
414.07	234.38
414.44	235.02
414.82	235.64
415.19	236.38
415.56	237.11
415.94	237.86
416.31	238.71
416.68	239.53
417.06	240.46
417.43	241.42
417.81	242.46
418.18	243.51
418.55	244.65
418.93	245.80
419.30	247.00
419.67	248.28
420.04	249.60
420.42	250.91
420.79	252.48
421.16	254.03
421.54	255.63
421.91	257.28
422.28	258.95
422.66	260.72
423.03	262.45
423.40	264.23
423.77	266.13
424.15	268.04
424.52	270.12
424.89	272.32
425.26	274.42
425.64	276.36
426.01	278.47
426.38	280.72
426.75	283.01
427.13	285.37
427.50	287.80
427.87	290.31
428.24	292.84
428.61	295.24
428.99	297.85
429.36	300.71
429.73	303.49
430.10	306.21
430.47	308.99
430.85	311.85
431.22	314.89
431.59	318.08
431.96	321.11
432.33	324.40
432.70	327.58
433.08	331.37
433.45	334.97
433.82	338.52
434.19	342.38
434.56	346.17
434.93	349.76
435.30	353.34
435.68	357.32
436.05	361.13
436.42	364.87
436.79	368.28
437.16	371.92
437.53	375.77
437.90	379.56
438.27	383.26
438.64	387.13
439.01	390.66
439.38	393.71
439.75	396.62
440.13	400.02
440.50	403.19
440.87	405.72
441.24	408.37
441.61	411.34
441.98	413.42
442.35	415.86
442.72	418.38
443.09	420.79
443.46	422.12
443.83	422.95
444.20	423.72
444.57	424.93
444.94	425.32
445.31	425.80
445.68	426.30
446.05	426.48
446.42	425.93
446.79	425.36
447.16	424.77
447.53	424.38
447.90	422.86
448.27	421.34
448.64	419.23
449.01	417.65
449.37	414.90
449.74	412.36
450.11	409.33
450.48	405.99
450.85	402.55
451.22	399.66
451.59	396.89
451.96	394.25
452.33	390.73
452.70	387.58
453.07	383.72
453.43	379.83
453.80	376.06
454.17	372.52
454.54	369.10
454.91	365.42
455.28	361.81
455.65	358.40
456.02	355.02
456.38	352.05
456.75	348.42
457.12	345.43
457.49	342.37
457.86	339.46
458.23	336.91
458.59	334.15
458.96	331.29
459.33	328.81
459.70	326.25
460.07	324.19
460.43	321.81
460.80	319.57
461.17	317.56
461.54	315.47
461.91	313.48
462.27	311.49
462.64	309.78
463.01	307.90
463.38	306.09
463.74	304.28
464.11	302.71
464.48	301.33
464.85	299.80
465.21	298.60
465.58	297.29
465.95	295.77
466.32	294.50
466.68	293.27
467.05	292.06
467.42	290.85
467.78	289.54
468.15	288.37
468.52	287.47
468.88	286.28
469.25	285.25
469.62	284.39
469.98	283.46
470.35	282.59
470.72	281.78
471.08	280.93
471.45	280.17
471.82	279.40
472.18	278.53
472.55	277.91
472.92	277.23
473.28	276.61
473.65	275.99
474.02	275.41
474.38	274.89
474.75	274.38
475.11	273.86
475.48	273.46
475.85	273.09
476.21	272.74
476.58	272.49
476.94	272.23
477.31	271.94
477.67	271.66
478.04	271.46
478.41	271.31
478.77	271.27
479.14	271.16
479.50	271.08
479.87	271.16
480.23	271.19
480.60	271.18
480.96	271.23
481.33	271.42
481.69	271.58
482.06	271.72
482.42	271.85
482.79	272.09
483.15	272.42
483.52	272.80
483.88	273.14
484.25	273.50
484.61	273.93
484.98	274.38
485.34	274.91
485.71	275.52
486.07	276.15
486.44	276.69
486.80	277.36
487.17	278.12
487.53	278.94
487.90	279.83
488.26	280.79
488.62	281.79
488.99	282.77
489.35	283.82
489.72	284.99
490.08	286.29
490.44	287.58
490.81	288.93
491.17	290.34
491.54	291.91
491.90	293.52
492.26	295.26
492.63	297.05
492.99	298.97
493.36	300.90
493.72	303.04
494.08	305.28
494.45	307.69
494.81	310.17
495.17	312.70
495.54	315.38
495.90	318.20
496.26	321.11
496.63	324.25
496.99	327.59
497.35	331.04
497.72	334.58
498.08	338.28
498.44	342.23
498.80	346.38
499.17	350.68
499.53	355.12
499.89	359.70
500.26	364.56
500.62	369.49
500.98	374.81
501.34	380.18
501.71	385.85
502.07	391.63
502.43	397.57
502.79	403.79
503.16	410.21
503.52	416.85
503.88	423.69
504.24	430.73
504.60	437.97
504.97	445.57
505.33	453.39
505.69	461.66
506.05	469.92
506.41	478.28
506.78	486.88
507.14	495.83
507.50	505.18
507.86	514.78
508.22	524.63
508.59	534.43
508.95	544.72
509.31	555.16
509.67	565.95
510.03	576.95
510.39	588.23
510.75	599.87
511.12	611.62
511.48	623.76
511.84	636.07
512.20	648.48
512.56	661.32
512.92	674.43
513.28	687.73
513.64	701.07
514.00	714.79
514.37	728.78
514.73	742.85
515.09	756.88
515.45	771.19
515.81	785.78
516.17	800.90
516.53	816.08
516.89	831.44
517.25	846.74
517.61	862.37
517.97	878.10
518.33	893.64
518.69	909.66
519.05	925.94
519.41	942.40
519.77	959.26
520.13	976.13
520.49	992.81
520.85	1009.48
521.21	1026.58
521.57	1044.28
521.93	1061.53
522.29	1079.41
522.65	1097.22
523.01	1114.98
523.37	1132.54
523.73	1150.35
524.09	1168.05
524.45	1185.85
524.81	1204.19
525.17	1222.65
525.53	1241.19
525.89	1259.86
526.25	1278.49
526.61	1296.58
526.97	1315.17
527.33	1333.41
527.68	1351.75
528.04	1370.08
528.40	1388.56
528.76	1407.47
529.12	1425.94
529.48	1444.67
529.84	1462.50
530.20	1481.04
530.56	1499.95
530.91	1519.45
531.27	1538.11
531.63	1556.59
531.99	1575.34
532.35	1593.21
532.71	1611.26
533.07	1629.56
533.42	1647.42
533.78	1665.56
534.14	1683.96
534.50	1701.40
534.86	1719.42
535.21	1736.70
535.57	1754.78
535.93	1772.44
536.29	1789.51
536.65	1806.72
537.00	1823.62
537.36	1841.34
537.72	1858.07
538.08	1874.68
538.44	1890.60
538.79	1906.65
539.15	1922.53
539.51	1938.39
539.87	1954.98
540.22	1970.81
540.58	1986.87
540.94	2002.55
541.29	2017.58
541.65	2032.61
542.01	2048.07
542.37	2062.73
542.72	2077.42
543.08	2091.54
543.44	2106.23
543.79	2119.74
544.15	2132.76
544.51	2146.67
544.87	2159.82
545.22	2172.81
545.58	2185.36
545.94	2197.31
546.29	2209.34
546.65	2221.38
547.01	2232.78
547.36	2243.56
547.72	2254.05
548.07	2263.98
548.43	2274.12
548.79	2284.09
549.14	2293.57
549.50	2302.85
549.86	2312.50
550.21	2321.83
550.57	2331.01
550.92	2339.56
551.28	2348.55
551.64	2357.79
551.99	2366.31
552.35	2374.44
552.70	2382.59
553.06	2390.48
553.41	2398.80
553.77	2406.74
554.13	2414.59
554.48	2422.68
554.84	2430.14
555.19	2437.33
555.55	2444.35
555.90	2450.74
556.26	2457.58
556.61	2464.07
556.97	2470.26
557.32	2475.95
557.68	2481.68
558.03	2487.51
558.39	2492.75
558.74	2499.14
559.10	2504.55
559.45	2509.67
559.81	2515.32
560.16	2520.57
560.52	2525.21
560.87	2530.01
561.23	2534.15
561.58	2538.53
561.94	2542.56
562.29	2546.16
562.64	2550.15
563.00	2553.90
563.35	2558.69
563.71	2563.12
564.06	2567.48
564.42	2571.56
564.77	2575.54
565.12	2579.10
565.48	2582.18
565.83	2585.27
566.19	2587.61
566.54	2589.53
566.89	2591.77
567.25	2593.56
567.60	2595.91
567.96	2598.80
568.31	2600.66
568.66	2602.77
569.02	2604.25
569.37	2605.32
569.72	2607.20
570.08	2608.28
570.43	2609.22
570.78	2609.39
571.14	2608.42
571.49	2607.73
571.84	2608.14
572.20	2607.52
572.55	2607.10
572.90	2605.95
573.26	2605.06
573.61	2603.75
573.96	2602.59
574.31	2599.82
574.67	2596.91
575.02	2593.45
575.37	2590.14
575.72	2586.50
576.08	2583.10
576.43	2579.95
576.78	2576.40
577.13	2573.21
577.49	2570.00
577.84	2566.61
578.19	2562.87
578.54	2559.29
578.90	2555.09
579.25	2549.11
579.60	2543.90
579.95	2538.61
580.30	2533.30
580.66	2527.80
581.01	2522.54
581.36	2517.21
581.71	2512.98
582.06	2508.47
582.42	2503.69
582.77	2498.08
583.12	2493.20
583.47	2488.34
583.82	2483.00
584.17	2477.27
584.53	2471.43
584.88	2465.38
585.23	2459.03
585.58	2452.99
585.93	2447.08
586.28	2441.86
586.63	2436.42
586.98	2430.93
587.34	2425.77
587.69	2420.47
588.04	2414.74
588.39	2408.54
588.74	2401.25
589.09	2394.30
589.44	2386.67
589.79	2379.93
590.14	2373.64
590.49	2366.24
590.84	2358.96
591.19	2352.17
591.54	2345.04
591.89	2336.77
592.25	2329.28
592.60	2321.15
592.95	2312.74
593.30	2304.30
593.65	2295.51
594.00	2287.51
594.35	2279.14
594.70	2269.85
595.05	2261.88
595.40	2253.63
595.75	2244.97
596.10	2238.01
596.45	2230.49
596.80	2223.55
597.15	2216.00
597.50	2207.98
597.85	2200.57
598.19	2193.00
598.54	2184.96
598.89	2177.24
599.24	2170.46
599.59	2162.79
599.94	2155.57
600.29	2147.97
600.64	2140.39
600.99	2132.09
601.34	2124.12
601.69	2116.10
602.04	2108.35
602.39	2099.62
602.74	2091.65
603.08	2083.90
603.43	2076.11
603.78	2067.50
604.13	2059.03
604.48	2050.68
604.83	2042.70
605.18	2034.73
605.53	2025.38
605.87	2016.03
606.22	2007.55
606.57	1998.14
606.92	1989.36
607.27	1981.05
607.62	1973.11
607.96	1964.61
608.31	1956.85
608.66	1947.97
609.01	1939.20
609.36	1930.25
609.70	1920.95
610.05	1911.53
610.40	1902.49
610.75	1892.73
611.10	1883.68
611.44	1873.59
611.79	1864.15
612.14	1854.00
612.49	1843.11
612.83	1833.21
613.18	1823.56
613.53	1814.05
613.88	1804.25
614.22	1794.69
614.57	1784.55
614.92	1775.16
615.27	1766.36
615.61	1756.65
615.96	1747.22
616.31	1738.18
616.65	1729.51
617.00	1720.66
617.35	1711.64
617.70	1701.93
618.04	1692.01
618.39	1682.31
618.74	1673.61
619.08	1663.88
619.43	1654.87
619.78	1646.71
620.12	1638.34
620.47	1629.52
620.82	1619.88
621.16	1610.99
621.51	1601.88
621.85	1592.87
622.20	1582.82
622.55	1572.91
622.89	1563.49
623.24	1554.48
623.59	1545.73
623.93	1536.90
624.28	1528.29
624.62	1519.42
624.97	1510.87
625.32	1502.79
625.66	1494.62
626.01	1486.08
626.35	1477.34
626.70	1468.22
627.04	1459.20
627.39	1449.99
627.73	1441.27
628.08	1433.12
628.43	1424.63
628.77	1416.07
629.12	1407.17
629.46	1398.77
629.81	1389.96
630.15	1381.37
630.50	1372.69
630.84	1363.10
631.19	1353.69
631.53	1344.82
631.88	1335.92
632.22	1326.96
632.57	1318.34
632.91	1309.47
633.26	1300.80
633.60	1292.05
633.95	1283.55
634.29	1275.32
634.64	1267.56
634.98	1258.89
635.32	1250.51
635.67	1242.63
636.01	1234.80
636.36	1226.90
636.70	1219.14
637.05	1211.45
637.39	1203.93
637.73	1196.25
638.08	1189.22
638.42	1182.18
638.77	1174.71
639.11	1167.13
639.45	1159.67
639.80	1151.95
640.14	1144.49
640.49	1136.80
640.83	1129.44
641.17	1122.24
641.52	1114.82
641.86	1107.25
642.20	1100.50
642.55	1093.04
642.89	1085.53
643.23	1077.88
643.58	1071.13
643.92	1063.89
644.26	1056.92
644.61	1049.87
644.95	1042.91
645.29	1035.40
645.64	1027.55
645.98	1020.05
646.32	1013.05
646.66	1006.10
647.01	999.28
647.35	992.61
647.69	985.84
648.04	979.39
648.38	972.72
648.72	965.73
649.06	958.68
649.41	951.83
649.75	945.04
650.09	938.17
650.43	931.46
650.78	924.25
651.12	917.44
651.46	910.76
651.80	904.14
652.14	897.86
652.49	891.60
652.83	885.70
653.17	879.24
653.51	872.70
653.85	866.46
654.20	859.96
654.54	852.94
654.88	846.25
655.22	839.35
655.56	832.74
655.90	826.41
656.25	820.39
656.59	814.11
656.93	808.13
657.27	802.14
657.61	795.90
657.95	790.05
658.29	784.09
658.64	778.00
658.98	771.81
659.32	765.48
659.66	759.51
660.00	753.30
660.34	747.49
660.68	741.83
661.02	735.95
661.36	730.53
661.70	725.37
662.05	720.39
662.39	715.53
662.73	710.36
663.07	705.30
663.41	700.20
663.75	695.04
664.09	689.78
664.43	684.65
664.77	679.91
665.11	674.99
665.45	670.25
665.79	665.56
666.13	660.82
666.47	656.09
666.81	651.23
667.15	646.53
667.49	642.04
667.83	637.62
668.17	633.07
668.51	628.45
668.85	623.73
669.19	619.20
669.53	614.78
669.87	610.28
670.21	605.98
670.55	601.71
670.89	597.76
671.23	593.84
671.57	589.78
671.91	585.66
672.25	581.64
672.58	577.61
672.92	573.64
673.26	569.95
673.60	566.31
673.94	562.80
674.28	559.39
674.62	555.97
674.96	552.43
675.30	549.07
675.64	545.59
675.97	542.43
676.31	539.21
676.65	535.79
676.99	532.71
677.33	529.34
677.67	526.14
678.01	522.66
678.34	519.22
678.68	515.90
679.02	512.65
679.36	509.37
679.70	506.23
680.04	503.07
680.37	499.83
680.71	496.60
681.05	493.54
681.39	490.45
681.73	487.36
682.06	484.42
682.40	481.53
682.74	478.57
683.08	475.62
683.42	472.59
683.75	469.75
684.09	466.73
684.43	463.87
684.77	460.94
685.10	458.14
685.44	455.44
685.78	452.79
686.12	450.15
686.45	447.58
686.79	444.93
687.13	442.33
687.46	439.78
687.80	437.27
688.14	434.65
688.48	432.23
688.81	429.71
689.15	427.15
689.49	424.58
689.82	422.16
690.16	419.66
690.50	417.38
690.83	415.08
691.17	412.80
691.51	410.63
691.84	408.49
692.18	406.32
692.52	404.01
692.85	401.76
693.19	399.60
693.52	397.40
693.86	395.25
694.20	393.24
694.53	391.18
694.87	388.99
695.21	386.93
695.54	384.79
695.88	382.76
696.21	380.76
696.55	378.88
696.88	376.90
697.22	374.99
697.56	373.06
697.89	371.09
698.23	369.22
698.56	367.37
698.90	365.48
699.23	363.57
699.57	361.78
699.90	359.97
700.24	358.15
700.58	356.38
700.91	354.65
701.25	352.91
701.58	351.25
701.92	349.69
702.25	348.11
702.59	346.52
702.92	344.99
703.26	343.48
703.59	341.95
703.93	340.59
704.26	339.15
704.60	337.69
704.93	336.27
705.26	334.84
705.60	333.48
705.93	332.19
706.27	330.97
706.60	329.72
706.94	328.48
707.27	327.17
707.61	325.92
707.94	324.70
708.27	323.49
708.61	322.23
708.94	321.09
709.28	319.92
709.61	318.81
709.94	317.71
710.28	316.49
710.61	315.34
710.95	314.07
711.28	312.97
711.61	311.85
711.95	310.79
712.28	309.68
712.61	308.54
712.95	307.40
713.28	306.34
713.61	305.32
713.95	304.28
714.28	303.34
714.61	302.34
714.95	301.37
715.28	300.36
715.61	299.38
715.95	298.38
716.28	297.39
716.61	296.40
716.95	295.39
717.28	294.53
717.61	293.62
717.94	292.77
718.28	291.87
718.61	290.99
718.94	290.17
719.27	289.42
719.61	288.63
719.94	287.89
720.27	287.10
720.60	286.33
720.94	285.62
721.27	284.94
721.60	284.30
721.93	283.59
722.27	282.92
722.60	282.28
722.93	281.60
723.26	281.00
723.59	280.33
723.93	279.70
724.26	279.07
724.59	278.44
724.92	277.88
725.25	277.32
725.59	276.73
725.92	276.12
726.25	275.52
726.58	274.96
726.91	274.40
727.24	273.85
727.57	273.31
727.91	272.69
728.24	272.13
728.57	271.53
728.90	271.05
729.23	270.49
729.56	269.93
729.89	269.42
730.22	268.83
730.55	268.35
730.89	267.86
731.22	267.34
731.55	266.86
731.88	266.32
732.21	265.80
732.54	265.30
732.87	264.85
733.20	264.37
733.53	263.89
733.86	263.44
734.19	262.99
734.52	262.50
734.85	262.15
735.18	261.67
735.51	261.28
735.84	260.81
736.17	260.38
736.50	259.99
736.83	259.68
737.16	259.30
737.49	258.88
737.82	258.47
738.15	258.09
738.48	257.69
738.81	257.31
739.14	256.97
739.47	256.62
739.80	256.21
740.13	255.84
740.46	255.46
740.79	255.09
741.12	254.72
741.45	254.39
741.78	253.99
742.11	253.63
742.44	253.23
742.77	252.86
743.10	252.53
743.43	252.17
743.75	251.72
744.08	251.53
744.41	251.23
744.74	250.91
745.07	250.57
745.40	250.31
745.73	250.03
746.06	249.71
746.39	249.39
746.71	249.11
747.04	248.82
747.37	248.57
747.70	248.33
748.03	248.07
748.36	247.79
748.68	247.52
749.01	247.23
749.34	246.99
749.67	246.75
750.00	246.46
750.33	246.26
750.65	246.03
750.98	245.66
751.31	245.37
751.64	245.10
751.97	244.92
752.29	244.60
752.62	244.33
752.95	244.06
753.28	243.84
753.60	243.61
753.93	243.40
754.26	243.14
754.59	242.88
754.91	242.61
755.24	242.39
755.57	242.17
755.90	241.97
756.22	241.75
756.55	241.53
756.88	241.33
757.20	241.07
757.53	240.84
757.86	240.64
758.19	240.52
758.51	240.33
758.84	240.07
759.17	239.90
759.49	239.71
759.82	239.61
760.15	239.44
760.47	239.23
760.80	239.00
761.13	238.84
761.45	238.64
761.78	238.46
762.11	238.28
762.43	238.13
762.76	238.00
763.08	237.82
763.41	237.68
763.74	237.52
764.06	237.38
764.39	237.21
764.71	237.03
765.04	236.84
765.37	236.72
765.69	236.58
766.02	236.46
766.34	236.32
766.67	236.13
767.00	236.00
767.32	235.96
767.65	235.90
767.97	235.78
768.30	235.65
768.62	235.52
768.95	235.39
769.27	235.25
769.60	235.10
769.92	234.95
770.25	234.81
770.57	234.70
770.90	234.57
771.22	234.43
771.55	234.38
771.87	234.29
772.20	234.14
772.52	234.14
772.85	234.13
773.17	234.03
773.50	233.91
773.82	233.79
774.15	233.60
774.47	233.46
774.80	233.35
775.12	233.27
775.45	233.19
775.77	233.13
776.09	233.04
776.42	232.96
776.74	232.92
777.07	232.84
777.39	232.74
777.72	232.67
778.04	232.64
778.36	232.49
778.69	232.42
779.01	232.38
779.33	232.22
779.66	232.02
779.98	231.95
780.31	231.88
780.63	231.88
780.95	231.84
781.28	231.77
781.60	231.67
781.92	231.59
782.25	231.53
782.57	231.45
782.89	231.35
783.22	231.25
783.54	231.17
783.86	231.09
784.19	231.01
784.51	230.96
784.83	230.89
785.16	230.83
785.48	230.76
785.80	230.71
786.12	230.64
786.45	230.61
786.77	230.54
787.09	230.49
787.42	230.34
787.74	230.27
788.06	230.21
788.38	230.18
788.71	230.13
789.03	230.05
789.35	229.99
789.67	229.95
789.99	229.92
790.32	229.86
790.64	229.81
790.96	229.88
791.28	229.76
791.61	229.69
791.93	229.68
792.25	229.59
792.57	229.58
792.89	229.52
793.21	229.47
793.54	229.40
793.86	229.32
794.18	229.30
794.50	229.25
794.82	229.23
795.14	229.19
795.47	229.15
795.79	229.12
796.11	229.04
796.43	228.99
796.75	228.96
797.07	228.89
797.39	228.83
797.71	228.71
798.04	228.68
798.36	228.65
798.68	228.57
799.00	228.56
799.32	228.47
799.64	228.44
799.96	228.40
800.28	228.40
800.60	228.36
800.92	228.33
801.24	228.29
801.56	228.22
801.89	228.20
802.21	228.15
802.53	228.08
802.85	228.08
803.17	228.07
803.49	228.00
803.81	228.00
804.13	227.97
804.45	227.90
804.77	227.88
805.09	227.84
805.41	227.83
805.73	227.75
806.05	227.71
806.37	227.66
806.69	227.61
807.01	227.57
807.33	227.52
807.65	227.47
807.97	227.48
808.28	227.47
808.60	227.43
808.92	227.42
809.24	227.48
809.56	227.42
809.88	227.35
810.20	227.35
810.52	227.32
810.84	227.29
811.16	227.29
811.48	227.29
811.80	227.28
812.12	227.26
812.43	227.26
812.75	227.25
813.07	227.23
813.39	227.24
813.71	227.21
814.03	227.18
814.35	227.17
814.67	227.09
814.98	227.03
815.30	227.01
815.62	226.97
815.94	226.87
816.26	226.92
816.58	226.92
816.89	226.92
817.21	226.90
817.53	226.92
817.85	226.92
818.17	226.89
818.48	226.87
818.80	226.84
819.12	226.84
819.44	226.85
819.76	226.82
820.07	226.79
820.39	226.81
820.71	226.83
821.03	226.83
821.34	226.84
821.66	226.86
821.98	226.88
822.30	226.88
822.61	226.92
822.93	226.85
823.25	226.82
823.57	226.81
823.88	226.86
824.20	226.83
824.52	226.85
824.83	226.86
825.15	226.85
825.47	226.87
825.79	226.87
826.10	226.80
826.42	226.82
826.74	226.85
827.05	226.83
827.37	226.82
827.69	226.79
828.00	226.76
828.32	226.73
828.64	226.71
828.95	226.72
829.27	226.71
829.58	226.70
829.90	226.72
830.22	226.70
830.53	226.65
830.85	226.62
831.17	226.54
831.48	226.51
831.80	226.47
832.11	226.44
832.43	226.42
832.75	226.40
833.06	226.44
833.38	226.36
833.69	226.32
834.01	226.29
834.32	226.27
834.64	226.25
834.96	226.23
835.27	226.19
835.59	226.16
835.90	226.10
836.22	226.10
836.53	226.04
836.85	225.98
837.16	226.03
837.48	226.01
837.79	226.03
838.11	226.05
838.42	226.02
838.74	226.01
839.05	225.98
839.37	225.98
839.68	225.90
840.00	225.90
840.31	225.91
840.63	225.89
840.94	225.88
841.26	225.86
841.57	225.82
841.88	225.80
842.20	225.75
842.51	225.72
842.83	225.69
843.14	225.78
843.46	225.77
843.77	225.73
844.08	225.71
844.40	225.70
844.71	225.65
845.03	225.60
845.34	225.59
845.65	225.55
845.97	225.52
846.28	225.50
846.60	225.50
846.91	225.47
847.22	225.43
847.54	225.42
847.85	225.44
848.16	225.43
848.48	225.41
848.79	225.44
849.10	225.43
849.42	225.44
849.73	225.35
850.04	225.38
850.36	225.34
850.67	225.35
850.98	225.32
851.30	225.31
851.61	225.33
851.92	225.33
852.23	225.36
852.55	225.36
852.86	225.33
853.17	225.33
853.49	225.39
853.80	225.44
854.11	225.46
854.42	225.45
854.74	225.46
855.05	225.47
855.36	225.46
855.67	225.46
855.99	225.46
856.30	225.56
856.61	225.54
856.92	225.53
857.23	225.52
857.55	225.54
857.86	225.55
858.17	225.58
858.48	225.57
858.79	225.58
859.11	225.63
859.42	225.65
859.73	225.65
860.04	225.61
860.35	225.57
860.66	225.52
860.98	225.53
861.29	225.54
861.60	225.53
861.91	225.55
862.22	225.57
862.53	225.54
862.84	225.45
863.16	225.47
863.47	225.48
863.78	225.48
864.09	225.45
864.40	225.45
864.71	225.45
865.02	225.44
865.33	225.41
865.64	225.39
865.95	225.41
866.27	225.47
866.58	225.49
866.89	225.49
867.20	225.49
867.51	225.45
867.82	225.43
868.13	225.47
868.44	225.43
868.75	225.48
869.06	225.49
869.37	225.47
869.68	225.44
869.99	225.45
870.30	225.45
870.61	225.48
870.92	225.47
871.23	225.46
871.54	225.49
871.85	225.49
872.16	225.50
872.47	225.48
872.78	225.39
873.09	225.37
873.40	225.41
873.71	225.44
874.02	225.46
874.33	225.45
874.64	225.43
874.95	225.43
875.26	225.37
875.56	225.37
875.87	225.38
876.18	225.40
876.49	225.48
876.80	225.45
877.11	225.43
877.42	225.43
877.73	225.42
878.04	225.38
878.35	225.36
878.66	225.33
878.96	225.31
879.27	225.34
879.58	225.36
879.89	225.33
880.20	225.36
880.51	225.35
880.82	225.36
881.12	225.35
881.43	225.32
881.74	225.28
882.05	225.25
882.36	225.23
882.67	225.22
882.97	225.10
883.28	225.09
883.59	225.08
883.90	225.08
884.21	225.08
884.51	225.07
884.82	225.05
885.13	225.08
885.44	225.06
885.74	225.00
886.05	224.98
886.36	224.97
886.67	224.90
886.98	224.93
887.28	224.94
887.59	224.97
887.90	224.95
888.20	224.98
888.51	225.00
888.82	224.95
889.13	224.95
889.43	225.03
889.74	225.03
890.05	225.01
890.35	224.93
890.66	224.93
890.97	224.92
891.28	224.92
891.58	224.93
891.89	224.93
892.20	224.94
892.50	224.91
892.81	224.88
893.12	224.87
893.42	224.85
893.73	224.84
894.04	224.82
894.34	224.85
894.65	224.85
894.95	224.84
895.26	224.89
895.57	224.91
895.87	224.84
896.18	224.83
896.48	224.84
896.79	224.87
897.10	224.87
897.40	224.88
897.71	224.89
898.01	224.87
898.32	224.89
898.63	224.84
898.93	224.86
899.24	224.87
899.54	224.87
899.85	224.85
900.15	224.86
900.46	224.84
900.76	224.84
901.07	224.84
901.38	224.84
901.68	224.86
901.99	224.82
902.29	224.81
902.60	224.84
902.90	224.85
903.21	224.87
903.51	224.87
903.82	224.92
904.12	224.93
904.43	224.91
904.73	224.92
905.03	224.98
905.34	225.08
905.64	225.06
905.95	225.06
906.25	225.08
906.56	225.07
906.86	225.05
907.17	225.05
907.47	225.05
907.77	225.03
908.08	224.99
908.38	224.98
908.69	224.99
908.99	224.99
909.30	225.00
909.60	225.02
909.90	225.00
910.21	224.98
910.51	224.97
910.81	224.94
911.12	224.93
911.42	224.94
911.73	224.86
912.03	224.89
912.33	224.91
912.64	224.90
912.94	224.91
913.24	224.91
913.55	224.89
913.85	224.89
914.15	224.92
914.46	224.92
914.76	224.95
915.06	224.94
915.37	224.91
915.67	224.83
915.97	224.80
916.27	224.80
916.58	224.77
916.88	224.80
917.18	224.81
917.49	224.86
917.79	224.84
918.09	224.83
918.39	224.85
918.70	224.86
919.00	224.82
919.30	224.85
919.60	224.83
919.91	224.83
920.21	224.82
920.51	224.81
920.81	224.79
921.12	224.76
921.42	224.78
921.72	224.78
922.02	224.82
922.32	224.85
922.63	224.87
922.93	224.95
923.23	224.92
923.53	224.92
923.83	224.86
924.13	224.88
924.44	224.88
924.74	224.90
925.04	224.88
925.34	224.89
925.64	224.84
925.94	224.85
926.24	224.93
926.55	224.90
926.85	224.90
927.15	224.94
927.45	224.96
927.75	224.93
928.05	224.96
928.35	224.98
928.65	224.98
928.95	224.99
929.26	224.95
929.56	224.97
929.86	225.00
930.16	224.98
930.46	224.97
930.76	224.97
931.06	224.90
931.36	224.89
931.66	224.88
931.96	224.87
932.26	224.89
932.56	224.84
932.86	224.87
933.16	224.89
933.46	224.87
933.76	224.83
934.06	224.85
934.36	224.87
934.66	224.82
934.96	224.81
935.26	224.80
935.56	224.78
935.86	224.74
936.16	224.72
936.46	224.73
936.76	224.70
937.06	224.67
937.36	224.71
937.66	224.72
937.96	224.77
938.26	224.78
938.56	224.77
938.86	224.75
939.16	224.74
939.46	224.73
939.76	224.74
940.06	224.75
940.35	224.74
940.65	224.68
940.95	224.72
941.25	224.70
941.55	224.69
941.85	224.69
942.15	224.74
942.45	224.74
942.75	224.74
943.04	224.74
943.34	224.75
943.64	224.70
943.94	224.68
944.24	224.66
944.54	224.68
944.84	224.66
945.13	224.64
945.43	224.66
945.73	224.66
946.03	224.61
946.33	224.59
946.62	224.59
946.92	224.60
947.22	224.60
947.52	224.61
947.82	224.61
948.11	224.59
948.41	224.56
948.71	224.54
949.01	224.55
949.31	224.55
949.60	224.57
949.90	224.60
950.20	224.59
950.50	224.60
950.79	224.59
951.09	224.60
951.39	224.63
951.69	224.62
951.98	224.62
952.28	224.67
952.58	224.71
952.87	224.69
953.17	224.69
953.47	224.71
953.76	224.69
954.06	224.70
954.36	224.71
954.66	224.70
954.95	224.77
955.25	224.76
955.55	224.78
955.84	224.76
956.14	224.77
956.44	224.80
956.73	224.78
957.03	224.78
957.32	224.81
957.62	224.79
957.92	224.80
958.21	224.81
958.51	224.91
958.81	224.92
959.10	224.96
959.40	224.98
959.69	224.98
959.99	225.01
960.29	225.00
960.58	224.98
960.88	225.02
961.17	225.00
961.47	225.01
961.76	225.00
962.06	225.02
962.36	225.04
962.65	225.02
962.95	225.01
963.24	224.98
963.54	224.98
963.83	224.97
964.13	224.95
964.42	224.93
964.72	224.85
965.01	224.80
965.31	224.77
965.60	224.77
965.90	224.80
966.19	224.81
966.49	224.82
966.78	224.83
967.08	224.79
967.37	224.81
967.67	224.75
967.96	224.81
968.26	224.79
968.55	224.77
968.85	224.79
969.14	224.79
969.43	224.80
969.73	224.79
970.02	224.79
970.32	224.79
970.61	224.78
970.91	224.79
971.20	224.78
971.49	224.74
971.79	224.75
972.08	224.71
972.38	224.64
972.67	224.61
972.96	224.63
973.26	224.59
973.55	224.60
973.85	224.63
974.14	224.60
974.43	224.62
974.73	224.60
975.02	224.58
975.31	224.60
975.61	224.60
975.90	224.59
976.19	224.57
976.49	224.57
976.78	224.59
977.07	224.55
977.37	224.57
977.66	224.60
977.95	224.56
978.24	224.49
978.54	224.54
978.83	224.52
979.12	224.48
979.42	224.52
979.71	224.49
980.00	224.48
980.29	224.46
980.59	224.43
980.88	224.45
981.17	224.42
981.46	224.41
981.76	224.39
982.05	224.42
982.34	224.42
982.63	224.42
982.93	224.41
983.22	224.42
983.51	224.41
983.80	224.41
984.09	224.44
984.39	224.46
984.68	224.46
984.97	224.45
985.26	224.47
985.55	224.47
985.85	224.43
986.14	224.43
986.43	224.44
986.72	224.42
987.01	224.37
987.30	224.36
987.59	224.37
987.89	224.37
988.18	224.33
988.47	224.35
988.76	224.34
989.05	224.34
989.34	224.32
989.63	224.35
989.92	224.39
990.22	224.40
990.51	224.41
990.80	224.38
991.09	224.43
991.38	224.43
991.67	224.41
991.96	224.42
992.25	224.45
992.54	224.44
992.83	224.48
993.12	224.55
993.41	224.57
993.70	224.62
993.99	224.66
994.28	224.70
994.58	224.72
994.87	224.74
995.16	224.72
995.45	224.74
995.74	224.72
996.03	224.69
996.32	224.72
996.61	224.75
996.90	224.78
997.19	224.77
997.48	224.76
997.77	224.80
998.06	224.79
998.34	224.78
998.63	224.81
998.92	224.80
999.21	224.79
999.50	224.83
999.79	224.81
1000.08	224.79
1000.37	224.80
1000.66	224.78
1000.95	224.79
1001.24	224.81
1001.53	224.81
1001.82	224.83
1002.11	224.82
1002.40	224.84
1002.68	224.89
1002.97	224.96
1003.26	224.97
1003.55	225.00
1003.84	225.01
1004.13	225.08
1004.42	225.09
1004.71	225.08
1004.99	225.08
1005.28	225.08
1005.57	225.05
1005.86	225.01
1006.15	225.02
1006.44	225.01
1006.72	225.02
1007.01	225.00
1007.30	225.04
1007.59	225.01
1007.88	224.96
1008.17	224.98
1008.45	224.93
1008.74	224.88
1009.03	224.86
1009.32	224.87
1009.60	224.84
1009.89	224.85
1010.18	224.77
1010.47	224.75
1010.76	224.70
1011.04	224.70
1011.33	224.70
1011.62	224.69
1011.91	224.73
1012.19	224.70
1012.48	224.68
1012.77	224.68
1013.05	224.72
1013.34	224.70
1013.63	224.70
1013.92	224.74
1014.20	224.72
1014.49	224.72
1014.78	224.71
1015.06	224.64
1015.35	224.62
1015.64	224.64
1015.92	224.59
1016.21	224.62
1016.50	224.64
1016.78	224.66
1017.07	224.67
1017.36	224.66
1017.64	224.66
1017.93	224.60
1018.22	224.61
1018.50	224.62
1018.79	224.59
1019.08	224.54
1019.36	224.55
1019.65	224.51
1019.93	224.56
1020.22	224.56
1020.51	224.60
1020.79	224.59
1021.08	224.33
1021.36	224.79
1021.65	224.34
1021.94	224.43
1022.22	224.78
1022.51	223.73
1022.79	225.67
1023.08	224.09
1023.36	225.76
1023.65	224.46
>>>>>End Processed Spectral Data<<<<<
