SpectraSuite Data File
++++++++++++++++++++++++++++++++++++
Date: Fri Feb 01 17:37:43 EST 2013
User: group
Dark Spectrum Present: No
Reference Spectrum Present: No
Number of Sampled Component Spectra: 1
Spectrometers: USB2E7196
Integration Time (usec): 35000 (USB2E7196)
Spectra Averaged: 100 (USB2E7196)
Boxcar Smoothing: 10 (USB2E7196)
Correct for Electrical Dark: No (USB2E7196)
Strobe/Lamp Enabled: No (USB2E7196)
Correct for Detector Non-linearity: No (USB2E7196)
Correct for Stray Light: No (USB2E7196)
Number of Pixels in Processed Spectrum: 2048
>>>>>Begin Processed Spectral Data<<<<<
339.09	0.00
339.48	213.10
339.86	214.57
340.24	215.41
340.63	216.71
341.01	219.89
341.39	219.31
341.78	220.97
342.16	221.88
342.54	222.68
342.93	211.17
343.31	221.87
343.69	222.41
344.07	222.86
344.46	223.30
344.84	223.68
345.22	223.91
345.60	224.18
345.99	224.38
346.37	224.49
346.75	224.59
347.13	224.63
347.52	224.69
347.90	224.77
348.28	224.76
348.66	224.76
349.05	224.71
349.43	224.78
349.81	224.83
350.19	224.85
350.57	224.90
350.96	224.95
351.34	225.00
351.72	225.07
352.10	225.13
352.48	225.17
352.87	225.22
353.25	225.27
353.63	225.33
354.01	225.39
354.39	225.49
354.77	225.59
355.15	225.72
355.54	225.78
355.92	225.80
356.30	225.88
356.68	226.01
357.06	226.12
357.44	226.15
357.82	226.20
358.20	226.29
358.58	226.37
358.97	226.40
359.35	226.46
359.73	226.52
360.11	226.61
360.49	226.68
360.87	226.74
361.25	226.83
361.63	226.91
362.01	226.95
362.39	226.97
362.77	226.99
363.15	226.99
363.53	227.02
363.91	227.06
364.29	227.09
364.67	227.01
365.05	227.03
365.43	227.09
365.81	227.14
366.19	227.19
366.57	227.23
366.95	227.28
367.33	227.28
367.71	227.27
368.09	227.30
368.47	227.31
368.85	227.32
369.23	227.30
369.61	227.27
369.99	227.27
370.37	227.26
370.75	227.27
371.13	227.26
371.51	227.20
371.89	227.20
372.27	227.14
372.65	227.11
373.03	227.08
373.41	227.02
373.78	226.96
374.16	226.90
374.54	226.81
374.92	226.74
375.30	226.69
375.68	226.65
376.06	226.57
376.44	226.49
376.82	226.44
377.19	226.36
377.57	226.28
377.95	226.24
378.33	226.18
378.71	226.07
379.09	226.03
379.47	226.00
379.84	225.92
380.22	225.87
380.60	225.80
380.98	225.74
381.36	225.68
381.73	225.61
382.11	225.55
382.49	225.53
382.87	225.48
383.25	225.42
383.62	225.49
384.00	225.43
384.38	225.40
384.76	225.37
385.13	225.37
385.51	225.36
385.89	225.26
386.27	225.22
386.64	225.20
387.02	225.13
387.40	225.08
387.78	225.07
388.15	225.04
388.53	225.03
388.91	225.00
389.29	224.96
389.66	224.95
390.04	224.94
390.42	224.89
390.79	224.87
391.17	224.88
391.55	224.72
391.92	224.71
392.30	224.72
392.68	224.66
393.05	224.65
393.43	224.63
393.81	224.65
394.18	224.62
394.56	224.65
394.94	224.66
395.31	224.65
395.69	224.70
396.06	224.71
396.44	224.70
396.82	224.70
397.19	224.78
397.57	224.79
397.95	224.85
398.32	224.88
398.70	224.91
399.07	224.95
399.45	224.96
399.82	225.01
400.20	225.02
400.58	225.11
400.95	225.14
401.33	225.17
401.70	225.32
402.08	225.44
402.45	225.52
402.83	225.63
403.20	225.69
403.58	225.75
403.95	225.87
404.33	226.00
404.71	226.13
405.08	226.29
405.46	226.41
405.83	226.49
406.21	226.63
406.58	226.80
406.96	226.95
407.33	227.14
407.70	227.31
408.08	227.59
408.45	227.82
408.83	228.05
409.20	228.28
409.58	228.41
409.95	228.66
410.33	228.90
410.70	229.16
411.08	229.49
411.45	229.80
411.82	230.13
412.20	230.48
412.57	230.90
412.95	231.21
413.32	231.63
413.69	232.09
414.07	232.51
414.44	233.00
414.82	233.48
415.19	234.04
415.56	234.61
415.94	235.19
416.31	235.80
416.68	236.43
417.06	237.20
417.43	237.96
417.81	238.78
418.18	239.62
418.55	240.49
418.93	241.40
419.30	242.33
419.67	243.34
420.04	244.37
420.42	245.40
420.79	246.64
421.16	247.86
421.54	249.08
421.91	250.39
422.28	251.74
422.66	253.16
423.03	254.55
423.40	255.96
423.77	257.42
424.15	258.97
424.52	260.55
424.89	262.23
425.26	263.84
425.64	265.32
426.01	267.02
426.38	268.78
426.75	270.53
427.13	272.34
427.50	274.21
427.87	276.19
428.24	278.15
428.61	279.96
428.99	281.99
429.36	284.16
429.73	286.33
430.10	288.44
430.47	290.60
430.85	292.82
431.22	295.19
431.59	297.66
431.96	300.00
432.33	302.60
432.70	305.11
433.08	308.03
433.45	310.76
433.82	313.43
434.19	316.43
434.56	319.39
434.93	322.16
435.30	324.89
435.68	327.85
436.05	330.79
436.42	333.72
436.79	336.35
437.16	339.20
437.53	342.17
437.90	345.06
438.27	347.93
438.64	350.87
439.01	353.53
439.38	355.91
439.75	358.19
440.13	360.79
440.50	363.18
440.87	365.14
441.24	367.21
441.61	369.48
441.98	371.06
442.35	372.92
442.72	374.85
443.09	376.76
443.46	377.83
443.83	378.46
444.20	379.03
444.57	379.91
444.94	380.28
445.31	380.63
445.68	381.02
446.05	381.14
446.42	380.76
446.79	380.39
447.16	379.93
447.53	379.60
447.90	378.41
448.27	377.22
448.64	375.56
449.01	374.39
449.37	372.36
449.74	370.40
450.11	368.06
450.48	365.54
450.85	362.87
451.22	360.64
451.59	358.53
451.96	356.48
452.33	353.78
452.70	351.26
453.07	348.28
453.43	345.26
453.80	342.32
454.17	339.52
454.54	336.87
454.91	334.04
455.28	331.24
455.65	328.66
456.02	326.15
456.38	323.89
456.75	321.11
457.12	318.75
457.49	316.41
457.86	314.16
458.23	312.20
458.59	310.08
458.96	307.90
459.33	305.95
459.70	304.00
460.07	302.43
460.43	300.66
460.80	298.96
461.17	297.42
461.54	295.86
461.91	294.33
462.27	292.79
462.64	291.49
463.01	290.07
463.38	288.70
463.74	287.26
464.11	286.09
464.48	285.01
464.85	283.89
465.21	282.99
465.58	282.05
465.95	280.89
466.32	279.96
466.68	279.03
467.05	278.08
467.42	277.17
467.78	276.23
468.15	275.29
468.52	274.61
468.88	273.77
469.25	272.98
469.62	272.37
469.98	271.67
470.35	270.99
470.72	270.38
471.08	269.64
471.45	269.08
471.82	268.49
472.18	267.88
472.55	267.41
472.92	266.88
473.28	266.41
473.65	265.95
474.02	265.49
474.38	265.13
474.75	264.84
475.11	264.46
475.48	264.17
475.85	263.95
476.21	263.70
476.58	263.50
476.94	263.36
477.31	263.18
477.67	263.01
478.04	262.90
478.41	262.85
478.77	262.95
479.14	262.85
479.50	262.87
479.87	262.94
480.23	263.01
480.60	263.08
480.96	263.19
481.33	263.40
481.69	263.59
482.06	263.76
482.42	263.97
482.79	264.24
483.15	264.54
483.52	264.94
483.88	265.29
484.25	265.69
484.61	266.08
484.98	266.54
485.34	267.13
485.71	267.72
486.07	268.31
486.44	268.87
486.80	269.60
487.17	270.30
487.53	271.10
487.90	271.99
488.26	272.90
488.62	273.86
488.99	274.83
489.35	275.87
489.72	276.99
490.08	278.15
490.44	279.38
490.81	280.68
491.17	282.01
491.54	283.50
491.90	285.01
492.26	286.66
492.63	288.37
492.99	290.13
493.36	292.04
493.72	294.03
494.08	296.11
494.45	298.31
494.81	300.68
495.17	303.09
495.54	305.59
495.90	308.24
496.26	311.01
496.63	313.92
496.99	317.02
497.35	320.26
497.72	323.61
498.08	327.08
498.44	330.78
498.80	334.68
499.17	338.67
499.53	342.77
499.89	347.06
500.26	351.50
500.62	356.07
500.98	360.93
501.34	365.92
501.71	371.10
502.07	376.51
502.43	382.01
502.79	387.67
503.16	393.63
503.52	399.77
503.88	406.06
504.24	412.58
504.60	419.34
504.97	426.35
505.33	433.52
505.69	441.11
506.05	448.65
506.41	456.34
506.78	464.31
507.14	472.59
507.50	481.14
507.86	489.95
508.22	498.99
508.59	507.97
508.95	517.41
509.31	527.00
509.67	536.83
510.03	546.83
510.39	557.15
510.75	567.64
511.12	578.38
511.48	589.40
511.84	600.62
512.20	611.80
512.56	623.41
512.92	635.30
513.28	647.33
513.64	659.53
514.00	671.94
514.37	684.54
514.73	697.26
515.09	709.83
515.45	722.71
515.81	735.90
516.17	749.43
516.53	763.08
516.89	776.92
517.25	790.59
517.61	804.63
517.97	818.70
518.33	832.71
518.69	846.93
519.05	861.38
519.41	876.05
519.77	891.12
520.13	906.01
520.49	920.97
520.85	935.79
521.21	950.88
521.57	966.58
521.93	981.77
522.29	997.51
522.65	1013.35
523.01	1029.02
523.37	1044.54
523.73	1060.13
524.09	1075.62
524.45	1091.23
524.81	1107.39
525.17	1123.58
525.53	1139.90
525.89	1156.26
526.25	1172.60
526.61	1188.43
526.97	1204.60
527.33	1220.76
527.68	1236.83
528.04	1252.70
528.40	1268.72
528.76	1285.36
529.12	1301.43
529.48	1317.85
529.84	1333.45
530.20	1349.56
530.56	1366.06
530.91	1382.87
531.27	1399.13
531.63	1415.20
531.99	1431.40
532.35	1446.98
532.71	1462.53
533.07	1478.30
533.42	1493.80
533.78	1509.42
534.14	1525.13
534.50	1540.11
534.86	1555.39
535.21	1570.21
535.57	1585.73
535.93	1600.85
536.29	1615.15
536.65	1629.82
537.00	1644.24
537.36	1659.27
537.72	1673.45
538.08	1687.63
538.44	1701.18
538.79	1714.99
539.15	1728.28
539.51	1741.70
539.87	1755.63
540.22	1768.97
540.58	1782.53
540.94	1795.47
541.29	1807.97
541.65	1820.66
542.01	1833.65
542.37	1845.85
542.72	1858.05
543.08	1869.72
543.44	1882.09
543.79	1893.35
544.15	1904.22
544.51	1915.73
544.87	1926.48
545.22	1937.29
545.58	1947.45
545.94	1957.12
546.29	1966.85
546.65	1976.82
547.01	1986.16
547.36	1995.03
547.72	2003.73
548.07	2011.86
548.43	2020.17
548.79	2028.22
549.14	2035.97
549.50	2043.35
549.86	2050.83
550.21	2058.31
550.57	2065.65
550.92	2072.34
551.28	2079.71
551.64	2086.97
551.99	2093.61
552.35	2100.12
552.70	2106.48
553.06	2112.77
553.41	2119.56
553.77	2125.83
554.13	2132.19
554.48	2138.61
554.84	2144.67
555.19	2150.07
555.55	2155.48
555.90	2160.48
556.26	2165.98
556.61	2170.92
556.97	2175.82
557.32	2180.70
557.68	2185.22
558.03	2189.72
558.39	2193.81
558.74	2198.53
559.10	2202.93
559.45	2206.93
559.81	2211.33
560.16	2215.54
560.52	2219.10
560.87	2222.70
561.23	2225.89
561.58	2229.00
561.94	2231.94
562.29	2234.43
562.64	2237.79
563.00	2240.63
563.35	2244.47
563.71	2247.92
564.06	2251.32
564.42	2254.47
564.77	2257.28
565.12	2260.18
565.48	2262.85
565.83	2265.21
566.19	2267.16
566.54	2268.33
566.89	2270.09
567.25	2271.27
567.60	2272.97
567.96	2275.24
568.31	2276.68
568.66	2278.23
569.02	2279.25
569.37	2280.11
569.72	2281.45
570.08	2281.99
570.43	2282.49
570.78	2282.26
571.14	2281.34
571.49	2280.64
571.84	2280.61
572.20	2280.09
572.55	2279.34
572.90	2277.88
573.26	2276.88
573.61	2275.37
573.96	2274.26
574.31	2271.56
574.67	2269.14
575.02	2265.93
575.37	2262.88
575.72	2259.59
576.08	2256.49
576.43	2253.63
576.78	2250.47
577.13	2247.51
577.49	2244.63
577.84	2241.54
578.19	2238.30
578.54	2235.09
578.90	2231.47
579.25	2226.46
579.60	2221.81
579.95	2217.21
580.30	2212.78
580.66	2208.13
581.01	2203.56
581.36	2198.90
581.71	2195.33
582.06	2191.39
582.42	2187.37
582.77	2182.48
583.12	2178.26
583.47	2174.27
583.82	2169.86
584.17	2164.95
584.53	2159.93
584.88	2154.69
585.23	2149.46
585.58	2144.26
585.93	2138.86
586.28	2134.04
586.63	2129.32
586.98	2124.51
587.34	2120.15
587.69	2115.42
588.04	2110.61
588.39	2105.29
588.74	2099.04
589.09	2093.11
589.44	2086.48
589.79	2080.45
590.14	2074.92
590.49	2068.46
590.84	2061.94
591.19	2055.92
591.54	2049.51
591.89	2042.53
592.25	2036.07
592.60	2028.94
592.95	2021.72
593.30	2014.80
593.65	2007.36
594.00	2000.46
594.35	1993.60
594.70	1985.54
595.05	1978.60
595.40	1971.22
595.75	1964.08
596.10	1958.23
596.45	1951.76
596.80	1945.87
597.15	1939.59
597.50	1933.09
597.85	1926.91
598.19	1920.45
598.54	1913.83
598.89	1907.48
599.24	1901.55
599.59	1895.17
599.94	1889.09
600.29	1882.73
600.64	1876.15
600.99	1869.00
601.34	1862.38
601.69	1855.30
602.04	1848.74
602.39	1841.48
602.74	1834.79
603.08	1828.18
603.43	1821.44
603.78	1814.22
604.13	1807.06
604.48	1800.11
604.83	1793.20
605.18	1786.49
605.53	1778.89
605.87	1770.87
606.22	1763.63
606.57	1755.68
606.92	1748.06
607.27	1741.09
607.62	1734.26
607.96	1727.13
608.31	1720.90
608.66	1713.36
609.01	1705.85
609.36	1698.41
609.70	1690.43
610.05	1682.46
610.40	1674.66
610.75	1666.42
611.10	1658.71
611.44	1650.19
611.79	1641.92
612.14	1633.10
612.49	1623.72
612.83	1615.04
613.18	1606.74
613.53	1598.60
613.88	1590.17
614.22	1581.87
614.57	1573.03
614.92	1564.85
615.27	1557.32
615.61	1548.74
615.96	1540.57
616.31	1532.83
616.65	1525.33
617.00	1517.77
617.35	1509.95
617.70	1501.60
618.04	1492.97
618.39	1484.60
618.74	1477.01
619.08	1468.76
619.43	1461.17
619.78	1454.01
620.12	1447.01
620.47	1439.55
620.82	1431.27
621.16	1423.65
621.51	1416.00
621.85	1408.32
622.20	1399.84
622.55	1391.36
622.89	1383.48
623.24	1375.65
623.59	1368.13
623.93	1360.50
624.28	1353.11
624.62	1345.60
624.97	1338.30
625.32	1331.37
625.66	1324.22
626.01	1316.84
626.35	1309.46
626.70	1301.59
627.04	1294.02
627.39	1285.94
627.73	1278.40
628.08	1271.51
628.43	1264.30
628.77	1256.98
629.12	1249.46
629.46	1242.23
629.81	1234.52
630.15	1227.05
630.50	1219.71
630.84	1211.60
631.19	1203.54
631.53	1195.94
631.88	1188.27
632.22	1180.59
632.57	1173.14
632.91	1165.51
633.26	1158.11
633.60	1150.53
633.95	1143.26
634.29	1136.09
634.64	1129.32
634.98	1121.91
635.32	1114.62
635.67	1107.76
636.01	1100.88
636.36	1094.02
636.70	1087.44
637.05	1080.87
637.39	1074.44
637.73	1067.93
638.08	1061.89
638.42	1055.83
638.77	1049.45
639.11	1042.93
639.45	1036.48
639.80	1029.95
640.14	1023.55
640.49	1017.10
640.83	1010.73
641.17	1004.54
641.52	998.19
641.86	991.60
642.20	985.62
642.55	979.09
642.89	972.74
643.23	966.22
643.58	960.38
643.92	954.15
644.26	948.22
644.61	942.08
644.95	935.98
645.29	929.46
645.64	922.70
645.98	916.20
646.32	910.07
646.66	904.10
647.01	898.12
647.35	892.35
647.69	886.40
648.04	880.82
648.38	875.04
648.72	869.06
649.06	863.14
649.41	857.24
649.75	851.46
650.09	845.50
650.43	839.74
650.78	833.56
651.12	827.62
651.46	821.77
651.80	816.14
652.14	810.71
652.49	805.29
652.83	800.11
653.17	794.60
653.51	789.09
653.85	783.60
654.20	778.05
654.54	772.09
654.88	766.29
655.22	760.32
655.56	754.50
655.90	748.97
656.25	743.72
656.59	738.39
656.93	733.30
657.27	728.18
657.61	722.66
657.95	717.58
658.29	712.47
658.64	707.18
658.98	701.70
659.32	696.16
659.66	690.94
660.00	685.66
660.34	680.64
660.68	675.65
661.02	670.62
661.36	665.89
661.70	661.33
662.05	656.98
662.39	652.74
662.73	648.28
663.07	643.84
663.41	639.44
663.75	634.92
664.09	630.33
664.43	625.86
664.77	621.81
665.11	617.57
665.45	613.40
665.79	609.34
666.13	605.26
666.47	601.20
666.81	597.09
667.15	592.90
667.49	588.89
667.83	584.97
668.17	581.02
668.51	576.91
668.85	572.85
669.19	568.90
669.53	565.11
669.87	561.28
670.21	557.56
670.55	553.80
670.89	550.39
671.23	546.94
671.57	543.40
671.91	539.88
672.25	536.30
672.58	532.77
672.92	529.33
673.26	526.12
673.60	522.91
673.94	519.78
674.28	516.91
674.62	514.04
674.96	511.00
675.30	508.09
675.64	505.23
675.97	502.48
676.31	499.61
676.65	496.65
676.99	493.85
677.33	491.00
677.67	488.24
678.01	485.14
678.34	482.18
678.68	479.22
679.02	476.34
679.36	473.50
679.70	470.73
680.04	467.97
680.37	465.15
680.71	462.32
681.05	459.68
681.39	456.94
681.73	454.22
682.06	451.66
682.40	449.11
682.74	446.47
683.08	443.86
683.42	441.23
683.75	438.71
684.09	436.14
684.43	433.61
684.77	431.10
685.10	428.78
685.44	426.38
685.78	424.10
686.12	421.80
686.45	419.51
686.79	417.25
687.13	415.00
687.46	412.79
687.80	410.63
688.14	408.38
688.48	406.28
688.81	404.08
689.15	401.89
689.49	399.67
689.82	397.64
690.16	395.51
690.50	393.53
690.83	391.55
691.17	389.55
691.51	387.65
691.84	385.78
692.18	383.79
692.52	381.87
692.85	379.88
693.19	377.99
693.52	376.15
693.86	374.27
694.20	372.49
694.53	370.68
694.87	368.79
695.21	366.95
695.54	365.06
695.88	363.23
696.21	361.50
696.55	359.83
696.88	358.09
697.22	356.39
697.56	354.71
697.89	353.04
698.23	351.43
698.56	349.78
698.90	348.14
699.23	346.51
699.57	344.93
699.90	343.38
700.24	341.79
700.58	340.21
700.91	338.75
701.25	337.24
701.58	335.86
701.92	334.48
702.25	333.12
702.59	331.76
702.92	330.41
703.26	329.07
703.59	327.73
703.93	326.54
704.26	325.30
704.60	324.04
704.93	322.76
705.26	321.51
705.60	320.33
705.93	319.16
706.27	318.08
706.60	316.97
706.94	315.88
707.27	314.78
707.61	313.73
707.94	312.65
708.27	311.56
708.61	310.45
708.94	309.45
709.28	308.43
709.61	307.44
709.94	306.48
710.28	305.44
710.61	304.44
710.95	303.31
711.28	302.37
711.61	301.43
711.95	300.47
712.28	299.53
712.61	298.56
712.95	297.63
713.28	296.73
713.61	295.83
713.95	294.95
714.28	294.11
714.61	293.27
714.95	292.40
715.28	291.53
715.61	290.66
715.95	289.77
716.28	288.89
716.61	288.05
716.95	287.19
717.28	286.45
717.61	285.68
717.94	284.94
718.28	284.13
718.61	283.37
718.94	282.65
719.27	281.96
719.61	281.27
719.94	280.60
720.27	279.87
720.60	279.18
720.94	278.54
721.27	277.88
721.60	277.26
721.93	276.66
722.27	276.09
722.60	275.51
722.93	274.96
723.26	274.40
723.59	273.85
723.93	273.29
724.26	272.71
724.59	272.09
724.92	271.55
725.25	271.08
725.59	270.53
725.92	269.98
726.25	269.43
726.58	268.92
726.91	268.40
727.24	267.94
727.57	267.49
727.91	266.92
728.24	266.47
728.57	265.98
728.90	265.47
729.23	264.95
729.56	264.50
729.89	264.01
730.22	263.54
730.55	263.02
730.89	262.60
731.22	262.16
731.55	261.76
731.88	261.30
732.21	260.83
732.54	260.44
732.87	260.04
733.20	259.60
733.53	259.19
733.86	258.80
734.19	258.37
734.52	257.95
734.85	257.64
735.18	257.20
735.51	256.82
735.84	256.47
736.17	256.14
736.50	255.72
736.83	255.47
737.16	255.13
737.49	254.84
737.82	254.46
738.15	254.14
738.48	253.78
738.81	253.43
739.14	253.10
739.47	252.78
739.80	252.47
740.13	252.20
740.46	251.91
740.79	251.59
741.12	251.27
741.45	250.95
741.78	250.58
742.11	250.31
742.44	249.97
742.77	249.68
743.10	249.37
743.43	249.10
743.75	248.69
744.08	248.53
744.41	248.23
744.74	247.95
745.07	247.67
745.40	247.44
745.73	247.23
746.06	246.97
746.39	246.68
746.71	246.41
747.04	246.10
747.37	245.82
747.70	245.57
748.03	245.33
748.36	245.14
748.68	244.96
749.01	244.70
749.34	244.50
749.67	244.24
750.00	243.99
750.33	243.80
750.65	243.60
750.98	243.27
751.31	243.07
751.64	242.87
751.97	242.67
752.29	242.44
752.62	242.18
752.95	241.95
753.28	241.72
753.60	241.50
753.93	241.34
754.26	241.16
754.59	240.95
754.91	240.74
755.24	240.47
755.57	240.23
755.90	240.06
756.22	239.86
756.55	239.65
756.88	239.47
757.20	239.23
757.53	239.03
757.86	238.85
758.19	238.68
758.51	238.49
758.84	238.28
759.17	238.06
759.49	237.91
759.82	237.81
760.15	237.66
760.47	237.50
760.80	237.32
761.13	237.17
761.45	236.97
761.78	236.80
762.11	236.69
762.43	236.57
762.76	236.41
763.08	236.28
763.41	236.15
763.74	236.01
764.06	235.82
764.39	235.70
764.71	235.52
765.04	235.40
765.37	235.29
765.69	235.14
766.02	235.00
766.34	234.86
766.67	234.71
767.00	234.63
767.32	234.55
767.65	234.50
767.97	234.33
768.30	234.25
768.62	234.15
768.95	234.05
769.27	233.92
769.60	233.80
769.92	233.69
770.25	233.55
770.57	233.41
770.90	233.37
771.22	233.26
771.55	233.18
771.87	233.08
772.20	232.97
772.52	232.97
772.85	233.02
773.17	232.93
773.50	232.83
773.82	232.72
774.15	232.59
774.47	232.42
774.80	232.35
775.12	232.26
775.45	232.17
775.77	232.05
776.09	232.01
776.42	231.91
776.74	231.85
777.07	231.76
777.39	231.72
777.72	231.64
778.04	231.58
778.36	231.50
778.69	231.41
779.01	231.36
779.33	231.24
779.66	231.08
779.98	231.03
780.31	230.98
780.63	230.96
780.95	230.88
781.28	230.83
781.60	230.76
781.92	230.73
782.25	230.69
782.57	230.65
782.89	230.54
783.22	230.49
783.54	230.40
783.86	230.40
784.19	230.35
784.51	230.31
784.83	230.24
785.16	230.18
785.48	230.15
785.80	230.09
786.12	230.03
786.45	229.99
786.77	229.94
787.09	229.86
787.42	229.76
787.74	229.75
788.06	229.74
788.38	229.70
788.71	229.63
789.03	229.58
789.35	229.56
789.67	229.54
789.99	229.56
790.32	229.49
790.64	229.47
790.96	229.51
791.28	229.42
791.61	229.38
791.93	229.38
792.25	229.36
792.57	229.40
792.89	229.35
793.21	229.33
793.54	229.26
793.86	229.22
794.18	229.18
794.50	229.13
794.82	229.03
795.14	229.00
795.47	229.00
795.79	228.96
796.11	228.89
796.43	228.85
796.75	228.79
797.07	228.78
797.39	228.71
797.71	228.60
798.04	228.58
798.36	228.55
798.68	228.47
799.00	228.41
799.32	228.29
799.64	228.27
799.96	228.22
800.28	228.22
800.60	228.20
800.92	228.18
801.24	228.09
801.56	228.09
801.89	228.03
802.21	228.01
802.53	227.98
802.85	227.95
803.17	227.96
803.49	227.87
803.81	227.79
804.13	227.75
804.45	227.70
804.77	227.67
805.09	227.64
805.41	227.56
805.73	227.53
806.05	227.49
806.37	227.43
806.69	227.39
807.01	227.36
807.33	227.36
807.65	227.32
807.97	227.37
808.28	227.34
808.60	227.32
808.92	227.20
809.24	227.21
809.56	227.17
809.88	227.10
810.20	227.06
810.52	227.08
810.84	227.04
811.16	226.99
811.48	226.95
811.80	226.93
812.12	226.94
812.43	226.89
812.75	226.89
813.07	226.87
813.39	226.84
813.71	226.76
814.03	226.70
814.35	226.67
814.67	226.60
814.98	226.57
815.30	226.55
815.62	226.57
815.94	226.47
816.26	226.50
816.58	226.43
816.89	226.46
817.21	226.42
817.53	226.41
817.85	226.42
818.17	226.41
818.48	226.41
818.80	226.40
819.12	226.39
819.44	226.34
819.76	226.28
820.07	226.25
820.39	226.22
820.71	226.20
821.03	226.19
821.34	226.16
821.66	226.17
821.98	226.18
822.30	226.13
822.61	226.18
822.93	226.13
823.25	226.15
823.57	226.12
823.88	226.15
824.20	226.14
824.52	226.14
824.83	226.12
825.15	226.09
825.47	226.07
825.79	226.04
826.10	226.00
826.42	226.02
826.74	226.02
827.05	226.06
827.37	226.06
827.69	226.02
828.00	226.02
828.32	225.96
828.64	225.93
828.95	226.00
829.27	225.99
829.58	225.99
829.90	225.99
830.22	226.00
830.53	225.97
830.85	225.97
831.17	225.94
831.48	225.93
831.80	225.92
832.11	225.94
832.43	225.95
832.75	225.98
833.06	226.03
833.38	226.01
833.69	226.03
834.01	226.01
834.32	226.04
834.64	226.04
834.96	226.05
835.27	226.07
835.59	226.02
835.90	225.99
836.22	225.95
836.53	225.94
836.85	225.92
837.16	226.02
837.48	226.03
837.79	226.05
838.11	226.08
838.42	226.08
838.74	226.08
839.05	226.08
839.37	226.06
839.68	225.99
840.00	226.00
840.31	225.98
840.63	225.97
840.94	225.96
841.26	225.91
841.57	225.91
841.88	225.94
842.20	225.94
842.51	225.90
842.83	225.91
843.14	225.97
843.46	225.95
843.77	225.87
844.08	225.83
844.40	225.78
844.71	225.74
845.03	225.72
845.34	225.68
845.65	225.63
845.97	225.65
846.28	225.65
846.60	225.64
846.91	225.62
847.22	225.62
847.54	225.63
847.85	225.66
848.16	225.64
848.48	225.60
848.79	225.64
849.10	225.68
849.42	225.66
849.73	225.57
850.04	225.57
850.36	225.54
850.67	225.55
850.98	225.55
851.30	225.54
851.61	225.54
851.92	225.53
852.23	225.58
852.55	225.57
852.86	225.58
853.17	225.57
853.49	225.58
853.80	225.61
854.11	225.61
854.42	225.63
854.74	225.62
855.05	225.59
855.36	225.50
855.67	225.49
855.99	225.53
856.30	225.62
856.61	225.64
856.92	225.61
857.23	225.59
857.55	225.58
857.86	225.55
858.17	225.54
858.48	225.56
858.79	225.50
859.11	225.48
859.42	225.46
859.73	225.43
860.04	225.41
860.35	225.34
860.66	225.30
860.98	225.27
861.29	225.26
861.60	225.25
861.91	225.28
862.22	225.25
862.53	225.19
862.84	225.08
863.16	225.09
863.47	225.08
863.78	225.10
864.09	225.12
864.40	225.13
864.71	225.13
865.02	225.16
865.33	225.16
865.64	225.14
865.95	225.12
866.27	225.16
866.58	225.12
866.89	225.14
867.20	225.11
867.51	225.13
867.82	225.11
868.13	225.16
868.44	225.13
868.75	225.17
869.06	225.18
869.37	225.21
869.68	225.16
869.99	225.16
870.30	225.11
870.61	225.11
870.92	225.09
871.23	225.07
871.54	225.04
871.85	225.05
872.16	225.08
872.47	225.10
872.78	225.05
873.09	225.09
873.40	225.08
873.71	225.11
874.02	225.10
874.33	225.09
874.64	225.07
874.95	225.08
875.26	225.05
875.56	225.05
875.87	225.05
876.18	225.06
876.49	225.15
876.80	225.17
877.11	225.14
877.42	225.15
877.73	225.17
878.04	225.16
878.35	225.18
878.66	225.18
878.96	225.19
879.27	225.20
879.58	225.18
879.89	225.17
880.20	225.19
880.51	225.17
880.82	225.15
881.12	225.16
881.43	225.14
881.74	225.13
882.05	225.13
882.36	225.10
882.67	225.13
882.97	225.02
883.28	225.03
883.59	225.05
883.90	225.06
884.21	225.09
884.51	225.12
884.82	225.10
885.13	225.09
885.44	225.07
885.74	225.09
886.05	225.09
886.36	225.09
886.67	225.09
886.98	225.12
887.28	225.16
887.59	225.18
887.90	225.18
888.20	225.16
888.51	225.17
888.82	225.16
889.13	225.17
889.43	225.27
889.74	225.26
890.05	225.24
890.35	225.24
890.66	225.22
890.97	225.18
891.28	225.17
891.58	225.17
891.89	225.17
892.20	225.14
892.50	225.10
892.81	225.12
893.12	225.09
893.42	225.06
893.73	225.05
894.04	225.03
894.34	225.02
894.65	225.01
894.95	224.98
895.26	225.01
895.57	225.02
895.87	224.92
896.18	224.94
896.48	224.95
896.79	224.90
897.10	224.91
897.40	224.92
897.71	224.93
898.01	224.96
898.32	224.99
898.63	225.00
898.93	225.06
899.24	225.07
899.54	225.08
899.85	225.09
900.15	225.10
900.46	225.09
900.76	225.10
901.07	225.12
901.38	225.14
901.68	225.13
901.99	225.06
902.29	225.08
902.60	225.06
902.90	225.05
903.21	225.08
903.51	225.04
903.82	225.05
904.12	225.03
904.43	225.01
904.73	224.98
905.03	224.97
905.34	225.04
905.64	225.01
905.95	224.98
906.25	224.94
906.56	224.89
906.86	224.89
907.17	224.90
907.47	224.90
907.77	224.90
908.08	224.86
908.38	224.87
908.69	224.85
908.99	224.86
909.30	224.85
909.60	224.84
909.90	224.83
910.21	224.81
910.51	224.80
910.81	224.78
911.12	224.80
911.42	224.82
911.73	224.71
912.03	224.71
912.33	224.73
912.64	224.74
912.94	224.76
913.24	224.74
913.55	224.72
913.85	224.70
914.15	224.71
914.46	224.71
914.76	224.70
915.06	224.75
915.37	224.71
915.67	224.73
915.97	224.76
916.27	224.73
916.58	224.78
916.88	224.78
917.18	224.74
917.49	224.79
917.79	224.77
918.09	224.78
918.39	224.80
918.70	224.81
919.00	224.83
919.30	224.89
919.60	224.92
919.91	224.89
920.21	224.91
920.51	224.89
920.81	224.92
921.12	224.94
921.42	224.89
921.72	224.93
922.02	224.95
922.32	224.93
922.63	224.96
922.93	224.97
923.23	225.00
923.53	225.00
923.83	224.90
924.13	224.94
924.44	224.94
924.74	224.97
925.04	224.97
925.34	224.97
925.64	224.95
925.94	224.94
926.24	224.99
926.55	224.97
926.85	224.97
927.15	224.96
927.45	224.97
927.75	224.96
928.05	224.94
928.35	224.92
928.65	224.93
928.95	224.94
929.26	224.90
929.56	224.92
929.86	224.94
930.16	224.97
930.46	224.94
930.76	224.95
931.06	224.88
931.36	224.86
931.66	224.87
931.96	224.86
932.26	224.83
932.56	224.82
932.86	224.82
933.16	224.87
933.46	224.86
933.76	224.84
934.06	224.90
934.36	224.93
934.66	224.91
934.96	224.91
935.26	224.92
935.56	224.95
935.86	224.92
936.16	224.95
936.46	224.95
936.76	224.96
937.06	224.97
937.36	225.00
937.66	224.97
937.96	224.98
938.26	224.98
938.56	224.99
938.86	225.02
939.16	225.03
939.46	225.04
939.76	225.07
940.06	225.07
940.35	225.04
940.65	225.00
940.95	225.00
941.25	225.01
941.55	224.98
941.85	224.99
942.15	225.04
942.45	225.03
942.75	224.99
943.04	224.98
943.34	224.97
943.64	224.96
943.94	224.99
944.24	224.95
944.54	224.95
944.84	224.95
945.13	224.92
945.43	224.94
945.73	224.90
946.03	224.91
946.33	224.87
946.62	224.88
946.92	224.90
947.22	224.92
947.52	224.94
947.82	224.92
948.11	224.85
948.41	224.80
948.71	224.79
949.01	224.82
949.31	224.82
949.60	224.80
949.90	224.83
950.20	224.78
950.50	224.77
950.79	224.77
951.09	224.78
951.39	224.77
951.69	224.74
951.98	224.76
952.28	224.72
952.58	224.71
952.87	224.69
953.17	224.69
953.47	224.66
953.76	224.65
954.06	224.65
954.36	224.67
954.66	224.66
954.95	224.68
955.25	224.68
955.55	224.68
955.84	224.64
956.14	224.66
956.44	224.69
956.73	224.69
957.03	224.66
957.32	224.68
957.62	224.67
957.92	224.71
958.21	224.70
958.51	224.82
958.81	224.85
959.10	224.83
959.40	224.84
959.69	224.84
959.99	224.81
960.29	224.83
960.58	224.80
960.88	224.82
961.17	224.79
961.47	224.81
961.76	224.79
962.06	224.84
962.36	224.83
962.65	224.84
962.95	224.85
963.24	224.85
963.54	224.84
963.83	224.83
964.13	224.79
964.42	224.75
964.72	224.71
965.01	224.71
965.31	224.72
965.60	224.71
965.90	224.75
966.19	224.76
966.49	224.80
966.78	224.82
967.08	224.82
967.37	224.85
967.67	224.79
967.96	224.83
968.26	224.83
968.55	224.79
968.85	224.79
969.14	224.80
969.43	224.77
969.73	224.77
970.02	224.78
970.32	224.79
970.61	224.83
970.91	224.79
971.20	224.80
971.49	224.79
971.79	224.79
972.08	224.77
972.38	224.77
972.67	224.72
972.96	224.76
973.26	224.74
973.55	224.77
973.85	224.79
974.14	224.76
974.43	224.78
974.73	224.80
975.02	224.78
975.31	224.78
975.61	224.79
975.90	224.75
976.19	224.77
976.49	224.79
976.78	224.78
977.07	224.77
977.37	224.78
977.66	224.81
977.95	224.84
978.24	224.81
978.54	224.84
978.83	224.85
979.12	224.83
979.42	224.86
979.71	224.84
980.00	224.87
980.29	224.91
980.59	224.89
980.88	224.95
981.17	224.95
981.46	224.97
981.76	224.97
982.05	225.02
982.34	225.03
982.63	225.02
982.93	225.03
983.22	225.03
983.51	225.03
983.80	225.05
984.09	225.03
984.39	225.03
984.68	224.99
984.97	224.97
985.26	224.96
985.55	224.94
985.85	224.92
986.14	224.91
986.43	224.91
986.72	224.91
987.01	224.83
987.30	224.82
987.59	224.79
987.89	224.81
988.18	224.78
988.47	224.71
988.76	224.69
989.05	224.67
989.34	224.65
989.63	224.66
989.92	224.61
990.22	224.60
990.51	224.59
990.80	224.59
991.09	224.60
991.38	224.63
991.67	224.58
991.96	224.56
992.25	224.54
992.54	224.49
992.83	224.47
993.12	224.48
993.41	224.48
993.70	224.51
993.99	224.55
994.28	224.53
994.58	224.60
994.87	224.61
995.16	224.59
995.45	224.60
995.74	224.56
996.03	224.57
996.32	224.59
996.61	224.61
996.90	224.62
997.19	224.62
997.48	224.60
997.77	224.63
998.06	224.63
998.34	224.62
998.63	224.65
998.92	224.66
999.21	224.66
999.50	224.65
999.79	224.64
1000.08	224.60
1000.37	224.58
1000.66	224.53
1000.95	224.53
1001.24	224.55
1001.53	224.59
1001.82	224.56
1002.11	224.54
1002.40	224.56
1002.68	224.56
1002.97	224.62
1003.26	224.62
1003.55	224.60
1003.84	224.60
1004.13	224.66
1004.42	224.65
1004.71	224.62
1004.99	224.59
1005.28	224.63
1005.57	224.65
1005.86	224.64
1006.15	224.65
1006.44	224.65
1006.72	224.66
1007.01	224.66
1007.30	224.67
1007.59	224.63
1007.88	224.69
1008.17	224.69
1008.45	224.64
1008.74	224.61
1009.03	224.55
1009.32	224.55
1009.60	224.56
1009.89	224.57
1010.18	224.53
1010.47	224.54
1010.76	224.55
1011.04	224.56
1011.33	224.57
1011.62	224.57
1011.91	224.58
1012.19	224.58
1012.48	224.63
1012.77	224.66
1013.05	224.68
1013.34	224.68
1013.63	224.74
1013.92	224.73
1014.20	224.71
1014.49	224.77
1014.78	224.78
1015.06	224.76
1015.35	224.77
1015.64	224.78
1015.92	224.80
1016.21	224.81
1016.50	224.82
1016.78	224.82
1017.07	224.85
1017.36	224.86
1017.64	224.85
1017.93	224.86
1018.22	224.84
1018.50	224.82
1018.79	224.81
1019.08	224.79
1019.36	224.80
1019.65	224.75
1019.93	224.77
1020.22	224.83
1020.51	224.86
1020.79	224.85
1021.08	224.34
1021.36	224.56
1021.65	224.57
1021.94	224.89
1022.22	225.01
1022.51	224.65
1022.79	225.37
1023.08	225.31
1023.36	225.95
1023.65	224.38
>>>>>End Processed Spectral Data<<<<<
