SpectraSuite Data File
++++++++++++++++++++++++++++++++++++
Date: Fri Feb 01 17:20:03 EST 2013
User: group
Dark Spectrum Present: No
Reference Spectrum Present: No
Number of Sampled Component Spectra: 1
Spectrometers: USB2E7196
Integration Time (usec): 35000 (USB2E7196)
Spectra Averaged: 100 (USB2E7196)
Boxcar Smoothing: 10 (USB2E7196)
Correct for Electrical Dark: No (USB2E7196)
Strobe/Lamp Enabled: No (USB2E7196)
Correct for Detector Non-linearity: No (USB2E7196)
Correct for Stray Light: No (USB2E7196)
Number of Pixels in Processed Spectrum: 2048
>>>>>Begin Processed Spectral Data<<<<<
339.09	0.00
339.48	212.94
339.86	214.17
340.24	215.76
340.63	216.52
341.01	219.80
341.39	219.41
341.78	221.07
342.16	222.07
342.54	222.79
342.93	211.21
343.31	221.94
343.69	222.48
344.07	222.96
344.46	223.41
344.84	223.82
345.22	224.06
345.60	224.34
345.99	224.55
346.37	224.70
346.75	224.81
347.13	224.92
347.52	224.96
347.90	225.02
348.28	225.06
348.66	225.16
349.05	225.14
349.43	225.20
349.81	225.24
350.19	225.26
350.57	225.34
350.96	225.43
351.34	225.50
351.72	225.60
352.10	225.70
352.48	225.76
352.87	225.84
353.25	225.92
353.63	225.99
354.01	226.07
354.39	226.16
354.77	226.23
355.15	226.32
355.54	226.40
355.92	226.48
356.30	226.56
356.68	226.68
357.06	226.76
357.44	226.80
357.82	226.85
358.20	226.93
358.58	227.02
358.97	227.09
359.35	227.17
359.73	227.26
360.11	227.33
360.49	227.39
360.87	227.43
361.25	227.49
361.63	227.60
362.01	227.65
362.39	227.68
362.77	227.75
363.15	227.74
363.53	227.81
363.91	227.81
364.29	227.84
364.67	227.76
365.05	227.77
365.43	227.77
365.81	227.82
366.19	227.89
366.57	227.94
366.95	227.92
367.33	227.87
367.71	227.83
368.09	227.82
368.47	227.81
368.85	227.79
369.23	227.79
369.61	227.70
369.99	227.68
370.37	227.65
370.75	227.65
371.13	227.61
371.51	227.57
371.89	227.55
372.27	227.49
372.65	227.47
373.03	227.47
373.41	227.40
373.78	227.31
374.16	227.20
374.54	227.07
374.92	227.01
375.30	226.95
375.68	226.87
376.06	226.83
376.44	226.75
376.82	226.69
377.19	226.61
377.57	226.55
377.95	226.44
378.33	226.36
378.71	226.23
379.09	226.21
379.47	226.15
379.84	226.08
380.22	226.01
380.60	225.91
380.98	225.82
381.36	225.76
381.73	225.68
382.11	225.63
382.49	225.59
382.87	225.54
383.25	225.49
383.62	225.55
384.00	225.46
384.38	225.42
384.76	225.40
385.13	225.37
385.51	225.27
385.89	225.21
386.27	225.15
386.64	225.12
387.02	225.04
387.40	224.98
387.78	224.96
388.15	224.95
388.53	224.93
388.91	224.90
389.29	224.85
389.66	224.87
390.04	224.82
390.42	224.82
390.79	224.78
391.17	224.76
391.55	224.63
391.92	224.64
392.30	224.61
392.68	224.57
393.05	224.57
393.43	224.61
393.81	224.67
394.18	224.67
394.56	224.69
394.94	224.77
395.31	224.75
395.69	224.77
396.06	224.79
396.44	224.81
396.82	224.82
397.19	224.94
397.57	224.97
397.95	225.05
398.32	225.09
398.70	225.18
399.07	225.23
399.45	225.31
399.82	225.33
400.20	225.39
400.58	225.45
400.95	225.49
401.33	225.56
401.70	225.66
402.08	225.76
402.45	225.84
402.83	225.91
403.20	226.03
403.58	226.14
403.95	226.28
404.33	226.42
404.71	226.53
405.08	226.69
405.46	226.84
405.83	226.96
406.21	227.10
406.58	227.25
406.96	227.42
407.33	227.61
407.70	227.82
408.08	228.14
408.45	228.38
408.83	228.64
409.20	228.89
409.58	229.09
409.95	229.37
410.33	229.65
410.70	229.91
411.08	230.20
411.45	230.50
411.82	230.78
412.20	231.13
412.57	231.57
412.95	231.88
413.32	232.26
413.69	232.66
414.07	233.11
414.44	233.57
414.82	234.05
415.19	234.57
415.56	235.11
415.94	235.62
416.31	236.27
416.68	236.90
417.06	237.59
417.43	238.29
417.81	239.04
418.18	239.85
418.55	240.74
418.93	241.66
419.30	242.58
419.67	243.55
420.04	244.51
420.42	245.53
420.79	246.74
421.16	247.92
421.54	249.17
421.91	250.40
422.28	251.73
422.66	253.10
423.03	254.51
423.40	255.93
423.77	257.45
424.15	258.94
424.52	260.48
424.89	262.18
425.26	263.77
425.64	265.29
426.01	266.89
426.38	268.57
426.75	270.29
427.13	272.12
427.50	273.98
427.87	275.93
428.24	277.82
428.61	279.63
428.99	281.67
429.36	283.84
429.73	285.99
430.10	288.07
430.47	290.21
430.85	292.38
431.22	294.65
431.59	297.03
431.96	299.30
432.33	301.86
432.70	304.29
433.08	307.20
433.45	309.90
433.82	312.62
434.19	315.60
434.56	318.50
434.93	321.20
435.30	323.87
435.68	326.86
436.05	329.81
436.42	332.69
436.79	335.25
437.16	338.01
437.53	340.90
437.90	343.79
438.27	346.60
438.64	349.43
439.01	352.14
439.38	354.46
439.75	356.68
440.13	359.24
440.50	361.64
440.87	363.54
441.24	365.52
441.61	367.76
441.98	369.32
442.35	371.18
442.72	373.11
443.09	375.06
443.46	376.09
443.83	376.67
444.20	377.19
444.57	378.08
444.94	378.44
445.31	378.83
445.68	379.23
446.05	379.29
446.42	378.92
446.79	378.49
447.16	378.04
447.53	377.78
447.90	376.61
448.27	375.44
448.64	373.86
449.01	372.74
449.37	370.70
449.74	368.75
450.11	366.39
450.48	363.88
450.85	361.25
451.22	359.07
451.59	357.04
451.96	355.07
452.33	352.37
452.70	349.94
453.07	347.00
453.43	343.97
453.80	341.14
454.17	338.41
454.54	335.81
454.91	333.04
455.28	330.29
455.65	327.71
456.02	325.15
456.38	322.87
456.75	320.10
457.12	317.77
457.49	315.46
457.86	313.24
458.23	311.27
458.59	309.13
458.96	306.96
459.33	305.02
459.70	303.04
460.07	301.52
460.43	299.71
460.80	298.03
461.17	296.58
461.54	295.04
461.91	293.56
462.27	292.04
462.64	290.70
463.01	289.29
463.38	287.94
463.74	286.57
464.11	285.37
464.48	284.33
464.85	283.22
465.21	282.34
465.58	281.38
465.95	280.26
466.32	279.35
466.68	278.43
467.05	277.48
467.42	276.54
467.78	275.60
468.15	274.66
468.52	274.03
468.88	273.20
469.25	272.40
469.62	271.77
469.98	271.07
470.35	270.41
470.72	269.79
471.08	269.12
471.45	268.55
471.82	268.01
472.18	267.42
472.55	266.97
472.92	266.41
473.28	265.97
473.65	265.53
474.02	265.10
474.38	264.72
474.75	264.43
475.11	264.12
475.48	263.84
475.85	263.65
476.21	263.39
476.58	263.14
476.94	262.99
477.31	262.82
477.67	262.68
478.04	262.60
478.41	262.52
478.77	262.59
479.14	262.55
479.50	262.58
479.87	262.65
480.23	262.73
480.60	262.82
480.96	262.88
481.33	263.09
481.69	263.26
482.06	263.43
482.42	263.63
482.79	263.90
483.15	264.22
483.52	264.59
483.88	264.91
484.25	265.29
484.61	265.70
484.98	266.15
485.34	266.72
485.71	267.33
486.07	267.97
486.44	268.53
486.80	269.23
487.17	269.95
487.53	270.74
487.90	271.57
488.26	272.51
488.62	273.51
488.99	274.50
489.35	275.54
489.72	276.68
490.08	277.88
490.44	279.12
490.81	280.47
491.17	281.82
491.54	283.29
491.90	284.86
492.26	286.53
492.63	288.29
492.99	290.03
493.36	291.87
493.72	293.87
494.08	295.95
494.45	298.17
494.81	300.53
495.17	302.96
495.54	305.52
495.90	308.17
496.26	310.98
496.63	313.89
496.99	317.02
497.35	320.26
497.72	323.58
498.08	327.08
498.44	330.67
498.80	334.58
499.17	338.63
499.53	342.77
499.89	347.08
500.26	351.54
500.62	356.17
500.98	361.12
501.34	366.21
501.71	371.51
502.07	376.86
502.43	382.41
502.79	388.15
503.16	394.17
503.52	400.40
503.88	406.71
504.24	413.32
504.60	420.08
504.97	427.18
505.33	434.44
505.69	442.09
506.05	449.82
506.41	457.58
506.78	465.58
507.14	473.93
507.50	482.53
507.86	491.39
508.22	500.52
508.59	509.64
508.95	519.11
509.31	528.83
509.67	538.84
510.03	549.01
510.39	559.46
510.75	570.07
511.12	580.86
511.48	592.03
511.84	603.27
512.20	614.63
512.56	626.27
512.92	638.23
513.28	650.36
513.64	662.69
514.00	675.13
514.37	687.81
514.73	700.67
515.09	713.44
515.45	726.49
515.81	739.73
516.17	753.38
516.53	767.15
516.89	780.96
517.25	794.81
517.61	808.89
517.97	823.13
518.33	837.24
518.69	851.64
519.05	866.25
519.41	881.16
519.77	896.35
520.13	911.51
520.49	926.59
520.85	941.53
521.21	956.78
521.57	972.74
521.93	988.25
522.29	1004.08
522.65	1019.97
523.01	1035.77
523.37	1051.52
523.73	1067.36
524.09	1083.02
524.45	1098.93
524.81	1115.24
525.17	1131.53
525.53	1147.90
525.89	1164.47
526.25	1181.00
526.61	1196.99
526.97	1213.32
527.33	1229.41
527.68	1245.59
528.04	1261.72
528.40	1278.04
528.76	1294.72
529.12	1310.94
529.48	1327.50
529.84	1343.33
530.20	1359.61
530.56	1376.32
530.91	1393.38
531.27	1409.87
531.63	1426.05
531.99	1442.14
532.35	1457.85
532.71	1473.63
533.07	1489.63
533.42	1505.27
533.78	1521.03
534.14	1537.04
534.50	1552.17
534.86	1567.76
535.21	1582.88
535.57	1598.46
535.93	1613.62
536.29	1628.18
536.65	1642.91
537.00	1657.36
537.36	1672.41
537.72	1686.66
538.08	1700.94
538.44	1714.48
538.79	1728.11
539.15	1741.43
539.51	1755.12
539.87	1769.34
540.22	1782.81
540.58	1796.32
540.94	1809.36
541.29	1822.02
541.65	1834.58
542.01	1847.60
542.37	1859.88
542.72	1872.09
543.08	1883.93
543.44	1896.31
543.79	1907.61
544.15	1918.59
544.51	1930.21
544.87	1941.04
545.22	1951.94
545.58	1962.17
545.94	1972.04
546.29	1981.92
546.65	1992.09
547.01	2001.64
547.36	2010.27
547.72	2018.89
548.07	2027.08
548.43	2035.26
548.79	2043.33
549.14	2051.04
549.50	2058.51
549.86	2066.24
550.21	2073.66
550.57	2080.96
550.92	2087.68
551.28	2094.91
551.64	2102.07
551.99	2108.72
552.35	2115.29
552.70	2121.55
553.06	2127.69
553.41	2134.31
553.77	2140.51
554.13	2146.57
554.48	2152.68
554.84	2158.56
555.19	2163.98
555.55	2169.27
555.90	2174.18
556.26	2179.52
556.61	2184.50
556.97	2189.14
557.32	2193.61
557.68	2198.07
558.03	2202.57
558.39	2206.51
558.74	2211.29
559.10	2215.64
559.45	2219.57
559.81	2224.08
560.16	2228.24
560.52	2231.74
560.87	2235.28
561.23	2238.15
561.58	2241.48
561.94	2244.59
562.29	2247.08
562.64	2250.31
563.00	2253.16
563.35	2256.90
563.71	2260.16
564.06	2263.59
564.42	2266.74
564.77	2269.67
565.12	2272.50
565.48	2274.80
565.83	2277.15
566.19	2279.00
566.54	2280.11
566.89	2281.70
567.25	2282.67
567.60	2284.38
567.96	2286.51
568.31	2287.77
568.66	2289.49
569.02	2290.41
569.37	2290.94
569.72	2292.28
570.08	2292.79
570.43	2293.26
570.78	2293.21
571.14	2292.09
571.49	2291.14
571.84	2291.08
572.20	2290.33
572.55	2289.27
572.90	2288.00
573.26	2287.06
573.61	2285.51
573.96	2284.31
574.31	2281.60
574.67	2279.01
575.02	2275.77
575.37	2272.70
575.72	2269.34
576.08	2266.00
576.43	2262.99
576.78	2259.89
577.13	2256.95
577.49	2253.98
577.84	2250.76
578.19	2247.20
578.54	2243.98
578.90	2240.14
579.25	2234.99
579.60	2230.28
579.95	2225.85
580.30	2221.10
580.66	2216.08
581.01	2211.48
581.36	2206.75
581.71	2203.01
582.06	2198.76
582.42	2194.55
582.77	2189.62
583.12	2185.31
583.47	2181.23
583.82	2176.58
584.17	2171.44
584.53	2166.18
584.88	2160.84
585.23	2155.41
585.58	2150.08
585.93	2144.84
586.28	2140.15
586.63	2135.51
586.98	2130.58
587.34	2125.91
587.69	2121.24
588.04	2116.29
588.39	2110.92
588.74	2104.62
589.09	2098.53
589.44	2092.09
589.79	2086.21
590.14	2080.75
590.49	2074.35
590.84	2067.90
591.19	2062.21
591.54	2055.83
591.89	2048.91
592.25	2042.45
592.60	2035.45
592.95	2028.33
593.30	2021.15
593.65	2013.77
594.00	2006.76
594.35	1999.76
594.70	1991.91
595.05	1985.00
595.40	1977.88
595.75	1970.38
596.10	1964.39
596.45	1957.96
596.80	1951.74
597.15	1945.36
597.50	1938.49
597.85	1932.06
598.19	1925.72
598.54	1918.62
598.89	1912.26
599.24	1906.36
599.59	1899.88
599.94	1893.65
600.29	1887.23
600.64	1880.79
600.99	1873.46
601.34	1866.63
601.69	1859.61
602.04	1852.86
602.39	1845.45
602.74	1838.66
603.08	1832.03
603.43	1825.20
603.78	1817.79
604.13	1810.71
604.48	1803.45
604.83	1796.52
605.18	1789.77
605.53	1781.76
605.87	1773.75
606.22	1766.44
606.57	1758.41
606.92	1750.76
607.27	1743.72
607.62	1736.93
607.96	1729.67
608.31	1723.22
608.66	1715.61
609.01	1708.19
609.36	1700.68
609.70	1692.66
610.05	1684.67
610.40	1676.93
610.75	1668.74
611.10	1661.12
611.44	1652.55
611.79	1644.47
612.14	1635.82
612.49	1626.56
612.83	1618.00
613.18	1609.83
613.53	1601.59
613.88	1593.10
614.22	1584.80
614.57	1575.99
614.92	1567.81
615.27	1560.14
615.61	1551.72
615.96	1543.72
616.31	1535.95
616.65	1528.39
617.00	1520.85
617.35	1512.95
617.70	1504.58
618.04	1496.01
618.39	1487.56
618.74	1480.05
619.08	1471.54
619.43	1463.91
619.78	1456.87
620.12	1449.72
620.47	1442.09
620.82	1433.85
621.16	1426.03
621.51	1418.26
621.85	1410.55
622.20	1401.88
622.55	1393.45
622.89	1385.56
623.24	1377.76
623.59	1370.14
623.93	1362.50
624.28	1355.08
624.62	1347.51
624.97	1340.13
625.32	1333.15
625.66	1326.08
626.01	1318.80
626.35	1311.52
626.70	1303.63
627.04	1295.91
627.39	1288.02
627.73	1280.51
628.08	1273.53
628.43	1266.33
628.77	1259.05
629.12	1251.53
629.46	1244.32
629.81	1236.75
630.15	1229.31
630.50	1221.84
630.84	1213.72
631.19	1205.71
631.53	1198.16
631.88	1190.47
632.22	1182.90
632.57	1175.59
632.91	1167.93
633.26	1160.48
633.60	1152.83
633.95	1145.49
634.29	1138.25
634.64	1131.45
634.98	1124.08
635.32	1116.79
635.67	1110.14
636.01	1103.33
636.36	1096.46
636.70	1089.83
637.05	1083.16
637.39	1076.64
637.73	1070.11
638.08	1064.03
638.42	1057.94
638.77	1051.42
639.11	1044.86
639.45	1038.43
639.80	1031.71
640.14	1025.41
640.49	1018.82
640.83	1012.51
641.17	1006.34
641.52	999.95
641.86	993.42
642.20	987.50
642.55	981.03
642.89	974.47
643.23	967.82
643.58	961.95
643.92	955.77
644.26	949.69
644.61	943.49
644.95	937.37
645.29	930.90
645.64	924.16
645.98	917.79
646.32	911.82
646.66	905.68
647.01	899.78
647.35	893.95
647.69	887.88
648.04	882.27
648.38	876.36
648.72	870.50
649.06	864.43
649.41	858.53
649.75	852.66
650.09	846.67
650.43	840.94
650.78	834.76
651.12	828.73
651.46	823.00
651.80	817.34
652.14	811.88
652.49	806.44
652.83	801.22
653.17	795.60
653.51	789.87
653.85	784.44
654.20	778.89
654.54	772.82
654.88	767.09
655.22	761.14
655.56	755.46
655.90	749.84
656.25	744.59
656.59	739.18
656.93	734.03
657.27	728.93
657.61	723.41
657.95	718.25
658.29	713.17
658.64	707.81
658.98	702.42
659.32	696.92
659.66	691.58
660.00	686.33
660.34	681.26
660.68	676.31
661.02	671.18
661.36	666.39
661.70	661.87
662.05	657.51
662.39	653.19
662.73	648.70
663.07	644.30
663.41	639.87
663.75	635.30
664.09	630.73
664.43	626.26
664.77	622.16
665.11	617.89
665.45	613.72
665.79	609.62
666.13	605.50
666.47	601.33
666.81	597.18
667.15	592.98
667.49	589.06
667.83	585.21
668.17	581.30
668.51	577.17
668.85	573.10
669.19	569.19
669.53	565.37
669.87	561.55
670.21	557.77
670.55	554.03
670.89	550.58
671.23	547.18
671.57	543.65
671.91	540.09
672.25	536.53
672.58	532.99
672.92	529.62
673.26	526.37
673.60	523.28
673.94	520.21
674.28	517.30
674.62	514.36
674.96	511.27
675.30	508.38
675.64	505.48
675.97	502.67
676.31	499.79
676.65	496.81
676.99	494.04
677.33	491.22
677.67	488.39
678.01	485.41
678.34	482.38
678.68	479.46
679.02	476.64
679.36	473.89
679.70	471.16
680.04	468.35
680.37	465.55
680.71	462.68
681.05	460.00
681.39	457.26
681.73	454.51
682.06	451.92
682.40	449.33
682.74	446.74
683.08	444.13
683.42	441.50
683.75	438.99
684.09	436.40
684.43	433.87
684.77	431.40
685.10	429.00
685.44	426.71
685.78	424.38
686.12	422.11
686.45	419.76
686.79	417.41
687.13	415.15
687.46	412.94
687.80	410.77
688.14	408.51
688.48	406.38
688.81	404.18
689.15	402.01
689.49	399.81
689.82	397.71
690.16	395.61
690.50	393.59
690.83	391.62
691.17	389.58
691.51	387.68
691.84	385.80
692.18	383.87
692.52	381.81
692.85	379.89
693.19	377.98
693.52	376.14
693.86	374.32
694.20	372.49
694.53	370.67
694.87	368.81
695.21	367.01
695.54	365.15
695.88	363.36
696.21	361.61
696.55	359.95
696.88	358.22
697.22	356.52
697.56	354.91
697.89	353.22
698.23	351.61
698.56	349.91
698.90	348.34
699.23	346.66
699.57	345.12
699.90	343.50
700.24	341.91
700.58	340.36
700.91	338.83
701.25	337.44
701.58	336.08
701.92	334.68
702.25	333.32
702.59	331.99
702.92	330.65
703.26	329.33
703.59	328.02
703.93	326.85
704.26	325.60
704.60	324.24
704.93	322.93
705.26	321.65
705.60	320.50
705.93	319.32
706.27	318.23
706.60	317.17
706.94	316.12
707.27	314.98
707.61	313.87
707.94	312.82
708.27	311.66
708.61	310.52
708.94	309.48
709.28	308.46
709.61	307.47
709.94	306.50
710.28	305.46
710.61	304.44
710.95	303.31
711.28	302.41
711.61	301.50
711.95	300.62
712.28	299.65
712.61	298.65
712.95	297.68
713.28	296.84
713.61	295.92
713.95	295.04
714.28	294.18
714.61	293.34
714.95	292.48
715.28	291.63
715.61	290.80
715.95	289.91
716.28	289.06
716.61	288.18
716.95	287.30
717.28	286.54
717.61	285.75
717.94	285.05
718.28	284.20
718.61	283.49
718.94	282.75
719.27	282.10
719.61	281.43
719.94	280.77
720.27	280.00
720.60	279.35
720.94	278.68
721.27	278.08
721.60	277.49
721.93	276.89
722.27	276.32
722.60	275.72
722.93	275.16
723.26	274.59
723.59	274.07
723.93	273.55
724.26	273.01
724.59	272.41
724.92	271.84
725.25	271.36
725.59	270.80
725.92	270.27
726.25	269.72
726.58	269.22
726.91	268.73
727.24	268.23
727.57	267.73
727.91	267.15
728.24	266.68
728.57	266.17
728.90	265.72
729.23	265.20
729.56	264.76
729.89	264.29
730.22	263.75
730.55	263.23
730.89	262.76
731.22	262.28
731.55	261.88
731.88	261.40
732.21	260.97
732.54	260.52
732.87	260.11
733.20	259.72
733.53	259.33
733.86	258.91
734.19	258.52
734.52	258.14
734.85	257.88
735.18	257.43
735.51	257.05
735.84	256.65
736.17	256.32
736.50	255.93
736.83	255.67
737.16	255.37
737.49	255.03
737.82	254.68
738.15	254.37
738.48	254.01
738.81	253.69
739.14	253.35
739.47	253.00
739.80	252.67
740.13	252.36
740.46	252.04
740.79	251.68
741.12	251.38
741.45	251.02
741.78	250.68
742.11	250.42
742.44	250.08
742.77	249.77
743.10	249.45
743.43	249.12
743.75	248.73
744.08	248.57
744.41	248.27
744.74	248.01
745.07	247.70
745.40	247.44
745.73	247.22
746.06	246.94
746.39	246.71
746.71	246.46
747.04	246.18
747.37	245.85
747.70	245.63
748.03	245.35
748.36	245.17
748.68	244.89
749.01	244.64
749.34	244.44
749.67	244.23
750.00	244.00
750.33	243.85
750.65	243.67
750.98	243.29
751.31	243.10
751.64	242.88
751.97	242.71
752.29	242.48
752.62	242.21
752.95	242.02
753.28	241.81
753.60	241.60
753.93	241.45
754.26	241.29
754.59	241.08
754.91	240.89
755.24	240.66
755.57	240.46
755.90	240.24
756.22	240.05
756.55	239.82
756.88	239.63
757.20	239.40
757.53	239.18
757.86	239.03
758.19	238.88
758.51	238.70
758.84	238.49
759.17	238.32
759.49	238.19
759.82	238.06
760.15	237.91
760.47	237.73
760.80	237.52
761.13	237.36
761.45	237.16
761.78	237.01
762.11	236.87
762.43	236.73
762.76	236.63
763.08	236.52
763.41	236.41
763.74	236.28
764.06	236.15
764.39	236.00
764.71	235.86
765.04	235.69
765.37	235.54
765.69	235.40
766.02	235.25
766.34	235.10
766.67	234.95
767.00	234.84
767.32	234.79
767.65	234.74
767.97	234.61
768.30	234.55
768.62	234.43
768.95	234.31
769.27	234.18
769.60	234.08
769.92	233.94
770.25	233.84
770.57	233.70
770.90	233.60
771.22	233.50
771.55	233.41
771.87	233.34
772.20	233.23
772.52	233.27
772.85	233.34
773.17	233.30
773.50	233.21
773.82	233.09
774.15	232.94
774.47	232.79
774.80	232.72
775.12	232.62
775.45	232.57
775.77	232.49
776.09	232.44
776.42	232.35
776.74	232.29
777.07	232.16
777.39	232.11
777.72	232.02
778.04	231.96
778.36	231.89
778.69	231.81
779.01	231.76
779.33	231.60
779.66	231.42
779.98	231.28
780.31	231.19
780.63	231.17
780.95	231.12
781.28	231.04
781.60	230.95
781.92	230.89
782.25	230.79
782.57	230.73
782.89	230.67
783.22	230.63
783.54	230.56
783.86	230.53
784.19	230.47
784.51	230.45
784.83	230.36
785.16	230.32
785.48	230.30
785.80	230.26
786.12	230.20
786.45	230.13
786.77	230.13
787.09	230.09
787.42	230.04
787.74	229.99
788.06	229.93
788.38	229.91
788.71	229.85
789.03	229.81
789.35	229.76
789.67	229.73
789.99	229.67
790.32	229.60
790.64	229.59
790.96	229.62
791.28	229.55
791.61	229.50
791.93	229.46
792.25	229.40
792.57	229.41
792.89	229.35
793.21	229.30
793.54	229.22
793.86	229.15
794.18	229.08
794.50	229.02
794.82	229.01
795.14	229.00
795.47	228.99
795.79	228.96
796.11	228.91
796.43	228.84
796.75	228.78
797.07	228.74
797.39	228.66
797.71	228.58
798.04	228.52
798.36	228.48
798.68	228.43
799.00	228.40
799.32	228.29
799.64	228.26
799.96	228.24
800.28	228.23
800.60	228.21
800.92	228.18
801.24	228.15
801.56	228.15
801.89	228.09
802.21	228.02
802.53	227.99
802.85	228.00
803.17	228.03
803.49	228.01
803.81	227.97
804.13	227.95
804.45	227.88
804.77	227.89
805.09	227.88
805.41	227.86
805.73	227.81
806.05	227.77
806.37	227.74
806.69	227.68
807.01	227.64
807.33	227.65
807.65	227.61
807.97	227.66
808.28	227.61
808.60	227.60
808.92	227.60
809.24	227.64
809.56	227.57
809.88	227.46
810.20	227.42
810.52	227.42
810.84	227.41
811.16	227.39
811.48	227.36
811.80	227.38
812.12	227.34
812.43	227.35
812.75	227.31
813.07	227.32
813.39	227.32
813.71	227.30
814.03	227.26
814.35	227.21
814.67	227.14
814.98	227.12
815.30	227.06
815.62	227.05
815.94	226.95
816.26	226.98
816.58	226.97
816.89	226.95
817.21	226.90
817.53	226.88
817.85	226.86
818.17	226.87
818.48	226.80
818.80	226.83
819.12	226.79
819.44	226.77
819.76	226.72
820.07	226.70
820.39	226.68
820.71	226.68
821.03	226.70
821.34	226.66
821.66	226.67
821.98	226.70
822.30	226.68
822.61	226.72
822.93	226.68
823.25	226.67
823.57	226.69
823.88	226.72
824.20	226.70
824.52	226.72
824.83	226.67
825.15	226.68
825.47	226.66
825.79	226.69
826.10	226.71
826.42	226.72
826.74	226.74
827.05	226.73
827.37	226.70
827.69	226.65
828.00	226.66
828.32	226.66
828.64	226.60
828.95	226.65
829.27	226.61
829.58	226.62
829.90	226.63
830.22	226.63
830.53	226.62
830.85	226.63
831.17	226.58
831.48	226.58
831.80	226.57
832.11	226.53
832.43	226.51
832.75	226.50
833.06	226.56
833.38	226.51
833.69	226.51
834.01	226.52
834.32	226.53
834.64	226.52
834.96	226.49
835.27	226.49
835.59	226.43
835.90	226.42
836.22	226.42
836.53	226.40
836.85	226.35
837.16	226.44
837.48	226.42
837.79	226.44
838.11	226.43
838.42	226.42
838.74	226.42
839.05	226.38
839.37	226.35
839.68	226.25
840.00	226.25
840.31	226.24
840.63	226.24
840.94	226.25
841.26	226.24
841.57	226.22
841.88	226.21
842.20	226.18
842.51	226.12
842.83	226.09
843.14	226.16
843.46	226.13
843.77	226.04
844.08	226.01
844.40	225.98
844.71	225.99
845.03	225.93
845.34	225.88
845.65	225.85
845.97	225.82
846.28	225.82
846.60	225.78
846.91	225.73
847.22	225.71
847.54	225.68
847.85	225.67
848.16	225.62
848.48	225.60
848.79	225.64
849.10	225.66
849.42	225.62
849.73	225.54
850.04	225.53
850.36	225.48
850.67	225.49
850.98	225.47
851.30	225.44
851.61	225.42
851.92	225.48
852.23	225.53
852.55	225.52
852.86	225.48
853.17	225.49
853.49	225.49
853.80	225.50
854.11	225.51
854.42	225.51
854.74	225.50
855.05	225.51
855.36	225.47
855.67	225.45
855.99	225.49
856.30	225.59
856.61	225.62
856.92	225.59
857.23	225.60
857.55	225.56
857.86	225.58
858.17	225.60
858.48	225.54
858.79	225.51
859.11	225.50
859.42	225.51
859.73	225.49
860.04	225.47
860.35	225.41
860.66	225.40
860.98	225.41
861.29	225.42
861.60	225.41
861.91	225.42
862.22	225.43
862.53	225.38
862.84	225.27
863.16	225.29
863.47	225.27
863.78	225.25
864.09	225.26
864.40	225.27
864.71	225.29
865.02	225.31
865.33	225.32
865.64	225.33
865.95	225.34
866.27	225.42
866.58	225.45
866.89	225.48
867.20	225.47
867.51	225.41
867.82	225.43
868.13	225.48
868.44	225.48
868.75	225.46
869.06	225.48
869.37	225.44
869.68	225.41
869.99	225.44
870.30	225.47
870.61	225.48
870.92	225.43
871.23	225.45
871.54	225.48
871.85	225.49
872.16	225.51
872.47	225.51
872.78	225.47
873.09	225.49
873.40	225.50
873.71	225.51
874.02	225.53
874.33	225.49
874.64	225.46
874.95	225.43
875.26	225.43
875.56	225.43
875.87	225.45
876.18	225.46
876.49	225.57
876.80	225.54
877.11	225.50
877.42	225.53
877.73	225.51
878.04	225.46
878.35	225.44
878.66	225.45
878.96	225.47
879.27	225.42
879.58	225.39
879.89	225.36
880.20	225.38
880.51	225.38
880.82	225.41
881.12	225.37
881.43	225.35
881.74	225.38
882.05	225.37
882.36	225.39
882.67	225.38
882.97	225.27
883.28	225.27
883.59	225.27
883.90	225.28
884.21	225.27
884.51	225.28
884.82	225.28
885.13	225.29
885.44	225.28
885.74	225.30
886.05	225.31
886.36	225.31
886.67	225.27
886.98	225.35
887.28	225.36
887.59	225.37
887.90	225.41
888.20	225.38
888.51	225.41
888.82	225.38
889.13	225.37
889.43	225.45
889.74	225.43
890.05	225.43
890.35	225.45
890.66	225.45
890.97	225.41
891.28	225.37
891.58	225.34
891.89	225.34
892.20	225.36
892.50	225.32
892.81	225.31
893.12	225.33
893.42	225.24
893.73	225.25
894.04	225.27
894.34	225.27
894.65	225.27
894.95	225.26
895.26	225.28
895.57	225.31
895.87	225.22
896.18	225.24
896.48	225.24
896.79	225.20
897.10	225.22
897.40	225.26
897.71	225.27
898.01	225.30
898.32	225.31
898.63	225.27
898.93	225.29
899.24	225.33
899.54	225.33
899.85	225.34
900.15	225.32
900.46	225.31
900.76	225.28
901.07	225.28
901.38	225.26
901.68	225.30
901.99	225.25
902.29	225.28
902.60	225.31
902.90	225.29
903.21	225.29
903.51	225.28
903.82	225.28
904.12	225.27
904.43	225.23
904.73	225.21
905.03	225.22
905.34	225.33
905.64	225.28
905.95	225.27
906.25	225.26
906.56	225.25
906.86	225.26
907.17	225.28
907.47	225.29
907.77	225.29
908.08	225.28
908.38	225.27
908.69	225.27
908.99	225.28
909.30	225.31
909.60	225.33
909.90	225.32
910.21	225.29
910.51	225.32
910.81	225.34
911.12	225.36
911.42	225.36
911.73	225.23
912.03	225.26
912.33	225.28
912.64	225.27
912.94	225.26
913.24	225.25
913.55	225.23
913.85	225.24
914.15	225.25
914.46	225.27
914.76	225.30
915.06	225.28
915.37	225.23
915.67	225.23
915.97	225.21
916.27	225.20
916.58	225.20
916.88	225.17
917.18	225.14
917.49	225.19
917.79	225.19
918.09	225.21
918.39	225.24
918.70	225.22
919.00	225.20
919.30	225.23
919.60	225.21
919.91	225.19
920.21	225.14
920.51	225.10
920.81	225.03
921.12	225.00
921.42	224.99
921.72	225.05
922.02	225.03
922.32	225.05
922.63	225.01
922.93	225.07
923.23	225.04
923.53	225.07
923.83	224.99
924.13	224.97
924.44	224.96
924.74	224.95
925.04	224.97
925.34	224.98
925.64	224.97
925.94	224.96
926.24	225.00
926.55	224.99
926.85	225.06
927.15	225.06
927.45	225.12
927.75	225.12
928.05	225.09
928.35	225.07
928.65	225.07
928.95	225.12
929.26	225.07
929.56	225.10
929.86	225.08
930.16	225.10
930.46	225.14
930.76	225.17
931.06	225.13
931.36	225.13
931.66	225.15
931.96	225.18
932.26	225.20
932.56	225.19
932.86	225.20
933.16	225.18
933.46	225.18
933.76	225.15
934.06	225.19
934.36	225.24
934.66	225.25
934.96	225.26
935.26	225.27
935.56	225.28
935.86	225.26
936.16	225.27
936.46	225.24
936.76	225.23
937.06	225.21
937.36	225.23
937.66	225.22
937.96	225.25
938.26	225.21
938.56	225.22
938.86	225.24
939.16	225.29
939.46	225.33
939.76	225.35
940.06	225.32
940.35	225.29
940.65	225.26
940.95	225.28
941.25	225.28
941.55	225.28
941.85	225.32
942.15	225.36
942.45	225.39
942.75	225.42
943.04	225.42
943.34	225.43
943.64	225.41
943.94	225.40
944.24	225.40
944.54	225.41
944.84	225.37
945.13	225.33
945.43	225.31
945.73	225.25
946.03	225.28
946.33	225.26
946.62	225.23
946.92	225.19
947.22	225.19
947.52	225.20
947.82	225.21
948.11	225.14
948.41	225.08
948.71	225.07
949.01	225.02
949.31	224.98
949.60	224.98
949.90	224.99
950.20	224.97
950.50	224.91
950.79	224.87
951.09	224.90
951.39	224.88
951.69	224.85
951.98	224.86
952.28	224.83
952.58	224.82
952.87	224.84
953.17	224.87
953.47	224.84
953.76	224.81
954.06	224.76
954.36	224.77
954.66	224.79
954.95	224.82
955.25	224.87
955.55	224.89
955.84	224.88
956.14	224.88
956.44	224.87
956.73	224.90
957.03	224.93
957.32	224.91
957.62	224.93
957.92	224.95
958.21	224.95
958.51	225.04
958.81	225.07
959.10	225.03
959.40	225.03
959.69	225.04
959.99	225.04
960.29	225.05
960.58	225.02
960.88	225.03
961.17	225.00
961.47	224.99
961.76	224.96
962.06	224.96
962.36	224.96
962.65	224.96
962.95	224.92
963.24	224.90
963.54	224.92
963.83	224.88
964.13	224.88
964.42	224.87
964.72	224.80
965.01	224.81
965.31	224.81
965.60	224.78
965.90	224.84
966.19	224.82
966.49	224.82
966.78	224.86
967.08	224.86
967.37	224.86
967.67	224.82
967.96	224.83
968.26	224.89
968.55	224.89
968.85	224.92
969.14	224.95
969.43	224.98
969.73	224.98
970.02	225.03
970.32	225.03
970.61	225.06
970.91	225.04
971.20	225.01
971.49	225.01
971.79	225.05
972.08	224.98
972.38	224.99
972.67	225.01
972.96	225.02
973.26	224.99
973.55	225.05
973.85	225.02
974.14	225.04
974.43	225.02
974.73	225.00
975.02	225.04
975.31	225.05
975.61	225.01
975.90	225.01
976.19	224.97
976.49	224.97
976.78	224.94
977.07	224.94
977.37	224.97
977.66	225.00
977.95	224.97
978.24	224.98
978.54	225.01
978.83	225.00
979.12	225.00
979.42	224.99
979.71	224.95
980.00	225.02
980.29	225.00
980.59	224.98
980.88	225.02
981.17	225.00
981.46	225.00
981.76	225.02
982.05	225.06
982.34	225.07
982.63	225.08
982.93	225.07
983.22	225.08
983.51	225.09
983.80	225.09
984.09	225.12
984.39	225.12
984.68	225.10
984.97	225.14
985.26	225.13
985.55	225.13
985.85	225.12
986.14	225.11
986.43	225.11
986.72	225.10
987.01	225.05
987.30	225.02
987.59	224.99
987.89	224.99
988.18	224.94
988.47	224.95
988.76	224.93
989.05	224.91
989.34	224.86
989.63	224.88
989.92	224.86
990.22	224.81
990.51	224.79
990.80	224.75
991.09	224.74
991.38	224.72
991.67	224.72
991.96	224.70
992.25	224.70
992.54	224.68
992.83	224.69
993.12	224.67
993.41	224.68
993.70	224.72
993.99	224.72
994.28	224.72
994.58	224.74
994.87	224.71
995.16	224.74
995.45	224.76
995.74	224.70
996.03	224.69
996.32	224.73
996.61	224.76
996.90	224.80
997.19	224.77
997.48	224.79
997.77	224.79
998.06	224.81
998.34	224.78
998.63	224.78
998.92	224.77
999.21	224.81
999.50	224.80
999.79	224.79
1000.08	224.79
1000.37	224.81
1000.66	224.78
1000.95	224.83
1001.24	224.80
1001.53	224.81
1001.82	224.83
1002.11	224.82
1002.40	224.84
1002.68	224.86
1002.97	224.91
1003.26	224.89
1003.55	224.88
1003.84	224.89
1004.13	224.93
1004.42	224.94
1004.71	224.93
1004.99	224.96
1005.28	224.97
1005.57	224.97
1005.86	224.94
1006.15	224.96
1006.44	224.95
1006.72	224.98
1007.01	224.96
1007.30	224.99
1007.59	224.99
1007.88	225.00
1008.17	224.97
1008.45	224.92
1008.74	224.89
1009.03	224.85
1009.32	224.87
1009.60	224.88
1009.89	224.88
1010.18	224.84
1010.47	224.86
1010.76	224.87
1011.04	224.83
1011.33	224.85
1011.62	224.88
1011.91	224.91
1012.19	224.91
1012.48	224.92
1012.77	224.93
1013.05	224.99
1013.34	224.97
1013.63	224.98
1013.92	225.00
1014.20	225.04
1014.49	225.06
1014.78	225.09
1015.06	225.05
1015.35	225.05
1015.64	225.05
1015.92	225.09
1016.21	225.07
1016.50	225.03
1016.78	225.05
1017.07	225.05
1017.36	225.02
1017.64	224.98
1017.93	225.01
1018.22	224.96
1018.50	224.97
1018.79	224.94
1019.08	224.88
1019.36	224.87
1019.65	224.86
1019.93	224.87
1020.22	224.86
1020.51	224.90
1020.79	224.86
1021.08	224.22
1021.36	225.46
1021.65	224.66
1021.94	224.92
1022.22	224.31
1022.51	224.92
1022.79	225.24
1023.08	224.80
1023.36	225.85
1023.65	224.44
>>>>>End Processed Spectral Data<<<<<
