SpectraSuite Data File
++++++++++++++++++++++++++++++++++++
Date: Fri Feb 01 15:51:26 EST 2013
User: group
Dark Spectrum Present: No
Reference Spectrum Present: No
Number of Sampled Component Spectra: 1
Spectrometers: USB2E7196
Integration Time (usec): 35000 (USB2E7196)
Spectra Averaged: 100 (USB2E7196)
Boxcar Smoothing: 10 (USB2E7196)
Correct for Electrical Dark: No (USB2E7196)
Strobe/Lamp Enabled: No (USB2E7196)
Correct for Detector Non-linearity: No (USB2E7196)
Correct for Stray Light: No (USB2E7196)
Number of Pixels in Processed Spectrum: 2048
>>>>>Begin Processed Spectral Data<<<<<
339.09	0.00
339.48	214.58
339.86	215.70
340.24	218.14
340.63	218.64
341.01	221.64
341.39	221.97
341.78	222.61
342.16	223.89
342.54	224.42
342.93	212.86
343.31	223.63
343.69	224.18
344.07	224.64
344.46	225.03
344.84	225.45
345.22	225.69
345.60	225.96
345.99	226.17
346.37	226.32
346.75	226.42
347.13	226.50
347.52	226.57
347.90	226.67
348.28	226.73
348.66	226.77
349.05	226.75
349.43	226.80
349.81	226.87
350.19	226.96
350.57	227.03
350.96	227.10
351.34	227.20
351.72	227.30
352.10	227.43
352.48	227.49
352.87	227.53
353.25	227.59
353.63	227.59
354.01	227.64
354.39	227.72
354.77	227.80
355.15	227.90
355.54	227.96
355.92	227.98
356.30	228.04
356.68	228.18
357.06	228.25
357.44	228.32
357.82	228.37
358.20	228.42
358.58	228.47
358.97	228.50
359.35	228.57
359.73	228.65
360.11	228.70
360.49	228.75
360.87	228.77
361.25	228.85
361.63	228.96
362.01	229.02
362.39	229.05
362.77	229.09
363.15	229.12
363.53	229.16
363.91	229.21
364.29	229.25
364.67	229.18
365.05	229.19
365.43	229.20
365.81	229.24
366.19	229.30
366.57	229.34
366.95	229.38
367.33	229.35
367.71	229.34
368.09	229.35
368.47	229.36
368.85	229.37
369.23	229.36
369.61	229.26
369.99	229.26
370.37	229.24
370.75	229.28
371.13	229.21
371.51	229.17
371.89	229.15
372.27	229.11
372.65	229.07
373.03	229.05
373.41	229.01
373.78	228.94
374.16	228.84
374.54	228.76
374.92	228.69
375.30	228.60
375.68	228.52
376.06	228.43
376.44	228.39
376.82	228.31
377.19	228.24
377.57	228.19
377.95	228.09
378.33	228.01
378.71	227.86
379.09	227.80
379.47	227.72
379.84	227.63
380.22	227.52
380.60	227.42
380.98	227.35
381.36	227.26
381.73	227.17
382.11	227.14
382.49	227.07
382.87	227.00
383.25	226.94
383.62	226.98
384.00	226.92
384.38	226.82
384.76	226.79
385.13	226.77
385.51	226.72
385.89	226.67
386.27	226.60
386.64	226.57
387.02	226.53
387.40	226.50
387.78	226.46
388.15	226.44
388.53	226.42
388.91	226.39
389.29	226.35
389.66	226.33
390.04	226.26
390.42	226.22
390.79	226.21
391.17	226.21
391.55	226.09
391.92	226.07
392.30	226.09
392.68	226.06
393.05	226.03
393.43	226.03
393.81	226.01
394.18	226.01
394.56	226.01
394.94	226.05
395.31	226.06
395.69	226.11
396.06	226.14
396.44	226.15
396.82	226.15
397.19	226.24
397.57	226.30
397.95	226.34
398.32	226.40
398.70	226.45
399.07	226.53
399.45	226.58
399.82	226.63
400.20	226.69
400.58	226.79
400.95	226.81
401.33	226.88
401.70	227.02
402.08	227.10
402.45	227.18
402.83	227.29
403.20	227.39
403.58	227.49
403.95	227.60
404.33	227.73
404.71	227.85
405.08	228.05
405.46	228.16
405.83	228.31
406.21	228.43
406.58	228.61
406.96	228.76
407.33	228.94
407.70	229.16
408.08	229.45
408.45	229.65
408.83	229.89
409.20	230.14
409.58	230.36
409.95	230.65
410.33	230.91
410.70	231.15
411.08	231.44
411.45	231.74
411.82	232.08
412.20	232.45
412.57	232.85
412.95	233.10
413.32	233.52
413.69	233.94
414.07	234.37
414.44	234.82
414.82	235.32
415.19	235.87
415.56	236.41
415.94	236.94
416.31	237.58
416.68	238.23
417.06	238.95
417.43	239.64
417.81	240.38
418.18	241.18
418.55	242.03
418.93	242.91
419.30	243.79
419.67	244.75
420.04	245.71
420.42	246.74
420.79	247.98
421.16	249.10
421.54	250.29
421.91	251.55
422.28	252.83
422.66	254.14
423.03	255.43
423.40	256.79
423.77	258.21
424.15	259.61
424.52	261.14
424.89	262.74
425.26	264.30
425.64	265.77
426.01	267.39
426.38	269.12
426.75	270.82
427.13	272.57
427.50	274.38
427.87	276.25
428.24	278.10
428.61	279.82
428.99	281.82
429.36	283.96
429.73	285.99
430.10	288.00
430.47	290.07
430.85	292.19
431.22	294.38
431.59	296.77
431.96	299.07
432.33	301.54
432.70	303.92
433.08	306.73
433.45	309.37
433.82	311.99
434.19	314.83
434.56	317.61
434.93	320.26
435.30	322.87
435.68	325.81
436.05	328.61
436.42	331.46
436.79	333.97
437.16	336.63
437.53	339.49
437.90	342.30
438.27	345.05
438.64	347.91
439.01	350.55
439.38	352.80
439.75	354.96
440.13	357.41
440.50	359.75
440.87	361.58
441.24	363.52
441.61	365.68
441.98	367.18
442.35	368.96
442.72	370.80
443.09	372.64
443.46	373.58
443.83	374.21
444.20	374.66
444.57	375.47
444.94	375.76
445.31	376.08
445.68	376.43
446.05	376.49
446.42	376.11
446.79	375.66
447.16	375.20
447.53	374.85
447.90	373.70
448.27	372.54
448.64	370.97
449.01	369.81
449.37	367.81
449.74	365.90
450.11	363.71
450.48	361.22
450.85	358.63
451.22	356.49
451.59	354.40
451.96	352.46
452.33	349.90
452.70	347.56
453.07	344.74
453.43	341.84
453.80	339.08
454.17	336.42
454.54	333.88
454.91	331.13
455.28	328.45
455.65	325.93
456.02	323.47
456.38	321.31
456.75	318.64
457.12	316.41
457.49	314.20
457.86	312.01
458.23	310.13
458.59	308.13
458.96	306.05
459.33	304.28
459.70	302.41
460.07	300.85
460.43	299.11
460.80	297.47
461.17	296.01
461.54	294.51
461.91	293.08
462.27	291.63
462.64	290.40
463.01	289.06
463.38	287.80
463.74	286.44
464.11	285.30
464.48	284.32
464.85	283.17
465.21	282.31
465.58	281.39
465.95	280.33
466.32	279.39
466.68	278.47
467.05	277.54
467.42	276.65
467.78	275.72
468.15	274.86
468.52	274.20
468.88	273.37
469.25	272.62
469.62	271.99
469.98	271.29
470.35	270.64
470.72	270.05
471.08	269.38
471.45	268.85
471.82	268.28
472.18	267.67
472.55	267.27
472.92	266.71
473.28	266.27
473.65	265.82
474.02	265.39
474.38	265.07
474.75	264.73
475.11	264.42
475.48	264.20
475.85	264.00
476.21	263.79
476.58	263.57
476.94	263.40
477.31	263.23
477.67	263.13
478.04	263.04
478.41	262.95
478.77	263.00
479.14	262.96
479.50	262.98
479.87	263.06
480.23	263.15
480.60	263.23
480.96	263.28
481.33	263.50
481.69	263.71
482.06	263.91
482.42	264.14
482.79	264.38
483.15	264.66
483.52	265.03
483.88	265.37
484.25	265.76
484.61	266.20
484.98	266.66
485.34	267.22
485.71	267.82
486.07	268.48
486.44	269.02
486.80	269.70
487.17	270.45
487.53	271.24
487.90	272.10
488.26	273.07
488.62	274.11
488.99	275.09
489.35	276.13
489.72	277.26
490.08	278.48
490.44	279.75
490.81	281.08
491.17	282.40
491.54	283.86
491.90	285.43
492.26	287.11
492.63	288.83
492.99	290.59
493.36	292.45
493.72	294.47
494.08	296.61
494.45	298.85
494.81	301.22
495.17	303.65
495.54	306.17
495.90	308.78
496.26	311.57
496.63	314.50
496.99	317.62
497.35	320.87
497.72	324.25
498.08	327.73
498.44	331.43
498.80	335.36
499.17	339.39
499.53	343.60
499.89	347.93
500.26	352.43
500.62	357.13
500.98	362.10
501.34	367.18
501.71	372.49
502.07	377.97
502.43	383.59
502.79	389.46
503.16	395.62
503.52	401.90
503.88	408.32
504.24	414.96
504.60	421.84
504.97	428.98
505.33	436.28
505.69	443.96
506.05	451.72
506.41	459.64
506.78	467.80
507.14	476.25
507.50	485.01
507.86	494.09
508.22	503.31
508.59	512.51
508.95	522.05
509.31	531.91
509.67	541.98
510.03	552.23
510.39	562.77
510.75	573.50
511.12	584.50
511.48	595.82
511.84	607.27
512.20	618.78
512.56	630.77
512.92	642.98
513.28	655.34
513.64	667.86
514.00	680.56
514.37	693.50
514.73	706.54
515.09	719.54
515.45	732.76
515.81	746.27
516.17	760.35
516.53	774.57
516.89	788.75
517.25	802.98
517.61	817.50
517.97	831.94
518.33	846.34
518.69	861.03
519.05	875.96
519.41	891.11
519.77	906.69
520.13	922.11
520.49	937.48
520.85	952.97
521.21	968.67
521.57	984.89
521.93	1000.62
522.29	1017.04
522.65	1033.32
523.01	1049.57
523.37	1065.66
523.73	1081.74
524.09	1097.76
524.45	1114.01
524.81	1130.62
525.17	1147.42
525.53	1164.26
525.89	1181.15
526.25	1197.88
526.61	1214.20
526.97	1230.91
527.33	1247.30
527.68	1263.91
528.04	1280.37
528.40	1296.83
528.76	1313.85
529.12	1330.36
529.48	1347.22
529.84	1363.15
530.20	1379.68
530.56	1396.68
530.91	1414.09
531.27	1430.90
531.63	1447.33
531.99	1463.90
532.35	1479.71
532.71	1495.47
533.07	1511.68
533.42	1527.64
533.78	1543.76
534.14	1560.08
534.50	1575.50
534.86	1591.43
535.21	1606.50
535.57	1622.41
535.93	1637.95
536.29	1652.83
536.65	1667.87
537.00	1682.69
537.36	1697.94
537.72	1712.44
538.08	1726.71
538.44	1740.45
538.79	1754.26
539.15	1767.94
539.51	1781.71
539.87	1796.15
540.22	1809.90
540.58	1823.79
540.94	1837.03
541.29	1849.96
541.65	1862.67
542.01	1875.71
542.37	1887.97
542.72	1900.57
543.08	1912.26
543.44	1924.76
543.79	1935.85
544.15	1946.95
544.51	1958.55
544.87	1969.61
545.22	1980.44
545.58	1990.86
545.94	2000.60
546.29	2010.45
546.65	2020.20
547.01	2029.45
547.36	2038.04
547.72	2046.44
548.07	2054.21
548.43	2062.52
548.79	2070.62
549.14	2077.99
549.50	2085.39
549.86	2093.16
550.21	2100.36
550.57	2107.60
550.92	2114.10
551.28	2121.18
551.64	2128.13
551.99	2134.48
552.35	2140.49
552.70	2146.69
553.06	2152.54
553.41	2158.91
553.77	2165.11
554.13	2171.20
554.48	2177.43
554.84	2182.94
555.19	2188.30
555.55	2193.32
555.90	2197.60
556.26	2202.34
556.61	2207.19
556.97	2211.46
557.32	2215.39
557.68	2219.45
558.03	2223.83
558.39	2227.65
558.74	2232.34
559.10	2236.34
559.45	2240.16
559.81	2244.68
560.16	2248.52
560.52	2251.77
560.87	2255.19
561.23	2257.62
561.58	2260.78
561.94	2263.20
562.29	2265.60
562.64	2268.26
563.00	2270.91
563.35	2274.54
563.71	2277.81
564.06	2281.13
564.42	2283.94
564.77	2286.59
565.12	2288.89
565.48	2290.68
565.83	2292.45
566.19	2293.52
566.54	2294.26
566.89	2295.30
567.25	2295.80
567.60	2297.12
567.96	2298.83
568.31	2299.54
568.66	2300.74
569.02	2301.20
569.37	2301.52
569.72	2302.36
570.08	2302.65
570.43	2302.71
570.78	2302.08
571.14	2300.46
571.49	2299.10
571.84	2298.99
572.20	2297.90
572.55	2296.95
572.90	2295.45
573.26	2294.00
573.61	2292.39
573.96	2290.65
574.31	2287.87
574.67	2284.87
575.02	2281.18
575.37	2277.77
575.72	2274.20
576.08	2270.89
576.43	2267.54
576.78	2263.81
577.13	2260.81
577.49	2257.69
577.84	2254.25
578.19	2250.49
578.54	2246.83
578.90	2242.57
579.25	2236.96
579.60	2231.91
579.95	2226.75
580.30	2221.68
580.66	2216.37
581.01	2211.70
581.36	2206.77
581.71	2202.49
582.06	2197.98
582.42	2193.51
582.77	2188.28
583.12	2183.64
583.47	2178.71
583.82	2173.74
584.17	2168.40
584.53	2162.77
584.88	2157.01
585.23	2151.15
585.58	2145.75
585.93	2140.32
586.28	2135.55
586.63	2130.38
586.98	2125.32
587.34	2120.65
587.69	2115.84
588.04	2110.69
588.39	2104.85
588.74	2098.47
589.09	2092.21
589.44	2085.46
589.79	2079.52
590.14	2073.95
590.49	2067.30
590.84	2061.03
591.19	2054.98
591.54	2048.72
591.89	2041.40
592.25	2034.54
592.60	2027.43
592.95	2019.76
593.30	2012.39
593.65	2004.70
594.00	1997.82
594.35	1990.63
594.70	1982.61
595.05	1975.27
595.40	1968.06
595.75	1960.50
596.10	1954.20
596.45	1947.51
596.80	1941.30
597.15	1934.71
597.50	1927.59
597.85	1921.22
598.19	1914.58
598.54	1907.34
598.89	1900.61
599.24	1894.68
599.59	1887.96
599.94	1881.75
600.29	1875.43
600.64	1868.85
600.99	1861.46
601.34	1854.57
601.69	1847.52
602.04	1840.65
602.39	1833.36
602.74	1826.42
603.08	1819.69
603.43	1813.11
603.78	1805.83
604.13	1798.55
604.48	1791.17
604.83	1784.19
605.18	1777.06
605.53	1768.99
605.87	1761.13
606.22	1753.94
606.57	1746.01
606.92	1738.82
607.27	1731.53
607.62	1724.61
607.96	1717.30
608.31	1710.59
608.66	1702.90
609.01	1695.35
609.36	1687.68
609.70	1679.76
610.05	1671.72
610.40	1664.07
610.75	1655.59
611.10	1647.91
611.44	1639.55
611.79	1631.40
612.14	1622.73
612.49	1613.65
612.83	1605.30
613.18	1597.16
613.53	1589.01
613.88	1580.40
614.22	1572.11
614.57	1563.55
614.92	1555.41
615.27	1547.81
615.61	1539.57
615.96	1531.55
616.31	1523.89
616.65	1516.59
617.00	1508.90
617.35	1501.25
617.70	1492.87
618.04	1484.45
618.39	1476.32
618.74	1468.78
619.08	1460.55
619.43	1452.99
619.78	1446.09
620.12	1438.96
620.47	1431.38
620.82	1423.20
621.16	1415.86
621.51	1408.22
621.85	1400.63
622.20	1392.23
622.55	1383.88
622.89	1376.00
623.24	1368.45
623.59	1361.14
623.93	1353.56
624.28	1346.35
624.62	1338.77
624.97	1331.64
625.32	1324.80
625.66	1317.72
626.01	1310.54
626.35	1303.19
626.70	1295.50
627.04	1287.69
627.39	1279.86
627.73	1272.53
628.08	1265.66
628.43	1258.29
628.77	1250.90
629.12	1243.32
629.46	1236.13
629.81	1228.76
630.15	1221.53
630.50	1214.02
630.84	1205.81
631.19	1197.92
631.53	1190.37
631.88	1182.83
632.22	1175.27
632.57	1167.98
632.91	1160.36
633.26	1152.91
633.60	1145.50
633.95	1138.38
634.29	1131.39
634.64	1124.72
634.98	1117.24
635.32	1110.09
635.67	1103.61
636.01	1096.88
636.36	1090.08
636.70	1083.50
637.05	1076.98
637.39	1070.51
637.73	1063.94
638.08	1057.99
638.42	1051.98
638.77	1045.55
639.11	1038.90
639.45	1032.40
639.80	1025.69
640.14	1019.26
640.49	1012.67
640.83	1006.41
641.17	1000.15
641.52	993.77
641.86	987.30
642.20	981.44
642.55	975.07
642.89	968.45
643.23	962.03
643.58	956.24
643.92	950.06
644.26	943.93
644.61	937.83
644.95	931.83
645.29	925.21
645.64	918.56
645.98	912.24
646.32	906.49
646.66	900.46
647.01	894.71
647.35	889.06
647.69	883.19
648.04	877.63
648.38	871.79
648.72	865.77
649.06	859.77
649.41	853.94
649.75	847.98
650.09	842.13
650.43	836.34
650.78	830.18
651.12	824.27
651.46	818.60
651.80	812.88
652.14	807.50
652.49	802.18
652.83	796.92
653.17	791.25
653.51	785.50
653.85	780.15
654.20	774.51
654.54	768.45
654.88	762.80
655.22	756.91
655.56	751.34
655.90	745.98
656.25	740.68
656.59	735.34
656.93	730.24
657.27	725.01
657.61	719.59
657.95	714.53
658.29	709.41
658.64	704.12
658.98	698.88
659.32	693.40
659.66	688.22
660.00	682.91
660.34	677.98
660.68	673.03
661.02	667.95
661.36	663.30
661.70	658.85
662.05	654.52
662.39	650.14
662.73	645.68
663.07	641.27
663.41	636.86
663.75	632.32
664.09	627.76
664.43	623.37
664.77	619.25
665.11	615.01
665.45	610.88
665.79	606.77
666.13	602.60
666.47	598.52
666.81	594.37
667.15	590.23
667.49	586.34
667.83	582.55
668.17	578.67
668.51	574.58
668.85	570.55
669.19	566.62
669.53	562.81
669.87	558.87
670.21	555.16
670.55	551.56
670.89	548.25
671.23	544.81
671.57	541.32
671.91	537.69
672.25	534.16
672.58	530.65
672.92	527.35
673.26	524.18
673.60	521.08
673.94	517.95
674.28	515.09
674.62	512.14
674.96	509.06
675.30	506.10
675.64	503.20
675.97	500.41
676.31	497.56
676.65	494.60
676.99	491.85
677.33	489.02
677.67	486.15
678.01	483.08
678.34	480.08
678.68	477.24
679.02	474.49
679.36	471.76
679.70	469.06
680.04	466.21
680.37	463.30
680.71	460.50
681.05	457.85
681.39	455.10
681.73	452.42
682.06	449.86
682.40	447.29
682.74	444.71
683.08	442.17
683.42	439.57
683.75	437.07
684.09	434.58
684.43	432.12
684.77	429.69
685.10	427.30
685.44	425.01
685.78	422.71
686.12	420.47
686.45	418.17
686.79	415.87
687.13	413.71
687.46	411.55
687.80	409.39
688.14	407.22
688.48	405.15
688.81	402.89
689.15	400.72
689.49	398.64
689.82	396.55
690.16	394.51
690.50	392.57
690.83	390.59
691.17	388.56
691.51	386.63
691.84	384.81
692.18	382.85
692.52	380.86
692.85	378.93
693.19	377.04
693.52	375.21
693.86	373.41
694.20	371.58
694.53	369.79
694.87	367.92
695.21	366.09
695.54	364.26
695.88	362.56
696.21	360.86
696.55	359.17
696.88	357.49
697.22	355.80
697.56	354.16
697.89	352.54
698.23	350.95
698.56	349.32
698.90	347.67
699.23	346.09
699.57	344.53
699.90	342.98
700.24	341.41
700.58	339.87
700.91	338.32
701.25	336.88
701.58	335.51
701.92	334.16
702.25	332.81
702.59	331.49
702.92	330.15
703.26	328.85
703.59	327.55
703.93	326.36
704.26	325.17
704.60	323.88
704.93	322.62
705.26	321.42
705.60	320.27
705.93	319.13
706.27	318.09
706.60	317.08
706.94	315.97
707.27	314.89
707.61	313.85
707.94	312.87
708.27	311.78
708.61	310.75
708.94	309.76
709.28	308.77
709.61	307.79
709.94	306.86
710.28	305.87
710.61	304.90
710.95	303.87
711.28	302.92
711.61	301.97
711.95	301.07
712.28	300.07
712.61	299.11
712.95	298.18
713.28	297.25
713.61	296.34
713.95	295.45
714.28	294.59
714.61	293.68
714.95	292.79
715.28	291.93
715.61	291.03
715.95	290.19
716.28	289.32
716.61	288.50
716.95	287.67
717.28	286.89
717.61	286.13
717.94	285.36
718.28	284.53
718.61	283.82
718.94	283.12
719.27	282.47
719.61	281.84
719.94	281.15
720.27	280.44
720.60	279.76
720.94	279.13
721.27	278.51
721.60	277.95
721.93	277.34
722.27	276.80
722.60	276.26
722.93	275.70
723.26	275.18
723.59	274.62
723.93	274.06
724.26	273.47
724.59	272.91
724.92	272.37
725.25	271.89
725.59	271.37
725.92	270.81
726.25	270.30
726.58	269.76
726.91	269.27
727.24	268.81
727.57	268.34
727.91	267.83
728.24	267.38
728.57	266.93
728.90	266.52
729.23	266.03
729.56	265.58
729.89	265.09
730.22	264.61
730.55	264.13
730.89	263.69
731.22	263.28
731.55	262.84
731.88	262.44
732.21	261.99
732.54	261.54
732.87	261.12
733.20	260.71
733.53	260.33
733.86	259.96
734.19	259.54
734.52	259.19
734.85	258.90
735.18	258.46
735.51	258.07
735.84	257.69
736.17	257.35
736.50	257.00
736.83	256.78
737.16	256.44
737.49	256.13
737.82	255.76
738.15	255.44
738.48	255.14
738.81	254.80
739.14	254.48
739.47	254.22
739.80	253.91
740.13	253.66
740.46	253.33
740.79	253.03
741.12	252.72
741.45	252.41
741.78	252.08
742.11	251.80
742.44	251.48
742.77	251.19
743.10	250.89
743.43	250.60
743.75	250.18
744.08	250.06
744.41	249.76
744.74	249.56
745.07	249.29
745.40	249.05
745.73	248.81
746.06	248.56
746.39	248.25
746.71	248.02
747.04	247.73
747.37	247.52
747.70	247.25
748.03	247.02
748.36	246.80
748.68	246.55
749.01	246.29
749.34	246.09
749.67	245.86
750.00	245.64
750.33	245.46
750.65	245.26
750.98	244.88
751.31	244.68
751.64	244.43
751.97	244.25
752.29	243.98
752.62	243.71
752.95	243.47
753.28	243.25
753.60	243.01
753.93	242.85
754.26	242.65
754.59	242.41
754.91	242.23
755.24	241.99
755.57	241.79
755.90	241.62
756.22	241.42
756.55	241.21
756.88	240.99
757.20	240.74
757.53	240.53
757.86	240.40
758.19	240.23
758.51	240.07
758.84	239.82
759.17	239.68
759.49	239.57
759.82	239.47
760.15	239.31
760.47	239.15
760.80	238.94
761.13	238.79
761.45	238.68
761.78	238.52
762.11	238.38
762.43	238.25
762.76	238.11
763.08	237.96
763.41	237.83
763.74	237.71
764.06	237.62
764.39	237.49
764.71	237.31
765.04	237.14
765.37	237.02
765.69	236.92
766.02	236.77
766.34	236.62
766.67	236.49
767.00	236.42
767.32	236.35
767.65	236.33
767.97	236.19
768.30	236.06
768.62	235.94
768.95	235.81
769.27	235.66
769.60	235.58
769.92	235.47
770.25	235.35
770.57	235.24
770.90	235.09
771.22	234.97
771.55	234.86
771.87	234.76
772.20	234.64
772.52	234.64
772.85	234.68
773.17	234.59
773.50	234.44
773.82	234.35
774.15	234.24
774.47	234.06
774.80	234.00
775.12	233.90
775.45	233.84
775.77	233.78
776.09	233.73
776.42	233.65
776.74	233.61
777.07	233.54
777.39	233.44
777.72	233.39
778.04	233.35
778.36	233.31
778.69	233.29
779.01	233.26
779.33	233.10
779.66	232.93
779.98	232.84
780.31	232.81
780.63	232.78
780.95	232.74
781.28	232.69
781.60	232.63
781.92	232.59
782.25	232.52
782.57	232.47
782.89	232.41
783.22	232.36
783.54	232.26
783.86	232.21
784.19	232.15
784.51	232.12
784.83	232.06
785.16	231.99
785.48	231.92
785.80	231.84
786.12	231.82
786.45	231.75
786.77	231.74
787.09	231.66
787.42	231.58
787.74	231.53
788.06	231.48
788.38	231.44
788.71	231.37
789.03	231.36
789.35	231.36
789.67	231.33
789.99	231.31
790.32	231.26
790.64	231.23
790.96	231.27
791.28	231.22
791.61	231.17
791.93	231.16
792.25	231.13
792.57	231.17
792.89	231.10
793.21	231.08
793.54	231.01
793.86	231.00
794.18	230.97
794.50	230.92
794.82	230.88
795.14	230.83
795.47	230.82
795.79	230.77
796.11	230.68
796.43	230.59
796.75	230.55
797.07	230.53
797.39	230.47
797.71	230.40
798.04	230.37
798.36	230.33
798.68	230.26
799.00	230.25
799.32	230.14
799.64	230.08
799.96	230.05
800.28	230.07
800.60	230.00
800.92	229.96
801.24	229.89
801.56	229.89
801.89	229.83
802.21	229.80
802.53	229.73
802.85	229.69
803.17	229.72
803.49	229.63
803.81	229.61
804.13	229.60
804.45	229.51
804.77	229.49
805.09	229.46
805.41	229.43
805.73	229.39
806.05	229.36
806.37	229.36
806.69	229.29
807.01	229.24
807.33	229.25
807.65	229.20
807.97	229.22
808.28	229.14
808.60	229.12
808.92	229.10
809.24	229.18
809.56	229.15
809.88	229.09
810.20	229.09
810.52	229.06
810.84	229.02
811.16	229.02
811.48	228.97
811.80	228.99
812.12	228.99
812.43	228.98
812.75	228.98
813.07	228.98
813.39	228.99
813.71	228.95
814.03	228.92
814.35	228.91
814.67	228.88
814.98	228.86
815.30	228.86
815.62	228.82
815.94	228.72
816.26	228.74
816.58	228.72
816.89	228.73
817.21	228.72
817.53	228.67
817.85	228.70
818.17	228.69
818.48	228.65
818.80	228.64
819.12	228.61
819.44	228.56
819.76	228.53
820.07	228.50
820.39	228.51
820.71	228.50
821.03	228.47
821.34	228.45
821.66	228.46
821.98	228.45
822.30	228.45
822.61	228.49
822.93	228.44
823.25	228.41
823.57	228.37
823.88	228.34
824.20	228.36
824.52	228.34
824.83	228.33
825.15	228.30
825.47	228.24
825.79	228.24
826.10	228.23
826.42	228.20
826.74	228.23
827.05	228.21
827.37	228.17
827.69	228.16
828.00	228.15
828.32	228.13
828.64	228.12
828.95	228.17
829.27	228.11
829.58	228.12
829.90	228.14
830.22	228.12
830.53	228.10
830.85	228.07
831.17	228.04
831.48	228.01
831.80	228.00
832.11	228.00
832.43	227.99
832.75	227.97
833.06	228.00
833.38	227.94
833.69	227.89
834.01	227.91
834.32	227.90
834.64	227.86
834.96	227.87
835.27	227.84
835.59	227.78
835.90	227.77
836.22	227.73
836.53	227.68
836.85	227.68
837.16	227.76
837.48	227.74
837.79	227.73
838.11	227.77
838.42	227.76
838.74	227.75
839.05	227.73
839.37	227.71
839.68	227.65
840.00	227.65
840.31	227.67
840.63	227.64
840.94	227.61
841.26	227.61
841.57	227.56
841.88	227.57
842.20	227.54
842.51	227.50
842.83	227.50
843.14	227.59
843.46	227.59
843.77	227.52
844.08	227.52
844.40	227.49
844.71	227.43
845.03	227.43
845.34	227.44
845.65	227.42
845.97	227.42
846.28	227.40
846.60	227.41
846.91	227.41
847.22	227.40
847.54	227.41
847.85	227.43
848.16	227.42
848.48	227.38
848.79	227.41
849.10	227.44
849.42	227.46
849.73	227.38
850.04	227.38
850.36	227.36
850.67	227.37
850.98	227.38
851.30	227.43
851.61	227.43
851.92	227.43
852.23	227.47
852.55	227.49
852.86	227.49
853.17	227.50
853.49	227.52
853.80	227.55
854.11	227.55
854.42	227.52
854.74	227.56
855.05	227.56
855.36	227.53
855.67	227.54
855.99	227.55
856.30	227.63
856.61	227.63
856.92	227.62
857.23	227.64
857.55	227.63
857.86	227.64
858.17	227.63
858.48	227.60
858.79	227.56
859.11	227.58
859.42	227.57
859.73	227.58
860.04	227.58
860.35	227.57
860.66	227.55
860.98	227.60
861.29	227.59
861.60	227.60
861.91	227.61
862.22	227.59
862.53	227.57
862.84	227.51
863.16	227.53
863.47	227.54
863.78	227.48
864.09	227.49
864.40	227.46
864.71	227.48
865.02	227.49
865.33	227.48
865.64	227.46
865.95	227.45
866.27	227.50
866.58	227.48
866.89	227.47
867.20	227.46
867.51	227.44
867.82	227.44
868.13	227.47
868.44	227.44
868.75	227.46
869.06	227.41
869.37	227.38
869.68	227.33
869.99	227.34
870.30	227.36
870.61	227.35
870.92	227.35
871.23	227.31
871.54	227.35
871.85	227.37
872.16	227.39
872.47	227.37
872.78	227.32
873.09	227.31
873.40	227.30
873.71	227.35
874.02	227.35
874.33	227.31
874.64	227.28
874.95	227.33
875.26	227.27
875.56	227.30
875.87	227.30
876.18	227.32
876.49	227.37
876.80	227.39
877.11	227.36
877.42	227.33
877.73	227.32
878.04	227.28
878.35	227.27
878.66	227.22
878.96	227.23
879.27	227.19
879.58	227.15
879.89	227.11
880.20	227.09
880.51	227.04
880.82	227.04
881.12	227.00
881.43	226.95
881.74	226.92
882.05	226.92
882.36	226.92
882.67	226.91
882.97	226.81
883.28	226.76
883.59	226.76
883.90	226.76
884.21	226.80
884.51	226.78
884.82	226.76
885.13	226.73
885.44	226.71
885.74	226.68
886.05	226.67
886.36	226.68
886.67	226.66
886.98	226.71
887.28	226.72
887.59	226.75
887.90	226.72
888.20	226.74
888.51	226.73
888.82	226.69
889.13	226.69
889.43	226.77
889.74	226.79
890.05	226.78
890.35	226.78
890.66	226.75
890.97	226.71
891.28	226.72
891.58	226.76
891.89	226.76
892.20	226.77
892.50	226.79
892.81	226.76
893.12	226.75
893.42	226.70
893.73	226.70
894.04	226.67
894.34	226.68
894.65	226.69
894.95	226.67
895.26	226.67
895.57	226.72
895.87	226.64
896.18	226.65
896.48	226.64
896.79	226.65
897.10	226.65
897.40	226.68
897.71	226.70
898.01	226.68
898.32	226.74
898.63	226.73
898.93	226.75
899.24	226.76
899.54	226.75
899.85	226.75
900.15	226.76
900.46	226.74
900.76	226.79
901.07	226.80
901.38	226.81
901.68	226.86
901.99	226.81
902.29	226.84
902.60	226.82
902.90	226.84
903.21	226.83
903.51	226.84
903.82	226.85
904.12	226.84
904.43	226.84
904.73	226.85
905.03	226.85
905.34	226.93
905.64	226.96
905.95	226.97
906.25	227.01
906.56	226.97
906.86	226.99
907.17	226.97
907.47	227.00
907.77	226.99
908.08	226.98
908.38	226.99
908.69	226.97
908.99	226.97
909.30	226.99
909.60	226.99
909.90	226.98
910.21	226.95
910.51	226.94
910.81	226.95
911.12	226.90
911.42	226.94
911.73	226.86
912.03	226.85
912.33	226.88
912.64	226.82
912.94	226.83
913.24	226.82
913.55	226.82
913.85	226.78
914.15	226.81
914.46	226.79
914.76	226.76
915.06	226.74
915.37	226.73
915.67	226.70
915.97	226.69
916.27	226.67
916.58	226.66
916.88	226.62
917.18	226.63
917.49	226.70
917.79	226.70
918.09	226.68
918.39	226.71
918.70	226.69
919.00	226.72
919.30	226.77
919.60	226.76
919.91	226.74
920.21	226.74
920.51	226.71
920.81	226.70
921.12	226.74
921.42	226.73
921.72	226.75
922.02	226.75
922.32	226.75
922.63	226.75
922.93	226.81
923.23	226.84
923.53	226.84
923.83	226.74
924.13	226.71
924.44	226.73
924.74	226.70
925.04	226.74
925.34	226.69
925.64	226.66
925.94	226.66
926.24	226.72
926.55	226.73
926.85	226.77
927.15	226.78
927.45	226.77
927.75	226.79
928.05	226.79
928.35	226.80
928.65	226.83
928.95	226.85
929.26	226.83
929.56	226.84
929.86	226.83
930.16	226.84
930.46	226.85
930.76	226.85
931.06	226.81
931.36	226.76
931.66	226.83
931.96	226.87
932.26	226.88
932.56	226.84
932.86	226.85
933.16	226.81
933.46	226.79
933.76	226.76
934.06	226.80
934.36	226.81
934.66	226.80
934.96	226.82
935.26	226.82
935.56	226.84
935.86	226.81
936.16	226.82
936.46	226.83
936.76	226.85
937.06	226.86
937.36	226.89
937.66	226.93
937.96	226.94
938.26	226.91
938.56	226.94
938.86	226.93
939.16	226.96
939.46	227.00
939.76	227.03
940.06	227.05
940.35	227.00
940.65	226.98
940.95	227.01
941.25	226.95
941.55	226.95
941.85	226.92
942.15	226.95
942.45	226.96
942.75	226.97
943.04	226.96
943.34	226.95
943.64	226.93
943.94	226.91
944.24	226.88
944.54	226.91
944.84	226.91
945.13	226.87
945.43	226.83
945.73	226.83
946.03	226.83
946.33	226.82
946.62	226.82
946.92	226.84
947.22	226.84
947.52	226.86
947.82	226.86
948.11	226.88
948.41	226.84
948.71	226.82
949.01	226.82
949.31	226.80
949.60	226.81
949.90	226.82
950.20	226.81
950.50	226.78
950.79	226.74
951.09	226.74
951.39	226.77
951.69	226.75
951.98	226.73
952.28	226.72
952.58	226.70
952.87	226.72
953.17	226.72
953.47	226.71
953.76	226.69
954.06	226.70
954.36	226.68
954.66	226.71
954.95	226.73
955.25	226.74
955.55	226.75
955.84	226.73
956.14	226.73
956.44	226.75
956.73	226.72
957.03	226.71
957.32	226.69
957.62	226.68
957.92	226.69
958.21	226.71
958.51	226.81
958.81	226.83
959.10	226.84
959.40	226.82
959.69	226.80
959.99	226.81
960.29	226.77
960.58	226.70
960.88	226.71
961.17	226.66
961.47	226.65
961.76	226.63
962.06	226.62
962.36	226.60
962.65	226.60
962.95	226.59
963.24	226.60
963.54	226.59
963.83	226.58
964.13	226.57
964.42	226.54
964.72	226.46
965.01	226.44
965.31	226.42
965.60	226.40
965.90	226.45
966.19	226.40
966.49	226.46
966.78	226.50
967.08	226.49
967.37	226.54
967.67	226.55
967.96	226.62
968.26	226.63
968.55	226.63
968.85	226.63
969.14	226.65
969.43	226.65
969.73	226.67
970.02	226.67
970.32	226.70
970.61	226.70
970.91	226.69
971.20	226.66
971.49	226.64
971.79	226.68
972.08	226.62
972.38	226.65
972.67	226.62
972.96	226.65
973.26	226.64
973.55	226.67
973.85	226.66
974.14	226.60
974.43	226.62
974.73	226.62
975.02	226.59
975.31	226.61
975.61	226.61
975.90	226.59
976.19	226.60
976.49	226.61
976.78	226.65
977.07	226.65
977.37	226.66
977.66	226.69
977.95	226.69
978.24	226.76
978.54	226.79
978.83	226.82
979.12	226.83
979.42	226.85
979.71	226.81
980.00	226.80
980.29	226.81
980.59	226.80
980.88	226.79
981.17	226.81
981.46	226.79
981.76	226.83
982.05	226.89
982.34	226.87
982.63	226.89
982.93	226.87
983.22	226.91
983.51	226.94
983.80	226.94
984.09	226.97
984.39	226.93
984.68	226.90
984.97	226.90
985.26	226.86
985.55	226.83
985.85	226.84
986.14	226.89
986.43	226.92
986.72	226.91
987.01	226.91
987.30	226.92
987.59	226.92
987.89	226.90
988.18	226.86
988.47	226.88
988.76	226.83
989.05	226.78
989.34	226.73
989.63	226.76
989.92	226.72
990.22	226.67
990.51	226.64
990.80	226.63
991.09	226.62
991.38	226.63
991.67	226.62
991.96	226.60
992.25	226.61
992.54	226.55
992.83	226.54
993.12	226.53
993.41	226.51
993.70	226.54
993.99	226.52
994.28	226.51
994.58	226.55
994.87	226.49
995.16	226.53
995.45	226.50
995.74	226.46
996.03	226.48
996.32	226.47
996.61	226.53
996.90	226.53
997.19	226.50
997.48	226.47
997.77	226.45
998.06	226.42
998.34	226.35
998.63	226.36
998.92	226.34
999.21	226.35
999.50	226.37
999.79	226.33
1000.08	226.33
1000.37	226.29
1000.66	226.25
1000.95	226.32
1001.24	226.31
1001.53	226.36
1001.82	226.34
1002.11	226.34
1002.40	226.37
1002.68	226.38
1002.97	226.45
1003.26	226.44
1003.55	226.46
1003.84	226.50
1004.13	226.54
1004.42	226.56
1004.71	226.58
1004.99	226.59
1005.28	226.61
1005.57	226.60
1005.86	226.62
1006.15	226.65
1006.44	226.65
1006.72	226.65
1007.01	226.63
1007.30	226.65
1007.59	226.65
1007.88	226.66
1008.17	226.66
1008.45	226.61
1008.74	226.57
1009.03	226.51
1009.32	226.53
1009.60	226.54
1009.89	226.54
1010.18	226.53
1010.47	226.53
1010.76	226.52
1011.04	226.56
1011.33	226.58
1011.62	226.59
1011.91	226.59
1012.19	226.58
1012.48	226.60
1012.77	226.60
1013.05	226.63
1013.34	226.62
1013.63	226.57
1013.92	226.57
1014.20	226.58
1014.49	226.65
1014.78	226.64
1015.06	226.60
1015.35	226.62
1015.64	226.64
1015.92	226.69
1016.21	226.67
1016.50	226.68
1016.78	226.70
1017.07	226.73
1017.36	226.68
1017.64	226.69
1017.93	226.70
1018.22	226.68
1018.50	226.69
1018.79	226.68
1019.08	226.66
1019.36	226.65
1019.65	226.68
1019.93	226.72
1020.22	226.72
1020.51	226.72
1020.79	226.74
1021.08	225.98
1021.36	226.55
1021.65	226.64
1021.94	226.69
1022.22	226.20
1022.51	226.54
1022.79	227.34
1023.08	226.78
1023.36	227.28
1023.65	226.94
>>>>>End Processed Spectral Data<<<<<
