SpectraSuite Data File
++++++++++++++++++++++++++++++++++++
Date: Fri Feb 01 15:45:52 EST 2013
User: group
Dark Spectrum Present: No
Reference Spectrum Present: No
Number of Sampled Component Spectra: 1
Spectrometers: USB2E7196
Integration Time (usec): 35000 (USB2E7196)
Spectra Averaged: 100 (USB2E7196)
Boxcar Smoothing: 10 (USB2E7196)
Correct for Electrical Dark: No (USB2E7196)
Strobe/Lamp Enabled: No (USB2E7196)
Correct for Detector Non-linearity: No (USB2E7196)
Correct for Stray Light: No (USB2E7196)
Number of Pixels in Processed Spectrum: 2048
>>>>>Begin Processed Spectral Data<<<<<
339.09	0.00
339.48	214.96
339.86	216.53
340.24	217.59
340.63	219.43
341.01	222.46
341.39	222.01
341.78	222.74
342.16	224.38
342.54	225.54
342.93	213.25
343.31	224.04
343.69	224.58
344.07	225.02
344.46	225.43
344.84	225.81
345.22	226.02
345.60	226.27
345.99	226.49
346.37	226.64
346.75	226.72
347.13	226.80
347.52	226.88
347.90	226.99
348.28	227.05
348.66	227.10
349.05	227.06
349.43	227.11
349.81	227.15
350.19	227.20
350.57	227.26
350.96	227.38
351.34	227.48
351.72	227.58
352.10	227.69
352.48	227.79
352.87	227.84
353.25	227.92
353.63	227.99
354.01	228.07
354.39	228.14
354.77	228.22
355.15	228.32
355.54	228.36
355.92	228.39
356.30	228.44
356.68	228.56
357.06	228.68
357.44	228.74
357.82	228.80
358.20	228.88
358.58	228.94
358.97	228.97
359.35	229.02
359.73	229.10
360.11	229.15
360.49	229.20
360.87	229.24
361.25	229.29
361.63	229.34
362.01	229.36
362.39	229.37
362.77	229.41
363.15	229.41
363.53	229.45
363.91	229.46
364.29	229.47
364.67	229.38
365.05	229.37
365.43	229.41
365.81	229.44
366.19	229.46
366.57	229.51
366.95	229.45
367.33	229.41
367.71	229.37
368.09	229.40
368.47	229.36
368.85	229.32
369.23	229.32
369.61	229.26
369.99	229.22
370.37	229.18
370.75	229.14
371.13	229.10
371.51	229.03
371.89	228.99
372.27	228.98
372.65	228.94
373.03	228.94
373.41	228.84
373.78	228.74
374.16	228.64
374.54	228.51
374.92	228.45
375.30	228.37
375.68	228.30
376.06	228.21
376.44	228.15
376.82	228.11
377.19	228.02
377.57	227.95
377.95	227.87
378.33	227.83
378.71	227.72
379.09	227.66
379.47	227.59
379.84	227.51
380.22	227.42
380.60	227.33
380.98	227.24
381.36	227.18
381.73	227.10
382.11	227.07
382.49	227.03
382.87	226.97
383.25	226.93
383.62	226.98
384.00	226.90
384.38	226.83
384.76	226.80
385.13	226.79
385.51	226.74
385.89	226.71
386.27	226.65
386.64	226.63
387.02	226.59
387.40	226.55
387.78	226.54
388.15	226.54
388.53	226.49
388.91	226.45
389.29	226.42
389.66	226.44
390.04	226.40
390.42	226.42
390.79	226.43
391.17	226.41
391.55	226.25
391.92	226.27
392.30	226.28
392.68	226.26
393.05	226.27
393.43	226.30
393.81	226.32
394.18	226.34
394.56	226.36
394.94	226.40
395.31	226.42
395.69	226.47
396.06	226.48
396.44	226.54
396.82	226.58
397.19	226.66
397.57	226.68
397.95	226.73
398.32	226.70
398.70	226.78
399.07	226.86
399.45	226.96
399.82	227.02
400.20	227.11
400.58	227.17
400.95	227.17
401.33	227.28
401.70	227.40
402.08	227.50
402.45	227.58
402.83	227.70
403.20	227.79
403.58	227.89
403.95	228.01
404.33	228.11
404.71	228.22
405.08	228.41
405.46	228.54
405.83	228.70
406.21	228.91
406.58	229.04
406.96	229.20
407.33	229.38
407.70	229.58
408.08	229.84
408.45	230.09
408.83	230.33
409.20	230.50
409.58	230.66
409.95	230.90
410.33	231.19
410.70	231.43
411.08	231.77
411.45	232.06
411.82	232.34
412.20	232.73
412.57	233.12
412.95	233.43
413.32	233.85
413.69	234.24
414.07	234.66
414.44	235.14
414.82	235.65
415.19	236.21
415.56	236.73
415.94	237.22
416.31	237.82
416.68	238.47
417.06	239.24
417.43	239.94
417.81	240.68
418.18	241.44
418.55	242.25
418.93	243.12
419.30	244.05
419.67	245.02
420.04	245.96
420.42	246.98
420.79	248.14
421.16	249.33
421.54	250.53
421.91	251.76
422.28	253.00
422.66	254.30
423.03	255.57
423.40	256.91
423.77	258.34
424.15	259.79
424.52	261.25
424.89	262.82
425.26	264.36
425.64	265.87
426.01	267.45
426.38	269.11
426.75	270.76
427.13	272.41
427.50	274.23
427.87	276.13
428.24	277.97
428.61	279.71
428.99	281.63
429.36	283.71
429.73	285.79
430.10	287.82
430.47	289.90
430.85	292.05
431.22	294.30
431.59	296.69
431.96	298.94
432.33	301.46
432.70	303.89
433.08	306.70
433.45	309.32
433.82	311.94
434.19	314.83
434.56	317.62
434.93	320.31
435.30	322.92
435.68	325.79
436.05	328.67
436.42	331.48
436.79	333.99
437.16	336.72
437.53	339.53
437.90	342.37
438.27	345.12
438.64	347.95
439.01	350.56
439.38	352.77
439.75	354.91
440.13	357.40
440.50	359.74
440.87	361.58
441.24	363.53
441.61	365.69
441.98	367.24
442.35	369.09
442.72	370.95
443.09	372.77
443.46	373.76
443.83	374.33
444.20	374.84
444.57	375.70
444.94	375.95
445.31	376.30
445.68	376.65
446.05	376.68
446.42	376.30
446.79	375.84
447.16	375.41
447.53	375.12
447.90	373.94
448.27	372.71
448.64	371.16
449.01	370.03
449.37	368.06
449.74	366.08
450.11	363.79
450.48	361.35
450.85	358.82
451.22	356.67
451.59	354.66
451.96	352.73
452.33	350.09
452.70	347.75
453.07	344.88
453.43	341.96
453.80	339.21
454.17	336.55
454.54	334.03
454.91	331.29
455.28	328.59
455.65	326.09
456.02	323.65
456.38	321.51
456.75	318.83
457.12	316.58
457.49	314.38
457.86	312.22
458.23	310.36
458.59	308.30
458.96	306.22
459.33	304.35
459.70	302.48
460.07	300.96
460.43	299.25
460.80	297.64
461.17	296.21
461.54	294.70
461.91	293.25
462.27	291.79
462.64	290.50
463.01	289.13
463.38	287.87
463.74	286.50
464.11	285.32
464.48	284.29
464.85	283.13
465.21	282.28
465.58	281.33
465.95	280.23
466.32	279.31
466.68	278.42
467.05	277.52
467.42	276.61
467.78	275.68
468.15	274.78
468.52	274.13
468.88	273.24
469.25	272.47
469.62	271.84
469.98	271.21
470.35	270.57
470.72	270.01
471.08	269.36
471.45	268.83
471.82	268.27
472.18	267.67
472.55	267.25
472.92	266.72
473.28	266.29
473.65	265.81
474.02	265.38
474.38	264.99
474.75	264.64
475.11	264.31
475.48	264.07
475.85	263.86
476.21	263.62
476.58	263.48
476.94	263.37
477.31	263.23
477.67	263.04
478.04	262.99
478.41	262.86
478.77	262.90
479.14	262.84
479.50	262.84
479.87	262.88
480.23	262.97
480.60	263.04
480.96	263.13
481.33	263.39
481.69	263.63
482.06	263.87
482.42	264.11
482.79	264.39
483.15	264.71
483.52	265.10
483.88	265.46
484.25	265.88
484.61	266.28
484.98	266.72
485.34	267.30
485.71	267.86
486.07	268.54
486.44	269.09
486.80	269.78
487.17	270.56
487.53	271.44
487.90	272.31
488.26	273.24
488.62	274.23
488.99	275.20
489.35	276.20
489.72	277.29
490.08	278.48
490.44	279.73
490.81	281.04
491.17	282.36
491.54	283.82
491.90	285.32
492.26	286.97
492.63	288.71
492.99	290.50
493.36	292.40
493.72	294.44
494.08	296.57
494.45	298.87
494.81	301.22
495.17	303.63
495.54	306.17
495.90	308.89
496.26	311.69
496.63	314.64
496.99	317.74
497.35	321.03
497.72	324.42
498.08	327.91
498.44	331.60
498.80	335.53
499.17	339.61
499.53	343.80
499.89	348.13
500.26	352.69
500.62	357.32
500.98	362.35
501.34	367.38
501.71	372.66
502.07	378.04
502.43	383.73
502.79	389.47
503.16	395.58
503.52	401.89
503.88	408.26
504.24	414.91
504.60	421.74
504.97	428.88
505.33	436.25
505.69	443.92
506.05	451.70
506.41	459.58
506.78	467.65
507.14	476.12
507.50	484.87
507.86	493.84
508.22	503.05
508.59	512.24
508.95	521.86
509.31	531.74
509.67	541.85
510.03	552.07
510.39	562.67
510.75	573.44
511.12	584.36
511.48	595.68
511.84	607.09
512.20	618.66
512.56	630.61
512.92	642.80
513.28	655.16
513.64	667.67
514.00	680.33
514.37	693.29
514.73	706.34
515.09	719.37
515.45	732.64
515.81	746.26
516.17	760.23
516.53	774.40
516.89	788.56
517.25	802.76
517.61	817.27
517.97	831.72
518.33	846.21
518.69	861.00
519.05	876.04
519.41	891.20
519.77	906.77
520.13	922.21
520.49	937.54
520.85	953.04
521.21	968.74
521.57	985.06
521.93	1000.85
522.29	1017.26
522.65	1033.52
523.01	1049.77
523.37	1065.78
523.73	1082.00
524.09	1098.11
524.45	1114.50
524.81	1131.12
525.17	1147.83
525.53	1164.72
525.89	1181.59
526.25	1198.40
526.61	1214.90
526.97	1231.69
527.33	1248.16
527.68	1264.75
528.04	1281.26
528.40	1297.81
528.76	1314.84
529.12	1331.48
529.48	1348.46
529.84	1364.43
530.20	1381.05
530.56	1398.01
530.91	1415.38
531.27	1432.13
531.63	1448.65
531.99	1465.16
532.35	1481.15
532.71	1497.01
533.07	1513.40
533.42	1529.29
533.78	1545.36
534.14	1561.53
534.50	1576.80
534.86	1592.75
535.21	1607.95
535.57	1623.94
535.93	1639.62
536.29	1654.47
536.65	1669.55
537.00	1684.24
537.36	1699.62
537.72	1714.17
538.08	1728.63
538.44	1742.47
538.79	1756.33
539.15	1769.93
539.51	1783.62
539.87	1797.83
540.22	1811.71
540.58	1825.31
540.94	1838.73
541.29	1851.64
541.65	1864.37
542.01	1877.56
542.37	1889.80
542.72	1902.17
543.08	1913.93
543.44	1926.13
543.79	1937.33
544.15	1948.37
544.51	1959.86
544.87	1970.84
545.22	1981.72
545.58	1991.79
545.94	2001.55
546.29	2011.32
546.65	2021.06
547.01	2030.33
547.36	2039.15
547.72	2047.69
548.07	2055.62
548.43	2063.68
548.79	2071.62
549.14	2078.99
549.50	2086.54
549.86	2094.26
550.21	2101.75
550.57	2108.86
550.92	2115.48
551.28	2122.63
551.64	2129.58
551.99	2136.21
552.35	2142.23
552.70	2148.33
553.06	2154.47
553.41	2160.87
553.77	2167.01
554.13	2173.13
554.48	2179.14
554.84	2184.62
555.19	2189.80
555.55	2194.80
555.90	2199.30
556.26	2204.27
556.61	2209.07
556.97	2213.10
557.32	2217.16
557.68	2221.13
558.03	2225.54
558.39	2229.23
558.74	2233.74
559.10	2237.49
559.45	2241.09
559.81	2245.45
560.16	2249.32
560.52	2252.54
560.87	2256.02
561.23	2258.66
561.58	2261.73
561.94	2264.33
562.29	2266.82
562.64	2269.41
563.00	2272.10
563.35	2275.60
563.71	2278.75
564.06	2281.99
564.42	2284.90
564.77	2287.51
565.12	2289.63
565.48	2291.26
565.83	2292.98
566.19	2294.24
566.54	2295.31
566.89	2296.54
567.25	2297.11
567.60	2298.34
567.96	2299.89
568.31	2300.61
568.66	2301.60
569.02	2301.98
569.37	2302.29
569.72	2303.01
570.08	2303.11
570.43	2303.02
570.78	2302.34
571.14	2300.72
571.49	2299.29
571.84	2298.94
572.20	2297.62
572.55	2296.71
572.90	2295.25
573.26	2293.94
573.61	2292.23
573.96	2290.49
574.31	2287.41
574.67	2284.47
575.02	2280.83
575.37	2277.43
575.72	2273.53
576.08	2270.20
576.43	2267.05
576.78	2263.44
577.13	2260.34
577.49	2257.35
577.84	2253.93
578.19	2250.27
578.54	2246.64
578.90	2242.47
579.25	2236.94
579.60	2232.10
579.95	2227.01
580.30	2221.93
580.66	2216.83
581.01	2211.97
581.36	2206.89
581.71	2202.91
582.06	2198.38
582.42	2193.95
582.77	2188.88
583.12	2184.40
583.47	2179.77
583.82	2174.76
584.17	2169.42
584.53	2163.88
584.88	2158.08
585.23	2152.34
585.58	2146.76
585.93	2141.21
586.28	2136.40
586.63	2131.37
586.98	2126.31
587.34	2121.70
587.69	2116.84
588.04	2111.49
588.39	2105.76
588.74	2099.31
589.09	2092.93
589.44	2086.10
589.79	2080.18
590.14	2074.52
590.49	2067.93
590.84	2061.45
591.19	2055.31
591.54	2048.92
591.89	2041.45
592.25	2034.73
592.60	2027.69
592.95	2020.12
593.30	2012.63
593.65	2005.13
594.00	1998.02
594.35	1990.63
594.70	1982.51
595.05	1975.23
595.40	1967.99
595.75	1960.55
596.10	1954.26
596.45	1947.48
596.80	1941.30
597.15	1934.52
597.50	1927.33
597.85	1920.99
598.19	1914.45
598.54	1907.23
598.89	1900.52
599.24	1894.64
599.59	1887.88
599.94	1881.50
600.29	1875.27
600.64	1868.87
600.99	1861.33
601.34	1854.48
601.69	1847.72
602.04	1840.80
602.39	1833.49
602.74	1826.58
603.08	1819.80
603.43	1813.13
603.78	1805.80
604.13	1798.58
604.48	1791.24
604.83	1784.43
605.18	1777.27
605.53	1769.16
605.87	1761.16
606.22	1754.01
606.57	1746.05
606.92	1738.77
607.27	1731.57
607.62	1724.62
607.96	1717.29
608.31	1710.55
608.66	1702.96
609.01	1695.22
609.36	1687.71
609.70	1679.67
610.05	1671.65
610.40	1663.91
610.75	1655.57
611.10	1648.02
611.44	1639.59
611.79	1631.53
612.14	1622.77
612.49	1613.57
612.83	1605.29
613.18	1597.21
613.53	1589.09
613.88	1580.50
614.22	1572.16
614.57	1563.68
614.92	1555.55
615.27	1547.98
615.61	1539.74
615.96	1531.79
616.31	1524.24
616.65	1516.94
617.00	1509.38
617.35	1501.78
617.70	1493.39
618.04	1484.82
618.39	1476.45
618.74	1469.04
619.08	1460.76
619.43	1453.19
619.78	1446.38
620.12	1439.10
620.47	1431.70
620.82	1423.50
621.16	1416.10
621.51	1408.56
621.85	1400.91
622.20	1392.36
622.55	1383.94
622.89	1376.14
623.24	1368.48
623.59	1361.13
623.93	1353.60
624.28	1346.40
624.62	1338.87
624.97	1331.78
625.32	1325.20
625.66	1318.23
626.01	1310.93
626.35	1303.57
626.70	1295.80
627.04	1288.04
627.39	1280.30
627.73	1272.72
628.08	1265.82
628.43	1258.53
628.77	1251.07
629.12	1243.47
629.46	1236.38
629.81	1229.07
630.15	1221.82
630.50	1214.31
630.84	1206.04
631.19	1198.06
631.53	1190.64
631.88	1183.07
632.22	1175.42
632.57	1168.04
632.91	1160.51
633.26	1153.12
633.60	1145.76
633.95	1138.76
634.29	1131.80
634.64	1125.13
634.98	1117.79
635.32	1110.61
635.67	1103.99
636.01	1097.45
636.36	1090.56
636.70	1084.00
637.05	1077.37
637.39	1070.96
637.73	1064.49
638.08	1058.55
638.42	1052.58
638.77	1046.02
639.11	1039.35
639.45	1032.90
639.80	1026.23
640.14	1019.77
640.49	1013.15
640.83	1006.79
641.17	1000.45
641.52	994.05
641.86	987.57
642.20	981.81
642.55	975.64
642.89	969.18
643.23	962.58
643.58	956.86
643.92	950.68
644.26	944.58
644.61	938.51
644.95	932.41
645.29	925.86
645.64	919.11
645.98	912.86
646.32	906.98
646.66	900.98
647.01	895.14
647.35	889.51
647.69	883.68
648.04	878.20
648.38	872.41
648.72	866.31
649.06	860.20
649.41	854.33
649.75	848.30
650.09	842.35
650.43	836.59
650.78	830.45
651.12	824.51
651.46	818.84
651.80	813.03
652.14	807.76
652.49	802.45
652.83	797.27
653.17	791.39
653.51	785.75
653.85	780.41
654.20	774.71
654.54	768.65
654.88	762.96
655.22	757.02
655.56	751.37
655.90	746.05
656.25	740.87
656.59	735.45
656.93	730.31
657.27	725.08
657.61	719.67
657.95	714.52
658.29	709.44
658.64	704.09
658.98	698.82
659.32	693.29
659.66	688.00
660.00	682.65
660.34	677.82
660.68	672.87
661.02	667.73
661.36	663.05
661.70	658.51
662.05	654.12
662.39	649.75
662.73	645.28
663.07	640.81
663.41	636.33
663.75	631.83
664.09	627.30
664.43	622.97
664.77	618.82
665.11	614.61
665.45	610.46
665.79	606.50
666.13	602.39
666.47	598.32
666.81	594.11
667.15	589.98
667.49	586.14
667.83	582.36
668.17	578.47
668.51	574.42
668.85	570.44
669.19	566.61
669.53	562.78
669.87	558.91
670.21	555.26
670.55	551.67
670.89	548.25
671.23	544.78
671.57	541.26
671.91	537.67
672.25	534.21
672.58	530.70
672.92	527.26
673.26	524.10
673.60	520.96
673.94	517.99
674.28	515.10
674.62	512.09
674.96	508.99
675.30	506.09
675.64	503.16
675.97	500.41
676.31	497.56
676.65	494.60
676.99	491.90
677.33	489.05
677.67	486.20
678.01	483.10
678.34	480.13
678.68	477.31
679.02	474.53
679.36	471.75
679.70	469.00
680.04	466.21
680.37	463.27
680.71	460.47
681.05	457.78
681.39	455.01
681.73	452.40
682.06	449.83
682.40	447.25
682.74	444.75
683.08	442.18
683.42	439.60
683.75	437.13
684.09	434.60
684.43	432.10
684.77	429.63
685.10	427.32
685.44	425.02
685.78	422.70
686.12	420.45
686.45	418.13
686.79	415.86
687.13	413.72
687.46	411.57
687.80	409.44
688.14	407.25
688.48	405.25
688.81	402.97
689.15	400.81
689.49	398.68
689.82	396.57
690.16	394.45
690.50	392.48
690.83	390.49
691.17	388.51
691.51	386.63
691.84	384.77
692.18	382.80
692.52	380.78
692.85	378.84
693.19	376.98
693.52	375.17
693.86	373.36
694.20	371.55
694.53	369.75
694.87	367.91
695.21	366.13
695.54	364.28
695.88	362.56
696.21	360.85
696.55	359.19
696.88	357.50
697.22	355.88
697.56	354.28
697.89	352.62
698.23	350.95
698.56	349.33
698.90	347.75
699.23	346.12
699.57	344.57
699.90	343.05
700.24	341.52
700.58	339.96
700.91	338.43
701.25	336.97
701.58	335.62
701.92	334.27
702.25	332.88
702.59	331.51
702.92	330.18
703.26	328.87
703.59	327.54
703.93	326.37
704.26	325.11
704.60	323.79
704.93	322.53
705.26	321.31
705.60	320.12
705.93	318.98
706.27	317.99
706.60	316.96
706.94	315.83
707.27	314.72
707.61	313.68
707.94	312.71
708.27	311.62
708.61	310.56
708.94	309.54
709.28	308.58
709.61	307.64
709.94	306.69
710.28	305.66
710.61	304.70
710.95	303.64
711.28	302.77
711.61	301.83
711.95	300.96
712.28	300.06
712.61	299.10
712.95	298.12
713.28	297.23
713.61	296.33
713.95	295.51
714.28	294.69
714.61	293.82
714.95	292.97
715.28	292.12
715.61	291.24
715.95	290.39
716.28	289.55
716.61	288.74
716.95	287.94
717.28	287.23
717.61	286.47
717.94	285.74
718.28	284.93
718.61	284.19
718.94	283.49
719.27	282.83
719.61	282.20
719.94	281.56
720.27	280.83
720.60	280.17
720.94	279.54
721.27	278.91
721.60	278.39
721.93	277.78
722.27	277.25
722.60	276.72
722.93	276.16
723.26	275.63
723.59	275.04
723.93	274.51
724.26	273.97
724.59	273.43
724.92	272.93
725.25	272.41
725.59	271.92
725.92	271.43
726.25	270.90
726.58	270.38
726.91	269.87
727.24	269.40
727.57	268.95
727.91	268.42
728.24	267.97
728.57	267.39
728.90	266.95
729.23	266.47
729.56	266.00
729.89	265.50
730.22	264.99
730.55	264.51
730.89	264.06
731.22	263.60
731.55	263.13
731.88	262.65
732.21	262.23
732.54	261.77
732.87	261.32
733.20	260.93
733.53	260.54
733.86	260.18
734.19	259.77
734.52	259.37
734.85	259.06
735.18	258.63
735.51	258.29
735.84	257.91
736.17	257.53
736.50	257.11
736.83	256.88
737.16	256.55
737.49	256.21
737.82	255.84
738.15	255.48
738.48	255.17
738.81	254.84
739.14	254.52
739.47	254.21
739.80	253.89
740.13	253.61
740.46	253.24
740.79	252.90
741.12	252.59
741.45	252.28
741.78	251.92
742.11	251.63
742.44	251.31
742.77	251.02
743.10	250.72
743.43	250.45
743.75	250.07
744.08	249.90
744.41	249.63
744.74	249.36
745.07	249.09
745.40	248.84
745.73	248.62
746.06	248.33
746.39	248.11
746.71	247.85
747.04	247.51
747.37	247.30
747.70	247.10
748.03	246.86
748.36	246.66
748.68	246.42
749.01	246.18
749.34	245.96
749.67	245.70
750.00	245.50
750.33	245.36
750.65	245.15
750.98	244.85
751.31	244.65
751.64	244.46
751.97	244.33
752.29	244.09
752.62	243.86
752.95	243.67
753.28	243.46
753.60	243.28
753.93	243.11
754.26	242.90
754.59	242.65
754.91	242.48
755.24	242.26
755.57	242.09
755.90	241.90
756.22	241.72
756.55	241.54
756.88	241.33
757.20	241.09
757.53	240.92
757.86	240.75
758.19	240.61
758.51	240.42
758.84	240.22
759.17	240.08
759.49	239.91
759.82	239.77
760.15	239.59
760.47	239.44
760.80	239.27
761.13	239.15
761.45	239.04
761.78	238.86
762.11	238.73
762.43	238.58
762.76	238.47
763.08	238.34
763.41	238.21
763.74	238.06
764.06	237.95
764.39	237.76
764.71	237.61
765.04	237.46
765.37	237.34
765.69	237.18
766.02	237.02
766.34	236.87
766.67	236.73
767.00	236.62
767.32	236.55
767.65	236.50
767.97	236.36
768.30	236.20
768.62	236.08
768.95	235.93
769.27	235.80
769.60	235.67
769.92	235.51
770.25	235.38
770.57	235.28
770.90	235.15
771.22	235.04
771.55	234.95
771.87	234.85
772.20	234.74
772.52	234.73
772.85	234.77
773.17	234.70
773.50	234.59
773.82	234.48
774.15	234.33
774.47	234.19
774.80	234.11
775.12	234.02
775.45	233.91
775.77	233.83
776.09	233.73
776.42	233.65
776.74	233.61
777.07	233.50
777.39	233.37
777.72	233.29
778.04	233.25
778.36	233.13
778.69	233.05
779.01	232.98
779.33	232.81
779.66	232.62
779.98	232.53
780.31	232.45
780.63	232.42
780.95	232.38
781.28	232.30
781.60	232.20
781.92	232.19
782.25	232.14
782.57	232.11
782.89	232.06
783.22	231.97
783.54	231.89
783.86	231.83
784.19	231.80
784.51	231.76
784.83	231.69
785.16	231.68
785.48	231.61
785.80	231.57
786.12	231.55
786.45	231.51
786.77	231.46
787.09	231.42
787.42	231.39
787.74	231.35
788.06	231.32
788.38	231.28
788.71	231.19
789.03	231.17
789.35	231.16
789.67	231.14
789.99	231.13
790.32	231.09
790.64	231.09
790.96	231.14
791.28	231.08
791.61	231.05
791.93	231.01
792.25	230.99
792.57	231.02
792.89	230.96
793.21	230.96
793.54	230.96
793.86	230.90
794.18	230.84
794.50	230.77
794.82	230.75
795.14	230.75
795.47	230.76
795.79	230.71
796.11	230.64
796.43	230.60
796.75	230.58
797.07	230.57
797.39	230.54
797.71	230.43
798.04	230.40
798.36	230.37
798.68	230.32
799.00	230.28
799.32	230.21
799.64	230.19
799.96	230.10
800.28	230.10
800.60	230.08
800.92	230.03
801.24	230.00
801.56	229.98
801.89	229.95
802.21	229.92
802.53	229.86
802.85	229.86
803.17	229.87
803.49	229.80
803.81	229.74
804.13	229.71
804.45	229.66
804.77	229.65
805.09	229.65
805.41	229.64
805.73	229.58
806.05	229.53
806.37	229.48
806.69	229.49
807.01	229.46
807.33	229.43
807.65	229.35
807.97	229.37
808.28	229.32
808.60	229.28
808.92	229.23
809.24	229.26
809.56	229.20
809.88	229.14
810.20	229.14
810.52	229.14
810.84	229.08
811.16	229.06
811.48	229.01
811.80	228.99
812.12	228.94
812.43	228.97
812.75	228.95
813.07	228.94
813.39	228.87
813.71	228.80
814.03	228.76
814.35	228.76
814.67	228.66
814.98	228.63
815.30	228.62
815.62	228.57
815.94	228.48
816.26	228.51
816.58	228.46
816.89	228.44
817.21	228.40
817.53	228.39
817.85	228.38
818.17	228.35
818.48	228.28
818.80	228.27
819.12	228.20
819.44	228.16
819.76	228.11
820.07	228.10
820.39	228.10
820.71	228.11
821.03	228.10
821.34	228.11
821.66	228.09
821.98	228.08
822.30	228.06
822.61	228.12
822.93	228.04
823.25	228.03
823.57	227.97
823.88	228.01
824.20	227.97
824.52	227.99
824.83	227.98
825.15	227.97
825.47	227.95
825.79	227.98
826.10	227.97
826.42	227.97
826.74	227.99
827.05	227.94
827.37	227.95
827.69	227.93
828.00	227.93
828.32	227.91
828.64	227.89
828.95	227.94
829.27	227.90
829.58	227.90
829.90	227.90
830.22	227.94
830.53	227.88
830.85	227.92
831.17	227.89
831.48	227.89
831.80	227.88
832.11	227.87
832.43	227.85
832.75	227.85
833.06	227.89
833.38	227.86
833.69	227.87
834.01	227.90
834.32	227.91
834.64	227.90
834.96	227.92
835.27	227.91
835.59	227.87
835.90	227.87
836.22	227.87
836.53	227.90
836.85	227.86
837.16	227.98
837.48	227.95
837.79	228.01
838.11	228.02
838.42	228.04
838.74	228.06
839.05	228.05
839.37	228.05
839.68	228.04
840.00	228.02
840.31	228.03
840.63	227.98
840.94	227.96
841.26	227.95
841.57	227.95
841.88	227.98
842.20	228.01
842.51	228.00
842.83	227.98
843.14	228.05
843.46	228.09
843.77	228.00
844.08	228.00
844.40	227.92
844.71	227.89
845.03	227.86
845.34	227.82
845.65	227.80
845.97	227.76
846.28	227.74
846.60	227.77
846.91	227.77
847.22	227.78
847.54	227.77
847.85	227.77
848.16	227.73
848.48	227.67
848.79	227.66
849.10	227.63
849.42	227.63
849.73	227.52
850.04	227.44
850.36	227.42
850.67	227.43
850.98	227.42
851.30	227.41
851.61	227.42
851.92	227.42
852.23	227.44
852.55	227.44
852.86	227.45
853.17	227.40
853.49	227.40
853.80	227.39
854.11	227.40
854.42	227.41
854.74	227.39
855.05	227.43
855.36	227.39
855.67	227.40
855.99	227.39
856.30	227.49
856.61	227.51
856.92	227.53
857.23	227.51
857.55	227.52
857.86	227.50
858.17	227.50
858.48	227.50
858.79	227.49
859.11	227.49
859.42	227.47
859.73	227.46
860.04	227.47
860.35	227.45
860.66	227.44
860.98	227.41
861.29	227.44
861.60	227.38
861.91	227.37
862.22	227.34
862.53	227.31
862.84	227.20
863.16	227.22
863.47	227.16
863.78	227.12
864.09	227.09
864.40	227.12
864.71	227.13
865.02	227.10
865.33	227.09
865.64	227.12
865.95	227.14
866.27	227.22
866.58	227.19
866.89	227.18
867.20	227.19
867.51	227.18
867.82	227.19
868.13	227.21
868.44	227.21
868.75	227.26
869.06	227.30
869.37	227.33
869.68	227.31
869.99	227.36
870.30	227.36
870.61	227.40
870.92	227.40
871.23	227.40
871.54	227.44
871.85	227.47
872.16	227.43
872.47	227.40
872.78	227.32
873.09	227.36
873.40	227.35
873.71	227.34
874.02	227.37
874.33	227.33
874.64	227.34
874.95	227.33
875.26	227.29
875.56	227.27
875.87	227.25
876.18	227.27
876.49	227.36
876.80	227.37
877.11	227.32
877.42	227.30
877.73	227.32
878.04	227.29
878.35	227.27
878.66	227.28
878.96	227.27
879.27	227.28
879.58	227.26
879.89	227.23
880.20	227.27
880.51	227.25
880.82	227.26
881.12	227.24
881.43	227.27
881.74	227.25
882.05	227.27
882.36	227.28
882.67	227.24
882.97	227.09
883.28	227.05
883.59	227.05
883.90	227.07
884.21	227.04
884.51	227.04
884.82	227.00
885.13	227.03
885.44	227.02
885.74	227.02
886.05	227.00
886.36	227.02
886.67	226.98
886.98	227.04
887.28	227.03
887.59	227.04
887.90	227.03
888.20	227.04
888.51	226.98
888.82	226.97
889.13	227.00
889.43	227.09
889.74	227.10
890.05	227.12
890.35	227.10
890.66	227.09
890.97	227.07
891.28	227.09
891.58	227.06
891.89	227.05
892.20	227.02
892.50	226.99
892.81	226.96
893.12	226.95
893.42	226.87
893.73	226.90
894.04	226.87
894.34	226.84
894.65	226.82
894.95	226.83
895.26	226.84
895.57	226.87
895.87	226.78
896.18	226.79
896.48	226.79
896.79	226.77
897.10	226.77
897.40	226.76
897.71	226.73
898.01	226.68
898.32	226.68
898.63	226.66
898.93	226.68
899.24	226.68
899.54	226.68
899.85	226.69
900.15	226.64
900.46	226.66
900.76	226.70
901.07	226.68
901.38	226.70
901.68	226.68
901.99	226.63
902.29	226.67
902.60	226.68
902.90	226.69
903.21	226.67
903.51	226.68
903.82	226.71
904.12	226.71
904.43	226.77
904.73	226.77
905.03	226.83
905.34	226.95
905.64	226.95
905.95	226.96
906.25	226.93
906.56	226.94
906.86	226.96
907.17	226.95
907.47	226.94
907.77	226.91
908.08	226.90
908.38	226.92
908.69	226.90
908.99	226.93
909.30	226.96
909.60	227.00
909.90	227.01
910.21	227.02
910.51	227.04
910.81	227.04
911.12	227.04
911.42	227.04
911.73	226.92
912.03	226.94
912.33	226.96
912.64	226.97
912.94	227.01
913.24	227.00
913.55	226.99
913.85	227.04
914.15	227.11
914.46	227.13
914.76	227.12
915.06	227.12
915.37	227.10
915.67	227.08
915.97	227.09
916.27	227.11
916.58	227.07
916.88	227.06
917.18	227.07
917.49	227.16
917.79	227.20
918.09	227.22
918.39	227.26
918.70	227.25
919.00	227.30
919.30	227.33
919.60	227.29
919.91	227.28
920.21	227.30
920.51	227.26
920.81	227.26
921.12	227.28
921.42	227.28
921.72	227.30
922.02	227.28
922.32	227.31
922.63	227.30
922.93	227.38
923.23	227.38
923.53	227.36
923.83	227.29
924.13	227.25
924.44	227.26
924.74	227.24
925.04	227.26
925.34	227.25
925.64	227.20
925.94	227.18
926.24	227.20
926.55	227.16
926.85	227.17
927.15	227.16
927.45	227.13
927.75	227.14
928.05	227.14
928.35	227.12
928.65	227.11
928.95	227.08
929.26	227.03
929.56	227.07
929.86	227.06
930.16	227.05
930.46	227.03
930.76	226.99
931.06	226.96
931.36	226.91
931.66	226.94
931.96	226.92
932.26	226.97
932.56	226.92
932.86	226.94
933.16	226.89
933.46	226.84
933.76	226.83
934.06	226.84
934.36	226.85
934.66	226.83
934.96	226.78
935.26	226.76
935.56	226.77
935.86	226.72
936.16	226.73
936.46	226.69
936.76	226.70
937.06	226.70
937.36	226.71
937.66	226.74
937.96	226.73
938.26	226.71
938.56	226.68
938.86	226.71
939.16	226.72
939.46	226.76
939.76	226.80
940.06	226.80
940.35	226.78
940.65	226.74
940.95	226.76
941.25	226.73
941.55	226.75
941.85	226.73
942.15	226.73
942.45	226.74
942.75	226.74
943.04	226.73
943.34	226.77
943.64	226.77
943.94	226.74
944.24	226.71
944.54	226.73
944.84	226.74
945.13	226.71
945.43	226.70
945.73	226.73
946.03	226.70
946.33	226.72
946.62	226.72
946.92	226.72
947.22	226.73
947.52	226.75
947.82	226.78
948.11	226.78
948.41	226.80
948.71	226.78
949.01	226.81
949.31	226.83
949.60	226.82
949.90	226.84
950.20	226.82
950.50	226.81
950.79	226.81
951.09	226.87
951.39	226.90
951.69	226.91
951.98	226.91
952.28	226.94
952.58	226.93
952.87	226.95
953.17	226.93
953.47	226.96
953.76	226.98
954.06	226.95
954.36	226.94
954.66	226.94
954.95	226.97
955.25	226.97
955.55	226.98
955.84	226.97
956.14	226.98
956.44	227.03
956.73	227.04
957.03	227.06
957.32	227.07
957.62	227.03
957.92	227.07
958.21	227.07
958.51	227.16
958.81	227.18
959.10	227.18
959.40	227.22
959.69	227.21
959.99	227.22
960.29	227.23
960.58	227.21
960.88	227.22
961.17	227.21
961.47	227.22
961.76	227.21
962.06	227.20
962.36	227.19
962.65	227.19
962.95	227.19
963.24	227.18
963.54	227.13
963.83	227.17
964.13	227.14
964.42	227.08
964.72	227.01
965.01	226.99
965.31	226.95
965.60	226.90
965.90	226.93
966.19	226.88
966.49	226.87
966.78	226.90
967.08	226.90
967.37	226.88
967.67	226.85
967.96	226.85
968.26	226.80
968.55	226.78
968.85	226.74
969.14	226.72
969.43	226.68
969.73	226.69
970.02	226.67
970.32	226.63
970.61	226.63
970.91	226.58
971.20	226.56
971.49	226.58
971.79	226.59
972.08	226.54
972.38	226.57
972.67	226.55
972.96	226.55
973.26	226.54
973.55	226.57
973.85	226.56
974.14	226.55
974.43	226.61
974.73	226.58
975.02	226.58
975.31	226.58
975.61	226.60
975.90	226.57
976.19	226.53
976.49	226.53
976.78	226.54
977.07	226.56
977.37	226.59
977.66	226.57
977.95	226.58
978.24	226.58
978.54	226.60
978.83	226.59
979.12	226.58
979.42	226.58
979.71	226.56
980.00	226.54
980.29	226.55
980.59	226.54
980.88	226.60
981.17	226.60
981.46	226.62
981.76	226.62
982.05	226.67
982.34	226.68
982.63	226.70
982.93	226.73
983.22	226.79
983.51	226.81
983.80	226.82
984.09	226.82
984.39	226.81
984.68	226.81
984.97	226.82
985.26	226.82
985.55	226.82
985.85	226.83
986.14	226.87
986.43	226.90
986.72	226.90
987.01	226.82
987.30	226.88
987.59	226.85
987.89	226.88
988.18	226.85
988.47	226.88
988.76	226.90
989.05	226.88
989.34	226.86
989.63	226.87
989.92	226.89
990.22	226.88
990.51	226.89
990.80	226.91
991.09	226.93
991.38	226.94
991.67	226.94
991.96	226.93
992.25	226.94
992.54	226.92
992.83	226.90
993.12	226.94
993.41	226.94
993.70	227.00
993.99	226.99
994.28	227.00
994.58	226.99
994.87	226.97
995.16	226.95
995.45	226.94
995.74	226.93
996.03	226.94
996.32	226.97
996.61	227.02
996.90	227.01
997.19	227.03
997.48	227.04
997.77	227.03
998.06	227.03
998.34	227.03
998.63	227.06
998.92	227.08
999.21	227.07
999.50	227.08
999.79	227.02
1000.08	226.99
1000.37	226.99
1000.66	226.96
1000.95	226.98
1001.24	226.99
1001.53	226.98
1001.82	226.96
1002.11	226.91
1002.40	226.89
1002.68	226.89
1002.97	226.92
1003.26	226.88
1003.55	226.87
1003.84	226.88
1004.13	226.91
1004.42	226.88
1004.71	226.83
1004.99	226.82
1005.28	226.83
1005.57	226.78
1005.86	226.78
1006.15	226.77
1006.44	226.75
1006.72	226.76
1007.01	226.71
1007.30	226.69
1007.59	226.69
1007.88	226.69
1008.17	226.70
1008.45	226.67
1008.74	226.63
1009.03	226.60
1009.32	226.63
1009.60	226.60
1009.89	226.57
1010.18	226.53
1010.47	226.53
1010.76	226.55
1011.04	226.54
1011.33	226.55
1011.62	226.60
1011.91	226.62
1012.19	226.65
1012.48	226.66
1012.77	226.69
1013.05	226.77
1013.34	226.79
1013.63	226.78
1013.92	226.79
1014.20	226.78
1014.49	226.77
1014.78	226.78
1015.06	226.75
1015.35	226.72
1015.64	226.75
1015.92	226.76
1016.21	226.79
1016.50	226.78
1016.78	226.76
1017.07	226.76
1017.36	226.74
1017.64	226.72
1017.93	226.71
1018.22	226.70
1018.50	226.70
1018.79	226.65
1019.08	226.63
1019.36	226.64
1019.65	226.65
1019.93	226.66
1020.22	226.68
1020.51	226.74
1020.79	226.72
1021.08	226.64
1021.36	226.50
1021.65	226.43
1021.94	226.91
1022.22	227.01
1022.51	226.73
1022.79	227.11
1023.08	226.81
1023.36	227.51
1023.65	226.36
>>>>>End Processed Spectral Data<<<<<
