SpectraSuite Data File
++++++++++++++++++++++++++++++++++++
Date: Fri Feb 01 14:56:47 EST 2013
User: group
Dark Spectrum Present: No
Reference Spectrum Present: No
Number of Sampled Component Spectra: 1
Spectrometers: USB2E7196
Integration Time (usec): 35000 (USB2E7196)
Spectra Averaged: 100 (USB2E7196)
Boxcar Smoothing: 10 (USB2E7196)
Correct for Electrical Dark: No (USB2E7196)
Strobe/Lamp Enabled: No (USB2E7196)
Correct for Detector Non-linearity: No (USB2E7196)
Correct for Stray Light: No (USB2E7196)
Number of Pixels in Processed Spectrum: 2048
>>>>>Begin Processed Spectral Data<<<<<
339.09	0.00
339.48	215.13
339.86	216.84
340.24	217.95
340.63	219.16
341.01	222.09
341.39	222.62
341.78	223.86
342.16	224.51
342.54	224.88
342.93	213.65
343.31	224.43
343.69	224.97
344.07	225.46
344.46	225.90
344.84	226.29
345.22	226.56
345.60	226.78
345.99	226.97
346.37	227.12
346.75	227.23
347.13	227.28
347.52	227.34
347.90	227.41
348.28	227.44
348.66	227.47
349.05	227.48
349.43	227.52
349.81	227.53
350.19	227.56
350.57	227.61
350.96	227.68
351.34	227.76
351.72	227.85
352.10	227.92
352.48	227.98
352.87	228.03
353.25	228.07
353.63	228.14
354.01	228.20
354.39	228.28
354.77	228.36
355.15	228.50
355.54	228.52
355.92	228.55
356.30	228.64
356.68	228.75
357.06	228.83
357.44	228.89
357.82	228.92
358.20	229.02
358.58	229.07
358.97	229.12
359.35	229.19
359.73	229.25
360.11	229.30
360.49	229.37
360.87	229.40
361.25	229.47
361.63	229.57
362.01	229.60
362.39	229.60
362.77	229.61
363.15	229.56
363.53	229.62
363.91	229.63
364.29	229.66
364.67	229.60
365.05	229.58
365.43	229.56
365.81	229.60
366.19	229.62
366.57	229.66
366.95	229.64
367.33	229.58
367.71	229.52
368.09	229.51
368.47	229.45
368.85	229.43
369.23	229.39
369.61	229.29
369.99	229.26
370.37	229.26
370.75	229.24
371.13	229.22
371.51	229.12
371.89	229.10
372.27	229.02
372.65	228.97
373.03	228.92
373.41	228.87
373.78	228.77
374.16	228.65
374.54	228.54
374.92	228.44
375.30	228.39
375.68	228.31
376.06	228.24
376.44	228.17
376.82	228.11
377.19	228.03
377.57	227.93
377.95	227.85
378.33	227.75
378.71	227.62
379.09	227.52
379.47	227.48
379.84	227.37
380.22	227.26
380.60	227.15
380.98	227.08
381.36	226.98
381.73	226.93
382.11	226.88
382.49	226.81
382.87	226.75
383.25	226.68
383.62	226.75
384.00	226.70
384.38	226.65
384.76	226.59
385.13	226.58
385.51	226.57
385.89	226.50
386.27	226.45
386.64	226.46
387.02	226.39
387.40	226.33
387.78	226.34
388.15	226.34
388.53	226.33
388.91	226.30
389.29	226.29
389.66	226.28
390.04	226.27
390.42	226.25
390.79	226.25
391.17	226.29
391.55	226.18
391.92	226.18
392.30	226.20
392.68	226.20
393.05	226.21
393.43	226.20
393.81	226.23
394.18	226.26
394.56	226.29
394.94	226.37
395.31	226.40
395.69	226.46
396.06	226.51
396.44	226.55
396.82	226.61
397.19	226.72
397.57	226.78
397.95	226.86
398.32	226.96
398.70	227.05
399.07	227.15
399.45	227.23
399.82	227.34
400.20	227.42
400.58	227.50
400.95	227.57
401.33	227.74
401.70	227.89
402.08	227.99
402.45	228.10
402.83	228.24
403.20	228.40
403.58	228.53
403.95	228.67
404.33	228.81
404.71	228.97
405.08	229.15
405.46	229.28
405.83	229.44
406.21	229.57
406.58	229.74
406.96	229.91
407.33	230.09
407.70	230.27
408.08	230.54
408.45	230.79
408.83	231.03
409.20	231.25
409.58	231.45
409.95	231.72
410.33	232.00
410.70	232.24
411.08	232.56
411.45	232.81
411.82	233.11
412.20	233.47
412.57	233.88
412.95	234.18
413.32	234.56
413.69	234.96
414.07	235.41
414.44	235.90
414.82	236.31
415.19	236.87
415.56	237.39
415.94	237.90
416.31	238.53
416.68	239.14
417.06	239.81
417.43	240.50
417.81	241.25
418.18	242.00
418.55	242.87
418.93	243.67
419.30	244.59
419.67	245.54
420.04	246.48
420.42	247.45
420.79	248.62
421.16	249.82
421.54	250.99
421.91	252.16
422.28	253.38
422.66	254.74
423.03	256.03
423.40	257.37
423.77	258.75
424.15	260.15
424.52	261.59
424.89	263.20
425.26	264.71
425.64	266.17
426.01	267.72
426.38	269.32
426.75	271.02
427.13	272.73
427.50	274.53
427.87	276.40
428.24	278.26
428.61	280.00
428.99	281.92
429.36	284.04
429.73	286.12
430.10	288.16
430.47	290.17
430.85	292.29
431.22	294.52
431.59	296.94
431.96	299.23
432.33	301.73
432.70	304.14
433.08	306.94
433.45	309.57
433.82	312.23
434.19	315.18
434.56	318.01
434.93	320.69
435.30	323.32
435.68	326.22
436.05	329.07
436.42	331.89
436.79	334.42
437.16	337.14
437.53	339.99
437.90	342.85
438.27	345.64
438.64	348.49
439.01	351.12
439.38	353.36
439.75	355.50
440.13	358.00
440.50	360.33
440.87	362.24
441.24	364.23
441.61	366.41
441.98	367.93
442.35	369.73
442.72	371.58
443.09	373.40
443.46	374.37
443.83	374.98
444.20	375.48
444.57	376.35
444.94	376.64
445.31	377.01
445.68	377.36
446.05	377.45
446.42	377.06
446.79	376.62
447.16	376.19
447.53	375.85
447.90	374.68
448.27	373.54
448.64	371.94
449.01	370.81
449.37	368.84
449.74	366.88
450.11	364.65
450.48	362.16
450.85	359.63
451.22	357.50
451.59	355.44
451.96	353.48
452.33	350.88
452.70	348.48
453.07	345.62
453.43	342.68
453.80	339.93
454.17	337.22
454.54	334.66
454.91	331.92
455.28	329.29
455.65	326.84
456.02	324.35
456.38	322.23
456.75	319.52
457.12	317.29
457.49	315.06
457.86	312.88
458.23	311.06
458.59	309.02
458.96	306.90
459.33	305.02
459.70	303.13
460.07	301.57
460.43	299.87
460.80	298.21
461.17	296.74
461.54	295.21
461.91	293.78
462.27	292.38
462.64	291.16
463.01	289.77
463.38	288.45
463.74	287.05
464.11	285.85
464.48	284.80
464.85	283.64
465.21	282.74
465.58	281.80
465.95	280.64
466.32	279.72
466.68	278.85
467.05	277.99
467.42	277.11
467.78	276.20
468.15	275.28
468.52	274.61
468.88	273.73
469.25	272.93
469.62	272.27
469.98	271.56
470.35	270.83
470.72	270.20
471.08	269.54
471.45	268.99
471.82	268.42
472.18	267.80
472.55	267.37
472.92	266.82
473.28	266.33
473.65	265.87
474.02	265.41
474.38	264.99
474.75	264.65
475.11	264.29
475.48	263.99
475.85	263.77
476.21	263.53
476.58	263.35
476.94	263.22
477.31	263.06
477.67	262.90
478.04	262.82
478.41	262.75
478.77	262.76
479.14	262.72
479.50	262.73
479.87	262.82
480.23	262.86
480.60	262.91
480.96	262.96
481.33	263.20
481.69	263.38
482.06	263.62
482.42	263.80
482.79	264.04
483.15	264.38
483.52	264.72
483.88	265.09
484.25	265.47
484.61	265.90
484.98	266.36
485.34	266.92
485.71	267.52
486.07	268.13
486.44	268.71
486.80	269.38
487.17	270.11
487.53	270.92
487.90	271.79
488.26	272.75
488.62	273.76
488.99	274.68
489.35	275.74
489.72	276.81
490.08	278.02
490.44	279.26
490.81	280.55
491.17	281.92
491.54	283.38
491.90	284.95
492.26	286.57
492.63	288.28
492.99	290.03
493.36	291.90
493.72	293.91
494.08	295.99
494.45	298.23
494.81	300.57
495.17	302.99
495.54	305.53
495.90	308.18
496.26	311.00
496.63	313.98
496.99	317.08
497.35	320.33
497.72	323.66
498.08	327.19
498.44	330.85
498.80	334.76
499.17	338.73
499.53	342.83
499.89	347.19
500.26	351.64
500.62	356.27
500.98	361.23
501.34	366.30
501.71	371.64
502.07	377.03
502.43	382.59
502.79	388.34
503.16	394.38
503.52	400.63
503.88	406.98
504.24	413.57
504.60	420.45
504.97	427.53
505.33	434.84
505.69	442.48
506.05	450.22
506.41	458.08
506.78	466.23
507.14	474.66
507.50	483.31
507.86	492.27
508.22	501.40
508.59	510.48
508.95	520.04
509.31	529.80
509.67	539.88
510.03	550.16
510.39	560.70
510.75	571.46
511.12	582.39
511.48	593.64
511.84	605.08
512.20	616.59
512.56	628.54
512.92	640.73
513.28	653.05
513.64	665.56
514.00	678.26
514.37	691.19
514.73	704.17
515.09	717.23
515.45	730.63
515.81	744.27
516.17	758.27
516.53	772.42
516.89	786.54
517.25	800.72
517.61	815.25
517.97	829.80
518.33	844.29
518.69	859.11
519.05	874.10
519.41	889.32
519.77	904.89
520.13	920.38
520.49	935.73
520.85	951.20
521.21	967.10
521.57	983.37
521.93	999.25
522.29	1015.79
522.65	1032.04
523.01	1048.32
523.37	1064.40
523.73	1080.80
524.09	1096.90
524.45	1113.39
524.81	1130.18
525.17	1147.01
525.53	1163.87
525.89	1180.81
526.25	1197.65
526.61	1214.14
526.97	1230.95
527.33	1247.35
527.68	1263.96
528.04	1280.61
528.40	1297.39
528.76	1314.44
529.12	1331.00
529.48	1347.81
529.84	1363.92
530.20	1380.79
530.56	1397.88
530.91	1415.48
531.27	1432.28
531.63	1448.92
531.99	1465.51
532.35	1481.60
532.71	1497.47
533.07	1513.90
533.42	1529.91
533.78	1546.03
534.14	1562.34
534.50	1577.65
534.86	1593.77
535.21	1609.09
535.57	1625.16
535.93	1640.70
536.29	1655.50
536.65	1670.81
537.00	1685.84
537.36	1701.23
537.72	1715.91
538.08	1730.34
538.44	1744.16
538.79	1758.13
539.15	1771.90
539.51	1785.71
539.87	1800.11
540.22	1814.03
540.58	1827.95
540.94	1841.43
541.29	1854.52
541.65	1867.35
542.01	1880.85
542.37	1893.29
542.72	1905.75
543.08	1917.56
543.44	1930.05
543.79	1941.32
544.15	1952.35
544.51	1963.82
544.87	1974.78
545.22	1985.49
545.58	1995.75
545.94	2005.54
546.29	2015.50
546.65	2025.29
547.01	2034.74
547.36	2043.45
547.72	2051.94
548.07	2059.87
548.43	2068.05
548.79	2076.08
549.14	2083.72
549.50	2091.11
549.86	2098.77
550.21	2106.11
550.57	2113.17
550.92	2119.67
551.28	2126.79
551.64	2133.90
551.99	2140.53
552.35	2146.68
552.70	2152.74
553.06	2158.59
553.41	2164.96
553.77	2170.80
554.13	2176.92
554.48	2182.90
554.84	2188.26
555.19	2193.57
555.55	2198.43
555.90	2202.74
556.26	2207.35
556.61	2211.99
556.97	2216.01
557.32	2220.05
557.68	2224.22
558.03	2228.48
558.39	2232.08
558.74	2236.59
559.10	2240.24
559.45	2243.83
559.81	2248.15
560.16	2251.95
560.52	2255.13
560.87	2258.33
561.23	2261.00
561.58	2263.87
561.94	2266.28
562.29	2268.64
562.64	2271.21
563.00	2273.87
563.35	2277.39
563.71	2280.60
564.06	2283.69
564.42	2286.59
564.77	2288.96
565.12	2291.02
565.48	2292.77
565.83	2294.40
566.19	2295.57
566.54	2296.50
566.89	2297.32
567.25	2297.63
567.60	2298.85
567.96	2300.46
568.31	2301.17
568.66	2302.03
569.02	2302.32
569.37	2302.60
569.72	2303.24
570.08	2303.13
570.43	2302.91
570.78	2301.91
571.14	2300.23
571.49	2298.58
571.84	2298.03
572.20	2296.61
572.55	2295.42
572.90	2293.81
573.26	2292.49
573.61	2290.53
573.96	2288.56
574.31	2285.55
574.67	2282.44
575.02	2278.64
575.37	2275.04
575.72	2271.10
576.08	2267.65
576.43	2264.35
576.78	2260.40
577.13	2257.19
577.49	2254.03
577.84	2250.35
578.19	2246.65
578.54	2242.76
578.90	2238.49
579.25	2232.74
579.60	2227.65
579.95	2222.47
580.30	2217.22
580.66	2211.79
581.01	2206.76
581.36	2201.65
581.71	2197.31
582.06	2192.75
582.42	2188.12
582.77	2182.75
583.12	2178.07
583.47	2173.15
583.82	2167.90
584.17	2162.51
584.53	2156.95
584.88	2151.22
585.23	2145.26
585.58	2139.64
585.93	2134.14
586.28	2129.27
586.63	2124.05
586.98	2118.97
587.34	2114.18
587.69	2109.17
588.04	2103.85
588.39	2097.97
588.74	2091.40
589.09	2085.15
589.44	2078.18
589.79	2072.05
590.14	2066.43
590.49	2059.64
590.84	2053.18
591.19	2046.95
591.54	2040.43
591.89	2032.68
592.25	2025.60
592.60	2018.45
592.95	2010.64
593.30	2003.13
593.65	1995.43
594.00	1988.37
594.35	1981.01
594.70	1972.84
595.05	1965.50
595.40	1958.13
595.75	1950.69
596.10	1944.36
596.45	1937.28
596.80	1930.98
597.15	1924.27
597.50	1917.08
597.85	1910.77
598.19	1904.14
598.54	1896.99
598.89	1890.33
599.24	1884.51
599.59	1877.70
599.94	1871.42
600.29	1865.11
600.64	1858.57
600.99	1850.98
601.34	1844.04
601.69	1836.92
602.04	1829.98
602.39	1822.56
602.74	1815.60
603.08	1808.82
603.43	1802.08
603.78	1795.02
604.13	1787.79
604.48	1780.41
604.83	1773.51
605.18	1766.36
605.53	1758.28
605.87	1750.37
606.22	1743.05
606.57	1735.05
606.92	1727.85
607.27	1720.66
607.62	1713.78
607.96	1706.46
608.31	1699.94
608.66	1692.23
609.01	1684.79
609.36	1677.34
609.70	1669.40
610.05	1661.30
610.40	1653.64
610.75	1645.22
611.10	1637.57
611.44	1629.22
611.79	1621.29
612.14	1612.47
612.49	1603.42
612.83	1595.03
613.18	1586.79
613.53	1578.73
613.88	1570.26
614.22	1562.07
614.57	1553.48
614.92	1545.39
615.27	1537.71
615.61	1529.43
615.96	1521.57
616.31	1514.03
616.65	1506.66
617.00	1499.17
617.35	1491.57
617.70	1483.24
618.04	1474.89
618.39	1466.73
618.74	1459.23
619.08	1451.06
619.43	1443.76
619.78	1436.79
620.12	1429.72
620.47	1422.35
620.82	1414.22
621.16	1406.84
621.51	1399.22
621.85	1391.62
622.20	1383.14
622.55	1374.89
622.89	1367.11
623.24	1359.49
623.59	1352.09
623.93	1344.56
624.28	1337.36
624.62	1329.94
624.97	1322.82
625.32	1316.15
625.66	1309.18
626.01	1302.03
626.35	1294.67
626.70	1286.87
627.04	1279.22
627.39	1271.48
627.73	1264.14
628.08	1257.27
628.43	1249.89
628.77	1242.51
629.12	1235.01
629.46	1227.91
629.81	1220.72
630.15	1213.53
630.50	1206.22
630.84	1198.15
631.19	1190.23
631.53	1182.84
631.88	1175.37
632.22	1167.84
632.57	1160.61
632.91	1153.11
633.26	1145.75
633.60	1138.36
633.95	1131.36
634.29	1124.51
634.64	1117.81
634.98	1110.50
635.32	1103.39
635.67	1096.99
636.01	1090.43
636.36	1083.80
636.70	1077.49
637.05	1070.91
637.39	1064.60
637.73	1058.15
638.08	1052.25
638.42	1046.45
638.77	1039.99
639.11	1033.45
639.45	1027.19
639.80	1020.62
640.14	1014.15
640.49	1007.64
640.83	1001.37
641.17	995.21
641.52	988.85
641.86	982.59
642.20	976.85
642.55	970.70
642.89	964.26
643.23	957.86
643.58	952.07
643.92	945.84
644.26	939.78
644.61	933.71
644.95	927.73
645.29	921.19
645.64	914.43
645.98	908.23
646.32	902.44
646.66	896.30
647.01	890.42
647.35	884.84
647.69	879.06
648.04	873.65
648.38	867.80
648.72	861.82
649.06	855.75
649.41	849.83
649.75	843.73
650.09	837.80
650.43	831.94
650.78	825.73
651.12	819.80
651.46	814.05
651.80	808.29
652.14	802.85
652.49	797.50
652.83	792.34
653.17	786.61
653.51	780.87
653.85	775.52
654.20	769.96
654.54	763.92
654.88	758.29
655.22	752.38
655.56	746.74
655.90	741.32
656.25	736.04
656.59	730.69
656.93	725.69
657.27	720.63
657.61	715.25
657.95	710.28
658.29	705.14
658.64	700.05
658.98	694.76
659.32	689.37
659.66	684.25
660.00	678.98
660.34	674.11
660.68	669.24
661.02	664.24
661.36	659.56
661.70	655.15
662.05	650.74
662.39	646.43
662.73	642.06
663.07	637.78
663.41	633.38
663.75	628.95
664.09	624.42
664.43	620.05
664.77	616.01
665.11	611.77
665.45	607.77
665.79	603.70
666.13	599.65
666.47	595.55
666.81	591.41
667.15	587.38
667.49	583.52
667.83	579.80
668.17	575.97
668.51	571.90
668.85	567.85
669.19	564.07
669.53	560.24
669.87	556.40
670.21	552.70
670.55	549.16
670.89	545.71
671.23	542.35
671.57	538.82
671.91	535.29
672.25	531.80
672.58	528.33
672.92	524.99
673.26	521.82
673.60	518.77
673.94	515.72
674.28	512.82
674.62	509.85
674.96	506.74
675.30	503.78
675.64	500.88
675.97	498.22
676.31	495.38
676.65	492.48
676.99	489.78
677.33	486.96
677.67	484.12
678.01	481.14
678.34	478.18
678.68	475.40
679.02	472.63
679.36	469.89
679.70	467.15
680.04	464.38
680.37	461.59
680.71	458.83
681.05	456.20
681.39	453.45
681.73	450.85
682.06	448.33
682.40	445.79
682.74	443.30
683.08	440.77
683.42	438.16
683.75	435.67
684.09	433.13
684.43	430.70
684.77	428.25
685.10	425.97
685.44	423.73
685.78	421.44
686.12	419.21
686.45	416.96
686.79	414.71
687.13	412.52
687.46	410.36
687.80	408.21
688.14	406.03
688.48	404.03
688.81	401.80
689.15	399.68
689.49	397.61
689.82	395.57
690.16	393.44
690.50	391.56
690.83	389.68
691.17	387.76
691.51	385.89
691.84	384.07
692.18	382.10
692.52	380.11
692.85	378.16
693.19	376.28
693.52	374.51
693.86	372.70
694.20	370.96
694.53	369.18
694.87	367.35
695.21	365.57
695.54	363.78
695.88	362.10
696.21	360.40
696.55	358.69
696.88	356.98
697.22	355.34
697.56	353.71
697.89	352.04
698.23	350.42
698.56	348.78
698.90	347.19
699.23	345.60
699.57	344.05
699.90	342.56
700.24	340.98
700.58	339.45
700.91	337.95
701.25	336.49
701.58	335.12
701.92	333.83
702.25	332.51
702.59	331.12
702.92	329.81
703.26	328.52
703.59	327.28
703.93	326.14
704.26	324.96
704.60	323.66
704.93	322.41
705.26	321.17
705.60	320.02
705.93	318.87
706.27	317.85
706.60	316.81
706.94	315.77
707.27	314.69
707.61	313.66
707.94	312.71
708.27	311.66
708.61	310.59
708.94	309.54
709.28	308.54
709.61	307.60
709.94	306.67
710.28	305.64
710.61	304.70
710.95	303.64
711.28	302.74
711.61	301.79
711.95	300.94
712.28	300.01
712.61	299.04
712.95	298.13
713.28	297.28
713.61	296.38
713.95	295.50
714.28	294.69
714.61	293.82
714.95	292.94
715.28	292.07
715.61	291.15
715.95	290.31
716.28	289.43
716.61	288.61
716.95	287.78
717.28	287.04
717.61	286.29
717.94	285.58
718.28	284.78
718.61	284.09
718.94	283.36
719.27	282.71
719.61	282.08
719.94	281.44
720.27	280.73
720.60	280.10
720.94	279.45
721.27	278.82
721.60	278.28
721.93	277.67
722.27	277.12
722.60	276.65
722.93	276.06
723.26	275.58
723.59	275.03
723.93	274.50
724.26	273.95
724.59	273.38
724.92	272.86
725.25	272.36
725.59	271.85
725.92	271.35
726.25	270.87
726.58	270.36
726.91	269.88
727.24	269.42
727.57	268.94
727.91	268.43
728.24	268.01
728.57	267.52
728.90	267.07
729.23	266.60
729.56	266.16
729.89	265.75
730.22	265.26
730.55	264.78
730.89	264.32
731.22	263.84
731.55	263.40
731.88	262.97
732.21	262.54
732.54	262.09
732.87	261.70
733.20	261.29
733.53	260.91
733.86	260.49
734.19	260.06
734.52	259.66
734.85	259.34
735.18	258.89
735.51	258.51
735.84	258.10
736.17	257.74
736.50	257.32
736.83	257.04
737.16	256.69
737.49	256.34
737.82	256.01
738.15	255.70
738.48	255.38
738.81	255.05
739.14	254.73
739.47	254.43
739.80	254.07
740.13	253.70
740.46	253.35
740.79	253.02
741.12	252.71
741.45	252.40
741.78	252.06
742.11	251.74
742.44	251.40
742.77	251.13
743.10	250.83
743.43	250.52
743.75	250.14
744.08	250.01
744.41	249.74
744.74	249.44
745.07	249.14
745.40	248.90
745.73	248.65
746.06	248.39
746.39	248.11
746.71	247.88
747.04	247.64
747.37	247.37
747.70	247.14
748.03	246.89
748.36	246.70
748.68	246.48
749.01	246.26
749.34	246.02
749.67	245.78
750.00	245.59
750.33	245.43
750.65	245.23
750.98	244.87
751.31	244.67
751.64	244.49
751.97	244.33
752.29	244.10
752.62	243.84
752.95	243.64
753.28	243.44
753.60	243.20
753.93	243.03
754.26	242.85
754.59	242.66
754.91	242.48
755.24	242.27
755.57	242.09
755.90	241.93
756.22	241.81
756.55	241.64
756.88	241.48
757.20	241.29
757.53	241.11
757.86	240.97
758.19	240.80
758.51	240.62
758.84	240.44
759.17	240.28
759.49	240.16
759.82	240.04
760.15	239.94
760.47	239.83
760.80	239.66
761.13	239.57
761.45	239.39
761.78	239.25
762.11	239.14
762.43	238.99
762.76	238.87
763.08	238.74
763.41	238.60
763.74	238.44
764.06	238.29
764.39	238.17
764.71	238.04
765.04	237.95
765.37	237.84
765.69	237.74
766.02	237.60
766.34	237.49
766.67	237.35
767.00	237.23
767.32	237.18
767.65	237.15
767.97	237.02
768.30	236.94
768.62	236.84
768.95	236.71
769.27	236.60
769.60	236.48
769.92	236.34
770.25	236.24
770.57	236.10
770.90	236.02
771.22	235.86
771.55	235.76
771.87	235.66
772.20	235.56
772.52	235.57
772.85	235.59
773.17	235.49
773.50	235.36
773.82	235.24
774.15	235.06
774.47	234.88
774.80	234.79
775.12	234.70
775.45	234.58
775.77	234.50
776.09	234.41
776.42	234.32
776.74	234.25
777.07	234.14
777.39	234.09
777.72	233.98
778.04	233.93
778.36	233.86
778.69	233.78
779.01	233.68
779.33	233.48
779.66	233.33
779.98	233.23
780.31	233.19
780.63	233.16
780.95	233.15
781.28	233.08
781.60	232.98
781.92	232.89
782.25	232.84
782.57	232.75
782.89	232.66
783.22	232.59
783.54	232.51
783.86	232.46
784.19	232.41
784.51	232.39
784.83	232.32
785.16	232.24
785.48	232.17
785.80	232.12
786.12	232.06
786.45	231.97
786.77	231.92
787.09	231.86
787.42	231.79
787.74	231.70
788.06	231.67
788.38	231.63
788.71	231.56
789.03	231.51
789.35	231.50
789.67	231.45
789.99	231.41
790.32	231.31
790.64	231.28
790.96	231.29
791.28	231.22
791.61	231.16
791.93	231.11
792.25	231.06
792.57	231.12
792.89	231.13
793.21	231.09
793.54	231.04
793.86	230.97
794.18	230.92
794.50	230.87
794.82	230.80
795.14	230.76
795.47	230.80
795.79	230.78
796.11	230.74
796.43	230.72
796.75	230.66
797.07	230.68
797.39	230.62
797.71	230.55
798.04	230.50
798.36	230.48
798.68	230.46
799.00	230.44
799.32	230.34
799.64	230.29
799.96	230.27
800.28	230.26
800.60	230.27
800.92	230.23
801.24	230.22
801.56	230.24
801.89	230.23
802.21	230.16
802.53	230.11
802.85	230.12
803.17	230.12
803.49	230.11
803.81	230.09
804.13	230.07
804.45	230.03
804.77	230.03
805.09	230.01
805.41	229.98
805.73	229.93
806.05	229.89
806.37	229.88
806.69	229.84
807.01	229.81
807.33	229.79
807.65	229.74
807.97	229.76
808.28	229.73
808.60	229.69
808.92	229.67
809.24	229.72
809.56	229.67
809.88	229.61
810.20	229.61
810.52	229.60
810.84	229.58
811.16	229.54
811.48	229.51
811.80	229.56
812.12	229.50
812.43	229.53
812.75	229.56
813.07	229.50
813.39	229.50
813.71	229.46
814.03	229.42
814.35	229.42
814.67	229.35
814.98	229.34
815.30	229.31
815.62	229.26
815.94	229.16
816.26	229.20
816.58	229.17
816.89	229.16
817.21	229.11
817.53	229.06
817.85	229.07
818.17	229.02
818.48	228.95
818.80	228.97
819.12	228.91
819.44	228.84
819.76	228.81
820.07	228.77
820.39	228.75
820.71	228.73
821.03	228.68
821.34	228.66
821.66	228.62
821.98	228.63
822.30	228.61
822.61	228.65
822.93	228.55
823.25	228.55
823.57	228.52
823.88	228.55
824.20	228.56
824.52	228.54
824.83	228.54
825.15	228.51
825.47	228.52
825.79	228.52
826.10	228.48
826.42	228.49
826.74	228.52
827.05	228.50
827.37	228.51
827.69	228.49
828.00	228.46
828.32	228.46
828.64	228.43
828.95	228.44
829.27	228.39
829.58	228.40
829.90	228.39
830.22	228.37
830.53	228.28
830.85	228.26
831.17	228.24
831.48	228.21
831.80	228.20
832.11	228.14
832.43	228.13
832.75	228.13
833.06	228.16
833.38	228.14
833.69	228.16
834.01	228.15
834.32	228.17
834.64	228.16
834.96	228.19
835.27	228.19
835.59	228.18
835.90	228.18
836.22	228.15
836.53	228.15
836.85	228.15
837.16	228.27
837.48	228.24
837.79	228.28
838.11	228.31
838.42	228.33
838.74	228.34
839.05	228.33
839.37	228.31
839.68	228.23
840.00	228.23
840.31	228.23
840.63	228.20
840.94	228.18
841.26	228.18
841.57	228.18
841.88	228.21
842.20	228.21
842.51	228.18
842.83	228.21
843.14	228.30
843.46	228.31
843.77	228.27
844.08	228.29
844.40	228.26
844.71	228.25
845.03	228.22
845.34	228.24
845.65	228.23
845.97	228.21
846.28	228.23
846.60	228.22
846.91	228.20
847.22	228.22
847.54	228.28
847.85	228.30
848.16	228.28
848.48	228.27
848.79	228.30
849.10	228.33
849.42	228.33
849.73	228.22
850.04	228.20
850.36	228.17
850.67	228.20
850.98	228.19
851.30	228.18
851.61	228.18
851.92	228.17
852.23	228.19
852.55	228.22
852.86	228.21
853.17	228.21
853.49	228.22
853.80	228.21
854.11	228.21
854.42	228.19
854.74	228.14
855.05	228.11
855.36	228.07
855.67	228.05
855.99	228.03
856.30	228.15
856.61	228.15
856.92	228.15
857.23	228.13
857.55	228.10
857.86	228.10
858.17	228.09
858.48	228.05
858.79	228.02
859.11	228.04
859.42	228.02
859.73	227.99
860.04	227.97
860.35	227.94
860.66	227.87
860.98	227.87
861.29	227.90
861.60	227.90
861.91	227.90
862.22	227.87
862.53	227.84
862.84	227.72
863.16	227.74
863.47	227.66
863.78	227.66
864.09	227.68
864.40	227.67
864.71	227.68
865.02	227.68
865.33	227.66
865.64	227.64
865.95	227.66
866.27	227.74
866.58	227.72
866.89	227.76
867.20	227.76
867.51	227.74
867.82	227.71
868.13	227.72
868.44	227.66
868.75	227.68
869.06	227.68
869.37	227.69
869.68	227.62
869.99	227.67
870.30	227.62
870.61	227.62
870.92	227.60
871.23	227.58
871.54	227.61
871.85	227.65
872.16	227.66
872.47	227.66
872.78	227.58
873.09	227.59
873.40	227.57
873.71	227.56
874.02	227.57
874.33	227.57
874.64	227.54
874.95	227.56
875.26	227.54
875.56	227.54
875.87	227.52
876.18	227.55
876.49	227.65
876.80	227.71
877.11	227.68
877.42	227.71
877.73	227.70
878.04	227.72
878.35	227.68
878.66	227.67
878.96	227.67
879.27	227.69
879.58	227.68
879.89	227.66
880.20	227.69
880.51	227.69
880.82	227.73
881.12	227.73
881.43	227.73
881.74	227.75
882.05	227.74
882.36	227.78
882.67	227.79
882.97	227.68
883.28	227.59
883.59	227.62
883.90	227.60
884.21	227.62
884.51	227.56
884.82	227.60
885.13	227.60
885.44	227.57
885.74	227.57
886.05	227.58
886.36	227.59
886.67	227.60
886.98	227.66
887.28	227.63
887.59	227.64
887.90	227.67
888.20	227.65
888.51	227.65
888.82	227.62
889.13	227.63
889.43	227.72
889.74	227.75
890.05	227.74
890.35	227.72
890.66	227.70
890.97	227.72
891.28	227.65
891.58	227.68
891.89	227.68
892.20	227.67
892.50	227.64
892.81	227.63
893.12	227.61
893.42	227.52
893.73	227.51
894.04	227.49
894.34	227.47
894.65	227.45
894.95	227.43
895.26	227.43
895.57	227.44
895.87	227.32
896.18	227.32
896.48	227.33
896.79	227.35
897.10	227.36
897.40	227.35
897.71	227.37
898.01	227.35
898.32	227.36
898.63	227.34
898.93	227.34
899.24	227.34
899.54	227.32
899.85	227.31
900.15	227.32
900.46	227.29
900.76	227.33
901.07	227.32
901.38	227.32
901.68	227.31
901.99	227.27
902.29	227.28
902.60	227.28
902.90	227.25
903.21	227.23
903.51	227.21
903.82	227.22
904.12	227.25
904.43	227.21
904.73	227.18
905.03	227.15
905.34	227.22
905.64	227.22
905.95	227.22
906.25	227.21
906.56	227.22
906.86	227.22
907.17	227.18
907.47	227.21
907.77	227.22
908.08	227.20
908.38	227.19
908.69	227.20
908.99	227.21
909.30	227.21
909.60	227.21
909.90	227.21
910.21	227.20
910.51	227.14
910.81	227.15
911.12	227.16
911.42	227.21
911.73	227.12
912.03	227.11
912.33	227.13
912.64	227.11
912.94	227.08
913.24	227.08
913.55	227.07
913.85	227.03
914.15	227.06
914.46	227.08
914.76	227.08
915.06	227.08
915.37	227.05
915.67	227.06
915.97	227.07
916.27	227.02
916.58	227.01
916.88	227.01
917.18	227.01
917.49	227.08
917.79	227.04
918.09	227.07
918.39	227.09
918.70	227.07
919.00	227.11
919.30	227.18
919.60	227.18
919.91	227.19
920.21	227.20
920.51	227.16
920.81	227.18
921.12	227.18
921.42	227.16
921.72	227.16
922.02	227.18
922.32	227.19
922.63	227.26
922.93	227.31
923.23	227.32
923.53	227.34
923.83	227.30
924.13	227.31
924.44	227.31
924.74	227.33
925.04	227.39
925.34	227.38
925.64	227.34
925.94	227.32
926.24	227.37
926.55	227.41
926.85	227.45
927.15	227.44
927.45	227.44
927.75	227.48
928.05	227.50
928.35	227.47
928.65	227.47
928.95	227.43
929.26	227.40
929.56	227.44
929.86	227.43
930.16	227.42
930.46	227.42
930.76	227.41
931.06	227.34
931.36	227.30
931.66	227.32
931.96	227.33
932.26	227.34
932.56	227.30
932.86	227.28
933.16	227.24
933.46	227.20
933.76	227.21
934.06	227.21
934.36	227.26
934.66	227.27
934.96	227.25
935.26	227.27
935.56	227.27
935.86	227.24
936.16	227.22
936.46	227.22
936.76	227.22
937.06	227.22
937.36	227.25
937.66	227.25
937.96	227.26
938.26	227.21
938.56	227.21
938.86	227.19
939.16	227.18
939.46	227.18
939.76	227.20
940.06	227.19
940.35	227.15
940.65	227.06
940.95	227.03
941.25	227.03
941.55	227.02
941.85	227.03
942.15	227.06
942.45	227.08
942.75	227.06
943.04	227.04
943.34	227.07
943.64	227.06
943.94	227.03
944.24	227.02
944.54	227.02
944.84	227.03
945.13	227.01
945.43	227.05
945.73	227.05
946.03	227.06
946.33	227.03
946.62	227.02
946.92	227.07
947.22	227.12
947.52	227.14
947.82	227.13
948.11	227.10
948.41	227.06
948.71	227.06
949.01	227.09
949.31	227.12
949.60	227.09
949.90	227.10
950.20	227.10
950.50	227.11
950.79	227.16
951.09	227.16
951.39	227.18
951.69	227.14
951.98	227.18
952.28	227.16
952.58	227.15
952.87	227.19
953.17	227.19
953.47	227.14
953.76	227.13
954.06	227.14
954.36	227.18
954.66	227.19
954.95	227.22
955.25	227.21
955.55	227.21
955.84	227.19
956.14	227.17
956.44	227.19
956.73	227.17
957.03	227.16
957.32	227.19
957.62	227.16
957.92	227.18
958.21	227.14
958.51	227.29
958.81	227.32
959.10	227.29
959.40	227.33
959.69	227.40
959.99	227.41
960.29	227.41
960.58	227.35
960.88	227.37
961.17	227.32
961.47	227.36
961.76	227.33
962.06	227.35
962.36	227.38
962.65	227.36
962.95	227.36
963.24	227.34
963.54	227.34
963.83	227.35
964.13	227.35
964.42	227.34
964.72	227.25
965.01	227.25
965.31	227.29
965.60	227.21
965.90	227.25
966.19	227.19
966.49	227.17
966.78	227.20
967.08	227.20
967.37	227.24
967.67	227.19
967.96	227.23
968.26	227.22
968.55	227.21
968.85	227.22
969.14	227.23
969.43	227.24
969.73	227.21
970.02	227.21
970.32	227.19
970.61	227.21
970.91	227.15
971.20	227.14
971.49	227.09
971.79	227.11
972.08	227.03
972.38	227.10
972.67	227.10
972.96	227.11
973.26	227.06
973.55	227.08
973.85	227.09
974.14	227.06
974.43	227.10
974.73	227.09
975.02	227.05
975.31	227.03
975.61	227.01
975.90	227.00
976.19	226.96
976.49	226.95
976.78	226.95
977.07	226.97
977.37	226.94
977.66	226.96
977.95	226.96
978.24	226.97
978.54	226.97
978.83	226.97
979.12	226.97
979.42	227.01
979.71	226.96
980.00	226.94
980.29	226.97
980.59	226.93
980.88	226.97
981.17	227.01
981.46	227.03
981.76	227.05
982.05	227.07
982.34	227.12
982.63	227.16
982.93	227.16
983.22	227.17
983.51	227.18
983.80	227.22
984.09	227.22
984.39	227.20
984.68	227.16
984.97	227.19
985.26	227.18
985.55	227.15
985.85	227.18
986.14	227.20
986.43	227.22
986.72	227.22
987.01	227.18
987.30	227.16
987.59	227.14
987.89	227.14
988.18	227.13
988.47	227.10
988.76	227.09
989.05	227.11
989.34	227.12
989.63	227.18
989.92	227.11
990.22	227.09
990.51	227.12
990.80	227.15
991.09	227.16
991.38	227.18
991.67	227.21
991.96	227.18
992.25	227.19
992.54	227.18
992.83	227.19
993.12	227.14
993.41	227.18
993.70	227.22
993.99	227.24
994.28	227.26
994.58	227.32
994.87	227.29
995.16	227.30
995.45	227.25
995.74	227.19
996.03	227.25
996.32	227.31
996.61	227.32
996.90	227.32
997.19	227.29
997.48	227.26
997.77	227.23
998.06	227.26
998.34	227.26
998.63	227.21
998.92	227.21
999.21	227.27
999.50	227.28
999.79	227.25
1000.08	227.25
1000.37	227.23
1000.66	227.20
1000.95	227.26
1001.24	227.26
1001.53	227.33
1001.82	227.33
1002.11	227.27
1002.40	227.25
1002.68	227.28
1002.97	227.32
1003.26	227.33
1003.55	227.33
1003.84	227.34
1004.13	227.36
1004.42	227.37
1004.71	227.38
1004.99	227.37
1005.28	227.39
1005.57	227.35
1005.86	227.34
1006.15	227.32
1006.44	227.32
1006.72	227.33
1007.01	227.26
1007.30	227.24
1007.59	227.22
1007.88	227.25
1008.17	227.29
1008.45	227.26
1008.74	227.21
1009.03	227.18
1009.32	227.17
1009.60	227.15
1009.89	227.15
1010.18	227.07
1010.47	227.05
1010.76	227.04
1011.04	227.00
1011.33	227.03
1011.62	227.05
1011.91	227.08
1012.19	227.07
1012.48	227.06
1012.77	227.06
1013.05	227.14
1013.34	227.12
1013.63	227.09
1013.92	227.07
1014.20	227.04
1014.49	227.07
1014.78	227.04
1015.06	227.00
1015.35	227.00
1015.64	227.01
1015.92	227.00
1016.21	227.00
1016.50	227.03
1016.78	227.03
1017.07	227.05
1017.36	226.98
1017.64	226.93
1017.93	226.91
1018.22	226.90
1018.50	226.90
1018.79	226.87
1019.08	226.85
1019.36	226.87
1019.65	226.86
1019.93	226.87
1020.22	226.90
1020.51	226.91
1020.79	226.93
1021.08	226.46
1021.36	227.03
1021.65	226.74
1021.94	227.58
1022.22	227.32
1022.51	226.85
1022.79	226.94
1023.08	227.37
1023.36	227.86
1023.65	226.80
>>>>>End Processed Spectral Data<<<<<
