SpectraSuite Data File
++++++++++++++++++++++++++++++++++++
Date: Fri Feb 01 17:36:35 EST 2013
User: group
Dark Spectrum Present: No
Reference Spectrum Present: No
Number of Sampled Component Spectra: 1
Spectrometers: USB2E7196
Integration Time (usec): 35000 (USB2E7196)
Spectra Averaged: 100 (USB2E7196)
Boxcar Smoothing: 10 (USB2E7196)
Correct for Electrical Dark: No (USB2E7196)
Strobe/Lamp Enabled: No (USB2E7196)
Correct for Detector Non-linearity: No (USB2E7196)
Correct for Stray Light: No (USB2E7196)
Number of Pixels in Processed Spectrum: 2048
>>>>>Begin Processed Spectral Data<<<<<
339.09	0.00
339.48	212.54
339.86	214.26
340.24	215.10
340.63	217.32
341.01	220.27
341.39	219.94
341.78	221.20
342.16	222.29
342.54	222.81
342.93	211.18
343.31	221.85
343.69	222.43
344.07	222.89
344.46	223.33
344.84	223.68
345.22	223.90
345.60	224.12
345.99	224.30
346.37	224.43
346.75	224.52
347.13	224.59
347.52	224.66
347.90	224.77
348.28	224.81
348.66	224.84
349.05	224.84
349.43	224.92
349.81	224.93
350.19	224.95
350.57	225.01
350.96	225.08
351.34	225.18
351.72	225.24
352.10	225.32
352.48	225.39
352.87	225.45
353.25	225.52
353.63	225.57
354.01	225.67
354.39	225.77
354.77	225.86
355.15	225.97
355.54	226.02
355.92	226.07
356.30	226.16
356.68	226.31
357.06	226.38
357.44	226.42
357.82	226.50
358.20	226.60
358.58	226.68
358.97	226.79
359.35	226.88
359.73	226.95
360.11	227.03
360.49	227.13
360.87	227.19
361.25	227.26
361.63	227.35
362.01	227.38
362.39	227.40
362.77	227.45
363.15	227.47
363.53	227.53
363.91	227.56
364.29	227.58
364.67	227.52
365.05	227.54
365.43	227.58
365.81	227.60
366.19	227.63
366.57	227.70
366.95	227.67
367.33	227.63
367.71	227.63
368.09	227.65
368.47	227.63
368.85	227.62
369.23	227.61
369.61	227.60
369.99	227.67
370.37	227.62
370.75	227.66
371.13	227.61
371.51	227.55
371.89	227.55
372.27	227.52
372.65	227.52
373.03	227.50
373.41	227.44
373.78	227.39
374.16	227.31
374.54	227.20
374.92	227.16
375.30	227.13
375.68	227.08
376.06	227.03
376.44	226.96
376.82	226.90
377.19	226.85
377.57	226.79
377.95	226.64
378.33	226.60
378.71	226.48
379.09	226.44
379.47	226.41
379.84	226.33
380.22	226.23
380.60	226.12
380.98	226.07
381.36	226.01
381.73	225.96
382.11	225.87
382.49	225.84
382.87	225.74
383.25	225.64
383.62	225.67
384.00	225.60
384.38	225.54
384.76	225.52
385.13	225.50
385.51	225.43
385.89	225.36
386.27	225.28
386.64	225.22
387.02	225.15
387.40	225.09
387.78	225.03
388.15	225.01
388.53	224.98
388.91	224.93
389.29	224.86
389.66	224.82
390.04	224.79
390.42	224.79
390.79	224.78
391.17	224.77
391.55	224.64
391.92	224.63
392.30	224.62
392.68	224.59
393.05	224.57
393.43	224.55
393.81	224.60
394.18	224.61
394.56	224.63
394.94	224.66
395.31	224.64
395.69	224.70
396.06	224.74
396.44	224.76
396.82	224.77
397.19	224.85
397.57	224.88
397.95	224.94
398.32	224.91
398.70	224.95
399.07	224.98
399.45	225.04
399.82	225.09
400.20	225.14
400.58	225.21
400.95	225.24
401.33	225.33
401.70	225.43
402.08	225.50
402.45	225.56
402.83	225.65
403.20	225.74
403.58	225.83
403.95	225.93
404.33	226.04
404.71	226.13
405.08	226.29
405.46	226.43
405.83	226.57
406.21	226.74
406.58	226.87
406.96	227.03
407.33	227.21
407.70	227.40
408.08	227.65
408.45	227.85
408.83	228.08
409.20	228.29
409.58	228.46
409.95	228.72
410.33	229.00
410.70	229.27
411.08	229.60
411.45	229.91
411.82	230.21
412.20	230.62
412.57	231.05
412.95	231.38
413.32	231.77
413.69	232.22
414.07	232.67
414.44	233.19
414.82	233.70
415.19	234.24
415.56	234.80
415.94	235.36
416.31	236.02
416.68	236.66
417.06	237.43
417.43	238.18
417.81	238.99
418.18	239.81
418.55	240.66
418.93	241.57
419.30	242.50
419.67	243.48
420.04	244.45
420.42	245.52
420.79	246.75
421.16	247.96
421.54	249.22
421.91	250.48
422.28	251.80
422.66	253.19
423.03	254.58
423.40	255.98
423.77	257.44
424.15	258.96
424.52	260.55
424.89	262.24
425.26	263.86
425.64	265.39
426.01	267.08
426.38	268.87
426.75	270.64
427.13	272.44
427.50	274.31
427.87	276.26
428.24	278.20
428.61	280.04
428.99	282.11
429.36	284.28
429.73	286.45
430.10	288.53
430.47	290.68
430.85	292.90
431.22	295.25
431.59	297.74
431.96	300.03
432.33	302.59
432.70	305.05
433.08	307.94
433.45	310.67
433.82	313.37
434.19	316.34
434.56	319.25
434.93	322.01
435.30	324.74
435.68	327.75
436.05	330.71
436.42	333.57
436.79	336.17
437.16	338.98
437.53	341.93
437.90	344.84
438.27	347.73
438.64	350.70
439.01	353.39
439.38	355.72
439.75	357.98
440.13	360.58
440.50	363.01
440.87	364.94
441.24	366.95
441.61	369.21
441.98	370.74
442.35	372.62
442.72	374.55
443.09	376.46
443.46	377.51
443.83	378.11
444.20	378.70
444.57	379.59
444.94	379.86
445.31	380.24
445.68	380.68
446.05	380.76
446.42	380.38
446.79	379.96
447.16	379.50
447.53	379.21
447.90	378.02
448.27	376.83
448.64	375.27
449.01	374.09
449.37	372.04
449.74	370.13
450.11	367.76
450.48	365.22
450.85	362.59
451.22	360.33
451.59	358.23
451.96	356.19
452.33	353.46
452.70	351.04
453.07	348.06
453.43	345.00
453.80	342.11
454.17	339.29
454.54	336.65
454.91	333.86
455.28	331.06
455.65	328.46
456.02	325.87
456.38	323.60
456.75	320.82
457.12	318.50
457.49	316.17
457.86	313.92
458.23	311.94
458.59	309.77
458.96	307.64
459.33	305.75
459.70	303.82
460.07	302.25
460.43	300.44
460.80	298.77
461.17	297.29
461.54	295.69
461.91	294.20
462.27	292.64
462.64	291.35
463.01	289.95
463.38	288.60
463.74	287.20
464.11	285.96
464.48	284.90
464.85	283.76
465.21	282.81
465.58	281.85
465.95	280.73
466.32	279.85
466.68	278.95
467.05	278.00
467.42	277.07
467.78	276.14
468.15	275.26
468.52	274.57
468.88	273.65
469.25	272.89
469.62	272.21
469.98	271.54
470.35	270.84
470.72	270.21
471.08	269.51
471.45	268.96
471.82	268.44
472.18	267.83
472.55	267.36
472.92	266.82
473.28	266.37
473.65	265.94
474.02	265.46
474.38	265.05
474.75	264.68
475.11	264.35
475.48	264.07
475.85	263.83
476.21	263.58
476.58	263.41
476.94	263.31
477.31	263.16
477.67	263.01
478.04	262.89
478.41	262.84
478.77	262.90
479.14	262.84
479.50	262.81
479.87	262.89
480.23	262.96
480.60	263.03
480.96	263.12
481.33	263.30
481.69	263.52
482.06	263.68
482.42	263.84
482.79	264.08
483.15	264.39
483.52	264.73
483.88	265.06
484.25	265.47
484.61	265.84
484.98	266.30
485.34	266.84
485.71	267.39
486.07	267.99
486.44	268.55
486.80	269.22
487.17	269.94
487.53	270.71
487.90	271.54
488.26	272.51
488.62	273.46
488.99	274.40
489.35	275.40
489.72	276.55
490.08	277.80
490.44	279.00
490.81	280.28
491.17	281.60
491.54	283.08
491.90	284.54
492.26	286.16
492.63	287.84
492.99	289.61
493.36	291.53
493.72	293.54
494.08	295.60
494.45	297.83
494.81	300.15
495.17	302.52
495.54	305.08
495.90	307.74
496.26	310.52
496.63	313.46
496.99	316.56
497.35	319.75
497.72	323.10
498.08	326.56
498.44	330.22
498.80	334.13
499.17	338.11
499.53	342.25
499.89	346.58
500.26	351.02
500.62	355.63
500.98	360.48
501.34	365.50
501.71	370.77
502.07	376.13
502.43	381.67
502.79	387.48
503.16	393.41
503.52	399.54
503.88	405.83
504.24	412.35
504.60	419.12
504.97	426.18
505.33	433.29
505.69	440.93
506.05	448.58
506.41	456.31
506.78	464.29
507.14	472.56
507.50	481.11
507.86	489.93
508.22	498.92
508.59	508.04
508.95	517.40
509.31	527.03
509.67	536.96
510.03	547.02
510.39	557.35
510.75	567.89
511.12	578.60
511.48	589.58
511.84	600.79
512.20	612.00
512.56	623.60
512.92	635.52
513.28	647.54
513.64	659.67
514.00	672.02
514.37	684.61
514.73	697.34
515.09	710.01
515.45	722.94
515.81	736.13
516.17	749.65
516.53	763.35
516.89	777.08
517.25	790.78
517.61	804.78
517.97	818.81
518.33	832.86
518.69	847.13
519.05	861.69
519.41	876.36
519.77	891.38
520.13	906.38
520.49	921.29
520.85	936.17
521.21	951.36
521.57	967.14
521.93	982.42
522.29	998.12
522.65	1013.92
523.01	1029.62
523.37	1045.16
523.73	1060.70
524.09	1076.26
524.45	1091.95
524.81	1108.17
525.17	1124.33
525.53	1140.53
525.89	1156.80
526.25	1173.16
526.61	1188.97
526.97	1205.15
527.33	1221.18
527.68	1237.16
528.04	1253.16
528.40	1269.19
528.76	1285.74
529.12	1301.85
529.48	1318.32
529.84	1333.94
530.20	1350.01
530.56	1366.36
530.91	1383.22
531.27	1399.59
531.63	1415.57
531.99	1431.69
532.35	1447.11
532.71	1462.68
533.07	1478.51
533.42	1494.03
533.78	1509.71
534.14	1525.56
534.50	1540.56
534.86	1555.84
535.21	1570.72
535.57	1586.11
535.93	1601.14
536.29	1615.64
536.65	1630.20
537.00	1644.50
537.36	1659.46
537.72	1673.53
538.08	1687.74
538.44	1701.28
538.79	1714.98
539.15	1728.29
539.51	1741.73
539.87	1755.71
540.22	1769.07
540.58	1782.45
540.94	1795.46
541.29	1807.82
541.65	1820.31
542.01	1833.26
542.37	1845.55
542.72	1857.69
543.08	1869.49
543.44	1881.84
543.79	1892.96
544.15	1903.83
544.51	1915.31
544.87	1926.13
545.22	1937.00
545.58	1947.21
545.94	1956.86
546.29	1966.59
546.65	1976.52
547.01	1985.97
547.36	1994.90
547.72	2003.50
548.07	2011.67
548.43	2019.95
548.79	2028.19
549.14	2035.98
549.50	2043.34
549.86	2051.00
550.21	2058.54
550.57	2065.96
550.92	2072.81
551.28	2079.93
551.64	2087.23
551.99	2094.09
552.35	2100.72
552.70	2107.19
553.06	2113.59
553.41	2120.36
553.77	2126.76
554.13	2133.19
554.48	2139.49
554.84	2145.30
555.19	2150.79
555.55	2156.20
555.90	2161.03
556.26	2166.36
556.61	2171.33
556.97	2176.26
557.32	2180.97
557.68	2185.44
558.03	2189.88
558.39	2193.80
558.74	2198.82
559.10	2203.12
559.45	2206.94
559.81	2211.41
560.16	2215.49
560.52	2219.12
560.87	2222.76
561.23	2225.79
561.58	2228.99
561.94	2232.03
562.29	2234.69
562.64	2238.04
563.00	2241.05
563.35	2244.95
563.71	2248.42
564.06	2251.87
564.42	2255.15
564.77	2258.17
565.12	2261.22
565.48	2263.84
565.83	2266.27
566.19	2268.36
566.54	2269.64
566.89	2271.45
567.25	2272.60
567.60	2274.41
567.96	2276.51
568.31	2277.77
568.66	2279.26
569.02	2280.42
569.37	2281.06
569.72	2282.32
570.08	2282.99
570.43	2283.41
570.78	2283.42
571.14	2282.35
571.49	2281.48
571.84	2281.30
572.20	2280.47
572.55	2279.58
572.90	2278.19
573.26	2277.31
573.61	2275.62
573.96	2274.49
574.31	2271.98
574.67	2269.44
575.02	2266.20
575.37	2263.11
575.72	2259.88
576.08	2256.80
576.43	2253.69
576.78	2250.72
577.13	2247.87
577.49	2244.79
577.84	2241.90
578.19	2238.43
578.54	2235.37
578.90	2231.72
579.25	2226.71
579.60	2222.34
579.95	2217.83
580.30	2213.20
580.66	2208.34
581.01	2203.71
581.36	2199.09
581.71	2195.25
582.06	2191.22
582.42	2187.23
582.77	2182.32
583.12	2178.19
583.47	2174.10
583.82	2169.67
584.17	2164.60
584.53	2159.59
584.88	2154.50
585.23	2149.05
585.58	2143.81
585.93	2138.63
586.28	2133.95
586.63	2129.20
586.98	2124.22
587.34	2119.83
587.69	2115.23
588.04	2110.43
588.39	2105.14
588.74	2098.89
589.09	2092.97
589.44	2086.54
589.79	2080.55
590.14	2075.17
590.49	2068.73
590.84	2062.29
591.19	2056.39
591.54	2050.13
591.89	2043.13
592.25	2036.68
592.60	2029.61
592.95	2022.45
593.30	2015.33
593.65	2008.00
594.00	2001.19
594.35	1994.18
594.70	1986.04
595.05	1979.22
595.40	1972.04
595.75	1964.64
596.10	1958.73
596.45	1952.30
596.80	1946.19
597.15	1939.86
597.50	1933.18
597.85	1926.88
598.19	1920.63
598.54	1913.96
598.89	1907.48
599.24	1901.60
599.59	1895.22
599.94	1889.22
600.29	1883.00
600.64	1876.38
600.99	1869.25
601.34	1862.59
601.69	1855.66
602.04	1849.29
602.39	1841.90
602.74	1835.12
603.08	1828.69
603.43	1821.94
603.78	1814.60
604.13	1807.43
604.48	1800.48
604.83	1793.59
605.18	1786.89
605.53	1779.08
605.87	1770.99
606.22	1763.88
606.57	1755.96
606.92	1748.33
607.27	1741.28
607.62	1734.44
607.96	1727.41
608.31	1720.91
608.66	1713.39
609.01	1706.02
609.36	1698.35
609.70	1690.42
610.05	1682.50
610.40	1674.75
610.75	1666.50
611.10	1658.80
611.44	1650.36
611.79	1642.06
612.14	1633.38
612.49	1624.01
612.83	1615.34
613.18	1607.06
613.53	1598.95
613.88	1590.41
614.22	1582.18
614.57	1573.36
614.92	1565.21
615.27	1557.63
615.61	1549.23
615.96	1541.06
616.31	1533.25
616.65	1525.83
617.00	1518.27
617.35	1510.37
617.70	1502.12
618.04	1493.63
618.39	1485.32
618.74	1477.73
619.08	1469.40
619.43	1461.75
619.78	1454.76
620.12	1447.64
620.47	1440.07
620.82	1431.71
621.16	1424.05
621.51	1416.32
621.85	1408.63
622.20	1400.13
622.55	1391.46
622.89	1383.54
623.24	1375.79
623.59	1368.20
623.93	1360.62
624.28	1353.22
624.62	1345.64
624.97	1338.32
625.32	1331.30
625.66	1324.20
626.01	1316.97
626.35	1309.56
626.70	1301.69
627.04	1294.02
627.39	1286.12
627.73	1278.61
628.08	1271.68
628.43	1264.57
628.77	1257.18
629.12	1249.68
629.46	1242.35
629.81	1234.89
630.15	1227.41
630.50	1219.90
630.84	1211.74
631.19	1203.64
631.53	1195.99
631.88	1188.35
632.22	1180.60
632.57	1173.24
632.91	1165.67
633.26	1158.18
633.60	1150.65
633.95	1143.41
634.29	1136.21
634.64	1129.35
634.98	1121.99
635.32	1114.80
635.67	1107.93
636.01	1101.16
636.36	1094.23
636.70	1087.69
637.05	1081.13
637.39	1074.68
637.73	1068.19
638.08	1062.22
638.42	1056.17
638.77	1049.77
639.11	1043.25
639.45	1036.84
639.80	1030.25
640.14	1023.83
640.49	1017.24
640.83	1010.85
641.17	1004.71
641.52	998.36
641.86	991.88
642.20	986.00
642.55	979.51
642.89	973.10
643.23	966.42
643.58	960.65
643.92	954.46
644.26	948.49
644.61	942.42
644.95	936.42
645.29	929.97
645.64	923.19
645.98	916.74
646.32	910.71
646.66	904.71
647.01	898.75
647.35	893.03
647.69	887.01
648.04	881.45
648.38	875.59
648.72	869.58
649.06	863.70
649.41	857.72
649.75	851.87
650.09	845.90
650.43	840.19
650.78	833.98
651.12	827.93
651.46	822.08
651.80	816.41
652.14	810.90
652.49	805.52
652.83	800.34
653.17	794.76
653.51	789.14
653.85	783.60
654.20	778.01
654.54	771.98
654.88	766.32
655.22	760.39
655.56	754.69
655.90	749.26
656.25	743.98
656.59	738.69
656.93	733.52
657.27	728.34
657.61	722.87
657.95	717.74
658.29	712.67
658.64	707.33
658.98	701.92
659.32	696.44
659.66	691.17
660.00	685.89
660.34	680.88
660.68	675.89
661.02	670.82
661.36	666.17
661.70	661.65
662.05	657.28
662.39	653.03
662.73	648.58
663.07	644.10
663.41	639.66
663.75	635.14
664.09	630.58
664.43	626.21
664.77	622.11
665.11	617.92
665.45	613.76
665.79	609.72
666.13	605.64
666.47	601.55
666.81	597.39
667.15	593.22
667.49	589.26
667.83	585.36
668.17	581.48
668.51	577.37
668.85	573.28
669.19	569.39
669.53	565.54
669.87	561.64
670.21	557.94
670.55	554.17
670.89	550.67
671.23	547.22
671.57	543.64
671.91	540.18
672.25	536.58
672.58	532.97
672.92	529.52
673.26	526.28
673.60	523.11
673.94	519.97
674.28	517.05
674.62	514.15
674.96	511.10
675.30	508.16
675.64	505.20
675.97	502.45
676.31	499.55
676.65	496.58
676.99	493.83
677.33	490.93
677.67	488.15
678.01	485.16
678.34	482.21
678.68	479.33
679.02	476.44
679.36	473.70
679.70	471.00
680.04	468.25
680.37	465.38
680.71	462.54
681.05	459.82
681.39	457.11
681.73	454.39
682.06	451.85
682.40	449.33
682.74	446.79
683.08	444.18
683.42	441.60
683.75	439.06
684.09	436.45
684.43	433.98
684.77	431.50
685.10	429.10
685.44	426.77
685.78	424.43
686.12	422.15
686.45	419.77
686.79	417.46
687.13	415.23
687.46	413.02
687.80	410.85
688.14	408.63
688.48	406.56
688.81	404.38
689.15	402.20
689.49	399.97
689.82	397.87
690.16	395.75
690.50	393.71
690.83	391.81
691.17	389.87
691.51	387.95
691.84	386.11
692.18	384.17
692.52	382.24
692.85	380.29
693.19	378.40
693.52	376.60
693.86	374.77
694.20	372.92
694.53	371.14
694.87	369.29
695.21	367.48
695.54	365.54
695.88	363.75
696.21	361.96
696.55	360.27
696.88	358.53
697.22	356.85
697.56	355.19
697.89	353.53
698.23	351.87
698.56	350.23
698.90	348.61
699.23	346.95
699.57	345.36
699.90	343.78
700.24	342.17
700.58	340.62
700.91	339.13
701.25	337.70
701.58	336.30
701.92	334.92
702.25	333.56
702.59	332.24
702.92	330.89
703.26	329.57
703.59	328.29
703.93	327.11
704.26	325.86
704.60	324.58
704.93	323.27
705.26	322.01
705.60	320.74
705.93	319.51
706.27	318.47
706.60	317.36
706.94	316.28
707.27	315.14
707.61	314.04
707.94	313.03
708.27	311.92
708.61	310.80
708.94	309.73
709.28	308.72
709.61	307.69
709.94	306.73
710.28	305.71
710.61	304.68
710.95	303.55
711.28	302.61
711.61	301.62
711.95	300.69
712.28	299.72
712.61	298.77
712.95	297.83
713.28	296.89
713.61	295.96
713.95	295.07
714.28	294.22
714.61	293.33
714.95	292.43
715.28	291.56
715.61	290.66
715.95	289.76
716.28	288.88
716.61	288.00
716.95	287.14
717.28	286.31
717.61	285.53
717.94	284.80
718.28	283.97
718.61	283.22
718.94	282.51
719.27	281.83
719.61	281.19
719.94	280.53
720.27	279.81
720.60	279.13
720.94	278.49
721.27	277.87
721.60	277.30
721.93	276.68
722.27	276.11
722.60	275.58
722.93	275.02
723.26	274.45
723.59	273.91
723.93	273.33
724.26	272.83
724.59	272.23
724.92	271.66
725.25	271.16
725.59	270.63
725.92	270.07
726.25	269.53
726.58	268.99
726.91	268.49
727.24	268.00
727.57	267.47
727.91	266.92
728.24	266.41
728.57	265.86
728.90	265.36
729.23	264.87
729.56	264.39
729.89	263.89
730.22	263.39
730.55	262.94
730.89	262.51
731.22	262.01
731.55	261.57
731.88	261.13
732.21	260.65
732.54	260.19
732.87	259.77
733.20	259.37
733.53	258.96
733.86	258.57
734.19	258.17
734.52	257.79
734.85	257.49
735.18	257.11
735.51	256.76
735.84	256.39
736.17	256.01
736.50	255.59
736.83	255.36
737.16	255.08
737.49	254.74
737.82	254.37
738.15	254.06
738.48	253.72
738.81	253.44
739.14	253.12
739.47	252.85
739.80	252.51
740.13	252.20
740.46	251.85
740.79	251.49
741.12	251.16
741.45	250.85
741.78	250.48
742.11	250.20
742.44	249.89
742.77	249.63
743.10	249.31
743.43	249.04
743.75	248.68
744.08	248.53
744.41	248.24
744.74	247.98
745.07	247.68
745.40	247.44
745.73	247.19
746.06	246.94
746.39	246.68
746.71	246.41
747.04	246.14
747.37	245.88
747.70	245.66
748.03	245.42
748.36	245.19
748.68	244.98
749.01	244.71
749.34	244.47
749.67	244.21
750.00	243.98
750.33	243.83
750.65	243.61
750.98	243.22
751.31	243.01
751.64	242.79
751.97	242.63
752.29	242.40
752.62	242.12
752.95	241.91
753.28	241.70
753.60	241.51
753.93	241.34
754.26	241.19
754.59	240.96
754.91	240.75
755.24	240.52
755.57	240.28
755.90	240.12
756.22	239.91
756.55	239.74
756.88	239.56
757.20	239.30
757.53	239.09
757.86	238.95
758.19	238.78
758.51	238.62
758.84	238.40
759.17	238.23
759.49	238.07
759.82	237.94
760.15	237.77
760.47	237.60
760.80	237.41
761.13	237.29
761.45	237.14
761.78	236.97
762.11	236.83
762.43	236.71
762.76	236.56
763.08	236.45
763.41	236.30
763.74	236.16
764.06	236.03
764.39	235.90
764.71	235.74
765.04	235.57
765.37	235.43
765.69	235.31
766.02	235.16
766.34	235.03
766.67	234.87
767.00	234.76
767.32	234.73
767.65	234.69
767.97	234.52
768.30	234.42
768.62	234.34
768.95	234.20
769.27	234.04
769.60	233.95
769.92	233.81
770.25	233.70
770.57	233.57
770.90	233.42
771.22	233.31
771.55	233.24
771.87	233.14
772.20	233.05
772.52	233.02
772.85	233.06
773.17	233.00
773.50	232.88
773.82	232.74
774.15	232.59
774.47	232.42
774.80	232.33
775.12	232.22
775.45	232.11
775.77	232.09
776.09	232.04
776.42	231.95
776.74	231.90
777.07	231.82
777.39	231.77
777.72	231.71
778.04	231.65
778.36	231.55
778.69	231.47
779.01	231.39
779.33	231.23
779.66	231.03
779.98	230.94
780.31	230.95
780.63	230.95
780.95	230.93
781.28	230.86
781.60	230.81
781.92	230.74
782.25	230.70
782.57	230.61
782.89	230.54
783.22	230.49
783.54	230.40
783.86	230.35
784.19	230.29
784.51	230.25
784.83	230.19
785.16	230.14
785.48	230.10
785.80	230.07
786.12	230.06
786.45	230.03
786.77	229.97
787.09	229.89
787.42	229.80
787.74	229.72
788.06	229.72
788.38	229.66
788.71	229.61
789.03	229.61
789.35	229.58
789.67	229.51
789.99	229.46
790.32	229.40
790.64	229.34
790.96	229.38
791.28	229.36
791.61	229.29
791.93	229.24
792.25	229.21
792.57	229.24
792.89	229.15
793.21	229.08
793.54	229.04
793.86	228.99
794.18	228.94
794.50	228.90
794.82	228.84
795.14	228.79
795.47	228.77
795.79	228.71
796.11	228.63
796.43	228.60
796.75	228.56
797.07	228.52
797.39	228.51
797.71	228.39
798.04	228.34
798.36	228.31
798.68	228.29
799.00	228.24
799.32	228.16
799.64	228.14
799.96	228.12
800.28	228.11
800.60	228.08
800.92	228.04
801.24	227.98
801.56	227.95
801.89	227.93
802.21	227.88
802.53	227.84
802.85	227.85
803.17	227.86
803.49	227.83
803.81	227.81
804.13	227.75
804.45	227.71
804.77	227.68
805.09	227.67
805.41	227.63
805.73	227.60
806.05	227.52
806.37	227.47
806.69	227.40
807.01	227.34
807.33	227.29
807.65	227.25
807.97	227.28
808.28	227.24
808.60	227.22
808.92	227.16
809.24	227.19
809.56	227.17
809.88	227.11
810.20	227.08
810.52	227.06
810.84	227.03
811.16	226.99
811.48	226.92
811.80	226.89
812.12	226.84
812.43	226.87
812.75	226.83
813.07	226.83
813.39	226.83
813.71	226.82
814.03	226.79
814.35	226.75
814.67	226.67
814.98	226.65
815.30	226.61
815.62	226.59
815.94	226.49
816.26	226.52
816.58	226.49
816.89	226.49
817.21	226.48
817.53	226.46
817.85	226.47
818.17	226.45
818.48	226.43
818.80	226.42
819.12	226.37
819.44	226.36
819.76	226.33
820.07	226.35
820.39	226.31
820.71	226.30
821.03	226.29
821.34	226.26
821.66	226.22
821.98	226.23
822.30	226.23
822.61	226.31
822.93	226.21
823.25	226.17
823.57	226.14
823.88	226.12
824.20	226.11
824.52	226.10
824.83	226.13
825.15	226.12
825.47	226.12
825.79	226.11
826.10	226.09
826.42	226.11
826.74	226.09
827.05	226.09
827.37	226.10
827.69	226.10
828.00	226.12
828.32	226.13
828.64	226.12
828.95	226.15
829.27	226.06
829.58	226.06
829.90	226.08
830.22	226.10
830.53	226.05
830.85	226.10
831.17	226.08
831.48	226.05
831.80	226.05
832.11	226.06
832.43	226.07
832.75	226.07
833.06	226.09
833.38	226.08
833.69	226.08
834.01	226.07
834.32	226.08
834.64	226.11
834.96	226.10
835.27	226.09
835.59	226.10
835.90	226.11
836.22	226.10
836.53	226.10
836.85	226.10
837.16	226.26
837.48	226.23
837.79	226.29
838.11	226.31
838.42	226.32
838.74	226.30
839.05	226.27
839.37	226.28
839.68	226.22
840.00	226.21
840.31	226.21
840.63	226.24
840.94	226.22
841.26	226.15
841.57	226.16
841.88	226.18
842.20	226.15
842.51	226.11
842.83	226.11
843.14	226.17
843.46	226.15
843.77	226.05
844.08	226.03
844.40	225.97
844.71	225.94
845.03	225.91
845.34	225.91
845.65	225.86
845.97	225.88
846.28	225.85
846.60	225.86
846.91	225.84
847.22	225.81
847.54	225.80
847.85	225.82
848.16	225.79
848.48	225.73
848.79	225.76
849.10	225.78
849.42	225.77
849.73	225.66
850.04	225.63
850.36	225.57
850.67	225.58
850.98	225.57
851.30	225.59
851.61	225.56
851.92	225.55
852.23	225.62
852.55	225.57
852.86	225.59
853.17	225.60
853.49	225.60
853.80	225.62
854.11	225.64
854.42	225.59
854.74	225.57
855.05	225.56
855.36	225.47
855.67	225.47
855.99	225.46
856.30	225.58
856.61	225.59
856.92	225.59
857.23	225.58
857.55	225.54
857.86	225.54
858.17	225.55
858.48	225.49
858.79	225.45
859.11	225.45
859.42	225.41
859.73	225.37
860.04	225.34
860.35	225.25
860.66	225.19
860.98	225.20
861.29	225.21
861.60	225.22
861.91	225.23
862.22	225.22
862.53	225.21
862.84	225.10
863.16	225.10
863.47	225.07
863.78	225.02
864.09	224.98
864.40	224.94
864.71	224.92
865.02	224.94
865.33	224.91
865.64	224.90
865.95	224.90
866.27	225.00
866.58	225.01
866.89	225.07
867.20	225.09
867.51	225.11
867.82	225.10
868.13	225.12
868.44	225.15
868.75	225.16
869.06	225.15
869.37	225.19
869.68	225.19
869.99	225.22
870.30	225.28
870.61	225.32
870.92	225.33
871.23	225.35
871.54	225.37
871.85	225.40
872.16	225.42
872.47	225.43
872.78	225.36
873.09	225.37
873.40	225.39
873.71	225.39
874.02	225.40
874.33	225.43
874.64	225.44
874.95	225.46
875.26	225.47
875.56	225.49
875.87	225.46
876.18	225.48
876.49	225.60
876.80	225.56
877.11	225.52
877.42	225.51
877.73	225.49
878.04	225.48
878.35	225.50
878.66	225.50
878.96	225.50
879.27	225.51
879.58	225.50
879.89	225.44
880.20	225.44
880.51	225.46
880.82	225.45
881.12	225.43
881.43	225.40
881.74	225.38
882.05	225.38
882.36	225.37
882.67	225.38
882.97	225.25
883.28	225.26
883.59	225.29
883.90	225.32
884.21	225.35
884.51	225.35
884.82	225.36
885.13	225.34
885.44	225.36
885.74	225.33
886.05	225.32
886.36	225.35
886.67	225.35
886.98	225.38
887.28	225.39
887.59	225.38
887.90	225.37
888.20	225.35
888.51	225.33
888.82	225.33
889.13	225.32
889.43	225.40
889.74	225.39
890.05	225.37
890.35	225.34
890.66	225.28
890.97	225.27
891.28	225.24
891.58	225.21
891.89	225.17
892.20	225.18
892.50	225.14
892.81	225.09
893.12	225.06
893.42	224.98
893.73	224.95
894.04	224.92
894.34	224.95
894.65	224.95
894.95	224.94
895.26	224.95
895.57	224.97
895.87	224.88
896.18	224.88
896.48	224.87
896.79	224.88
897.10	224.93
897.40	224.94
897.71	224.94
898.01	224.95
898.32	224.97
898.63	224.92
898.93	224.91
899.24	224.95
899.54	224.95
899.85	224.96
900.15	224.96
900.46	225.00
900.76	224.98
901.07	224.95
901.38	224.94
901.68	224.94
901.99	224.90
902.29	224.90
902.60	224.89
902.90	224.87
903.21	224.84
903.51	224.82
903.82	224.81
904.12	224.83
904.43	224.83
904.73	224.84
905.03	224.85
905.34	224.98
905.64	224.95
905.95	224.96
906.25	224.98
906.56	224.99
906.86	224.97
907.17	224.96
907.47	224.99
907.77	224.99
908.08	224.97
908.38	224.97
908.69	224.95
908.99	224.98
909.30	225.00
909.60	224.98
909.90	224.98
910.21	224.98
910.51	224.95
910.81	224.98
911.12	224.96
911.42	224.98
911.73	224.86
912.03	224.91
912.33	224.89
912.64	224.85
912.94	224.81
913.24	224.79
913.55	224.78
913.85	224.76
914.15	224.78
914.46	224.82
914.76	224.80
915.06	224.80
915.37	224.78
915.67	224.79
915.97	224.82
916.27	224.82
916.58	224.81
916.88	224.81
917.18	224.80
917.49	224.87
917.79	224.89
918.09	224.92
918.39	224.95
918.70	224.96
919.00	224.96
919.30	225.03
919.60	225.03
919.91	225.03
920.21	225.06
920.51	225.07
920.81	225.02
921.12	225.05
921.42	225.04
921.72	225.04
922.02	225.04
922.32	225.04
922.63	225.05
922.93	225.09
923.23	225.08
923.53	225.03
923.83	224.99
924.13	224.99
924.44	224.99
924.74	224.99
925.04	225.03
925.34	225.04
925.64	225.01
925.94	224.98
926.24	225.06
926.55	225.03
926.85	225.01
927.15	225.03
927.45	225.04
927.75	225.08
928.05	225.11
928.35	225.12
928.65	225.17
928.95	225.18
929.26	225.20
929.56	225.26
929.86	225.30
930.16	225.29
930.46	225.26
930.76	225.30
931.06	225.28
931.36	225.23
931.66	225.22
931.96	225.24
932.26	225.29
932.56	225.22
932.86	225.23
933.16	225.27
933.46	225.26
933.76	225.26
934.06	225.26
934.36	225.29
934.66	225.24
934.96	225.24
935.26	225.23
935.56	225.22
935.86	225.17
936.16	225.15
936.46	225.11
936.76	225.13
937.06	225.14
937.36	225.14
937.66	225.15
937.96	225.17
938.26	225.14
938.56	225.11
938.86	225.12
939.16	225.12
939.46	225.14
939.76	225.13
940.06	225.12
940.35	225.09
940.65	225.04
940.95	225.05
941.25	224.97
941.55	225.00
941.85	224.98
942.15	225.04
942.45	225.07
942.75	225.07
943.04	225.07
943.34	225.05
943.64	225.01
943.94	225.03
944.24	225.01
944.54	224.99
944.84	225.00
945.13	224.98
945.43	225.00
945.73	224.97
946.03	224.99
946.33	224.94
946.62	224.95
946.92	224.95
947.22	224.99
947.52	225.02
947.82	224.99
948.11	225.01
948.41	224.95
948.71	224.92
949.01	224.94
949.31	224.95
949.60	224.94
949.90	224.95
950.20	224.92
950.50	224.94
950.79	224.96
951.09	224.96
951.39	224.97
951.69	224.95
951.98	224.94
952.28	224.91
952.58	224.95
952.87	224.94
953.17	224.92
953.47	224.92
953.76	224.91
954.06	224.88
954.36	224.86
954.66	224.84
954.95	224.87
955.25	224.87
955.55	224.85
955.84	224.81
956.14	224.81
956.44	224.82
956.73	224.80
957.03	224.82
957.32	224.85
957.62	224.85
957.92	224.88
958.21	224.87
958.51	224.99
958.81	224.98
959.10	225.00
959.40	225.05
959.69	225.03
959.99	225.05
960.29	225.07
960.58	225.04
960.88	225.08
961.17	225.05
961.47	225.05
961.76	225.08
962.06	225.11
962.36	225.13
962.65	225.12
962.95	225.11
963.24	225.09
963.54	225.07
963.83	225.08
964.13	225.06
964.42	225.04
964.72	224.96
965.01	224.99
965.31	224.98
965.60	224.98
965.90	225.02
966.19	224.98
966.49	224.98
966.78	225.02
967.08	225.04
967.37	225.04
967.67	225.02
967.96	225.00
968.26	225.01
968.55	225.00
968.85	225.02
969.14	225.06
969.43	225.06
969.73	225.07
970.02	225.04
970.32	225.05
970.61	225.06
970.91	225.00
971.20	224.98
971.49	224.99
971.79	224.99
972.08	224.91
972.38	224.96
972.67	224.97
972.96	224.97
973.26	224.93
973.55	224.96
973.85	224.98
974.14	224.97
974.43	224.99
974.73	224.97
975.02	224.96
975.31	224.92
975.61	224.91
975.90	224.90
976.19	224.89
976.49	224.89
976.78	224.91
977.07	224.94
977.37	224.95
977.66	224.97
977.95	224.95
978.24	224.97
978.54	225.00
978.83	224.97
979.12	224.95
979.42	224.94
979.71	224.90
980.00	224.90
980.29	224.87
980.59	224.81
980.88	224.84
981.17	224.82
981.46	224.82
981.76	224.81
982.05	224.86
982.34	224.88
982.63	224.89
982.93	224.86
983.22	224.88
983.51	224.88
983.80	224.88
984.09	224.86
984.39	224.84
984.68	224.77
984.97	224.77
985.26	224.75
985.55	224.75
985.85	224.73
986.14	224.74
986.43	224.80
986.72	224.81
987.01	224.78
987.30	224.80
987.59	224.78
987.89	224.78
988.18	224.72
988.47	224.70
988.76	224.66
989.05	224.64
989.34	224.62
989.63	224.62
989.92	224.57
990.22	224.55
990.51	224.54
990.80	224.58
991.09	224.58
991.38	224.60
991.67	224.62
991.96	224.60
992.25	224.61
992.54	224.54
992.83	224.52
993.12	224.51
993.41	224.54
993.70	224.59
993.99	224.57
994.28	224.59
994.58	224.62
994.87	224.62
995.16	224.62
995.45	224.61
995.74	224.57
996.03	224.61
996.32	224.70
996.61	224.73
996.90	224.69
997.19	224.72
997.48	224.72
997.77	224.70
998.06	224.72
998.34	224.68
998.63	224.71
998.92	224.76
999.21	224.77
999.50	224.78
999.79	224.77
1000.08	224.82
1000.37	224.82
1000.66	224.80
1000.95	224.85
1001.24	224.87
1001.53	224.89
1001.82	224.90
1002.11	224.85
1002.40	224.82
1002.68	224.85
1002.97	224.92
1003.26	224.91
1003.55	224.90
1003.84	224.94
1004.13	224.98
1004.42	225.01
1004.71	225.02
1004.99	224.99
1005.28	225.04
1005.57	225.04
1005.86	225.03
1006.15	225.00
1006.44	224.98
1006.72	224.99
1007.01	224.96
1007.30	224.94
1007.59	224.93
1007.88	224.96
1008.17	224.97
1008.45	224.93
1008.74	224.87
1009.03	224.84
1009.32	224.83
1009.60	224.81
1009.89	224.78
1010.18	224.75
1010.47	224.75
1010.76	224.75
1011.04	224.76
1011.33	224.76
1011.62	224.78
1011.91	224.77
1012.19	224.76
1012.48	224.77
1012.77	224.78
1013.05	224.83
1013.34	224.81
1013.63	224.79
1013.92	224.77
1014.20	224.81
1014.49	224.86
1014.78	224.88
1015.06	224.82
1015.35	224.79
1015.64	224.80
1015.92	224.80
1016.21	224.79
1016.50	224.78
1016.78	224.80
1017.07	224.78
1017.36	224.74
1017.64	224.72
1017.93	224.72
1018.22	224.69
1018.50	224.67
1018.79	224.68
1019.08	224.62
1019.36	224.63
1019.65	224.61
1019.93	224.65
1020.22	224.63
1020.51	224.66
1020.79	224.65
1021.08	223.96
1021.36	224.37
1021.65	225.06
1021.94	224.43
1022.22	224.42
1022.51	224.14
1022.79	225.27
1023.08	224.80
1023.36	225.79
1023.65	224.56
>>>>>End Processed Spectral Data<<<<<
