SpectraSuite Data File
++++++++++++++++++++++++++++++++++++
Date: Fri Feb 01 16:04:37 EST 2013
User: group
Dark Spectrum Present: No
Reference Spectrum Present: No
Number of Sampled Component Spectra: 1
Spectrometers: USB2E7196
Integration Time (usec): 35000 (USB2E7196)
Spectra Averaged: 100 (USB2E7196)
Boxcar Smoothing: 10 (USB2E7196)
Correct for Electrical Dark: No (USB2E7196)
Strobe/Lamp Enabled: No (USB2E7196)
Correct for Detector Non-linearity: No (USB2E7196)
Correct for Stray Light: No (USB2E7196)
Number of Pixels in Processed Spectrum: 2048
>>>>>Begin Processed Spectral Data<<<<<
339.09	0.00
339.48	214.12
339.86	216.25
340.24	217.01
340.63	218.36
341.01	221.25
341.39	221.74
341.78	222.78
342.16	224.00
342.54	223.96
342.93	212.82
343.31	223.56
343.69	224.14
344.07	224.61
344.46	225.05
344.84	225.44
345.22	225.70
345.60	225.92
345.99	226.13
346.37	226.24
346.75	226.38
347.13	226.46
347.52	226.52
347.90	226.57
348.28	226.59
348.66	226.66
349.05	226.68
349.43	226.69
349.81	226.72
350.19	226.73
350.57	226.75
350.96	226.86
351.34	226.97
351.72	227.05
352.10	227.14
352.48	227.20
352.87	227.24
353.25	227.28
353.63	227.36
354.01	227.39
354.39	227.48
354.77	227.54
355.15	227.63
355.54	227.67
355.92	227.73
356.30	227.81
356.68	227.93
357.06	228.01
357.44	228.06
357.82	228.13
358.20	228.23
358.58	228.30
358.97	228.36
359.35	228.45
359.73	228.50
360.11	228.55
360.49	228.61
360.87	228.69
361.25	228.78
361.63	228.86
362.01	228.93
362.39	228.96
362.77	229.00
363.15	229.03
363.53	229.05
363.91	229.08
364.29	229.09
364.67	229.02
365.05	229.05
365.43	229.11
365.81	229.13
366.19	229.18
366.57	229.27
366.95	229.26
367.33	229.22
367.71	229.20
368.09	229.22
368.47	229.21
368.85	229.20
369.23	229.16
369.61	229.10
369.99	229.14
370.37	229.14
370.75	229.15
371.13	229.08
371.51	229.02
371.89	228.96
372.27	228.96
372.65	228.92
373.03	228.87
373.41	228.82
373.78	228.77
374.16	228.65
374.54	228.55
374.92	228.49
375.30	228.41
375.68	228.36
376.06	228.28
376.44	228.19
376.82	228.15
377.19	228.10
377.57	228.05
377.95	227.89
378.33	227.83
378.71	227.73
379.09	227.70
379.47	227.64
379.84	227.62
380.22	227.54
380.60	227.45
380.98	227.35
381.36	227.28
381.73	227.20
382.11	227.15
382.49	227.06
382.87	226.98
383.25	226.94
383.62	226.99
384.00	226.94
384.38	226.88
384.76	226.84
385.13	226.80
385.51	226.76
385.89	226.72
386.27	226.66
386.64	226.60
387.02	226.54
387.40	226.51
387.78	226.43
388.15	226.41
388.53	226.40
388.91	226.38
389.29	226.34
389.66	226.33
390.04	226.32
390.42	226.31
390.79	226.29
391.17	226.26
391.55	226.11
391.92	226.10
392.30	226.10
392.68	226.02
393.05	226.03
393.43	225.99
393.81	226.02
394.18	226.01
394.56	226.02
394.94	226.04
395.31	226.07
395.69	226.12
396.06	226.14
396.44	226.14
396.82	226.20
397.19	226.25
397.57	226.25
397.95	226.26
398.32	226.28
398.70	226.35
399.07	226.45
399.45	226.53
399.82	226.57
400.20	226.63
400.58	226.72
400.95	226.73
401.33	226.81
401.70	226.91
402.08	227.02
402.45	227.11
402.83	227.23
403.20	227.31
403.58	227.40
403.95	227.52
404.33	227.65
404.71	227.75
405.08	227.96
405.46	228.12
405.83	228.27
406.21	228.41
406.58	228.56
406.96	228.72
407.33	228.91
407.70	229.09
408.08	229.35
408.45	229.59
408.83	229.86
409.20	230.07
409.58	230.27
409.95	230.54
410.33	230.80
410.70	231.04
411.08	231.33
411.45	231.62
411.82	231.95
412.20	232.29
412.57	232.69
412.95	233.00
413.32	233.42
413.69	233.81
414.07	234.31
414.44	234.76
414.82	235.22
415.19	235.74
415.56	236.34
415.94	236.90
416.31	237.49
416.68	238.08
417.06	238.80
417.43	239.46
417.81	240.17
418.18	240.96
418.55	241.83
418.93	242.70
419.30	243.60
419.67	244.50
420.04	245.46
420.42	246.44
420.79	247.61
421.16	248.73
421.54	249.96
421.91	251.14
422.28	252.37
422.66	253.73
423.03	255.05
423.40	256.35
423.77	257.76
424.15	259.19
424.52	260.70
424.89	262.32
425.26	263.92
425.64	265.40
426.01	267.01
426.38	268.66
426.75	270.35
427.13	272.08
427.50	273.90
427.87	275.85
428.24	277.70
428.61	279.46
428.99	281.39
429.36	283.50
429.73	285.55
430.10	287.58
430.47	289.64
430.85	291.74
431.22	293.98
431.59	296.34
431.96	298.58
432.33	301.03
432.70	303.39
433.08	306.14
433.45	308.81
433.82	311.36
434.19	314.20
434.56	317.04
434.93	319.66
435.30	322.27
435.68	325.10
436.05	327.97
436.42	330.76
436.79	333.30
437.16	336.00
437.53	338.84
437.90	341.64
438.27	344.37
438.64	347.20
439.01	349.80
439.38	352.05
439.75	354.29
440.13	356.82
440.50	359.14
440.87	361.05
441.24	362.97
441.61	365.16
441.98	366.71
442.35	368.50
442.72	370.40
443.09	372.21
443.46	373.21
443.83	373.79
444.20	374.31
444.57	375.11
444.94	375.34
445.31	375.67
445.68	376.01
446.05	376.12
446.42	375.72
446.79	375.27
447.16	374.79
447.53	374.41
447.90	373.20
448.27	372.05
448.64	370.47
449.01	369.34
449.37	367.36
449.74	365.42
450.11	363.11
450.48	360.62
450.85	358.09
451.22	355.89
451.59	353.86
451.96	351.82
452.33	349.21
452.70	346.89
453.07	344.03
453.43	341.12
453.80	338.29
454.17	335.60
454.54	333.08
454.91	330.40
455.28	327.70
455.65	325.23
456.02	322.77
456.38	320.60
456.75	317.96
457.12	315.70
457.49	313.47
457.86	311.33
458.23	309.50
458.59	307.44
458.96	305.40
459.33	303.55
459.70	301.73
460.07	300.23
460.43	298.50
460.80	296.89
461.17	295.46
461.54	293.98
461.91	292.58
462.27	291.13
462.64	289.85
463.01	288.54
463.38	287.28
463.74	285.94
464.11	284.76
464.48	283.75
464.85	282.66
465.21	281.81
465.58	280.90
465.95	279.81
466.32	278.92
466.68	278.05
467.05	277.14
467.42	276.27
467.78	275.37
468.15	274.53
468.52	273.88
468.88	273.04
469.25	272.30
469.62	271.70
469.98	271.04
470.35	270.44
470.72	269.83
471.08	269.20
471.45	268.67
471.82	268.13
472.18	267.53
472.55	267.11
472.92	266.56
473.28	266.09
473.65	265.63
474.02	265.20
474.38	264.80
474.75	264.49
475.11	264.14
475.48	263.90
475.85	263.68
476.21	263.46
476.58	263.29
476.94	263.13
477.31	262.97
477.67	262.83
478.04	262.69
478.41	262.67
478.77	262.66
479.14	262.58
479.50	262.58
479.87	262.62
480.23	262.69
480.60	262.76
480.96	262.85
481.33	263.05
481.69	263.21
482.06	263.39
482.42	263.56
482.79	263.83
483.15	264.11
483.52	264.46
483.88	264.75
484.25	265.12
484.61	265.53
484.98	265.95
485.34	266.50
485.71	267.09
486.07	267.64
486.44	268.21
486.80	268.93
487.17	269.65
487.53	270.46
487.90	271.30
488.26	272.22
488.62	273.19
488.99	274.15
489.35	275.19
489.72	276.32
490.08	277.54
490.44	278.79
490.81	280.13
491.17	281.51
491.54	283.04
491.90	284.58
492.26	286.24
492.63	287.98
492.99	289.74
493.36	291.65
493.72	293.72
494.08	295.81
494.45	298.06
494.81	300.44
495.17	302.90
495.54	305.45
495.90	308.16
496.26	310.98
496.63	313.95
496.99	317.09
497.35	320.36
497.72	323.78
498.08	327.28
498.44	330.98
498.80	334.93
499.17	338.99
499.53	343.15
499.89	347.58
500.26	352.13
500.62	356.86
500.98	361.87
501.34	366.97
501.71	372.32
502.07	377.80
502.43	383.47
502.79	389.31
503.16	395.44
503.52	401.74
503.88	408.17
504.24	414.85
504.60	421.78
504.97	428.96
505.33	436.35
505.69	444.08
506.05	451.84
506.41	459.67
506.78	467.80
507.14	476.31
507.50	484.97
507.86	494.04
508.22	503.23
508.59	512.43
508.95	522.07
509.31	531.99
509.67	542.07
510.03	552.33
510.39	562.93
510.75	573.71
511.12	584.68
511.48	596.01
511.84	607.50
512.20	618.94
512.56	630.85
512.92	643.02
513.28	655.48
513.64	667.95
514.00	680.73
514.37	693.72
514.73	706.73
515.09	719.76
515.45	733.05
515.81	746.68
516.17	760.77
516.53	774.89
516.89	789.02
517.25	803.27
517.61	817.74
517.97	832.20
518.33	846.65
518.69	861.50
519.05	876.43
519.41	891.61
519.77	907.23
520.13	922.69
520.49	938.00
520.85	953.31
521.21	969.08
521.57	985.35
521.93	1001.06
522.29	1017.52
522.65	1033.85
523.01	1050.10
523.37	1066.18
523.73	1082.26
524.09	1098.21
524.45	1114.50
524.81	1131.17
525.17	1147.93
525.53	1164.73
525.89	1181.59
526.25	1198.27
526.61	1214.75
526.97	1231.38
527.33	1247.92
527.68	1264.59
528.04	1281.09
528.40	1297.68
528.76	1314.71
529.12	1331.26
529.48	1348.18
529.84	1364.07
530.20	1380.57
530.56	1397.40
530.91	1414.69
531.27	1431.31
531.63	1447.87
531.99	1464.33
532.35	1480.18
532.71	1496.01
533.07	1512.34
533.42	1528.21
533.78	1544.20
534.14	1560.37
534.50	1575.71
534.86	1591.50
535.21	1606.57
535.57	1622.41
535.93	1637.78
536.29	1652.35
536.65	1667.29
537.00	1681.91
537.36	1697.22
537.72	1711.57
538.08	1725.84
538.44	1739.57
538.79	1753.42
539.15	1766.82
539.51	1780.51
539.87	1794.75
540.22	1808.31
540.58	1821.73
540.94	1834.89
541.29	1847.61
541.65	1860.09
542.01	1873.07
542.37	1885.27
542.72	1897.56
543.08	1909.23
543.44	1921.59
543.79	1932.80
544.15	1943.74
544.51	1955.39
544.87	1966.31
545.22	1977.22
545.58	1987.50
545.94	1997.20
546.29	2007.04
546.65	2016.94
547.01	2026.31
547.36	2035.10
547.72	2043.65
548.07	2051.62
548.43	2059.83
548.79	2067.93
549.14	2075.60
549.50	2083.13
549.86	2090.72
550.21	2098.16
550.57	2105.34
550.92	2111.94
551.28	2119.02
551.64	2126.02
551.99	2132.51
552.35	2138.76
552.70	2144.90
553.06	2151.03
553.41	2157.47
553.77	2163.49
554.13	2169.78
554.48	2175.81
554.84	2181.29
555.19	2186.55
555.55	2191.67
555.90	2196.17
556.26	2201.11
556.61	2205.84
556.97	2210.21
557.32	2214.44
557.68	2218.54
558.03	2222.85
558.39	2226.57
558.74	2231.45
559.10	2235.47
559.45	2239.01
559.81	2243.18
560.16	2247.05
560.52	2250.21
560.87	2253.51
561.23	2256.24
561.58	2259.05
561.94	2261.70
562.29	2263.93
562.64	2266.54
563.00	2269.21
563.35	2272.86
563.71	2276.05
564.06	2279.40
564.42	2282.35
564.77	2284.83
565.12	2287.11
565.48	2289.12
565.83	2291.04
566.19	2292.31
566.54	2293.19
566.89	2294.46
567.25	2295.16
567.60	2296.40
567.96	2298.15
568.31	2299.08
568.66	2300.20
569.02	2300.82
569.37	2301.05
569.72	2302.06
570.08	2302.39
570.43	2302.49
570.78	2301.89
571.14	2300.33
571.49	2298.82
571.84	2298.25
572.20	2297.17
572.55	2296.29
572.90	2294.64
573.26	2293.21
573.61	2291.50
573.96	2289.81
574.31	2286.97
574.67	2283.98
575.02	2280.44
575.37	2276.98
575.72	2273.31
576.08	2269.83
576.43	2266.49
576.78	2262.95
577.13	2259.70
577.49	2256.70
577.84	2253.27
578.19	2249.51
578.54	2245.96
578.90	2241.74
579.25	2236.24
579.60	2231.29
579.95	2226.13
580.30	2221.22
580.66	2216.11
581.01	2211.04
581.36	2206.06
581.71	2201.73
582.06	2197.43
582.42	2192.89
582.77	2187.70
583.12	2183.07
583.47	2178.45
583.82	2173.49
584.17	2168.26
584.53	2162.65
584.88	2156.92
585.23	2151.05
585.58	2145.45
585.93	2139.98
586.28	2135.31
586.63	2130.29
586.98	2125.28
587.34	2120.68
587.69	2115.75
588.04	2110.53
588.39	2104.98
588.74	2098.58
589.09	2092.44
589.44	2085.44
589.79	2079.63
590.14	2074.02
590.49	2067.28
590.84	2061.01
591.19	2054.92
591.54	2048.41
591.89	2041.30
592.25	2034.45
592.60	2027.31
592.95	2019.80
593.30	2012.36
593.65	2004.70
594.00	1997.66
594.35	1990.31
594.70	1982.21
595.05	1975.17
595.40	1967.87
595.75	1960.34
596.10	1954.25
596.45	1947.54
596.80	1941.48
597.15	1934.93
597.50	1927.86
597.85	1921.53
598.19	1914.85
598.54	1907.78
598.89	1901.11
599.24	1895.18
599.59	1888.55
599.94	1882.41
600.29	1876.07
600.64	1869.56
600.99	1862.15
601.34	1855.24
601.69	1848.33
602.04	1841.50
602.39	1834.04
602.74	1827.22
603.08	1820.48
603.43	1813.57
603.78	1806.24
604.13	1799.14
604.48	1791.68
604.83	1784.83
605.18	1777.85
605.53	1769.89
605.87	1761.90
606.22	1754.60
606.57	1746.50
606.92	1739.11
607.27	1731.83
607.62	1724.92
607.96	1717.66
608.31	1711.15
608.66	1703.54
609.01	1695.98
609.36	1688.31
609.70	1680.20
610.05	1672.16
610.40	1664.41
610.75	1655.97
611.10	1648.16
611.44	1639.62
611.79	1631.63
612.14	1622.95
612.49	1613.83
612.83	1605.44
613.18	1597.28
613.53	1589.16
613.88	1580.67
614.22	1572.36
614.57	1563.81
614.92	1555.86
615.27	1548.26
615.61	1539.75
615.96	1531.94
616.31	1524.30
616.65	1517.04
617.00	1509.57
617.35	1501.76
617.70	1493.45
618.04	1485.08
618.39	1477.06
618.74	1469.51
619.08	1461.18
619.43	1453.54
619.78	1446.65
620.12	1439.43
620.47	1432.00
620.82	1423.94
621.16	1416.61
621.51	1409.11
621.85	1401.49
622.20	1392.92
622.55	1384.60
622.89	1376.86
623.24	1369.14
623.59	1361.72
623.93	1354.16
624.28	1346.92
624.62	1339.68
624.97	1332.60
625.32	1325.77
625.66	1318.68
626.01	1311.48
626.35	1304.13
626.70	1296.37
627.04	1288.53
627.39	1280.72
627.73	1273.25
628.08	1266.29
628.43	1258.92
628.77	1251.56
629.12	1244.00
629.46	1236.80
629.81	1229.24
630.15	1222.00
630.50	1214.58
630.84	1206.45
631.19	1198.55
631.53	1190.99
631.88	1183.28
632.22	1175.54
632.57	1168.27
632.91	1160.71
633.26	1153.25
633.60	1145.81
633.95	1138.72
634.29	1131.77
634.64	1125.04
634.98	1117.66
635.32	1110.48
635.67	1103.88
636.01	1097.22
636.36	1090.40
636.70	1083.94
637.05	1077.53
637.39	1071.07
637.73	1064.53
638.08	1058.56
638.42	1052.45
638.77	1046.05
639.11	1039.52
639.45	1033.19
639.80	1026.55
640.14	1020.20
640.49	1013.62
640.83	1007.26
641.17	1001.01
641.52	994.61
641.86	988.22
642.20	982.36
642.55	976.12
642.89	969.58
643.23	963.00
643.58	957.30
643.92	951.06
644.26	944.92
644.61	938.85
644.95	932.82
645.29	926.27
645.64	919.60
645.98	913.21
646.32	907.33
646.66	901.24
647.01	895.49
647.35	889.72
647.69	883.93
648.04	878.42
648.38	872.63
648.72	866.71
649.06	860.68
649.41	854.75
649.75	848.77
650.09	842.89
650.43	837.09
650.78	830.89
651.12	824.90
651.46	819.21
651.80	813.44
652.14	808.09
652.49	802.73
652.83	797.50
653.17	791.84
653.51	786.13
653.85	780.72
654.20	775.03
654.54	769.04
654.88	763.20
655.22	757.27
655.56	751.55
655.90	746.05
656.25	740.78
656.59	735.52
656.93	730.40
657.27	725.22
657.61	719.80
657.95	714.67
658.29	709.54
658.64	704.29
658.98	698.98
659.32	693.43
659.66	688.24
660.00	682.97
660.34	677.95
660.68	672.96
661.02	667.90
661.36	663.19
661.70	658.69
662.05	654.41
662.39	650.17
662.73	645.78
663.07	641.46
663.41	637.06
663.75	632.53
664.09	627.97
664.43	623.53
664.77	619.45
665.11	615.23
665.45	611.11
665.79	607.02
666.13	602.92
666.47	598.85
666.81	594.68
667.15	590.49
667.49	586.66
667.83	582.85
668.17	578.99
668.51	574.89
668.85	570.85
669.19	566.97
669.53	563.08
669.87	559.14
670.21	555.31
670.55	551.65
670.89	548.22
671.23	544.77
671.57	541.24
671.91	537.65
672.25	534.09
672.58	530.58
672.92	527.13
673.26	523.94
673.60	520.79
673.94	517.64
674.28	514.79
674.62	511.85
674.96	508.79
675.30	505.87
675.64	502.93
675.97	500.17
676.31	497.29
676.65	494.29
676.99	491.61
677.33	488.81
677.67	486.02
678.01	482.99
678.34	479.99
678.68	477.16
679.02	474.39
679.36	471.65
679.70	468.95
680.04	466.22
680.37	463.40
680.71	460.61
681.05	458.02
681.39	455.25
681.73	452.53
682.06	449.97
682.40	447.40
682.74	444.88
683.08	442.31
683.42	439.77
683.75	437.34
684.09	434.74
684.43	432.22
684.77	429.74
685.10	427.40
685.44	425.14
685.78	422.86
686.12	420.60
686.45	418.33
686.79	416.01
687.13	413.79
687.46	411.56
687.80	409.36
688.14	407.12
688.48	405.06
688.81	402.84
689.15	400.68
689.49	398.55
689.82	396.47
690.16	394.38
690.50	392.38
690.83	390.47
691.17	388.52
691.51	386.62
691.84	384.74
692.18	382.79
692.52	380.79
692.85	378.88
693.19	376.99
693.52	375.16
693.86	373.36
694.20	371.59
694.53	369.81
694.87	367.98
695.21	366.21
695.54	364.41
695.88	362.69
696.21	360.94
696.55	359.26
696.88	357.55
697.22	355.90
697.56	354.27
697.89	352.58
698.23	351.00
698.56	349.41
698.90	347.82
699.23	346.17
699.57	344.61
699.90	343.02
700.24	341.45
700.58	339.87
700.91	338.38
701.25	336.94
701.58	335.59
701.92	334.25
702.25	332.84
702.59	331.50
702.92	330.21
703.26	328.91
703.59	327.64
703.93	326.44
704.26	325.16
704.60	323.89
704.93	322.62
705.26	321.37
705.60	320.19
705.93	319.03
706.27	317.99
706.60	316.95
706.94	315.86
707.27	314.74
707.61	313.69
707.94	312.68
708.27	311.57
708.61	310.44
708.94	309.41
709.28	308.48
709.61	307.50
709.94	306.52
710.28	305.51
710.61	304.52
710.95	303.45
711.28	302.54
711.61	301.60
711.95	300.67
712.28	299.72
712.61	298.76
712.95	297.82
713.28	296.95
713.61	296.05
713.95	295.17
714.28	294.33
714.61	293.50
714.95	292.64
715.28	291.81
715.61	290.94
715.95	290.09
716.28	289.21
716.61	288.37
716.95	287.58
717.28	286.82
717.61	286.05
717.94	285.34
718.28	284.56
718.61	283.79
718.94	283.07
719.27	282.42
719.61	281.74
719.94	281.05
720.27	280.35
720.60	279.68
720.94	279.05
721.27	278.47
721.60	277.83
721.93	277.25
722.27	276.67
722.60	276.14
722.93	275.59
723.26	275.04
723.59	274.44
723.93	273.85
724.26	273.31
724.59	272.74
724.92	272.23
725.25	271.74
725.59	271.23
725.92	270.76
726.25	270.20
726.58	269.70
726.91	269.21
727.24	268.73
727.57	268.29
727.91	267.79
728.24	267.34
728.57	266.88
728.90	266.39
729.23	265.93
729.56	265.47
729.89	264.95
730.22	264.48
730.55	264.04
730.89	263.64
731.22	263.17
731.55	262.71
731.88	262.28
732.21	261.84
732.54	261.41
732.87	260.96
733.20	260.55
733.53	260.18
733.86	259.83
734.19	259.41
734.52	259.02
734.85	258.70
735.18	258.26
735.51	257.91
735.84	257.55
736.17	257.20
736.50	256.82
736.83	256.62
737.16	256.26
737.49	255.95
737.82	255.57
738.15	255.26
738.48	254.95
738.81	254.59
739.14	254.26
739.47	253.96
739.80	253.66
740.13	253.40
740.46	253.07
740.79	252.74
741.12	252.49
741.45	252.16
741.78	251.80
742.11	251.52
742.44	251.21
742.77	250.95
743.10	250.60
743.43	250.29
743.75	249.92
744.08	249.79
744.41	249.49
744.74	249.25
745.07	248.92
745.40	248.66
745.73	248.47
746.06	248.19
746.39	247.94
746.71	247.66
747.04	247.34
747.37	247.07
747.70	246.86
748.03	246.60
748.36	246.40
748.68	246.18
749.01	245.93
749.34	245.69
749.67	245.44
750.00	245.27
750.33	245.15
750.65	244.94
750.98	244.57
751.31	244.34
751.64	244.10
751.97	243.99
752.29	243.78
752.62	243.53
752.95	243.30
753.28	243.10
753.60	242.94
753.93	242.80
754.26	242.61
754.59	242.35
754.91	242.12
755.24	241.92
755.57	241.71
755.90	241.51
756.22	241.34
756.55	241.14
756.88	240.93
757.20	240.66
757.53	240.43
757.86	240.30
758.19	240.13
758.51	239.97
758.84	239.73
759.17	239.55
759.49	239.40
759.82	239.27
760.15	239.09
760.47	238.89
760.80	238.67
761.13	238.52
761.45	238.39
761.78	238.24
762.11	238.07
762.43	237.94
762.76	237.78
763.08	237.64
763.41	237.50
763.74	237.35
764.06	237.19
764.39	237.02
764.71	236.85
765.04	236.72
765.37	236.55
765.69	236.42
766.02	236.28
766.34	236.15
766.67	236.02
767.00	235.94
767.32	235.88
767.65	235.84
767.97	235.73
768.30	235.61
768.62	235.48
768.95	235.34
769.27	235.18
769.60	235.08
769.92	234.97
770.25	234.87
770.57	234.76
770.90	234.69
771.22	234.59
771.55	234.53
771.87	234.45
772.20	234.39
772.52	234.37
772.85	234.39
773.17	234.30
773.50	234.20
773.82	234.09
774.15	233.94
774.47	233.79
774.80	233.71
775.12	233.63
775.45	233.58
775.77	233.54
776.09	233.52
776.42	233.43
776.74	233.35
777.07	233.25
777.39	233.17
777.72	233.11
778.04	233.09
778.36	233.00
778.69	232.96
779.01	232.91
779.33	232.79
779.66	232.63
779.98	232.55
780.31	232.54
780.63	232.51
780.95	232.50
781.28	232.47
781.60	232.39
781.92	232.34
782.25	232.27
782.57	232.22
782.89	232.17
783.22	232.15
783.54	232.12
783.86	232.07
784.19	232.04
784.51	232.00
784.83	231.93
785.16	231.88
785.48	231.85
785.80	231.78
786.12	231.72
786.45	231.68
786.77	231.65
787.09	231.58
787.42	231.49
787.74	231.43
788.06	231.42
788.38	231.38
788.71	231.32
789.03	231.27
789.35	231.24
789.67	231.17
789.99	231.16
790.32	231.10
790.64	231.06
790.96	231.09
791.28	231.06
791.61	231.02
791.93	231.00
792.25	230.97
792.57	230.99
792.89	230.96
793.21	230.92
793.54	230.86
793.86	230.79
794.18	230.81
794.50	230.74
794.82	230.67
795.14	230.65
795.47	230.60
795.79	230.58
796.11	230.50
796.43	230.46
796.75	230.38
797.07	230.32
797.39	230.27
797.71	230.17
798.04	230.13
798.36	230.09
798.68	230.03
799.00	229.96
799.32	229.89
799.64	229.84
799.96	229.80
800.28	229.81
800.60	229.78
800.92	229.71
801.24	229.69
801.56	229.66
801.89	229.60
802.21	229.57
802.53	229.51
802.85	229.49
803.17	229.50
803.49	229.48
803.81	229.44
804.13	229.38
804.45	229.35
804.77	229.34
805.09	229.29
805.41	229.27
805.73	229.18
806.05	229.13
806.37	229.10
806.69	229.05
807.01	228.96
807.33	228.96
807.65	228.89
807.97	228.92
808.28	228.87
808.60	228.86
808.92	228.85
809.24	228.86
809.56	228.84
809.88	228.73
810.20	228.69
810.52	228.68
810.84	228.68
811.16	228.64
811.48	228.57
811.80	228.59
812.12	228.56
812.43	228.59
812.75	228.59
813.07	228.56
813.39	228.57
813.71	228.56
814.03	228.52
814.35	228.50
814.67	228.39
814.98	228.39
815.30	228.35
815.62	228.32
815.94	228.26
816.26	228.32
816.58	228.32
816.89	228.30
817.21	228.27
817.53	228.27
817.85	228.26
818.17	228.25
818.48	228.21
818.80	228.23
819.12	228.19
819.44	228.14
819.76	228.12
820.07	228.06
820.39	228.09
820.71	228.09
821.03	228.11
821.34	228.13
821.66	228.11
821.98	228.14
822.30	228.14
822.61	228.16
822.93	228.08
823.25	228.11
823.57	228.13
823.88	228.14
824.20	228.15
824.52	228.17
824.83	228.15
825.15	228.13
825.47	228.12
825.79	228.13
826.10	228.16
826.42	228.16
826.74	228.19
827.05	228.15
827.37	228.13
827.69	228.14
828.00	228.13
828.32	228.15
828.64	228.15
828.95	228.19
829.27	228.16
829.58	228.10
829.90	228.09
830.22	228.10
830.53	228.05
830.85	228.03
831.17	228.00
831.48	228.03
831.80	228.04
832.11	228.00
832.43	227.98
832.75	227.95
833.06	227.99
833.38	227.97
833.69	227.97
834.01	227.96
834.32	227.94
834.64	227.93
834.96	227.90
835.27	227.84
835.59	227.82
835.90	227.79
836.22	227.81
836.53	227.77
836.85	227.72
837.16	227.80
837.48	227.79
837.79	227.79
838.11	227.74
838.42	227.69
838.74	227.73
839.05	227.73
839.37	227.70
839.68	227.64
840.00	227.62
840.31	227.65
840.63	227.66
840.94	227.60
841.26	227.57
841.57	227.57
841.88	227.58
842.20	227.53
842.51	227.53
842.83	227.52
843.14	227.60
843.46	227.61
843.77	227.57
844.08	227.52
844.40	227.45
844.71	227.46
845.03	227.47
845.34	227.43
845.65	227.38
845.97	227.37
846.28	227.36
846.60	227.36
846.91	227.32
847.22	227.29
847.54	227.34
847.85	227.33
848.16	227.28
848.48	227.26
848.79	227.27
849.10	227.24
849.42	227.25
849.73	227.13
850.04	227.11
850.36	227.05
850.67	227.08
850.98	227.10
851.30	227.08
851.61	227.07
851.92	227.03
852.23	227.08
852.55	227.10
852.86	227.10
853.17	227.09
853.49	227.10
853.80	227.10
854.11	227.08
854.42	227.11
854.74	227.10
855.05	227.09
855.36	227.05
855.67	227.09
855.99	227.06
856.30	227.18
856.61	227.19
856.92	227.18
857.23	227.17
857.55	227.17
857.86	227.16
858.17	227.17
858.48	227.16
858.79	227.13
859.11	227.09
859.42	227.10
859.73	227.08
860.04	227.06
860.35	227.05
860.66	227.03
860.98	227.02
861.29	227.03
861.60	227.03
861.91	227.06
862.22	227.05
862.53	227.04
862.84	226.93
863.16	226.95
863.47	226.96
863.78	226.95
864.09	226.94
864.40	226.95
864.71	226.98
865.02	227.00
865.33	227.00
865.64	227.02
865.95	226.98
866.27	227.10
866.58	227.09
866.89	227.11
867.20	227.12
867.51	227.10
867.82	227.13
868.13	227.15
868.44	227.13
868.75	227.17
869.06	227.17
869.37	227.17
869.68	227.16
869.99	227.15
870.30	227.18
870.61	227.22
870.92	227.20
871.23	227.18
871.54	227.22
871.85	227.24
872.16	227.25
872.47	227.26
872.78	227.16
873.09	227.18
873.40	227.17
873.71	227.16
874.02	227.17
874.33	227.15
874.64	227.15
874.95	227.19
875.26	227.12
875.56	227.13
875.87	227.14
876.18	227.12
876.49	227.24
876.80	227.24
877.11	227.21
877.42	227.23
877.73	227.25
878.04	227.21
878.35	227.21
878.66	227.20
878.96	227.19
879.27	227.20
879.58	227.20
879.89	227.20
880.20	227.25
880.51	227.23
880.82	227.22
881.12	227.18
881.43	227.12
881.74	227.12
882.05	227.12
882.36	227.15
882.67	227.15
882.97	227.03
883.28	226.99
883.59	226.98
883.90	226.96
884.21	226.95
884.51	226.92
884.82	226.90
885.13	226.87
885.44	226.87
885.74	226.88
886.05	226.83
886.36	226.81
886.67	226.75
886.98	226.79
887.28	226.79
887.59	226.80
887.90	226.80
888.20	226.81
888.51	226.78
888.82	226.72
889.13	226.72
889.43	226.78
889.74	226.76
890.05	226.73
890.35	226.73
890.66	226.72
890.97	226.72
891.28	226.70
891.58	226.70
891.89	226.67
892.20	226.65
892.50	226.63
892.81	226.60
893.12	226.56
893.42	226.51
893.73	226.49
894.04	226.46
894.34	226.47
894.65	226.45
894.95	226.45
895.26	226.45
895.57	226.49
895.87	226.42
896.18	226.42
896.48	226.41
896.79	226.42
897.10	226.43
897.40	226.41
897.71	226.46
898.01	226.48
898.32	226.53
898.63	226.52
898.93	226.57
899.24	226.58
899.54	226.60
899.85	226.59
900.15	226.60
900.46	226.61
900.76	226.63
901.07	226.66
901.38	226.68
901.68	226.69
901.99	226.66
902.29	226.66
902.60	226.66
902.90	226.70
903.21	226.71
903.51	226.69
903.82	226.75
904.12	226.72
904.43	226.73
904.73	226.72
905.03	226.76
905.34	226.82
905.64	226.85
905.95	226.88
906.25	226.89
906.56	226.90
906.86	226.94
907.17	226.93
907.47	226.97
907.77	226.97
908.08	226.96
908.38	226.99
908.69	227.02
908.99	227.03
909.30	227.03
909.60	227.04
909.90	227.05
910.21	227.00
910.51	227.00
910.81	227.00
911.12	227.01
911.42	227.04
911.73	226.96
912.03	226.95
912.33	226.98
912.64	227.01
912.94	227.03
913.24	226.99
913.55	226.98
913.85	226.94
914.15	226.97
914.46	226.98
914.76	226.94
915.06	226.92
915.37	226.92
915.67	226.88
915.97	226.85
916.27	226.83
916.58	226.85
916.88	226.84
917.18	226.80
917.49	226.85
917.79	226.77
918.09	226.75
918.39	226.76
918.70	226.75
919.00	226.70
919.30	226.72
919.60	226.67
919.91	226.66
920.21	226.65
920.51	226.61
920.81	226.59
921.12	226.61
921.42	226.60
921.72	226.61
922.02	226.62
922.32	226.64
922.63	226.61
922.93	226.66
923.23	226.68
923.53	226.70
923.83	226.63
924.13	226.68
924.44	226.66
924.74	226.67
925.04	226.68
925.34	226.72
925.64	226.67
925.94	226.68
926.24	226.70
926.55	226.70
926.85	226.70
927.15	226.69
927.45	226.68
927.75	226.67
928.05	226.63
928.35	226.60
928.65	226.64
928.95	226.65
929.26	226.60
929.56	226.58
929.86	226.59
930.16	226.54
930.46	226.54
930.76	226.55
931.06	226.51
931.36	226.49
931.66	226.49
931.96	226.47
932.26	226.47
932.56	226.44
932.86	226.43
933.16	226.43
933.46	226.43
933.76	226.41
934.06	226.42
934.36	226.49
934.66	226.53
934.96	226.51
935.26	226.53
935.56	226.53
935.86	226.50
936.16	226.48
936.46	226.49
936.76	226.49
937.06	226.49
937.36	226.51
937.66	226.51
937.96	226.49
938.26	226.48
938.56	226.50
938.86	226.52
939.16	226.54
939.46	226.59
939.76	226.63
940.06	226.62
940.35	226.62
940.65	226.58
940.95	226.56
941.25	226.55
941.55	226.55
941.85	226.55
942.15	226.57
942.45	226.61
942.75	226.64
943.04	226.65
943.34	226.70
943.64	226.69
943.94	226.71
944.24	226.72
944.54	226.74
944.84	226.73
945.13	226.69
945.43	226.69
945.73	226.66
946.03	226.64
946.33	226.68
946.62	226.67
946.92	226.66
947.22	226.66
947.52	226.68
947.82	226.68
948.11	226.68
948.41	226.71
948.71	226.71
949.01	226.72
949.31	226.69
949.60	226.64
949.90	226.65
950.20	226.63
950.50	226.62
950.79	226.63
951.09	226.66
951.39	226.69
951.69	226.67
951.98	226.65
952.28	226.66
952.58	226.62
952.87	226.62
953.17	226.65
953.47	226.64
953.76	226.61
954.06	226.61
954.36	226.60
954.66	226.55
954.95	226.55
955.25	226.54
955.55	226.52
955.84	226.51
956.14	226.51
956.44	226.51
956.73	226.50
957.03	226.52
957.32	226.51
957.62	226.50
957.92	226.54
958.21	226.54
958.51	226.62
958.81	226.62
959.10	226.62
959.40	226.62
959.69	226.63
959.99	226.65
960.29	226.63
960.58	226.59
960.88	226.62
961.17	226.60
961.47	226.61
961.76	226.60
962.06	226.60
962.36	226.57
962.65	226.57
962.95	226.57
963.24	226.52
963.54	226.51
963.83	226.52
964.13	226.47
964.42	226.43
964.72	226.37
965.01	226.38
965.31	226.36
965.60	226.35
965.90	226.38
966.19	226.36
966.49	226.38
966.78	226.42
967.08	226.43
967.37	226.41
967.67	226.40
967.96	226.44
968.26	226.43
968.55	226.44
968.85	226.40
969.14	226.41
969.43	226.43
969.73	226.41
970.02	226.39
970.32	226.42
970.61	226.43
970.91	226.39
971.20	226.39
971.49	226.39
971.79	226.41
972.08	226.37
972.38	226.36
972.67	226.36
972.96	226.36
973.26	226.35
973.55	226.40
973.85	226.40
974.14	226.40
974.43	226.43
974.73	226.44
975.02	226.48
975.31	226.45
975.61	226.44
975.90	226.47
976.19	226.48
976.49	226.49
976.78	226.51
977.07	226.56
977.37	226.55
977.66	226.56
977.95	226.54
978.24	226.55
978.54	226.60
978.83	226.56
979.12	226.54
979.42	226.56
979.71	226.53
980.00	226.56
980.29	226.57
980.59	226.56
980.88	226.60
981.17	226.58
981.46	226.63
981.76	226.63
982.05	226.64
982.34	226.62
982.63	226.61
982.93	226.62
983.22	226.66
983.51	226.65
983.80	226.68
984.09	226.69
984.39	226.68
984.68	226.70
984.97	226.74
985.26	226.78
985.55	226.73
985.85	226.71
986.14	226.69
986.43	226.68
986.72	226.69
987.01	226.63
987.30	226.65
987.59	226.62
987.89	226.64
988.18	226.64
988.47	226.65
988.76	226.64
989.05	226.59
989.34	226.54
989.63	226.60
989.92	226.57
990.22	226.54
990.51	226.52
990.80	226.46
991.09	226.44
991.38	226.45
991.67	226.45
991.96	226.42
992.25	226.42
992.54	226.38
992.83	226.34
993.12	226.33
993.41	226.33
993.70	226.39
993.99	226.38
994.28	226.35
994.58	226.35
994.87	226.34
995.16	226.33
995.45	226.30
995.74	226.20
996.03	226.19
996.32	226.23
996.61	226.24
996.90	226.25
997.19	226.23
997.48	226.19
997.77	226.16
998.06	226.16
998.34	226.14
998.63	226.16
998.92	226.18
999.21	226.20
999.50	226.19
999.79	226.15
1000.08	226.18
1000.37	226.20
1000.66	226.17
1000.95	226.19
1001.24	226.25
1001.53	226.27
1001.82	226.30
1002.11	226.30
1002.40	226.29
1002.68	226.30
1002.97	226.36
1003.26	226.35
1003.55	226.33
1003.84	226.35
1004.13	226.39
1004.42	226.39
1004.71	226.38
1004.99	226.39
1005.28	226.40
1005.57	226.39
1005.86	226.36
1006.15	226.35
1006.44	226.34
1006.72	226.39
1007.01	226.40
1007.30	226.36
1007.59	226.36
1007.88	226.33
1008.17	226.35
1008.45	226.35
1008.74	226.31
1009.03	226.27
1009.32	226.27
1009.60	226.32
1009.89	226.31
1010.18	226.31
1010.47	226.32
1010.76	226.34
1011.04	226.33
1011.33	226.35
1011.62	226.37
1011.91	226.39
1012.19	226.39
1012.48	226.41
1012.77	226.39
1013.05	226.46
1013.34	226.49
1013.63	226.51
1013.92	226.52
1014.20	226.53
1014.49	226.54
1014.78	226.59
1015.06	226.59
1015.35	226.62
1015.64	226.63
1015.92	226.68
1016.21	226.69
1016.50	226.69
1016.78	226.72
1017.07	226.76
1017.36	226.74
1017.64	226.74
1017.93	226.75
1018.22	226.74
1018.50	226.74
1018.79	226.71
1019.08	226.65
1019.36	226.67
1019.65	226.66
1019.93	226.73
1020.22	226.75
1020.51	226.79
1020.79	226.76
1021.08	226.57
1021.36	226.66
1021.65	225.97
1021.94	226.54
1022.22	226.98
1022.51	226.50
1022.79	227.52
1023.08	227.11
1023.36	227.72
1023.65	226.31
>>>>>End Processed Spectral Data<<<<<
