SpectraSuite Data File
++++++++++++++++++++++++++++++++++++
Date: Fri Feb 01 15:10:54 EST 2013
User: group
Dark Spectrum Present: No
Reference Spectrum Present: No
Number of Sampled Component Spectra: 1
Spectrometers: USB2E7196
Integration Time (usec): 35000 (USB2E7196)
Spectra Averaged: 100 (USB2E7196)
Boxcar Smoothing: 10 (USB2E7196)
Correct for Electrical Dark: No (USB2E7196)
Strobe/Lamp Enabled: No (USB2E7196)
Correct for Detector Non-linearity: No (USB2E7196)
Correct for Stray Light: No (USB2E7196)
Number of Pixels in Processed Spectrum: 2048
>>>>>Begin Processed Spectral Data<<<<<
339.09	0.00
339.48	215.38
339.86	216.61
340.24	217.75
340.63	219.42
341.01	222.33
341.39	221.79
341.78	224.12
342.16	224.64
342.54	225.10
342.93	213.48
343.31	224.28
343.69	224.81
344.07	225.26
344.46	225.70
344.84	226.07
345.22	226.29
345.60	226.57
345.99	226.73
346.37	226.86
346.75	226.95
347.13	227.07
347.52	227.13
347.90	227.21
348.28	227.23
348.66	227.29
349.05	227.30
349.43	227.32
349.81	227.36
350.19	227.43
350.57	227.51
350.96	227.61
351.34	227.70
351.72	227.78
352.10	227.89
352.48	227.95
352.87	228.06
353.25	228.12
353.63	228.17
354.01	228.21
354.39	228.27
354.77	228.36
355.15	228.43
355.54	228.48
355.92	228.51
356.30	228.58
356.68	228.71
357.06	228.81
357.44	228.87
357.82	228.92
358.20	228.96
358.58	229.01
358.97	229.04
359.35	229.09
359.73	229.17
360.11	229.22
360.49	229.29
360.87	229.33
361.25	229.38
361.63	229.44
362.01	229.51
362.39	229.55
362.77	229.61
363.15	229.64
363.53	229.67
363.91	229.71
364.29	229.72
364.67	229.61
365.05	229.61
365.43	229.59
365.81	229.63
366.19	229.66
366.57	229.69
366.95	229.68
367.33	229.65
367.71	229.61
368.09	229.63
368.47	229.57
368.85	229.49
369.23	229.49
369.61	229.43
369.99	229.41
370.37	229.39
370.75	229.35
371.13	229.30
371.51	229.22
371.89	229.18
372.27	229.14
372.65	229.09
373.03	229.02
373.41	228.98
373.78	228.88
374.16	228.79
374.54	228.68
374.92	228.60
375.30	228.52
375.68	228.43
376.06	228.34
376.44	228.24
376.82	228.20
377.19	228.11
377.57	228.04
377.95	227.94
378.33	227.86
378.71	227.75
379.09	227.67
379.47	227.60
379.84	227.47
380.22	227.36
380.60	227.27
380.98	227.18
381.36	227.13
381.73	227.04
382.11	226.99
382.49	226.89
382.87	226.83
383.25	226.76
383.62	226.80
384.00	226.72
384.38	226.69
384.76	226.66
385.13	226.68
385.51	226.61
385.89	226.58
386.27	226.53
386.64	226.46
387.02	226.41
387.40	226.38
387.78	226.37
388.15	226.35
388.53	226.33
388.91	226.33
389.29	226.27
389.66	226.29
390.04	226.27
390.42	226.31
390.79	226.30
391.17	226.32
391.55	226.20
391.92	226.23
392.30	226.25
392.68	226.24
393.05	226.23
393.43	226.27
393.81	226.28
394.18	226.30
394.56	226.35
394.94	226.41
395.31	226.47
395.69	226.52
396.06	226.59
396.44	226.63
396.82	226.64
397.19	226.77
397.57	226.80
397.95	226.88
398.32	226.94
398.70	227.02
399.07	227.13
399.45	227.22
399.82	227.29
400.20	227.37
400.58	227.46
400.95	227.48
401.33	227.60
401.70	227.75
402.08	227.85
402.45	227.96
402.83	228.08
403.20	228.19
403.58	228.31
403.95	228.46
404.33	228.61
404.71	228.78
405.08	228.96
405.46	229.12
405.83	229.27
406.21	229.42
406.58	229.61
406.96	229.76
407.33	229.95
407.70	230.14
408.08	230.41
408.45	230.64
408.83	230.92
409.20	231.12
409.58	231.27
409.95	231.55
410.33	231.81
410.70	232.09
411.08	232.36
411.45	232.66
411.82	232.96
412.20	233.32
412.57	233.73
412.95	233.99
413.32	234.39
413.69	234.75
414.07	235.14
414.44	235.58
414.82	236.02
415.19	236.57
415.56	237.08
415.94	237.64
416.31	238.29
416.68	238.89
417.06	239.61
417.43	240.27
417.81	241.01
418.18	241.80
418.55	242.62
418.93	243.46
419.30	244.35
419.67	245.26
420.04	246.20
420.42	247.14
420.79	248.30
421.16	249.47
421.54	250.68
421.91	251.90
422.28	253.13
422.66	254.48
423.03	255.77
423.40	257.13
423.77	258.49
424.15	259.86
424.52	261.35
424.89	262.90
425.26	264.46
425.64	265.92
426.01	267.48
426.38	269.10
426.75	270.78
427.13	272.50
427.50	274.36
427.87	276.22
428.24	278.12
428.61	279.85
428.99	281.73
429.36	283.80
429.73	285.89
430.10	287.96
430.47	290.00
430.85	292.10
431.22	294.35
431.59	296.74
431.96	298.98
432.33	301.50
432.70	303.91
433.08	306.77
433.45	309.42
433.82	312.07
434.19	315.05
434.56	317.92
434.93	320.66
435.30	323.24
435.68	326.18
436.05	329.01
436.42	331.89
436.79	334.46
437.16	337.22
437.53	340.08
437.90	342.93
438.27	345.70
438.64	348.59
439.01	351.19
439.38	353.50
439.75	355.72
440.13	358.17
440.50	360.49
440.87	362.38
441.24	364.32
441.61	366.48
441.98	367.97
442.35	369.77
442.72	371.61
443.09	373.44
443.46	374.40
443.83	374.99
444.20	375.49
444.57	376.32
444.94	376.60
445.31	376.92
445.68	377.24
446.05	377.32
446.42	376.96
446.79	376.52
447.16	376.03
447.53	375.71
447.90	374.59
448.27	373.46
448.64	371.86
449.01	370.71
449.37	368.72
449.74	366.77
450.11	364.51
450.48	362.00
450.85	359.45
451.22	357.33
451.59	355.29
451.96	353.35
452.33	350.79
452.70	348.44
453.07	345.61
453.43	342.71
453.80	339.97
454.17	337.28
454.54	334.74
454.91	332.01
455.28	329.34
455.65	326.86
456.02	324.41
456.38	322.21
456.75	319.58
457.12	317.33
457.49	315.13
457.86	312.94
458.23	311.06
458.59	309.04
458.96	306.95
459.33	305.08
459.70	303.21
460.07	301.65
460.43	299.93
460.80	298.27
461.17	296.78
461.54	295.27
461.91	293.80
462.27	292.34
462.64	291.10
463.01	289.71
463.38	288.38
463.74	286.99
464.11	285.82
464.48	284.77
464.85	283.62
465.21	282.73
465.58	281.79
465.95	280.69
466.32	279.75
466.68	278.81
467.05	277.90
467.42	276.96
467.78	275.99
468.15	275.12
468.52	274.50
468.88	273.63
469.25	272.84
469.62	272.19
469.98	271.54
470.35	270.84
470.72	270.26
471.08	269.55
471.45	269.01
471.82	268.43
472.18	267.80
472.55	267.36
472.92	266.83
473.28	266.32
473.65	265.86
474.02	265.38
474.38	265.04
474.75	264.68
475.11	264.36
475.48	264.11
475.85	263.86
476.21	263.57
476.58	263.36
476.94	263.21
477.31	263.06
477.67	262.88
478.04	262.82
478.41	262.73
478.77	262.77
479.14	262.70
479.50	262.70
479.87	262.77
480.23	262.86
480.60	262.90
480.96	263.02
481.33	263.22
481.69	263.48
482.06	263.66
482.42	263.89
482.79	264.18
483.15	264.52
483.52	264.89
483.88	265.24
484.25	265.63
484.61	266.06
484.98	266.51
485.34	267.09
485.71	267.66
486.07	268.29
486.44	268.88
486.80	269.60
487.17	270.37
487.53	271.21
487.90	272.06
488.26	273.00
488.62	273.97
488.99	274.97
489.35	276.00
489.72	277.11
490.08	278.32
490.44	279.52
490.81	280.83
491.17	282.20
491.54	283.71
491.90	285.25
492.26	286.89
492.63	288.61
492.99	290.41
493.36	292.28
493.72	294.28
494.08	296.38
494.45	298.61
494.81	300.97
495.17	303.41
495.54	305.96
495.90	308.68
496.26	311.50
496.63	314.45
496.99	317.52
497.35	320.79
497.72	324.20
498.08	327.72
498.44	331.37
498.80	335.27
499.17	339.26
499.53	343.43
499.89	347.80
500.26	352.33
500.62	356.97
500.98	361.93
501.34	366.97
501.71	372.32
502.07	377.80
502.43	383.40
502.79	389.20
503.16	395.28
503.52	401.50
503.88	407.91
504.24	414.54
504.60	421.41
504.97	428.51
505.33	435.84
505.69	443.54
506.05	451.29
506.41	459.17
506.78	467.36
507.14	475.85
507.50	484.57
507.86	493.61
508.22	502.76
508.59	511.92
508.95	521.57
509.31	531.33
509.67	541.37
510.03	551.70
510.39	562.22
510.75	572.94
511.12	583.85
511.48	595.07
511.84	606.49
512.20	618.04
512.56	629.93
512.92	642.13
513.28	654.45
513.64	666.92
514.00	679.66
514.37	692.55
514.73	705.46
515.09	718.46
515.45	731.75
515.81	745.34
516.17	759.40
516.53	773.51
516.89	787.78
517.25	801.95
517.61	816.33
517.97	830.85
518.33	845.35
518.69	860.16
519.05	875.25
519.41	890.48
519.77	906.01
520.13	921.57
520.49	936.98
520.85	952.28
521.21	968.18
521.57	984.38
521.93	1000.18
522.29	1016.73
522.65	1033.00
523.01	1049.28
523.37	1065.42
523.73	1081.70
524.09	1097.89
524.45	1114.19
524.81	1130.82
525.17	1147.76
525.53	1164.76
525.89	1181.68
526.25	1198.52
526.61	1214.85
526.97	1231.69
527.33	1248.25
527.68	1264.95
528.04	1281.48
528.40	1298.42
528.76	1315.51
529.12	1332.21
529.48	1349.21
529.84	1365.28
530.20	1382.02
530.56	1399.07
530.91	1416.47
531.27	1433.18
531.63	1449.68
531.99	1466.38
532.35	1482.49
532.71	1498.34
533.07	1514.64
533.42	1530.58
533.78	1546.76
534.14	1563.30
534.50	1578.77
534.86	1594.85
535.21	1610.07
535.57	1626.16
535.93	1641.71
536.29	1656.51
536.65	1671.69
537.00	1686.65
537.36	1702.14
537.72	1716.77
538.08	1731.27
538.44	1745.29
538.79	1759.26
539.15	1773.06
539.51	1786.84
539.87	1801.36
540.22	1815.31
540.58	1829.26
540.94	1842.83
541.29	1855.91
541.65	1868.69
542.01	1881.91
542.37	1894.15
542.72	1906.59
543.08	1918.40
543.44	1930.83
543.79	1942.20
544.15	1953.18
544.51	1964.65
544.87	1975.67
545.22	1986.51
545.58	1996.71
545.94	2006.34
546.29	2016.31
546.65	2026.15
547.01	2035.48
547.36	2044.16
547.72	2052.56
548.07	2060.38
548.43	2068.53
548.79	2076.60
549.14	2084.07
549.50	2091.40
549.86	2099.10
550.21	2106.46
550.57	2113.50
550.92	2120.09
551.28	2127.13
551.64	2134.22
551.99	2140.83
552.35	2147.03
552.70	2153.04
553.06	2158.99
553.41	2165.43
553.77	2171.48
554.13	2177.55
554.48	2183.64
554.84	2189.20
555.19	2194.62
555.55	2199.64
555.90	2204.15
556.26	2208.95
556.61	2213.68
556.97	2217.91
557.32	2222.14
557.68	2226.28
558.03	2230.62
558.39	2234.42
558.74	2238.94
559.10	2242.75
559.45	2246.32
559.81	2250.49
560.16	2254.36
560.52	2257.72
560.87	2261.17
561.23	2263.70
561.58	2266.65
561.94	2269.07
562.29	2271.29
562.64	2273.80
563.00	2276.50
563.35	2279.86
563.71	2282.94
564.06	2286.10
564.42	2288.82
564.77	2291.18
565.12	2293.31
565.48	2295.17
565.83	2296.77
566.19	2298.02
566.54	2299.04
566.89	2300.16
567.25	2300.57
567.60	2301.99
567.96	2303.51
568.31	2304.24
568.66	2305.23
569.02	2305.77
569.37	2306.00
569.72	2306.82
570.08	2306.94
570.43	2306.77
570.78	2306.08
571.14	2304.40
571.49	2302.91
571.84	2302.59
572.20	2301.28
572.55	2300.18
572.90	2298.64
573.26	2297.15
573.61	2295.38
573.96	2293.47
574.31	2290.33
574.67	2287.20
575.02	2283.57
575.37	2279.97
575.72	2276.09
576.08	2272.87
576.43	2269.43
576.78	2265.74
577.13	2262.44
577.49	2259.23
577.84	2255.64
578.19	2251.82
578.54	2248.02
578.90	2243.69
579.25	2237.86
579.60	2232.80
579.95	2227.65
580.30	2222.46
580.66	2217.19
581.01	2212.19
581.36	2207.08
581.71	2202.97
582.06	2198.54
582.42	2193.79
582.77	2188.49
583.12	2183.74
583.47	2178.80
583.82	2173.66
584.17	2168.32
584.53	2162.82
584.88	2157.19
585.23	2151.36
585.58	2145.80
585.93	2140.25
586.28	2135.49
586.63	2130.58
586.98	2125.42
587.34	2120.70
587.69	2115.76
588.04	2110.45
588.39	2104.76
588.74	2098.22
589.09	2091.85
589.44	2084.87
589.79	2078.78
590.14	2073.11
590.49	2066.35
590.84	2059.82
591.19	2053.73
591.54	2047.17
591.89	2039.56
592.25	2032.48
592.60	2025.07
592.95	2017.35
593.30	2009.97
593.65	2002.36
594.00	1995.17
594.35	1987.87
594.70	1979.72
595.05	1972.18
595.40	1964.85
595.75	1957.15
596.10	1950.77
596.45	1943.85
596.80	1937.69
597.15	1930.82
597.50	1923.64
597.85	1917.20
598.19	1910.42
598.54	1903.16
598.89	1896.52
599.24	1890.57
599.59	1883.79
599.94	1877.69
600.29	1871.37
600.64	1864.85
600.99	1857.18
601.34	1850.27
601.69	1843.31
602.04	1836.28
602.39	1828.94
602.74	1822.10
603.08	1815.33
603.43	1808.58
603.78	1801.29
604.13	1794.01
604.48	1786.74
604.83	1779.89
605.18	1772.91
605.53	1764.97
605.87	1756.90
606.22	1749.66
606.57	1741.68
606.92	1734.31
607.27	1727.08
607.62	1720.15
607.96	1712.70
608.31	1706.01
608.66	1698.44
609.01	1690.91
609.36	1683.35
609.70	1675.47
610.05	1667.26
610.40	1659.56
610.75	1651.24
611.10	1643.67
611.44	1635.37
611.79	1627.51
612.14	1618.81
612.49	1609.83
612.83	1601.49
613.18	1593.45
613.53	1585.16
613.88	1576.76
614.22	1568.61
614.57	1560.01
614.92	1551.98
615.27	1544.46
615.61	1536.19
615.96	1528.08
616.31	1520.40
616.65	1513.14
617.00	1505.51
617.35	1497.82
617.70	1489.47
618.04	1481.02
618.39	1472.77
618.74	1465.10
619.08	1456.69
619.43	1449.15
619.78	1442.21
620.12	1434.99
620.47	1427.42
620.82	1419.44
621.16	1411.98
621.51	1404.32
621.85	1396.70
622.20	1388.17
622.55	1379.91
622.89	1372.03
623.24	1364.55
623.59	1357.20
623.93	1349.61
624.28	1342.46
624.62	1335.02
624.97	1327.83
625.32	1321.15
625.66	1314.09
626.01	1306.91
626.35	1299.57
626.70	1291.82
627.04	1283.99
627.39	1276.23
627.73	1268.92
628.08	1262.02
628.43	1254.75
628.77	1247.40
629.12	1239.88
629.46	1232.73
629.81	1225.25
630.15	1218.13
630.50	1210.76
630.84	1202.60
631.19	1194.80
631.53	1187.34
631.88	1179.79
632.22	1172.23
632.57	1164.94
632.91	1157.52
633.26	1150.14
633.60	1142.82
633.95	1135.82
634.29	1128.86
634.64	1122.27
634.98	1114.92
635.32	1107.76
635.67	1101.22
636.01	1094.55
636.36	1087.76
636.70	1081.26
637.05	1074.79
637.39	1068.38
637.73	1061.84
638.08	1056.01
638.42	1050.03
638.77	1043.54
639.11	1036.94
639.45	1030.62
639.80	1023.77
640.14	1017.25
640.49	1010.74
640.83	1004.47
641.17	998.18
641.52	991.78
641.86	985.44
642.20	979.58
642.55	973.33
642.89	966.77
643.23	960.30
643.58	954.50
643.92	948.35
644.26	942.18
644.61	936.14
644.95	930.09
645.29	923.42
645.64	916.71
645.98	910.46
646.32	904.70
646.66	898.68
647.01	892.99
647.35	887.34
647.69	881.44
648.04	875.90
648.38	870.14
648.72	864.25
649.06	858.06
649.41	852.15
649.75	846.10
650.09	840.12
650.43	834.41
650.78	828.27
651.12	822.24
651.46	816.64
651.80	810.87
652.14	805.46
652.49	800.13
652.83	794.89
653.17	789.15
653.51	783.36
653.85	777.95
654.20	772.35
654.54	766.38
654.88	760.73
655.22	754.80
655.56	749.09
655.90	743.60
656.25	738.38
656.59	733.12
656.93	728.11
657.27	722.96
657.61	717.46
657.95	712.42
658.29	707.40
658.64	702.13
658.98	696.88
659.32	691.45
659.66	686.27
660.00	681.00
660.34	676.07
660.68	671.23
661.02	666.20
661.36	661.42
661.70	657.00
662.05	652.72
662.39	648.37
662.73	643.95
663.07	639.58
663.41	635.16
663.75	630.64
664.09	626.06
664.43	621.74
664.77	617.63
665.11	613.42
665.45	609.40
665.79	605.30
666.13	601.13
666.47	597.13
666.81	592.95
667.15	588.85
667.49	585.02
667.83	581.27
668.17	577.38
668.51	573.39
668.85	569.32
669.19	565.45
669.53	561.70
669.87	557.84
670.21	554.21
670.55	550.59
670.89	547.15
671.23	543.77
671.57	540.25
671.91	536.74
672.25	533.22
672.58	529.63
672.92	526.27
673.26	523.12
673.60	519.96
673.94	516.89
674.28	514.02
674.62	511.06
674.96	507.97
675.30	505.06
675.64	502.20
675.97	499.47
676.31	496.57
676.65	493.66
676.99	490.98
677.33	488.09
677.67	485.31
678.01	482.30
678.34	479.27
678.68	476.44
679.02	473.63
679.36	470.89
679.70	468.20
680.04	465.46
680.37	462.64
680.71	459.81
681.05	457.21
681.39	454.47
681.73	451.83
682.06	449.24
682.40	446.69
682.74	444.12
683.08	441.59
683.42	439.00
683.75	436.49
684.09	433.94
684.43	431.46
684.77	429.01
685.10	426.72
685.44	424.46
685.78	422.17
686.12	420.01
686.45	417.76
686.79	415.43
687.13	413.20
687.46	411.06
687.80	408.93
688.14	406.73
688.48	404.74
688.81	402.48
689.15	400.40
689.49	398.28
689.82	396.21
690.16	394.12
690.50	392.22
690.83	390.26
691.17	388.32
691.51	386.46
691.84	384.57
692.18	382.59
692.52	380.58
692.85	378.67
693.19	376.74
693.52	374.90
693.86	373.11
694.20	371.36
694.53	369.53
694.87	367.68
695.21	365.90
695.54	364.06
695.88	362.33
696.21	360.56
696.55	358.91
696.88	357.28
697.22	355.61
697.56	354.02
697.89	352.33
698.23	350.71
698.56	349.11
698.90	347.51
699.23	345.92
699.57	344.40
699.90	342.87
700.24	341.38
700.58	339.82
700.91	338.35
701.25	336.94
701.58	335.60
701.92	334.28
702.25	332.91
702.59	331.54
702.92	330.31
703.26	329.07
703.59	327.80
703.93	326.57
704.26	325.34
704.60	324.05
704.93	322.85
705.26	321.62
705.60	320.45
705.93	319.34
706.27	318.29
706.60	317.23
706.94	316.17
707.27	315.01
707.61	313.99
707.94	312.98
708.27	311.91
708.61	310.86
708.94	309.82
709.28	308.84
709.61	307.88
709.94	306.93
710.28	305.91
710.61	304.95
710.95	303.97
711.28	303.09
711.61	302.08
711.95	301.17
712.28	300.24
712.61	299.25
712.95	298.32
713.28	297.44
713.61	296.57
713.95	295.66
714.28	294.84
714.61	293.98
714.95	293.12
715.28	292.23
715.61	291.34
715.95	290.55
716.28	289.74
716.61	288.88
716.95	288.08
717.28	287.34
717.61	286.53
717.94	285.76
718.28	284.94
718.61	284.25
718.94	283.54
719.27	282.86
719.61	282.22
719.94	281.54
720.27	280.84
720.60	280.15
720.94	279.56
721.27	278.96
721.60	278.36
721.93	277.78
722.27	277.27
722.60	276.76
722.93	276.17
723.26	275.59
723.59	275.10
723.93	274.52
724.26	273.99
724.59	273.45
724.92	272.89
725.25	272.36
725.59	271.83
725.92	271.30
726.25	270.81
726.58	270.29
726.91	269.78
727.24	269.30
727.57	268.86
727.91	268.33
728.24	267.85
728.57	267.38
728.90	266.90
729.23	266.36
729.56	265.87
729.89	265.37
730.22	264.88
730.55	264.38
730.89	263.92
731.22	263.42
731.55	262.98
731.88	262.55
732.21	262.14
732.54	261.69
732.87	261.29
733.20	260.86
733.53	260.48
733.86	260.11
734.19	259.71
734.52	259.29
734.85	258.99
735.18	258.58
735.51	258.20
735.84	257.81
736.17	257.52
736.50	257.13
736.83	256.91
737.16	256.59
737.49	256.22
737.82	255.87
738.15	255.56
738.48	255.23
738.81	254.95
739.14	254.64
739.47	254.35
739.80	254.02
740.13	253.72
740.46	253.43
740.79	253.12
741.12	252.78
741.45	252.50
741.78	252.18
742.11	251.91
742.44	251.60
742.77	251.37
743.10	251.02
743.43	250.74
743.75	250.37
744.08	250.22
744.41	250.01
744.74	249.78
745.07	249.53
745.40	249.27
745.73	249.01
746.06	248.73
746.39	248.48
746.71	248.21
747.04	247.98
747.37	247.72
747.70	247.47
748.03	247.26
748.36	247.05
748.68	246.83
749.01	246.59
749.34	246.36
749.67	246.12
750.00	245.94
750.33	245.78
750.65	245.57
750.98	245.23
751.31	244.99
751.64	244.74
751.97	244.55
752.29	244.36
752.62	244.12
752.95	243.93
753.28	243.72
753.60	243.54
753.93	243.33
754.26	243.14
754.59	242.91
754.91	242.70
755.24	242.51
755.57	242.28
755.90	242.08
756.22	241.91
756.55	241.72
756.88	241.53
757.20	241.30
757.53	241.10
757.86	240.94
758.19	240.75
758.51	240.63
758.84	240.45
759.17	240.28
759.49	240.13
759.82	240.01
760.15	239.88
760.47	239.74
760.80	239.58
761.13	239.45
761.45	239.31
761.78	239.14
762.11	238.96
762.43	238.83
762.76	238.69
763.08	238.53
763.41	238.38
763.74	238.23
764.06	238.08
764.39	237.93
764.71	237.81
765.04	237.71
765.37	237.51
765.69	237.37
766.02	237.23
766.34	237.08
766.67	236.92
767.00	236.79
767.32	236.69
767.65	236.61
767.97	236.50
768.30	236.39
768.62	236.32
768.95	236.21
769.27	236.11
769.60	235.98
769.92	235.84
770.25	235.74
770.57	235.61
770.90	235.53
771.22	235.43
771.55	235.29
771.87	235.19
772.20	235.13
772.52	235.10
772.85	235.11
773.17	235.02
773.50	234.91
773.82	234.82
774.15	234.69
774.47	234.54
774.80	234.42
775.12	234.32
775.45	234.23
775.77	234.17
776.09	234.09
776.42	234.03
776.74	234.00
777.07	233.93
777.39	233.87
777.72	233.79
778.04	233.73
778.36	233.65
778.69	233.54
779.01	233.47
779.33	233.32
779.66	233.14
779.98	233.07
780.31	233.03
780.63	233.01
780.95	232.98
781.28	232.94
781.60	232.88
781.92	232.85
782.25	232.78
782.57	232.71
782.89	232.64
783.22	232.58
783.54	232.50
783.86	232.41
784.19	232.36
784.51	232.31
784.83	232.27
785.16	232.21
785.48	232.18
785.80	232.12
786.12	232.10
786.45	232.06
786.77	232.02
787.09	231.93
787.42	231.80
787.74	231.74
788.06	231.73
788.38	231.65
788.71	231.60
789.03	231.59
789.35	231.53
789.67	231.48
789.99	231.46
790.32	231.42
790.64	231.39
790.96	231.42
791.28	231.37
791.61	231.32
791.93	231.29
792.25	231.27
792.57	231.30
792.89	231.23
793.21	231.21
793.54	231.16
793.86	231.14
794.18	231.12
794.50	231.08
794.82	231.02
795.14	231.03
795.47	231.01
795.79	230.98
796.11	230.92
796.43	230.89
796.75	230.84
797.07	230.79
797.39	230.79
797.71	230.67
798.04	230.64
798.36	230.60
798.68	230.58
799.00	230.57
799.32	230.49
799.64	230.52
799.96	230.47
800.28	230.43
800.60	230.40
800.92	230.36
801.24	230.33
801.56	230.29
801.89	230.25
802.21	230.21
802.53	230.17
802.85	230.17
803.17	230.19
803.49	230.15
803.81	230.15
804.13	230.10
804.45	230.07
804.77	230.04
805.09	230.01
805.41	229.96
805.73	229.94
806.05	229.90
806.37	229.85
806.69	229.83
807.01	229.87
807.33	229.84
807.65	229.83
807.97	229.84
808.28	229.83
808.60	229.81
808.92	229.78
809.24	229.79
809.56	229.74
809.88	229.65
810.20	229.63
810.52	229.59
810.84	229.56
811.16	229.50
811.48	229.49
811.80	229.49
812.12	229.49
812.43	229.44
812.75	229.42
813.07	229.38
813.39	229.36
813.71	229.31
814.03	229.25
814.35	229.23
814.67	229.17
814.98	229.12
815.30	229.05
815.62	229.03
815.94	228.95
816.26	229.05
816.58	229.02
816.89	228.98
817.21	228.96
817.53	228.97
817.85	228.99
818.17	228.97
818.48	228.92
818.80	228.91
819.12	228.91
819.44	228.87
819.76	228.85
820.07	228.81
820.39	228.78
820.71	228.80
821.03	228.77
821.34	228.75
821.66	228.75
821.98	228.77
822.30	228.73
822.61	228.78
822.93	228.68
823.25	228.69
823.57	228.68
823.88	228.70
824.20	228.70
824.52	228.68
824.83	228.66
825.15	228.67
825.47	228.66
825.79	228.64
826.10	228.63
826.42	228.63
826.74	228.66
827.05	228.61
827.37	228.59
827.69	228.60
828.00	228.63
828.32	228.62
828.64	228.57
828.95	228.63
829.27	228.60
829.58	228.59
829.90	228.57
830.22	228.59
830.53	228.57
830.85	228.51
831.17	228.47
831.48	228.46
831.80	228.43
832.11	228.43
832.43	228.40
832.75	228.41
833.06	228.44
833.38	228.42
833.69	228.42
834.01	228.41
834.32	228.38
834.64	228.36
834.96	228.32
835.27	228.37
835.59	228.31
835.90	228.26
836.22	228.23
836.53	228.26
836.85	228.21
837.16	228.27
837.48	228.25
837.79	228.30
838.11	228.28
838.42	228.28
838.74	228.25
839.05	228.26
839.37	228.23
839.68	228.19
840.00	228.14
840.31	228.17
840.63	228.15
840.94	228.14
841.26	228.08
841.57	228.09
841.88	228.07
842.20	228.08
842.51	228.09
842.83	228.10
843.14	228.13
843.46	228.14
843.77	228.08
844.08	228.08
844.40	228.05
844.71	228.03
845.03	228.03
845.34	227.99
845.65	227.98
845.97	227.94
846.28	227.94
846.60	227.94
846.91	227.91
847.22	227.93
847.54	227.92
847.85	227.94
848.16	227.93
848.48	227.89
848.79	227.94
849.10	227.91
849.42	227.91
849.73	227.83
850.04	227.84
850.36	227.81
850.67	227.83
850.98	227.84
851.30	227.87
851.61	227.86
851.92	227.85
852.23	227.85
852.55	227.88
852.86	227.85
853.17	227.87
853.49	227.84
853.80	227.84
854.11	227.83
854.42	227.85
854.74	227.84
855.05	227.84
855.36	227.77
855.67	227.75
855.99	227.72
856.30	227.82
856.61	227.79
856.92	227.75
857.23	227.72
857.55	227.69
857.86	227.66
858.17	227.66
858.48	227.67
858.79	227.63
859.11	227.65
859.42	227.64
859.73	227.60
860.04	227.62
860.35	227.57
860.66	227.55
860.98	227.53
861.29	227.55
861.60	227.54
861.91	227.55
862.22	227.55
862.53	227.52
862.84	227.42
863.16	227.43
863.47	227.43
863.78	227.44
864.09	227.45
864.40	227.45
864.71	227.45
865.02	227.45
865.33	227.47
865.64	227.42
865.95	227.44
866.27	227.54
866.58	227.52
866.89	227.58
867.20	227.60
867.51	227.59
867.82	227.60
868.13	227.64
868.44	227.59
868.75	227.64
869.06	227.65
869.37	227.67
869.68	227.64
869.99	227.67
870.30	227.66
870.61	227.65
870.92	227.64
871.23	227.62
871.54	227.65
871.85	227.67
872.16	227.67
872.47	227.62
872.78	227.57
873.09	227.60
873.40	227.59
873.71	227.60
874.02	227.57
874.33	227.55
874.64	227.51
874.95	227.56
875.26	227.51
875.56	227.52
875.87	227.47
876.18	227.46
876.49	227.54
876.80	227.53
877.11	227.55
877.42	227.54
877.73	227.54
878.04	227.52
878.35	227.51
878.66	227.54
878.96	227.52
879.27	227.51
879.58	227.50
879.89	227.49
880.20	227.48
880.51	227.50
880.82	227.51
881.12	227.49
881.43	227.45
881.74	227.46
882.05	227.46
882.36	227.50
882.67	227.49
882.97	227.37
883.28	227.38
883.59	227.36
883.90	227.38
884.21	227.37
884.51	227.36
884.82	227.32
885.13	227.31
885.44	227.32
885.74	227.30
886.05	227.29
886.36	227.29
886.67	227.27
886.98	227.31
887.28	227.32
887.59	227.33
887.90	227.33
888.20	227.31
888.51	227.30
888.82	227.28
889.13	227.32
889.43	227.39
889.74	227.36
890.05	227.37
890.35	227.37
890.66	227.36
890.97	227.35
891.28	227.35
891.58	227.35
891.89	227.38
892.20	227.39
892.50	227.38
892.81	227.36
893.12	227.35
893.42	227.32
893.73	227.32
894.04	227.30
894.34	227.33
894.65	227.36
894.95	227.37
895.26	227.38
895.57	227.44
895.87	227.38
896.18	227.42
896.48	227.43
896.79	227.42
897.10	227.45
897.40	227.47
897.71	227.48
898.01	227.46
898.32	227.45
898.63	227.42
898.93	227.46
899.24	227.43
899.54	227.44
899.85	227.43
900.15	227.41
900.46	227.41
900.76	227.41
901.07	227.40
901.38	227.38
901.68	227.37
901.99	227.30
902.29	227.30
902.60	227.29
902.90	227.28
903.21	227.26
903.51	227.27
903.82	227.28
904.12	227.31
904.43	227.36
904.73	227.35
905.03	227.38
905.34	227.47
905.64	227.48
905.95	227.48
906.25	227.47
906.56	227.49
906.86	227.53
907.17	227.52
907.47	227.53
907.77	227.55
908.08	227.55
908.38	227.57
908.69	227.55
908.99	227.61
909.30	227.59
909.60	227.62
909.90	227.59
910.21	227.59
910.51	227.53
910.81	227.52
911.12	227.55
911.42	227.55
911.73	227.43
912.03	227.42
912.33	227.43
912.64	227.44
912.94	227.41
913.24	227.35
913.55	227.34
913.85	227.31
914.15	227.30
914.46	227.29
914.76	227.26
915.06	227.26
915.37	227.21
915.67	227.21
915.97	227.20
916.27	227.18
916.58	227.15
916.88	227.16
917.18	227.13
917.49	227.20
917.79	227.19
918.09	227.18
918.39	227.20
918.70	227.20
919.00	227.20
919.30	227.25
919.60	227.26
919.91	227.26
920.21	227.29
920.51	227.27
920.81	227.25
921.12	227.29
921.42	227.30
921.72	227.29
922.02	227.32
922.32	227.30
922.63	227.31
922.93	227.34
923.23	227.35
923.53	227.33
923.83	227.26
924.13	227.29
924.44	227.30
924.74	227.34
925.04	227.36
925.34	227.37
925.64	227.32
925.94	227.32
926.24	227.37
926.55	227.36
926.85	227.40
927.15	227.42
927.45	227.40
927.75	227.39
928.05	227.41
928.35	227.38
928.65	227.43
928.95	227.43
929.26	227.42
929.56	227.41
929.86	227.42
930.16	227.42
930.46	227.44
930.76	227.43
931.06	227.40
931.36	227.35
931.66	227.36
931.96	227.40
932.26	227.41
932.56	227.37
932.86	227.40
933.16	227.36
933.46	227.34
933.76	227.32
934.06	227.36
934.36	227.39
934.66	227.39
934.96	227.39
935.26	227.42
935.56	227.40
935.86	227.39
936.16	227.39
936.46	227.35
936.76	227.32
937.06	227.32
937.36	227.34
937.66	227.35
937.96	227.34
938.26	227.30
938.56	227.30
938.86	227.32
939.16	227.35
939.46	227.37
939.76	227.39
940.06	227.43
940.35	227.41
940.65	227.35
940.95	227.37
941.25	227.32
941.55	227.31
941.85	227.36
942.15	227.41
942.45	227.41
942.75	227.47
943.04	227.47
943.34	227.49
943.64	227.47
943.94	227.49
944.24	227.47
944.54	227.50
944.84	227.50
945.13	227.48
945.43	227.43
945.73	227.44
946.03	227.44
946.33	227.42
946.62	227.40
946.92	227.39
947.22	227.38
947.52	227.43
947.82	227.44
948.11	227.39
948.41	227.37
948.71	227.35
949.01	227.31
949.31	227.31
949.60	227.28
949.90	227.32
950.20	227.32
950.50	227.33
950.79	227.31
951.09	227.32
951.39	227.34
951.69	227.32
951.98	227.37
952.28	227.38
952.58	227.36
952.87	227.37
953.17	227.39
953.47	227.40
953.76	227.37
954.06	227.33
954.36	227.34
954.66	227.34
954.95	227.37
955.25	227.36
955.55	227.38
955.84	227.37
956.14	227.33
956.44	227.32
956.73	227.30
957.03	227.30
957.32	227.28
957.62	227.26
957.92	227.29
958.21	227.21
958.51	227.27
958.81	227.27
959.10	227.29
959.40	227.31
959.69	227.31
959.99	227.30
960.29	227.32
960.58	227.30
960.88	227.30
961.17	227.27
961.47	227.28
961.76	227.24
962.06	227.24
962.36	227.22
962.65	227.21
962.95	227.20
963.24	227.19
963.54	227.20
963.83	227.18
964.13	227.15
964.42	227.14
964.72	227.05
965.01	227.03
965.31	227.03
965.60	226.99
965.90	227.05
966.19	227.04
966.49	227.01
966.78	226.98
967.08	227.00
967.37	227.00
967.67	226.94
967.96	226.96
968.26	226.95
968.55	226.97
968.85	226.96
969.14	226.99
969.43	226.95
969.73	226.91
970.02	226.90
970.32	226.91
970.61	226.92
970.91	226.90
971.20	226.89
971.49	226.88
971.79	226.89
972.08	226.80
972.38	226.77
972.67	226.78
972.96	226.81
973.26	226.78
973.55	226.83
973.85	226.86
974.14	226.83
974.43	226.84
974.73	226.78
975.02	226.79
975.31	226.76
975.61	226.81
975.90	226.82
976.19	226.82
976.49	226.82
976.78	226.83
977.07	226.87
977.37	226.91
977.66	226.89
977.95	226.89
978.24	226.92
978.54	226.95
978.83	226.95
979.12	226.96
979.42	226.96
979.71	226.94
980.00	226.94
980.29	226.98
980.59	226.97
980.88	227.02
981.17	227.02
981.46	227.06
981.76	227.03
982.05	227.06
982.34	227.08
982.63	227.12
982.93	227.09
983.22	227.08
983.51	227.08
983.80	227.10
984.09	227.14
984.39	227.09
984.68	227.07
984.97	227.09
985.26	227.09
985.55	227.12
985.85	227.09
986.14	227.11
986.43	227.11
986.72	227.10
987.01	227.08
987.30	227.09
987.59	227.12
987.89	227.10
988.18	227.09
988.47	227.07
988.76	227.05
989.05	227.07
989.34	227.07
989.63	227.10
989.92	227.14
990.22	227.12
990.51	227.15
990.80	227.20
991.09	227.20
991.38	227.23
991.67	227.23
991.96	227.21
992.25	227.23
992.54	227.19
992.83	227.22
993.12	227.20
993.41	227.21
993.70	227.19
993.99	227.24
994.28	227.26
994.58	227.27
994.87	227.25
995.16	227.24
995.45	227.21
995.74	227.16
996.03	227.11
996.32	227.10
996.61	227.08
996.90	227.06
997.19	227.05
997.48	227.02
997.77	226.99
998.06	227.00
998.34	226.95
998.63	226.99
998.92	226.97
999.21	226.97
999.50	226.97
999.79	226.96
1000.08	226.93
1000.37	226.92
1000.66	226.89
1000.95	226.94
1001.24	226.95
1001.53	226.98
1001.82	226.97
1002.11	226.95
1002.40	226.97
1002.68	227.01
1002.97	227.09
1003.26	227.06
1003.55	227.07
1003.84	227.07
1004.13	227.14
1004.42	227.16
1004.71	227.15
1004.99	227.14
1005.28	227.20
1005.57	227.16
1005.86	227.18
1006.15	227.17
1006.44	227.16
1006.72	227.17
1007.01	227.12
1007.30	227.13
1007.59	227.09
1007.88	227.08
1008.17	227.09
1008.45	227.05
1008.74	227.03
1009.03	226.97
1009.32	226.99
1009.60	226.98
1009.89	226.98
1010.18	226.95
1010.47	226.92
1010.76	226.93
1011.04	226.96
1011.33	227.02
1011.62	227.05
1011.91	227.05
1012.19	227.08
1012.48	227.09
1012.77	227.11
1013.05	227.20
1013.34	227.19
1013.63	227.21
1013.92	227.21
1014.20	227.21
1014.49	227.22
1014.78	227.20
1015.06	227.17
1015.35	227.18
1015.64	227.20
1015.92	227.20
1016.21	227.21
1016.50	227.22
1016.78	227.20
1017.07	227.21
1017.36	227.12
1017.64	227.10
1017.93	227.11
1018.22	227.11
1018.50	227.08
1018.79	227.06
1019.08	226.97
1019.36	226.94
1019.65	226.93
1019.93	226.98
1020.22	227.03
1020.51	227.08
1020.79	227.09
1021.08	227.46
1021.36	226.60
1021.65	226.74
1021.94	226.39
1022.22	226.33
1022.51	226.89
1022.79	227.68
1023.08	227.66
1023.36	228.19
1023.65	226.92
>>>>>End Processed Spectral Data<<<<<
