SpectraSuite Data File
++++++++++++++++++++++++++++++++++++
Date: Fri Feb 01 15:27:11 EST 2013
User: group
Dark Spectrum Present: No
Reference Spectrum Present: No
Number of Sampled Component Spectra: 1
Spectrometers: USB2E7196
Integration Time (usec): 35000 (USB2E7196)
Spectra Averaged: 100 (USB2E7196)
Boxcar Smoothing: 10 (USB2E7196)
Correct for Electrical Dark: No (USB2E7196)
Strobe/Lamp Enabled: No (USB2E7196)
Correct for Detector Non-linearity: No (USB2E7196)
Correct for Stray Light: No (USB2E7196)
Number of Pixels in Processed Spectrum: 2048
>>>>>Begin Processed Spectral Data<<<<<
339.09	0.00
339.48	214.91
339.86	216.56
340.24	218.26
340.63	219.10
341.01	221.76
341.39	222.23
341.78	223.56
342.16	224.88
342.54	224.67
342.93	213.46
343.31	224.26
343.69	224.82
344.07	225.31
344.46	225.74
344.84	226.15
345.22	226.41
345.60	226.65
345.99	226.86
346.37	226.97
346.75	227.09
347.13	227.19
347.52	227.23
347.90	227.28
348.28	227.32
348.66	227.39
349.05	227.37
349.43	227.44
349.81	227.48
350.19	227.49
350.57	227.55
350.96	227.64
351.34	227.73
351.72	227.79
352.10	227.87
352.48	227.92
352.87	227.95
353.25	228.00
353.63	228.08
354.01	228.12
354.39	228.19
354.77	228.29
355.15	228.36
355.54	228.44
355.92	228.46
356.30	228.50
356.68	228.58
357.06	228.69
357.44	228.76
357.82	228.82
358.20	228.89
358.58	228.92
358.97	228.99
359.35	229.05
359.73	229.15
360.11	229.20
360.49	229.25
360.87	229.31
361.25	229.39
361.63	229.47
362.01	229.49
362.39	229.51
362.77	229.55
363.15	229.55
363.53	229.57
363.91	229.61
364.29	229.66
364.67	229.62
365.05	229.59
365.43	229.58
365.81	229.61
366.19	229.66
366.57	229.73
366.95	229.69
367.33	229.67
367.71	229.65
368.09	229.63
368.47	229.61
368.85	229.54
369.23	229.52
369.61	229.43
369.99	229.43
370.37	229.43
370.75	229.43
371.13	229.39
371.51	229.31
371.89	229.28
372.27	229.23
372.65	229.16
373.03	229.12
373.41	229.04
373.78	228.95
374.16	228.86
374.54	228.73
374.92	228.68
375.30	228.61
375.68	228.50
376.06	228.43
376.44	228.37
376.82	228.34
377.19	228.25
377.57	228.15
377.95	228.04
378.33	227.97
378.71	227.84
379.09	227.77
379.47	227.72
379.84	227.62
380.22	227.54
380.60	227.44
380.98	227.39
381.36	227.31
381.73	227.23
382.11	227.14
382.49	227.09
382.87	227.01
383.25	226.98
383.62	227.06
384.00	226.99
384.38	226.93
384.76	226.86
385.13	226.85
385.51	226.80
385.89	226.76
386.27	226.67
386.64	226.62
387.02	226.56
387.40	226.54
387.78	226.53
388.15	226.50
388.53	226.46
388.91	226.43
389.29	226.43
389.66	226.45
390.04	226.44
390.42	226.44
390.79	226.45
391.17	226.40
391.55	226.29
391.92	226.28
392.30	226.31
392.68	226.34
393.05	226.35
393.43	226.35
393.81	226.38
394.18	226.43
394.56	226.49
394.94	226.54
395.31	226.57
395.69	226.61
396.06	226.65
396.44	226.71
396.82	226.76
397.19	226.82
397.57	226.86
397.95	226.96
398.32	226.97
398.70	227.02
399.07	227.09
399.45	227.14
399.82	227.21
400.20	227.24
400.58	227.30
400.95	227.34
401.33	227.50
401.70	227.66
402.08	227.73
402.45	227.79
402.83	227.87
403.20	227.98
403.58	228.08
403.95	228.21
404.33	228.35
404.71	228.46
405.08	228.64
405.46	228.77
405.83	228.90
406.21	229.05
406.58	229.23
406.96	229.39
407.33	229.57
407.70	229.75
408.08	230.04
408.45	230.25
408.83	230.46
409.20	230.63
409.58	230.78
409.95	231.06
410.33	231.31
410.70	231.58
411.08	231.85
411.45	232.15
411.82	232.47
412.20	232.81
412.57	233.27
412.95	233.56
413.32	233.97
413.69	234.35
414.07	234.80
414.44	235.25
414.82	235.76
415.19	236.31
415.56	236.89
415.94	237.43
416.31	238.08
416.68	238.74
417.06	239.45
417.43	240.12
417.81	240.90
418.18	241.72
418.55	242.59
418.93	243.47
419.30	244.38
419.67	245.32
420.04	246.29
420.42	247.27
420.79	248.46
421.16	249.61
421.54	250.81
421.91	252.02
422.28	253.26
422.66	254.57
423.03	255.86
423.40	257.19
423.77	258.56
424.15	259.99
424.52	261.51
424.89	263.18
425.26	264.72
425.64	266.17
426.01	267.74
426.38	269.37
426.75	271.07
427.13	272.77
427.50	274.59
427.87	276.48
428.24	278.35
428.61	280.09
428.99	282.04
429.36	284.15
429.73	286.26
430.10	288.30
430.47	290.36
430.85	292.48
431.22	294.77
431.59	297.21
431.96	299.50
432.33	301.97
432.70	304.33
433.08	307.21
433.45	309.89
433.82	312.51
434.19	315.44
434.56	318.29
434.93	320.99
435.30	323.60
435.68	326.47
436.05	329.26
436.42	332.06
436.79	334.64
437.16	337.31
437.53	340.20
437.90	343.05
438.27	345.80
438.64	348.66
439.01	351.21
439.38	353.41
439.75	355.53
440.13	358.01
440.50	360.35
440.87	362.14
441.24	364.08
441.61	366.22
441.98	367.71
442.35	369.49
442.72	371.35
443.09	373.18
443.46	374.18
443.83	374.81
444.20	375.33
444.57	376.10
444.94	376.46
445.31	376.75
445.68	377.06
446.05	377.18
446.42	376.80
446.79	376.38
447.16	375.88
447.53	375.56
447.90	374.39
448.27	373.23
448.64	371.68
449.01	370.47
449.37	368.48
449.74	366.57
450.11	364.28
450.48	361.81
450.85	359.29
451.22	357.15
451.59	355.09
451.96	353.09
452.33	350.47
452.70	348.06
453.07	345.18
453.43	342.30
453.80	339.50
454.17	336.82
454.54	334.26
454.91	331.55
455.28	328.87
455.65	326.36
456.02	323.87
456.38	321.72
456.75	319.08
457.12	316.82
457.49	314.59
457.86	312.46
458.23	310.58
458.59	308.49
458.96	306.38
459.33	304.54
459.70	302.72
460.07	301.22
460.43	299.50
460.80	297.91
461.17	296.48
461.54	294.97
461.91	293.52
462.27	292.06
462.64	290.82
463.01	289.45
463.38	288.18
463.74	286.82
464.11	285.66
464.48	284.65
464.85	283.54
465.21	282.69
465.58	281.74
465.95	280.61
466.32	279.70
466.68	278.80
467.05	277.88
467.42	276.98
467.78	276.04
468.15	275.17
468.52	274.51
468.88	273.62
469.25	272.83
469.62	272.20
469.98	271.55
470.35	270.94
470.72	270.35
471.08	269.72
471.45	269.15
471.82	268.56
472.18	267.92
472.55	267.53
472.92	266.96
473.28	266.49
473.65	266.06
474.02	265.60
474.38	265.22
474.75	264.88
475.11	264.53
475.48	264.29
475.85	264.05
476.21	263.78
476.58	263.61
476.94	263.46
477.31	263.30
477.67	263.15
478.04	263.02
478.41	262.93
478.77	262.94
479.14	262.92
479.50	262.92
479.87	263.02
480.23	263.08
480.60	263.19
480.96	263.31
481.33	263.50
481.69	263.74
482.06	263.98
482.42	264.20
482.79	264.49
483.15	264.78
483.52	265.18
483.88	265.52
484.25	265.92
484.61	266.35
484.98	266.81
485.34	267.34
485.71	267.95
486.07	268.56
486.44	269.13
486.80	269.83
487.17	270.61
487.53	271.42
487.90	272.26
488.26	273.22
488.62	274.17
488.99	275.19
489.35	276.21
489.72	277.31
490.08	278.52
490.44	279.75
490.81	281.09
491.17	282.40
491.54	283.88
491.90	285.43
492.26	287.06
492.63	288.78
492.99	290.57
493.36	292.44
493.72	294.53
494.08	296.65
494.45	298.85
494.81	301.15
495.17	303.56
495.54	306.12
495.90	308.79
496.26	311.61
496.63	314.53
496.99	317.60
497.35	320.85
497.72	324.20
498.08	327.75
498.44	331.31
498.80	335.29
499.17	339.34
499.53	343.53
499.89	347.94
500.26	352.44
500.62	357.14
500.98	362.11
501.34	367.18
501.71	372.51
502.07	378.01
502.43	383.66
502.79	389.56
503.16	395.63
503.52	401.90
503.88	408.28
504.24	414.95
504.60	421.89
504.97	429.03
505.33	436.37
505.69	444.04
506.05	451.90
506.41	459.77
506.78	467.91
507.14	476.36
507.50	485.05
507.86	494.05
508.22	503.21
508.59	512.44
508.95	522.05
509.31	531.86
509.67	541.89
510.03	552.16
510.39	562.64
510.75	573.41
511.12	584.27
511.48	595.54
511.84	606.98
512.20	618.48
512.56	630.45
512.92	642.67
513.28	655.03
513.64	667.53
514.00	680.26
514.37	693.27
514.73	706.37
515.09	719.46
515.45	732.81
515.81	746.39
516.17	760.41
516.53	774.51
516.89	788.68
517.25	802.96
517.61	817.50
517.97	832.02
518.33	846.51
518.69	861.37
519.05	876.35
519.41	891.51
519.77	907.08
520.13	922.52
520.49	937.88
520.85	953.35
521.21	969.06
521.57	985.36
521.93	1001.21
522.29	1017.65
522.65	1033.86
523.01	1050.17
523.37	1066.33
523.73	1082.58
524.09	1098.68
524.45	1115.04
524.81	1131.62
525.17	1148.42
525.53	1165.35
525.89	1182.22
526.25	1199.15
526.61	1215.72
526.97	1232.50
527.33	1249.10
527.68	1265.72
528.04	1282.37
528.40	1299.01
528.76	1316.16
529.12	1332.82
529.48	1349.75
529.84	1365.75
530.20	1382.49
530.56	1399.59
530.91	1417.04
531.27	1433.89
531.63	1450.51
531.99	1467.23
532.35	1483.29
532.71	1499.24
533.07	1515.58
533.42	1531.58
533.78	1547.68
534.14	1563.95
534.50	1579.37
534.86	1595.23
535.21	1610.50
535.57	1626.46
535.93	1642.00
536.29	1656.93
536.65	1672.10
537.00	1686.97
537.36	1702.44
537.72	1717.02
538.08	1731.48
538.44	1745.20
538.79	1759.06
539.15	1772.84
539.51	1786.64
539.87	1801.04
540.22	1814.82
540.58	1828.70
540.94	1842.15
541.29	1855.17
541.65	1867.98
542.01	1881.36
542.37	1893.61
542.72	1906.15
543.08	1917.95
543.44	1930.47
543.79	1941.79
544.15	1952.80
544.51	1964.33
544.87	1975.24
545.22	1986.10
545.58	1996.33
545.94	2006.35
546.29	2016.30
546.65	2026.06
547.01	2035.19
547.36	2044.07
547.72	2052.40
548.07	2060.29
548.43	2068.45
548.79	2076.39
549.14	2083.86
549.50	2091.27
549.86	2099.15
550.21	2106.42
550.57	2113.67
550.92	2120.11
551.28	2127.03
551.64	2134.11
551.99	2140.75
552.35	2147.00
552.70	2153.13
553.06	2159.08
553.41	2165.41
553.77	2171.38
554.13	2177.53
554.48	2183.81
554.84	2189.05
555.19	2194.65
555.55	2199.71
555.90	2204.17
556.26	2208.96
556.61	2213.72
556.97	2217.78
557.32	2221.91
557.68	2226.05
558.03	2230.22
558.39	2234.09
558.74	2238.78
559.10	2242.59
559.45	2246.20
559.81	2250.51
560.16	2254.46
560.52	2257.67
560.87	2261.07
561.23	2263.65
561.58	2266.53
561.94	2268.99
562.29	2271.65
562.64	2274.29
563.00	2276.92
563.35	2280.47
563.71	2283.62
564.06	2286.89
564.42	2289.88
564.77	2292.40
565.12	2294.61
565.48	2296.43
565.83	2298.14
566.19	2299.43
566.54	2300.38
566.89	2301.32
567.25	2301.76
567.60	2303.06
567.96	2304.74
568.31	2305.48
568.66	2306.61
569.02	2307.13
569.37	2307.36
569.72	2307.95
570.08	2307.95
570.43	2307.86
570.78	2307.14
571.14	2305.52
571.49	2304.16
571.84	2303.72
572.20	2302.28
572.55	2301.27
572.90	2299.88
573.26	2298.50
573.61	2296.82
573.96	2294.83
574.31	2291.90
574.67	2288.76
575.02	2284.98
575.37	2281.57
575.72	2277.65
576.08	2274.27
576.43	2270.93
576.78	2267.31
577.13	2264.23
577.49	2261.14
577.84	2257.64
578.19	2253.86
578.54	2250.23
578.90	2245.82
579.25	2240.22
579.60	2235.28
579.95	2230.23
580.30	2225.00
580.66	2219.69
581.01	2214.68
581.36	2209.73
581.71	2205.37
582.06	2200.93
582.42	2196.41
582.77	2190.95
583.12	2186.23
583.47	2181.32
583.82	2176.05
584.17	2170.67
584.53	2164.98
584.88	2159.19
585.23	2153.24
585.58	2147.77
585.93	2142.25
586.28	2137.50
586.63	2132.21
586.98	2127.18
587.34	2122.32
587.69	2117.47
588.04	2112.18
588.39	2106.35
588.74	2099.89
589.09	2093.68
589.44	2086.88
589.79	2080.72
590.14	2075.09
590.49	2068.64
590.84	2062.32
591.19	2056.35
591.54	2049.78
591.89	2042.25
592.25	2035.44
592.60	2028.09
592.95	2020.31
593.30	2012.91
593.65	2005.34
594.00	1998.45
594.35	1991.14
594.70	1983.10
595.05	1975.64
595.40	1968.24
595.75	1960.64
596.10	1954.26
596.45	1947.43
596.80	1941.20
597.15	1934.50
597.50	1927.36
597.85	1920.76
598.19	1914.05
598.54	1906.97
598.89	1900.34
599.24	1894.59
599.59	1887.75
599.94	1881.65
600.29	1875.41
600.64	1868.85
600.99	1861.19
601.34	1854.20
601.69	1847.15
602.04	1840.03
602.39	1832.70
602.74	1825.91
603.08	1819.19
603.43	1812.50
603.78	1805.38
604.13	1798.05
604.48	1790.79
604.83	1784.03
605.18	1777.06
605.53	1769.05
605.87	1760.94
606.22	1753.67
606.57	1745.52
606.92	1738.18
607.27	1730.95
607.62	1723.94
607.96	1716.55
608.31	1709.81
608.66	1702.24
609.01	1694.63
609.36	1687.10
609.70	1679.10
610.05	1670.96
610.40	1663.16
610.75	1654.80
611.10	1646.88
611.44	1638.64
611.79	1630.62
612.14	1621.72
612.49	1612.70
612.83	1604.28
613.18	1596.16
613.53	1588.04
613.88	1579.63
614.22	1571.31
614.57	1562.76
614.92	1554.70
615.27	1547.03
615.61	1538.76
615.96	1530.63
616.31	1522.93
616.65	1515.60
617.00	1508.02
617.35	1500.48
617.70	1492.19
618.04	1483.69
618.39	1475.52
618.74	1467.82
619.08	1459.48
619.43	1451.95
619.78	1444.80
620.12	1437.55
620.47	1430.02
620.82	1421.87
621.16	1414.31
621.51	1406.77
621.85	1399.07
622.20	1390.55
622.55	1382.24
622.89	1374.39
623.24	1366.93
623.59	1359.63
623.93	1352.13
624.28	1344.78
624.62	1337.14
624.97	1329.87
625.32	1323.16
625.66	1316.16
626.01	1308.95
626.35	1301.44
626.70	1293.62
627.04	1286.05
627.39	1278.36
627.73	1270.95
628.08	1263.96
628.43	1256.74
628.77	1249.36
629.12	1241.77
629.46	1234.56
629.81	1227.15
630.15	1219.94
630.50	1212.49
630.84	1204.26
631.19	1196.42
631.53	1189.07
631.88	1181.61
632.22	1174.06
632.57	1166.71
632.91	1159.21
633.26	1151.79
633.60	1144.58
633.95	1137.69
634.29	1130.62
634.64	1123.93
634.98	1116.55
635.32	1109.46
635.67	1102.87
636.01	1096.28
636.36	1089.61
636.70	1083.17
637.05	1076.66
637.39	1070.31
637.73	1063.76
638.08	1058.01
638.42	1051.88
638.77	1045.39
639.11	1038.77
639.45	1032.37
639.80	1025.69
640.14	1019.28
640.49	1012.78
640.83	1006.41
641.17	1000.10
641.52	993.76
641.86	987.35
642.20	981.55
642.55	975.30
642.89	968.77
643.23	962.16
643.58	956.32
643.92	950.09
644.26	944.00
644.61	937.95
644.95	931.93
645.29	925.22
645.64	918.50
645.98	912.17
646.32	906.35
646.66	900.32
647.01	894.50
647.35	888.72
647.69	882.81
648.04	877.22
648.38	871.39
648.72	865.35
649.06	859.23
649.41	853.30
649.75	847.23
650.09	841.31
650.43	835.48
650.78	829.27
651.12	823.29
651.46	817.58
651.80	811.71
652.14	806.32
652.49	800.97
652.83	795.79
653.17	790.09
653.51	784.29
653.85	778.93
654.20	773.35
654.54	767.38
654.88	761.74
655.22	755.92
655.56	750.31
655.90	744.85
656.25	739.66
656.59	734.36
656.93	729.33
657.27	724.14
657.61	718.83
657.95	713.77
658.29	708.75
658.64	703.53
658.98	698.34
659.32	692.86
659.66	687.65
660.00	682.37
660.34	677.43
660.68	672.57
661.02	667.46
661.36	662.75
661.70	658.27
662.05	653.82
662.39	649.42
662.73	644.94
663.07	640.58
663.41	636.12
663.75	631.58
664.09	627.04
664.43	622.77
664.77	618.58
665.11	614.35
665.45	610.19
665.79	606.13
666.13	601.89
666.47	597.84
666.81	593.73
667.15	589.61
667.49	585.71
667.83	581.94
668.17	578.12
668.51	574.01
668.85	570.03
669.19	566.24
669.53	562.38
669.87	558.51
670.21	554.83
670.55	551.19
670.89	547.79
671.23	544.39
671.57	540.86
671.91	537.32
672.25	533.85
672.58	530.38
672.92	526.96
673.26	523.87
673.60	520.74
673.94	517.59
674.28	514.79
674.62	511.87
674.96	508.76
675.30	505.78
675.64	502.86
675.97	500.11
676.31	497.21
676.65	494.33
676.99	491.64
677.33	488.79
677.67	485.99
678.01	482.98
678.34	479.92
678.68	476.99
679.02	474.24
679.36	471.44
679.70	468.74
680.04	465.95
680.37	463.05
680.71	460.28
681.05	457.67
681.39	454.87
681.73	452.24
682.06	449.67
682.40	447.15
682.74	444.63
683.08	442.07
683.42	439.50
683.75	437.02
684.09	434.44
684.43	431.96
684.77	429.49
685.10	427.16
685.44	424.91
685.78	422.69
686.12	420.45
686.45	418.11
686.79	415.81
687.13	413.64
687.46	411.46
687.80	409.31
688.14	407.16
688.48	405.12
688.81	402.82
689.15	400.66
689.49	398.51
689.82	396.49
690.16	394.38
690.50	392.46
690.83	390.49
691.17	388.52
691.51	386.61
691.84	384.80
692.18	382.82
692.52	380.84
692.85	378.94
693.19	377.03
693.52	375.30
693.86	373.47
694.20	371.68
694.53	369.89
694.87	368.04
695.21	366.20
695.54	364.37
695.88	362.69
696.21	360.99
696.55	359.30
696.88	357.56
697.22	355.92
697.56	354.31
697.89	352.67
698.23	351.07
698.56	349.47
698.90	347.81
699.23	346.19
699.57	344.58
699.90	343.01
700.24	341.44
700.58	339.86
700.91	338.34
701.25	336.88
701.58	335.52
701.92	334.16
702.25	332.76
702.59	331.39
702.92	330.06
703.26	328.77
703.59	327.50
703.93	326.32
704.26	325.10
704.60	323.78
704.93	322.50
705.26	321.26
705.60	320.09
705.93	318.94
706.27	317.93
706.60	316.93
706.94	315.88
707.27	314.77
707.61	313.73
707.94	312.75
708.27	311.68
708.61	310.63
708.94	309.60
709.28	308.66
709.61	307.72
709.94	306.74
710.28	305.74
710.61	304.77
710.95	303.69
711.28	302.77
711.61	301.79
711.95	300.86
712.28	299.89
712.61	298.94
712.95	297.99
713.28	297.06
713.61	296.14
713.95	295.22
714.28	294.38
714.61	293.54
714.95	292.71
715.28	291.87
715.61	290.99
715.95	290.14
716.28	289.27
716.61	288.44
716.95	287.68
717.28	286.95
717.61	286.17
717.94	285.44
718.28	284.63
718.61	283.94
718.94	283.24
719.27	282.60
719.61	281.93
719.94	281.28
720.27	280.61
720.60	279.97
720.94	279.36
721.27	278.77
721.60	278.15
721.93	277.54
722.27	276.98
722.60	276.44
722.93	275.90
723.26	275.39
723.59	274.85
723.93	274.29
724.26	273.72
724.59	273.16
724.92	272.64
725.25	272.18
725.59	271.70
725.92	271.22
726.25	270.69
726.58	270.19
726.91	269.74
727.24	269.24
727.57	268.77
727.91	268.27
728.24	267.82
728.57	267.33
728.90	266.91
729.23	266.41
729.56	265.99
729.89	265.50
730.22	265.02
730.55	264.57
730.89	264.12
731.22	263.66
731.55	263.24
731.88	262.82
732.21	262.37
732.54	261.90
732.87	261.48
733.20	261.08
733.53	260.71
733.86	260.32
734.19	259.95
734.52	259.55
734.85	259.22
735.18	258.82
735.51	258.45
735.84	258.04
736.17	257.72
736.50	257.30
736.83	257.06
737.16	256.75
737.49	256.37
737.82	256.03
738.15	255.70
738.48	255.36
738.81	255.04
739.14	254.69
739.47	254.38
739.80	254.09
740.13	253.80
740.46	253.46
740.79	253.14
741.12	252.80
741.45	252.47
741.78	252.16
742.11	251.85
742.44	251.54
742.77	251.27
743.10	250.97
743.43	250.69
743.75	250.33
744.08	250.18
744.41	249.92
744.74	249.64
745.07	249.38
745.40	249.16
745.73	248.93
746.06	248.65
746.39	248.41
746.71	248.13
747.04	247.85
747.37	247.62
747.70	247.41
748.03	247.17
748.36	246.98
748.68	246.74
749.01	246.50
749.34	246.28
749.67	246.05
750.00	245.84
750.33	245.68
750.65	245.44
750.98	245.11
751.31	244.90
751.64	244.71
751.97	244.56
752.29	244.32
752.62	244.07
752.95	243.87
753.28	243.64
753.60	243.45
753.93	243.29
754.26	243.09
754.59	242.82
754.91	242.66
755.24	242.44
755.57	242.25
755.90	242.11
756.22	241.94
756.55	241.71
756.88	241.49
757.20	241.26
757.53	241.09
757.86	240.91
758.19	240.77
758.51	240.58
758.84	240.37
759.17	240.22
759.49	240.07
759.82	239.97
760.15	239.85
760.47	239.70
760.80	239.49
761.13	239.32
761.45	239.21
761.78	239.05
762.11	238.91
762.43	238.74
762.76	238.56
763.08	238.45
763.41	238.33
763.74	238.21
764.06	238.07
764.39	237.90
764.71	237.73
765.04	237.55
765.37	237.41
765.69	237.28
766.02	237.14
766.34	237.03
766.67	236.86
767.00	236.74
767.32	236.67
767.65	236.63
767.97	236.51
768.30	236.41
768.62	236.31
768.95	236.16
769.27	236.04
769.60	235.94
769.92	235.79
770.25	235.70
770.57	235.60
770.90	235.48
771.22	235.40
771.55	235.31
771.87	235.25
772.20	235.15
772.52	235.16
772.85	235.15
773.17	235.02
773.50	234.95
773.82	234.82
774.15	234.64
774.47	234.49
774.80	234.39
775.12	234.28
775.45	234.17
775.77	234.15
776.09	234.05
776.42	233.98
776.74	233.93
777.07	233.81
777.39	233.71
777.72	233.64
778.04	233.57
778.36	233.52
778.69	233.44
779.01	233.39
779.33	233.20
779.66	233.01
779.98	232.95
780.31	232.84
780.63	232.84
780.95	232.81
781.28	232.74
781.60	232.70
781.92	232.61
782.25	232.58
782.57	232.47
782.89	232.42
783.22	232.35
783.54	232.25
783.86	232.21
784.19	232.12
784.51	232.11
784.83	232.03
785.16	231.93
785.48	231.90
785.80	231.82
786.12	231.79
786.45	231.75
786.77	231.70
787.09	231.68
787.42	231.57
787.74	231.54
788.06	231.49
788.38	231.44
788.71	231.44
789.03	231.39
789.35	231.37
789.67	231.34
789.99	231.29
790.32	231.24
790.64	231.20
790.96	231.28
791.28	231.20
791.61	231.15
791.93	231.14
792.25	231.09
792.57	231.15
792.89	231.10
793.21	231.07
793.54	231.02
793.86	230.97
794.18	230.96
794.50	230.91
794.82	230.87
795.14	230.86
795.47	230.81
795.79	230.76
796.11	230.71
796.43	230.66
796.75	230.65
797.07	230.63
797.39	230.62
797.71	230.53
798.04	230.51
798.36	230.53
798.68	230.52
799.00	230.48
799.32	230.42
799.64	230.41
799.96	230.40
800.28	230.40
800.60	230.37
800.92	230.36
801.24	230.33
801.56	230.33
801.89	230.28
802.21	230.27
802.53	230.20
802.85	230.20
803.17	230.24
803.49	230.18
803.81	230.14
804.13	230.10
804.45	230.03
804.77	230.04
805.09	230.01
805.41	229.96
805.73	229.92
806.05	229.86
806.37	229.83
806.69	229.77
807.01	229.72
807.33	229.72
807.65	229.64
807.97	229.64
808.28	229.60
808.60	229.57
808.92	229.53
809.24	229.60
809.56	229.58
809.88	229.50
810.20	229.49
810.52	229.49
810.84	229.46
811.16	229.46
811.48	229.40
811.80	229.38
812.12	229.34
812.43	229.34
812.75	229.33
813.07	229.34
813.39	229.34
813.71	229.33
814.03	229.29
814.35	229.27
814.67	229.24
814.98	229.22
815.30	229.17
815.62	229.10
815.94	229.02
816.26	229.01
816.58	228.97
816.89	228.95
817.21	228.92
817.53	228.88
817.85	228.83
818.17	228.80
818.48	228.73
818.80	228.76
819.12	228.74
819.44	228.70
819.76	228.61
820.07	228.57
820.39	228.54
820.71	228.50
821.03	228.48
821.34	228.45
821.66	228.42
821.98	228.43
822.30	228.44
822.61	228.45
822.93	228.40
823.25	228.38
823.57	228.35
823.88	228.34
824.20	228.33
824.52	228.35
824.83	228.32
825.15	228.30
825.47	228.27
825.79	228.27
826.10	228.24
826.42	228.24
826.74	228.25
827.05	228.24
827.37	228.27
827.69	228.30
828.00	228.28
828.32	228.30
828.64	228.29
828.95	228.33
829.27	228.32
829.58	228.30
829.90	228.33
830.22	228.33
830.53	228.32
830.85	228.35
831.17	228.33
831.48	228.31
831.80	228.32
832.11	228.33
832.43	228.30
832.75	228.30
833.06	228.34
833.38	228.29
833.69	228.31
834.01	228.30
834.32	228.27
834.64	228.26
834.96	228.28
835.27	228.29
835.59	228.29
835.90	228.26
836.22	228.24
836.53	228.21
836.85	228.23
837.16	228.31
837.48	228.30
837.79	228.30
838.11	228.33
838.42	228.34
838.74	228.31
839.05	228.31
839.37	228.33
839.68	228.30
840.00	228.36
840.31	228.38
840.63	228.38
840.94	228.37
841.26	228.37
841.57	228.34
841.88	228.33
842.20	228.28
842.51	228.26
842.83	228.27
843.14	228.35
843.46	228.30
843.77	228.23
844.08	228.22
844.40	228.21
844.71	228.17
845.03	228.15
845.34	228.14
845.65	228.15
845.97	228.13
846.28	228.12
846.60	228.05
846.91	228.00
847.22	227.98
847.54	227.97
847.85	227.96
848.16	227.96
848.48	227.92
848.79	227.97
849.10	227.95
849.42	227.97
849.73	227.88
850.04	227.88
850.36	227.86
850.67	227.88
850.98	227.87
851.30	227.86
851.61	227.84
851.92	227.82
852.23	227.81
852.55	227.78
852.86	227.79
853.17	227.79
853.49	227.79
853.80	227.79
854.11	227.79
854.42	227.75
854.74	227.72
855.05	227.70
855.36	227.62
855.67	227.63
855.99	227.58
856.30	227.67
856.61	227.67
856.92	227.65
857.23	227.62
857.55	227.61
857.86	227.59
858.17	227.61
858.48	227.59
858.79	227.57
859.11	227.56
859.42	227.50
859.73	227.49
860.04	227.46
860.35	227.45
860.66	227.42
860.98	227.40
861.29	227.41
861.60	227.44
861.91	227.47
862.22	227.48
862.53	227.48
862.84	227.34
863.16	227.36
863.47	227.31
863.78	227.28
864.09	227.27
864.40	227.32
864.71	227.34
865.02	227.36
865.33	227.37
865.64	227.38
865.95	227.40
866.27	227.48
866.58	227.47
866.89	227.48
867.20	227.47
867.51	227.49
867.82	227.50
868.13	227.53
868.44	227.49
868.75	227.49
869.06	227.53
869.37	227.59
869.68	227.57
869.99	227.61
870.30	227.67
870.61	227.66
870.92	227.64
871.23	227.62
871.54	227.64
871.85	227.70
872.16	227.72
872.47	227.72
872.78	227.66
873.09	227.71
873.40	227.70
873.71	227.70
874.02	227.73
874.33	227.72
874.64	227.67
874.95	227.72
875.26	227.71
875.56	227.71
875.87	227.71
876.18	227.71
876.49	227.82
876.80	227.80
877.11	227.82
877.42	227.82
877.73	227.84
878.04	227.82
878.35	227.81
878.66	227.79
878.96	227.81
879.27	227.81
879.58	227.81
879.89	227.82
880.20	227.88
880.51	227.87
880.82	227.88
881.12	227.92
881.43	227.89
881.74	227.88
882.05	227.83
882.36	227.86
882.67	227.86
882.97	227.74
883.28	227.71
883.59	227.68
883.90	227.69
884.21	227.66
884.51	227.66
884.82	227.61
885.13	227.63
885.44	227.61
885.74	227.61
886.05	227.58
886.36	227.55
886.67	227.53
886.98	227.58
887.28	227.57
887.59	227.54
887.90	227.54
888.20	227.52
888.51	227.52
888.82	227.49
889.13	227.48
889.43	227.54
889.74	227.55
890.05	227.54
890.35	227.50
890.66	227.50
890.97	227.45
891.28	227.41
891.58	227.40
891.89	227.38
892.20	227.34
892.50	227.34
892.81	227.31
893.12	227.29
893.42	227.20
893.73	227.20
894.04	227.20
894.34	227.18
894.65	227.16
894.95	227.16
895.26	227.12
895.57	227.14
895.87	227.04
896.18	227.03
896.48	227.03
896.79	227.03
897.10	227.03
897.40	227.05
897.71	227.10
898.01	227.07
898.32	227.09
898.63	227.09
898.93	227.06
899.24	227.06
899.54	227.05
899.85	227.04
900.15	227.01
900.46	226.99
900.76	226.97
901.07	226.97
901.38	226.97
901.68	227.02
901.99	226.97
902.29	226.96
902.60	226.97
902.90	226.93
903.21	226.94
903.51	226.93
903.82	226.95
904.12	226.92
904.43	226.93
904.73	226.94
905.03	226.93
905.34	227.04
905.64	227.02
905.95	227.03
906.25	227.06
906.56	227.09
906.86	227.11
907.17	227.14
907.47	227.17
907.77	227.16
908.08	227.12
908.38	227.14
908.69	227.18
908.99	227.20
909.30	227.25
909.60	227.26
909.90	227.28
910.21	227.25
910.51	227.28
910.81	227.30
911.12	227.32
911.42	227.33
911.73	227.24
912.03	227.28
912.33	227.31
912.64	227.32
912.94	227.29
913.24	227.28
913.55	227.26
913.85	227.25
914.15	227.30
914.46	227.33
914.76	227.32
915.06	227.32
915.37	227.32
915.67	227.34
915.97	227.34
916.27	227.32
916.58	227.33
916.88	227.30
917.18	227.27
917.49	227.31
917.79	227.32
918.09	227.34
918.39	227.37
918.70	227.36
919.00	227.34
919.30	227.40
919.60	227.43
919.91	227.42
920.21	227.43
920.51	227.41
920.81	227.39
921.12	227.40
921.42	227.38
921.72	227.36
922.02	227.33
922.32	227.32
922.63	227.31
922.93	227.35
923.23	227.34
923.53	227.34
923.83	227.30
924.13	227.32
924.44	227.28
924.74	227.27
925.04	227.29
925.34	227.28
925.64	227.22
925.94	227.17
926.24	227.21
926.55	227.19
926.85	227.18
927.15	227.19
927.45	227.18
927.75	227.15
928.05	227.15
928.35	227.15
928.65	227.14
928.95	227.15
929.26	227.11
929.56	227.12
929.86	227.10
930.16	227.05
930.46	227.02
930.76	227.03
931.06	226.93
931.36	226.87
931.66	226.87
931.96	226.88
932.26	226.89
932.56	226.83
932.86	226.83
933.16	226.81
933.46	226.76
933.76	226.74
934.06	226.78
934.36	226.83
934.66	226.80
934.96	226.78
935.26	226.77
935.56	226.78
935.86	226.77
936.16	226.79
936.46	226.79
936.76	226.78
937.06	226.79
937.36	226.84
937.66	226.86
937.96	226.87
938.26	226.83
938.56	226.81
938.86	226.82
939.16	226.84
939.46	226.86
939.76	226.86
940.06	226.87
940.35	226.83
940.65	226.76
940.95	226.78
941.25	226.79
941.55	226.75
941.85	226.75
942.15	226.79
942.45	226.80
942.75	226.82
943.04	226.81
943.34	226.82
943.64	226.82
943.94	226.80
944.24	226.82
944.54	226.85
944.84	226.87
945.13	226.89
945.43	226.87
945.73	226.89
946.03	226.93
946.33	226.95
946.62	227.01
946.92	227.03
947.22	227.05
947.52	227.06
947.82	227.09
948.11	227.09
948.41	227.08
948.71	227.06
949.01	227.08
949.31	227.09
949.60	227.09
949.90	227.11
950.20	227.14
950.50	227.14
950.79	227.14
951.09	227.15
951.39	227.16
951.69	227.19
951.98	227.23
952.28	227.25
952.58	227.27
952.87	227.24
953.17	227.27
953.47	227.27
953.76	227.29
954.06	227.27
954.36	227.27
954.66	227.26
954.95	227.31
955.25	227.32
955.55	227.32
955.84	227.31
956.14	227.34
956.44	227.37
956.73	227.35
957.03	227.35
957.32	227.35
957.62	227.36
957.92	227.35
958.21	227.32
958.51	227.39
958.81	227.38
959.10	227.41
959.40	227.39
959.69	227.39
959.99	227.39
960.29	227.41
960.58	227.40
960.88	227.44
961.17	227.39
961.47	227.39
961.76	227.37
962.06	227.40
962.36	227.33
962.65	227.27
962.95	227.26
963.24	227.22
963.54	227.22
963.83	227.17
964.13	227.17
964.42	227.13
964.72	227.06
965.01	227.03
965.31	226.98
965.60	226.93
965.90	226.96
966.19	226.93
966.49	226.90
966.78	226.87
967.08	226.84
967.37	226.80
967.67	226.77
967.96	226.77
968.26	226.74
968.55	226.75
968.85	226.76
969.14	226.75
969.43	226.76
969.73	226.74
970.02	226.73
970.32	226.70
970.61	226.70
970.91	226.64
971.20	226.63
971.49	226.59
971.79	226.62
972.08	226.56
972.38	226.55
972.67	226.56
972.96	226.53
973.26	226.51
973.55	226.56
973.85	226.55
974.14	226.52
974.43	226.51
974.73	226.50
975.02	226.49
975.31	226.49
975.61	226.50
975.90	226.49
976.19	226.49
976.49	226.51
976.78	226.50
977.07	226.51
977.37	226.53
977.66	226.57
977.95	226.58
978.24	226.60
978.54	226.65
978.83	226.69
979.12	226.73
979.42	226.73
979.71	226.75
980.00	226.72
980.29	226.76
980.59	226.77
980.88	226.78
981.17	226.80
981.46	226.82
981.76	226.83
982.05	226.87
982.34	226.90
982.63	226.92
982.93	226.92
983.22	226.97
983.51	226.98
983.80	227.02
984.09	227.05
984.39	227.07
984.68	227.07
984.97	227.04
985.26	227.04
985.55	227.07
985.85	227.04
986.14	227.11
986.43	227.12
986.72	227.15
987.01	227.19
987.30	227.20
987.59	227.22
987.89	227.24
988.18	227.23
988.47	227.22
988.76	227.21
989.05	227.23
989.34	227.23
989.63	227.26
989.92	227.21
990.22	227.19
990.51	227.20
990.80	227.17
991.09	227.21
991.38	227.23
991.67	227.24
991.96	227.21
992.25	227.21
992.54	227.20
992.83	227.18
993.12	227.16
993.41	227.17
993.70	227.25
993.99	227.24
994.28	227.27
994.58	227.31
994.87	227.31
995.16	227.30
995.45	227.28
995.74	227.24
996.03	227.28
996.32	227.29
996.61	227.29
996.90	227.30
997.19	227.28
997.48	227.26
997.77	227.23
998.06	227.24
998.34	227.20
998.63	227.17
998.92	227.19
999.21	227.17
999.50	227.17
999.79	227.10
1000.08	227.09
1000.37	227.07
1000.66	227.04
1000.95	227.06
1001.24	227.05
1001.53	227.04
1001.82	227.04
1002.11	227.01
1002.40	226.99
1002.68	226.99
1002.97	227.02
1003.26	226.99
1003.55	226.98
1003.84	226.99
1004.13	227.01
1004.42	227.03
1004.71	227.04
1004.99	227.01
1005.28	227.04
1005.57	227.01
1005.86	226.99
1006.15	226.98
1006.44	226.93
1006.72	226.95
1007.01	226.92
1007.30	226.94
1007.59	226.93
1007.88	226.92
1008.17	226.91
1008.45	226.93
1008.74	226.88
1009.03	226.88
1009.32	226.88
1009.60	226.86
1009.89	226.84
1010.18	226.78
1010.47	226.77
1010.76	226.76
1011.04	226.75
1011.33	226.83
1011.62	226.84
1011.91	226.84
1012.19	226.84
1012.48	226.88
1012.77	226.83
1013.05	226.88
1013.34	226.84
1013.63	226.85
1013.92	226.85
1014.20	226.87
1014.49	226.85
1014.78	226.87
1015.06	226.82
1015.35	226.83
1015.64	226.86
1015.92	226.90
1016.21	226.93
1016.50	226.92
1016.78	226.95
1017.07	226.95
1017.36	226.84
1017.64	226.82
1017.93	226.82
1018.22	226.80
1018.50	226.77
1018.79	226.80
1019.08	226.75
1019.36	226.82
1019.65	226.82
1019.93	226.86
1020.22	226.85
1020.51	226.91
1020.79	226.91
1021.08	226.67
1021.36	226.24
1021.65	226.90
1021.94	227.11
1022.22	227.51
1022.51	226.95
1022.79	227.47
1023.08	226.99
1023.36	228.16
1023.65	226.79
>>>>>End Processed Spectral Data<<<<<
