SpectraSuite Data File
++++++++++++++++++++++++++++++++++++
Date: Fri Feb 01 16:31:35 EST 2013
User: group
Dark Spectrum Present: No
Reference Spectrum Present: No
Number of Sampled Component Spectra: 1
Spectrometers: USB2E7196
Integration Time (usec): 35000 (USB2E7196)
Spectra Averaged: 100 (USB2E7196)
Boxcar Smoothing: 10 (USB2E7196)
Correct for Electrical Dark: No (USB2E7196)
Strobe/Lamp Enabled: No (USB2E7196)
Correct for Detector Non-linearity: No (USB2E7196)
Correct for Stray Light: No (USB2E7196)
Number of Pixels in Processed Spectrum: 2048
>>>>>Begin Processed Spectral Data<<<<<
339.09	0.00
339.48	214.61
339.86	216.00
340.24	217.12
340.63	218.31
341.01	220.90
341.39	221.32
341.78	222.87
342.16	223.71
342.54	224.42
342.93	212.67
343.31	223.41
343.69	223.94
344.07	224.36
344.46	224.79
344.84	225.18
345.22	225.40
345.60	225.65
345.99	225.78
346.37	225.88
346.75	225.93
347.13	225.96
347.52	226.02
347.90	226.08
348.28	226.09
348.66	226.08
349.05	226.07
349.43	226.12
349.81	226.14
350.19	226.15
350.57	226.19
350.96	226.26
351.34	226.34
351.72	226.40
352.10	226.51
352.48	226.57
352.87	226.60
353.25	226.68
353.63	226.72
354.01	226.82
354.39	226.88
354.77	226.99
355.15	227.09
355.54	227.13
355.92	227.17
356.30	227.22
356.68	227.38
357.06	227.43
357.44	227.47
357.82	227.52
358.20	227.60
358.58	227.66
358.97	227.71
359.35	227.76
359.73	227.82
360.11	227.86
360.49	227.93
360.87	227.97
361.25	228.01
361.63	228.07
362.01	228.11
362.39	228.13
362.77	228.16
363.15	228.19
363.53	228.21
363.91	228.22
364.29	228.27
364.67	228.19
365.05	228.21
365.43	228.22
365.81	228.25
366.19	228.29
366.57	228.34
366.95	228.34
367.33	228.31
367.71	228.34
368.09	228.35
368.47	228.32
368.85	228.33
369.23	228.34
369.61	228.31
369.99	228.30
370.37	228.32
370.75	228.33
371.13	228.26
371.51	228.23
371.89	228.19
372.27	228.15
372.65	228.14
373.03	228.09
373.41	228.04
373.78	227.99
374.16	227.89
374.54	227.78
374.92	227.74
375.30	227.70
375.68	227.57
376.06	227.55
376.44	227.45
376.82	227.39
377.19	227.31
377.57	227.27
377.95	227.17
378.33	227.10
378.71	227.00
379.09	226.95
379.47	226.91
379.84	226.87
380.22	226.77
380.60	226.65
380.98	226.60
381.36	226.55
381.73	226.47
382.11	226.42
382.49	226.41
382.87	226.34
383.25	226.31
383.62	226.38
384.00	226.27
384.38	226.25
384.76	226.21
385.13	226.20
385.51	226.15
385.89	226.07
386.27	226.01
386.64	225.98
387.02	225.94
387.40	225.90
387.78	225.87
388.15	225.82
388.53	225.80
388.91	225.76
389.29	225.75
389.66	225.75
390.04	225.74
390.42	225.72
390.79	225.70
391.17	225.66
391.55	225.57
391.92	225.57
392.30	225.56
392.68	225.53
393.05	225.54
393.43	225.55
393.81	225.59
394.18	225.60
394.56	225.59
394.94	225.62
395.31	225.61
395.69	225.66
396.06	225.71
396.44	225.77
396.82	225.80
397.19	225.86
397.57	225.88
397.95	225.90
398.32	225.92
398.70	225.98
399.07	226.06
399.45	226.09
399.82	226.15
400.20	226.18
400.58	226.29
400.95	226.30
401.33	226.37
401.70	226.53
402.08	226.63
402.45	226.70
402.83	226.81
403.20	226.93
403.58	227.00
403.95	227.13
404.33	227.24
404.71	227.38
405.08	227.54
405.46	227.69
405.83	227.82
406.21	227.96
406.58	228.13
406.96	228.29
407.33	228.48
407.70	228.65
408.08	228.94
408.45	229.17
408.83	229.38
409.20	229.59
409.58	229.77
409.95	230.01
410.33	230.27
410.70	230.52
411.08	230.83
411.45	231.14
411.82	231.44
412.20	231.80
412.57	232.21
412.95	232.49
413.32	232.88
413.69	233.32
414.07	233.76
414.44	234.18
414.82	234.66
415.19	235.22
415.56	235.78
415.94	236.29
416.31	236.90
416.68	237.54
417.06	238.25
417.43	238.93
417.81	239.72
418.18	240.51
418.55	241.34
418.93	242.20
419.30	243.11
419.67	244.05
420.04	244.99
420.42	245.97
420.79	247.13
421.16	248.30
421.54	249.48
421.91	250.72
422.28	251.98
422.66	253.27
423.03	254.57
423.40	255.89
423.77	257.31
424.15	258.72
424.52	260.20
424.89	261.81
425.26	263.37
425.64	264.81
426.01	266.38
426.38	268.04
426.75	269.73
427.13	271.43
427.50	273.26
427.87	275.17
428.24	277.03
428.61	278.78
428.99	280.70
429.36	282.79
429.73	284.82
430.10	286.83
430.47	288.90
430.85	291.00
431.22	293.22
431.59	295.62
431.96	297.86
432.33	300.31
432.70	302.67
433.08	305.42
433.45	308.09
433.82	310.72
434.19	313.61
434.56	316.35
434.93	318.95
435.30	321.53
435.68	324.38
436.05	327.17
436.42	329.98
436.79	332.46
437.16	335.13
437.53	337.93
437.90	340.71
438.27	343.44
438.64	346.22
439.01	348.80
439.38	351.02
439.75	353.15
440.13	355.61
440.50	357.91
440.87	359.76
441.24	361.66
441.61	363.75
441.98	365.20
442.35	366.99
442.72	368.83
443.09	370.64
443.46	371.57
443.83	372.15
444.20	372.64
444.57	373.46
444.94	373.76
445.31	374.09
445.68	374.43
446.05	374.50
446.42	374.13
446.79	373.73
447.16	373.26
447.53	372.95
447.90	371.81
448.27	370.62
448.64	369.06
449.01	367.90
449.37	365.91
449.74	364.04
450.11	361.86
450.48	359.44
450.85	356.94
451.22	354.87
451.59	352.83
451.96	350.88
452.33	348.32
452.70	345.99
453.07	343.20
453.43	340.37
453.80	337.64
454.17	334.97
454.54	332.43
454.91	329.70
455.28	327.05
455.65	324.62
456.02	322.24
456.38	320.11
456.75	317.49
457.12	315.31
457.49	313.11
457.86	310.90
458.23	309.05
458.59	307.02
458.96	304.93
459.33	303.12
459.70	301.25
460.07	299.76
460.43	298.05
460.80	296.44
461.17	295.00
461.54	293.49
461.91	292.09
462.27	290.67
462.64	289.46
463.01	288.12
463.38	286.81
463.74	285.46
464.11	284.28
464.48	283.24
464.85	282.12
465.21	281.27
465.58	280.36
465.95	279.29
466.32	278.34
466.68	277.42
467.05	276.53
467.42	275.65
467.78	274.71
468.15	273.85
468.52	273.19
468.88	272.35
469.25	271.58
469.62	270.98
469.98	270.31
470.35	269.69
470.72	269.10
471.08	268.43
471.45	267.89
471.82	267.34
472.18	266.70
472.55	266.33
472.92	265.78
473.28	265.36
473.65	264.92
474.02	264.50
474.38	264.16
474.75	263.84
475.11	263.52
475.48	263.28
475.85	263.07
476.21	262.82
476.58	262.66
476.94	262.53
477.31	262.37
477.67	262.22
478.04	262.14
478.41	262.07
478.77	262.12
479.14	262.06
479.50	262.08
479.87	262.22
480.23	262.30
480.60	262.39
480.96	262.50
481.33	262.69
481.69	262.90
482.06	263.10
482.42	263.32
482.79	263.59
483.15	263.92
483.52	264.27
483.88	264.63
484.25	265.01
484.61	265.42
484.98	265.88
485.34	266.44
485.71	267.00
486.07	267.62
486.44	268.23
486.80	268.92
487.17	269.67
487.53	270.46
487.90	271.29
488.26	272.23
488.62	273.21
488.99	274.20
489.35	275.21
489.72	276.33
490.08	277.53
490.44	278.76
490.81	280.08
491.17	281.44
491.54	282.94
491.90	284.49
492.26	286.15
492.63	287.90
492.99	289.64
493.36	291.55
493.72	293.60
494.08	295.65
494.45	297.92
494.81	300.25
495.17	302.69
495.54	305.23
495.90	307.94
496.26	310.74
496.63	313.71
496.99	316.84
497.35	320.12
497.72	323.57
498.08	327.12
498.44	330.78
498.80	334.73
499.17	338.74
499.53	342.93
499.89	347.33
500.26	351.83
500.62	356.52
500.98	361.53
501.34	366.58
501.71	371.99
502.07	377.45
502.43	383.13
502.79	388.99
503.16	395.09
503.52	401.31
503.88	407.74
504.24	414.35
504.60	421.27
504.97	428.39
505.33	435.75
505.69	443.42
506.05	451.29
506.41	459.16
506.78	467.40
507.14	475.82
507.50	484.49
507.86	493.49
508.22	502.73
508.59	511.90
508.95	521.52
509.31	531.32
509.67	541.42
510.03	551.79
510.39	562.37
510.75	573.25
511.12	584.27
511.48	595.56
511.84	606.99
512.20	618.48
512.56	630.39
512.92	642.42
513.28	654.77
513.64	667.18
514.00	679.97
514.37	692.84
514.73	705.89
515.09	718.98
515.45	732.32
515.81	745.84
516.17	759.85
516.53	773.95
516.89	788.06
517.25	802.20
517.61	816.56
517.97	830.94
518.33	845.21
518.69	859.89
519.05	874.76
519.41	889.94
519.77	905.39
520.13	920.78
520.49	936.15
520.85	951.56
521.21	967.28
521.57	983.40
521.93	999.16
522.29	1015.53
522.65	1031.65
523.01	1047.80
523.37	1063.86
523.73	1079.91
524.09	1095.91
524.45	1112.19
524.81	1128.73
525.17	1145.34
525.53	1162.20
525.89	1179.10
526.25	1195.80
526.61	1212.13
526.97	1228.83
527.33	1245.27
527.68	1261.81
528.04	1278.24
528.40	1294.71
528.76	1311.61
529.12	1328.09
529.48	1344.81
529.84	1360.68
530.20	1377.25
530.56	1394.08
530.91	1411.29
531.27	1427.98
531.63	1444.37
531.99	1460.82
532.35	1476.73
532.71	1492.54
533.07	1508.59
533.42	1524.37
533.78	1540.41
534.14	1556.64
534.50	1571.86
534.86	1587.65
535.21	1602.77
535.57	1618.54
535.93	1633.89
536.29	1648.55
536.65	1663.45
537.00	1678.11
537.36	1693.28
537.72	1707.75
538.08	1722.06
538.44	1735.81
538.79	1749.59
539.15	1763.03
539.51	1776.55
539.87	1790.68
540.22	1804.31
540.58	1818.03
540.94	1831.15
541.29	1843.94
541.65	1856.50
542.01	1869.59
542.37	1881.83
542.72	1894.12
543.08	1905.92
543.44	1918.05
543.79	1929.27
544.15	1940.17
544.51	1951.72
544.87	1962.65
545.22	1973.33
545.58	1983.49
545.94	1993.19
546.29	2002.90
546.65	2012.82
547.01	2022.16
547.36	2030.84
547.72	2039.30
548.07	2047.00
548.43	2055.10
548.79	2063.05
549.14	2070.49
549.50	2077.67
549.86	2085.13
550.21	2092.42
550.57	2099.50
550.92	2106.08
551.28	2112.85
551.64	2119.85
551.99	2126.25
552.35	2132.39
552.70	2138.55
553.06	2144.49
553.41	2150.82
553.77	2156.75
554.13	2162.70
554.48	2168.68
554.84	2174.19
555.19	2179.42
555.55	2184.65
555.90	2189.16
556.26	2194.04
556.61	2198.79
556.97	2203.13
557.32	2207.23
557.68	2211.39
558.03	2215.67
558.39	2219.46
558.74	2224.37
559.10	2228.22
559.45	2231.95
559.81	2236.21
560.16	2240.05
560.52	2243.28
560.87	2246.72
561.23	2249.54
561.58	2252.56
561.94	2255.18
562.29	2257.51
562.64	2260.31
563.00	2262.87
563.35	2266.50
563.71	2269.64
564.06	2272.84
564.42	2275.87
564.77	2278.53
565.12	2280.73
565.48	2282.66
565.83	2284.64
566.19	2285.95
566.54	2287.02
566.89	2288.12
567.25	2288.89
567.60	2290.14
567.96	2292.02
568.31	2292.77
568.66	2293.94
569.02	2294.63
569.37	2295.07
569.72	2296.03
570.08	2296.13
570.43	2296.41
570.78	2295.84
571.14	2294.28
571.49	2293.03
571.84	2292.72
572.20	2291.68
572.55	2290.75
572.90	2289.14
573.26	2287.86
573.61	2286.16
573.96	2284.60
574.31	2281.82
574.67	2278.90
575.02	2275.34
575.37	2271.83
575.72	2268.21
576.08	2264.99
576.43	2261.65
576.78	2258.03
577.13	2254.95
577.49	2251.85
577.84	2248.29
578.19	2244.59
578.54	2241.08
578.90	2236.92
579.25	2231.47
579.60	2226.58
579.95	2221.59
580.30	2216.81
580.66	2211.64
581.01	2206.88
581.36	2201.84
581.71	2197.71
582.06	2193.25
582.42	2188.87
582.77	2183.77
583.12	2179.37
583.47	2174.56
583.82	2169.68
584.17	2164.45
584.53	2158.93
584.88	2153.48
585.23	2147.77
585.58	2142.32
585.93	2136.85
586.28	2132.21
586.63	2127.13
586.98	2122.20
587.34	2117.60
587.69	2112.73
588.04	2107.54
588.39	2101.92
588.74	2095.49
589.09	2089.42
589.44	2082.70
589.79	2076.74
590.14	2071.18
590.49	2064.53
590.84	2058.33
591.19	2052.32
591.54	2045.92
591.89	2038.77
592.25	2031.89
592.60	2024.76
592.95	2017.34
593.30	2010.12
593.65	2002.49
594.00	1995.46
594.35	1988.28
594.70	1980.30
595.05	1973.05
595.40	1965.81
595.75	1958.18
596.10	1952.12
596.45	1945.35
596.80	1939.21
597.15	1932.81
597.50	1925.71
597.85	1919.33
598.19	1912.66
598.54	1905.59
598.89	1899.12
599.24	1893.19
599.59	1886.66
599.94	1880.46
600.29	1874.23
600.64	1867.65
600.99	1860.40
601.34	1853.57
601.69	1846.54
602.04	1839.83
602.39	1832.67
602.74	1825.90
603.08	1819.33
603.43	1812.63
603.78	1805.30
604.13	1798.11
604.48	1790.69
604.83	1783.86
605.18	1776.92
605.53	1768.92
605.87	1760.91
606.22	1753.62
606.57	1745.74
606.92	1738.48
607.27	1731.31
607.62	1724.35
607.96	1717.08
608.31	1710.46
608.66	1703.02
609.01	1695.57
609.36	1687.86
609.70	1679.77
610.05	1671.78
610.40	1664.08
610.75	1655.79
611.10	1648.16
611.44	1639.68
611.79	1631.71
612.14	1623.10
612.49	1613.89
612.83	1605.62
613.18	1597.67
613.53	1589.53
613.88	1580.89
614.22	1572.65
614.57	1564.04
614.92	1556.03
615.27	1548.58
615.61	1540.11
615.96	1532.01
616.31	1524.36
616.65	1517.04
617.00	1509.47
617.35	1501.83
617.70	1493.45
618.04	1484.87
618.39	1476.62
618.74	1469.03
619.08	1460.76
619.43	1453.07
619.78	1446.29
620.12	1439.12
620.47	1431.48
620.82	1423.30
621.16	1415.94
621.51	1408.30
621.85	1400.74
622.20	1392.15
622.55	1383.65
622.89	1375.86
623.24	1368.20
623.59	1360.76
623.93	1353.17
624.28	1345.95
624.62	1338.24
624.97	1331.08
625.32	1324.28
625.66	1317.29
626.01	1310.29
626.35	1302.77
626.70	1295.12
627.04	1287.34
627.39	1279.54
627.73	1272.12
628.08	1265.19
628.43	1257.94
628.77	1250.51
629.12	1242.93
629.46	1235.78
629.81	1228.44
630.15	1221.29
630.50	1213.95
630.84	1205.72
631.19	1197.85
631.53	1190.31
631.88	1182.82
632.22	1175.20
632.57	1167.87
632.91	1160.34
633.26	1152.73
633.60	1145.34
633.95	1138.23
634.29	1131.17
634.64	1124.51
634.98	1117.17
635.32	1109.98
635.67	1103.30
636.01	1096.64
636.36	1089.81
636.70	1083.20
637.05	1076.66
637.39	1070.16
637.73	1063.62
638.08	1057.74
638.42	1051.73
638.77	1045.27
639.11	1038.69
639.45	1032.37
639.80	1025.69
640.14	1019.29
640.49	1012.70
640.83	1006.40
641.17	1000.08
641.52	993.67
641.86	987.09
642.20	981.14
642.55	974.88
642.89	968.40
643.23	961.84
643.58	956.15
643.92	949.97
644.26	943.84
644.61	937.77
644.95	931.76
645.29	925.20
645.64	918.45
645.98	912.15
646.32	906.33
646.66	900.26
647.01	894.54
647.35	888.89
647.69	883.18
648.04	877.69
648.38	871.95
648.72	866.06
649.06	860.06
649.41	854.22
649.75	848.28
650.09	842.32
650.43	836.56
650.78	830.34
651.12	824.49
651.46	818.86
651.80	813.12
652.14	807.75
652.49	802.40
652.83	797.28
653.17	791.68
653.51	785.98
653.85	780.63
654.20	774.94
654.54	768.95
654.88	763.17
655.22	757.35
655.56	751.71
655.90	746.21
656.25	741.00
656.59	735.70
656.93	730.61
657.27	725.52
657.61	720.09
657.95	714.99
658.29	709.87
658.64	704.58
658.98	699.33
659.32	693.88
659.66	688.66
660.00	683.32
660.34	678.36
660.68	673.39
661.02	668.29
661.36	663.58
661.70	659.07
662.05	654.74
662.39	650.36
662.73	645.88
663.07	641.44
663.41	636.95
663.75	632.50
664.09	627.91
664.43	623.51
664.77	619.43
665.11	615.17
665.45	611.08
665.79	607.00
666.13	602.80
666.47	598.64
666.81	594.42
667.15	590.29
667.49	586.29
667.83	582.46
668.17	578.48
668.51	574.45
668.85	570.38
669.19	566.50
669.53	562.65
669.87	558.76
670.21	555.10
670.55	551.49
670.89	548.01
671.23	544.60
671.57	541.05
671.91	537.45
672.25	533.99
672.58	530.42
672.92	526.90
673.26	523.70
673.60	520.52
673.94	517.39
674.28	514.49
674.62	511.60
674.96	508.50
675.30	505.62
675.64	502.67
675.97	499.87
676.31	496.99
676.65	493.98
676.99	491.26
677.33	488.37
677.67	485.57
678.01	482.51
678.34	479.52
678.68	476.64
679.02	473.87
679.36	471.02
679.70	468.30
680.04	465.58
680.37	462.75
680.71	459.98
681.05	457.41
681.39	454.65
681.73	452.00
682.06	449.50
682.40	446.96
682.74	444.40
683.08	441.90
683.42	439.34
683.75	436.82
684.09	434.23
684.43	431.74
684.77	429.21
685.10	426.86
685.44	424.53
685.78	422.26
686.12	419.95
686.45	417.67
686.79	415.39
687.13	413.22
687.46	411.04
687.80	408.87
688.14	406.67
688.48	404.65
688.81	402.42
689.15	400.29
689.49	398.10
689.82	396.04
690.16	393.92
690.50	391.95
690.83	390.05
691.17	388.11
691.51	386.25
691.84	384.47
692.18	382.54
692.52	380.58
692.85	378.66
693.19	376.78
693.52	374.96
693.86	373.11
694.20	371.31
694.53	369.53
694.87	367.68
695.21	365.90
695.54	364.03
695.88	362.30
696.21	360.55
696.55	358.89
696.88	357.19
697.22	355.53
697.56	353.94
697.89	352.27
698.23	350.69
698.56	349.05
698.90	347.44
699.23	345.77
699.57	344.22
699.90	342.67
700.24	341.14
700.58	339.62
700.91	338.16
701.25	336.72
701.58	335.32
701.92	334.03
702.25	332.67
702.59	331.30
702.92	329.96
703.26	328.64
703.59	327.34
703.93	326.18
704.26	324.96
704.60	323.62
704.93	322.37
705.26	321.09
705.60	319.91
705.93	318.76
706.27	317.74
706.60	316.67
706.94	315.57
707.27	314.42
707.61	313.35
707.94	312.31
708.27	311.21
708.61	310.12
708.94	309.03
709.28	308.02
709.61	307.06
709.94	306.09
710.28	305.09
710.61	304.10
710.95	302.98
711.28	302.06
711.61	301.08
711.95	300.15
712.28	299.24
712.61	298.22
712.95	297.29
713.28	296.42
713.61	295.53
713.95	294.64
714.28	293.81
714.61	292.93
714.95	292.04
715.28	291.18
715.61	290.33
715.95	289.45
716.28	288.60
716.61	287.73
716.95	286.91
717.28	286.18
717.61	285.45
717.94	284.70
718.28	283.87
718.61	283.17
718.94	282.46
719.27	281.77
719.61	281.14
719.94	280.47
720.27	279.75
720.60	279.09
720.94	278.47
721.27	277.85
721.60	277.31
721.93	276.73
722.27	276.14
722.60	275.57
722.93	275.02
723.26	274.48
723.59	273.95
723.93	273.40
724.26	272.81
724.59	272.23
724.92	271.74
725.25	271.22
725.59	270.72
725.92	270.22
726.25	269.71
726.58	269.27
726.91	268.75
727.24	268.26
727.57	267.76
727.91	267.22
728.24	266.77
728.57	266.27
728.90	265.81
729.23	265.38
729.56	264.96
729.89	264.49
730.22	264.01
730.55	263.54
730.89	263.08
731.22	262.63
731.55	262.18
731.88	261.75
732.21	261.36
732.54	260.89
732.87	260.48
733.20	260.06
733.53	259.63
733.86	259.27
734.19	258.91
734.52	258.56
734.85	258.28
735.18	257.86
735.51	257.51
735.84	257.16
736.17	256.78
736.50	256.37
736.83	256.15
737.16	255.84
737.49	255.49
737.82	255.14
738.15	254.82
738.48	254.47
738.81	254.15
739.14	253.81
739.47	253.53
739.80	253.22
740.13	252.94
740.46	252.62
740.79	252.29
741.12	251.93
741.45	251.61
741.78	251.28
742.11	251.01
742.44	250.65
742.77	250.36
743.10	250.09
743.43	249.80
743.75	249.42
744.08	249.23
744.41	248.98
744.74	248.74
745.07	248.46
745.40	248.21
745.73	247.97
746.06	247.68
746.39	247.41
746.71	247.11
747.04	246.80
747.37	246.55
747.70	246.30
748.03	246.04
748.36	245.81
748.68	245.54
749.01	245.30
749.34	245.06
749.67	244.81
750.00	244.54
750.33	244.37
750.65	244.17
750.98	243.85
751.31	243.60
751.64	243.38
751.97	243.21
752.29	243.03
752.62	242.77
752.95	242.59
753.28	242.38
753.60	242.20
753.93	242.05
754.26	241.82
754.59	241.62
754.91	241.44
755.24	241.25
755.57	241.03
755.90	240.82
756.22	240.62
756.55	240.44
756.88	240.28
757.20	240.04
757.53	239.82
757.86	239.64
758.19	239.52
758.51	239.35
758.84	239.15
759.17	238.97
759.49	238.85
759.82	238.71
760.15	238.62
760.47	238.48
760.80	238.30
761.13	238.20
761.45	238.02
761.78	237.87
762.11	237.71
762.43	237.60
762.76	237.48
763.08	237.38
763.41	237.26
763.74	237.10
764.06	236.97
764.39	236.83
764.71	236.71
765.04	236.56
765.37	236.45
765.69	236.33
766.02	236.19
766.34	236.03
766.67	235.91
767.00	235.76
767.32	235.66
767.65	235.61
767.97	235.50
768.30	235.42
768.62	235.32
768.95	235.19
769.27	235.10
769.60	234.98
769.92	234.86
770.25	234.75
770.57	234.66
770.90	234.57
771.22	234.48
771.55	234.39
771.87	234.31
772.20	234.18
772.52	234.17
772.85	234.21
773.17	234.16
773.50	234.04
773.82	233.94
774.15	233.80
774.47	233.68
774.80	233.57
775.12	233.49
775.45	233.41
775.77	233.34
776.09	233.26
776.42	233.18
776.74	233.12
777.07	233.02
777.39	232.96
777.72	232.89
778.04	232.82
778.36	232.73
778.69	232.65
779.01	232.60
779.33	232.45
779.66	232.26
779.98	232.17
780.31	232.08
780.63	232.08
780.95	232.05
781.28	231.96
781.60	231.91
781.92	231.83
782.25	231.78
782.57	231.70
782.89	231.63
783.22	231.57
783.54	231.52
783.86	231.51
784.19	231.43
784.51	231.40
784.83	231.36
785.16	231.33
785.48	231.25
785.80	231.20
786.12	231.18
786.45	231.14
786.77	231.10
787.09	231.06
787.42	230.99
787.74	230.95
788.06	230.94
788.38	230.87
788.71	230.85
789.03	230.78
789.35	230.79
789.67	230.76
789.99	230.74
790.32	230.67
790.64	230.64
790.96	230.66
791.28	230.58
791.61	230.53
791.93	230.50
792.25	230.44
792.57	230.46
792.89	230.37
793.21	230.32
793.54	230.26
793.86	230.24
794.18	230.17
794.50	230.08
794.82	230.01
795.14	229.98
795.47	229.91
795.79	229.87
796.11	229.78
796.43	229.74
796.75	229.68
797.07	229.62
797.39	229.56
797.71	229.46
798.04	229.44
798.36	229.41
798.68	229.34
799.00	229.34
799.32	229.27
799.64	229.26
799.96	229.19
800.28	229.18
800.60	229.13
800.92	229.12
801.24	229.10
801.56	229.09
801.89	229.07
802.21	229.03
802.53	228.99
802.85	228.98
803.17	228.99
803.49	228.94
803.81	228.88
804.13	228.85
804.45	228.80
804.77	228.76
805.09	228.69
805.41	228.66
805.73	228.63
806.05	228.55
806.37	228.54
806.69	228.51
807.01	228.46
807.33	228.43
807.65	228.33
807.97	228.39
808.28	228.33
808.60	228.25
808.92	228.21
809.24	228.23
809.56	228.19
809.88	228.13
810.20	228.12
810.52	228.13
810.84	228.09
811.16	228.06
811.48	228.03
811.80	228.07
812.12	228.04
812.43	228.03
812.75	228.00
813.07	227.95
813.39	227.93
813.71	227.90
814.03	227.89
814.35	227.91
814.67	227.79
814.98	227.80
815.30	227.82
815.62	227.81
815.94	227.75
816.26	227.79
816.58	227.73
816.89	227.71
817.21	227.66
817.53	227.66
817.85	227.63
818.17	227.64
818.48	227.57
818.80	227.56
819.12	227.52
819.44	227.51
819.76	227.52
820.07	227.54
820.39	227.53
820.71	227.56
821.03	227.51
821.34	227.52
821.66	227.51
821.98	227.51
822.30	227.49
822.61	227.56
822.93	227.50
823.25	227.51
823.57	227.45
823.88	227.50
824.20	227.47
824.52	227.51
824.83	227.48
825.15	227.50
825.47	227.51
825.79	227.52
826.10	227.52
826.42	227.49
826.74	227.47
827.05	227.47
827.37	227.42
827.69	227.39
828.00	227.39
828.32	227.38
828.64	227.37
828.95	227.41
829.27	227.33
829.58	227.35
829.90	227.35
830.22	227.41
830.53	227.34
830.85	227.37
831.17	227.29
831.48	227.27
831.80	227.26
832.11	227.22
832.43	227.20
832.75	227.17
833.06	227.22
833.38	227.19
833.69	227.17
834.01	227.14
834.32	227.14
834.64	227.10
834.96	227.06
835.27	227.03
835.59	226.97
835.90	227.01
836.22	226.99
836.53	226.94
836.85	226.89
837.16	227.01
837.48	227.00
837.79	227.06
838.11	227.05
838.42	227.02
838.74	227.04
839.05	227.02
839.37	227.02
839.68	226.92
840.00	226.93
840.31	226.92
840.63	226.93
840.94	226.91
841.26	226.90
841.57	226.91
841.88	226.88
842.20	226.86
842.51	226.81
842.83	226.77
843.14	226.90
843.46	226.94
843.77	226.84
844.08	226.79
844.40	226.74
844.71	226.72
845.03	226.69
845.34	226.67
845.65	226.67
845.97	226.68
846.28	226.73
846.60	226.71
846.91	226.72
847.22	226.73
847.54	226.74
847.85	226.77
848.16	226.75
848.48	226.76
848.79	226.79
849.10	226.78
849.42	226.80
849.73	226.68
850.04	226.65
850.36	226.63
850.67	226.66
850.98	226.66
851.30	226.64
851.61	226.62
851.92	226.63
852.23	226.65
852.55	226.64
852.86	226.57
853.17	226.59
853.49	226.59
853.80	226.61
854.11	226.65
854.42	226.64
854.74	226.63
855.05	226.63
855.36	226.59
855.67	226.60
855.99	226.58
856.30	226.73
856.61	226.69
856.92	226.67
857.23	226.64
857.55	226.64
857.86	226.67
858.17	226.73
858.48	226.72
858.79	226.73
859.11	226.74
859.42	226.79
859.73	226.77
860.04	226.78
860.35	226.71
860.66	226.71
860.98	226.71
861.29	226.72
861.60	226.73
861.91	226.76
862.22	226.74
862.53	226.74
862.84	226.60
863.16	226.63
863.47	226.62
863.78	226.64
864.09	226.63
864.40	226.62
864.71	226.61
865.02	226.62
865.33	226.59
865.64	226.57
865.95	226.55
866.27	226.59
866.58	226.58
866.89	226.64
867.20	226.62
867.51	226.61
867.82	226.60
868.13	226.63
868.44	226.62
868.75	226.64
869.06	226.65
869.37	226.66
869.68	226.63
869.99	226.69
870.30	226.65
870.61	226.69
870.92	226.68
871.23	226.68
871.54	226.68
871.85	226.68
872.16	226.70
872.47	226.69
872.78	226.65
873.09	226.67
873.40	226.64
873.71	226.64
874.02	226.60
874.33	226.59
874.64	226.53
874.95	226.55
875.26	226.52
875.56	226.51
875.87	226.47
876.18	226.48
876.49	226.54
876.80	226.56
877.11	226.50
877.42	226.49
877.73	226.46
878.04	226.44
878.35	226.42
878.66	226.38
878.96	226.37
879.27	226.33
879.58	226.28
879.89	226.26
880.20	226.27
880.51	226.28
880.82	226.27
881.12	226.28
881.43	226.24
881.74	226.25
882.05	226.26
882.36	226.27
882.67	226.26
882.97	226.15
883.28	226.14
883.59	226.17
883.90	226.18
884.21	226.22
884.51	226.21
884.82	226.22
885.13	226.25
885.44	226.29
885.74	226.31
886.05	226.32
886.36	226.34
886.67	226.32
886.98	226.38
887.28	226.41
887.59	226.43
887.90	226.42
888.20	226.40
888.51	226.40
888.82	226.39
889.13	226.41
889.43	226.49
889.74	226.46
890.05	226.46
890.35	226.43
890.66	226.38
890.97	226.34
891.28	226.35
891.58	226.34
891.89	226.28
892.20	226.26
892.50	226.24
892.81	226.22
893.12	226.21
893.42	226.14
893.73	226.11
894.04	226.11
894.34	226.13
894.65	226.14
894.95	226.13
895.26	226.15
895.57	226.17
895.87	226.05
896.18	226.11
896.48	226.09
896.79	226.11
897.10	226.13
897.40	226.13
897.71	226.12
898.01	226.11
898.32	226.13
898.63	226.10
898.93	226.10
899.24	226.09
899.54	226.07
899.85	226.04
900.15	226.05
900.46	226.04
900.76	226.02
901.07	226.00
901.38	225.97
901.68	225.99
901.99	225.94
902.29	225.96
902.60	225.94
902.90	225.95
903.21	225.97
903.51	225.97
903.82	226.03
904.12	226.02
904.43	226.05
904.73	226.03
905.03	226.03
905.34	226.12
905.64	226.11
905.95	226.10
906.25	226.14
906.56	226.13
906.86	226.14
907.17	226.15
907.47	226.20
907.77	226.20
908.08	226.16
908.38	226.20
908.69	226.23
908.99	226.22
909.30	226.20
909.60	226.16
909.90	226.17
910.21	226.10
910.51	226.09
910.81	226.08
911.12	226.09
911.42	226.13
911.73	226.03
912.03	226.03
912.33	226.07
912.64	226.03
912.94	226.00
913.24	225.94
913.55	225.92
913.85	225.88
914.15	225.92
914.46	225.91
914.76	225.84
915.06	225.84
915.37	225.83
915.67	225.85
915.97	225.89
916.27	225.86
916.58	225.91
916.88	225.89
917.18	225.85
917.49	225.96
917.79	225.93
918.09	225.94
918.39	225.99
918.70	225.97
919.00	226.02
919.30	226.07
919.60	226.07
919.91	226.06
920.21	226.05
920.51	226.03
920.81	226.05
921.12	226.06
921.42	226.05
921.72	226.06
922.02	226.06
922.32	226.06
922.63	226.03
922.93	226.08
923.23	226.07
923.53	226.06
923.83	226.00
924.13	226.01
924.44	225.99
924.74	225.98
925.04	226.01
925.34	225.96
925.64	225.94
925.94	225.96
926.24	226.06
926.55	226.07
926.85	226.07
927.15	226.05
927.45	226.09
927.75	226.11
928.05	226.08
928.35	226.07
928.65	226.09
928.95	226.12
929.26	226.07
929.56	226.12
929.86	226.13
930.16	226.09
930.46	226.10
930.76	226.11
931.06	226.06
931.36	226.04
931.66	226.05
931.96	226.05
932.26	226.06
932.56	225.98
932.86	226.01
933.16	226.01
933.46	226.00
933.76	225.98
934.06	225.98
934.36	226.02
934.66	226.00
934.96	225.99
935.26	226.00
935.56	226.00
935.86	225.97
936.16	225.98
936.46	225.97
936.76	225.97
937.06	225.94
937.36	225.96
937.66	225.96
937.96	225.94
938.26	225.93
938.56	225.91
938.86	225.90
939.16	225.89
939.46	225.90
939.76	225.91
940.06	225.93
940.35	225.89
940.65	225.85
940.95	225.88
941.25	225.82
941.55	225.80
941.85	225.79
942.15	225.79
942.45	225.86
942.75	225.85
943.04	225.84
943.34	225.88
943.64	225.90
943.94	225.89
944.24	225.92
944.54	225.93
944.84	225.93
945.13	225.91
945.43	225.93
945.73	225.91
946.03	225.91
946.33	225.88
946.62	225.89
946.92	225.91
947.22	225.88
947.52	225.93
947.82	225.92
948.11	225.89
948.41	225.88
948.71	225.82
949.01	225.82
949.31	225.84
949.60	225.83
949.90	225.84
950.20	225.85
950.50	225.86
950.79	225.88
951.09	225.89
951.39	225.90
951.69	225.84
951.98	225.85
952.28	225.86
952.58	225.87
952.87	225.84
953.17	225.83
953.47	225.86
953.76	225.85
954.06	225.85
954.36	225.87
954.66	225.87
954.95	225.87
955.25	225.90
955.55	225.90
955.84	225.89
956.14	225.90
956.44	225.88
956.73	225.83
957.03	225.82
957.32	225.84
957.62	225.84
957.92	225.91
958.21	225.89
958.51	226.02
958.81	226.01
959.10	226.03
959.40	226.07
959.69	226.05
959.99	226.09
960.29	226.12
960.58	226.09
960.88	226.12
961.17	226.12
961.47	226.11
961.76	226.11
962.06	226.13
962.36	226.09
962.65	226.11
962.95	226.13
963.24	226.13
963.54	226.14
963.83	226.17
964.13	226.16
964.42	226.14
964.72	226.04
965.01	226.07
965.31	226.07
965.60	226.05
965.90	226.11
966.19	226.06
966.49	226.07
966.78	226.08
967.08	226.08
967.37	226.11
967.67	226.11
967.96	226.11
968.26	226.10
968.55	226.12
968.85	226.13
969.14	226.15
969.43	226.16
969.73	226.10
970.02	226.09
970.32	226.07
970.61	226.11
970.91	226.08
971.20	226.06
971.49	226.05
971.79	226.04
972.08	226.02
972.38	226.04
972.67	226.04
972.96	226.08
973.26	226.06
973.55	226.10
973.85	226.10
974.14	226.12
974.43	226.09
974.73	226.05
975.02	226.03
975.31	226.02
975.61	226.02
975.90	226.02
976.19	225.97
976.49	225.97
976.78	225.97
977.07	225.99
977.37	225.99
977.66	225.98
977.95	225.99
978.24	225.96
978.54	225.96
978.83	225.97
979.12	225.96
979.42	225.98
979.71	225.91
980.00	225.90
980.29	225.89
980.59	225.89
980.88	225.91
981.17	225.93
981.46	225.91
981.76	225.90
982.05	225.95
982.34	226.00
982.63	226.04
982.93	226.00
983.22	226.01
983.51	226.03
983.80	226.04
984.09	226.05
984.39	226.05
984.68	226.06
984.97	226.06
985.26	226.05
985.55	226.08
985.85	226.09
986.14	226.11
986.43	226.13
986.72	226.12
987.01	226.10
987.30	226.09
987.59	226.12
987.89	226.11
988.18	226.08
988.47	226.05
988.76	226.02
989.05	226.02
989.34	225.99
989.63	226.00
989.92	225.97
990.22	225.95
990.51	225.94
990.80	225.92
991.09	225.87
991.38	225.84
991.67	225.81
991.96	225.78
992.25	225.76
992.54	225.71
992.83	225.71
993.12	225.71
993.41	225.71
993.70	225.69
993.99	225.71
994.28	225.72
994.58	225.74
994.87	225.71
995.16	225.71
995.45	225.68
995.74	225.64
996.03	225.67
996.32	225.67
996.61	225.67
996.90	225.68
997.19	225.72
997.48	225.76
997.77	225.69
998.06	225.69
998.34	225.66
998.63	225.69
998.92	225.68
999.21	225.68
999.50	225.68
999.79	225.69
1000.08	225.70
1000.37	225.69
1000.66	225.67
1000.95	225.71
1001.24	225.70
1001.53	225.76
1001.82	225.74
1002.11	225.69
1002.40	225.71
1002.68	225.75
1002.97	225.77
1003.26	225.73
1003.55	225.70
1003.84	225.75
1004.13	225.77
1004.42	225.80
1004.71	225.78
1004.99	225.79
1005.28	225.82
1005.57	225.81
1005.86	225.79
1006.15	225.77
1006.44	225.75
1006.72	225.77
1007.01	225.77
1007.30	225.77
1007.59	225.75
1007.88	225.77
1008.17	225.81
1008.45	225.79
1008.74	225.76
1009.03	225.77
1009.32	225.80
1009.60	225.85
1009.89	225.82
1010.18	225.81
1010.47	225.80
1010.76	225.80
1011.04	225.82
1011.33	225.82
1011.62	225.85
1011.91	225.88
1012.19	225.91
1012.48	225.92
1012.77	225.91
1013.05	225.93
1013.34	225.92
1013.63	225.90
1013.92	225.91
1014.20	225.90
1014.49	225.89
1014.78	225.90
1015.06	225.84
1015.35	225.83
1015.64	225.80
1015.92	225.85
1016.21	225.85
1016.50	225.83
1016.78	225.87
1017.07	225.86
1017.36	225.87
1017.64	225.83
1017.93	225.82
1018.22	225.81
1018.50	225.79
1018.79	225.80
1019.08	225.77
1019.36	225.80
1019.65	225.78
1019.93	225.80
1020.22	225.83
1020.51	225.90
1020.79	225.87
1021.08	225.98
1021.36	225.35
1021.65	225.72
1021.94	225.91
1022.22	225.98
1022.51	225.39
1022.79	226.16
1023.08	226.14
1023.36	226.94
1023.65	225.49
>>>>>End Processed Spectral Data<<<<<
