SpectraSuite Data File
++++++++++++++++++++++++++++++++++++
Date: Fri Feb 01 16:29:25 EST 2013
User: group
Dark Spectrum Present: No
Reference Spectrum Present: No
Number of Sampled Component Spectra: 1
Spectrometers: USB2E7196
Integration Time (usec): 35000 (USB2E7196)
Spectra Averaged: 100 (USB2E7196)
Boxcar Smoothing: 10 (USB2E7196)
Correct for Electrical Dark: No (USB2E7196)
Strobe/Lamp Enabled: No (USB2E7196)
Correct for Detector Non-linearity: No (USB2E7196)
Correct for Stray Light: No (USB2E7196)
Number of Pixels in Processed Spectrum: 2048
>>>>>Begin Processed Spectral Data<<<<<
339.09	0.00
339.48	213.87
339.86	215.71
340.24	216.47
340.63	218.36
341.01	220.96
341.39	221.24
341.78	221.90
342.16	223.25
342.54	223.87
342.93	212.35
343.31	223.06
343.69	223.59
344.07	224.08
344.46	224.52
344.84	224.89
345.22	225.12
345.60	225.35
345.99	225.54
346.37	225.67
346.75	225.76
347.13	225.80
347.52	225.83
347.90	225.93
348.28	225.93
348.66	225.95
349.05	225.97
349.43	226.00
349.81	226.04
350.19	226.10
350.57	226.15
350.96	226.23
351.34	226.32
351.72	226.41
352.10	226.46
352.48	226.55
352.87	226.62
353.25	226.72
353.63	226.77
354.01	226.83
354.39	226.90
354.77	227.02
355.15	227.15
355.54	227.20
355.92	227.23
356.30	227.32
356.68	227.49
357.06	227.58
357.44	227.64
357.82	227.71
358.20	227.77
358.58	227.83
358.97	227.90
359.35	228.00
359.73	228.09
360.11	228.15
360.49	228.21
360.87	228.26
361.25	228.30
361.63	228.39
362.01	228.48
362.39	228.53
362.77	228.55
363.15	228.58
363.53	228.63
363.91	228.66
364.29	228.68
364.67	228.59
365.05	228.59
365.43	228.64
365.81	228.68
366.19	228.74
366.57	228.78
366.95	228.80
367.33	228.77
367.71	228.77
368.09	228.76
368.47	228.74
368.85	228.72
369.23	228.74
369.61	228.69
369.99	228.70
370.37	228.71
370.75	228.72
371.13	228.63
371.51	228.60
371.89	228.58
372.27	228.57
372.65	228.55
373.03	228.49
373.41	228.43
373.78	228.37
374.16	228.27
374.54	228.21
374.92	228.12
375.30	228.04
375.68	227.98
376.06	227.96
376.44	227.89
376.82	227.82
377.19	227.74
377.57	227.66
377.95	227.55
378.33	227.47
378.71	227.36
379.09	227.33
379.47	227.26
379.84	227.18
380.22	227.06
380.60	226.96
380.98	226.89
381.36	226.81
381.73	226.73
382.11	226.68
382.49	226.59
382.87	226.53
383.25	226.49
383.62	226.50
384.00	226.43
384.38	226.36
384.76	226.32
385.13	226.29
385.51	226.23
385.89	226.14
386.27	226.09
386.64	226.05
387.02	225.99
387.40	225.93
387.78	225.87
388.15	225.85
388.53	225.81
388.91	225.80
389.29	225.78
389.66	225.73
390.04	225.67
390.42	225.67
390.79	225.67
391.17	225.65
391.55	225.52
391.92	225.50
392.30	225.48
392.68	225.44
393.05	225.43
393.43	225.45
393.81	225.47
394.18	225.42
394.56	225.45
394.94	225.47
395.31	225.47
395.69	225.54
396.06	225.57
396.44	225.63
396.82	225.64
397.19	225.73
397.57	225.80
397.95	225.88
398.32	225.88
398.70	225.92
399.07	225.99
399.45	226.03
399.82	226.08
400.20	226.15
400.58	226.22
400.95	226.27
401.33	226.38
401.70	226.51
402.08	226.62
402.45	226.69
402.83	226.83
403.20	226.95
403.58	227.04
403.95	227.17
404.33	227.26
404.71	227.39
405.08	227.52
405.46	227.62
405.83	227.75
406.21	227.92
406.58	228.12
406.96	228.29
407.33	228.49
407.70	228.69
408.08	228.97
408.45	229.20
408.83	229.43
409.20	229.63
409.58	229.81
409.95	230.06
410.33	230.36
410.70	230.59
411.08	230.88
411.45	231.19
411.82	231.50
412.20	231.86
412.57	232.26
412.95	232.61
413.32	233.01
413.69	233.43
414.07	233.91
414.44	234.35
414.82	234.81
415.19	235.39
415.56	235.94
415.94	236.49
416.31	237.14
416.68	237.75
417.06	238.45
417.43	239.15
417.81	239.95
418.18	240.67
418.55	241.49
418.93	242.39
419.30	243.30
419.67	244.22
420.04	245.19
420.42	246.17
420.79	247.32
421.16	248.53
421.54	249.73
421.91	250.89
422.28	252.14
422.66	253.46
423.03	254.73
423.40	256.02
423.77	257.43
424.15	258.84
424.52	260.38
424.89	262.00
425.26	263.54
425.64	264.97
426.01	266.56
426.38	268.23
426.75	269.90
427.13	271.59
427.50	273.40
427.87	275.27
428.24	277.14
428.61	278.90
428.99	280.81
429.36	282.88
429.73	284.95
430.10	286.89
430.47	288.95
430.85	291.07
431.22	293.28
431.59	295.63
431.96	297.84
432.33	300.32
432.70	302.65
433.08	305.45
433.45	308.08
433.82	310.70
434.19	313.57
434.56	316.33
434.93	318.98
435.30	321.58
435.68	324.44
436.05	327.25
436.42	330.00
436.79	332.46
437.16	335.11
437.53	337.90
437.90	340.76
438.27	343.48
438.64	346.25
439.01	348.87
439.38	351.10
439.75	353.30
440.13	355.73
440.50	358.07
440.87	359.87
441.24	361.84
441.61	363.93
441.98	365.34
442.35	367.14
442.72	368.99
443.09	370.79
443.46	371.79
443.83	372.35
444.20	372.86
444.57	373.70
444.94	374.00
445.31	374.33
445.68	374.67
446.05	374.72
446.42	374.37
446.79	373.92
447.16	373.43
447.53	373.07
447.90	371.88
448.27	370.69
448.64	369.16
449.01	367.98
449.37	366.05
449.74	364.24
450.11	361.98
450.48	359.53
450.85	357.02
451.22	354.86
451.59	352.86
451.96	350.92
452.33	348.34
452.70	345.97
453.07	343.18
453.43	340.31
453.80	337.60
454.17	334.92
454.54	332.40
454.91	329.72
455.28	327.04
455.65	324.58
456.02	322.18
456.38	320.03
456.75	317.36
457.12	315.12
457.49	312.89
457.86	310.76
458.23	308.91
458.59	306.90
458.96	304.81
459.33	302.97
459.70	301.10
460.07	299.62
460.43	297.94
460.80	296.32
461.17	294.87
461.54	293.34
461.91	291.94
462.27	290.49
462.64	289.25
463.01	287.91
463.38	286.63
463.74	285.25
464.11	284.09
464.48	283.11
464.85	282.00
465.21	281.16
465.58	280.27
465.95	279.16
466.32	278.20
466.68	277.34
467.05	276.45
467.42	275.56
467.78	274.63
468.15	273.75
468.52	273.12
468.88	272.27
469.25	271.53
469.62	270.92
469.98	270.26
470.35	269.64
470.72	269.05
471.08	268.43
471.45	267.91
471.82	267.40
472.18	266.78
472.55	266.34
472.92	265.81
473.28	265.35
473.65	264.93
474.02	264.49
474.38	264.15
474.75	263.82
475.11	263.51
475.48	263.25
475.85	263.05
476.21	262.80
476.58	262.66
476.94	262.56
477.31	262.40
477.67	262.28
478.04	262.21
478.41	262.17
478.77	262.21
479.14	262.16
479.50	262.14
479.87	262.24
480.23	262.35
480.60	262.42
480.96	262.51
481.33	262.74
481.69	262.95
482.06	263.17
482.42	263.39
482.79	263.67
483.15	264.00
483.52	264.33
483.88	264.70
484.25	265.08
484.61	265.47
484.98	265.93
485.34	266.48
485.71	267.06
486.07	267.65
486.44	268.26
486.80	268.99
487.17	269.74
487.53	270.57
487.90	271.41
488.26	272.34
488.62	273.35
488.99	274.33
489.35	275.40
489.72	276.50
490.08	277.73
490.44	278.96
490.81	280.29
491.17	281.68
491.54	283.16
491.90	284.68
492.26	286.35
492.63	288.04
492.99	289.81
493.36	291.66
493.72	293.75
494.08	295.84
494.45	298.04
494.81	300.38
495.17	302.80
495.54	305.41
495.90	308.13
496.26	310.95
496.63	313.89
496.99	317.02
497.35	320.27
497.72	323.66
498.08	327.17
498.44	330.86
498.80	334.74
499.17	338.76
499.53	342.98
499.89	347.32
500.26	351.90
500.62	356.59
500.98	361.59
501.34	366.66
501.71	371.96
502.07	377.45
502.43	383.09
502.79	388.88
503.16	394.93
503.52	401.21
503.88	407.59
504.24	414.22
504.60	421.13
504.97	428.24
505.33	435.59
505.69	443.29
506.05	451.06
506.41	458.96
506.78	467.16
507.14	475.61
507.50	484.30
507.86	493.31
508.22	502.49
508.59	511.70
508.95	521.30
509.31	531.15
509.67	541.27
510.03	551.60
510.39	562.18
510.75	572.97
511.12	583.91
511.48	595.20
511.84	606.70
512.20	618.16
512.56	630.08
512.92	642.28
513.28	654.68
513.64	667.14
514.00	679.87
514.37	692.79
514.73	705.80
515.09	718.85
515.45	732.09
515.81	745.70
516.17	759.61
516.53	773.73
516.89	787.91
517.25	802.01
517.61	816.35
517.97	830.77
518.33	845.16
518.69	859.86
519.05	874.81
519.41	889.84
519.77	905.28
520.13	920.66
520.49	935.93
520.85	951.29
521.21	967.02
521.57	983.20
521.93	998.89
522.29	1015.24
522.65	1031.31
523.01	1047.50
523.37	1063.47
523.73	1079.62
524.09	1095.58
524.45	1111.80
524.81	1128.42
525.17	1145.19
525.53	1162.03
525.89	1178.89
526.25	1195.65
526.61	1211.96
526.97	1228.62
527.33	1245.01
527.68	1261.69
528.04	1278.05
528.40	1294.51
528.76	1311.41
529.12	1327.89
529.48	1344.67
529.84	1360.57
530.20	1377.20
530.56	1394.03
530.91	1411.40
531.27	1428.21
531.63	1444.63
531.99	1461.01
532.35	1476.83
532.71	1492.67
533.07	1508.87
533.42	1524.56
533.78	1540.48
534.14	1556.75
534.50	1572.06
534.86	1587.84
535.21	1602.76
535.57	1618.68
535.93	1634.08
536.29	1648.77
536.65	1663.67
537.00	1678.26
537.36	1693.54
537.72	1708.01
538.08	1722.36
538.44	1736.02
538.79	1749.67
539.15	1763.21
539.51	1776.85
539.87	1791.02
540.22	1804.60
540.58	1818.19
540.94	1831.53
541.29	1844.41
541.65	1856.89
542.01	1870.05
542.37	1882.41
542.72	1894.87
543.08	1906.54
543.44	1918.91
543.79	1930.09
544.15	1940.97
544.51	1952.59
544.87	1963.34
545.22	1973.96
545.58	1984.14
545.94	1993.75
546.29	2003.60
546.65	2013.46
547.01	2022.71
547.36	2031.35
547.72	2039.83
548.07	2047.66
548.43	2055.71
548.79	2063.78
549.14	2071.26
549.50	2078.46
549.86	2085.97
550.21	2093.13
550.57	2100.25
550.92	2106.65
551.28	2113.69
551.64	2120.81
551.99	2127.24
552.35	2133.46
552.70	2139.68
553.06	2145.51
553.41	2151.89
553.77	2157.74
554.13	2163.67
554.48	2169.89
554.84	2175.48
555.19	2180.71
555.55	2185.86
555.90	2190.31
556.26	2195.08
556.61	2199.83
556.97	2204.14
557.32	2208.32
557.68	2212.38
558.03	2216.60
558.39	2220.25
558.74	2224.93
559.10	2228.69
559.45	2232.43
559.81	2236.78
560.16	2240.65
560.52	2243.99
560.87	2247.38
561.23	2250.07
561.58	2253.05
561.94	2255.42
562.29	2257.74
562.64	2260.47
563.00	2263.01
563.35	2266.65
563.71	2269.67
564.06	2272.92
564.42	2275.77
564.77	2278.27
565.12	2280.65
565.48	2282.64
565.83	2284.62
566.19	2285.90
566.54	2286.85
566.89	2287.98
567.25	2288.57
567.60	2289.81
567.96	2291.67
568.31	2292.51
568.66	2293.76
569.02	2294.36
569.37	2294.82
569.72	2295.82
570.08	2296.03
570.43	2296.26
570.78	2295.66
571.14	2294.18
571.49	2292.78
571.84	2292.63
572.20	2291.59
572.55	2290.65
572.90	2289.22
573.26	2287.89
573.61	2286.24
573.96	2284.70
574.31	2281.85
574.67	2279.02
575.02	2275.58
575.37	2272.29
575.72	2268.61
576.08	2265.27
576.43	2262.13
576.78	2258.44
577.13	2255.23
577.49	2252.06
577.84	2248.51
578.19	2244.86
578.54	2241.40
578.90	2237.31
579.25	2231.76
579.60	2226.74
579.95	2221.81
580.30	2216.78
580.66	2211.78
581.01	2206.72
581.36	2201.74
581.71	2197.55
582.06	2192.96
582.42	2188.48
582.77	2183.17
583.12	2178.71
583.47	2174.08
583.82	2168.93
584.17	2163.89
584.53	2158.49
584.88	2152.99
585.23	2147.43
585.58	2142.05
585.93	2136.68
586.28	2131.96
586.63	2126.88
586.98	2122.10
587.34	2117.38
587.69	2112.60
588.04	2107.33
588.39	2102.02
588.74	2095.60
589.09	2089.59
589.44	2082.90
589.79	2076.92
590.14	2071.40
590.49	2064.96
590.84	2058.68
591.19	2052.73
591.54	2046.28
591.89	2039.07
592.25	2032.30
592.60	2024.98
592.95	2017.43
593.30	2010.06
593.65	2002.73
594.00	1995.83
594.35	1988.49
594.70	1980.55
595.05	1973.31
595.40	1966.14
595.75	1958.50
596.10	1952.49
596.45	1945.72
596.80	1939.67
597.15	1933.18
597.50	1926.04
597.85	1919.59
598.19	1912.92
598.54	1905.97
598.89	1899.38
599.24	1893.52
599.59	1886.88
599.94	1880.78
600.29	1874.43
600.64	1867.87
600.99	1860.24
601.34	1853.42
601.69	1846.67
602.04	1839.99
602.39	1832.75
602.74	1825.88
603.08	1819.23
603.43	1812.54
603.78	1805.20
604.13	1797.99
604.48	1790.72
604.83	1783.93
605.18	1776.95
605.53	1769.08
605.87	1761.12
606.22	1753.89
606.57	1745.94
606.92	1738.63
607.27	1731.47
607.62	1724.62
607.96	1717.41
608.31	1710.84
608.66	1703.34
609.01	1695.68
609.36	1687.98
609.70	1680.05
610.05	1672.10
610.40	1664.49
610.75	1656.11
611.10	1648.60
611.44	1640.22
611.79	1632.31
612.14	1623.64
612.49	1614.47
612.83	1606.02
613.18	1597.92
613.53	1589.85
613.88	1581.24
614.22	1572.96
614.57	1564.39
614.92	1556.40
615.27	1548.83
615.61	1540.40
615.96	1532.29
616.31	1524.67
616.65	1517.32
617.00	1509.58
617.35	1501.83
617.70	1493.40
618.04	1484.90
618.39	1476.57
618.74	1468.98
619.08	1460.59
619.43	1452.93
619.78	1446.10
620.12	1438.89
620.47	1431.36
620.82	1422.99
621.16	1415.60
621.51	1408.02
621.85	1400.39
622.20	1391.74
622.55	1383.34
622.89	1375.56
623.24	1367.94
623.59	1360.49
623.93	1352.93
624.28	1345.86
624.62	1338.25
624.97	1331.10
625.32	1324.33
625.66	1317.35
626.01	1310.18
626.35	1302.71
626.70	1295.09
627.04	1287.30
627.39	1279.55
627.73	1272.13
628.08	1265.34
628.43	1258.02
628.77	1250.65
629.12	1243.11
629.46	1236.04
629.81	1228.69
630.15	1221.49
630.50	1214.11
630.84	1205.92
631.19	1198.08
631.53	1190.51
631.88	1183.07
632.22	1175.47
632.57	1168.05
632.91	1160.47
633.26	1152.94
633.60	1145.62
633.95	1138.48
634.29	1131.39
634.64	1124.68
634.98	1117.29
635.32	1110.09
635.67	1103.54
636.01	1096.92
636.36	1090.06
636.70	1083.46
637.05	1076.83
637.39	1070.37
637.73	1063.88
638.08	1058.02
638.42	1051.93
638.77	1045.41
639.11	1038.75
639.45	1032.32
639.80	1025.81
640.14	1019.42
640.49	1012.89
640.83	1006.48
641.17	1000.16
641.52	993.87
641.86	987.36
642.20	981.55
642.55	975.28
642.89	968.75
643.23	962.17
643.58	956.32
643.92	950.20
644.26	944.16
644.61	938.17
644.95	932.09
645.29	925.53
645.64	918.84
645.98	912.66
646.32	906.86
646.66	900.80
647.01	894.93
647.35	889.18
647.69	883.36
648.04	877.94
648.38	872.16
648.72	866.16
649.06	860.21
649.41	854.31
649.75	848.39
650.09	842.49
650.43	836.70
650.78	830.62
651.12	824.60
651.46	818.91
651.80	813.15
652.14	807.75
652.49	802.35
652.83	797.19
653.17	791.44
653.51	785.78
653.85	780.44
654.20	774.77
654.54	768.81
654.88	763.05
655.22	757.13
655.56	751.46
655.90	745.98
656.25	740.76
656.59	735.33
656.93	730.24
657.27	725.11
657.61	719.64
657.95	714.53
658.29	709.45
658.64	704.17
658.98	698.86
659.32	693.38
659.66	688.19
660.00	682.76
660.34	677.81
660.68	672.85
661.02	667.79
661.36	663.10
661.70	658.62
662.05	654.24
662.39	649.92
662.73	645.47
663.07	641.08
663.41	636.60
663.75	632.17
664.09	627.54
664.43	623.05
664.77	618.94
665.11	614.66
665.45	610.58
665.79	606.44
666.13	602.31
666.47	598.20
666.81	593.97
667.15	589.91
667.49	585.93
667.83	582.14
668.17	578.24
668.51	574.14
668.85	570.06
669.19	566.28
669.53	562.43
669.87	558.51
670.21	554.80
670.55	551.11
670.89	547.67
671.23	544.21
671.57	540.74
671.91	537.19
672.25	533.72
672.58	530.13
672.92	526.72
673.26	523.52
673.60	520.36
673.94	517.26
674.28	514.36
674.62	511.48
674.96	508.31
675.30	505.39
675.64	502.51
675.97	499.73
676.31	496.81
676.65	493.88
676.99	491.20
677.33	488.35
677.67	485.54
678.01	482.43
678.34	479.48
678.68	476.57
679.02	473.79
679.36	471.01
679.70	468.35
680.04	465.61
680.37	462.69
680.71	459.85
681.05	457.24
681.39	454.52
681.73	451.79
682.06	449.27
682.40	446.68
682.74	444.10
683.08	441.52
683.42	438.89
683.75	436.36
684.09	433.76
684.43	431.26
684.77	428.82
685.10	426.49
685.44	424.19
685.78	421.96
686.12	419.69
686.45	417.42
686.79	415.11
687.13	412.93
687.46	410.81
687.80	408.70
688.14	406.46
688.48	404.35
688.81	402.14
689.15	400.01
689.49	397.89
689.82	395.86
690.16	393.78
690.50	391.90
690.83	389.95
691.17	388.02
691.51	386.12
691.84	384.27
692.18	382.36
692.52	380.37
692.85	378.38
693.19	376.53
693.52	374.65
693.86	372.80
694.20	370.98
694.53	369.20
694.87	367.37
695.21	365.63
695.54	363.88
695.88	362.16
696.21	360.40
696.55	358.69
696.88	357.00
697.22	355.35
697.56	353.72
697.89	352.08
698.23	350.43
698.56	348.87
698.90	347.28
699.23	345.61
699.57	344.06
699.90	342.49
700.24	340.91
700.58	339.41
700.91	337.96
701.25	336.54
701.58	335.13
701.92	333.77
702.25	332.38
702.59	330.96
702.92	329.60
703.26	328.28
703.59	327.00
703.93	325.78
704.26	324.53
704.60	323.21
704.93	321.95
705.26	320.69
705.60	319.49
705.93	318.33
706.27	317.34
706.60	316.30
706.94	315.25
707.27	314.11
707.61	313.05
707.94	311.99
708.27	310.93
708.61	309.89
708.94	308.88
709.28	307.89
709.61	306.93
709.94	306.01
710.28	304.99
710.61	304.05
710.95	302.96
711.28	302.09
711.61	301.18
711.95	300.25
712.28	299.31
712.61	298.32
712.95	297.36
713.28	296.49
713.61	295.58
713.95	294.72
714.28	293.89
714.61	293.05
714.95	292.15
715.28	291.28
715.61	290.36
715.95	289.53
716.28	288.67
716.61	287.89
716.95	287.07
717.28	286.36
717.61	285.53
717.94	284.82
718.28	283.97
718.61	283.25
718.94	282.57
719.27	281.90
719.61	281.26
719.94	280.62
720.27	279.88
720.60	279.21
720.94	278.53
721.27	277.92
721.60	277.33
721.93	276.73
722.27	276.15
722.60	275.65
722.93	275.03
723.26	274.49
723.59	273.88
723.93	273.30
724.26	272.73
724.59	272.22
724.92	271.72
725.25	271.28
725.59	270.72
725.92	270.21
726.25	269.70
726.58	269.23
726.91	268.74
727.24	268.28
727.57	267.84
727.91	267.35
728.24	266.89
728.57	266.38
728.90	265.97
729.23	265.50
729.56	265.03
729.89	264.58
730.22	264.08
730.55	263.65
730.89	263.22
731.22	262.78
731.55	262.34
731.88	261.91
732.21	261.45
732.54	261.01
732.87	260.57
733.20	260.16
733.53	259.79
733.86	259.41
734.19	259.00
734.52	258.60
734.85	258.31
735.18	257.88
735.51	257.53
735.84	257.15
736.17	256.76
736.50	256.36
736.83	256.12
737.16	255.82
737.49	255.48
737.82	255.12
738.15	254.81
738.48	254.45
738.81	254.11
739.14	253.75
739.47	253.47
739.80	253.18
740.13	252.90
740.46	252.55
740.79	252.21
741.12	251.90
741.45	251.61
741.78	251.23
742.11	250.96
742.44	250.65
742.77	250.41
743.10	250.14
743.43	249.84
743.75	249.47
744.08	249.30
744.41	249.02
744.74	248.78
745.07	248.50
745.40	248.25
745.73	248.01
746.06	247.77
746.39	247.51
746.71	247.25
747.04	246.94
747.37	246.68
747.70	246.43
748.03	246.21
748.36	245.95
748.68	245.72
749.01	245.46
749.34	245.22
749.67	244.98
750.00	244.76
750.33	244.64
750.65	244.45
750.98	244.12
751.31	243.95
751.64	243.74
751.97	243.57
752.29	243.37
752.62	243.13
752.95	242.90
753.28	242.69
753.60	242.50
753.93	242.34
754.26	242.16
754.59	241.91
754.91	241.65
755.24	241.48
755.57	241.29
755.90	241.14
756.22	240.93
756.55	240.71
756.88	240.50
757.20	240.23
757.53	240.01
757.86	239.82
758.19	239.62
758.51	239.44
758.84	239.22
759.17	239.03
759.49	238.89
759.82	238.80
760.15	238.61
760.47	238.44
760.80	238.25
761.13	238.13
761.45	238.02
761.78	237.93
762.11	237.79
762.43	237.65
762.76	237.52
763.08	237.42
763.41	237.30
763.74	237.20
764.06	237.06
764.39	236.94
764.71	236.80
765.04	236.64
765.37	236.54
765.69	236.42
766.02	236.32
766.34	236.21
766.67	236.05
767.00	235.98
767.32	235.89
767.65	235.86
767.97	235.72
768.30	235.56
768.62	235.44
768.95	235.29
769.27	235.20
769.60	235.09
769.92	234.97
770.25	234.84
770.57	234.69
770.90	234.60
771.22	234.51
771.55	234.42
771.87	234.33
772.20	234.17
772.52	234.14
772.85	234.13
773.17	234.04
773.50	233.94
773.82	233.83
774.15	233.69
774.47	233.56
774.80	233.45
775.12	233.38
775.45	233.29
775.77	233.22
776.09	233.11
776.42	233.02
776.74	232.97
777.07	232.90
777.39	232.85
777.72	232.77
778.04	232.68
778.36	232.61
778.69	232.56
779.01	232.51
779.33	232.38
779.66	232.20
779.98	232.11
780.31	232.04
780.63	232.01
780.95	231.98
781.28	231.91
781.60	231.85
781.92	231.79
782.25	231.74
782.57	231.68
782.89	231.65
783.22	231.59
783.54	231.49
783.86	231.43
784.19	231.33
784.51	231.32
784.83	231.26
785.16	231.19
785.48	231.14
785.80	231.09
786.12	231.03
786.45	231.00
786.77	230.96
787.09	230.94
787.42	230.86
787.74	230.80
788.06	230.77
788.38	230.73
788.71	230.71
789.03	230.66
789.35	230.63
789.67	230.58
789.99	230.55
790.32	230.50
790.64	230.49
790.96	230.58
791.28	230.49
791.61	230.43
791.93	230.38
792.25	230.36
792.57	230.40
792.89	230.37
793.21	230.33
793.54	230.29
793.86	230.22
794.18	230.18
794.50	230.14
794.82	230.10
795.14	230.07
795.47	230.03
795.79	230.00
796.11	229.94
796.43	229.90
796.75	229.88
797.07	229.88
797.39	229.83
797.71	229.69
798.04	229.71
798.36	229.69
798.68	229.66
799.00	229.60
799.32	229.52
799.64	229.49
799.96	229.48
800.28	229.45
800.60	229.40
800.92	229.40
801.24	229.37
801.56	229.33
801.89	229.30
802.21	229.26
802.53	229.20
802.85	229.17
803.17	229.18
803.49	229.08
803.81	229.04
804.13	229.02
804.45	229.01
804.77	228.95
805.09	228.94
805.41	228.93
805.73	228.87
806.05	228.82
806.37	228.80
806.69	228.75
807.01	228.75
807.33	228.76
807.65	228.71
807.97	228.69
808.28	228.66
808.60	228.63
808.92	228.59
809.24	228.61
809.56	228.58
809.88	228.54
810.20	228.53
810.52	228.49
810.84	228.44
811.16	228.39
811.48	228.37
811.80	228.35
812.12	228.30
812.43	228.31
812.75	228.25
813.07	228.20
813.39	228.18
813.71	228.08
814.03	228.06
814.35	228.02
814.67	227.97
814.98	227.95
815.30	227.90
815.62	227.87
815.94	227.79
816.26	227.80
816.58	227.75
816.89	227.74
817.21	227.69
817.53	227.66
817.85	227.66
818.17	227.63
818.48	227.60
818.80	227.59
819.12	227.59
819.44	227.59
819.76	227.57
820.07	227.55
820.39	227.57
820.71	227.55
821.03	227.53
821.34	227.53
821.66	227.50
821.98	227.53
822.30	227.51
822.61	227.52
822.93	227.48
823.25	227.46
823.57	227.43
823.88	227.44
824.20	227.43
824.52	227.41
824.83	227.41
825.15	227.38
825.47	227.37
825.79	227.36
826.10	227.32
826.42	227.30
826.74	227.29
827.05	227.26
827.37	227.23
827.69	227.21
828.00	227.18
828.32	227.18
828.64	227.16
828.95	227.20
829.27	227.21
829.58	227.23
829.90	227.25
830.22	227.28
830.53	227.26
830.85	227.25
831.17	227.26
831.48	227.23
831.80	227.24
832.11	227.21
832.43	227.18
832.75	227.19
833.06	227.23
833.38	227.18
833.69	227.20
834.01	227.19
834.32	227.18
834.64	227.16
834.96	227.14
835.27	227.13
835.59	227.11
835.90	227.04
836.22	227.03
836.53	226.99
836.85	226.92
837.16	227.01
837.48	227.01
837.79	227.01
838.11	227.01
838.42	226.99
838.74	227.01
839.05	226.97
839.37	226.96
839.68	226.91
840.00	226.90
840.31	226.90
840.63	226.88
840.94	226.86
841.26	226.87
841.57	226.89
841.88	226.90
842.20	226.87
842.51	226.88
842.83	226.86
843.14	226.91
843.46	226.94
843.77	226.90
844.08	226.87
844.40	226.84
844.71	226.83
845.03	226.81
845.34	226.81
845.65	226.83
845.97	226.82
846.28	226.86
846.60	226.87
846.91	226.85
847.22	226.87
847.54	226.91
847.85	226.90
848.16	226.85
848.48	226.82
848.79	226.82
849.10	226.82
849.42	226.84
849.73	226.78
850.04	226.77
850.36	226.72
850.67	226.75
850.98	226.74
851.30	226.77
851.61	226.78
851.92	226.79
852.23	226.82
852.55	226.83
852.86	226.79
853.17	226.79
853.49	226.79
853.80	226.80
854.11	226.79
854.42	226.80
854.74	226.84
855.05	226.84
855.36	226.85
855.67	226.86
855.99	226.84
856.30	226.95
856.61	226.94
856.92	226.95
857.23	226.94
857.55	226.93
857.86	226.88
858.17	226.86
858.48	226.80
858.79	226.75
859.11	226.75
859.42	226.72
859.73	226.72
860.04	226.70
860.35	226.68
860.66	226.66
860.98	226.65
861.29	226.63
861.60	226.59
861.91	226.59
862.22	226.56
862.53	226.55
862.84	226.40
863.16	226.41
863.47	226.36
863.78	226.32
864.09	226.28
864.40	226.27
864.71	226.27
865.02	226.30
865.33	226.30
865.64	226.30
865.95	226.33
866.27	226.35
866.58	226.37
866.89	226.36
867.20	226.36
867.51	226.34
867.82	226.34
868.13	226.38
868.44	226.32
868.75	226.32
869.06	226.32
869.37	226.30
869.68	226.27
869.99	226.31
870.30	226.34
870.61	226.35
870.92	226.36
871.23	226.36
871.54	226.35
871.85	226.39
872.16	226.40
872.47	226.39
872.78	226.34
873.09	226.33
873.40	226.32
873.71	226.29
874.02	226.29
874.33	226.29
874.64	226.28
874.95	226.32
875.26	226.32
875.56	226.31
875.87	226.33
876.18	226.33
876.49	226.40
876.80	226.40
877.11	226.39
877.42	226.42
877.73	226.43
878.04	226.39
878.35	226.37
878.66	226.36
878.96	226.34
879.27	226.37
879.58	226.38
879.89	226.36
880.20	226.41
880.51	226.42
880.82	226.43
881.12	226.41
881.43	226.37
881.74	226.36
882.05	226.34
882.36	226.38
882.67	226.39
882.97	226.26
883.28	226.26
883.59	226.27
883.90	226.25
884.21	226.25
884.51	226.25
884.82	226.22
885.13	226.21
885.44	226.23
885.74	226.20
886.05	226.16
886.36	226.18
886.67	226.14
886.98	226.16
887.28	226.14
887.59	226.15
887.90	226.14
888.20	226.16
888.51	226.18
888.82	226.13
889.13	226.16
889.43	226.24
889.74	226.25
890.05	226.23
890.35	226.23
890.66	226.23
890.97	226.21
891.28	226.20
891.58	226.19
891.89	226.20
892.20	226.19
892.50	226.18
892.81	226.16
893.12	226.15
893.42	226.12
893.73	226.12
894.04	226.12
894.34	226.11
894.65	226.07
894.95	226.08
895.26	226.09
895.57	226.11
895.87	226.02
896.18	226.03
896.48	226.06
896.79	226.05
897.10	226.08
897.40	226.12
897.71	226.15
898.01	226.15
898.32	226.14
898.63	226.14
898.93	226.19
899.24	226.16
899.54	226.15
899.85	226.15
900.15	226.13
900.46	226.13
900.76	226.16
901.07	226.17
901.38	226.17
901.68	226.17
901.99	226.10
902.29	226.11
902.60	226.06
902.90	226.03
903.21	226.03
903.51	225.99
903.82	225.99
904.12	226.01
904.43	226.00
904.73	226.01
905.03	226.04
905.34	226.10
905.64	226.10
905.95	226.08
906.25	226.10
906.56	226.12
906.86	226.13
907.17	226.10
907.47	226.11
907.77	226.09
908.08	226.08
908.38	226.11
908.69	226.13
908.99	226.18
909.30	226.20
909.60	226.21
909.90	226.21
910.21	226.18
910.51	226.12
910.81	226.14
911.12	226.13
911.42	226.10
911.73	225.99
912.03	226.01
912.33	226.04
912.64	226.02
912.94	226.01
913.24	226.00
913.55	226.02
913.85	226.04
914.15	226.03
914.46	226.05
914.76	226.05
915.06	226.04
915.37	226.00
915.67	226.00
915.97	225.98
916.27	225.99
916.58	226.03
916.88	226.07
917.18	226.06
917.49	226.14
917.79	226.14
918.09	226.18
918.39	226.21
918.70	226.21
919.00	226.21
919.30	226.25
919.60	226.25
919.91	226.26
920.21	226.24
920.51	226.19
920.81	226.19
921.12	226.19
921.42	226.16
921.72	226.16
922.02	226.15
922.32	226.17
922.63	226.19
922.93	226.21
923.23	226.17
923.53	226.17
923.83	226.09
924.13	226.09
924.44	226.08
924.74	226.11
925.04	226.15
925.34	226.15
925.64	226.09
925.94	226.07
926.24	226.07
926.55	226.08
926.85	226.15
927.15	226.13
927.45	226.13
927.75	226.17
928.05	226.20
928.35	226.20
928.65	226.22
928.95	226.16
929.26	226.10
929.56	226.16
929.86	226.14
930.16	226.13
930.46	226.13
930.76	226.12
931.06	226.09
931.36	226.07
931.66	226.09
931.96	226.12
932.26	226.14
932.56	226.13
932.86	226.13
933.16	226.12
933.46	226.09
933.76	226.10
934.06	226.11
934.36	226.15
934.66	226.15
934.96	226.13
935.26	226.17
935.56	226.19
935.86	226.15
936.16	226.16
936.46	226.17
936.76	226.16
937.06	226.17
937.36	226.15
937.66	226.12
937.96	226.10
938.26	226.06
938.56	226.05
938.86	226.03
939.16	226.03
939.46	226.04
939.76	226.06
940.06	226.01
940.35	225.99
940.65	225.92
940.95	225.94
941.25	225.92
941.55	225.89
941.85	225.87
942.15	225.92
942.45	225.94
942.75	225.92
943.04	225.91
943.34	225.92
943.64	225.90
943.94	225.89
944.24	225.88
944.54	225.89
944.84	225.88
945.13	225.87
945.43	225.84
945.73	225.82
946.03	225.81
946.33	225.82
946.62	225.80
946.92	225.80
947.22	225.83
947.52	225.82
947.82	225.82
948.11	225.81
948.41	225.77
948.71	225.73
949.01	225.76
949.31	225.77
949.60	225.76
949.90	225.78
950.20	225.79
950.50	225.80
950.79	225.79
951.09	225.80
951.39	225.84
951.69	225.85
951.98	225.89
952.28	225.90
952.58	225.91
952.87	225.93
953.17	225.93
953.47	225.87
953.76	225.90
954.06	225.90
954.36	225.88
954.66	225.87
954.95	225.89
955.25	225.89
955.55	225.90
955.84	225.92
956.14	225.94
956.44	225.94
956.73	225.95
957.03	225.97
957.32	225.96
957.62	225.95
957.92	225.98
958.21	225.96
958.51	226.06
958.81	226.08
959.10	226.10
959.40	226.14
959.69	226.19
959.99	226.17
960.29	226.18
960.58	226.20
960.88	226.26
961.17	226.26
961.47	226.27
961.76	226.24
962.06	226.24
962.36	226.23
962.65	226.23
962.95	226.23
963.24	226.23
963.54	226.25
963.83	226.24
964.13	226.22
964.42	226.22
964.72	226.14
965.01	226.12
965.31	226.10
965.60	226.07
965.90	226.11
966.19	226.13
966.49	226.14
966.78	226.15
967.08	226.13
967.37	226.13
967.67	226.09
967.96	226.16
968.26	226.14
968.55	226.16
968.85	226.18
969.14	226.16
969.43	226.17
969.73	226.17
970.02	226.17
970.32	226.18
970.61	226.16
970.91	226.14
971.20	226.14
971.49	226.11
971.79	226.11
972.08	226.03
972.38	226.02
972.67	226.02
972.96	226.00
973.26	225.98
973.55	225.99
973.85	226.01
974.14	225.95
974.43	225.94
974.73	225.94
975.02	225.93
975.31	225.95
975.61	225.89
975.90	225.87
976.19	225.84
976.49	225.83
976.78	225.82
977.07	225.82
977.37	225.79
977.66	225.79
977.95	225.77
978.24	225.81
978.54	225.78
978.83	225.80
979.12	225.81
979.42	225.80
979.71	225.78
980.00	225.76
980.29	225.80
980.59	225.78
980.88	225.79
981.17	225.75
981.46	225.71
981.76	225.73
982.05	225.75
982.34	225.77
982.63	225.74
982.93	225.79
983.22	225.82
983.51	225.84
983.80	225.86
984.09	225.88
984.39	225.87
984.68	225.90
984.97	225.91
985.26	225.91
985.55	225.92
985.85	225.90
986.14	225.91
986.43	225.90
986.72	225.90
987.01	225.87
987.30	225.89
987.59	225.92
987.89	225.95
988.18	225.93
988.47	225.92
988.76	225.95
989.05	225.92
989.34	225.91
989.63	225.95
989.92	225.95
990.22	225.98
990.51	225.94
990.80	225.92
991.09	225.90
991.38	225.89
991.67	225.88
991.96	225.90
992.25	225.92
992.54	225.86
992.83	225.87
993.12	225.91
993.41	225.93
993.70	225.99
993.99	225.99
994.28	226.01
994.58	226.04
994.87	226.04
995.16	226.03
995.45	226.02
995.74	225.97
996.03	226.02
996.32	226.00
996.61	226.02
996.90	226.05
997.19	226.06
997.48	226.09
997.77	226.10
998.06	226.12
998.34	226.09
998.63	226.12
998.92	226.14
999.21	226.11
999.50	226.10
999.79	226.04
1000.08	226.02
1000.37	226.04
1000.66	226.00
1000.95	226.02
1001.24	226.02
1001.53	226.04
1001.82	226.03
1002.11	225.98
1002.40	226.01
1002.68	226.06
1002.97	226.09
1003.26	226.09
1003.55	226.05
1003.84	226.05
1004.13	226.08
1004.42	226.08
1004.71	226.09
1004.99	226.09
1005.28	226.11
1005.57	226.11
1005.86	226.15
1006.15	226.14
1006.44	226.10
1006.72	226.11
1007.01	226.08
1007.30	226.07
1007.59	226.05
1007.88	226.05
1008.17	226.05
1008.45	225.99
1008.74	225.95
1009.03	225.89
1009.32	225.88
1009.60	225.89
1009.89	225.89
1010.18	225.84
1010.47	225.84
1010.76	225.84
1011.04	225.81
1011.33	225.83
1011.62	225.81
1011.91	225.75
1012.19	225.74
1012.48	225.73
1012.77	225.73
1013.05	225.76
1013.34	225.79
1013.63	225.79
1013.92	225.80
1014.20	225.78
1014.49	225.80
1014.78	225.77
1015.06	225.76
1015.35	225.77
1015.64	225.77
1015.92	225.76
1016.21	225.76
1016.50	225.77
1016.78	225.78
1017.07	225.78
1017.36	225.75
1017.64	225.74
1017.93	225.77
1018.22	225.80
1018.50	225.81
1018.79	225.82
1019.08	225.78
1019.36	225.77
1019.65	225.77
1019.93	225.78
1020.22	225.80
1020.51	225.85
1020.79	225.85
1021.08	225.98
1021.36	225.85
1021.65	225.82
1021.94	225.46
1022.22	225.81
1022.51	225.71
1022.79	226.13
1023.08	225.92
1023.36	226.68
1023.65	225.41
>>>>>End Processed Spectral Data<<<<<
