SpectraSuite Data File
++++++++++++++++++++++++++++++++++++
Date: Fri Feb 01 17:55:28 EST 2013
User: group
Dark Spectrum Present: No
Reference Spectrum Present: No
Number of Sampled Component Spectra: 1
Spectrometers: USB2E7196
Integration Time (usec): 35000 (USB2E7196)
Spectra Averaged: 100 (USB2E7196)
Boxcar Smoothing: 10 (USB2E7196)
Correct for Electrical Dark: No (USB2E7196)
Strobe/Lamp Enabled: No (USB2E7196)
Correct for Detector Non-linearity: No (USB2E7196)
Correct for Stray Light: No (USB2E7196)
Number of Pixels in Processed Spectrum: 2048
>>>>>Begin Processed Spectral Data<<<<<
339.09	0.00
339.48	212.40
339.86	214.39
340.24	215.77
340.63	216.88
341.01	220.28
341.39	219.94
341.78	221.26
342.16	222.28
342.54	222.15
342.93	211.19
343.31	221.88
343.69	222.43
344.07	222.87
344.46	223.27
344.84	223.65
345.22	223.86
345.60	224.08
345.99	224.27
346.37	224.40
346.75	224.49
347.13	224.53
347.52	224.61
347.90	224.66
348.28	224.73
348.66	224.77
349.05	224.74
349.43	224.80
349.81	224.81
350.19	224.85
350.57	224.91
350.96	224.99
351.34	225.04
351.72	225.12
352.10	225.24
352.48	225.31
352.87	225.36
353.25	225.41
353.63	225.46
354.01	225.51
354.39	225.58
354.77	225.69
355.15	225.82
355.54	225.85
355.92	225.87
356.30	225.93
356.68	226.08
357.06	226.16
357.44	226.18
357.82	226.27
358.20	226.33
358.58	226.38
358.97	226.43
359.35	226.52
359.73	226.58
360.11	226.61
360.49	226.69
360.87	226.75
361.25	226.83
361.63	226.91
362.01	226.96
362.39	226.98
362.77	226.99
363.15	226.99
363.53	227.02
363.91	227.09
364.29	227.12
364.67	227.05
365.05	227.09
365.43	227.12
365.81	227.15
366.19	227.21
366.57	227.28
366.95	227.27
367.33	227.24
367.71	227.26
368.09	227.29
368.47	227.28
368.85	227.26
369.23	227.27
369.61	227.23
369.99	227.21
370.37	227.22
370.75	227.26
371.13	227.25
371.51	227.22
371.89	227.20
372.27	227.19
372.65	227.15
373.03	227.11
373.41	227.06
373.78	226.98
374.16	226.86
374.54	226.76
374.92	226.70
375.30	226.65
375.68	226.56
376.06	226.51
376.44	226.45
376.82	226.39
377.19	226.32
377.57	226.27
377.95	226.21
378.33	226.13
378.71	226.02
379.09	225.95
379.47	225.91
379.84	225.81
380.22	225.74
380.60	225.70
380.98	225.63
381.36	225.54
381.73	225.52
382.11	225.48
382.49	225.43
382.87	225.41
383.25	225.35
383.62	225.42
384.00	225.36
384.38	225.33
384.76	225.32
385.13	225.32
385.51	225.26
385.89	225.20
386.27	225.16
386.64	225.12
387.02	225.09
387.40	225.04
387.78	225.01
388.15	224.97
388.53	224.89
388.91	224.87
389.29	224.87
389.66	224.83
390.04	224.78
390.42	224.80
390.79	224.76
391.17	224.77
391.55	224.62
391.92	224.61
392.30	224.59
392.68	224.55
393.05	224.52
393.43	224.54
393.81	224.56
394.18	224.55
394.56	224.58
394.94	224.59
395.31	224.62
395.69	224.68
396.06	224.72
396.44	224.78
396.82	224.83
397.19	224.91
397.57	224.93
397.95	225.00
398.32	225.01
398.70	225.06
399.07	225.15
399.45	225.22
399.82	225.28
400.20	225.32
400.58	225.36
400.95	225.40
401.33	225.49
401.70	225.65
402.08	225.74
402.45	225.83
402.83	225.95
403.20	226.06
403.58	226.17
403.95	226.29
404.33	226.45
404.71	226.56
405.08	226.73
405.46	226.88
405.83	227.04
406.21	227.19
406.58	227.40
406.96	227.55
407.33	227.77
407.70	228.00
408.08	228.33
408.45	228.61
408.83	228.91
409.20	229.17
409.58	229.39
409.95	229.71
410.33	230.03
410.70	230.33
411.08	230.67
411.45	231.03
411.82	231.42
412.20	231.83
412.57	232.34
412.95	232.74
413.32	233.29
413.69	233.82
414.07	234.40
414.44	235.00
414.82	235.63
415.19	236.34
415.56	237.05
415.94	237.77
416.31	238.61
416.68	239.43
417.06	240.36
417.43	241.26
417.81	242.28
418.18	243.33
418.55	244.47
418.93	245.63
419.30	246.81
419.67	248.06
420.04	249.33
420.42	250.65
420.79	252.22
421.16	253.73
421.54	255.30
421.91	256.90
422.28	258.59
422.66	260.33
423.03	262.06
423.40	263.83
423.77	265.74
424.15	267.64
424.52	269.60
424.89	271.75
425.26	273.81
425.64	275.73
426.01	277.87
426.38	280.09
426.75	282.30
427.13	284.62
427.50	287.06
427.87	289.58
428.24	292.11
428.61	294.45
428.99	297.03
429.36	299.86
429.73	302.65
430.10	305.39
430.47	308.14
430.85	310.96
431.22	313.95
431.59	317.06
431.96	320.06
432.33	323.39
432.70	326.56
433.08	330.35
433.45	333.86
433.82	337.33
434.19	341.19
434.56	345.00
434.93	348.58
435.30	352.05
435.68	355.87
436.05	359.59
436.42	363.36
436.79	366.70
437.16	370.31
437.53	374.10
437.90	377.80
438.27	381.48
438.64	385.30
439.01	388.79
439.38	391.85
439.75	394.76
440.13	398.10
440.50	401.18
440.87	403.67
441.24	406.27
441.61	409.22
441.98	411.18
442.35	413.58
442.72	416.00
443.09	418.46
443.46	419.80
443.83	420.68
444.20	421.37
444.57	422.53
444.94	422.94
445.31	423.40
445.68	423.88
446.05	424.03
446.42	423.56
446.79	423.00
447.16	422.41
447.53	422.00
447.90	420.53
448.27	419.05
448.64	416.89
449.01	415.43
449.37	412.78
449.74	410.24
450.11	407.23
450.48	403.99
450.85	400.59
451.22	397.76
451.59	395.04
451.96	392.41
452.33	388.93
452.70	385.78
453.07	382.02
453.43	378.20
453.80	374.51
454.17	370.88
454.54	367.48
454.91	363.87
455.28	360.32
455.65	356.96
456.02	353.65
456.38	350.79
456.75	347.17
457.12	344.16
457.49	341.20
457.86	338.29
458.23	335.81
458.59	333.04
458.96	330.26
459.33	327.73
459.70	325.25
460.07	323.23
460.43	320.92
460.80	318.68
461.17	316.70
461.54	314.65
461.91	312.75
462.27	310.76
462.64	309.03
463.01	307.19
463.38	305.38
463.74	303.55
464.11	301.96
464.48	300.57
464.85	299.05
465.21	297.86
465.58	296.62
465.95	295.12
466.32	293.91
466.68	292.68
467.05	291.48
467.42	290.24
467.78	288.93
468.15	287.72
468.52	286.85
468.88	285.71
469.25	284.66
469.62	283.79
469.98	282.89
470.35	282.05
470.72	281.20
471.08	280.35
471.45	279.60
471.82	278.88
472.18	278.06
472.55	277.46
472.92	276.77
473.28	276.13
473.65	275.50
474.02	274.89
474.38	274.34
474.75	273.86
475.11	273.41
475.48	273.09
475.85	272.76
476.21	272.37
476.58	272.08
476.94	271.84
477.31	271.56
477.67	271.32
478.04	271.13
478.41	271.01
478.77	270.94
479.14	270.82
479.50	270.78
479.87	270.81
480.23	270.84
480.60	270.83
480.96	270.85
481.33	271.02
481.69	271.17
482.06	271.37
482.42	271.53
482.79	271.72
483.15	271.96
483.52	272.30
483.88	272.64
484.25	273.00
484.61	273.37
484.98	273.80
485.34	274.34
485.71	274.91
486.07	275.48
486.44	276.03
486.80	276.72
487.17	277.44
487.53	278.29
487.90	279.15
488.26	280.11
488.62	281.09
488.99	282.09
489.35	283.18
489.72	284.33
490.08	285.56
490.44	286.88
490.81	288.24
491.17	289.67
491.54	291.21
491.90	292.82
492.26	294.58
492.63	296.44
492.99	298.27
493.36	300.27
493.72	302.45
494.08	304.70
494.45	307.10
494.81	309.58
495.17	312.12
495.54	314.82
495.90	317.68
496.26	320.67
496.63	323.81
496.99	327.12
497.35	330.52
497.72	334.12
498.08	337.81
498.44	341.69
498.80	345.85
499.17	350.12
499.53	354.57
499.89	359.17
500.26	363.88
500.62	368.82
500.98	374.06
501.34	379.42
501.71	385.01
502.07	390.72
502.43	396.66
502.79	402.87
503.16	409.28
503.52	415.88
503.88	422.64
504.24	429.67
504.60	436.90
504.97	444.48
505.33	452.24
505.69	460.40
506.05	468.65
506.41	476.95
506.78	485.59
507.14	494.55
507.50	503.80
507.86	513.38
508.22	523.18
508.59	533.01
508.95	543.20
509.31	553.66
509.67	564.46
510.03	575.51
510.39	586.76
510.75	598.27
511.12	609.92
511.48	622.05
511.84	634.31
512.20	646.59
512.56	659.31
512.92	672.34
513.28	685.60
513.64	699.02
514.00	712.73
514.37	726.62
514.73	740.50
515.09	754.47
515.45	768.72
515.81	783.28
516.17	798.25
516.53	813.44
516.89	828.75
517.25	844.00
517.61	859.47
517.97	875.08
518.33	890.73
518.69	906.74
519.05	922.80
519.41	939.13
519.77	955.98
520.13	972.79
520.49	989.57
520.85	1006.25
521.21	1023.30
521.57	1040.79
521.93	1057.94
522.29	1075.88
522.65	1093.70
523.01	1111.42
523.37	1128.97
523.73	1146.61
524.09	1164.18
524.45	1181.99
524.81	1200.22
525.17	1218.51
525.53	1236.99
525.89	1255.48
526.25	1274.00
526.61	1292.22
526.97	1310.72
527.33	1328.94
527.68	1347.20
528.04	1365.22
528.40	1383.56
528.76	1402.28
529.12	1420.75
529.48	1439.48
529.84	1457.36
530.20	1475.82
530.56	1494.74
530.91	1514.07
531.27	1532.86
531.63	1551.27
531.99	1569.76
532.35	1587.63
532.71	1605.57
533.07	1623.86
533.42	1641.81
533.78	1659.82
534.14	1677.93
534.50	1695.32
534.86	1713.25
535.21	1730.54
535.57	1748.59
535.93	1766.16
536.29	1783.12
536.65	1800.32
537.00	1817.02
537.36	1834.44
537.72	1851.04
538.08	1867.52
538.44	1883.49
538.79	1899.39
539.15	1915.16
539.51	1930.96
539.87	1947.40
540.22	1963.25
540.58	1979.24
540.94	1994.57
541.29	2009.54
541.65	2024.47
542.01	2039.72
542.37	2054.24
542.72	2068.69
543.08	2082.71
543.44	2097.42
543.79	2110.79
544.15	2123.86
544.51	2137.78
544.87	2150.80
545.22	2163.78
545.58	2176.13
545.94	2187.86
546.29	2199.82
546.65	2211.84
547.01	2223.24
547.36	2234.03
547.72	2244.49
548.07	2254.18
548.43	2264.32
548.79	2274.22
549.14	2283.59
549.50	2292.85
549.86	2302.42
550.21	2311.65
550.57	2320.65
550.92	2328.95
551.28	2337.95
551.64	2346.85
551.99	2355.19
552.35	2363.19
552.70	2371.07
553.06	2379.03
553.41	2387.27
553.77	2395.08
554.13	2402.77
554.48	2410.80
554.84	2418.27
555.19	2425.02
555.55	2431.98
555.90	2438.19
556.26	2445.04
556.61	2451.50
556.97	2457.60
557.32	2463.23
557.68	2468.96
558.03	2474.73
558.39	2479.92
558.74	2486.07
559.10	2491.52
559.45	2496.66
559.81	2502.39
560.16	2507.86
560.52	2512.54
560.87	2517.34
561.23	2521.50
561.58	2525.84
561.94	2529.62
562.29	2533.03
562.64	2537.37
563.00	2541.17
563.35	2546.02
563.71	2550.30
564.06	2554.77
564.42	2558.90
564.77	2562.79
565.12	2566.47
565.48	2569.82
565.83	2572.92
566.19	2575.45
566.54	2577.27
566.89	2579.48
567.25	2581.20
567.60	2583.36
567.96	2586.08
568.31	2587.77
568.66	2589.83
569.02	2591.23
569.37	2592.37
569.72	2594.14
570.08	2594.98
570.43	2595.75
570.78	2596.02
571.14	2595.07
571.49	2594.11
571.84	2594.30
572.20	2593.72
572.55	2593.10
572.90	2591.77
573.26	2590.95
573.61	2589.54
573.96	2588.34
574.31	2585.57
574.67	2582.75
575.02	2579.42
575.37	2576.01
575.72	2572.54
576.08	2569.09
576.43	2565.84
576.78	2562.44
577.13	2559.38
577.49	2556.28
577.84	2553.02
578.19	2549.13
578.54	2545.58
578.90	2541.66
579.25	2535.90
579.60	2530.71
579.95	2525.49
580.30	2520.30
580.66	2514.90
581.01	2509.68
581.36	2504.41
581.71	2500.09
582.06	2495.50
582.42	2490.75
582.77	2485.33
583.12	2480.38
583.47	2475.49
583.82	2470.32
584.17	2464.59
584.53	2458.70
584.88	2452.61
585.23	2446.29
585.58	2440.24
585.93	2434.28
586.28	2428.89
586.63	2423.48
586.98	2418.00
587.34	2412.69
587.69	2407.30
588.04	2401.51
588.39	2395.38
588.74	2388.27
589.09	2381.40
589.44	2373.91
589.79	2366.98
590.14	2360.51
590.49	2353.02
590.84	2345.90
591.19	2339.20
591.54	2331.90
591.89	2323.82
592.25	2316.35
592.60	2308.28
592.95	2300.08
593.30	2291.92
593.65	2283.29
594.00	2275.20
594.35	2266.99
594.70	2258.01
595.05	2249.93
595.40	2241.69
595.75	2233.06
596.10	2226.11
596.45	2218.53
596.80	2211.45
597.15	2204.21
597.50	2196.40
597.85	2189.06
598.19	2181.41
598.54	2173.41
598.89	2165.91
599.24	2158.96
599.59	2151.54
599.94	2144.31
600.29	2136.98
600.64	2129.25
600.99	2120.96
601.34	2113.11
601.69	2105.01
602.04	2097.28
602.39	2088.78
602.74	2080.86
603.08	2073.04
603.43	2065.16
603.78	2056.74
604.13	2048.29
604.48	2039.83
604.83	2031.76
605.18	2023.91
605.53	2014.74
605.87	2005.31
606.22	1996.82
606.57	1987.58
606.92	1978.84
607.27	1970.61
607.62	1962.56
607.96	1954.24
608.31	1946.48
608.66	1937.68
609.01	1928.99
609.36	1920.17
609.70	1910.89
610.05	1901.41
610.40	1892.53
610.75	1882.90
611.10	1873.97
611.44	1864.21
611.79	1854.83
612.14	1844.70
612.49	1833.97
612.83	1824.16
613.18	1814.73
613.53	1805.17
613.88	1795.29
614.22	1785.55
614.57	1775.37
614.92	1765.93
615.27	1757.04
615.61	1747.32
615.96	1737.92
616.31	1728.85
616.65	1720.07
617.00	1711.26
617.35	1702.44
617.70	1692.78
618.04	1682.83
618.39	1673.22
618.74	1664.28
619.08	1654.60
619.43	1645.62
619.78	1637.43
620.12	1629.04
620.47	1620.22
620.82	1610.69
621.16	1601.79
621.51	1592.81
621.85	1583.78
622.20	1573.67
622.55	1563.82
622.89	1554.67
623.24	1545.66
623.59	1536.95
623.93	1528.23
624.28	1519.79
624.62	1510.87
624.97	1502.38
625.32	1494.38
625.66	1486.10
626.01	1477.86
626.35	1469.19
626.70	1460.19
627.04	1451.26
627.39	1442.14
627.73	1433.41
628.08	1425.45
628.43	1417.14
628.77	1408.69
629.12	1399.95
629.46	1391.67
629.81	1382.89
630.15	1374.36
630.50	1365.86
630.84	1356.39
631.19	1347.00
631.53	1338.11
631.88	1329.38
632.22	1320.60
632.57	1312.03
632.91	1303.22
633.26	1294.53
633.60	1285.84
633.95	1277.45
634.29	1269.23
634.64	1261.42
634.98	1252.92
635.32	1244.51
635.67	1236.69
636.01	1228.83
636.36	1221.03
636.70	1213.37
637.05	1205.83
637.39	1198.26
637.73	1190.65
638.08	1183.68
638.42	1176.79
638.77	1169.33
639.11	1161.58
639.45	1154.02
639.80	1146.28
640.14	1138.96
640.49	1131.36
640.83	1124.05
641.17	1116.86
641.52	1109.44
641.86	1101.90
642.20	1095.05
642.55	1087.65
642.89	1080.23
643.23	1072.60
643.58	1065.88
643.92	1058.70
644.26	1051.69
644.61	1044.66
644.95	1037.73
645.29	1030.21
645.64	1022.37
645.98	1014.96
646.32	1008.09
646.66	1001.21
647.01	994.61
647.35	987.90
647.69	981.04
648.04	974.62
648.38	967.99
648.72	961.14
649.06	954.24
649.41	947.40
649.75	940.67
650.09	933.77
650.43	927.19
650.78	920.04
651.12	913.19
651.46	906.60
651.80	900.10
652.14	893.84
652.49	887.67
652.83	881.70
653.17	875.37
653.51	868.93
653.85	862.57
654.20	855.99
654.54	849.04
654.88	842.50
655.22	835.65
655.56	829.04
655.90	822.66
656.25	816.60
656.59	810.45
656.93	804.51
657.27	798.60
657.61	792.33
657.95	786.46
658.29	780.65
658.64	774.50
658.98	768.28
659.32	762.05
659.66	756.04
660.00	750.00
660.34	744.20
660.68	738.44
661.02	732.74
661.36	727.40
661.70	722.32
662.05	717.28
662.39	712.41
662.73	707.34
663.07	702.36
663.41	697.23
663.75	692.12
664.09	686.84
664.43	681.76
664.77	677.06
665.11	672.23
665.45	667.50
665.79	662.89
666.13	658.22
666.47	653.51
666.81	648.79
667.15	643.99
667.49	639.45
667.83	635.10
668.17	630.55
668.51	625.81
668.85	621.11
669.19	616.67
669.53	612.27
669.87	607.80
670.21	603.50
670.55	599.40
670.89	595.42
671.23	591.52
671.57	587.47
671.91	583.40
672.25	579.32
672.58	575.20
672.92	571.28
673.26	567.56
673.60	563.90
673.94	560.27
674.28	556.96
674.62	553.55
674.96	550.01
675.30	546.72
675.64	543.36
675.97	540.19
676.31	536.87
676.65	533.48
676.99	530.35
677.33	527.10
677.67	523.82
678.01	520.39
678.34	516.96
678.68	513.63
679.02	510.40
679.36	507.19
679.70	504.11
680.04	500.96
680.37	497.73
680.71	494.51
681.05	491.59
681.39	488.46
681.73	485.42
682.06	482.53
682.40	479.64
682.74	476.77
683.08	473.84
683.42	470.91
683.75	468.08
684.09	465.12
684.43	462.30
684.77	459.50
685.10	456.75
685.44	454.09
685.78	451.46
686.12	448.83
686.45	446.22
686.79	443.56
687.13	441.02
687.46	438.53
687.80	436.03
688.14	433.40
688.48	431.02
688.81	428.47
689.15	425.93
689.49	423.44
689.82	421.03
690.16	418.57
690.50	416.28
690.83	413.99
691.17	411.73
691.51	409.49
691.84	407.37
692.18	405.18
692.52	402.94
692.85	400.75
693.19	398.61
693.52	396.46
693.86	394.38
694.20	392.30
694.53	390.21
694.87	388.08
695.21	385.97
695.54	383.81
695.88	381.80
696.21	379.84
696.55	377.82
696.88	375.87
697.22	373.98
697.56	372.11
697.89	370.23
698.23	368.38
698.56	366.54
698.90	364.68
699.23	362.74
699.57	360.90
699.90	359.08
700.24	357.29
700.58	355.58
700.91	353.87
701.25	352.19
701.58	350.61
701.92	349.03
702.25	347.49
702.59	345.96
702.92	344.47
703.26	342.95
703.59	341.53
703.93	340.16
704.26	338.76
704.60	337.29
704.93	335.84
705.26	334.42
705.60	333.05
705.93	331.71
706.27	330.57
706.60	329.40
706.94	328.20
707.27	326.88
707.61	325.64
707.94	324.42
708.27	323.17
708.61	321.92
708.94	320.78
709.28	319.67
709.61	318.57
709.94	317.42
710.28	316.25
710.61	315.10
710.95	313.85
711.28	312.73
711.61	311.60
711.95	310.54
712.28	309.41
712.61	308.28
712.95	307.21
713.28	306.18
713.61	305.10
713.95	304.07
714.28	303.15
714.61	302.16
714.95	301.18
715.28	300.19
715.61	299.18
715.95	298.18
716.28	297.17
716.61	296.18
716.95	295.22
717.28	294.36
717.61	293.47
717.94	292.61
718.28	291.73
718.61	290.87
718.94	290.09
719.27	289.34
719.61	288.56
719.94	287.76
720.27	286.93
720.60	286.17
720.94	285.43
721.27	284.69
721.60	284.00
721.93	283.28
722.27	282.68
722.60	282.04
722.93	281.38
723.26	280.74
723.59	280.09
723.93	279.46
724.26	278.79
724.59	278.15
724.92	277.56
725.25	276.94
725.59	276.35
725.92	275.72
726.25	275.11
726.58	274.54
726.91	273.97
727.24	273.42
727.57	272.84
727.91	272.24
728.24	271.73
728.57	271.15
728.90	270.63
729.23	269.99
729.56	269.48
729.89	268.94
730.22	268.39
730.55	267.86
730.89	267.36
731.22	266.87
731.55	266.35
731.88	265.83
732.21	265.33
732.54	264.81
732.87	264.33
733.20	263.88
733.53	263.47
733.86	263.04
734.19	262.56
734.52	262.14
734.85	261.75
735.18	261.28
735.51	260.86
735.84	260.43
736.17	260.06
736.50	259.64
736.83	259.36
737.16	258.96
737.49	258.60
737.82	258.20
738.15	257.80
738.48	257.43
738.81	257.08
739.14	256.74
739.47	256.40
739.80	256.05
740.13	255.66
740.46	255.28
740.79	254.90
741.12	254.59
741.45	254.19
741.78	253.82
742.11	253.48
742.44	253.08
742.77	252.74
743.10	252.41
743.43	252.02
743.75	251.60
744.08	251.41
744.41	251.05
744.74	250.76
745.07	250.43
745.40	250.17
745.73	249.88
746.06	249.54
746.39	249.26
746.71	248.93
747.04	248.63
747.37	248.33
747.70	248.04
748.03	247.74
748.36	247.49
748.68	247.21
749.01	246.94
749.34	246.71
749.67	246.44
750.00	246.19
750.33	246.03
750.65	245.75
750.98	245.38
751.31	245.14
751.64	244.89
751.97	244.70
752.29	244.40
752.62	244.10
752.95	243.87
753.28	243.58
753.60	243.37
753.93	243.19
754.26	242.97
754.59	242.73
754.91	242.46
755.24	242.28
755.57	242.07
755.90	241.82
756.22	241.61
756.55	241.39
756.88	241.18
757.20	240.91
757.53	240.72
757.86	240.56
758.19	240.38
758.51	240.18
758.84	239.95
759.17	239.78
759.49	239.60
759.82	239.46
760.15	239.29
760.47	239.13
760.80	238.91
761.13	238.74
761.45	238.60
761.78	238.44
762.11	238.25
762.43	238.04
762.76	237.88
763.08	237.70
763.41	237.54
763.74	237.35
764.06	237.18
764.39	237.01
764.71	236.82
765.04	236.63
765.37	236.45
765.69	236.31
766.02	236.16
766.34	236.00
766.67	235.84
767.00	235.76
767.32	235.61
767.65	235.56
767.97	235.44
768.30	235.29
768.62	235.16
768.95	235.02
769.27	234.92
769.60	234.83
769.92	234.72
770.25	234.60
770.57	234.45
770.90	234.33
771.22	234.21
771.55	234.10
771.87	234.05
772.20	233.93
772.52	233.91
772.85	233.91
773.17	233.86
773.50	233.73
773.82	233.62
774.15	233.49
774.47	233.30
774.80	233.17
775.12	233.06
775.45	232.99
775.77	232.91
776.09	232.82
776.42	232.69
776.74	232.66
777.07	232.57
777.39	232.52
777.72	232.43
778.04	232.33
778.36	232.26
778.69	232.15
779.01	232.08
779.33	231.86
779.66	231.69
779.98	231.57
780.31	231.49
780.63	231.41
780.95	231.39
781.28	231.31
781.60	231.22
781.92	231.16
782.25	231.09
782.57	230.99
782.89	230.91
783.22	230.86
783.54	230.73
783.86	230.67
784.19	230.56
784.51	230.54
784.83	230.49
785.16	230.39
785.48	230.35
785.80	230.30
786.12	230.26
786.45	230.19
786.77	230.13
787.09	230.08
787.42	230.02
787.74	229.97
788.06	229.94
788.38	229.92
788.71	229.85
789.03	229.79
789.35	229.76
789.67	229.68
789.99	229.67
790.32	229.59
790.64	229.57
790.96	229.64
791.28	229.55
791.61	229.48
791.93	229.49
792.25	229.43
792.57	229.49
792.89	229.44
793.21	229.43
793.54	229.37
793.86	229.30
794.18	229.25
794.50	229.15
794.82	229.10
795.14	229.05
795.47	229.02
795.79	228.98
796.11	228.92
796.43	228.87
796.75	228.78
797.07	228.76
797.39	228.72
797.71	228.61
798.04	228.57
798.36	228.55
798.68	228.48
799.00	228.47
799.32	228.35
799.64	228.31
799.96	228.24
800.28	228.22
800.60	228.19
800.92	228.15
801.24	228.11
801.56	228.10
801.89	228.06
802.21	228.03
802.53	227.94
802.85	227.94
803.17	227.94
803.49	227.86
803.81	227.82
804.13	227.76
804.45	227.72
804.77	227.69
805.09	227.63
805.41	227.58
805.73	227.51
806.05	227.45
806.37	227.41
806.69	227.37
807.01	227.34
807.33	227.31
807.65	227.27
807.97	227.29
808.28	227.25
808.60	227.24
808.92	227.20
809.24	227.30
809.56	227.23
809.88	227.20
810.20	227.22
810.52	227.17
810.84	227.17
811.16	227.13
811.48	227.13
811.80	227.16
812.12	227.14
812.43	227.16
812.75	227.16
813.07	227.15
813.39	227.16
813.71	227.13
814.03	227.11
814.35	227.08
814.67	227.03
814.98	226.99
815.30	226.98
815.62	226.95
815.94	226.85
816.26	226.88
816.58	226.85
816.89	226.88
817.21	226.92
817.53	226.90
817.85	226.91
818.17	226.88
818.48	226.82
818.80	226.81
819.12	226.76
819.44	226.75
819.76	226.70
820.07	226.64
820.39	226.69
820.71	226.68
821.03	226.67
821.34	226.62
821.66	226.63
821.98	226.62
822.30	226.59
822.61	226.65
822.93	226.62
823.25	226.62
823.57	226.57
823.88	226.54
824.20	226.52
824.52	226.48
824.83	226.47
825.15	226.47
825.47	226.46
825.79	226.46
826.10	226.42
826.42	226.43
826.74	226.44
827.05	226.41
827.37	226.38
827.69	226.36
828.00	226.36
828.32	226.33
828.64	226.31
828.95	226.37
829.27	226.29
829.58	226.27
829.90	226.24
830.22	226.21
830.53	226.18
830.85	226.13
831.17	226.12
831.48	226.10
831.80	226.05
832.11	226.05
832.43	226.02
832.75	226.00
833.06	226.03
833.38	226.00
833.69	225.93
834.01	225.93
834.32	225.93
834.64	225.89
834.96	225.87
835.27	225.85
835.59	225.80
835.90	225.78
836.22	225.73
836.53	225.71
836.85	225.69
837.16	225.77
837.48	225.79
837.79	225.78
838.11	225.80
838.42	225.81
838.74	225.76
839.05	225.74
839.37	225.75
839.68	225.68
840.00	225.68
840.31	225.69
840.63	225.70
840.94	225.67
841.26	225.66
841.57	225.67
841.88	225.65
842.20	225.61
842.51	225.55
842.83	225.54
843.14	225.62
843.46	225.65
843.77	225.56
844.08	225.50
844.40	225.45
844.71	225.39
845.03	225.35
845.34	225.33
845.65	225.31
845.97	225.29
846.28	225.30
846.60	225.29
846.91	225.29
847.22	225.26
847.54	225.28
847.85	225.27
848.16	225.25
848.48	225.23
848.79	225.27
849.10	225.30
849.42	225.36
849.73	225.26
850.04	225.21
850.36	225.18
850.67	225.21
850.98	225.24
851.30	225.29
851.61	225.28
851.92	225.29
852.23	225.33
852.55	225.32
852.86	225.36
853.17	225.37
853.49	225.38
853.80	225.41
854.11	225.42
854.42	225.46
854.74	225.47
855.05	225.48
855.36	225.43
855.67	225.42
855.99	225.38
856.30	225.49
856.61	225.52
856.92	225.55
857.23	225.58
857.55	225.55
857.86	225.54
858.17	225.59
858.48	225.60
858.79	225.58
859.11	225.62
859.42	225.58
859.73	225.56
860.04	225.55
860.35	225.52
860.66	225.52
860.98	225.48
861.29	225.49
861.60	225.51
861.91	225.54
862.22	225.55
862.53	225.55
862.84	225.45
863.16	225.47
863.47	225.45
863.78	225.42
864.09	225.46
864.40	225.42
864.71	225.41
865.02	225.40
865.33	225.38
865.64	225.35
865.95	225.37
866.27	225.42
866.58	225.41
866.89	225.43
867.20	225.41
867.51	225.38
867.82	225.38
868.13	225.40
868.44	225.37
868.75	225.37
869.06	225.34
869.37	225.36
869.68	225.33
869.99	225.34
870.30	225.35
870.61	225.33
870.92	225.38
871.23	225.36
871.54	225.38
871.85	225.39
872.16	225.40
872.47	225.36
872.78	225.30
873.09	225.32
873.40	225.29
873.71	225.29
874.02	225.28
874.33	225.24
874.64	225.23
874.95	225.25
875.26	225.23
875.56	225.27
875.87	225.21
876.18	225.19
876.49	225.25
876.80	225.20
877.11	225.16
877.42	225.11
877.73	225.10
878.04	225.07
878.35	225.05
878.66	225.06
878.96	225.06
879.27	225.06
879.58	225.03
879.89	225.01
880.20	225.03
880.51	225.03
880.82	225.01
881.12	224.99
881.43	224.93
881.74	224.90
882.05	224.87
882.36	224.86
882.67	224.88
882.97	224.78
883.28	224.80
883.59	224.82
883.90	224.84
884.21	224.83
884.51	224.82
884.82	224.83
885.13	224.82
885.44	224.82
885.74	224.77
886.05	224.75
886.36	224.76
886.67	224.70
886.98	224.76
887.28	224.75
887.59	224.74
887.90	224.78
888.20	224.77
888.51	224.75
888.82	224.77
889.13	224.74
889.43	224.79
889.74	224.76
890.05	224.75
890.35	224.70
890.66	224.72
890.97	224.70
891.28	224.67
891.58	224.66
891.89	224.65
892.20	224.67
892.50	224.68
892.81	224.66
893.12	224.69
893.42	224.65
893.73	224.69
894.04	224.71
894.34	224.67
894.65	224.65
894.95	224.69
895.26	224.69
895.57	224.79
895.87	224.74
896.18	224.78
896.48	224.76
896.79	224.78
897.10	224.79
897.40	224.81
897.71	224.83
898.01	224.83
898.32	224.83
898.63	224.83
898.93	224.85
899.24	224.84
899.54	224.82
899.85	224.83
900.15	224.80
900.46	224.79
900.76	224.84
901.07	224.88
901.38	224.88
901.68	224.86
901.99	224.79
902.29	224.80
902.60	224.82
902.90	224.85
903.21	224.87
903.51	224.88
903.82	224.88
904.12	224.87
904.43	224.86
904.73	224.87
905.03	224.89
905.34	224.95
905.64	224.99
905.95	225.00
906.25	224.97
906.56	225.00
906.86	224.98
907.17	224.97
907.47	224.96
907.77	224.93
908.08	224.95
908.38	224.96
908.69	224.98
908.99	224.95
909.30	224.94
909.60	224.97
909.90	224.97
910.21	224.96
910.51	224.97
910.81	224.97
911.12	224.98
911.42	224.95
911.73	224.85
912.03	224.79
912.33	224.81
912.64	224.82
912.94	224.81
913.24	224.81
913.55	224.80
913.85	224.80
914.15	224.83
914.46	224.83
914.76	224.79
915.06	224.77
915.37	224.75
915.67	224.75
915.97	224.74
916.27	224.71
916.58	224.70
916.88	224.69
917.18	224.70
917.49	224.74
917.79	224.75
918.09	224.79
918.39	224.85
918.70	224.84
919.00	224.82
919.30	224.82
919.60	224.79
919.91	224.77
920.21	224.77
920.51	224.77
920.81	224.77
921.12	224.80
921.42	224.77
921.72	224.79
922.02	224.81
922.32	224.80
922.63	224.79
922.93	224.86
923.23	224.86
923.53	224.84
923.83	224.82
924.13	224.85
924.44	224.84
924.74	224.84
925.04	224.87
925.34	224.89
925.64	224.89
925.94	224.93
926.24	224.98
926.55	224.98
926.85	224.98
927.15	224.98
927.45	224.96
927.75	224.98
928.05	224.99
928.35	224.97
928.65	224.98
928.95	225.02
929.26	224.97
929.56	224.99
929.86	225.02
930.16	225.00
930.46	225.00
930.76	225.04
931.06	224.98
931.36	224.95
931.66	224.98
931.96	224.97
932.26	224.97
932.56	224.95
932.86	224.95
933.16	224.98
933.46	224.96
933.76	225.00
934.06	225.00
934.36	225.03
934.66	225.01
934.96	225.00
935.26	224.99
935.56	225.03
935.86	225.00
936.16	224.99
936.46	224.97
936.76	224.98
937.06	224.97
937.36	225.00
937.66	225.03
937.96	225.04
938.26	225.01
938.56	225.00
938.86	225.01
939.16	225.02
939.46	225.03
939.76	225.01
940.06	224.96
940.35	225.01
940.65	224.96
940.95	224.98
941.25	224.96
941.55	224.96
941.85	224.96
942.15	225.01
942.45	225.02
942.75	225.03
943.04	225.00
943.34	225.00
943.64	224.98
943.94	224.92
944.24	224.89
944.54	224.91
944.84	224.93
945.13	224.87
945.43	224.86
945.73	224.83
946.03	224.83
946.33	224.85
946.62	224.76
946.92	224.75
947.22	224.72
947.52	224.73
947.82	224.72
948.11	224.69
948.41	224.65
948.71	224.61
949.01	224.60
949.31	224.58
949.60	224.53
949.90	224.56
950.20	224.55
950.50	224.57
950.79	224.53
951.09	224.53
951.39	224.54
951.69	224.51
951.98	224.55
952.28	224.57
952.58	224.55
952.87	224.56
953.17	224.58
953.47	224.60
953.76	224.59
954.06	224.58
954.36	224.57
954.66	224.57
954.95	224.59
955.25	224.60
955.55	224.63
955.84	224.63
956.14	224.62
956.44	224.64
956.73	224.61
957.03	224.64
957.32	224.61
957.62	224.61
957.92	224.63
958.21	224.61
958.51	224.71
958.81	224.75
959.10	224.77
959.40	224.81
959.69	224.82
959.99	224.80
960.29	224.81
960.58	224.80
960.88	224.85
961.17	224.86
961.47	224.86
961.76	224.84
962.06	224.86
962.36	224.88
962.65	224.89
962.95	224.91
963.24	224.91
963.54	224.92
963.83	224.94
964.13	224.95
964.42	224.93
964.72	224.84
965.01	224.82
965.31	224.80
965.60	224.74
965.90	224.79
966.19	224.78
966.49	224.79
966.78	224.80
967.08	224.77
967.37	224.76
967.67	224.75
967.96	224.76
968.26	224.76
968.55	224.76
968.85	224.74
969.14	224.73
969.43	224.75
969.73	224.75
970.02	224.76
970.32	224.77
970.61	224.78
970.91	224.79
971.20	224.79
971.49	224.84
971.79	224.88
972.08	224.83
972.38	224.85
972.67	224.84
972.96	224.86
973.26	224.84
973.55	224.88
973.85	224.89
974.14	224.92
974.43	224.93
974.73	224.94
975.02	224.94
975.31	224.94
975.61	224.95
975.90	224.96
976.19	224.93
976.49	224.92
976.78	224.92
977.07	224.91
977.37	224.93
977.66	224.94
977.95	224.89
978.24	224.93
978.54	224.95
978.83	224.92
979.12	224.92
979.42	224.96
979.71	224.94
980.00	224.91
980.29	224.86
980.59	224.86
980.88	224.88
981.17	224.88
981.46	224.89
981.76	224.91
982.05	224.95
982.34	224.95
982.63	224.97
982.93	224.96
983.22	224.98
983.51	224.95
983.80	224.93
984.09	225.00
984.39	224.97
984.68	224.97
984.97	224.97
985.26	224.97
985.55	224.96
985.85	224.94
986.14	224.96
986.43	224.98
986.72	224.95
987.01	224.90
987.30	224.89
987.59	224.86
987.89	224.83
988.18	224.77
988.47	224.74
988.76	224.70
989.05	224.71
989.34	224.67
989.63	224.71
989.92	224.70
990.22	224.65
990.51	224.64
990.80	224.62
991.09	224.63
991.38	224.59
991.67	224.57
991.96	224.54
992.25	224.53
992.54	224.50
992.83	224.50
993.12	224.49
993.41	224.52
993.70	224.57
993.99	224.54
994.28	224.55
994.58	224.56
994.87	224.55
995.16	224.52
995.45	224.50
995.74	224.45
996.03	224.43
996.32	224.41
996.61	224.39
996.90	224.38
997.19	224.38
997.48	224.40
997.77	224.39
998.06	224.38
998.34	224.34
998.63	224.33
998.92	224.35
999.21	224.35
999.50	224.29
999.79	224.22
1000.08	224.23
1000.37	224.20
1000.66	224.19
1000.95	224.20
1001.24	224.20
1001.53	224.20
1001.82	224.19
1002.11	224.15
1002.40	224.15
1002.68	224.21
1002.97	224.25
1003.26	224.21
1003.55	224.17
1003.84	224.16
1004.13	224.20
1004.42	224.21
1004.71	224.21
1004.99	224.18
1005.28	224.19
1005.57	224.19
1005.86	224.19
1006.15	224.17
1006.44	224.17
1006.72	224.18
1007.01	224.18
1007.30	224.16
1007.59	224.20
1007.88	224.18
1008.17	224.21
1008.45	224.24
1008.74	224.18
1009.03	224.17
1009.32	224.19
1009.60	224.19
1009.89	224.20
1010.18	224.17
1010.47	224.16
1010.76	224.17
1011.04	224.17
1011.33	224.17
1011.62	224.20
1011.91	224.23
1012.19	224.26
1012.48	224.27
1012.77	224.27
1013.05	224.33
1013.34	224.36
1013.63	224.35
1013.92	224.38
1014.20	224.39
1014.49	224.37
1014.78	224.39
1015.06	224.35
1015.35	224.36
1015.64	224.39
1015.92	224.40
1016.21	224.42
1016.50	224.41
1016.78	224.46
1017.07	224.49
1017.36	224.52
1017.64	224.53
1017.93	224.54
1018.22	224.55
1018.50	224.56
1018.79	224.57
1019.08	224.51
1019.36	224.51
1019.65	224.53
1019.93	224.55
1020.22	224.57
1020.51	224.66
1020.79	224.69
1021.08	224.58
1021.36	224.40
1021.65	224.63
1021.94	224.00
1022.22	224.68
1022.51	224.89
1022.79	225.06
1023.08	225.02
1023.36	226.05
1023.65	224.98
>>>>>End Processed Spectral Data<<<<<
