SpectraSuite Data File
++++++++++++++++++++++++++++++++++++
Date: Fri Feb 01 17:33:54 EST 2013
User: group
Dark Spectrum Present: No
Reference Spectrum Present: No
Number of Sampled Component Spectra: 1
Spectrometers: USB2E7196
Integration Time (usec): 35000 (USB2E7196)
Spectra Averaged: 100 (USB2E7196)
Boxcar Smoothing: 10 (USB2E7196)
Correct for Electrical Dark: No (USB2E7196)
Strobe/Lamp Enabled: No (USB2E7196)
Correct for Detector Non-linearity: No (USB2E7196)
Correct for Stray Light: No (USB2E7196)
Number of Pixels in Processed Spectrum: 2048
>>>>>Begin Processed Spectral Data<<<<<
339.09	0.00
339.48	212.83
339.86	214.28
340.24	215.45
340.63	217.37
341.01	220.04
341.39	219.48
341.78	221.47
342.16	222.00
342.54	222.80
342.93	211.29
343.31	221.96
343.69	222.50
344.07	222.94
344.46	223.37
344.84	223.71
345.22	223.95
345.60	224.20
345.99	224.35
346.37	224.50
346.75	224.58
347.13	224.68
347.52	224.75
347.90	224.81
348.28	224.83
348.66	224.89
349.05	224.86
349.43	224.91
349.81	224.93
350.19	224.97
350.57	225.02
350.96	225.10
351.34	225.23
351.72	225.30
352.10	225.43
352.48	225.51
352.87	225.59
353.25	225.63
353.63	225.71
354.01	225.82
354.39	225.89
354.77	225.97
355.15	226.05
355.54	226.10
355.92	226.14
356.30	226.19
356.68	226.32
357.06	226.41
357.44	226.47
357.82	226.57
358.20	226.63
358.58	226.70
358.97	226.77
359.35	226.80
359.73	226.89
360.11	226.93
360.49	226.97
360.87	227.03
361.25	227.10
361.63	227.16
362.01	227.18
362.39	227.22
362.77	227.30
363.15	227.34
363.53	227.38
363.91	227.40
364.29	227.40
364.67	227.32
365.05	227.33
365.43	227.34
365.81	227.34
366.19	227.39
366.57	227.44
366.95	227.45
367.33	227.42
367.71	227.41
368.09	227.45
368.47	227.45
368.85	227.48
369.23	227.48
369.61	227.42
369.99	227.42
370.37	227.38
370.75	227.36
371.13	227.30
371.51	227.25
371.89	227.23
372.27	227.25
372.65	227.21
373.03	227.16
373.41	227.11
373.78	227.07
374.16	226.98
374.54	226.90
374.92	226.81
375.30	226.81
375.68	226.72
376.06	226.65
376.44	226.60
376.82	226.54
377.19	226.46
377.57	226.40
377.95	226.34
378.33	226.27
378.71	226.19
379.09	226.17
379.47	226.14
379.84	226.06
380.22	225.97
380.60	225.90
380.98	225.84
381.36	225.79
381.73	225.71
382.11	225.64
382.49	225.60
382.87	225.55
383.25	225.48
383.62	225.54
384.00	225.44
384.38	225.39
384.76	225.31
385.13	225.30
385.51	225.28
385.89	225.24
386.27	225.22
386.64	225.16
387.02	225.09
387.40	225.04
387.78	224.99
388.15	224.97
388.53	224.94
388.91	224.93
389.29	224.90
389.66	224.89
390.04	224.88
390.42	224.88
390.79	224.88
391.17	224.83
391.55	224.72
391.92	224.72
392.30	224.73
392.68	224.72
393.05	224.73
393.43	224.70
393.81	224.69
394.18	224.68
394.56	224.70
394.94	224.73
395.31	224.73
395.69	224.78
396.06	224.81
396.44	224.85
396.82	224.85
397.19	224.93
397.57	224.98
397.95	225.04
398.32	225.04
398.70	225.05
399.07	225.13
399.45	225.18
399.82	225.22
400.20	225.27
400.58	225.33
400.95	225.32
401.33	225.39
401.70	225.53
402.08	225.57
402.45	225.66
402.83	225.77
403.20	225.88
403.58	225.95
403.95	226.06
404.33	226.15
404.71	226.25
405.08	226.41
405.46	226.50
405.83	226.63
406.21	226.79
406.58	226.97
406.96	227.14
407.33	227.32
407.70	227.52
408.08	227.75
408.45	227.96
408.83	228.22
409.20	228.44
409.58	228.61
409.95	228.93
410.33	229.18
410.70	229.43
411.08	229.70
411.45	230.04
411.82	230.34
412.20	230.71
412.57	231.15
412.95	231.46
413.32	231.90
413.69	232.33
414.07	232.75
414.44	233.23
414.82	233.70
415.19	234.25
415.56	234.81
415.94	235.38
416.31	236.06
416.68	236.71
417.06	237.45
417.43	238.17
417.81	238.93
418.18	239.75
418.55	240.62
418.93	241.54
419.30	242.45
419.67	243.42
420.04	244.40
420.42	245.47
420.79	246.70
421.16	247.89
421.54	249.15
421.91	250.41
422.28	251.70
422.66	253.14
423.03	254.52
423.40	255.93
423.77	257.42
424.15	258.91
424.52	260.46
424.89	262.16
425.26	263.78
425.64	265.32
426.01	266.98
426.38	268.68
426.75	270.46
427.13	272.29
427.50	274.18
427.87	276.16
428.24	278.03
428.61	279.83
428.99	281.85
429.36	284.00
429.73	286.16
430.10	288.29
430.47	290.40
430.85	292.61
431.22	294.95
431.59	297.47
431.96	299.78
432.33	302.36
432.70	304.83
433.08	307.80
433.45	310.52
433.82	313.24
434.19	316.29
434.56	319.18
434.93	321.90
435.30	324.63
435.68	327.67
436.05	330.65
436.42	333.59
436.79	336.20
437.16	339.04
437.53	342.02
437.90	344.95
438.27	347.82
438.64	350.76
439.01	353.48
439.38	355.79
439.75	358.05
440.13	360.68
440.50	363.09
440.87	365.03
441.24	367.10
441.61	369.39
441.98	370.95
442.35	372.86
442.72	374.81
443.09	376.72
443.46	377.79
443.83	378.42
444.20	378.97
444.57	379.86
444.94	380.19
445.31	380.55
445.68	380.91
446.05	380.99
446.42	380.59
446.79	380.12
447.16	379.68
447.53	379.41
447.90	378.17
448.27	377.03
448.64	375.39
449.01	374.20
449.37	372.16
449.74	370.21
450.11	367.87
450.48	365.36
450.85	362.76
451.22	360.53
451.59	358.45
451.96	356.39
452.33	353.70
452.70	351.22
453.07	348.28
453.43	345.23
453.80	342.37
454.17	339.62
454.54	337.02
454.91	334.18
455.28	331.34
455.65	328.76
456.02	326.14
456.38	323.89
456.75	321.13
457.12	318.74
457.49	316.39
457.86	314.12
458.23	312.15
458.59	310.00
458.96	307.83
459.33	305.88
459.70	303.94
460.07	302.36
460.43	300.58
460.80	298.86
461.17	297.41
461.54	295.83
461.91	294.32
462.27	292.79
462.64	291.47
463.01	290.03
463.38	288.70
463.74	287.28
464.11	286.04
464.48	284.97
464.85	283.79
465.21	282.88
465.58	281.91
465.95	280.75
466.32	279.81
466.68	278.83
467.05	277.88
467.42	276.95
467.78	276.01
468.15	275.10
468.52	274.42
468.88	273.55
469.25	272.75
469.62	272.11
469.98	271.39
470.35	270.74
470.72	270.15
471.08	269.44
471.45	268.91
471.82	268.33
472.18	267.70
472.55	267.27
472.92	266.76
473.28	266.32
473.65	265.85
474.02	265.39
474.38	265.02
474.75	264.68
475.11	264.32
475.48	264.03
475.85	263.76
476.21	263.52
476.58	263.33
476.94	263.18
477.31	263.00
477.67	262.88
478.04	262.80
478.41	262.73
478.77	262.78
479.14	262.70
479.50	262.73
479.87	262.83
480.23	262.93
480.60	262.99
480.96	263.05
481.33	263.26
481.69	263.47
482.06	263.69
482.42	263.89
482.79	264.15
483.15	264.45
483.52	264.84
483.88	265.18
484.25	265.54
484.61	265.96
484.98	266.41
485.34	266.97
485.71	267.52
486.07	268.14
486.44	268.72
486.80	269.43
487.17	270.14
487.53	270.91
487.90	271.74
488.26	272.69
488.62	273.69
488.99	274.65
489.35	275.67
489.72	276.74
490.08	277.92
490.44	279.18
490.81	280.47
491.17	281.80
491.54	283.30
491.90	284.81
492.26	286.46
492.63	288.18
492.99	289.93
493.36	291.78
493.72	293.79
494.08	295.85
494.45	298.07
494.81	300.41
495.17	302.83
495.54	305.41
495.90	308.07
496.26	310.83
496.63	313.79
496.99	316.88
497.35	320.13
497.72	323.51
498.08	327.00
498.44	330.68
498.80	334.60
499.17	338.56
499.53	342.67
499.89	346.95
500.26	351.38
500.62	355.97
500.98	360.89
501.34	365.90
501.71	371.14
502.07	376.47
502.43	382.05
502.79	387.77
503.16	393.74
503.52	399.90
503.88	406.19
504.24	412.72
504.60	419.44
504.97	426.46
505.33	433.67
505.69	441.24
506.05	448.93
506.41	456.71
506.78	464.69
507.14	472.96
507.50	481.51
507.86	490.37
508.22	499.39
508.59	508.42
508.95	517.72
509.31	527.38
509.67	537.34
510.03	547.39
510.39	557.68
510.75	568.16
511.12	578.83
511.48	589.85
511.84	601.09
512.20	612.37
512.56	623.92
512.92	635.76
513.28	647.81
513.64	659.96
514.00	672.24
514.37	684.94
514.73	697.58
515.09	710.28
515.45	723.17
515.81	736.33
516.17	750.00
516.53	763.86
516.89	777.58
517.25	791.22
517.61	805.21
517.97	819.28
518.33	833.33
518.69	847.69
519.05	862.21
519.41	876.81
519.77	891.92
520.13	906.94
520.49	921.94
520.85	936.74
521.21	951.89
521.57	967.61
521.93	982.79
522.29	998.73
522.65	1014.54
523.01	1030.29
523.37	1045.89
523.73	1061.45
524.09	1077.00
524.45	1092.81
524.81	1109.09
525.17	1125.28
525.53	1141.57
525.89	1157.95
526.25	1174.23
526.61	1190.11
526.97	1206.40
527.33	1222.43
527.68	1238.62
528.04	1254.57
528.40	1270.65
528.76	1287.23
529.12	1303.40
529.48	1319.93
529.84	1335.52
530.20	1351.58
530.56	1368.02
530.91	1384.96
531.27	1401.42
531.63	1417.34
531.99	1433.53
532.35	1449.07
532.71	1464.67
533.07	1480.62
533.42	1496.15
533.78	1511.81
534.14	1527.73
534.50	1542.72
534.86	1558.00
535.21	1572.90
535.57	1588.51
535.93	1603.69
536.29	1618.14
536.65	1632.83
537.00	1647.16
537.36	1662.14
537.72	1676.39
538.08	1690.66
538.44	1704.21
538.79	1717.80
539.15	1731.22
539.51	1744.68
539.87	1758.67
540.22	1772.05
540.58	1785.62
540.94	1798.57
541.29	1811.23
541.65	1823.78
542.01	1836.75
542.37	1848.99
542.72	1861.14
543.08	1872.77
543.44	1885.13
543.79	1896.47
544.15	1907.32
544.51	1918.84
544.87	1929.70
545.22	1940.49
545.58	1950.63
545.94	1960.42
546.29	1970.17
546.65	1980.19
547.01	1989.53
547.36	1998.42
547.72	2007.11
548.07	2015.10
548.43	2023.43
548.79	2031.46
549.14	2039.16
549.50	2046.60
549.86	2054.27
550.21	2061.86
550.57	2069.22
550.92	2076.00
551.28	2083.13
551.64	2090.50
551.99	2097.20
552.35	2103.62
552.70	2109.99
553.06	2116.37
553.41	2122.97
553.77	2129.25
554.13	2135.55
554.48	2141.91
554.84	2147.88
555.19	2153.27
555.55	2158.65
555.90	2163.53
556.26	2168.94
556.61	2173.89
556.97	2178.67
557.32	2183.33
557.68	2187.62
558.03	2192.26
558.39	2196.25
558.74	2201.06
559.10	2205.28
559.45	2209.46
559.81	2213.98
560.16	2218.19
560.52	2221.74
560.87	2225.46
561.23	2228.54
561.58	2231.69
561.94	2234.56
562.29	2237.05
562.64	2240.45
563.00	2243.44
563.35	2247.25
563.71	2250.68
564.06	2254.18
564.42	2257.53
564.77	2260.56
565.12	2263.49
565.48	2266.06
565.83	2268.38
566.19	2270.40
566.54	2271.55
566.89	2273.06
567.25	2274.33
567.60	2275.87
567.96	2278.01
568.31	2279.35
568.66	2280.89
569.02	2282.09
569.37	2282.88
569.72	2284.31
570.08	2284.99
570.43	2285.53
570.78	2285.52
571.14	2284.51
571.49	2283.62
571.84	2283.75
572.20	2282.98
572.55	2282.28
572.90	2280.75
573.26	2279.99
573.61	2278.51
573.96	2277.50
574.31	2274.88
574.67	2272.21
575.02	2269.15
575.37	2266.09
575.72	2262.87
576.08	2259.76
576.43	2256.67
576.78	2253.57
577.13	2250.54
577.49	2247.38
577.84	2244.27
578.19	2240.82
578.54	2237.69
578.90	2234.03
579.25	2228.79
579.60	2224.43
579.95	2219.81
580.30	2215.19
580.66	2210.28
581.01	2205.79
581.36	2201.07
581.71	2197.43
582.06	2193.53
582.42	2189.50
582.77	2184.61
583.12	2180.23
583.47	2176.09
583.82	2171.62
584.17	2166.68
584.53	2161.60
584.88	2156.51
585.23	2151.16
585.58	2145.93
585.93	2140.55
586.28	2135.89
586.63	2131.01
586.98	2125.95
587.34	2121.41
587.69	2116.74
588.04	2111.75
588.39	2106.30
588.74	2100.02
589.09	2094.11
589.44	2087.55
589.79	2081.61
590.14	2076.16
590.49	2069.79
590.84	2063.53
591.19	2057.71
591.54	2051.39
591.89	2044.42
592.25	2037.99
592.60	2030.98
592.95	2023.78
593.30	2016.71
593.65	2009.46
594.00	2002.68
594.35	1995.54
594.70	1987.73
595.05	1981.01
595.40	1973.91
595.75	1966.59
596.10	1960.75
596.45	1954.22
596.80	1948.14
597.15	1941.83
597.50	1935.21
597.85	1928.94
598.19	1922.47
598.54	1915.68
598.89	1909.29
599.24	1903.49
599.59	1896.93
599.94	1890.80
600.29	1884.51
600.64	1877.99
600.99	1870.65
601.34	1863.90
601.69	1857.23
602.04	1850.55
602.39	1843.18
602.74	1836.42
603.08	1829.85
603.43	1823.09
603.78	1815.80
604.13	1808.69
604.48	1801.54
604.83	1794.65
605.18	1787.85
605.53	1780.01
605.87	1771.99
606.22	1764.70
606.57	1756.59
606.92	1749.10
607.27	1741.91
607.62	1735.09
607.96	1727.98
608.31	1721.59
608.66	1714.10
609.01	1706.60
609.36	1699.06
609.70	1690.99
610.05	1683.04
610.40	1675.31
610.75	1667.06
611.10	1659.42
611.44	1650.93
611.79	1642.86
612.14	1634.03
612.49	1624.74
612.83	1616.17
613.18	1607.85
613.53	1599.82
613.88	1591.39
614.22	1583.18
614.57	1574.49
614.92	1566.28
615.27	1558.75
615.61	1550.32
615.96	1542.17
616.31	1534.34
616.65	1526.84
617.00	1519.20
617.35	1511.51
617.70	1503.12
618.04	1494.54
618.39	1486.14
618.74	1478.54
619.08	1470.22
619.43	1462.67
619.78	1455.67
620.12	1448.54
620.47	1441.09
620.82	1432.69
621.16	1425.00
621.51	1417.13
621.85	1409.37
622.20	1400.92
622.55	1392.32
622.89	1384.31
623.24	1376.50
623.59	1369.02
623.93	1361.41
624.28	1354.11
624.62	1346.34
624.97	1339.13
625.32	1332.16
625.66	1324.99
626.01	1317.77
626.35	1310.26
626.70	1302.30
627.04	1294.46
627.39	1286.60
627.73	1279.06
628.08	1272.15
628.43	1265.03
628.77	1257.84
629.12	1250.31
629.46	1243.10
629.81	1235.59
630.15	1228.25
630.50	1220.77
630.84	1212.45
631.19	1204.44
631.53	1196.78
631.88	1189.05
632.22	1181.28
632.57	1173.91
632.91	1166.37
633.26	1158.91
633.60	1151.37
633.95	1144.13
634.29	1137.00
634.64	1130.10
634.98	1122.70
635.32	1115.47
635.67	1108.58
636.01	1101.80
636.36	1094.92
636.70	1088.24
637.05	1081.65
637.39	1075.18
637.73	1068.74
638.08	1062.90
638.42	1056.89
638.77	1050.48
639.11	1043.99
639.45	1037.59
639.80	1030.98
640.14	1024.52
640.49	1017.86
640.83	1011.44
641.17	1005.24
641.52	998.86
641.86	992.46
642.20	986.42
642.55	979.88
642.89	973.44
643.23	966.65
643.58	960.88
643.92	954.68
644.26	948.62
644.61	942.42
644.95	936.40
645.29	929.75
645.64	922.99
645.98	916.64
646.32	910.69
646.66	904.61
647.01	898.73
647.35	892.93
647.69	887.05
648.04	881.52
648.38	875.73
648.72	869.84
649.06	863.77
649.41	857.93
649.75	852.09
650.09	846.17
650.43	840.48
650.78	834.32
651.12	828.33
651.46	822.59
651.80	816.90
652.14	811.37
652.49	806.00
652.83	800.72
653.17	795.05
653.51	789.35
653.85	783.93
654.20	778.33
654.54	772.33
654.88	766.53
655.22	760.64
655.56	754.84
655.90	749.29
656.25	744.03
656.59	738.57
656.93	733.47
657.27	728.34
657.61	722.82
657.95	717.68
658.29	712.61
658.64	707.23
658.98	701.89
659.32	696.48
659.66	691.33
660.00	686.15
660.34	681.21
660.68	676.27
661.02	671.22
661.36	666.51
661.70	662.04
662.05	657.73
662.39	653.43
662.73	649.01
663.07	644.65
663.41	640.21
663.75	635.78
664.09	631.19
664.43	626.79
664.77	622.73
665.11	618.46
665.45	614.25
665.79	610.27
666.13	606.15
666.47	601.92
666.81	597.68
667.15	593.46
667.49	589.48
667.83	585.62
668.17	581.66
668.51	577.56
668.85	573.44
669.19	569.53
669.53	565.66
669.87	561.78
670.21	558.02
670.55	554.31
670.89	550.86
671.23	547.41
671.57	543.82
671.91	540.32
672.25	536.74
672.58	533.23
672.92	529.76
673.26	526.48
673.60	523.36
673.94	520.22
674.28	517.30
674.62	514.36
674.96	511.29
675.30	508.34
675.64	505.43
675.97	502.64
676.31	499.73
676.65	496.75
676.99	494.02
677.33	491.16
677.67	488.35
678.01	485.35
678.34	482.34
678.68	479.41
679.02	476.53
679.36	473.71
679.70	470.96
680.04	468.19
680.37	465.38
680.71	462.51
681.05	459.87
681.39	457.12
681.73	454.39
682.06	451.84
682.40	449.28
682.74	446.67
683.08	444.10
683.42	441.46
683.75	438.97
684.09	436.31
684.43	433.76
684.77	431.26
685.10	428.82
685.44	426.44
685.78	424.12
686.12	421.82
686.45	419.58
686.79	417.22
687.13	414.96
687.46	412.75
687.80	410.63
688.14	408.35
688.48	406.26
688.81	404.00
689.15	401.79
689.49	399.58
689.82	397.49
690.16	395.37
690.50	393.41
690.83	391.41
691.17	389.48
691.51	387.53
691.84	385.65
692.18	383.75
692.52	381.79
692.85	379.81
693.19	377.94
693.52	376.03
693.86	374.17
694.20	372.37
694.53	370.57
694.87	368.67
695.21	366.87
695.54	364.98
695.88	363.26
696.21	361.51
696.55	359.85
696.88	358.16
697.22	356.52
697.56	354.85
697.89	353.17
698.23	351.56
698.56	349.99
698.90	348.43
699.23	346.77
699.57	345.26
699.90	343.76
700.24	342.18
700.58	340.64
700.91	339.20
701.25	337.76
701.58	336.39
701.92	335.05
702.25	333.66
702.59	332.31
702.92	330.92
703.26	329.61
703.59	328.30
703.93	327.10
704.26	325.85
704.60	324.57
704.93	323.32
705.26	322.07
705.60	320.90
705.93	319.67
706.27	318.63
706.60	317.51
706.94	316.41
707.27	315.29
707.61	314.24
707.94	313.20
708.27	312.07
708.61	310.96
708.94	309.95
709.28	308.94
709.61	307.99
709.94	307.01
710.28	305.98
710.61	304.99
710.95	303.87
711.28	302.91
711.61	301.93
711.95	301.00
712.28	300.04
712.61	299.05
712.95	298.10
713.28	297.19
713.61	296.26
713.95	295.38
714.28	294.52
714.61	293.65
714.95	292.73
715.28	291.83
715.61	290.92
715.95	290.02
716.28	289.18
716.61	288.28
716.95	287.45
717.28	286.69
717.61	285.87
717.94	285.10
718.28	284.29
718.61	283.53
718.94	282.80
719.27	282.15
719.61	281.46
719.94	280.78
720.27	280.03
720.60	279.32
720.94	278.64
721.27	278.02
721.60	277.38
721.93	276.79
722.27	276.26
722.60	275.70
722.93	275.09
723.26	274.50
723.59	273.94
723.93	273.38
724.26	272.80
724.59	272.22
724.92	271.70
725.25	271.20
725.59	270.66
725.92	270.11
726.25	269.52
726.58	268.99
726.91	268.48
727.24	268.00
727.57	267.52
727.91	266.98
728.24	266.49
728.57	266.00
728.90	265.52
729.23	264.99
729.56	264.58
729.89	264.12
730.22	263.67
730.55	263.16
730.89	262.73
731.22	262.26
731.55	261.82
731.88	261.36
732.21	260.89
732.54	260.46
732.87	259.99
733.20	259.58
733.53	259.19
733.86	258.83
734.19	258.38
734.52	258.03
734.85	257.72
735.18	257.28
735.51	256.90
735.84	256.50
736.17	256.13
736.50	255.67
736.83	255.45
737.16	255.11
737.49	254.82
737.82	254.44
738.15	254.14
738.48	253.80
738.81	253.47
739.14	253.15
739.47	252.87
739.80	252.59
740.13	252.30
740.46	251.94
740.79	251.57
741.12	251.30
741.45	250.97
741.78	250.64
742.11	250.39
742.44	250.08
742.77	249.81
743.10	249.52
743.43	249.25
743.75	248.84
744.08	248.68
744.41	248.38
744.74	248.14
745.07	247.87
745.40	247.68
745.73	247.45
746.06	247.18
746.39	246.92
746.71	246.66
747.04	246.41
747.37	246.20
747.70	245.96
748.03	245.70
748.36	245.47
748.68	245.25
749.01	245.00
749.34	244.81
749.67	244.59
750.00	244.35
750.33	244.17
750.65	243.94
750.98	243.60
751.31	243.39
751.64	243.19
751.97	242.99
752.29	242.74
752.62	242.49
752.95	242.28
753.28	242.02
753.60	241.82
753.93	241.63
754.26	241.39
754.59	241.19
754.91	240.98
755.24	240.78
755.57	240.56
755.90	240.36
756.22	240.14
756.55	239.93
756.88	239.73
757.20	239.50
757.53	239.30
757.86	239.11
758.19	238.92
758.51	238.71
758.84	238.51
759.17	238.31
759.49	238.14
759.82	238.02
760.15	237.87
760.47	237.68
760.80	237.48
761.13	237.37
761.45	237.19
761.78	237.03
762.11	236.85
762.43	236.70
762.76	236.55
763.08	236.39
763.41	236.23
763.74	236.10
764.06	235.95
764.39	235.80
764.71	235.67
765.04	235.50
765.37	235.32
765.69	235.16
766.02	235.03
766.34	234.88
766.67	234.72
767.00	234.60
767.32	234.55
767.65	234.47
767.97	234.33
768.30	234.21
768.62	234.10
768.95	233.98
769.27	233.85
769.60	233.72
769.92	233.61
770.25	233.49
770.57	233.39
770.90	233.28
771.22	233.17
771.55	233.06
771.87	232.99
772.20	232.92
772.52	232.91
772.85	232.96
773.17	232.84
773.50	232.75
773.82	232.65
774.15	232.51
774.47	232.36
774.80	232.25
775.12	232.17
775.45	232.07
775.77	232.01
776.09	231.92
776.42	231.89
776.74	231.85
777.07	231.79
777.39	231.69
777.72	231.63
778.04	231.58
778.36	231.53
778.69	231.43
779.01	231.41
779.33	231.22
779.66	231.03
779.98	230.99
780.31	230.93
780.63	230.91
780.95	230.85
781.28	230.83
781.60	230.81
781.92	230.74
782.25	230.73
782.57	230.65
782.89	230.60
783.22	230.51
783.54	230.41
783.86	230.35
784.19	230.32
784.51	230.24
784.83	230.18
785.16	230.12
785.48	230.07
785.80	230.00
786.12	230.01
786.45	229.99
786.77	229.97
787.09	229.95
787.42	229.85
787.74	229.80
788.06	229.75
788.38	229.70
788.71	229.66
789.03	229.60
789.35	229.60
789.67	229.56
789.99	229.55
790.32	229.53
790.64	229.51
790.96	229.53
791.28	229.47
791.61	229.45
791.93	229.43
792.25	229.40
792.57	229.45
792.89	229.36
793.21	229.30
793.54	229.22
793.86	229.14
794.18	229.14
794.50	229.08
794.82	229.06
795.14	229.00
795.47	229.00
795.79	228.96
796.11	228.89
796.43	228.83
796.75	228.75
797.07	228.68
797.39	228.63
797.71	228.52
798.04	228.50
798.36	228.45
798.68	228.38
799.00	228.36
799.32	228.25
799.64	228.23
799.96	228.18
800.28	228.17
800.60	228.12
800.92	228.07
801.24	228.04
801.56	228.00
801.89	227.95
802.21	227.93
802.53	227.86
802.85	227.83
803.17	227.85
803.49	227.81
803.81	227.76
804.13	227.74
804.45	227.70
804.77	227.70
805.09	227.66
805.41	227.61
805.73	227.55
806.05	227.49
806.37	227.44
806.69	227.39
807.01	227.36
807.33	227.33
807.65	227.28
807.97	227.26
808.28	227.22
808.60	227.19
808.92	227.12
809.24	227.17
809.56	227.14
809.88	227.10
810.20	227.09
810.52	227.11
810.84	227.06
811.16	227.03
811.48	226.97
811.80	227.00
812.12	227.00
812.43	226.98
812.75	226.97
813.07	226.95
813.39	226.96
813.71	226.93
814.03	226.90
814.35	226.88
814.67	226.84
814.98	226.81
815.30	226.82
815.62	226.79
815.94	226.70
816.26	226.72
816.58	226.68
816.89	226.69
817.21	226.67
817.53	226.66
817.85	226.65
818.17	226.66
818.48	226.58
818.80	226.58
819.12	226.56
819.44	226.52
819.76	226.50
820.07	226.51
820.39	226.49
820.71	226.50
821.03	226.51
821.34	226.51
821.66	226.50
821.98	226.47
822.30	226.48
822.61	226.52
822.93	226.45
823.25	226.45
823.57	226.41
823.88	226.42
824.20	226.41
824.52	226.41
824.83	226.38
825.15	226.38
825.47	226.37
825.79	226.36
826.10	226.36
826.42	226.34
826.74	226.30
827.05	226.31
827.37	226.29
827.69	226.28
828.00	226.25
828.32	226.27
828.64	226.29
828.95	226.32
829.27	226.29
829.58	226.30
829.90	226.30
830.22	226.31
830.53	226.26
830.85	226.28
831.17	226.26
831.48	226.25
831.80	226.26
832.11	226.27
832.43	226.27
832.75	226.28
833.06	226.36
833.38	226.35
833.69	226.29
834.01	226.28
834.32	226.28
834.64	226.29
834.96	226.27
835.27	226.23
835.59	226.20
835.90	226.14
836.22	226.10
836.53	226.08
836.85	226.05
837.16	226.13
837.48	226.08
837.79	226.10
838.11	226.10
838.42	226.06
838.74	226.02
839.05	226.01
839.37	226.00
839.68	225.92
840.00	225.93
840.31	225.96
840.63	225.93
840.94	225.90
841.26	225.85
841.57	225.84
841.88	225.84
842.20	225.81
842.51	225.84
842.83	225.87
843.14	225.94
843.46	225.92
843.77	225.84
844.08	225.82
844.40	225.77
844.71	225.76
845.03	225.74
845.34	225.75
845.65	225.72
845.97	225.71
846.28	225.67
846.60	225.65
846.91	225.67
847.22	225.69
847.54	225.70
847.85	225.71
848.16	225.69
848.48	225.68
848.79	225.68
849.10	225.69
849.42	225.68
849.73	225.61
850.04	225.63
850.36	225.61
850.67	225.63
850.98	225.65
851.30	225.65
851.61	225.67
851.92	225.63
852.23	225.64
852.55	225.63
852.86	225.62
853.17	225.63
853.49	225.61
853.80	225.62
854.11	225.64
854.42	225.62
854.74	225.61
855.05	225.64
855.36	225.58
855.67	225.54
855.99	225.55
856.30	225.65
856.61	225.64
856.92	225.64
857.23	225.62
857.55	225.58
857.86	225.59
858.17	225.60
858.48	225.57
858.79	225.58
859.11	225.60
859.42	225.62
859.73	225.58
860.04	225.58
860.35	225.55
860.66	225.54
860.98	225.58
861.29	225.55
861.60	225.50
861.91	225.55
862.22	225.53
862.53	225.52
862.84	225.40
863.16	225.41
863.47	225.39
863.78	225.39
864.09	225.41
864.40	225.40
864.71	225.41
865.02	225.45
865.33	225.44
865.64	225.44
865.95	225.44
866.27	225.53
866.58	225.53
866.89	225.52
867.20	225.49
867.51	225.47
867.82	225.50
868.13	225.55
868.44	225.53
868.75	225.56
869.06	225.52
869.37	225.52
869.68	225.48
869.99	225.51
870.30	225.55
870.61	225.55
870.92	225.55
871.23	225.52
871.54	225.52
871.85	225.52
872.16	225.51
872.47	225.48
872.78	225.42
873.09	225.41
873.40	225.38
873.71	225.37
874.02	225.35
874.33	225.35
874.64	225.32
874.95	225.33
875.26	225.31
875.56	225.32
875.87	225.33
876.18	225.35
876.49	225.42
876.80	225.39
877.11	225.37
877.42	225.37
877.73	225.38
878.04	225.35
878.35	225.37
878.66	225.37
878.96	225.39
879.27	225.39
879.58	225.39
879.89	225.41
880.20	225.43
880.51	225.43
880.82	225.42
881.12	225.39
881.43	225.37
881.74	225.35
882.05	225.36
882.36	225.35
882.67	225.34
882.97	225.21
883.28	225.22
883.59	225.19
883.90	225.21
884.21	225.21
884.51	225.19
884.82	225.15
885.13	225.17
885.44	225.17
885.74	225.12
886.05	225.14
886.36	225.12
886.67	225.10
886.98	225.13
887.28	225.12
887.59	225.16
887.90	225.15
888.20	225.16
888.51	225.16
888.82	225.13
889.13	225.15
889.43	225.25
889.74	225.22
890.05	225.24
890.35	225.24
890.66	225.24
890.97	225.25
891.28	225.26
891.58	225.25
891.89	225.23
892.20	225.24
892.50	225.18
892.81	225.18
893.12	225.18
893.42	225.18
893.73	225.18
894.04	225.17
894.34	225.19
894.65	225.16
894.95	225.16
895.26	225.18
895.57	225.20
895.87	225.08
896.18	225.12
896.48	225.15
896.79	225.13
897.10	225.11
897.40	225.10
897.71	225.11
898.01	225.09
898.32	225.10
898.63	225.09
898.93	225.10
899.24	225.08
899.54	225.09
899.85	225.04
900.15	225.08
900.46	225.08
900.76	225.08
901.07	225.09
901.38	225.09
901.68	225.11
901.99	225.07
902.29	225.10
902.60	225.05
902.90	225.03
903.21	225.01
903.51	225.01
903.82	225.06
904.12	225.06
904.43	225.05
904.73	225.04
905.03	225.06
905.34	225.14
905.64	225.13
905.95	225.12
906.25	225.15
906.56	225.13
906.86	225.11
907.17	225.11
907.47	225.12
907.77	225.10
908.08	225.08
908.38	225.10
908.69	225.10
908.99	225.16
909.30	225.16
909.60	225.16
909.90	225.17
910.21	225.14
910.51	225.13
910.81	225.15
911.12	225.13
911.42	225.15
911.73	225.08
912.03	225.10
912.33	225.11
912.64	225.11
912.94	225.10
913.24	225.10
913.55	225.09
913.85	225.07
914.15	225.09
914.46	225.10
914.76	225.07
915.06	225.06
915.37	225.02
915.67	225.03
915.97	225.04
916.27	225.00
916.58	225.00
916.88	225.01
917.18	224.99
917.49	225.09
917.79	225.08
918.09	225.07
918.39	225.10
918.70	225.11
919.00	225.10
919.30	225.14
919.60	225.12
919.91	225.10
920.21	225.10
920.51	225.08
920.81	225.10
921.12	225.14
921.42	225.12
921.72	225.14
922.02	225.11
922.32	225.14
922.63	225.19
922.93	225.23
923.23	225.22
923.53	225.18
923.83	225.10
924.13	225.10
924.44	225.12
924.74	225.14
925.04	225.14
925.34	225.12
925.64	225.04
925.94	225.04
926.24	225.08
926.55	225.03
926.85	225.02
927.15	224.99
927.45	224.95
927.75	224.95
928.05	224.96
928.35	224.96
928.65	224.95
928.95	224.93
929.26	224.88
929.56	224.90
929.86	224.93
930.16	224.91
930.46	224.87
930.76	224.83
931.06	224.76
931.36	224.77
931.66	224.79
931.96	224.83
932.26	224.85
932.56	224.82
932.86	224.90
933.16	224.92
933.46	224.92
933.76	224.92
934.06	224.97
934.36	224.97
934.66	224.97
934.96	224.98
935.26	224.97
935.56	225.00
935.86	224.98
936.16	224.94
936.46	224.94
936.76	224.96
937.06	224.97
937.36	225.01
937.66	225.04
937.96	225.00
938.26	224.97
938.56	224.95
938.86	224.96
939.16	224.97
939.46	224.99
939.76	224.97
940.06	224.97
940.35	224.97
940.65	224.91
940.95	224.90
941.25	224.89
941.55	224.86
941.85	224.85
942.15	224.87
942.45	224.95
942.75	224.96
943.04	224.98
943.34	225.02
943.64	225.02
943.94	224.96
944.24	225.00
944.54	225.02
944.84	225.03
945.13	224.99
945.43	224.98
945.73	224.95
946.03	224.98
946.33	224.99
946.62	224.97
946.92	224.97
947.22	224.99
947.52	224.98
947.82	225.02
948.11	225.03
948.41	225.01
948.71	224.98
949.01	224.96
949.31	224.94
949.60	224.92
949.90	224.92
950.20	224.92
950.50	224.91
950.79	224.92
951.09	224.94
951.39	224.96
951.69	224.94
951.98	225.00
952.28	224.98
952.58	224.96
952.87	224.93
953.17	224.96
953.47	224.95
953.76	224.95
954.06	224.93
954.36	224.90
954.66	224.92
954.95	224.92
955.25	224.95
955.55	224.96
955.84	224.93
956.14	224.95
956.44	224.96
956.73	224.93
957.03	224.92
957.32	224.89
957.62	224.88
957.92	224.85
958.21	224.83
958.51	224.92
958.81	224.91
959.10	224.93
959.40	224.97
959.69	224.96
959.99	224.99
960.29	224.99
960.58	224.96
960.88	224.98
961.17	224.97
961.47	224.97
961.76	224.95
962.06	224.97
962.36	224.92
962.65	224.90
962.95	224.95
963.24	224.98
963.54	224.99
963.83	225.03
964.13	225.02
964.42	224.96
964.72	224.89
965.01	224.90
965.31	224.90
965.60	224.86
965.90	224.91
966.19	224.87
966.49	224.88
966.78	224.92
967.08	224.92
967.37	224.91
967.67	224.88
967.96	224.90
968.26	224.92
968.55	224.94
968.85	224.95
969.14	224.94
969.43	224.91
969.73	224.89
970.02	224.85
970.32	224.88
970.61	224.91
970.91	224.88
971.20	224.86
971.49	224.85
971.79	224.84
972.08	224.76
972.38	224.76
972.67	224.73
972.96	224.72
973.26	224.68
973.55	224.72
973.85	224.74
974.14	224.74
974.43	224.74
974.73	224.72
975.02	224.71
975.31	224.72
975.61	224.70
975.90	224.66
976.19	224.65
976.49	224.63
976.78	224.63
977.07	224.62
977.37	224.62
977.66	224.60
977.95	224.57
978.24	224.62
978.54	224.62
978.83	224.66
979.12	224.67
979.42	224.70
979.71	224.65
980.00	224.67
980.29	224.65
980.59	224.63
980.88	224.65
981.17	224.64
981.46	224.66
981.76	224.71
982.05	224.80
982.34	224.84
982.63	224.87
982.93	224.89
983.22	224.94
983.51	224.97
983.80	225.02
984.09	225.03
984.39	225.01
984.68	225.08
984.97	225.06
985.26	225.06
985.55	225.02
985.85	225.02
986.14	225.01
986.43	225.01
986.72	225.02
987.01	224.99
987.30	224.99
987.59	224.96
987.89	224.93
988.18	224.87
988.47	224.84
988.76	224.85
989.05	224.82
989.34	224.77
989.63	224.79
989.92	224.76
990.22	224.81
990.51	224.81
990.80	224.76
991.09	224.77
991.38	224.79
991.67	224.81
991.96	224.80
992.25	224.81
992.54	224.80
992.83	224.78
993.12	224.80
993.41	224.80
993.70	224.84
993.99	224.87
994.28	224.90
994.58	224.94
994.87	224.90
995.16	224.91
995.45	224.91
995.74	224.85
996.03	224.88
996.32	224.86
996.61	224.85
996.90	224.85
997.19	224.85
997.48	224.84
997.77	224.82
998.06	224.82
998.34	224.79
998.63	224.80
998.92	224.85
999.21	224.86
999.50	224.89
999.79	224.83
1000.08	224.82
1000.37	224.82
1000.66	224.75
1000.95	224.78
1001.24	224.79
1001.53	224.83
1001.82	224.86
1002.11	224.85
1002.40	224.84
1002.68	224.90
1002.97	224.97
1003.26	224.96
1003.55	224.96
1003.84	225.01
1004.13	225.07
1004.42	225.08
1004.71	225.11
1004.99	225.06
1005.28	225.08
1005.57	225.05
1005.86	225.08
1006.15	225.08
1006.44	225.10
1006.72	225.13
1007.01	225.14
1007.30	225.16
1007.59	225.15
1007.88	225.13
1008.17	225.09
1008.45	225.08
1008.74	225.05
1009.03	225.00
1009.32	224.98
1009.60	224.96
1009.89	224.90
1010.18	224.83
1010.47	224.82
1010.76	224.78
1011.04	224.79
1011.33	224.79
1011.62	224.80
1011.91	224.80
1012.19	224.77
1012.48	224.74
1012.77	224.74
1013.05	224.77
1013.34	224.75
1013.63	224.75
1013.92	224.77
1014.20	224.78
1014.49	224.77
1014.78	224.79
1015.06	224.75
1015.35	224.75
1015.64	224.79
1015.92	224.83
1016.21	224.80
1016.50	224.83
1016.78	224.84
1017.07	224.86
1017.36	224.82
1017.64	224.79
1017.93	224.78
1018.22	224.78
1018.50	224.79
1018.79	224.79
1019.08	224.72
1019.36	224.71
1019.65	224.66
1019.93	224.71
1020.22	224.75
1020.51	224.84
1020.79	224.78
1021.08	224.58
1021.36	224.81
1021.65	224.64
1021.94	224.18
1022.22	224.56
1022.51	224.17
1022.79	225.47
1023.08	225.66
1023.36	226.39
1023.65	224.16
>>>>>End Processed Spectral Data<<<<<
