SpectraSuite Data File
++++++++++++++++++++++++++++++++++++
Date: Fri Feb 01 16:31:39 EST 2013
User: group
Dark Spectrum Present: No
Reference Spectrum Present: No
Number of Sampled Component Spectra: 1
Spectrometers: USB2E7196
Integration Time (usec): 35000 (USB2E7196)
Spectra Averaged: 100 (USB2E7196)
Boxcar Smoothing: 10 (USB2E7196)
Correct for Electrical Dark: No (USB2E7196)
Strobe/Lamp Enabled: No (USB2E7196)
Correct for Detector Non-linearity: No (USB2E7196)
Correct for Stray Light: No (USB2E7196)
Number of Pixels in Processed Spectrum: 2048
>>>>>Begin Processed Spectral Data<<<<<
339.09	0.00
339.48	214.78
339.86	215.52
340.24	216.88
340.63	218.33
341.01	221.16
341.39	221.23
341.78	222.60
342.16	223.72
342.54	223.47
342.93	212.42
343.31	223.14
343.69	223.66
344.07	224.13
344.46	224.56
344.84	224.94
345.22	225.17
345.60	225.41
345.99	225.59
346.37	225.72
346.75	225.85
347.13	225.91
347.52	225.97
347.90	226.08
348.28	226.08
348.66	226.09
349.05	226.11
349.43	226.16
349.81	226.20
350.19	226.25
350.57	226.27
350.96	226.37
351.34	226.49
351.72	226.53
352.10	226.60
352.48	226.67
352.87	226.69
353.25	226.80
353.63	226.85
354.01	226.90
354.39	226.99
354.77	227.06
355.15	227.18
355.54	227.26
355.92	227.28
356.30	227.38
356.68	227.52
357.06	227.61
357.44	227.65
357.82	227.69
358.20	227.78
358.58	227.84
358.97	227.88
359.35	227.93
359.73	228.05
360.11	228.11
360.49	228.17
360.87	228.23
361.25	228.24
361.63	228.33
362.01	228.38
362.39	228.36
362.77	228.40
363.15	228.44
363.53	228.48
363.91	228.52
364.29	228.55
364.67	228.46
365.05	228.47
365.43	228.49
365.81	228.52
366.19	228.55
366.57	228.57
366.95	228.56
367.33	228.53
367.71	228.46
368.09	228.48
368.47	228.46
368.85	228.44
369.23	228.45
369.61	228.36
369.99	228.36
370.37	228.32
370.75	228.35
371.13	228.27
371.51	228.20
371.89	228.14
372.27	228.11
372.65	228.08
373.03	228.02
373.41	227.98
373.78	227.93
374.16	227.83
374.54	227.77
374.92	227.72
375.30	227.68
375.68	227.65
376.06	227.57
376.44	227.48
376.82	227.44
377.19	227.35
377.57	227.27
377.95	227.17
378.33	227.13
378.71	226.98
379.09	226.91
379.47	226.88
379.84	226.80
380.22	226.72
380.60	226.62
380.98	226.54
381.36	226.46
381.73	226.40
382.11	226.32
382.49	226.24
382.87	226.15
383.25	226.08
383.62	226.11
384.00	226.05
384.38	226.02
384.76	225.97
385.13	225.97
385.51	225.95
385.89	225.91
386.27	225.85
386.64	225.85
387.02	225.80
387.40	225.75
387.78	225.69
388.15	225.68
388.53	225.66
388.91	225.61
389.29	225.60
389.66	225.60
390.04	225.58
390.42	225.58
390.79	225.58
391.17	225.55
391.55	225.44
391.92	225.42
392.30	225.42
392.68	225.38
393.05	225.34
393.43	225.35
393.81	225.35
394.18	225.36
394.56	225.35
394.94	225.41
395.31	225.41
395.69	225.47
396.06	225.51
396.44	225.53
396.82	225.59
397.19	225.63
397.57	225.62
397.95	225.71
398.32	225.72
398.70	225.75
399.07	225.83
399.45	225.89
399.82	225.93
400.20	226.01
400.58	226.10
400.95	226.17
401.33	226.23
401.70	226.37
402.08	226.48
402.45	226.56
402.83	226.64
403.20	226.76
403.58	226.83
403.95	226.94
404.33	227.08
404.71	227.20
405.08	227.40
405.46	227.53
405.83	227.68
406.21	227.83
406.58	228.02
406.96	228.17
407.33	228.34
407.70	228.55
408.08	228.80
408.45	229.01
408.83	229.24
409.20	229.43
409.58	229.62
409.95	229.84
410.33	230.13
410.70	230.38
411.08	230.68
411.45	231.00
411.82	231.27
412.20	231.62
412.57	232.07
412.95	232.37
413.32	232.80
413.69	233.22
414.07	233.64
414.44	234.08
414.82	234.55
415.19	235.09
415.56	235.60
415.94	236.15
416.31	236.76
416.68	237.37
417.06	238.11
417.43	238.80
417.81	239.58
418.18	240.33
418.55	241.18
418.93	242.04
419.30	242.94
419.67	243.90
420.04	244.81
420.42	245.77
420.79	246.94
421.16	248.06
421.54	249.23
421.91	250.48
422.28	251.73
422.66	253.07
423.03	254.39
423.40	255.73
423.77	257.11
424.15	258.55
424.52	260.02
424.89	261.60
425.26	263.14
425.64	264.55
426.01	266.14
426.38	267.77
426.75	269.41
427.13	271.11
427.50	272.92
427.87	274.82
428.24	276.67
428.61	278.41
428.99	280.35
429.36	282.42
429.73	284.45
430.10	286.45
430.47	288.52
430.85	290.62
431.22	292.83
431.59	295.23
431.96	297.47
432.33	299.99
432.70	302.37
433.08	305.19
433.45	307.82
433.82	310.43
434.19	313.31
434.56	316.13
434.93	318.79
435.30	321.38
435.68	324.28
436.05	327.10
436.42	329.87
436.79	332.39
437.16	335.08
437.53	337.89
437.90	340.70
438.27	343.39
438.64	346.20
439.01	348.85
439.38	351.05
439.75	353.18
440.13	355.64
440.50	357.94
440.87	359.73
441.24	361.67
441.61	363.80
441.98	365.27
442.35	367.03
442.72	368.85
443.09	370.65
443.46	371.59
443.83	372.15
444.20	372.63
444.57	373.42
444.94	373.67
445.31	374.01
445.68	374.36
446.05	374.44
446.42	374.06
446.79	373.58
447.16	373.17
447.53	372.84
447.90	371.65
448.27	370.54
448.64	368.94
449.01	367.83
449.37	365.87
449.74	364.00
450.11	361.77
450.48	359.36
450.85	356.86
451.22	354.72
451.59	352.74
451.96	350.82
452.33	348.30
452.70	346.01
453.07	343.22
453.43	340.33
453.80	337.61
454.17	334.93
454.54	332.47
454.91	329.78
455.28	327.14
455.65	324.69
456.02	322.27
456.38	320.16
456.75	317.51
457.12	315.28
457.49	313.09
457.86	310.96
458.23	309.11
458.59	307.06
458.96	305.02
459.33	303.20
459.70	301.35
460.07	299.83
460.43	298.09
460.80	296.48
461.17	295.05
461.54	293.55
461.91	292.11
462.27	290.62
462.64	289.37
463.01	288.05
463.38	286.82
463.74	285.46
464.11	284.31
464.48	283.30
464.85	282.16
465.21	281.30
465.58	280.37
465.95	279.31
466.32	278.41
466.68	277.49
467.05	276.61
467.42	275.73
467.78	274.81
468.15	273.98
468.52	273.31
468.88	272.48
469.25	271.75
469.62	271.13
469.98	270.50
470.35	269.85
470.72	269.26
471.08	268.57
471.45	268.02
471.82	267.53
472.18	266.94
472.55	266.54
472.92	266.04
473.28	265.60
473.65	265.14
474.02	264.71
474.38	264.35
474.75	264.00
475.11	263.62
475.48	263.36
475.85	263.14
476.21	262.92
476.58	262.76
476.94	262.57
477.31	262.43
477.67	262.24
478.04	262.11
478.41	262.02
478.77	262.07
479.14	262.03
479.50	262.02
479.87	262.09
480.23	262.20
480.60	262.25
480.96	262.33
481.33	262.55
481.69	262.74
482.06	262.96
482.42	263.15
482.79	263.45
483.15	263.75
483.52	264.11
483.88	264.46
484.25	264.82
484.61	265.27
484.98	265.77
485.34	266.35
485.71	266.93
486.07	267.55
486.44	268.10
486.80	268.82
487.17	269.58
487.53	270.37
487.90	271.21
488.26	272.19
488.62	273.18
488.99	274.14
489.35	275.22
489.72	276.33
490.08	277.59
490.44	278.83
490.81	280.20
491.17	281.55
491.54	283.05
491.90	284.62
492.26	286.26
492.63	287.98
492.99	289.76
493.36	291.67
493.72	293.75
494.08	295.88
494.45	298.12
494.81	300.50
495.17	302.97
495.54	305.52
495.90	308.19
496.26	310.98
496.63	314.01
496.99	317.10
497.35	320.37
497.72	323.78
498.08	327.27
498.44	330.94
498.80	334.91
499.17	339.01
499.53	343.20
499.89	347.61
500.26	352.13
500.62	356.79
500.98	361.78
501.34	366.86
501.71	372.21
502.07	377.65
502.43	383.33
502.79	389.13
503.16	395.20
503.52	401.47
503.88	407.93
504.24	414.56
504.60	421.49
504.97	428.61
505.33	435.96
505.69	443.81
506.05	451.60
506.41	459.47
506.78	467.57
507.14	476.00
507.50	484.68
507.86	493.72
508.22	502.90
508.59	512.14
508.95	521.73
509.31	531.51
509.67	541.59
510.03	551.80
510.39	562.36
510.75	573.16
511.12	584.08
511.48	595.34
511.84	606.74
512.20	618.23
512.56	630.09
512.92	642.28
513.28	654.62
513.64	667.06
514.00	679.73
514.37	692.69
514.73	705.75
515.09	718.81
515.45	732.08
515.81	745.67
516.17	759.64
516.53	773.67
516.89	787.81
517.25	802.03
517.61	816.46
517.97	830.85
518.33	845.17
518.69	859.92
519.05	874.82
519.41	889.92
519.77	905.39
520.13	920.84
520.49	936.13
520.85	951.44
521.21	967.06
521.57	983.30
521.93	998.95
522.29	1015.30
522.65	1031.42
523.01	1047.59
523.37	1063.51
523.73	1079.57
524.09	1095.57
524.45	1111.82
524.81	1128.28
525.17	1144.96
525.53	1161.85
525.89	1178.76
526.25	1195.57
526.61	1211.97
526.97	1228.63
527.33	1245.04
527.68	1261.60
528.04	1278.02
528.40	1294.43
528.76	1311.39
529.12	1327.88
529.48	1344.74
529.84	1360.72
530.20	1377.27
530.56	1394.12
530.91	1411.55
531.27	1428.24
531.63	1444.61
531.99	1460.99
532.35	1476.85
532.71	1492.66
533.07	1508.82
533.42	1524.50
533.78	1540.40
534.14	1556.54
534.50	1571.80
534.86	1587.62
535.21	1602.73
535.57	1618.51
535.93	1633.89
536.29	1648.65
536.65	1663.57
537.00	1678.18
537.36	1693.30
537.72	1707.65
538.08	1721.96
538.44	1735.60
538.79	1749.37
539.15	1762.96
539.51	1776.66
539.87	1790.99
540.22	1804.78
540.58	1818.47
540.94	1831.66
541.29	1844.36
541.65	1856.91
542.01	1869.93
542.37	1882.16
542.72	1894.43
543.08	1906.06
543.44	1918.47
543.79	1929.57
544.15	1940.51
544.51	1952.00
544.87	1962.86
545.22	1973.67
545.58	1983.71
545.94	1993.28
546.29	2003.00
546.65	2012.79
547.01	2022.02
547.36	2030.68
547.72	2039.00
548.07	2046.75
548.43	2054.99
548.79	2062.96
549.14	2070.35
549.50	2077.58
549.86	2085.18
550.21	2092.49
550.57	2099.68
550.92	2106.02
551.28	2112.98
551.64	2119.95
551.99	2126.53
552.35	2132.63
552.70	2138.77
553.06	2144.81
553.41	2151.25
553.77	2157.31
554.13	2163.38
554.48	2169.60
554.84	2175.06
555.19	2180.22
555.55	2185.44
555.90	2189.89
556.26	2194.86
556.61	2199.70
556.97	2204.18
557.32	2208.25
557.68	2212.30
558.03	2216.62
558.39	2220.40
558.74	2225.20
559.10	2229.01
559.45	2232.56
559.81	2236.94
560.16	2240.89
560.52	2244.30
560.87	2247.74
561.23	2250.34
561.58	2253.29
561.94	2255.66
562.29	2257.92
562.64	2260.72
563.00	2263.25
563.35	2266.77
563.71	2269.83
564.06	2273.10
564.42	2275.83
564.77	2278.40
565.12	2280.75
565.48	2282.63
565.83	2284.70
566.19	2286.01
566.54	2287.02
566.89	2288.21
567.25	2288.86
567.60	2290.05
567.96	2291.64
568.31	2292.46
568.66	2293.61
569.02	2294.16
569.37	2294.52
569.72	2295.50
570.08	2295.56
570.43	2295.60
570.78	2295.01
571.14	2293.51
571.49	2292.14
571.84	2291.99
572.20	2291.04
572.55	2289.99
572.90	2288.54
573.26	2287.01
573.61	2285.32
573.96	2283.71
574.31	2280.85
574.67	2277.89
575.02	2274.49
575.37	2271.17
575.72	2267.45
576.08	2264.32
576.43	2260.95
576.78	2257.48
577.13	2254.44
577.49	2251.40
577.84	2247.92
578.19	2244.34
578.54	2240.92
578.90	2236.78
579.25	2231.24
579.60	2226.21
579.95	2221.24
580.30	2216.23
580.66	2211.23
581.01	2206.31
581.36	2201.41
581.71	2197.26
582.06	2192.75
582.42	2188.22
582.77	2182.96
583.12	2178.53
583.47	2173.76
583.82	2168.98
584.17	2163.78
584.53	2158.26
584.88	2152.89
585.23	2147.26
585.58	2141.70
585.93	2136.35
586.28	2131.62
586.63	2126.65
586.98	2121.66
587.34	2117.10
587.69	2112.29
588.04	2107.00
588.39	2101.47
588.74	2095.02
589.09	2088.90
589.44	2082.31
589.79	2076.40
590.14	2070.93
590.49	2064.28
590.84	2058.03
591.19	2052.05
591.54	2045.65
591.89	2038.37
592.25	2031.52
592.60	2024.32
592.95	2016.86
593.30	2009.47
593.65	2002.08
594.00	1995.20
594.35	1988.06
594.70	1980.08
595.05	1973.01
595.40	1965.79
595.75	1958.25
596.10	1952.19
596.45	1945.48
596.80	1939.40
597.15	1932.84
597.50	1925.80
597.85	1919.57
598.19	1912.86
598.54	1905.79
598.89	1899.13
599.24	1893.25
599.59	1886.56
599.94	1880.43
600.29	1874.16
600.64	1867.52
600.99	1860.04
601.34	1853.05
601.69	1846.06
602.04	1839.17
602.39	1831.85
602.74	1825.10
603.08	1818.42
603.43	1811.63
603.78	1804.32
604.13	1797.15
604.48	1789.72
604.83	1782.97
605.18	1776.02
605.53	1768.05
605.87	1760.04
606.22	1752.95
606.57	1745.06
606.92	1737.79
607.27	1730.77
607.62	1723.83
607.96	1716.74
608.31	1710.08
608.66	1702.56
609.01	1695.09
609.36	1687.59
609.70	1679.45
610.05	1671.46
610.40	1663.72
610.75	1655.46
611.10	1647.84
611.44	1639.42
611.79	1631.56
612.14	1622.79
612.49	1613.58
612.83	1605.31
613.18	1597.29
613.53	1589.12
613.88	1580.51
614.22	1572.29
614.57	1563.56
614.92	1555.46
615.27	1547.85
615.61	1539.59
615.96	1531.61
616.31	1523.95
616.65	1516.58
617.00	1509.06
617.35	1501.41
617.70	1493.08
618.04	1484.58
618.39	1476.35
618.74	1468.76
619.08	1460.47
619.43	1452.92
619.78	1445.98
620.12	1438.77
620.47	1431.15
620.82	1422.96
621.16	1415.58
621.51	1407.94
621.85	1400.28
622.20	1391.87
622.55	1383.43
622.89	1375.60
623.24	1367.96
623.59	1360.51
623.93	1352.95
624.28	1345.78
624.62	1338.17
624.97	1331.04
625.32	1324.19
625.66	1317.27
626.01	1310.01
626.35	1302.53
626.70	1294.80
627.04	1287.07
627.39	1279.34
627.73	1272.02
628.08	1265.09
628.43	1257.85
628.77	1250.40
629.12	1242.88
629.46	1235.81
629.81	1228.50
630.15	1221.19
630.50	1213.78
630.84	1205.64
631.19	1197.70
631.53	1190.16
631.88	1182.68
632.22	1175.05
632.57	1167.85
632.91	1160.22
633.26	1152.85
633.60	1145.44
633.95	1138.32
634.29	1131.26
634.64	1124.63
634.98	1117.15
635.32	1110.02
635.67	1103.40
636.01	1096.82
636.36	1090.03
636.70	1083.42
637.05	1076.77
637.39	1070.34
637.73	1063.78
638.08	1057.83
638.42	1051.85
638.77	1045.38
639.11	1038.73
639.45	1032.35
639.80	1025.61
640.14	1019.30
640.49	1012.72
640.83	1006.40
641.17	1000.10
641.52	993.82
641.86	987.18
642.20	981.39
642.55	975.06
642.89	968.53
643.23	961.98
643.58	956.22
643.92	949.98
644.26	943.94
644.61	937.88
644.95	931.89
645.29	925.27
645.64	918.62
645.98	912.31
646.32	906.55
646.66	900.48
647.01	894.73
647.35	888.93
647.69	883.08
648.04	877.57
648.38	871.77
648.72	865.79
649.06	859.79
649.41	854.00
649.75	848.08
650.09	842.19
650.43	836.34
650.78	830.18
651.12	824.29
651.46	818.59
651.80	812.87
652.14	807.51
652.49	802.18
652.83	796.91
653.17	791.16
653.51	785.42
653.85	780.03
654.20	774.39
654.54	768.37
654.88	762.64
655.22	756.75
655.56	751.10
655.90	745.69
656.25	740.53
656.59	735.12
656.93	730.01
657.27	724.82
657.61	719.44
657.95	714.38
658.29	709.34
658.64	704.05
658.98	698.77
659.32	693.29
659.66	688.09
660.00	682.82
660.34	677.99
660.68	673.01
661.02	668.03
661.36	663.31
661.70	658.83
662.05	654.48
662.39	650.19
662.73	645.65
663.07	641.19
663.41	636.66
663.75	632.13
664.09	627.60
664.43	623.22
664.77	619.10
665.11	614.76
665.45	610.59
665.79	606.51
666.13	602.37
666.47	598.27
666.81	594.16
667.15	590.05
667.49	586.11
667.83	582.29
668.17	578.33
668.51	574.22
668.85	570.18
669.19	566.36
669.53	562.53
669.87	558.72
670.21	555.04
670.55	551.41
670.89	548.01
671.23	544.54
671.57	540.96
671.91	537.44
672.25	533.98
672.58	530.44
672.92	527.01
673.26	523.79
673.60	520.64
673.94	517.48
674.28	514.56
674.62	511.62
674.96	508.53
675.30	505.61
675.64	502.66
675.97	499.92
676.31	496.97
676.65	494.01
676.99	491.32
677.33	488.48
677.67	485.65
678.01	482.62
678.34	479.67
678.68	476.78
679.02	473.96
679.36	471.21
679.70	468.50
680.04	465.76
680.37	462.91
680.71	460.05
681.05	457.50
681.39	454.77
681.73	452.08
682.06	449.54
682.40	447.01
682.74	444.51
683.08	441.96
683.42	439.36
683.75	436.85
684.09	434.26
684.43	431.75
684.77	429.32
685.10	426.95
685.44	424.65
685.78	422.37
686.12	420.11
686.45	417.83
686.79	415.51
687.13	413.31
687.46	411.16
687.80	409.05
688.14	406.79
688.48	404.77
688.81	402.56
689.15	400.43
689.49	398.19
689.82	396.11
690.16	394.03
690.50	392.14
690.83	390.19
691.17	388.21
691.51	386.31
691.84	384.40
692.18	382.49
692.52	380.47
692.85	378.57
693.19	376.72
693.52	374.82
693.86	372.98
694.20	371.19
694.53	369.39
694.87	367.54
695.21	365.75
695.54	363.88
695.88	362.13
696.21	360.34
696.55	358.69
696.88	357.00
697.22	355.29
697.56	353.65
697.89	352.01
698.23	350.43
698.56	348.78
698.90	347.20
699.23	345.54
699.57	344.00
699.90	342.47
700.24	340.88
700.58	339.36
700.91	337.88
701.25	336.43
701.58	335.01
701.92	333.64
702.25	332.26
702.59	330.86
702.92	329.54
703.26	328.25
703.59	326.93
703.93	325.72
704.26	324.50
704.60	323.21
704.93	321.91
705.26	320.61
705.60	319.47
705.93	318.30
706.27	317.24
706.60	316.17
706.94	315.08
707.27	313.95
707.61	312.93
707.94	311.94
708.27	310.85
708.61	309.84
708.94	308.83
709.28	307.84
709.61	306.89
709.94	305.91
710.28	304.89
710.61	303.95
710.95	302.89
711.28	301.96
711.61	301.02
711.95	300.13
712.28	299.22
712.61	298.21
712.95	297.30
713.28	296.40
713.61	295.53
713.95	294.64
714.28	293.79
714.61	292.90
714.95	292.06
715.28	291.19
715.61	290.28
715.95	289.43
716.28	288.56
716.61	287.75
716.95	286.96
717.28	286.24
717.61	285.48
717.94	284.74
718.28	283.90
718.61	283.17
718.94	282.43
719.27	281.76
719.61	281.09
719.94	280.40
720.27	279.71
720.60	279.03
720.94	278.38
721.27	277.82
721.60	277.21
721.93	276.60
722.27	276.06
722.60	275.52
722.93	274.95
723.26	274.42
723.59	273.85
723.93	273.28
724.26	272.71
724.59	272.16
724.92	271.64
725.25	271.22
725.59	270.68
725.92	270.17
726.25	269.66
726.58	269.19
726.91	268.70
727.24	268.24
727.57	267.77
727.91	267.25
728.24	266.77
728.57	266.31
728.90	265.87
729.23	265.38
729.56	264.93
729.89	264.48
730.22	264.02
730.55	263.55
730.89	263.10
731.22	262.70
731.55	262.28
731.88	261.86
732.21	261.43
732.54	261.02
732.87	260.62
733.20	260.22
733.53	259.83
733.86	259.48
734.19	259.08
734.52	258.74
734.85	258.46
735.18	258.02
735.51	257.64
735.84	257.26
736.17	256.95
736.50	256.55
736.83	256.28
737.16	255.93
737.49	255.59
737.82	255.27
738.15	254.89
738.48	254.56
738.81	254.24
739.14	253.90
739.47	253.57
739.80	253.25
740.13	252.96
740.46	252.67
740.79	252.36
741.12	252.00
741.45	251.68
741.78	251.31
742.11	251.08
742.44	250.79
742.77	250.48
743.10	250.15
743.43	249.90
743.75	249.56
744.08	249.40
744.41	249.16
744.74	248.89
745.07	248.63
745.40	248.38
745.73	248.16
746.06	247.88
746.39	247.65
746.71	247.38
747.04	247.08
747.37	246.78
747.70	246.51
748.03	246.31
748.36	246.07
748.68	245.84
749.01	245.53
749.34	245.31
749.67	245.09
750.00	244.86
750.33	244.65
750.65	244.41
750.98	244.08
751.31	243.85
751.64	243.65
751.97	243.49
752.29	243.29
752.62	243.02
752.95	242.78
753.28	242.55
753.60	242.37
753.93	242.20
754.26	242.01
754.59	241.79
754.91	241.58
755.24	241.39
755.57	241.19
755.90	241.06
756.22	240.84
756.55	240.61
756.88	240.45
757.20	240.25
757.53	240.06
757.86	239.88
758.19	239.74
758.51	239.54
758.84	239.32
759.17	239.14
759.49	238.99
759.82	238.91
760.15	238.75
760.47	238.59
760.80	238.42
761.13	238.30
761.45	238.16
761.78	238.01
762.11	237.85
762.43	237.71
762.76	237.52
763.08	237.38
763.41	237.28
763.74	237.11
764.06	236.93
764.39	236.80
764.71	236.67
765.04	236.50
765.37	236.39
765.69	236.25
766.02	236.12
766.34	235.98
766.67	235.79
767.00	235.69
767.32	235.65
767.65	235.58
767.97	235.49
768.30	235.42
768.62	235.29
768.95	235.16
769.27	235.05
769.60	234.96
769.92	234.84
770.25	234.73
770.57	234.62
770.90	234.55
771.22	234.46
771.55	234.34
771.87	234.29
772.20	234.15
772.52	234.14
772.85	234.16
773.17	234.07
773.50	233.99
773.82	233.90
774.15	233.73
774.47	233.57
774.80	233.43
775.12	233.32
775.45	233.25
775.77	233.19
776.09	233.09
776.42	232.99
776.74	232.94
777.07	232.85
777.39	232.80
777.72	232.70
778.04	232.60
778.36	232.56
778.69	232.48
779.01	232.42
779.33	232.25
779.66	232.08
779.98	232.01
780.31	231.95
780.63	231.95
780.95	231.90
781.28	231.87
781.60	231.80
781.92	231.72
782.25	231.68
782.57	231.59
782.89	231.52
783.22	231.50
783.54	231.42
783.86	231.37
784.19	231.30
784.51	231.29
784.83	231.25
785.16	231.15
785.48	231.10
785.80	231.07
786.12	231.04
786.45	230.98
786.77	230.93
787.09	230.88
787.42	230.76
787.74	230.73
788.06	230.67
788.38	230.62
788.71	230.58
789.03	230.54
789.35	230.54
789.67	230.51
789.99	230.47
790.32	230.43
790.64	230.40
790.96	230.43
791.28	230.33
791.61	230.27
791.93	230.24
792.25	230.20
792.57	230.24
792.89	230.17
793.21	230.13
793.54	230.12
793.86	230.08
794.18	230.02
794.50	229.95
794.82	229.92
795.14	229.91
795.47	229.88
795.79	229.84
796.11	229.76
796.43	229.72
796.75	229.68
797.07	229.65
797.39	229.58
797.71	229.47
798.04	229.45
798.36	229.44
798.68	229.40
799.00	229.32
799.32	229.21
799.64	229.22
799.96	229.18
800.28	229.13
800.60	229.06
800.92	229.08
801.24	229.04
801.56	229.01
801.89	228.96
802.21	228.92
802.53	228.86
802.85	228.86
803.17	228.88
803.49	228.84
803.81	228.79
804.13	228.75
804.45	228.73
804.77	228.70
805.09	228.68
805.41	228.62
805.73	228.60
806.05	228.57
806.37	228.51
806.69	228.48
807.01	228.44
807.33	228.44
807.65	228.35
807.97	228.40
808.28	228.33
808.60	228.32
808.92	228.25
809.24	228.29
809.56	228.24
809.88	228.19
810.20	228.15
810.52	228.17
810.84	228.15
811.16	228.11
811.48	228.07
811.80	228.06
812.12	228.07
812.43	228.08
812.75	228.02
813.07	228.02
813.39	227.99
813.71	227.98
814.03	227.94
814.35	227.94
814.67	227.84
814.98	227.84
815.30	227.79
815.62	227.81
815.94	227.71
816.26	227.73
816.58	227.66
816.89	227.67
817.21	227.59
817.53	227.58
817.85	227.58
818.17	227.59
818.48	227.56
818.80	227.55
819.12	227.51
819.44	227.50
819.76	227.46
820.07	227.47
820.39	227.41
820.71	227.39
821.03	227.37
821.34	227.36
821.66	227.34
821.98	227.37
822.30	227.32
822.61	227.36
822.93	227.33
823.25	227.34
823.57	227.31
823.88	227.36
824.20	227.34
824.52	227.35
824.83	227.30
825.15	227.27
825.47	227.25
825.79	227.25
826.10	227.26
826.42	227.26
826.74	227.24
827.05	227.23
827.37	227.25
827.69	227.25
828.00	227.27
828.32	227.30
828.64	227.28
828.95	227.35
829.27	227.32
829.58	227.32
829.90	227.34
830.22	227.34
830.53	227.27
830.85	227.28
831.17	227.25
831.48	227.25
831.80	227.24
832.11	227.22
832.43	227.21
832.75	227.17
833.06	227.20
833.38	227.16
833.69	227.17
834.01	227.15
834.32	227.15
834.64	227.13
834.96	227.10
835.27	227.07
835.59	227.02
835.90	227.02
836.22	226.99
836.53	226.92
836.85	226.92
837.16	227.04
837.48	226.99
837.79	227.02
838.11	227.02
838.42	227.00
838.74	227.02
839.05	226.99
839.37	226.99
839.68	226.93
840.00	226.95
840.31	226.97
840.63	226.96
840.94	226.94
841.26	226.93
841.57	226.91
841.88	226.91
842.20	226.89
842.51	226.85
842.83	226.84
843.14	226.95
843.46	226.94
843.77	226.87
844.08	226.85
844.40	226.82
844.71	226.82
845.03	226.81
845.34	226.81
845.65	226.82
845.97	226.82
846.28	226.81
846.60	226.81
846.91	226.77
847.22	226.73
847.54	226.74
847.85	226.74
848.16	226.75
848.48	226.75
848.79	226.77
849.10	226.79
849.42	226.77
849.73	226.66
850.04	226.63
850.36	226.60
850.67	226.66
850.98	226.64
851.30	226.62
851.61	226.60
851.92	226.58
852.23	226.61
852.55	226.61
852.86	226.61
853.17	226.61
853.49	226.66
853.80	226.71
854.11	226.74
854.42	226.76
854.74	226.75
855.05	226.75
855.36	226.70
855.67	226.72
855.99	226.73
856.30	226.84
856.61	226.82
856.92	226.81
857.23	226.79
857.55	226.78
857.86	226.79
858.17	226.81
858.48	226.80
858.79	226.79
859.11	226.78
859.42	226.77
859.73	226.75
860.04	226.75
860.35	226.73
860.66	226.69
860.98	226.68
861.29	226.67
861.60	226.66
861.91	226.70
862.22	226.70
862.53	226.70
862.84	226.59
863.16	226.63
863.47	226.62
863.78	226.62
864.09	226.67
864.40	226.68
864.71	226.69
865.02	226.70
865.33	226.69
865.64	226.70
865.95	226.72
866.27	226.78
866.58	226.75
866.89	226.74
867.20	226.74
867.51	226.72
867.82	226.73
868.13	226.77
868.44	226.75
868.75	226.76
869.06	226.77
869.37	226.80
869.68	226.75
869.99	226.79
870.30	226.80
870.61	226.78
870.92	226.74
871.23	226.76
871.54	226.76
871.85	226.78
872.16	226.80
872.47	226.80
872.78	226.76
873.09	226.75
873.40	226.74
873.71	226.73
874.02	226.74
874.33	226.69
874.64	226.67
874.95	226.65
875.26	226.62
875.56	226.61
875.87	226.59
876.18	226.63
876.49	226.72
876.80	226.69
877.11	226.67
877.42	226.67
877.73	226.64
878.04	226.63
878.35	226.61
878.66	226.59
878.96	226.57
879.27	226.58
879.58	226.56
879.89	226.57
880.20	226.61
880.51	226.60
880.82	226.62
881.12	226.61
881.43	226.58
881.74	226.56
882.05	226.55
882.36	226.55
882.67	226.54
882.97	226.43
883.28	226.43
883.59	226.40
883.90	226.40
884.21	226.40
884.51	226.36
884.82	226.36
885.13	226.34
885.44	226.33
885.74	226.32
886.05	226.31
886.36	226.29
886.67	226.22
886.98	226.25
887.28	226.23
887.59	226.21
887.90	226.21
888.20	226.20
888.51	226.22
888.82	226.19
889.13	226.18
889.43	226.22
889.74	226.21
890.05	226.22
890.35	226.21
890.66	226.20
890.97	226.23
891.28	226.23
891.58	226.23
891.89	226.23
892.20	226.21
892.50	226.22
892.81	226.24
893.12	226.25
893.42	226.24
893.73	226.25
894.04	226.26
894.34	226.27
894.65	226.29
894.95	226.27
895.26	226.31
895.57	226.36
895.87	226.32
896.18	226.35
896.48	226.38
896.79	226.39
897.10	226.45
897.40	226.42
897.71	226.42
898.01	226.40
898.32	226.41
898.63	226.41
898.93	226.41
899.24	226.39
899.54	226.38
899.85	226.37
900.15	226.35
900.46	226.36
900.76	226.36
901.07	226.38
901.38	226.38
901.68	226.35
901.99	226.28
902.29	226.29
902.60	226.27
902.90	226.25
903.21	226.25
903.51	226.23
903.82	226.30
904.12	226.31
904.43	226.33
904.73	226.35
905.03	226.38
905.34	226.46
905.64	226.44
905.95	226.43
906.25	226.42
906.56	226.45
906.86	226.45
907.17	226.45
907.47	226.45
907.77	226.42
908.08	226.42
908.38	226.44
908.69	226.40
908.99	226.39
909.30	226.40
909.60	226.40
909.90	226.35
910.21	226.30
910.51	226.29
910.81	226.26
911.12	226.26
911.42	226.24
911.73	226.14
912.03	226.15
912.33	226.21
912.64	226.20
912.94	226.18
913.24	226.16
913.55	226.14
913.85	226.13
914.15	226.18
914.46	226.16
914.76	226.15
915.06	226.15
915.37	226.15
915.67	226.13
915.97	226.12
916.27	226.14
916.58	226.13
916.88	226.11
917.18	226.13
917.49	226.18
917.79	226.16
918.09	226.18
918.39	226.18
918.70	226.14
919.00	226.12
919.30	226.17
919.60	226.16
919.91	226.16
920.21	226.10
920.51	226.04
920.81	226.05
921.12	226.05
921.42	226.06
921.72	226.05
922.02	226.06
922.32	226.08
922.63	226.07
922.93	226.11
923.23	226.08
923.53	226.05
923.83	225.98
924.13	225.99
924.44	225.97
924.74	225.99
925.04	225.99
925.34	226.02
925.64	225.96
925.94	225.98
926.24	226.03
926.55	226.06
926.85	226.08
927.15	226.06
927.45	226.08
927.75	226.09
928.05	226.10
928.35	226.08
928.65	226.12
928.95	226.12
929.26	226.09
929.56	226.17
929.86	226.17
930.16	226.18
930.46	226.18
930.76	226.18
931.06	226.14
931.36	226.13
931.66	226.15
931.96	226.20
932.26	226.19
932.56	226.18
932.86	226.20
933.16	226.23
933.46	226.23
933.76	226.20
934.06	226.23
934.36	226.23
934.66	226.22
934.96	226.19
935.26	226.25
935.56	226.27
935.86	226.24
936.16	226.26
936.46	226.23
936.76	226.24
937.06	226.23
937.36	226.28
937.66	226.28
937.96	226.26
938.26	226.24
938.56	226.23
938.86	226.23
939.16	226.25
939.46	226.25
939.76	226.26
940.06	226.27
940.35	226.26
940.65	226.26
940.95	226.27
941.25	226.27
941.55	226.19
941.85	226.17
942.15	226.18
942.45	226.22
942.75	226.21
943.04	226.22
943.34	226.25
943.64	226.21
943.94	226.20
944.24	226.20
944.54	226.21
944.84	226.21
945.13	226.18
945.43	226.15
945.73	226.11
946.03	226.08
946.33	226.07
946.62	226.01
946.92	225.96
947.22	225.95
947.52	225.95
947.82	225.95
948.11	225.96
948.41	225.89
948.71	225.83
949.01	225.82
949.31	225.79
949.60	225.78
949.90	225.81
950.20	225.79
950.50	225.78
950.79	225.77
951.09	225.76
951.39	225.76
951.69	225.76
951.98	225.84
952.28	225.88
952.58	225.87
952.87	225.92
953.17	225.95
953.47	225.95
953.76	225.93
954.06	225.91
954.36	225.87
954.66	225.89
954.95	225.90
955.25	225.97
955.55	226.01
955.84	225.98
956.14	226.00
956.44	226.04
956.73	226.04
957.03	226.02
957.32	226.04
957.62	226.04
957.92	226.04
958.21	226.00
958.51	226.07
958.81	226.07
959.10	226.07
959.40	226.09
959.69	226.11
959.99	226.12
960.29	226.14
960.58	226.16
960.88	226.21
961.17	226.21
961.47	226.20
961.76	226.15
962.06	226.18
962.36	226.16
962.65	226.16
962.95	226.12
963.24	226.12
963.54	226.12
963.83	226.10
964.13	226.11
964.42	226.10
964.72	226.06
965.01	226.03
965.31	226.03
965.60	226.02
965.90	226.05
966.19	226.02
966.49	226.04
966.78	226.05
967.08	226.02
967.37	226.04
967.67	226.01
967.96	226.06
968.26	226.06
968.55	226.05
968.85	226.03
969.14	226.04
969.43	226.03
969.73	226.03
970.02	226.05
970.32	226.03
970.61	226.01
970.91	225.97
971.20	226.00
971.49	225.96
971.79	225.97
972.08	225.92
972.38	225.94
972.67	225.93
972.96	225.94
973.26	225.94
973.55	225.94
973.85	225.93
974.14	225.90
974.43	225.89
974.73	225.88
975.02	225.86
975.31	225.89
975.61	225.91
975.90	225.92
976.19	225.92
976.49	225.95
976.78	225.95
977.07	225.97
977.37	225.99
977.66	226.02
977.95	226.01
978.24	226.02
978.54	226.06
978.83	226.08
979.12	226.06
979.42	226.07
979.71	226.08
980.00	226.11
980.29	226.14
980.59	226.14
980.88	226.18
981.17	226.26
981.46	226.25
981.76	226.26
982.05	226.28
982.34	226.28
982.63	226.28
982.93	226.32
983.22	226.30
983.51	226.31
983.80	226.29
984.09	226.33
984.39	226.34
984.68	226.31
984.97	226.29
985.26	226.29
985.55	226.28
985.85	226.22
986.14	226.22
986.43	226.21
986.72	226.19
987.01	226.14
987.30	226.10
987.59	226.06
987.89	226.07
988.18	226.04
988.47	226.01
988.76	226.00
989.05	225.96
989.34	225.96
989.63	225.98
989.92	225.99
990.22	225.95
990.51	225.92
990.80	225.89
991.09	225.88
991.38	225.86
991.67	225.84
991.96	225.86
992.25	225.88
992.54	225.84
992.83	225.83
993.12	225.84
993.41	225.82
993.70	225.88
993.99	225.88
994.28	225.90
994.58	225.93
994.87	225.89
995.16	225.90
995.45	225.87
995.74	225.83
996.03	225.81
996.32	225.80
996.61	225.83
996.90	225.83
997.19	225.86
997.48	225.88
997.77	225.86
998.06	225.87
998.34	225.81
998.63	225.81
998.92	225.82
999.21	225.80
999.50	225.83
999.79	225.78
1000.08	225.78
1000.37	225.73
1000.66	225.67
1000.95	225.71
1001.24	225.70
1001.53	225.72
1001.82	225.70
1002.11	225.69
1002.40	225.69
1002.68	225.70
1002.97	225.77
1003.26	225.75
1003.55	225.75
1003.84	225.74
1004.13	225.75
1004.42	225.78
1004.71	225.79
1004.99	225.76
1005.28	225.79
1005.57	225.77
1005.86	225.75
1006.15	225.75
1006.44	225.77
1006.72	225.81
1007.01	225.76
1007.30	225.77
1007.59	225.77
1007.88	225.79
1008.17	225.76
1008.45	225.75
1008.74	225.69
1009.03	225.63
1009.32	225.63
1009.60	225.62
1009.89	225.64
1010.18	225.61
1010.47	225.62
1010.76	225.61
1011.04	225.62
1011.33	225.64
1011.62	225.65
1011.91	225.71
1012.19	225.73
1012.48	225.72
1012.77	225.71
1013.05	225.80
1013.34	225.78
1013.63	225.79
1013.92	225.77
1014.20	225.82
1014.49	225.84
1014.78	225.89
1015.06	225.90
1015.35	225.89
1015.64	225.90
1015.92	225.93
1016.21	225.91
1016.50	225.90
1016.78	225.92
1017.07	225.95
1017.36	225.94
1017.64	225.91
1017.93	225.90
1018.22	225.88
1018.50	225.89
1018.79	225.90
1019.08	225.85
1019.36	225.87
1019.65	225.85
1019.93	225.90
1020.22	225.93
1020.51	225.98
1020.79	225.96
1021.08	225.91
1021.36	225.87
1021.65	225.83
1021.94	225.89
1022.22	225.91
1022.51	225.46
1022.79	226.68
1023.08	226.30
1023.36	226.94
1023.65	225.74
>>>>>End Processed Spectral Data<<<<<
