SpectraSuite Data File
++++++++++++++++++++++++++++++++++++
Date: Fri Feb 01 14:51:19 EST 2013
User: group
Dark Spectrum Present: No
Reference Spectrum Present: No
Number of Sampled Component Spectra: 1
Spectrometers: USB2E7196
Integration Time (usec): 35000 (USB2E7196)
Spectra Averaged: 100 (USB2E7196)
Boxcar Smoothing: 10 (USB2E7196)
Correct for Electrical Dark: No (USB2E7196)
Strobe/Lamp Enabled: No (USB2E7196)
Correct for Detector Non-linearity: No (USB2E7196)
Correct for Stray Light: No (USB2E7196)
Number of Pixels in Processed Spectrum: 2048
>>>>>Begin Processed Spectral Data<<<<<
339.09	0.00
339.48	215.50
339.86	217.00
340.24	217.98
340.63	219.47
341.01	222.64
341.39	222.75
341.78	224.02
342.16	225.44
342.54	225.53
342.93	213.77
343.31	224.59
343.69	225.12
344.07	225.58
344.46	225.99
344.84	226.38
345.22	226.62
345.60	226.83
345.99	227.01
346.37	227.11
346.75	227.23
347.13	227.32
347.52	227.38
347.90	227.45
348.28	227.49
348.66	227.53
349.05	227.55
349.43	227.57
349.81	227.62
350.19	227.69
350.57	227.74
350.96	227.80
351.34	227.84
351.72	227.91
352.10	228.01
352.48	228.11
352.87	228.17
353.25	228.21
353.63	228.32
354.01	228.37
354.39	228.44
354.77	228.48
355.15	228.55
355.54	228.60
355.92	228.64
356.30	228.72
356.68	228.82
357.06	228.87
357.44	228.93
357.82	228.99
358.20	229.06
358.58	229.14
358.97	229.18
359.35	229.26
359.73	229.34
360.11	229.39
360.49	229.44
360.87	229.48
361.25	229.56
361.63	229.60
362.01	229.65
362.39	229.69
362.77	229.72
363.15	229.74
363.53	229.80
363.91	229.84
364.29	229.86
364.67	229.79
365.05	229.79
365.43	229.79
365.81	229.78
366.19	229.82
366.57	229.82
366.95	229.78
367.33	229.73
367.71	229.69
368.09	229.69
368.47	229.66
368.85	229.60
369.23	229.54
369.61	229.45
369.99	229.44
370.37	229.37
370.75	229.41
371.13	229.32
371.51	229.23
371.89	229.18
372.27	229.13
372.65	229.06
373.03	229.01
373.41	228.98
373.78	228.96
374.16	228.85
374.54	228.75
374.92	228.69
375.30	228.63
375.68	228.56
376.06	228.49
376.44	228.41
376.82	228.37
377.19	228.31
377.57	228.26
377.95	228.15
378.33	228.08
378.71	227.93
379.09	227.90
379.47	227.84
379.84	227.71
380.22	227.61
380.60	227.54
380.98	227.46
381.36	227.36
381.73	227.29
382.11	227.25
382.49	227.20
382.87	227.11
383.25	227.02
383.62	227.09
384.00	226.97
384.38	226.92
384.76	226.90
385.13	226.88
385.51	226.81
385.89	226.78
386.27	226.70
386.64	226.66
387.02	226.60
387.40	226.54
387.78	226.53
388.15	226.50
388.53	226.46
388.91	226.46
389.29	226.46
389.66	226.43
390.04	226.36
390.42	226.37
390.79	226.38
391.17	226.42
391.55	226.29
391.92	226.29
392.30	226.30
392.68	226.27
393.05	226.25
393.43	226.25
393.81	226.25
394.18	226.30
394.56	226.31
394.94	226.38
395.31	226.41
395.69	226.50
396.06	226.58
396.44	226.64
396.82	226.68
397.19	226.79
397.57	226.82
397.95	226.93
398.32	226.95
398.70	227.05
399.07	227.12
399.45	227.21
399.82	227.33
400.20	227.45
400.58	227.53
400.95	227.61
401.33	227.73
401.70	227.92
402.08	228.08
402.45	228.21
402.83	228.33
403.20	228.48
403.58	228.57
403.95	228.72
404.33	228.86
404.71	229.01
405.08	229.19
405.46	229.34
405.83	229.49
406.21	229.63
406.58	229.79
406.96	229.98
407.33	230.15
407.70	230.37
408.08	230.61
408.45	230.84
408.83	231.12
409.20	231.33
409.58	231.52
409.95	231.72
410.33	232.02
410.70	232.28
411.08	232.58
411.45	232.91
411.82	233.21
412.20	233.54
412.57	233.94
412.95	234.22
413.32	234.63
413.69	235.06
414.07	235.51
414.44	235.97
414.82	236.41
415.19	236.99
415.56	237.51
415.94	238.07
416.31	238.72
416.68	239.29
417.06	240.02
417.43	240.73
417.81	241.47
418.18	242.22
418.55	243.04
418.93	243.90
419.30	244.75
419.67	245.67
420.04	246.64
420.42	247.60
420.79	248.77
421.16	249.88
421.54	251.07
421.91	252.29
422.28	253.55
422.66	254.87
423.03	256.13
423.40	257.46
423.77	258.83
424.15	260.21
424.52	261.70
424.89	263.29
425.26	264.82
425.64	266.26
426.01	267.83
426.38	269.48
426.75	271.12
427.13	272.82
427.50	274.63
427.87	276.49
428.24	278.34
428.61	280.11
428.99	282.06
429.36	284.12
429.73	286.20
430.10	288.21
430.47	290.28
430.85	292.40
431.22	294.61
431.59	297.01
431.96	299.26
432.33	301.73
432.70	304.09
433.08	306.89
433.45	309.55
433.82	312.16
434.19	315.06
434.56	317.89
434.93	320.58
435.30	323.17
435.68	326.07
436.05	328.91
436.42	331.71
436.79	334.26
437.16	336.92
437.53	339.75
437.90	342.57
438.27	345.32
438.64	348.16
439.01	350.80
439.38	353.02
439.75	355.18
440.13	357.66
440.50	360.03
440.87	361.83
441.24	363.80
441.61	365.92
441.98	367.42
442.35	369.25
442.72	371.11
443.09	372.95
443.46	373.95
443.83	374.55
444.20	375.03
444.57	375.88
444.94	376.22
445.31	376.57
445.68	376.93
446.05	377.02
446.42	376.64
446.79	376.25
447.16	375.81
447.53	375.55
447.90	374.40
448.27	373.22
448.64	371.67
449.01	370.52
449.37	368.62
449.74	366.72
450.11	364.45
450.48	362.04
450.85	359.47
451.22	357.32
451.59	355.29
451.96	353.37
452.33	350.74
452.70	348.42
453.07	345.58
453.43	342.72
453.80	339.95
454.17	337.27
454.54	334.71
454.91	332.00
455.28	329.34
455.65	326.89
456.02	324.50
456.38	322.37
456.75	319.72
457.12	317.46
457.49	315.23
457.86	313.11
458.23	311.24
458.59	309.22
458.96	307.17
459.33	305.34
459.70	303.49
460.07	302.00
460.43	300.23
460.80	298.62
461.17	297.17
461.54	295.66
461.91	294.26
462.27	292.78
462.64	291.53
463.01	290.14
463.38	288.84
463.74	287.43
464.11	286.27
464.48	285.25
464.85	284.13
465.21	283.25
465.58	282.28
465.95	281.19
466.32	280.30
466.68	279.37
467.05	278.45
467.42	277.53
467.78	276.56
468.15	275.68
468.52	274.99
468.88	274.08
469.25	273.33
469.62	272.66
469.98	271.97
470.35	271.29
470.72	270.67
471.08	270.00
471.45	269.45
471.82	268.88
472.18	268.25
472.55	267.77
472.92	267.25
473.28	266.79
473.65	266.29
474.02	265.80
474.38	265.41
474.75	265.08
475.11	264.73
475.48	264.46
475.85	264.22
476.21	263.95
476.58	263.78
476.94	263.60
477.31	263.40
477.67	263.23
478.04	263.13
478.41	263.07
478.77	263.08
479.14	262.99
479.50	263.01
479.87	263.06
480.23	263.13
480.60	263.17
480.96	263.23
481.33	263.44
481.69	263.64
482.06	263.84
482.42	264.05
482.79	264.29
483.15	264.59
483.52	264.98
483.88	265.35
484.25	265.72
484.61	266.14
484.98	266.60
485.34	267.16
485.71	267.72
486.07	268.36
486.44	268.94
486.80	269.66
487.17	270.33
487.53	271.16
487.90	272.01
488.26	272.94
488.62	273.89
488.99	274.84
489.35	275.83
489.72	276.93
490.08	278.14
490.44	279.39
490.81	280.71
491.17	282.02
491.54	283.48
491.90	284.98
492.26	286.61
492.63	288.33
492.99	290.06
493.36	291.96
493.72	293.97
494.08	296.04
494.45	298.25
494.81	300.64
495.17	303.03
495.54	305.61
495.90	308.26
496.26	311.07
496.63	314.03
496.99	317.17
497.35	320.41
497.72	323.78
498.08	327.27
498.44	330.95
498.80	334.89
499.17	338.89
499.53	343.03
499.89	347.34
500.26	351.83
500.62	356.50
500.98	361.45
501.34	366.45
501.71	371.81
502.07	377.25
502.43	382.82
502.79	388.62
503.16	394.63
503.52	400.83
503.88	407.18
504.24	413.75
504.60	420.57
504.97	427.62
505.33	434.91
505.69	442.51
506.05	450.17
506.41	457.95
506.78	466.06
507.14	474.50
507.50	483.18
507.86	492.14
508.22	501.29
508.59	510.45
508.95	520.01
509.31	529.71
509.67	539.67
510.03	549.87
510.39	560.39
510.75	571.15
511.12	582.07
511.48	593.29
511.84	604.71
512.20	616.18
512.56	628.16
512.92	640.33
513.28	652.66
513.64	665.17
514.00	677.85
514.37	690.74
514.73	703.76
515.09	716.76
515.45	730.00
515.81	743.57
516.17	757.45
516.53	771.56
516.89	785.73
517.25	799.96
517.61	814.48
517.97	828.93
518.33	843.36
518.69	858.17
519.05	873.19
519.41	888.35
519.77	903.90
520.13	919.29
520.49	934.55
520.85	950.00
521.21	965.72
521.57	982.00
521.93	997.83
522.29	1014.25
522.65	1030.57
523.01	1046.89
523.37	1063.00
523.73	1079.33
524.09	1095.46
524.45	1111.87
524.81	1128.50
525.17	1145.34
525.53	1162.20
525.89	1179.05
526.25	1195.94
526.61	1212.42
526.97	1229.19
527.33	1245.78
527.68	1262.40
528.04	1279.05
528.40	1295.75
528.76	1312.84
529.12	1329.56
529.48	1346.43
529.84	1362.49
530.20	1379.20
530.56	1396.19
530.91	1413.57
531.27	1430.34
531.63	1446.83
531.99	1463.37
532.35	1479.51
532.71	1495.41
533.07	1511.91
533.42	1527.83
533.78	1543.93
534.14	1560.34
534.50	1575.79
534.86	1591.64
535.21	1606.91
535.57	1622.95
535.93	1638.53
536.29	1653.33
536.65	1668.45
537.00	1683.47
537.36	1698.96
537.72	1713.59
538.08	1728.14
538.44	1741.97
538.79	1755.90
539.15	1769.73
539.51	1783.66
539.87	1798.03
540.22	1811.93
540.58	1825.56
540.94	1839.03
541.29	1852.10
541.65	1864.83
542.01	1878.23
542.37	1890.65
542.72	1903.23
543.08	1915.01
543.44	1927.39
543.79	1938.82
544.15	1949.80
544.51	1961.22
544.87	1972.18
545.22	1982.90
545.58	1993.09
545.94	2002.96
546.29	2012.90
546.65	2022.62
547.01	2031.81
547.36	2040.63
547.72	2048.99
548.07	2056.82
548.43	2065.03
548.79	2072.97
549.14	2080.49
549.50	2087.87
549.86	2095.52
550.21	2102.75
550.57	2109.98
550.92	2116.49
551.28	2123.51
551.64	2130.55
551.99	2137.05
552.35	2143.08
552.70	2149.33
553.06	2155.19
553.41	2161.41
553.77	2167.25
554.13	2173.18
554.48	2179.13
554.84	2184.26
555.19	2189.34
555.55	2194.41
555.90	2198.76
556.26	2203.49
556.61	2208.10
556.97	2212.10
557.32	2216.12
557.68	2220.15
558.03	2224.12
558.39	2227.72
558.74	2232.15
559.10	2235.93
559.45	2239.37
559.81	2243.70
560.16	2247.32
560.52	2250.39
560.87	2253.76
561.23	2256.46
561.58	2259.39
561.94	2261.84
562.29	2264.18
562.64	2266.83
563.00	2269.43
563.35	2272.83
563.71	2275.76
564.06	2278.58
564.42	2281.38
564.77	2283.64
565.12	2285.68
565.48	2287.57
565.83	2289.14
566.19	2290.13
566.54	2290.84
566.89	2291.97
567.25	2292.38
567.60	2293.37
567.96	2294.92
568.31	2295.47
568.66	2296.32
569.02	2296.75
569.37	2296.87
569.72	2297.48
570.08	2297.43
570.43	2297.15
570.78	2296.18
571.14	2294.33
571.49	2292.98
571.84	2292.40
572.20	2291.03
572.55	2289.82
572.90	2287.96
573.26	2286.43
573.61	2284.67
573.96	2282.62
574.31	2279.39
574.67	2276.04
575.02	2272.20
575.37	2268.57
575.72	2264.49
576.08	2260.92
576.43	2257.32
576.78	2253.56
577.13	2250.21
577.49	2246.95
577.84	2243.25
578.19	2239.49
578.54	2235.66
578.90	2231.17
579.25	2225.46
579.60	2220.38
579.95	2215.08
580.30	2209.94
580.66	2204.57
581.01	2199.45
581.36	2194.28
581.71	2189.81
582.06	2185.10
582.42	2180.62
582.77	2175.18
583.12	2170.58
583.47	2165.74
583.82	2160.66
584.17	2155.32
584.53	2149.55
584.88	2143.72
585.23	2137.79
585.58	2132.23
585.93	2126.70
586.28	2121.72
586.63	2116.50
586.98	2111.25
587.34	2106.38
587.69	2101.35
588.04	2096.05
588.39	2090.07
588.74	2083.58
589.09	2077.35
589.44	2070.62
589.79	2064.39
590.14	2058.63
590.49	2051.91
590.84	2045.19
591.19	2038.83
591.54	2032.00
591.89	2024.58
592.25	2017.57
592.60	2010.25
592.95	2002.64
593.30	1995.19
593.65	1987.35
594.00	1980.05
594.35	1972.65
594.70	1964.72
595.05	1957.30
595.40	1949.84
595.75	1942.41
596.10	1936.10
596.45	1929.21
596.80	1922.67
597.15	1915.87
597.50	1908.64
597.85	1902.14
598.19	1895.56
598.54	1888.48
598.89	1881.91
599.24	1875.89
599.59	1869.20
599.94	1862.98
600.29	1856.45
600.64	1849.73
600.99	1842.44
601.34	1835.69
601.69	1828.77
602.04	1821.66
602.39	1814.40
602.74	1807.61
603.08	1800.94
603.43	1794.18
603.78	1786.92
604.13	1779.72
604.48	1772.48
604.83	1765.76
605.18	1758.65
605.53	1750.55
605.87	1742.57
606.22	1735.47
606.57	1727.72
606.92	1720.46
607.27	1713.25
607.62	1706.28
607.96	1699.09
608.31	1692.49
608.66	1684.78
609.01	1677.26
609.36	1669.90
609.70	1661.98
610.05	1654.11
610.40	1646.40
610.75	1638.09
611.10	1630.52
611.44	1622.53
611.79	1614.52
612.14	1605.86
612.49	1596.89
612.83	1588.70
613.18	1580.75
613.53	1572.69
613.88	1564.15
614.22	1555.96
614.57	1547.44
614.92	1539.60
615.27	1532.13
615.61	1523.83
615.96	1516.02
616.31	1508.52
616.65	1501.13
617.00	1493.58
617.35	1485.82
617.70	1477.51
618.04	1469.08
618.39	1460.92
618.74	1453.20
619.08	1445.10
619.43	1437.65
619.78	1430.82
620.12	1423.70
620.47	1416.18
620.82	1407.99
621.16	1400.68
621.51	1393.17
621.85	1385.73
622.20	1377.30
622.55	1369.04
622.89	1361.39
623.24	1353.94
623.59	1346.67
623.93	1339.27
624.28	1332.05
624.62	1324.73
624.97	1317.72
625.32	1311.10
625.66	1304.20
626.01	1297.15
626.35	1289.78
626.70	1282.10
627.04	1274.52
627.39	1266.95
627.73	1259.71
628.08	1252.81
628.43	1245.54
628.77	1238.28
629.12	1230.76
629.46	1223.70
629.81	1216.50
630.15	1209.38
630.50	1201.95
630.84	1193.81
631.19	1185.94
631.53	1178.56
631.88	1171.02
632.22	1163.51
632.57	1156.30
632.91	1148.83
633.26	1141.53
633.60	1134.23
633.95	1127.27
634.29	1120.23
634.64	1113.59
634.98	1106.32
635.32	1099.39
635.67	1093.02
636.01	1086.46
636.36	1079.76
636.70	1073.32
637.05	1066.72
637.39	1060.35
637.73	1054.00
638.08	1048.24
638.42	1042.48
638.77	1036.15
639.11	1029.59
639.45	1023.29
639.80	1016.67
640.14	1010.32
640.49	1003.78
640.83	997.64
641.17	991.54
641.52	985.38
641.86	979.03
642.20	973.25
642.55	967.08
642.89	960.57
643.23	954.09
643.58	948.39
643.92	942.22
644.26	936.25
644.61	930.22
644.95	924.18
645.29	917.64
645.64	910.91
645.98	904.62
646.32	899.01
646.66	893.04
647.01	887.37
647.35	881.79
647.69	876.07
648.04	870.58
648.38	864.79
648.72	858.85
649.06	852.79
649.41	846.98
649.75	841.01
650.09	835.14
650.43	829.43
650.78	823.32
651.12	817.41
651.46	811.77
651.80	806.13
652.14	800.83
652.49	795.48
652.83	790.32
653.17	784.70
653.51	778.94
653.85	773.54
654.20	767.95
654.54	761.99
654.88	756.28
655.22	750.44
655.56	744.84
655.90	739.42
656.25	734.26
656.59	728.94
656.93	723.89
657.27	718.74
657.61	713.34
657.95	708.32
658.29	703.30
658.64	698.11
658.98	692.88
659.32	687.51
659.66	682.39
660.00	677.20
660.34	672.30
660.68	667.48
661.02	662.51
661.36	657.86
661.70	653.40
662.05	649.15
662.39	644.90
662.73	640.56
663.07	636.28
663.41	631.94
663.75	627.47
664.09	622.94
664.43	618.67
664.77	614.61
665.11	610.46
665.45	606.40
665.79	602.41
666.13	598.36
666.47	594.32
666.81	590.20
667.15	586.11
667.49	582.26
667.83	578.48
668.17	574.64
668.51	570.62
668.85	566.71
669.19	562.91
669.53	559.13
669.87	555.31
670.21	551.67
670.55	548.09
670.89	544.77
671.23	541.41
671.57	537.96
671.91	534.53
672.25	531.07
672.58	527.65
672.92	524.23
673.26	521.09
673.60	518.03
673.94	514.98
674.28	512.13
674.62	509.32
674.96	506.30
675.30	503.46
675.64	500.60
675.97	497.84
676.31	495.07
676.65	492.13
676.99	489.38
677.33	486.51
677.67	483.73
678.01	480.66
678.34	477.71
678.68	474.90
679.02	472.11
679.36	469.36
679.70	466.66
680.04	463.97
680.37	461.12
680.71	458.35
681.05	455.82
681.39	453.13
681.73	450.51
682.06	447.96
682.40	445.41
682.74	442.91
683.08	440.39
683.42	437.82
683.75	435.39
684.09	432.89
684.43	430.50
684.77	428.06
685.10	425.78
685.44	423.48
685.78	421.20
686.12	418.98
686.45	416.73
686.79	414.43
687.13	412.26
687.46	410.17
687.80	408.00
688.14	405.75
688.48	403.74
688.81	401.46
689.15	399.37
689.49	397.22
689.82	395.14
690.16	393.07
690.50	391.09
690.83	389.18
691.17	387.24
691.51	385.33
691.84	383.51
692.18	381.58
692.52	379.62
692.85	377.71
693.19	375.89
693.52	374.10
693.86	372.28
694.20	370.54
694.53	368.73
694.87	366.94
695.21	365.19
695.54	363.36
695.88	361.69
696.21	360.00
696.55	358.35
696.88	356.70
697.22	355.08
697.56	353.49
697.89	351.81
698.23	350.27
698.56	348.71
698.90	347.15
699.23	345.54
699.57	344.03
699.90	342.51
700.24	340.98
700.58	339.45
700.91	338.02
701.25	336.60
701.58	335.26
701.92	333.88
702.25	332.49
702.59	331.17
702.92	329.86
703.26	328.59
703.59	327.33
703.93	326.12
704.26	324.91
704.60	323.64
704.93	322.41
705.26	321.19
705.60	320.01
705.93	318.84
706.27	317.86
706.60	316.83
706.94	315.78
707.27	314.67
707.61	313.65
707.94	312.66
708.27	311.55
708.61	310.46
708.94	309.48
709.28	308.55
709.61	307.60
709.94	306.67
710.28	305.66
710.61	304.71
710.95	303.66
711.28	302.78
711.61	301.88
711.95	301.02
712.28	300.04
712.61	299.05
712.95	298.13
713.28	297.25
713.61	296.35
713.95	295.43
714.28	294.62
714.61	293.74
714.95	292.90
715.28	292.03
715.61	291.16
715.95	290.28
716.28	289.43
716.61	288.62
716.95	287.78
717.28	287.04
717.61	286.27
717.94	285.58
718.28	284.76
718.61	284.03
718.94	283.28
719.27	282.67
719.61	282.06
719.94	281.45
720.27	280.74
720.60	280.12
720.94	279.49
721.27	278.86
721.60	278.33
721.93	277.69
722.27	277.17
722.60	276.69
722.93	276.13
723.26	275.61
723.59	275.04
723.93	274.50
724.26	273.96
724.59	273.41
724.92	272.90
725.25	272.42
725.59	271.89
725.92	271.39
726.25	270.86
726.58	270.38
726.91	269.85
727.24	269.38
727.57	268.86
727.91	268.37
728.24	267.92
728.57	267.43
728.90	267.00
729.23	266.50
729.56	266.03
729.89	265.57
730.22	265.09
730.55	264.64
730.89	264.22
731.22	263.77
731.55	263.33
731.88	262.88
732.21	262.45
732.54	262.00
732.87	261.59
733.20	261.18
733.53	260.79
733.86	260.43
734.19	260.03
734.52	259.70
734.85	259.37
735.18	258.94
735.51	258.56
735.84	258.19
736.17	257.86
736.50	257.47
736.83	257.21
737.16	256.87
737.49	256.50
737.82	256.12
738.15	255.79
738.48	255.48
738.81	255.17
739.14	254.84
739.47	254.54
739.80	254.26
740.13	253.96
740.46	253.63
740.79	253.29
741.12	252.99
741.45	252.68
741.78	252.37
742.11	252.12
742.44	251.79
742.77	251.53
743.10	251.26
743.43	250.95
743.75	250.64
744.08	250.47
744.41	250.20
744.74	249.93
745.07	249.66
745.40	249.40
745.73	249.13
746.06	248.88
746.39	248.63
746.71	248.33
747.04	248.06
747.37	247.81
747.70	247.59
748.03	247.32
748.36	247.11
748.68	246.89
749.01	246.65
749.34	246.46
749.67	246.23
750.00	245.96
750.33	245.82
750.65	245.61
750.98	245.30
751.31	245.14
751.64	244.96
751.97	244.78
752.29	244.56
752.62	244.32
752.95	244.08
753.28	243.87
753.60	243.67
753.93	243.51
754.26	243.35
754.59	243.09
754.91	242.92
755.24	242.72
755.57	242.51
755.90	242.29
756.22	242.09
756.55	241.91
756.88	241.73
757.20	241.50
757.53	241.29
757.86	241.11
758.19	240.95
758.51	240.77
758.84	240.56
759.17	240.38
759.49	240.23
759.82	240.12
760.15	239.96
760.47	239.82
760.80	239.62
761.13	239.45
761.45	239.32
761.78	239.14
762.11	238.99
762.43	238.85
762.76	238.73
763.08	238.61
763.41	238.44
763.74	238.28
764.06	238.14
764.39	238.02
764.71	237.88
765.04	237.71
765.37	237.57
765.69	237.46
766.02	237.34
766.34	237.18
766.67	237.07
767.00	236.97
767.32	236.89
767.65	236.87
767.97	236.75
768.30	236.65
768.62	236.52
768.95	236.39
769.27	236.24
769.60	236.15
769.92	236.02
770.25	235.91
770.57	235.81
770.90	235.69
771.22	235.58
771.55	235.49
771.87	235.41
772.20	235.29
772.52	235.26
772.85	235.27
773.17	235.19
773.50	235.07
773.82	234.97
774.15	234.85
774.47	234.64
774.80	234.53
775.12	234.42
775.45	234.38
775.77	234.28
776.09	234.25
776.42	234.14
776.74	234.08
777.07	234.00
777.39	233.96
777.72	233.90
778.04	233.85
778.36	233.78
778.69	233.69
779.01	233.66
779.33	233.52
779.66	233.36
779.98	233.28
780.31	233.22
780.63	233.21
780.95	233.15
781.28	233.13
781.60	233.06
781.92	232.98
782.25	232.93
782.57	232.91
782.89	232.82
783.22	232.76
783.54	232.69
783.86	232.65
784.19	232.58
784.51	232.57
784.83	232.49
785.16	232.44
785.48	232.40
785.80	232.35
786.12	232.32
786.45	232.28
786.77	232.27
787.09	232.21
787.42	232.09
787.74	232.07
788.06	232.02
788.38	231.99
788.71	231.98
789.03	231.90
789.35	231.88
789.67	231.87
789.99	231.86
790.32	231.80
790.64	231.76
790.96	231.79
791.28	231.69
791.61	231.67
791.93	231.63
792.25	231.60
792.57	231.64
792.89	231.57
793.21	231.51
793.54	231.45
793.86	231.40
794.18	231.38
794.50	231.33
794.82	231.27
795.14	231.24
795.47	231.23
795.79	231.23
796.11	231.17
796.43	231.13
796.75	231.07
797.07	231.08
797.39	231.07
797.71	230.99
798.04	230.96
798.36	230.93
798.68	230.92
799.00	230.91
799.32	230.84
799.64	230.86
799.96	230.83
800.28	230.85
800.60	230.83
800.92	230.81
801.24	230.76
801.56	230.75
801.89	230.72
802.21	230.68
802.53	230.63
802.85	230.64
803.17	230.62
803.49	230.59
803.81	230.52
804.13	230.47
804.45	230.41
804.77	230.41
805.09	230.37
805.41	230.36
805.73	230.31
806.05	230.23
806.37	230.16
806.69	230.12
807.01	230.07
807.33	230.05
807.65	230.01
807.97	230.02
808.28	230.00
808.60	229.98
808.92	229.97
809.24	230.00
809.56	229.94
809.88	229.91
810.20	229.88
810.52	229.90
810.84	229.86
811.16	229.85
811.48	229.78
811.80	229.81
812.12	229.72
812.43	229.69
812.75	229.67
813.07	229.64
813.39	229.62
813.71	229.59
814.03	229.60
814.35	229.59
814.67	229.54
814.98	229.53
815.30	229.50
815.62	229.40
815.94	229.30
816.26	229.33
816.58	229.27
816.89	229.26
817.21	229.18
817.53	229.17
817.85	229.14
818.17	229.14
818.48	229.10
818.80	229.13
819.12	229.11
819.44	229.08
819.76	229.07
820.07	229.05
820.39	229.05
820.71	229.02
821.03	228.99
821.34	228.94
821.66	228.94
821.98	228.93
822.30	228.98
822.61	229.04
822.93	228.97
823.25	229.00
823.57	228.98
823.88	229.04
824.20	229.04
824.52	229.04
824.83	229.04
825.15	228.99
825.47	228.98
825.79	228.98
826.10	228.94
826.42	228.93
826.74	228.93
827.05	228.89
827.37	228.86
827.69	228.87
828.00	228.89
828.32	228.90
828.64	228.89
828.95	228.90
829.27	228.86
829.58	228.85
829.90	228.85
830.22	228.86
830.53	228.79
830.85	228.79
831.17	228.76
831.48	228.75
831.80	228.76
832.11	228.73
832.43	228.70
832.75	228.75
833.06	228.79
833.38	228.78
833.69	228.77
834.01	228.79
834.32	228.77
834.64	228.75
834.96	228.71
835.27	228.71
835.59	228.69
835.90	228.65
836.22	228.66
836.53	228.65
836.85	228.65
837.16	228.77
837.48	228.73
837.79	228.75
838.11	228.73
838.42	228.72
838.74	228.73
839.05	228.72
839.37	228.71
839.68	228.66
840.00	228.64
840.31	228.65
840.63	228.61
840.94	228.59
841.26	228.57
841.57	228.56
841.88	228.55
842.20	228.53
842.51	228.53
842.83	228.54
843.14	228.57
843.46	228.53
843.77	228.44
844.08	228.42
844.40	228.39
844.71	228.37
845.03	228.33
845.34	228.31
845.65	228.30
845.97	228.28
846.28	228.30
846.60	228.30
846.91	228.30
847.22	228.30
847.54	228.30
847.85	228.29
848.16	228.27
848.48	228.23
848.79	228.21
849.10	228.21
849.42	228.17
849.73	228.09
850.04	228.10
850.36	228.10
850.67	228.13
850.98	228.12
851.30	228.12
851.61	228.10
851.92	228.11
852.23	228.12
852.55	228.12
852.86	228.09
853.17	228.08
853.49	228.08
853.80	228.09
854.11	228.11
854.42	228.12
854.74	228.11
855.05	228.12
855.36	228.09
855.67	228.10
855.99	228.14
856.30	228.26
856.61	228.23
856.92	228.19
857.23	228.21
857.55	228.21
857.86	228.19
858.17	228.24
858.48	228.22
858.79	228.23
859.11	228.24
859.42	228.25
859.73	228.25
860.04	228.22
860.35	228.21
860.66	228.18
860.98	228.19
861.29	228.20
861.60	228.21
861.91	228.23
862.22	228.22
862.53	228.17
862.84	228.02
863.16	228.04
863.47	228.05
863.78	228.04
864.09	228.05
864.40	228.09
864.71	228.08
865.02	228.08
865.33	228.06
865.64	228.03
865.95	228.04
866.27	228.09
866.58	228.08
866.89	228.10
867.20	228.10
867.51	228.03
867.82	228.06
868.13	228.06
868.44	228.05
868.75	228.06
869.06	228.08
869.37	228.12
869.68	228.09
869.99	228.10
870.30	228.09
870.61	228.07
870.92	228.07
871.23	228.07
871.54	228.07
871.85	228.10
872.16	228.10
872.47	228.10
872.78	228.06
873.09	228.07
873.40	228.05
873.71	228.04
874.02	228.08
874.33	228.04
874.64	228.04
874.95	228.05
875.26	228.02
875.56	228.00
875.87	228.00
876.18	227.98
876.49	228.07
876.80	228.07
877.11	228.08
877.42	228.05
877.73	228.01
878.04	228.00
878.35	227.97
878.66	227.97
878.96	227.92
879.27	227.88
879.58	227.89
879.89	227.88
880.20	227.88
880.51	227.85
880.82	227.86
881.12	227.87
881.43	227.85
881.74	227.82
882.05	227.83
882.36	227.78
882.67	227.80
882.97	227.66
883.28	227.61
883.59	227.60
883.90	227.58
884.21	227.60
884.51	227.60
884.82	227.56
885.13	227.56
885.44	227.56
885.74	227.56
886.05	227.53
886.36	227.53
886.67	227.52
886.98	227.56
887.28	227.54
887.59	227.52
887.90	227.50
888.20	227.49
888.51	227.50
888.82	227.51
889.13	227.52
889.43	227.60
889.74	227.58
890.05	227.57
890.35	227.57
890.66	227.55
890.97	227.53
891.28	227.57
891.58	227.56
891.89	227.57
892.20	227.56
892.50	227.56
892.81	227.56
893.12	227.54
893.42	227.54
893.73	227.55
894.04	227.54
894.34	227.56
894.65	227.58
894.95	227.55
895.26	227.57
895.57	227.61
895.87	227.57
896.18	227.60
896.48	227.62
896.79	227.64
897.10	227.66
897.40	227.68
897.71	227.68
898.01	227.68
898.32	227.69
898.63	227.74
898.93	227.76
899.24	227.76
899.54	227.79
899.85	227.79
900.15	227.78
900.46	227.80
900.76	227.81
901.07	227.80
901.38	227.84
901.68	227.87
901.99	227.81
902.29	227.79
902.60	227.79
902.90	227.78
903.21	227.77
903.51	227.77
903.82	227.80
904.12	227.81
904.43	227.85
904.73	227.86
905.03	227.85
905.34	227.95
905.64	227.95
905.95	227.93
906.25	227.93
906.56	227.94
906.86	227.93
907.17	227.94
907.47	227.95
907.77	227.92
908.08	227.87
908.38	227.89
908.69	227.89
908.99	227.92
909.30	227.93
909.60	227.92
909.90	227.91
910.21	227.90
910.51	227.87
910.81	227.85
911.12	227.83
911.42	227.82
911.73	227.70
912.03	227.72
912.33	227.72
912.64	227.71
912.94	227.69
913.24	227.69
913.55	227.66
913.85	227.66
914.15	227.67
914.46	227.69
914.76	227.68
915.06	227.68
915.37	227.63
915.67	227.62
915.97	227.61
916.27	227.61
916.58	227.61
916.88	227.58
917.18	227.54
917.49	227.60
917.79	227.58
918.09	227.59
918.39	227.58
918.70	227.57
919.00	227.56
919.30	227.63
919.60	227.59
919.91	227.55
920.21	227.57
920.51	227.54
920.81	227.53
921.12	227.49
921.42	227.48
921.72	227.50
922.02	227.52
922.32	227.51
922.63	227.49
922.93	227.49
923.23	227.49
923.53	227.50
923.83	227.45
924.13	227.46
924.44	227.45
924.74	227.43
925.04	227.44
925.34	227.42
925.64	227.36
925.94	227.39
926.24	227.46
926.55	227.45
926.85	227.46
927.15	227.44
927.45	227.52
927.75	227.49
928.05	227.49
928.35	227.46
928.65	227.52
928.95	227.54
929.26	227.53
929.56	227.55
929.86	227.56
930.16	227.55
930.46	227.56
930.76	227.58
931.06	227.57
931.36	227.56
931.66	227.57
931.96	227.56
932.26	227.58
932.56	227.56
932.86	227.56
933.16	227.56
933.46	227.56
933.76	227.52
934.06	227.58
934.36	227.63
934.66	227.65
934.96	227.60
935.26	227.62
935.56	227.63
935.86	227.58
936.16	227.58
936.46	227.59
936.76	227.60
937.06	227.59
937.36	227.60
937.66	227.61
937.96	227.63
938.26	227.64
938.56	227.59
938.86	227.63
939.16	227.66
939.46	227.69
939.76	227.72
940.06	227.72
940.35	227.68
940.65	227.59
940.95	227.59
941.25	227.58
941.55	227.57
941.85	227.57
942.15	227.64
942.45	227.68
942.75	227.65
943.04	227.64
943.34	227.67
943.64	227.69
943.94	227.68
944.24	227.70
944.54	227.72
944.84	227.74
945.13	227.71
945.43	227.69
945.73	227.69
946.03	227.68
946.33	227.66
946.62	227.67
946.92	227.71
947.22	227.72
947.52	227.73
947.82	227.73
948.11	227.71
948.41	227.69
948.71	227.61
949.01	227.61
949.31	227.60
949.60	227.55
949.90	227.51
950.20	227.51
950.50	227.48
950.79	227.44
951.09	227.46
951.39	227.43
951.69	227.39
951.98	227.39
952.28	227.36
952.58	227.37
952.87	227.35
953.17	227.35
953.47	227.36
953.76	227.36
954.06	227.33
954.36	227.29
954.66	227.27
954.95	227.33
955.25	227.34
955.55	227.33
955.84	227.31
956.14	227.31
956.44	227.30
956.73	227.32
957.03	227.32
957.32	227.33
957.62	227.32
957.92	227.36
958.21	227.32
958.51	227.43
958.81	227.44
959.10	227.43
959.40	227.44
959.69	227.43
959.99	227.44
960.29	227.45
960.58	227.48
960.88	227.50
961.17	227.46
961.47	227.47
961.76	227.43
962.06	227.47
962.36	227.47
962.65	227.49
962.95	227.48
963.24	227.47
963.54	227.43
963.83	227.46
964.13	227.42
964.42	227.40
964.72	227.32
965.01	227.30
965.31	227.28
965.60	227.25
965.90	227.30
966.19	227.29
966.49	227.28
966.78	227.25
967.08	227.24
967.37	227.22
967.67	227.18
967.96	227.23
968.26	227.22
968.55	227.21
968.85	227.18
969.14	227.18
969.43	227.18
969.73	227.17
970.02	227.13
970.32	227.15
970.61	227.16
970.91	227.14
971.20	227.14
971.49	227.16
971.79	227.16
972.08	227.08
972.38	227.09
972.67	227.09
972.96	227.10
973.26	227.12
973.55	227.17
973.85	227.18
974.14	227.17
974.43	227.20
974.73	227.18
975.02	227.20
975.31	227.20
975.61	227.20
975.90	227.23
976.19	227.27
976.49	227.26
976.78	227.29
977.07	227.31
977.37	227.35
977.66	227.36
977.95	227.37
978.24	227.39
978.54	227.40
978.83	227.42
979.12	227.44
979.42	227.43
979.71	227.42
980.00	227.45
980.29	227.48
980.59	227.44
980.88	227.52
981.17	227.51
981.46	227.54
981.76	227.54
982.05	227.58
982.34	227.61
982.63	227.65
982.93	227.63
983.22	227.65
983.51	227.62
983.80	227.63
984.09	227.68
984.39	227.67
984.68	227.66
984.97	227.66
985.26	227.69
985.55	227.68
985.85	227.64
986.14	227.66
986.43	227.65
986.72	227.64
987.01	227.57
987.30	227.60
987.59	227.58
987.89	227.58
988.18	227.54
988.47	227.50
988.76	227.47
989.05	227.46
989.34	227.46
989.63	227.53
989.92	227.50
990.22	227.45
990.51	227.46
990.80	227.45
991.09	227.48
991.38	227.47
991.67	227.49
991.96	227.47
992.25	227.42
992.54	227.39
992.83	227.39
993.12	227.38
993.41	227.36
993.70	227.39
993.99	227.37
994.28	227.39
994.58	227.40
994.87	227.37
995.16	227.37
995.45	227.34
995.74	227.28
996.03	227.29
996.32	227.29
996.61	227.29
996.90	227.31
997.19	227.33
997.48	227.29
997.77	227.25
998.06	227.22
998.34	227.24
998.63	227.26
998.92	227.28
999.21	227.29
999.50	227.29
999.79	227.25
1000.08	227.29
1000.37	227.28
1000.66	227.27
1000.95	227.31
1001.24	227.31
1001.53	227.32
1001.82	227.32
1002.11	227.28
1002.40	227.32
1002.68	227.36
1002.97	227.41
1003.26	227.35
1003.55	227.36
1003.84	227.40
1004.13	227.45
1004.42	227.41
1004.71	227.42
1004.99	227.43
1005.28	227.46
1005.57	227.47
1005.86	227.49
1006.15	227.46
1006.44	227.45
1006.72	227.47
1007.01	227.45
1007.30	227.44
1007.59	227.42
1007.88	227.41
1008.17	227.43
1008.45	227.39
1008.74	227.35
1009.03	227.29
1009.32	227.31
1009.60	227.29
1009.89	227.29
1010.18	227.28
1010.47	227.32
1010.76	227.32
1011.04	227.32
1011.33	227.34
1011.62	227.36
1011.91	227.37
1012.19	227.39
1012.48	227.44
1012.77	227.45
1013.05	227.48
1013.34	227.51
1013.63	227.53
1013.92	227.52
1014.20	227.53
1014.49	227.56
1014.78	227.58
1015.06	227.58
1015.35	227.58
1015.64	227.61
1015.92	227.64
1016.21	227.68
1016.50	227.68
1016.78	227.68
1017.07	227.70
1017.36	227.68
1017.64	227.64
1017.93	227.63
1018.22	227.61
1018.50	227.55
1018.79	227.53
1019.08	227.54
1019.36	227.56
1019.65	227.56
1019.93	227.60
1020.22	227.60
1020.51	227.61
1020.79	227.62
1021.08	227.14
1021.36	226.96
1021.65	227.74
1021.94	227.88
1022.22	228.17
1022.51	227.43
1022.79	227.76
1023.08	227.34
1023.36	228.23
1023.65	227.70
>>>>>End Processed Spectral Data<<<<<
