SpectraSuite Data File
++++++++++++++++++++++++++++++++++++
Date: Fri Feb 01 16:35:17 EST 2013
User: group
Dark Spectrum Present: No
Reference Spectrum Present: No
Number of Sampled Component Spectra: 1
Spectrometers: USB2E7196
Integration Time (usec): 35000 (USB2E7196)
Spectra Averaged: 100 (USB2E7196)
Boxcar Smoothing: 10 (USB2E7196)
Correct for Electrical Dark: No (USB2E7196)
Strobe/Lamp Enabled: No (USB2E7196)
Correct for Detector Non-linearity: No (USB2E7196)
Correct for Stray Light: No (USB2E7196)
Number of Pixels in Processed Spectrum: 2048
>>>>>Begin Processed Spectral Data<<<<<
339.09	0.00
339.48	214.00
339.86	215.29
340.24	216.96
340.63	218.47
341.01	221.43
341.39	220.82
341.78	222.34
342.16	223.41
342.54	223.97
342.93	212.37
343.31	223.10
343.69	223.64
344.07	224.10
344.46	224.53
344.84	224.91
345.22	225.11
345.60	225.36
345.99	225.54
346.37	225.65
346.75	225.75
347.13	225.82
347.52	225.86
347.90	225.92
348.28	225.99
348.66	226.03
349.05	226.01
349.43	226.03
349.81	226.03
350.19	226.05
350.57	226.10
350.96	226.14
351.34	226.23
351.72	226.28
352.10	226.36
352.48	226.40
352.87	226.41
353.25	226.51
353.63	226.53
354.01	226.58
354.39	226.65
354.77	226.70
355.15	226.79
355.54	226.86
355.92	226.89
356.30	226.90
356.68	227.01
357.06	227.08
357.44	227.11
357.82	227.19
358.20	227.27
358.58	227.36
358.97	227.40
359.35	227.43
359.73	227.52
360.11	227.61
360.49	227.65
360.87	227.69
361.25	227.73
361.63	227.80
362.01	227.86
362.39	227.87
362.77	227.94
363.15	227.96
363.53	227.99
363.91	228.03
364.29	228.08
364.67	228.01
365.05	228.05
365.43	228.09
365.81	228.11
366.19	228.16
366.57	228.21
366.95	228.20
367.33	228.19
367.71	228.18
368.09	228.18
368.47	228.19
368.85	228.20
369.23	228.20
369.61	228.17
369.99	228.14
370.37	228.13
370.75	228.15
371.13	228.07
371.51	228.02
371.89	227.99
372.27	227.97
372.65	227.96
373.03	227.88
373.41	227.82
373.78	227.77
374.16	227.69
374.54	227.60
374.92	227.56
375.30	227.50
375.68	227.43
376.06	227.35
376.44	227.27
376.82	227.20
377.19	227.12
377.57	227.05
377.95	227.03
378.33	226.98
378.71	226.86
379.09	226.85
379.47	226.81
379.84	226.73
380.22	226.67
380.60	226.58
380.98	226.57
381.36	226.53
381.73	226.45
382.11	226.37
382.49	226.32
382.87	226.24
383.25	226.22
383.62	226.27
384.00	226.21
384.38	226.17
384.76	226.15
385.13	226.14
385.51	226.09
385.89	226.01
386.27	225.95
386.64	225.93
387.02	225.87
387.40	225.83
387.78	225.81
388.15	225.76
388.53	225.71
388.91	225.64
389.29	225.59
389.66	225.58
390.04	225.55
390.42	225.56
390.79	225.58
391.17	225.56
391.55	225.43
391.92	225.45
392.30	225.44
392.68	225.44
393.05	225.42
393.43	225.45
393.81	225.46
394.18	225.48
394.56	225.49
394.94	225.55
395.31	225.56
395.69	225.62
396.06	225.66
396.44	225.72
396.82	225.78
397.19	225.87
397.57	225.91
397.95	225.98
398.32	225.99
398.70	226.00
399.07	226.03
399.45	226.07
399.82	226.11
400.20	226.16
400.58	226.21
400.95	226.22
401.33	226.29
401.70	226.41
402.08	226.48
402.45	226.58
402.83	226.67
403.20	226.79
403.58	226.86
403.95	226.97
404.33	227.07
404.71	227.18
405.08	227.34
405.46	227.47
405.83	227.60
406.21	227.75
406.58	227.92
406.96	228.07
407.33	228.25
407.70	228.42
408.08	228.70
408.45	228.93
408.83	229.19
409.20	229.37
409.58	229.56
409.95	229.79
410.33	230.05
410.70	230.27
411.08	230.54
411.45	230.81
411.82	231.12
412.20	231.48
412.57	231.91
412.95	232.19
413.32	232.59
413.69	232.98
414.07	233.38
414.44	233.82
414.82	234.32
415.19	234.86
415.56	235.44
415.94	235.93
416.31	236.57
416.68	237.15
417.06	237.88
417.43	238.57
417.81	239.36
418.18	240.12
418.55	240.97
418.93	241.88
419.30	242.81
419.67	243.76
420.04	244.67
420.42	245.63
420.79	246.82
421.16	247.96
421.54	249.18
421.91	250.39
422.28	251.66
422.66	253.02
423.03	254.34
423.40	255.67
423.77	257.10
424.15	258.49
424.52	260.01
424.89	261.60
425.26	263.12
425.64	264.57
426.01	266.16
426.38	267.81
426.75	269.43
427.13	271.16
427.50	272.93
427.87	274.82
428.24	276.67
428.61	278.43
428.99	280.36
429.36	282.39
429.73	284.47
430.10	286.50
430.47	288.53
430.85	290.66
431.22	292.87
431.59	295.18
431.96	297.38
432.33	299.85
432.70	302.24
433.08	305.04
433.45	307.65
433.82	310.23
434.19	313.09
434.56	315.91
434.93	318.53
435.30	321.13
435.68	323.98
436.05	326.82
436.42	329.55
436.79	332.05
437.16	334.75
437.53	337.58
437.90	340.38
438.27	343.08
438.64	345.86
439.01	348.45
439.38	350.75
439.75	352.90
440.13	355.42
440.50	357.69
440.87	359.51
441.24	361.44
441.61	363.58
441.98	365.03
442.35	366.81
442.72	368.68
443.09	370.44
443.46	371.45
443.83	372.02
444.20	372.54
444.57	373.38
444.94	373.66
445.31	373.96
445.68	374.23
446.05	374.36
446.42	373.98
446.79	373.58
447.16	373.13
447.53	372.80
447.90	371.63
448.27	370.48
448.64	368.93
449.01	367.78
449.37	365.82
449.74	363.96
450.11	361.69
450.48	359.22
450.85	356.74
451.22	354.58
451.59	352.56
451.96	350.64
452.33	348.08
452.70	345.74
453.07	342.93
453.43	340.06
453.80	337.25
454.17	334.54
454.54	331.99
454.91	329.26
455.28	326.64
455.65	324.14
456.02	321.72
456.38	319.57
456.75	316.90
457.12	314.70
457.49	312.48
457.86	310.31
458.23	308.45
458.59	306.42
458.96	304.37
459.33	302.54
459.70	300.62
460.07	299.08
460.43	297.39
460.80	295.78
461.17	294.37
461.54	292.88
461.91	291.49
462.27	290.00
462.64	288.81
463.01	287.46
463.38	286.20
463.74	284.83
464.11	283.67
464.48	282.69
464.85	281.60
465.21	280.75
465.58	279.86
465.95	278.79
466.32	277.89
466.68	277.01
467.05	276.09
467.42	275.25
467.78	274.37
468.15	273.48
468.52	272.83
468.88	271.98
469.25	271.25
469.62	270.62
469.98	270.02
470.35	269.39
470.72	268.81
471.08	268.14
471.45	267.61
471.82	267.09
472.18	266.52
472.55	266.04
472.92	265.56
473.28	265.11
473.65	264.66
474.02	264.24
474.38	263.87
474.75	263.60
475.11	263.23
475.48	262.95
475.85	262.76
476.21	262.58
476.58	262.43
476.94	262.27
477.31	262.15
477.67	261.97
478.04	261.86
478.41	261.80
478.77	261.86
479.14	261.81
479.50	261.83
479.87	261.89
480.23	262.00
480.60	262.05
480.96	262.15
481.33	262.32
481.69	262.50
482.06	262.68
482.42	262.88
482.79	263.13
483.15	263.44
483.52	263.80
483.88	264.09
484.25	264.45
484.61	264.85
484.98	265.29
485.34	265.84
485.71	266.42
486.07	267.02
486.44	267.56
486.80	268.26
487.17	268.97
487.53	269.77
487.90	270.61
488.26	271.54
488.62	272.52
488.99	273.53
489.35	274.57
489.72	275.73
490.08	276.90
490.44	278.19
490.81	279.58
491.17	280.96
491.54	282.44
491.90	283.98
492.26	285.69
492.63	287.40
492.99	289.20
493.36	291.09
493.72	293.14
494.08	295.27
494.45	297.52
494.81	299.93
495.17	302.35
495.54	304.95
495.90	307.66
496.26	310.46
496.63	313.42
496.99	316.56
497.35	319.78
497.72	323.21
498.08	326.74
498.44	330.40
498.80	334.33
499.17	338.39
499.53	342.61
499.89	346.99
500.26	351.57
500.62	356.24
500.98	361.30
501.34	366.40
501.71	371.73
502.07	377.15
502.43	382.77
502.79	388.63
503.16	394.68
503.52	400.94
503.88	407.32
504.24	414.00
504.60	420.90
504.97	428.11
505.33	435.41
505.69	443.19
506.05	450.99
506.41	458.90
506.78	467.11
507.14	475.52
507.50	484.21
507.86	493.08
508.22	502.32
508.59	511.45
508.95	521.02
509.31	530.87
509.67	541.03
510.03	551.28
510.39	561.86
510.75	572.66
511.12	583.55
511.48	594.81
511.84	606.19
512.20	617.71
512.56	629.63
512.92	641.82
513.28	654.10
513.64	666.51
514.00	679.13
514.37	692.09
514.73	705.22
515.09	718.19
515.45	731.58
515.81	745.08
516.17	759.01
516.53	773.07
516.89	787.27
517.25	801.42
517.61	815.85
517.97	830.29
518.33	844.72
518.69	859.53
519.05	874.48
519.41	889.59
519.77	905.08
520.13	920.50
520.49	935.97
520.85	951.28
521.21	966.90
521.57	983.12
521.93	998.75
522.29	1015.03
522.65	1031.25
523.01	1047.37
523.37	1063.33
523.73	1079.52
524.09	1095.59
524.45	1111.78
524.81	1128.26
525.17	1144.89
525.53	1161.66
525.89	1178.48
526.25	1195.27
526.61	1211.72
526.97	1228.44
527.33	1244.72
527.68	1261.22
528.04	1277.49
528.40	1294.11
528.76	1311.16
529.12	1327.69
529.48	1344.44
529.84	1360.32
530.20	1376.89
530.56	1393.78
530.91	1411.16
531.27	1427.77
531.63	1444.06
531.99	1460.48
532.35	1476.41
532.71	1492.26
533.07	1508.40
533.42	1524.19
533.78	1540.03
534.14	1556.12
534.50	1571.34
534.86	1587.20
535.21	1602.26
535.57	1617.98
535.93	1633.21
536.29	1647.89
536.65	1662.80
537.00	1677.47
537.36	1692.57
537.72	1706.86
538.08	1721.10
538.44	1734.62
538.79	1748.16
539.15	1761.64
539.51	1775.19
539.87	1789.26
540.22	1802.71
540.58	1816.19
540.94	1829.14
541.29	1841.76
541.65	1854.15
542.01	1867.14
542.37	1879.13
542.72	1891.33
543.08	1903.10
543.44	1915.39
543.79	1926.44
544.15	1937.19
544.51	1948.68
544.87	1959.59
545.22	1970.44
545.58	1980.67
545.94	1990.46
546.29	2000.53
546.65	2010.43
547.01	2019.69
547.36	2028.42
547.72	2037.12
548.07	2045.13
548.43	2053.41
548.79	2061.40
549.14	2069.14
549.50	2076.52
549.86	2084.21
550.21	2091.50
550.57	2098.68
550.92	2105.28
551.28	2112.45
551.64	2119.53
551.99	2125.86
552.35	2132.07
552.70	2138.14
553.06	2144.07
553.41	2150.49
553.77	2156.35
554.13	2162.28
554.48	2168.33
554.84	2173.81
555.19	2178.97
555.55	2184.03
555.90	2188.66
556.26	2193.74
556.61	2198.25
556.97	2202.55
557.32	2206.76
557.68	2210.95
558.03	2215.15
558.39	2218.73
558.74	2223.24
559.10	2227.20
559.45	2230.93
559.81	2235.15
560.16	2239.07
560.52	2242.33
560.87	2245.72
561.23	2248.49
561.58	2251.45
561.94	2254.05
562.29	2256.40
562.64	2259.14
563.00	2261.57
563.35	2264.94
563.71	2268.09
564.06	2271.47
564.42	2274.43
564.77	2277.17
565.12	2279.51
565.48	2281.54
565.83	2283.55
566.19	2284.93
566.54	2285.78
566.89	2287.06
567.25	2287.77
567.60	2289.09
567.96	2290.84
568.31	2291.69
568.66	2292.85
569.02	2293.51
569.37	2293.86
569.72	2294.80
570.08	2295.07
570.43	2295.31
570.78	2294.82
571.14	2293.24
571.49	2292.00
571.84	2291.65
572.20	2290.55
572.55	2289.56
572.90	2287.91
573.26	2286.68
573.61	2284.98
573.96	2283.35
574.31	2280.51
574.67	2277.66
575.02	2273.99
575.37	2270.64
575.72	2266.82
576.08	2263.34
576.43	2259.93
576.78	2256.58
577.13	2253.37
577.49	2250.21
577.84	2246.73
578.19	2242.95
578.54	2239.38
578.90	2235.09
579.25	2229.70
579.60	2224.69
579.95	2219.72
580.30	2214.73
580.66	2209.54
581.01	2204.65
581.36	2199.80
581.71	2195.63
582.06	2191.37
582.42	2187.10
582.77	2181.98
583.12	2177.57
583.47	2173.15
583.82	2168.50
584.17	2163.20
584.53	2157.84
584.88	2152.28
585.23	2146.66
585.58	2141.23
585.93	2135.77
586.28	2130.94
586.63	2125.91
586.98	2120.86
587.34	2116.23
587.69	2111.47
588.04	2106.40
588.39	2100.71
588.74	2094.28
589.09	2088.15
589.44	2081.26
589.79	2075.08
590.14	2069.40
590.49	2062.81
590.84	2056.39
591.19	2050.34
591.54	2043.80
591.89	2036.59
592.25	2030.01
592.60	2022.94
592.95	2015.56
593.30	2008.39
593.65	2000.90
594.00	1993.81
594.35	1986.73
594.70	1978.60
595.05	1971.52
595.40	1964.11
595.75	1956.73
596.10	1950.67
596.45	1944.10
596.80	1937.98
597.15	1931.59
597.50	1924.74
597.85	1918.42
598.19	1911.74
598.54	1904.69
598.89	1898.33
599.24	1892.44
599.59	1885.75
599.94	1879.45
600.29	1873.08
600.64	1866.46
600.99	1859.15
601.34	1852.38
601.69	1845.40
602.04	1838.73
602.39	1831.40
602.74	1824.77
603.08	1818.15
603.43	1811.31
603.78	1803.93
604.13	1796.76
604.48	1789.55
604.83	1782.61
605.18	1775.81
605.53	1768.02
605.87	1760.02
606.22	1752.52
606.57	1744.47
606.92	1736.90
607.27	1729.88
607.62	1722.96
607.96	1715.71
608.31	1709.17
608.66	1701.59
609.01	1693.97
609.36	1686.39
609.70	1678.37
610.05	1670.28
610.40	1662.54
610.75	1654.29
611.10	1646.70
611.44	1638.15
611.79	1629.92
612.14	1621.33
612.49	1612.07
612.83	1603.72
613.18	1595.69
613.53	1587.75
613.88	1579.29
614.22	1571.28
614.57	1562.57
614.92	1554.74
615.27	1547.39
615.61	1539.08
615.96	1531.06
616.31	1523.52
616.65	1516.18
617.00	1508.63
617.35	1500.97
617.70	1492.72
618.04	1484.32
618.39	1476.12
618.74	1468.71
619.08	1460.54
619.43	1452.93
619.78	1445.98
620.12	1438.84
620.47	1431.34
620.82	1423.11
621.16	1415.78
621.51	1408.12
621.85	1400.46
622.20	1391.88
622.55	1383.39
622.89	1375.53
623.24	1367.92
623.59	1360.43
623.93	1352.89
624.28	1345.72
624.62	1338.25
624.97	1331.14
625.32	1324.29
625.66	1317.21
626.01	1310.00
626.35	1302.71
626.70	1294.88
627.04	1287.27
627.39	1279.39
627.73	1271.84
628.08	1264.91
628.43	1257.67
628.77	1250.44
629.12	1243.04
629.46	1235.94
629.81	1228.45
630.15	1221.15
630.50	1213.78
630.84	1205.65
631.19	1197.79
631.53	1190.15
631.88	1182.48
632.22	1174.84
632.57	1167.52
632.91	1159.94
633.26	1152.51
633.60	1145.03
633.95	1137.84
634.29	1130.64
634.64	1123.87
634.98	1116.67
635.32	1109.63
635.67	1102.94
636.01	1096.13
636.36	1089.31
636.70	1082.73
637.05	1076.16
637.39	1069.82
637.73	1063.36
638.08	1057.42
638.42	1051.29
638.77	1044.87
639.11	1038.39
639.45	1031.97
639.80	1025.29
640.14	1018.99
640.49	1012.53
640.83	1006.21
641.17	1000.13
641.52	993.83
641.86	987.41
642.20	981.42
642.55	975.00
642.89	968.54
643.23	961.90
643.58	956.13
643.92	949.88
644.26	943.95
644.61	937.81
644.95	931.78
645.29	925.28
645.64	918.62
645.98	912.31
646.32	906.34
646.66	900.33
647.01	894.52
647.35	888.88
647.69	882.98
648.04	877.45
648.38	871.58
648.72	865.67
649.06	859.71
649.41	853.85
649.75	847.97
650.09	842.04
650.43	836.32
650.78	830.13
651.12	824.19
651.46	818.45
651.80	812.79
652.14	807.41
652.49	802.11
652.83	796.96
653.17	791.38
653.51	785.71
653.85	780.24
654.20	774.73
654.54	768.57
654.88	762.83
655.22	756.86
655.56	751.20
655.90	745.69
656.25	740.40
656.59	735.02
656.93	729.95
657.27	724.78
657.61	719.31
657.95	714.23
658.29	709.16
658.64	703.87
658.98	698.45
659.32	692.96
659.66	687.65
660.00	682.42
660.34	677.49
660.68	672.64
661.02	667.67
661.36	662.91
661.70	658.53
662.05	654.22
662.39	650.01
662.73	645.55
663.07	641.21
663.41	636.80
663.75	632.35
664.09	627.69
664.43	623.32
664.77	619.30
665.11	615.02
665.45	610.89
665.79	606.86
666.13	602.86
666.47	598.70
666.81	594.57
667.15	590.35
667.49	586.35
667.83	582.43
668.17	578.48
668.51	574.47
668.85	570.35
669.19	566.44
669.53	562.61
669.87	558.73
670.21	554.99
670.55	551.27
670.89	547.86
671.23	544.41
671.57	540.85
671.91	537.32
672.25	533.82
672.58	530.32
672.92	526.82
673.26	523.55
673.60	520.41
673.94	517.32
674.28	514.43
674.62	511.48
674.96	508.41
675.30	505.49
675.64	502.50
675.97	499.74
676.31	496.85
676.65	493.86
676.99	491.15
677.33	488.27
677.67	485.50
678.01	482.41
678.34	479.51
678.68	476.61
679.02	473.78
679.36	470.97
679.70	468.22
680.04	465.50
680.37	462.72
680.71	459.96
681.05	457.25
681.39	454.52
681.73	451.84
682.06	449.32
682.40	446.78
682.74	444.19
683.08	441.60
683.42	438.95
683.75	436.47
684.09	433.90
684.43	431.46
684.77	429.00
685.10	426.66
685.44	424.35
685.78	422.11
686.12	419.80
686.45	417.54
686.79	415.24
687.13	413.04
687.46	410.81
687.80	408.64
688.14	406.49
688.48	404.43
688.81	402.23
689.15	400.04
689.49	397.85
689.82	395.84
690.16	393.74
690.50	391.81
690.83	389.91
691.17	387.92
691.51	386.00
691.84	384.12
692.18	382.20
692.52	380.25
692.85	378.26
693.19	376.44
693.52	374.59
693.86	372.78
694.20	370.97
694.53	369.23
694.87	367.37
695.21	365.58
695.54	363.70
695.88	361.99
696.21	360.29
696.55	358.62
696.88	356.87
697.22	355.20
697.56	353.56
697.89	351.91
698.23	350.30
698.56	348.68
698.90	347.13
699.23	345.50
699.57	343.93
699.90	342.43
700.24	340.86
700.58	339.35
700.91	337.88
701.25	336.49
701.58	335.07
701.92	333.73
702.25	332.36
702.59	331.07
702.92	329.72
703.26	328.40
703.59	327.16
703.93	325.98
704.26	324.78
704.60	323.51
704.93	322.22
705.26	320.97
705.60	319.79
705.93	318.60
706.27	317.55
706.60	316.49
706.94	315.40
707.27	314.31
707.61	313.27
707.94	312.24
708.27	311.10
708.61	310.02
708.94	308.97
709.28	308.01
709.61	307.02
709.94	306.11
710.28	305.13
710.61	304.09
710.95	303.05
711.28	302.17
711.61	301.21
711.95	300.29
712.28	299.41
712.61	298.43
712.95	297.50
713.28	296.60
713.61	295.70
713.95	294.84
714.28	293.95
714.61	293.08
714.95	292.24
715.28	291.38
715.61	290.52
715.95	289.67
716.28	288.80
716.61	287.94
716.95	287.06
717.28	286.27
717.61	285.54
717.94	284.76
718.28	283.91
718.61	283.17
718.94	282.48
719.27	281.75
719.61	281.12
719.94	280.43
720.27	279.75
720.60	279.05
720.94	278.43
721.27	277.85
721.60	277.24
721.93	276.59
722.27	276.01
722.60	275.49
722.93	274.92
723.26	274.32
723.59	273.78
723.93	273.24
724.26	272.69
724.59	272.10
724.92	271.59
725.25	271.10
725.59	270.60
725.92	270.11
726.25	269.57
726.58	269.08
726.91	268.61
727.24	268.09
727.57	267.64
727.91	267.06
728.24	266.57
728.57	266.08
728.90	265.60
729.23	265.16
729.56	264.67
729.89	264.20
730.22	263.72
730.55	263.24
730.89	262.79
731.22	262.33
731.55	261.89
731.88	261.46
732.21	261.02
732.54	260.58
732.87	260.13
733.20	259.76
733.53	259.32
733.86	258.92
734.19	258.59
734.52	258.18
734.85	257.88
735.18	257.48
735.51	257.12
735.84	256.77
736.17	256.41
736.50	256.02
736.83	255.76
737.16	255.45
737.49	255.12
737.82	254.76
738.15	254.44
738.48	254.09
738.81	253.77
739.14	253.47
739.47	253.17
739.80	252.85
740.13	252.55
740.46	252.26
740.79	251.94
741.12	251.60
741.45	251.30
741.78	250.98
742.11	250.72
742.44	250.40
742.77	250.16
743.10	249.90
743.43	249.61
743.75	249.26
744.08	249.12
744.41	248.86
744.74	248.63
745.07	248.37
745.40	248.16
745.73	247.90
746.06	247.58
746.39	247.35
746.71	247.11
747.04	246.84
747.37	246.64
747.70	246.42
748.03	246.13
748.36	245.92
748.68	245.69
749.01	245.43
749.34	245.21
749.67	244.96
750.00	244.73
750.33	244.56
750.65	244.34
750.98	244.00
751.31	243.79
751.64	243.57
751.97	243.40
752.29	243.15
752.62	242.94
752.95	242.78
753.28	242.55
753.60	242.35
753.93	242.15
754.26	241.91
754.59	241.69
754.91	241.51
755.24	241.33
755.57	241.14
755.90	240.93
756.22	240.73
756.55	240.56
756.88	240.34
757.20	240.11
757.53	239.92
757.86	239.77
758.19	239.57
758.51	239.38
758.84	239.20
759.17	239.01
759.49	238.84
759.82	238.70
760.15	238.51
760.47	238.32
760.80	238.13
761.13	237.99
761.45	237.80
761.78	237.62
762.11	237.44
762.43	237.25
762.76	237.11
763.08	236.97
763.41	236.83
763.74	236.68
764.06	236.55
764.39	236.38
764.71	236.22
765.04	236.09
765.37	235.93
765.69	235.77
766.02	235.66
766.34	235.50
766.67	235.35
767.00	235.24
767.32	235.21
767.65	235.18
767.97	235.06
768.30	234.97
768.62	234.88
768.95	234.75
769.27	234.66
769.60	234.55
769.92	234.41
770.25	234.26
770.57	234.13
770.90	233.99
771.22	233.90
771.55	233.78
771.87	233.71
772.20	233.63
772.52	233.61
772.85	233.62
773.17	233.54
773.50	233.45
773.82	233.37
774.15	233.23
774.47	233.07
774.80	232.97
775.12	232.89
775.45	232.79
775.77	232.73
776.09	232.68
776.42	232.63
776.74	232.61
777.07	232.55
777.39	232.47
777.72	232.43
778.04	232.39
778.36	232.32
778.69	232.24
779.01	232.17
779.33	232.02
779.66	231.83
779.98	231.76
780.31	231.72
780.63	231.72
780.95	231.66
781.28	231.66
781.60	231.60
781.92	231.50
782.25	231.45
782.57	231.40
782.89	231.31
783.22	231.23
783.54	231.12
783.86	231.08
784.19	231.02
784.51	230.99
784.83	230.93
785.16	230.87
785.48	230.83
785.80	230.80
786.12	230.76
786.45	230.75
786.77	230.71
787.09	230.62
787.42	230.51
787.74	230.43
788.06	230.38
788.38	230.33
788.71	230.33
789.03	230.29
789.35	230.23
789.67	230.22
789.99	230.20
790.32	230.17
790.64	230.13
790.96	230.19
791.28	230.11
791.61	230.08
791.93	230.08
792.25	230.03
792.57	230.06
792.89	230.05
793.21	230.02
793.54	229.99
793.86	229.97
794.18	229.95
794.50	229.88
794.82	229.81
795.14	229.79
795.47	229.77
795.79	229.75
796.11	229.70
796.43	229.63
796.75	229.60
797.07	229.58
797.39	229.53
797.71	229.43
798.04	229.43
798.36	229.41
798.68	229.36
799.00	229.35
799.32	229.25
799.64	229.21
799.96	229.13
800.28	229.11
800.60	229.07
800.92	229.03
801.24	229.03
801.56	229.04
801.89	229.01
802.21	228.97
802.53	228.91
802.85	228.93
803.17	228.95
803.49	228.90
803.81	228.86
804.13	228.84
804.45	228.80
804.77	228.77
805.09	228.72
805.41	228.68
805.73	228.63
806.05	228.56
806.37	228.52
806.69	228.52
807.01	228.49
807.33	228.49
807.65	228.44
807.97	228.43
808.28	228.41
808.60	228.34
808.92	228.31
809.24	228.35
809.56	228.27
809.88	228.20
810.20	228.20
810.52	228.20
810.84	228.15
811.16	228.11
811.48	228.06
811.80	228.07
812.12	227.99
812.43	227.97
812.75	227.97
813.07	227.96
813.39	227.95
813.71	227.91
814.03	227.85
814.35	227.83
814.67	227.80
814.98	227.75
815.30	227.75
815.62	227.74
815.94	227.66
816.26	227.73
816.58	227.70
816.89	227.66
817.21	227.62
817.53	227.61
817.85	227.59
818.17	227.56
818.48	227.51
818.80	227.55
819.12	227.52
819.44	227.49
819.76	227.47
820.07	227.45
820.39	227.44
820.71	227.42
821.03	227.42
821.34	227.41
821.66	227.42
821.98	227.41
822.30	227.40
822.61	227.43
822.93	227.37
823.25	227.33
823.57	227.36
823.88	227.39
824.20	227.35
824.52	227.38
824.83	227.36
825.15	227.32
825.47	227.31
825.79	227.32
826.10	227.30
826.42	227.29
826.74	227.26
827.05	227.26
827.37	227.29
827.69	227.27
828.00	227.23
828.32	227.18
828.64	227.16
828.95	227.19
829.27	227.15
829.58	227.14
829.90	227.17
830.22	227.12
830.53	227.08
830.85	227.06
831.17	227.01
831.48	226.99
831.80	227.01
832.11	227.01
832.43	226.98
832.75	226.98
833.06	227.02
833.38	227.00
833.69	227.00
834.01	226.95
834.32	226.93
834.64	226.94
834.96	226.94
835.27	226.90
835.59	226.85
835.90	226.83
836.22	226.79
836.53	226.74
836.85	226.70
837.16	226.78
837.48	226.78
837.79	226.81
838.11	226.84
838.42	226.80
838.74	226.78
839.05	226.78
839.37	226.75
839.68	226.68
840.00	226.66
840.31	226.62
840.63	226.60
840.94	226.56
841.26	226.56
841.57	226.55
841.88	226.58
842.20	226.57
842.51	226.53
842.83	226.53
843.14	226.67
843.46	226.68
843.77	226.60
844.08	226.60
844.40	226.55
844.71	226.52
845.03	226.48
845.34	226.47
845.65	226.46
845.97	226.46
846.28	226.44
846.60	226.46
846.91	226.41
847.22	226.44
847.54	226.45
847.85	226.44
848.16	226.42
848.48	226.41
848.79	226.43
849.10	226.47
849.42	226.49
849.73	226.36
850.04	226.34
850.36	226.32
850.67	226.34
850.98	226.37
851.30	226.35
851.61	226.37
851.92	226.38
852.23	226.41
852.55	226.42
852.86	226.44
853.17	226.43
853.49	226.48
853.80	226.48
854.11	226.48
854.42	226.48
854.74	226.49
855.05	226.51
855.36	226.43
855.67	226.42
855.99	226.44
856.30	226.56
856.61	226.58
856.92	226.58
857.23	226.60
857.55	226.56
857.86	226.56
858.17	226.59
858.48	226.60
858.79	226.57
859.11	226.58
859.42	226.56
859.73	226.56
860.04	226.55
860.35	226.55
860.66	226.54
860.98	226.55
861.29	226.55
861.60	226.52
861.91	226.59
862.22	226.59
862.53	226.52
862.84	226.40
863.16	226.41
863.47	226.42
863.78	226.39
864.09	226.39
864.40	226.41
864.71	226.41
865.02	226.41
865.33	226.40
865.64	226.37
865.95	226.36
866.27	226.42
866.58	226.44
866.89	226.45
867.20	226.45
867.51	226.45
867.82	226.46
868.13	226.45
868.44	226.40
868.75	226.40
869.06	226.43
869.37	226.46
869.68	226.42
869.99	226.40
870.30	226.42
870.61	226.43
870.92	226.41
871.23	226.38
871.54	226.37
871.85	226.39
872.16	226.39
872.47	226.39
872.78	226.33
873.09	226.33
873.40	226.32
873.71	226.34
874.02	226.31
874.33	226.31
874.64	226.31
874.95	226.34
875.26	226.35
875.56	226.34
875.87	226.34
876.18	226.34
876.49	226.45
876.80	226.43
877.11	226.42
877.42	226.40
877.73	226.40
878.04	226.39
878.35	226.40
878.66	226.40
878.96	226.39
879.27	226.38
879.58	226.35
879.89	226.31
880.20	226.32
880.51	226.32
880.82	226.28
881.12	226.29
881.43	226.23
881.74	226.21
882.05	226.17
882.36	226.14
882.67	226.15
882.97	226.01
883.28	226.00
883.59	225.99
883.90	226.03
884.21	226.03
884.51	226.02
884.82	226.01
885.13	225.99
885.44	225.98
885.74	225.97
886.05	225.97
886.36	225.97
886.67	225.92
886.98	225.97
887.28	225.97
887.59	225.96
887.90	225.96
888.20	225.94
888.51	225.98
888.82	225.95
889.13	225.94
889.43	226.07
889.74	226.05
890.05	226.05
890.35	226.02
890.66	226.02
890.97	226.01
891.28	226.00
891.58	226.02
891.89	226.04
892.20	226.04
892.50	226.03
892.81	226.04
893.12	226.05
893.42	225.98
893.73	225.97
894.04	226.00
894.34	226.01
894.65	226.01
894.95	226.00
895.26	226.02
895.57	226.06
895.87	225.97
896.18	225.98
896.48	226.00
896.79	226.02
897.10	226.04
897.40	226.06
897.71	226.07
898.01	226.08
898.32	226.09
898.63	226.11
898.93	226.11
899.24	226.13
899.54	226.14
899.85	226.14
900.15	226.18
900.46	226.16
900.76	226.16
901.07	226.19
901.38	226.19
901.68	226.24
901.99	226.19
902.29	226.20
902.60	226.19
902.90	226.17
903.21	226.19
903.51	226.16
903.82	226.19
904.12	226.16
904.43	226.18
904.73	226.17
905.03	226.16
905.34	226.25
905.64	226.20
905.95	226.18
906.25	226.21
906.56	226.16
906.86	226.17
907.17	226.21
907.47	226.22
907.77	226.21
908.08	226.16
908.38	226.18
908.69	226.17
908.99	226.17
909.30	226.17
909.60	226.13
909.90	226.14
910.21	226.07
910.51	226.08
910.81	226.07
911.12	226.09
911.42	226.12
911.73	226.02
912.03	226.05
912.33	226.09
912.64	226.10
912.94	226.11
913.24	226.09
913.55	226.08
913.85	226.05
914.15	226.08
914.46	226.08
914.76	226.08
915.06	226.06
915.37	226.09
915.67	226.09
915.97	226.08
916.27	226.05
916.58	226.07
916.88	226.05
917.18	226.02
917.49	226.06
917.79	226.01
918.09	226.01
918.39	226.06
918.70	226.05
919.00	226.00
919.30	226.04
919.60	226.03
919.91	226.01
920.21	225.99
920.51	225.96
920.81	225.94
921.12	225.95
921.42	225.93
921.72	225.93
922.02	225.93
922.32	225.98
922.63	225.99
922.93	226.02
923.23	226.02
923.53	226.01
923.83	225.94
924.13	225.95
924.44	225.94
924.74	225.92
925.04	225.94
925.34	225.94
925.64	225.89
925.94	225.89
926.24	225.94
926.55	225.95
926.85	225.96
927.15	225.99
927.45	225.98
927.75	225.99
928.05	225.94
928.35	225.91
928.65	225.92
928.95	225.90
929.26	225.88
929.56	225.91
929.86	225.93
930.16	225.92
930.46	225.92
930.76	225.92
931.06	225.88
931.36	225.85
931.66	225.88
931.96	225.90
932.26	225.88
932.56	225.82
932.86	225.81
933.16	225.81
933.46	225.75
933.76	225.72
934.06	225.76
934.36	225.79
934.66	225.82
934.96	225.80
935.26	225.79
935.56	225.79
935.86	225.75
936.16	225.74
936.46	225.74
936.76	225.73
937.06	225.70
937.36	225.68
937.66	225.69
937.96	225.65
938.26	225.64
938.56	225.65
938.86	225.65
939.16	225.67
939.46	225.67
939.76	225.71
940.06	225.69
940.35	225.65
940.65	225.63
940.95	225.62
941.25	225.57
941.55	225.59
941.85	225.59
942.15	225.63
942.45	225.66
942.75	225.69
943.04	225.68
943.34	225.73
943.64	225.75
943.94	225.70
944.24	225.72
944.54	225.72
944.84	225.72
945.13	225.71
945.43	225.72
945.73	225.73
946.03	225.68
946.33	225.70
946.62	225.70
946.92	225.70
947.22	225.70
947.52	225.75
947.82	225.73
948.11	225.70
948.41	225.67
948.71	225.64
949.01	225.65
949.31	225.64
949.60	225.60
949.90	225.64
950.20	225.66
950.50	225.65
950.79	225.68
951.09	225.72
951.39	225.69
951.69	225.66
951.98	225.68
952.28	225.72
952.58	225.74
952.87	225.74
953.17	225.77
953.47	225.75
953.76	225.75
954.06	225.76
954.36	225.76
954.66	225.75
954.95	225.77
955.25	225.79
955.55	225.82
955.84	225.81
956.14	225.79
956.44	225.78
956.73	225.78
957.03	225.76
957.32	225.74
957.62	225.78
957.92	225.84
958.21	225.81
958.51	225.91
958.81	225.92
959.10	225.92
959.40	225.92
959.69	225.93
959.99	225.92
960.29	225.93
960.58	225.94
960.88	225.96
961.17	225.96
961.47	225.92
961.76	225.88
962.06	225.93
962.36	225.92
962.65	225.95
962.95	225.97
963.24	225.96
963.54	225.96
963.83	225.97
964.13	225.95
964.42	225.97
964.72	225.89
965.01	225.88
965.31	225.87
965.60	225.85
965.90	225.92
966.19	225.91
966.49	225.91
966.78	225.91
967.08	225.93
967.37	225.91
967.67	225.91
967.96	225.93
968.26	225.87
968.55	225.90
968.85	225.87
969.14	225.86
969.43	225.87
969.73	225.88
970.02	225.86
970.32	225.85
970.61	225.80
970.91	225.77
971.20	225.74
971.49	225.74
971.79	225.73
972.08	225.67
972.38	225.70
972.67	225.70
972.96	225.69
973.26	225.65
973.55	225.68
973.85	225.67
974.14	225.65
974.43	225.69
974.73	225.65
975.02	225.63
975.31	225.60
975.61	225.59
975.90	225.57
976.19	225.57
976.49	225.55
976.78	225.55
977.07	225.53
977.37	225.53
977.66	225.52
977.95	225.49
978.24	225.48
978.54	225.49
978.83	225.47
979.12	225.47
979.42	225.51
979.71	225.52
980.00	225.54
980.29	225.57
980.59	225.55
980.88	225.60
981.17	225.61
981.46	225.65
981.76	225.64
982.05	225.66
982.34	225.66
982.63	225.65
982.93	225.66
983.22	225.73
983.51	225.74
983.80	225.76
984.09	225.76
984.39	225.74
984.68	225.75
984.97	225.74
985.26	225.74
985.55	225.76
985.85	225.72
986.14	225.70
986.43	225.72
986.72	225.71
987.01	225.67
987.30	225.69
987.59	225.68
987.89	225.67
988.18	225.66
988.47	225.67
988.76	225.69
989.05	225.67
989.34	225.66
989.63	225.70
989.92	225.67
990.22	225.69
990.51	225.68
990.80	225.65
991.09	225.70
991.38	225.72
991.67	225.70
991.96	225.69
992.25	225.72
992.54	225.72
992.83	225.72
993.12	225.71
993.41	225.72
993.70	225.74
993.99	225.80
994.28	225.82
994.58	225.84
994.87	225.84
995.16	225.83
995.45	225.79
995.74	225.77
996.03	225.78
996.32	225.82
996.61	225.87
996.90	225.86
997.19	225.85
997.48	225.83
997.77	225.79
998.06	225.78
998.34	225.75
998.63	225.75
998.92	225.76
999.21	225.76
999.50	225.76
999.79	225.75
1000.08	225.73
1000.37	225.71
1000.66	225.69
1000.95	225.71
1001.24	225.72
1001.53	225.74
1001.82	225.73
1002.11	225.74
1002.40	225.77
1002.68	225.81
1002.97	225.87
1003.26	225.85
1003.55	225.87
1003.84	225.92
1004.13	225.97
1004.42	225.96
1004.71	225.92
1004.99	225.91
1005.28	225.92
1005.57	225.92
1005.86	225.90
1006.15	225.89
1006.44	225.91
1006.72	225.92
1007.01	225.87
1007.30	225.86
1007.59	225.85
1007.88	225.86
1008.17	225.85
1008.45	225.78
1008.74	225.70
1009.03	225.69
1009.32	225.69
1009.60	225.68
1009.89	225.63
1010.18	225.60
1010.47	225.59
1010.76	225.61
1011.04	225.61
1011.33	225.65
1011.62	225.65
1011.91	225.66
1012.19	225.66
1012.48	225.64
1012.77	225.62
1013.05	225.67
1013.34	225.69
1013.63	225.69
1013.92	225.66
1014.20	225.66
1014.49	225.68
1014.78	225.71
1015.06	225.67
1015.35	225.68
1015.64	225.68
1015.92	225.70
1016.21	225.72
1016.50	225.72
1016.78	225.74
1017.07	225.73
1017.36	225.68
1017.64	225.66
1017.93	225.65
1018.22	225.63
1018.50	225.63
1018.79	225.63
1019.08	225.62
1019.36	225.60
1019.65	225.61
1019.93	225.65
1020.22	225.65
1020.51	225.70
1020.79	225.71
1021.08	225.22
1021.36	225.51
1021.65	225.61
1021.94	226.05
1022.22	225.42
1022.51	225.67
1022.79	226.02
1023.08	225.60
1023.36	226.91
1023.65	225.78
>>>>>End Processed Spectral Data<<<<<
