SpectraSuite Data File
++++++++++++++++++++++++++++++++++++
Date: Fri Feb 01 16:55:36 EST 2013
User: group
Dark Spectrum Present: No
Reference Spectrum Present: No
Number of Sampled Component Spectra: 1
Spectrometers: USB2E7196
Integration Time (usec): 35000 (USB2E7196)
Spectra Averaged: 100 (USB2E7196)
Boxcar Smoothing: 10 (USB2E7196)
Correct for Electrical Dark: No (USB2E7196)
Strobe/Lamp Enabled: No (USB2E7196)
Correct for Detector Non-linearity: No (USB2E7196)
Correct for Stray Light: No (USB2E7196)
Number of Pixels in Processed Spectrum: 2048
>>>>>Begin Processed Spectral Data<<<<<
339.09	0.00
339.48	213.40
339.86	214.73
340.24	215.57
340.63	217.02
341.01	219.91
341.39	219.97
341.78	221.20
342.16	222.84
342.54	222.85
342.93	211.60
343.31	222.29
343.69	222.82
344.07	223.28
344.46	223.73
344.84	224.13
345.22	224.39
345.60	224.66
345.99	224.85
346.37	224.99
346.75	225.11
347.13	225.19
347.52	225.25
347.90	225.31
348.28	225.33
348.66	225.39
349.05	225.36
349.43	225.42
349.81	225.45
350.19	225.49
350.57	225.59
350.96	225.64
351.34	225.74
351.72	225.84
352.10	225.93
352.48	226.02
352.87	226.07
353.25	226.11
353.63	226.18
354.01	226.27
354.39	226.31
354.77	226.42
355.15	226.53
355.54	226.59
355.92	226.64
356.30	226.72
356.68	226.88
357.06	226.97
357.44	227.01
357.82	227.05
358.20	227.15
358.58	227.17
358.97	227.21
359.35	227.29
359.73	227.37
360.11	227.45
360.49	227.52
360.87	227.60
361.25	227.66
361.63	227.73
362.01	227.81
362.39	227.87
362.77	227.88
363.15	227.91
363.53	227.95
363.91	228.02
364.29	228.05
364.67	227.96
365.05	227.98
365.43	227.99
365.81	228.02
366.19	228.08
366.57	228.13
366.95	228.12
367.33	228.06
367.71	228.04
368.09	228.03
368.47	228.00
368.85	227.95
369.23	227.97
369.61	227.88
369.99	227.86
370.37	227.83
370.75	227.84
371.13	227.76
371.51	227.75
371.89	227.67
372.27	227.60
372.65	227.59
373.03	227.53
373.41	227.48
373.78	227.45
374.16	227.35
374.54	227.26
374.92	227.20
375.30	227.17
375.68	227.12
376.06	227.06
376.44	226.99
376.82	226.94
377.19	226.92
377.57	226.87
377.95	226.77
378.33	226.67
378.71	226.57
379.09	226.52
379.47	226.42
379.84	226.39
380.22	226.34
380.60	226.25
380.98	226.19
381.36	226.12
381.73	226.00
382.11	225.90
382.49	225.84
382.87	225.78
383.25	225.72
383.62	225.73
384.00	225.62
384.38	225.59
384.76	225.56
385.13	225.51
385.51	225.44
385.89	225.39
386.27	225.38
386.64	225.31
387.02	225.26
387.40	225.22
387.78	225.14
388.15	225.10
388.53	225.07
388.91	225.04
389.29	225.02
389.66	225.02
390.04	225.01
390.42	225.03
390.79	225.03
391.17	225.04
391.55	224.95
391.92	224.96
392.30	224.96
392.68	224.93
393.05	224.92
393.43	224.92
393.81	224.96
394.18	224.94
394.56	224.96
394.94	225.01
395.31	225.02
395.69	225.08
396.06	225.14
396.44	225.13
396.82	225.15
397.19	225.28
397.57	225.30
397.95	225.35
398.32	225.35
398.70	225.40
399.07	225.45
399.45	225.49
399.82	225.56
400.20	225.59
400.58	225.66
400.95	225.68
401.33	225.78
401.70	225.90
402.08	226.00
402.45	226.11
402.83	226.22
403.20	226.32
403.58	226.39
403.95	226.50
404.33	226.64
404.71	226.73
405.08	226.87
405.46	226.98
405.83	227.11
406.21	227.23
406.58	227.38
406.96	227.52
407.33	227.71
407.70	227.92
408.08	228.16
408.45	228.36
408.83	228.58
409.20	228.80
409.58	228.95
409.95	229.18
410.33	229.43
410.70	229.66
411.08	229.93
411.45	230.25
411.82	230.54
412.20	230.88
412.57	231.32
412.95	231.58
413.32	232.02
413.69	232.39
414.07	232.81
414.44	233.26
414.82	233.75
415.19	234.27
415.56	234.80
415.94	235.35
416.31	236.00
416.68	236.64
417.06	237.35
417.43	238.04
417.81	238.84
418.18	239.60
418.55	240.43
418.93	241.29
419.30	242.19
419.67	243.15
420.04	244.10
420.42	245.07
420.79	246.24
421.16	247.37
421.54	248.60
421.91	249.85
422.28	251.07
422.66	252.40
423.03	253.70
423.40	255.00
423.77	256.40
424.15	257.78
424.52	259.22
424.89	260.84
425.26	262.39
425.64	263.77
426.01	265.36
426.38	267.03
426.75	268.71
427.13	270.44
427.50	272.20
427.87	274.08
428.24	275.97
428.61	277.69
428.99	279.64
429.36	281.73
429.73	283.76
430.10	285.84
430.47	287.89
430.85	290.01
431.22	292.24
431.59	294.62
431.96	296.85
432.33	299.35
432.70	301.68
433.08	304.47
433.45	307.12
433.82	309.69
434.19	312.49
434.56	315.29
434.93	317.91
435.30	320.50
435.68	323.38
436.05	326.14
436.42	328.91
436.79	331.39
437.16	334.05
437.53	336.90
437.90	339.65
438.27	342.38
438.64	345.16
439.01	347.75
439.38	349.91
439.75	352.06
440.13	354.52
440.50	356.79
440.87	358.63
441.24	360.55
441.61	362.70
441.98	364.25
442.35	366.01
442.72	367.90
443.09	369.73
443.46	370.71
443.83	371.35
444.20	371.85
444.57	372.69
444.94	372.97
445.31	373.28
445.68	373.63
446.05	373.70
446.42	373.35
446.79	372.94
447.16	372.56
447.53	372.24
447.90	371.12
448.27	370.02
448.64	368.46
449.01	367.35
449.37	365.41
449.74	363.52
450.11	361.33
450.48	358.85
450.85	356.32
451.22	354.22
451.59	352.18
451.96	350.31
452.33	347.69
452.70	345.37
453.07	342.53
453.43	339.64
453.80	336.86
454.17	334.19
454.54	331.63
454.91	328.92
455.28	326.30
455.65	323.87
456.02	321.44
456.38	319.30
456.75	316.64
457.12	314.40
457.49	312.18
457.86	310.00
458.23	308.17
458.59	306.12
458.96	304.01
459.33	302.14
459.70	300.26
460.07	298.77
460.43	297.05
460.80	295.45
461.17	294.06
461.54	292.58
461.91	291.16
462.27	289.77
462.64	288.55
463.01	287.20
463.38	285.86
463.74	284.49
464.11	283.34
464.48	282.36
464.85	281.29
465.21	280.44
465.58	279.57
465.95	278.45
466.32	277.55
466.68	276.66
467.05	275.81
467.42	274.93
467.78	274.03
468.15	273.17
468.52	272.52
468.88	271.65
469.25	270.92
469.62	270.30
469.98	269.63
470.35	268.97
470.72	268.40
471.08	267.77
471.45	267.26
471.82	266.73
472.18	266.12
472.55	265.69
472.92	265.18
473.28	264.70
473.65	264.30
474.02	263.89
474.38	263.57
474.75	263.28
475.11	262.96
475.48	262.76
475.85	262.57
476.21	262.38
476.58	262.26
476.94	262.14
477.31	262.01
477.67	261.86
478.04	261.78
478.41	261.72
478.77	261.79
479.14	261.73
479.50	261.72
479.87	261.80
480.23	261.91
480.60	261.97
480.96	262.10
481.33	262.32
481.69	262.54
482.06	262.73
482.42	262.91
482.79	263.18
483.15	263.48
483.52	263.84
483.88	264.17
484.25	264.56
484.61	264.96
484.98	265.41
485.34	265.96
485.71	266.56
486.07	267.18
486.44	267.73
486.80	268.40
487.17	269.15
487.53	269.96
487.90	270.78
488.26	271.74
488.62	272.70
488.99	273.66
489.35	274.70
489.72	275.86
490.08	277.08
490.44	278.27
490.81	279.62
491.17	281.00
491.54	282.49
491.90	284.02
492.26	285.70
492.63	287.45
492.99	289.25
493.36	291.12
493.72	293.16
494.08	295.23
494.45	297.49
494.81	299.83
495.17	302.28
495.54	304.87
495.90	307.56
496.26	310.36
496.63	313.30
496.99	316.39
497.35	319.64
497.72	323.04
498.08	326.57
498.44	330.21
498.80	334.11
499.17	338.13
499.53	342.27
499.89	346.61
500.26	351.05
500.62	355.70
500.98	360.63
501.34	365.67
501.71	371.00
502.07	376.43
502.43	381.99
502.79	387.72
503.16	393.73
503.52	399.96
503.88	406.29
504.24	412.87
504.60	419.66
504.97	426.72
505.33	433.98
505.69	441.66
506.05	449.38
506.41	457.22
506.78	465.30
507.14	473.68
507.50	482.35
507.86	491.31
508.22	500.45
508.59	509.65
508.95	519.16
509.31	528.84
509.67	538.80
510.03	549.03
510.39	559.57
510.75	570.27
511.12	581.10
511.48	592.34
511.84	603.71
512.20	615.12
512.56	626.97
512.92	639.00
513.28	651.24
513.64	663.57
514.00	676.11
514.37	688.94
514.73	701.84
515.09	714.60
515.45	727.80
515.81	741.22
516.17	754.94
516.53	768.97
516.89	783.03
517.25	797.09
517.61	811.35
517.97	825.62
518.33	839.87
518.69	854.45
519.05	869.22
519.41	884.15
519.77	899.60
520.13	914.80
520.49	929.97
520.85	945.19
521.21	960.63
521.57	976.63
521.93	992.14
522.29	1008.18
522.65	1024.33
523.01	1040.16
523.37	1055.86
523.73	1071.81
524.09	1087.56
524.45	1103.52
524.81	1119.81
525.17	1136.25
525.53	1152.85
525.89	1169.42
526.25	1185.99
526.61	1202.08
526.97	1218.55
527.33	1234.61
527.68	1250.89
528.04	1267.08
528.40	1283.22
528.76	1299.99
529.12	1316.31
529.48	1332.85
529.84	1348.69
530.20	1364.96
530.56	1381.68
530.91	1398.84
531.27	1415.23
531.63	1431.49
531.99	1447.84
532.35	1463.61
532.71	1479.25
533.07	1495.24
533.42	1510.91
533.78	1526.62
534.14	1542.57
534.50	1557.71
534.86	1573.23
535.21	1588.23
535.57	1603.87
535.93	1619.16
536.29	1633.72
536.65	1648.41
537.00	1662.92
537.36	1677.85
537.72	1692.04
538.08	1706.32
538.44	1719.89
538.79	1733.56
539.15	1746.81
539.51	1760.29
539.87	1774.44
540.22	1787.97
540.58	1801.53
540.94	1814.50
541.29	1827.04
541.65	1839.48
542.01	1852.29
542.37	1864.51
542.72	1876.56
543.08	1888.09
543.44	1900.29
543.79	1911.43
544.15	1922.29
544.51	1933.79
544.87	1944.67
545.22	1955.41
545.58	1965.39
545.94	1975.01
546.29	1984.66
546.65	1994.41
547.01	2003.54
547.36	2011.97
547.72	2020.30
548.07	2028.13
548.43	2036.30
548.79	2044.23
549.14	2051.68
549.50	2059.00
549.86	2066.54
550.21	2073.82
550.57	2080.99
550.92	2087.48
551.28	2094.42
551.64	2101.39
551.99	2107.82
552.35	2114.01
552.70	2120.07
553.06	2126.09
553.41	2132.44
553.77	2138.45
554.13	2144.43
554.48	2150.51
554.84	2156.21
555.19	2161.41
555.55	2166.46
555.90	2170.88
556.26	2175.92
556.61	2180.69
556.97	2185.09
557.32	2189.21
557.68	2193.54
558.03	2197.86
558.39	2201.47
558.74	2206.04
559.10	2210.00
559.45	2213.69
559.81	2217.76
560.16	2221.71
560.52	2225.08
560.87	2228.65
561.23	2231.44
561.58	2234.37
561.94	2236.96
562.29	2239.04
562.64	2241.95
563.00	2244.43
563.35	2247.97
563.71	2251.06
564.06	2254.17
564.42	2257.16
564.77	2259.86
565.12	2262.22
565.48	2264.19
565.83	2266.39
566.19	2267.82
566.54	2268.69
566.89	2269.91
567.25	2270.96
567.60	2272.35
567.96	2274.17
568.31	2274.86
568.66	2276.22
569.02	2277.03
569.37	2277.57
569.72	2278.89
570.08	2279.19
570.43	2279.53
570.78	2279.23
571.14	2277.97
571.49	2277.01
571.84	2276.70
572.20	2275.85
572.55	2274.91
572.90	2273.40
573.26	2272.12
573.61	2270.55
573.96	2269.23
574.31	2266.70
574.67	2263.75
575.02	2260.23
575.37	2256.83
575.72	2253.43
576.08	2250.11
576.43	2246.96
576.78	2243.58
577.13	2240.42
577.49	2237.47
577.84	2234.16
578.19	2230.58
578.54	2227.19
578.90	2223.09
579.25	2217.89
579.60	2213.09
579.95	2208.40
580.30	2203.72
580.66	2198.80
581.01	2193.94
581.36	2189.10
581.71	2184.89
582.06	2180.72
582.42	2176.54
582.77	2171.57
583.12	2167.14
583.47	2162.75
583.82	2158.04
584.17	2152.93
584.53	2147.63
584.88	2142.07
585.23	2136.56
585.58	2131.20
585.93	2125.85
586.28	2121.15
586.63	2116.17
586.98	2111.29
587.34	2106.67
587.69	2101.88
588.04	2096.81
588.39	2091.46
588.74	2085.21
589.09	2079.23
589.44	2072.57
589.79	2066.46
590.14	2060.90
590.49	2054.41
590.84	2048.13
591.19	2042.23
591.54	2035.81
591.89	2028.78
592.25	2022.17
592.60	2015.07
592.95	2007.74
593.30	2000.57
593.65	1993.17
594.00	1986.30
594.35	1979.13
594.70	1971.09
595.05	1964.15
595.40	1956.97
595.75	1949.57
596.10	1943.53
596.45	1936.87
596.80	1930.85
597.15	1924.62
597.50	1917.92
597.85	1911.51
598.19	1905.05
598.54	1898.19
598.89	1891.75
599.24	1885.68
599.59	1879.29
599.94	1873.10
600.29	1866.89
600.64	1860.34
600.99	1853.16
601.34	1846.52
601.69	1839.56
602.04	1832.92
602.39	1825.67
602.74	1818.81
603.08	1812.28
603.43	1805.57
603.78	1798.50
604.13	1791.46
604.48	1784.29
604.83	1777.42
605.18	1770.86
605.53	1762.92
605.87	1754.91
606.22	1747.64
606.57	1739.90
606.92	1732.49
607.27	1725.57
607.62	1718.76
607.96	1711.68
608.31	1705.24
608.66	1697.68
609.01	1690.30
609.36	1682.94
609.70	1674.92
610.05	1667.12
610.40	1659.58
610.75	1651.39
611.10	1643.64
611.44	1635.25
611.79	1627.29
612.14	1618.72
612.49	1609.42
612.83	1601.00
613.18	1592.85
613.53	1584.90
613.88	1576.47
614.22	1568.29
614.57	1559.66
614.92	1551.59
615.27	1544.21
615.61	1535.84
615.96	1527.78
616.31	1520.09
616.65	1512.64
617.00	1505.28
617.35	1497.53
617.70	1489.26
618.04	1480.66
618.39	1472.55
618.74	1464.95
619.08	1456.60
619.43	1448.93
619.78	1442.14
620.12	1435.16
620.47	1427.79
620.82	1419.65
621.16	1412.29
621.51	1404.67
621.85	1397.07
622.20	1388.63
622.55	1380.18
622.89	1372.27
623.24	1364.58
623.59	1357.16
623.93	1349.59
624.28	1342.20
624.62	1334.78
624.97	1327.43
625.32	1320.67
625.66	1313.60
626.01	1306.44
626.35	1299.13
626.70	1291.48
627.04	1283.74
627.39	1275.89
627.73	1268.38
628.08	1261.57
628.43	1254.36
628.77	1247.03
629.12	1239.44
629.46	1232.32
629.81	1224.86
630.15	1217.55
630.50	1210.28
630.84	1202.21
631.19	1194.35
631.53	1186.88
631.88	1179.27
632.22	1171.84
632.57	1164.63
632.91	1157.12
633.26	1149.71
633.60	1142.25
633.95	1134.99
634.29	1127.85
634.64	1121.20
634.98	1113.97
635.32	1106.68
635.67	1099.93
636.01	1093.38
636.36	1086.68
636.70	1080.07
637.05	1073.46
637.39	1067.20
637.73	1060.69
638.08	1054.72
638.42	1048.65
638.77	1042.27
639.11	1035.79
639.45	1029.37
639.80	1022.72
640.14	1016.43
640.49	1009.97
640.83	1003.80
641.17	997.72
641.52	991.40
641.86	984.95
642.20	979.11
642.55	972.76
642.89	966.33
643.23	959.72
643.58	953.95
643.92	947.85
644.26	941.96
644.61	935.76
644.95	929.82
645.29	923.41
645.64	916.70
645.98	910.33
646.32	904.39
646.66	898.31
647.01	892.58
647.35	886.88
647.69	881.02
648.04	875.43
648.38	869.73
648.72	863.85
649.06	857.80
649.41	851.94
649.75	846.10
650.09	840.26
650.43	834.51
650.78	828.39
651.12	822.49
651.46	816.71
651.80	811.16
652.14	805.74
652.49	800.34
652.83	795.27
653.17	789.68
653.51	784.12
653.85	778.72
654.20	773.04
654.54	767.02
654.88	761.34
655.22	755.45
655.56	749.68
655.90	744.14
656.25	738.99
656.59	733.62
656.93	728.53
657.27	723.31
657.61	717.85
657.95	712.77
658.29	707.68
658.64	702.40
658.98	697.11
659.32	691.65
659.66	686.43
660.00	681.20
660.34	676.25
660.68	671.30
661.02	666.33
661.36	661.65
661.70	657.21
662.05	652.82
662.39	648.54
662.73	644.05
663.07	639.82
663.41	635.35
663.75	630.87
664.09	626.24
664.43	621.92
664.77	617.84
665.11	613.60
665.45	609.41
665.79	605.37
666.13	601.22
666.47	597.15
666.81	593.05
667.15	588.84
667.49	584.95
667.83	581.05
668.17	577.13
668.51	573.10
668.85	569.07
669.19	565.22
669.53	561.40
669.87	557.52
670.21	553.75
670.55	550.14
670.89	546.75
671.23	543.38
671.57	539.84
671.91	536.34
672.25	532.82
672.58	529.35
672.92	525.91
673.26	522.67
673.60	519.52
673.94	516.43
674.28	513.55
674.62	510.60
674.96	507.53
675.30	504.64
675.64	501.74
675.97	498.88
676.31	496.04
676.65	493.07
676.99	490.47
677.33	487.61
677.67	484.76
678.01	481.75
678.34	478.81
678.68	476.00
679.02	473.22
679.36	470.44
679.70	467.76
680.04	465.01
680.37	462.16
680.71	459.38
681.05	456.74
681.39	454.02
681.73	451.31
682.06	448.83
682.40	446.27
682.74	443.69
683.08	441.15
683.42	438.54
683.75	436.09
684.09	433.50
684.43	431.04
684.77	428.63
685.10	426.25
685.44	423.90
685.78	421.54
686.12	419.22
686.45	416.95
686.79	414.67
687.13	412.47
687.46	410.35
687.80	408.14
688.14	405.91
688.48	403.83
688.81	401.67
689.15	399.53
689.49	397.38
689.82	395.28
690.16	393.15
690.50	391.22
690.83	389.29
691.17	387.29
691.51	385.41
691.84	383.52
692.18	381.60
692.52	379.72
692.85	377.77
693.19	375.98
693.52	374.13
693.86	372.28
694.20	370.50
694.53	368.70
694.87	366.86
695.21	365.10
695.54	363.27
695.88	361.48
696.21	359.72
696.55	358.04
696.88	356.40
697.22	354.78
697.56	353.11
697.89	351.46
698.23	349.89
698.56	348.23
698.90	346.70
699.23	345.07
699.57	343.44
699.90	341.93
700.24	340.32
700.58	338.83
700.91	337.36
701.25	335.93
701.58	334.56
701.92	333.23
702.25	331.83
702.59	330.48
702.92	329.20
703.26	327.89
703.59	326.62
703.93	325.43
704.26	324.19
704.60	322.92
704.93	321.62
705.26	320.33
705.60	319.16
705.93	317.97
706.27	316.93
706.60	315.89
706.94	314.79
707.27	313.69
707.61	312.61
707.94	311.57
708.27	310.51
708.61	309.39
708.94	308.37
709.28	307.39
709.61	306.44
709.94	305.48
710.28	304.48
710.61	303.47
710.95	302.37
711.28	301.45
711.61	300.51
711.95	299.60
712.28	298.68
712.61	297.72
712.95	296.77
713.28	295.87
713.61	294.98
713.95	294.12
714.28	293.23
714.61	292.35
714.95	291.50
715.28	290.63
715.61	289.79
715.95	288.91
716.28	288.08
716.61	287.23
716.95	286.40
717.28	285.63
717.61	284.90
717.94	284.15
718.28	283.34
718.61	282.51
718.94	281.80
719.27	281.13
719.61	280.48
719.94	279.82
720.27	279.11
720.60	278.38
720.94	277.73
721.27	277.17
721.60	276.63
721.93	276.03
722.27	275.46
722.60	274.93
722.93	274.42
723.26	273.84
723.59	273.28
723.93	272.74
724.26	272.21
724.59	271.63
724.92	271.11
725.25	270.66
725.59	270.23
725.92	269.74
726.25	269.20
726.58	268.70
726.91	268.20
727.24	267.77
727.57	267.33
727.91	266.80
728.24	266.30
728.57	265.78
728.90	265.31
729.23	264.86
729.56	264.42
729.89	263.90
730.22	263.44
730.55	262.96
730.89	262.51
731.22	262.07
731.55	261.65
731.88	261.18
732.21	260.72
732.54	260.29
732.87	259.86
733.20	259.48
733.53	259.07
733.86	258.70
734.19	258.25
734.52	257.90
734.85	257.60
735.18	257.22
735.51	256.87
735.84	256.48
736.17	256.14
736.50	255.73
736.83	255.54
737.16	255.20
737.49	254.88
737.82	254.55
738.15	254.23
738.48	253.89
738.81	253.62
739.14	253.26
739.47	252.90
739.80	252.60
740.13	252.30
740.46	251.96
740.79	251.65
741.12	251.38
741.45	251.07
741.78	250.73
742.11	250.43
742.44	250.10
742.77	249.83
743.10	249.49
743.43	249.16
743.75	248.73
744.08	248.60
744.41	248.34
744.74	248.06
745.07	247.75
745.40	247.51
745.73	247.27
746.06	247.02
746.39	246.78
746.71	246.48
747.04	246.18
747.37	245.94
747.70	245.72
748.03	245.43
748.36	245.18
748.68	244.92
749.01	244.70
749.34	244.49
749.67	244.26
750.00	244.04
750.33	243.89
750.65	243.70
750.98	243.34
751.31	243.08
751.64	242.87
751.97	242.69
752.29	242.47
752.62	242.22
752.95	242.01
753.28	241.77
753.60	241.58
753.93	241.42
754.26	241.20
754.59	240.95
754.91	240.74
755.24	240.55
755.57	240.37
755.90	240.19
756.22	239.96
756.55	239.73
756.88	239.55
757.20	239.30
757.53	239.08
757.86	238.90
758.19	238.73
758.51	238.57
758.84	238.38
759.17	238.19
759.49	237.99
759.82	237.87
760.15	237.72
760.47	237.56
760.80	237.38
761.13	237.25
761.45	237.08
761.78	236.91
762.11	236.76
762.43	236.60
762.76	236.43
763.08	236.34
763.41	236.23
763.74	236.10
764.06	235.97
764.39	235.81
764.71	235.70
765.04	235.59
765.37	235.45
765.69	235.31
766.02	235.17
766.34	235.06
766.67	234.92
767.00	234.83
767.32	234.78
767.65	234.72
767.97	234.62
768.30	234.54
768.62	234.49
768.95	234.37
769.27	234.26
769.60	234.20
769.92	234.04
770.25	233.93
770.57	233.79
770.90	233.71
771.22	233.67
771.55	233.59
771.87	233.50
772.20	233.43
772.52	233.41
772.85	233.48
773.17	233.42
773.50	233.35
773.82	233.25
774.15	233.12
774.47	233.01
774.80	232.90
775.12	232.82
775.45	232.73
775.77	232.67
776.09	232.62
776.42	232.52
776.74	232.50
777.07	232.43
777.39	232.38
777.72	232.29
778.04	232.21
778.36	232.11
778.69	232.03
779.01	231.96
779.33	231.83
779.66	231.63
779.98	231.56
780.31	231.48
780.63	231.46
780.95	231.41
781.28	231.34
781.60	231.29
781.92	231.25
782.25	231.19
782.57	231.15
782.89	231.06
783.22	230.99
783.54	230.91
783.86	230.82
784.19	230.79
784.51	230.76
784.83	230.66
785.16	230.58
785.48	230.53
785.80	230.47
786.12	230.41
786.45	230.34
786.77	230.30
787.09	230.24
787.42	230.11
787.74	230.04
788.06	229.99
788.38	229.94
788.71	229.86
789.03	229.78
789.35	229.74
789.67	229.66
789.99	229.65
790.32	229.58
790.64	229.54
790.96	229.54
791.28	229.48
791.61	229.45
791.93	229.43
792.25	229.36
792.57	229.37
792.89	229.34
793.21	229.31
793.54	229.22
793.86	229.14
794.18	229.12
794.50	229.07
794.82	228.99
795.14	228.96
795.47	228.90
795.79	228.90
796.11	228.82
796.43	228.80
796.75	228.71
797.07	228.67
797.39	228.62
797.71	228.49
798.04	228.40
798.36	228.37
798.68	228.32
799.00	228.30
799.32	228.22
799.64	228.18
799.96	228.15
800.28	228.13
800.60	228.13
800.92	228.13
801.24	228.07
801.56	228.06
801.89	228.01
802.21	227.99
802.53	227.91
802.85	227.90
803.17	227.89
803.49	227.83
803.81	227.81
804.13	227.79
804.45	227.76
804.77	227.77
805.09	227.75
805.41	227.70
805.73	227.67
806.05	227.60
806.37	227.58
806.69	227.54
807.01	227.50
807.33	227.48
807.65	227.38
807.97	227.39
808.28	227.34
808.60	227.32
808.92	227.27
809.24	227.31
809.56	227.27
809.88	227.22
810.20	227.22
810.52	227.20
810.84	227.15
811.16	227.14
811.48	227.09
811.80	227.12
812.12	227.11
812.43	227.11
812.75	227.09
813.07	227.03
813.39	227.03
813.71	227.02
814.03	227.00
814.35	226.98
814.67	226.93
814.98	226.94
815.30	226.94
815.62	226.91
815.94	226.82
816.26	226.85
816.58	226.86
816.89	226.85
817.21	226.79
817.53	226.81
817.85	226.80
818.17	226.81
818.48	226.79
818.80	226.79
819.12	226.78
819.44	226.77
819.76	226.77
820.07	226.78
820.39	226.78
820.71	226.76
821.03	226.80
821.34	226.80
821.66	226.76
821.98	226.77
822.30	226.78
822.61	226.83
822.93	226.79
823.25	226.75
823.57	226.75
823.88	226.81
824.20	226.78
824.52	226.81
824.83	226.80
825.15	226.76
825.47	226.75
825.79	226.75
826.10	226.74
826.42	226.75
826.74	226.70
827.05	226.69
827.37	226.72
827.69	226.71
828.00	226.71
828.32	226.75
828.64	226.74
828.95	226.78
829.27	226.79
829.58	226.77
829.90	226.77
830.22	226.78
830.53	226.74
830.85	226.78
831.17	226.75
831.48	226.75
831.80	226.75
832.11	226.71
832.43	226.69
832.75	226.70
833.06	226.72
833.38	226.72
833.69	226.72
834.01	226.69
834.32	226.66
834.64	226.66
834.96	226.61
835.27	226.57
835.59	226.51
835.90	226.46
836.22	226.46
836.53	226.45
836.85	226.40
837.16	226.50
837.48	226.45
837.79	226.47
838.11	226.47
838.42	226.47
838.74	226.50
839.05	226.48
839.37	226.45
839.68	226.40
840.00	226.39
840.31	226.37
840.63	226.33
840.94	226.32
841.26	226.29
841.57	226.27
841.88	226.26
842.20	226.25
842.51	226.24
842.83	226.24
843.14	226.30
843.46	226.33
843.77	226.23
844.08	226.22
844.40	226.18
844.71	226.14
845.03	226.10
845.34	226.09
845.65	226.07
845.97	226.07
846.28	226.04
846.60	226.00
846.91	225.98
847.22	225.99
847.54	225.99
847.85	225.95
848.16	225.95
848.48	225.97
848.79	226.00
849.10	226.00
849.42	225.99
849.73	225.91
850.04	225.88
850.36	225.86
850.67	225.86
850.98	225.83
851.30	225.83
851.61	225.83
851.92	225.81
852.23	225.81
852.55	225.78
852.86	225.81
853.17	225.83
853.49	225.85
853.80	225.86
854.11	225.85
854.42	225.89
854.74	225.89
855.05	225.84
855.36	225.75
855.67	225.72
855.99	225.70
856.30	225.81
856.61	225.80
856.92	225.81
857.23	225.83
857.55	225.81
857.86	225.81
858.17	225.85
858.48	225.82
858.79	225.80
859.11	225.84
859.42	225.83
859.73	225.80
860.04	225.81
860.35	225.78
860.66	225.76
860.98	225.78
861.29	225.77
861.60	225.77
861.91	225.82
862.22	225.80
862.53	225.80
862.84	225.69
863.16	225.71
863.47	225.68
863.78	225.64
864.09	225.65
864.40	225.64
864.71	225.60
865.02	225.62
865.33	225.62
865.64	225.56
865.95	225.57
866.27	225.62
866.58	225.60
866.89	225.64
867.20	225.63
867.51	225.59
867.82	225.59
868.13	225.62
868.44	225.59
868.75	225.64
869.06	225.65
869.37	225.66
869.68	225.63
869.99	225.64
870.30	225.66
870.61	225.69
870.92	225.69
871.23	225.72
871.54	225.72
871.85	225.73
872.16	225.78
872.47	225.78
872.78	225.76
873.09	225.75
873.40	225.71
873.71	225.72
874.02	225.74
874.33	225.72
874.64	225.70
874.95	225.71
875.26	225.68
875.56	225.65
875.87	225.63
876.18	225.67
876.49	225.77
876.80	225.78
877.11	225.76
877.42	225.76
877.73	225.73
878.04	225.72
878.35	225.74
878.66	225.77
878.96	225.78
879.27	225.74
879.58	225.76
879.89	225.76
880.20	225.80
880.51	225.78
880.82	225.81
881.12	225.82
881.43	225.81
881.74	225.83
882.05	225.85
882.36	225.86
882.67	225.82
882.97	225.72
883.28	225.68
883.59	225.68
883.90	225.67
884.21	225.68
884.51	225.69
884.82	225.63
885.13	225.57
885.44	225.56
885.74	225.61
886.05	225.59
886.36	225.58
886.67	225.54
886.98	225.58
887.28	225.58
887.59	225.58
887.90	225.58
888.20	225.56
888.51	225.53
888.82	225.52
889.13	225.54
889.43	225.61
889.74	225.62
890.05	225.59
890.35	225.57
890.66	225.58
890.97	225.54
891.28	225.56
891.58	225.59
891.89	225.58
892.20	225.54
892.50	225.52
892.81	225.55
893.12	225.54
893.42	225.49
893.73	225.48
894.04	225.49
894.34	225.48
894.65	225.46
894.95	225.48
895.26	225.46
895.57	225.47
895.87	225.38
896.18	225.39
896.48	225.42
896.79	225.43
897.10	225.38
897.40	225.40
897.71	225.37
898.01	225.35
898.32	225.37
898.63	225.38
898.93	225.40
899.24	225.36
899.54	225.32
899.85	225.33
900.15	225.34
900.46	225.31
900.76	225.32
901.07	225.30
901.38	225.31
901.68	225.34
901.99	225.29
902.29	225.28
902.60	225.28
902.90	225.25
903.21	225.24
903.51	225.27
903.82	225.29
904.12	225.29
904.43	225.31
904.73	225.30
905.03	225.27
905.34	225.35
905.64	225.37
905.95	225.42
906.25	225.41
906.56	225.41
906.86	225.43
907.17	225.39
907.47	225.42
907.77	225.41
908.08	225.36
908.38	225.39
908.69	225.39
908.99	225.40
909.30	225.41
909.60	225.42
909.90	225.42
910.21	225.40
910.51	225.41
910.81	225.41
911.12	225.41
911.42	225.39
911.73	225.28
912.03	225.24
912.33	225.23
912.64	225.24
912.94	225.22
913.24	225.19
913.55	225.23
913.85	225.23
914.15	225.23
914.46	225.27
914.76	225.25
915.06	225.26
915.37	225.23
915.67	225.21
915.97	225.22
916.27	225.19
916.58	225.20
916.88	225.17
917.18	225.13
917.49	225.20
917.79	225.22
918.09	225.26
918.39	225.32
918.70	225.32
919.00	225.29
919.30	225.33
919.60	225.34
919.91	225.31
920.21	225.34
920.51	225.31
920.81	225.30
921.12	225.35
921.42	225.37
921.72	225.39
922.02	225.44
922.32	225.47
922.63	225.48
922.93	225.53
923.23	225.57
923.53	225.59
923.83	225.51
924.13	225.53
924.44	225.56
924.74	225.55
925.04	225.61
925.34	225.62
925.64	225.57
925.94	225.58
926.24	225.63
926.55	225.61
926.85	225.64
927.15	225.67
927.45	225.63
927.75	225.62
928.05	225.60
928.35	225.59
928.65	225.59
928.95	225.60
929.26	225.55
929.56	225.56
929.86	225.57
930.16	225.56
930.46	225.54
930.76	225.51
931.06	225.50
931.36	225.43
931.66	225.45
931.96	225.43
932.26	225.43
932.56	225.39
932.86	225.40
933.16	225.39
933.46	225.34
933.76	225.33
934.06	225.36
934.36	225.39
934.66	225.36
934.96	225.35
935.26	225.37
935.56	225.37
935.86	225.31
936.16	225.26
936.46	225.27
936.76	225.27
937.06	225.26
937.36	225.25
937.66	225.26
937.96	225.23
938.26	225.25
938.56	225.24
938.86	225.22
939.16	225.21
939.46	225.21
939.76	225.25
940.06	225.27
940.35	225.23
940.65	225.19
940.95	225.21
941.25	225.15
941.55	225.14
941.85	225.12
942.15	225.17
942.45	225.25
942.75	225.25
943.04	225.25
943.34	225.25
943.64	225.23
943.94	225.23
944.24	225.24
944.54	225.24
944.84	225.21
945.13	225.20
945.43	225.19
945.73	225.17
946.03	225.12
946.33	225.09
946.62	225.09
946.92	225.08
947.22	225.08
947.52	225.11
947.82	225.12
948.11	225.10
948.41	225.08
948.71	225.00
949.01	225.00
949.31	225.01
949.60	225.02
949.90	225.05
950.20	225.04
950.50	225.03
950.79	225.05
951.09	225.08
951.39	225.09
951.69	225.09
951.98	225.13
952.28	225.16
952.58	225.15
952.87	225.17
953.17	225.16
953.47	225.16
953.76	225.15
954.06	225.13
954.36	225.12
954.66	225.13
954.95	225.20
955.25	225.22
955.55	225.18
955.84	225.14
956.14	225.14
956.44	225.17
956.73	225.16
957.03	225.15
957.32	225.15
957.62	225.16
957.92	225.19
958.21	225.18
958.51	225.28
958.81	225.31
959.10	225.30
959.40	225.32
959.69	225.31
959.99	225.32
960.29	225.33
960.58	225.36
960.88	225.38
961.17	225.35
961.47	225.34
961.76	225.36
962.06	225.36
962.36	225.36
962.65	225.35
962.95	225.38
963.24	225.37
963.54	225.38
963.83	225.39
964.13	225.36
964.42	225.35
964.72	225.28
965.01	225.28
965.31	225.28
965.60	225.28
965.90	225.32
966.19	225.33
966.49	225.33
966.78	225.32
967.08	225.31
967.37	225.31
967.67	225.32
967.96	225.34
968.26	225.35
968.55	225.36
968.85	225.37
969.14	225.36
969.43	225.36
969.73	225.36
970.02	225.37
970.32	225.39
970.61	225.39
970.91	225.35
971.20	225.31
971.49	225.32
971.79	225.33
972.08	225.28
972.38	225.27
972.67	225.26
972.96	225.27
973.26	225.25
973.55	225.27
973.85	225.26
974.14	225.28
974.43	225.31
974.73	225.30
975.02	225.27
975.31	225.26
975.61	225.24
975.90	225.23
976.19	225.18
976.49	225.18
976.78	225.17
977.07	225.18
977.37	225.20
977.66	225.20
977.95	225.21
978.24	225.21
978.54	225.24
978.83	225.25
979.12	225.24
979.42	225.27
979.71	225.27
980.00	225.25
980.29	225.22
980.59	225.18
980.88	225.21
981.17	225.22
981.46	225.22
981.76	225.24
982.05	225.25
982.34	225.28
982.63	225.28
982.93	225.27
983.22	225.30
983.51	225.29
983.80	225.29
984.09	225.27
984.39	225.28
984.68	225.24
984.97	225.24
985.26	225.24
985.55	225.25
985.85	225.20
986.14	225.21
986.43	225.26
986.72	225.27
987.01	225.21
987.30	225.20
987.59	225.19
987.89	225.19
988.18	225.16
988.47	225.14
988.76	225.11
989.05	225.12
989.34	225.12
989.63	225.16
989.92	225.14
990.22	225.13
990.51	225.14
990.80	225.14
991.09	225.15
991.38	225.18
991.67	225.14
991.96	225.13
992.25	225.15
992.54	225.08
992.83	225.09
993.12	225.08
993.41	225.12
993.70	225.20
993.99	225.21
994.28	225.24
994.58	225.25
994.87	225.25
995.16	225.27
995.45	225.25
995.74	225.21
996.03	225.25
996.32	225.25
996.61	225.27
996.90	225.30
997.19	225.30
997.48	225.31
997.77	225.35
998.06	225.38
998.34	225.39
998.63	225.41
998.92	225.43
999.21	225.48
999.50	225.44
999.79	225.37
1000.08	225.37
1000.37	225.37
1000.66	225.38
1000.95	225.40
1001.24	225.40
1001.53	225.42
1001.82	225.45
1002.11	225.43
1002.40	225.49
1002.68	225.48
1002.97	225.52
1003.26	225.51
1003.55	225.47
1003.84	225.46
1004.13	225.47
1004.42	225.45
1004.71	225.44
1004.99	225.43
1005.28	225.41
1005.57	225.41
1005.86	225.41
1006.15	225.40
1006.44	225.43
1006.72	225.44
1007.01	225.42
1007.30	225.44
1007.59	225.40
1007.88	225.39
1008.17	225.40
1008.45	225.34
1008.74	225.31
1009.03	225.26
1009.32	225.25
1009.60	225.25
1009.89	225.25
1010.18	225.22
1010.47	225.22
1010.76	225.19
1011.04	225.16
1011.33	225.20
1011.62	225.23
1011.91	225.21
1012.19	225.24
1012.48	225.21
1012.77	225.18
1013.05	225.25
1013.34	225.21
1013.63	225.21
1013.92	225.25
1014.20	225.26
1014.49	225.27
1014.78	225.31
1015.06	225.30
1015.35	225.28
1015.64	225.28
1015.92	225.28
1016.21	225.29
1016.50	225.27
1016.78	225.30
1017.07	225.32
1017.36	225.28
1017.64	225.25
1017.93	225.28
1018.22	225.23
1018.50	225.23
1018.79	225.27
1019.08	225.22
1019.36	225.21
1019.65	225.20
1019.93	225.19
1020.22	225.20
1020.51	225.24
1020.79	225.21
1021.08	224.80
1021.36	225.28
1021.65	225.74
1021.94	225.29
1022.22	224.62
1022.51	225.13
1022.79	225.48
1023.08	225.69
1023.36	226.33
1023.65	225.02
>>>>>End Processed Spectral Data<<<<<
