SpectraSuite Data File
++++++++++++++++++++++++++++++++++++
Date: Fri Feb 01 15:00:07 EST 2013
User: group
Dark Spectrum Present: No
Reference Spectrum Present: No
Number of Sampled Component Spectra: 1
Spectrometers: USB2E7196
Integration Time (usec): 35000 (USB2E7196)
Spectra Averaged: 100 (USB2E7196)
Boxcar Smoothing: 10 (USB2E7196)
Correct for Electrical Dark: No (USB2E7196)
Strobe/Lamp Enabled: No (USB2E7196)
Correct for Detector Non-linearity: No (USB2E7196)
Correct for Stray Light: No (USB2E7196)
Number of Pixels in Processed Spectrum: 2048
>>>>>Begin Processed Spectral Data<<<<<
339.09	0.00
339.48	215.00
339.86	217.50
340.24	217.81
340.63	219.35
341.01	222.67
341.39	222.07
341.78	223.77
342.16	223.75
342.54	225.33
342.93	213.51
343.31	224.30
343.69	224.84
344.07	225.27
344.46	225.70
344.84	226.08
345.22	226.29
345.60	226.54
345.99	226.74
346.37	226.92
346.75	227.01
347.13	227.08
347.52	227.10
347.90	227.16
348.28	227.16
348.66	227.21
349.05	227.21
349.43	227.27
349.81	227.31
350.19	227.37
350.57	227.43
350.96	227.51
351.34	227.57
351.72	227.65
352.10	227.74
352.48	227.83
352.87	227.87
353.25	227.95
353.63	228.01
354.01	228.03
354.39	228.09
354.77	228.18
355.15	228.27
355.54	228.39
355.92	228.43
356.30	228.52
356.68	228.65
357.06	228.73
357.44	228.79
357.82	228.85
358.20	228.89
358.58	228.96
358.97	229.03
359.35	229.13
359.73	229.23
360.11	229.29
360.49	229.32
360.87	229.40
361.25	229.46
361.63	229.51
362.01	229.59
362.39	229.63
362.77	229.67
363.15	229.68
363.53	229.67
363.91	229.69
364.29	229.69
364.67	229.62
365.05	229.60
365.43	229.63
365.81	229.67
366.19	229.72
366.57	229.74
366.95	229.72
367.33	229.68
367.71	229.66
368.09	229.65
368.47	229.63
368.85	229.60
369.23	229.55
369.61	229.51
369.99	229.48
370.37	229.46
370.75	229.46
371.13	229.41
371.51	229.35
371.89	229.31
372.27	229.25
372.65	229.24
373.03	229.18
373.41	229.09
373.78	229.00
374.16	228.86
374.54	228.74
374.92	228.68
375.30	228.61
375.68	228.49
376.06	228.42
376.44	228.35
376.82	228.28
377.19	228.22
377.57	228.14
377.95	228.03
378.33	227.92
378.71	227.78
379.09	227.73
379.47	227.67
379.84	227.54
380.22	227.47
380.60	227.33
380.98	227.24
381.36	227.17
381.73	227.11
382.11	227.06
382.49	227.03
382.87	226.94
383.25	226.85
383.62	226.92
384.00	226.81
384.38	226.73
384.76	226.67
385.13	226.63
385.51	226.59
385.89	226.51
386.27	226.45
386.64	226.41
387.02	226.36
387.40	226.30
387.78	226.30
388.15	226.24
388.53	226.22
388.91	226.21
389.29	226.19
389.66	226.16
390.04	226.11
390.42	226.09
390.79	226.09
391.17	226.07
391.55	225.96
391.92	225.99
392.30	226.02
392.68	225.98
393.05	225.98
393.43	225.96
393.81	226.01
394.18	226.04
394.56	226.07
394.94	226.11
395.31	226.14
395.69	226.20
396.06	226.26
396.44	226.32
396.82	226.37
397.19	226.49
397.57	226.52
397.95	226.61
398.32	226.66
398.70	226.71
399.07	226.84
399.45	226.92
399.82	226.99
400.20	227.06
400.58	227.20
400.95	227.28
401.33	227.42
401.70	227.59
402.08	227.72
402.45	227.78
402.83	227.90
403.20	228.07
403.58	228.17
403.95	228.32
404.33	228.50
404.71	228.64
405.08	228.83
405.46	229.01
405.83	229.18
406.21	229.35
406.58	229.54
406.96	229.71
407.33	229.89
407.70	230.12
408.08	230.40
408.45	230.60
408.83	230.85
409.20	231.09
409.58	231.29
409.95	231.55
410.33	231.88
410.70	232.12
411.08	232.38
411.45	232.73
411.82	233.04
412.20	233.36
412.57	233.79
412.95	234.11
413.32	234.54
413.69	234.93
414.07	235.38
414.44	235.82
414.82	236.30
415.19	236.85
415.56	237.39
415.94	237.92
416.31	238.57
416.68	239.21
417.06	239.89
417.43	240.53
417.81	241.30
418.18	242.05
418.55	242.93
418.93	243.81
419.30	244.68
419.67	245.60
420.04	246.53
420.42	247.51
420.79	248.64
421.16	249.77
421.54	250.98
421.91	252.20
422.28	253.47
422.66	254.78
423.03	256.06
423.40	257.38
423.77	258.80
424.15	260.21
424.52	261.68
424.89	263.25
425.26	264.81
425.64	266.25
426.01	267.86
426.38	269.47
426.75	271.12
427.13	272.84
427.50	274.66
427.87	276.56
428.24	278.41
428.61	280.19
428.99	282.16
429.36	284.27
429.73	286.26
430.10	288.28
430.47	290.39
430.85	292.54
431.22	294.82
431.59	297.19
431.96	299.45
432.33	301.96
432.70	304.37
433.08	307.19
433.45	309.84
433.82	312.45
434.19	315.35
434.56	318.17
434.93	320.86
435.30	323.44
435.68	326.31
436.05	329.14
436.42	331.94
436.79	334.45
437.16	337.12
437.53	340.02
437.90	342.87
438.27	345.59
438.64	348.43
439.01	351.05
439.38	353.25
439.75	355.47
440.13	357.96
440.50	360.28
440.87	362.10
441.24	364.05
441.61	366.20
441.98	367.74
442.35	369.57
442.72	371.45
443.09	373.29
443.46	374.35
443.83	374.94
444.20	375.40
444.57	376.21
444.94	376.50
445.31	376.85
445.68	377.22
446.05	377.29
446.42	376.93
446.79	376.51
447.16	376.08
447.53	375.75
447.90	374.61
448.27	373.42
448.64	371.88
449.01	370.74
449.37	368.80
449.74	366.89
450.11	364.63
450.48	362.11
450.85	359.61
451.22	357.41
451.59	355.41
451.96	353.54
452.33	350.94
452.70	348.61
453.07	345.78
453.43	342.85
453.80	340.10
454.17	337.35
454.54	334.78
454.91	332.12
455.28	329.42
455.65	326.93
456.02	324.54
456.38	322.43
456.75	319.81
457.12	317.53
457.49	315.31
457.86	313.14
458.23	311.32
458.59	309.25
458.96	307.18
459.33	305.31
459.70	303.41
460.07	301.92
460.43	300.18
460.80	298.54
461.17	297.11
461.54	295.61
461.91	294.22
462.27	292.79
462.64	291.47
463.01	290.14
463.38	288.80
463.74	287.39
464.11	286.18
464.48	285.15
464.85	284.03
465.21	283.12
465.58	282.20
465.95	281.09
466.32	280.20
466.68	279.26
467.05	278.35
467.42	277.48
467.78	276.53
468.15	275.62
468.52	274.90
468.88	274.00
469.25	273.19
469.62	272.53
469.98	271.77
470.35	271.16
470.72	270.48
471.08	269.83
471.45	269.27
471.82	268.71
472.18	268.07
472.55	267.63
472.92	267.09
473.28	266.60
473.65	266.11
474.02	265.65
474.38	265.30
474.75	264.95
475.11	264.59
475.48	264.26
475.85	264.03
476.21	263.80
476.58	263.59
476.94	263.43
477.31	263.23
477.67	263.10
478.04	262.93
478.41	262.87
478.77	262.89
479.14	262.84
479.50	262.84
479.87	262.92
480.23	262.93
480.60	262.99
480.96	263.07
481.33	263.26
481.69	263.42
482.06	263.61
482.42	263.82
482.79	264.04
483.15	264.41
483.52	264.79
483.88	265.15
484.25	265.54
484.61	265.95
484.98	266.42
485.34	266.98
485.71	267.59
486.07	268.22
486.44	268.77
486.80	269.47
487.17	270.18
487.53	270.96
487.90	271.85
488.26	272.78
488.62	273.75
488.99	274.72
489.35	275.76
489.72	276.88
490.08	278.05
490.44	279.24
490.81	280.55
491.17	281.88
491.54	283.34
491.90	284.88
492.26	286.54
492.63	288.26
492.99	290.01
493.36	291.90
493.72	293.91
494.08	295.99
494.45	298.20
494.81	300.56
495.17	303.00
495.54	305.53
495.90	308.20
496.26	310.97
496.63	313.91
496.99	317.03
497.35	320.26
497.72	323.67
498.08	327.24
498.44	330.89
498.80	334.81
499.17	338.83
499.53	342.97
499.89	347.35
500.26	351.85
500.62	356.56
500.98	361.51
501.34	366.53
501.71	371.84
502.07	377.27
502.43	382.87
502.79	388.68
503.16	394.72
503.52	400.95
503.88	407.38
504.24	413.95
504.60	420.84
504.97	427.94
505.33	435.23
505.69	442.87
506.05	450.64
506.41	458.50
506.78	466.65
507.14	475.09
507.50	483.79
507.86	492.81
508.22	501.92
508.59	511.13
508.95	520.74
509.31	530.57
509.67	540.63
510.03	550.90
510.39	561.36
510.75	572.18
511.12	583.06
511.48	594.31
511.84	605.81
512.20	617.33
512.56	629.29
512.92	641.49
513.28	653.87
513.64	666.35
514.00	679.03
514.37	691.96
514.73	705.02
515.09	718.04
515.45	731.40
515.81	745.02
516.17	758.97
516.53	773.06
516.89	787.18
517.25	801.33
517.61	815.78
517.97	830.29
518.33	844.68
518.69	859.49
519.05	874.56
519.41	889.69
519.77	905.18
520.13	920.74
520.49	936.09
520.85	951.57
521.21	967.41
521.57	983.66
521.93	999.52
522.29	1015.97
522.65	1032.26
523.01	1048.40
523.37	1064.59
523.73	1080.88
524.09	1097.10
524.45	1113.48
524.81	1130.21
525.17	1147.22
525.53	1164.16
525.89	1181.20
526.25	1198.18
526.61	1214.60
526.97	1231.45
527.33	1247.96
527.68	1264.65
528.04	1281.28
528.40	1297.95
528.76	1315.04
529.12	1331.66
529.48	1348.57
529.84	1364.62
530.20	1381.34
530.56	1398.48
530.91	1415.80
531.27	1432.59
531.63	1449.13
531.99	1465.85
532.35	1481.89
532.71	1497.72
533.07	1514.05
533.42	1530.02
533.78	1546.11
534.14	1562.45
534.50	1577.82
534.86	1593.87
535.21	1609.02
535.57	1624.94
535.93	1640.55
536.29	1655.19
536.65	1670.54
537.00	1685.48
537.36	1700.91
537.72	1715.53
538.08	1730.01
538.44	1743.94
538.79	1757.92
539.15	1771.71
539.51	1785.53
539.87	1799.98
540.22	1813.79
540.58	1827.77
540.94	1841.14
541.29	1854.16
541.65	1867.02
542.01	1880.43
542.37	1892.79
542.72	1905.31
543.08	1917.28
543.44	1929.60
543.79	1941.11
544.15	1952.16
544.51	1963.76
544.87	1974.75
545.22	1985.60
545.58	1995.84
545.94	2005.68
546.29	2015.63
546.65	2025.38
547.01	2034.57
547.36	2043.43
547.72	2052.02
548.07	2059.87
548.43	2068.02
548.79	2076.16
549.14	2083.71
549.50	2091.13
549.86	2098.82
550.21	2106.11
550.57	2113.27
550.92	2119.79
551.28	2126.84
551.64	2133.78
551.99	2140.31
552.35	2146.54
552.70	2152.70
553.06	2158.68
553.41	2165.07
553.77	2171.08
554.13	2177.29
554.48	2183.46
554.84	2188.72
555.19	2194.05
555.55	2199.11
555.90	2203.52
556.26	2208.24
556.61	2212.83
556.97	2216.89
557.32	2220.98
557.68	2224.98
558.03	2229.36
558.39	2233.24
558.74	2237.79
559.10	2241.60
559.45	2245.12
559.81	2249.44
560.16	2253.15
560.52	2256.43
560.87	2259.72
561.23	2262.29
561.58	2265.18
561.94	2267.61
562.29	2270.03
562.64	2272.55
563.00	2275.20
563.35	2278.86
563.71	2281.92
564.06	2285.07
564.42	2287.85
564.77	2290.14
565.12	2292.39
565.48	2294.03
565.83	2295.66
566.19	2296.89
566.54	2297.77
566.89	2298.76
567.25	2298.98
567.60	2300.26
567.96	2301.70
568.31	2302.40
568.66	2303.34
569.02	2303.77
569.37	2303.94
569.72	2304.62
570.08	2304.58
570.43	2304.40
570.78	2303.48
571.14	2301.82
571.49	2300.38
571.84	2299.97
572.20	2298.75
572.55	2297.46
572.90	2295.69
573.26	2294.17
573.61	2292.23
573.96	2290.20
574.31	2287.17
574.67	2284.10
575.02	2280.35
575.37	2276.79
575.72	2272.81
576.08	2269.41
576.43	2265.95
576.78	2262.20
577.13	2258.91
577.49	2255.71
577.84	2251.94
578.19	2248.05
578.54	2244.06
578.90	2239.66
579.25	2233.97
579.60	2228.94
579.95	2223.97
580.30	2218.84
580.66	2213.58
581.01	2208.52
581.36	2203.52
581.71	2199.04
582.06	2194.49
582.42	2189.75
582.77	2184.38
583.12	2179.68
583.47	2174.64
583.82	2169.46
584.17	2164.07
584.53	2158.41
584.88	2152.54
585.23	2146.80
585.58	2141.26
585.93	2135.83
586.28	2130.93
586.63	2125.78
586.98	2120.59
587.34	2115.77
587.69	2110.74
588.04	2105.36
588.39	2099.55
588.74	2092.86
589.09	2086.56
589.44	2079.67
589.79	2073.61
590.14	2067.94
590.49	2061.18
590.84	2054.84
591.19	2048.65
591.54	2042.04
591.89	2034.54
592.25	2027.74
592.60	2020.29
592.95	2012.51
593.30	2005.03
593.65	1997.37
594.00	1990.23
594.35	1982.98
594.70	1974.81
595.05	1967.46
595.40	1960.19
595.75	1952.64
596.10	1946.43
596.45	1939.61
596.80	1933.27
597.15	1926.47
597.50	1919.21
597.85	1912.68
598.19	1905.98
598.54	1898.75
598.89	1892.23
599.24	1886.27
599.59	1879.35
599.94	1873.16
600.29	1866.84
600.64	1860.32
600.99	1852.74
601.34	1845.75
601.69	1838.67
602.04	1831.68
602.39	1824.39
602.74	1817.33
603.08	1810.57
603.43	1803.80
603.78	1796.53
604.13	1789.35
604.48	1782.05
604.83	1775.23
605.18	1768.33
605.53	1760.16
605.87	1752.23
606.22	1744.93
606.57	1737.03
606.92	1729.74
607.27	1722.45
607.62	1715.51
607.96	1708.13
608.31	1701.55
608.66	1693.95
609.01	1686.39
609.36	1678.87
609.70	1670.88
610.05	1662.86
610.40	1655.19
610.75	1646.80
611.10	1639.30
611.44	1630.98
611.79	1623.04
612.14	1614.35
612.49	1605.38
612.83	1597.18
613.18	1589.16
613.53	1580.97
613.88	1572.36
614.22	1564.26
614.57	1555.87
614.92	1547.82
615.27	1540.19
615.61	1531.79
615.96	1523.84
616.31	1516.24
616.65	1508.87
617.00	1501.31
617.35	1493.70
617.70	1485.26
618.04	1476.89
618.39	1468.62
618.74	1461.03
619.08	1452.79
619.43	1445.38
619.78	1438.34
620.12	1431.08
620.47	1423.52
620.82	1415.49
621.16	1408.17
621.51	1400.65
621.85	1392.97
622.20	1384.58
622.55	1376.50
622.89	1368.76
623.24	1361.25
623.59	1353.89
623.93	1346.41
624.28	1339.23
624.62	1331.71
624.97	1324.77
625.32	1318.04
625.66	1311.02
626.01	1303.77
626.35	1296.24
626.70	1288.38
627.04	1280.71
627.39	1273.00
627.73	1265.60
628.08	1258.69
628.43	1251.42
628.77	1243.95
629.12	1236.46
629.46	1229.33
629.81	1221.96
630.15	1214.84
630.50	1207.36
630.84	1199.24
631.19	1191.43
631.53	1184.00
631.88	1176.54
632.22	1168.85
632.57	1161.63
632.91	1154.20
633.26	1146.94
633.60	1139.72
633.95	1132.80
634.29	1125.86
634.64	1119.30
634.98	1111.93
635.32	1104.85
635.67	1098.35
636.01	1091.78
636.36	1084.99
636.70	1078.57
637.05	1071.96
637.39	1065.49
637.73	1059.01
638.08	1053.18
638.42	1047.28
638.77	1040.82
639.11	1034.28
639.45	1028.03
639.80	1021.32
640.14	1014.90
640.49	1008.42
640.83	1002.15
641.17	995.91
641.52	989.59
641.86	983.25
642.20	977.53
642.55	971.34
642.89	964.89
643.23	958.42
643.58	952.70
643.92	946.47
644.26	940.47
644.61	934.59
644.95	928.64
645.29	922.01
645.64	915.18
645.98	908.90
646.32	903.13
646.66	897.10
647.01	891.45
647.35	885.77
647.69	879.98
648.04	874.54
648.38	868.73
648.72	862.78
649.06	856.65
649.41	850.78
649.75	844.74
650.09	838.78
650.43	833.00
650.78	826.85
651.12	820.92
651.46	815.15
651.80	809.32
652.14	804.01
652.49	798.67
652.83	793.54
653.17	787.84
653.51	782.13
653.85	776.75
654.20	771.09
654.54	765.13
654.88	759.43
655.22	753.55
655.56	747.84
655.90	742.34
656.25	737.08
656.59	731.74
656.93	726.58
657.27	721.47
657.61	716.06
657.95	710.98
658.29	705.92
658.64	700.76
658.98	695.53
659.32	690.01
659.66	684.88
660.00	679.61
660.34	674.71
660.68	669.78
661.02	664.75
661.36	660.08
661.70	655.61
662.05	651.23
662.39	646.91
662.73	642.56
663.07	638.25
663.41	633.82
663.75	629.36
664.09	624.90
664.43	620.57
664.77	616.47
665.11	612.24
665.45	608.17
665.79	604.05
666.13	599.89
666.47	595.87
666.81	591.69
667.15	587.60
667.49	583.76
667.83	579.96
668.17	576.03
668.51	571.94
668.85	567.96
669.19	564.11
669.53	560.35
669.87	556.45
670.21	552.80
670.55	549.24
670.89	545.85
671.23	542.48
671.57	539.01
671.91	535.46
672.25	531.99
672.58	528.51
672.92	525.18
673.26	522.05
673.60	518.94
673.94	515.89
674.28	513.03
674.62	510.07
674.96	507.03
675.30	504.22
675.64	501.34
675.97	498.65
676.31	495.81
676.65	492.82
676.99	490.15
677.33	487.30
677.67	484.48
678.01	481.43
678.34	478.41
678.68	475.59
679.02	472.85
679.36	470.16
679.70	467.46
680.04	464.68
680.37	461.83
680.71	459.08
681.05	456.54
681.39	453.78
681.73	451.17
682.06	448.65
682.40	446.05
682.74	443.54
683.08	440.98
683.42	438.39
683.75	436.02
684.09	433.51
684.43	431.07
684.77	428.64
685.10	426.37
685.44	424.10
685.78	421.78
686.12	419.55
686.45	417.30
686.79	415.02
687.13	412.89
687.46	410.79
687.80	408.65
688.14	406.43
688.48	404.42
688.81	402.17
689.15	400.06
689.49	397.98
689.82	395.92
690.16	393.84
690.50	391.90
690.83	389.88
691.17	387.98
691.51	386.11
691.84	384.26
692.18	382.32
692.52	380.34
692.85	378.42
693.19	376.51
693.52	374.70
693.86	372.94
694.20	371.18
694.53	369.43
694.87	367.64
695.21	365.84
695.54	364.06
695.88	362.38
696.21	360.69
696.55	358.98
696.88	357.31
697.22	355.63
697.56	354.05
697.89	352.36
698.23	350.67
698.56	349.03
698.90	347.40
699.23	345.79
699.57	344.24
699.90	342.72
700.24	341.22
700.58	339.65
700.91	338.12
701.25	336.61
701.58	335.17
701.92	333.75
702.25	332.39
702.59	331.00
702.92	329.68
703.26	328.36
703.59	327.10
703.93	325.93
704.26	324.71
704.60	323.42
704.93	322.18
705.26	320.96
705.60	319.82
705.93	318.69
706.27	317.64
706.60	316.63
706.94	315.55
707.27	314.43
707.61	313.42
707.94	312.40
708.27	311.36
708.61	310.33
708.94	309.37
709.28	308.37
709.61	307.39
709.94	306.43
710.28	305.44
710.61	304.48
710.95	303.43
711.28	302.56
711.61	301.62
711.95	300.75
712.28	299.87
712.61	298.89
712.95	298.01
713.28	297.14
713.61	296.24
713.95	295.36
714.28	294.52
714.61	293.62
714.95	292.78
715.28	291.93
715.61	291.05
715.95	290.17
716.28	289.36
716.61	288.57
716.95	287.79
717.28	287.06
717.61	286.30
717.94	285.59
718.28	284.77
718.61	284.09
718.94	283.42
719.27	282.74
719.61	282.09
719.94	281.41
720.27	280.67
720.60	280.03
720.94	279.37
721.27	278.79
721.60	278.24
721.93	277.65
722.27	277.13
722.60	276.59
722.93	276.04
723.26	275.54
723.59	274.98
723.93	274.43
724.26	273.89
724.59	273.33
724.92	272.80
725.25	272.33
725.59	271.79
725.92	271.29
726.25	270.82
726.58	270.33
726.91	269.84
727.24	269.43
727.57	268.98
727.91	268.52
728.24	268.03
728.57	267.55
728.90	267.10
729.23	266.62
729.56	266.18
729.89	265.75
730.22	265.22
730.55	264.79
730.89	264.34
731.22	263.87
731.55	263.44
731.88	262.98
732.21	262.58
732.54	262.13
732.87	261.70
733.20	261.26
733.53	260.92
733.86	260.56
734.19	260.18
734.52	259.73
734.85	259.40
735.18	259.01
735.51	258.63
735.84	258.26
736.17	257.88
736.50	257.51
736.83	257.25
737.16	256.93
737.49	256.58
737.82	256.20
738.15	255.91
738.48	255.56
738.81	255.25
739.14	254.86
739.47	254.53
739.80	254.21
740.13	253.93
740.46	253.54
740.79	253.20
741.12	252.89
741.45	252.60
741.78	252.24
742.11	251.94
742.44	251.62
742.77	251.33
743.10	251.01
743.43	250.70
743.75	250.32
744.08	250.15
744.41	249.84
744.74	249.57
745.07	249.24
745.40	249.02
745.73	248.77
746.06	248.49
746.39	248.25
746.71	247.99
747.04	247.69
747.37	247.43
747.70	247.19
748.03	246.91
748.36	246.66
748.68	246.44
749.01	246.17
749.34	245.93
749.67	245.70
750.00	245.49
750.33	245.30
750.65	245.08
750.98	244.76
751.31	244.57
751.64	244.36
751.97	244.23
752.29	243.98
752.62	243.75
752.95	243.56
753.28	243.37
753.60	243.17
753.93	243.02
754.26	242.85
754.59	242.60
754.91	242.37
755.24	242.19
755.57	242.00
755.90	241.86
756.22	241.69
756.55	241.48
756.88	241.28
757.20	241.08
757.53	240.89
757.86	240.73
758.19	240.60
758.51	240.46
758.84	240.25
759.17	240.08
759.49	239.94
759.82	239.82
760.15	239.66
760.47	239.50
760.80	239.34
761.13	239.19
761.45	239.08
761.78	238.97
762.11	238.81
762.43	238.68
762.76	238.55
763.08	238.45
763.41	238.31
763.74	238.21
764.06	238.08
764.39	237.92
764.71	237.77
765.04	237.63
765.37	237.50
765.69	237.36
766.02	237.26
766.34	237.11
766.67	236.97
767.00	236.90
767.32	236.85
767.65	236.80
767.97	236.68
768.30	236.59
768.62	236.49
768.95	236.38
769.27	236.23
769.60	236.13
769.92	236.00
770.25	235.88
770.57	235.73
770.90	235.63
771.22	235.55
771.55	235.47
771.87	235.37
772.20	235.28
772.52	235.28
772.85	235.31
773.17	235.22
773.50	235.14
773.82	234.98
774.15	234.84
774.47	234.68
774.80	234.59
775.12	234.47
775.45	234.40
775.77	234.33
776.09	234.27
776.42	234.18
776.74	234.13
777.07	234.07
777.39	234.01
777.72	233.93
778.04	233.86
778.36	233.81
778.69	233.76
779.01	233.70
779.33	233.54
779.66	233.33
779.98	233.27
780.31	233.21
780.63	233.20
780.95	233.14
781.28	233.06
781.60	232.99
781.92	232.96
782.25	232.89
782.57	232.83
782.89	232.73
783.22	232.67
783.54	232.59
783.86	232.52
784.19	232.45
784.51	232.41
784.83	232.35
785.16	232.24
785.48	232.16
785.80	232.10
786.12	232.07
786.45	232.02
786.77	231.97
787.09	231.94
787.42	231.85
787.74	231.81
788.06	231.77
788.38	231.70
788.71	231.62
789.03	231.54
789.35	231.50
789.67	231.49
789.99	231.47
790.32	231.42
790.64	231.40
790.96	231.48
791.28	231.40
791.61	231.35
791.93	231.32
792.25	231.27
792.57	231.28
792.89	231.23
793.21	231.21
793.54	231.16
793.86	231.05
794.18	231.03
794.50	230.95
794.82	230.91
795.14	230.90
795.47	230.86
795.79	230.90
796.11	230.84
796.43	230.78
796.75	230.73
797.07	230.68
797.39	230.62
797.71	230.49
798.04	230.48
798.36	230.44
798.68	230.44
799.00	230.43
799.32	230.36
799.64	230.31
799.96	230.27
800.28	230.24
800.60	230.25
800.92	230.23
801.24	230.24
801.56	230.22
801.89	230.19
802.21	230.16
802.53	230.10
802.85	230.12
803.17	230.17
803.49	230.13
803.81	230.11
804.13	230.10
804.45	230.08
804.77	230.06
805.09	230.06
805.41	230.00
805.73	229.97
806.05	229.95
806.37	229.94
806.69	229.94
807.01	229.92
807.33	229.90
807.65	229.84
807.97	229.84
808.28	229.80
808.60	229.75
808.92	229.72
809.24	229.77
809.56	229.71
809.88	229.63
810.20	229.61
810.52	229.60
810.84	229.56
811.16	229.51
811.48	229.48
811.80	229.48
812.12	229.46
812.43	229.45
812.75	229.41
813.07	229.39
813.39	229.37
813.71	229.36
814.03	229.31
814.35	229.28
814.67	229.25
814.98	229.26
815.30	229.28
815.62	229.28
815.94	229.19
816.26	229.23
816.58	229.18
816.89	229.19
817.21	229.18
817.53	229.17
817.85	229.19
818.17	229.16
818.48	229.09
818.80	229.14
819.12	229.14
819.44	229.10
819.76	229.10
820.07	229.07
820.39	229.02
820.71	229.02
821.03	229.02
821.34	229.01
821.66	228.96
821.98	228.98
822.30	228.95
822.61	228.98
822.93	228.91
823.25	228.90
823.57	228.86
823.88	228.83
824.20	228.79
824.52	228.78
824.83	228.77
825.15	228.74
825.47	228.68
825.79	228.64
826.10	228.60
826.42	228.57
826.74	228.55
827.05	228.54
827.37	228.53
827.69	228.49
828.00	228.46
828.32	228.47
828.64	228.42
828.95	228.45
829.27	228.42
829.58	228.39
829.90	228.41
830.22	228.43
830.53	228.42
830.85	228.40
831.17	228.37
831.48	228.36
831.80	228.38
832.11	228.37
832.43	228.35
832.75	228.37
833.06	228.40
833.38	228.39
833.69	228.38
834.01	228.37
834.32	228.39
834.64	228.38
834.96	228.33
835.27	228.31
835.59	228.30
835.90	228.27
836.22	228.28
836.53	228.24
836.85	228.22
837.16	228.30
837.48	228.29
837.79	228.32
838.11	228.31
838.42	228.30
838.74	228.30
839.05	228.31
839.37	228.27
839.68	228.21
840.00	228.21
840.31	228.25
840.63	228.22
840.94	228.17
841.26	228.14
841.57	228.15
841.88	228.17
842.20	228.12
842.51	228.13
842.83	228.10
843.14	228.20
843.46	228.18
843.77	228.12
844.08	228.13
844.40	228.09
844.71	228.09
845.03	228.10
845.34	228.07
845.65	228.05
845.97	228.06
846.28	228.07
846.60	228.07
846.91	227.99
847.22	228.02
847.54	228.07
847.85	228.06
848.16	228.04
848.48	227.99
848.79	228.02
849.10	228.02
849.42	228.04
849.73	227.95
850.04	227.97
850.36	227.96
850.67	227.98
850.98	228.02
851.30	228.01
851.61	227.99
851.92	227.99
852.23	228.05
852.55	228.05
852.86	228.05
853.17	228.06
853.49	228.12
853.80	228.12
854.11	228.10
854.42	228.14
854.74	228.14
855.05	228.16
855.36	228.12
855.67	228.10
855.99	228.09
856.30	228.20
856.61	228.15
856.92	228.12
857.23	228.09
857.55	228.05
857.86	228.02
858.17	228.00
858.48	227.98
858.79	227.90
859.11	227.90
859.42	227.90
859.73	227.88
860.04	227.86
860.35	227.83
860.66	227.80
860.98	227.76
861.29	227.79
861.60	227.75
861.91	227.77
862.22	227.77
862.53	227.74
862.84	227.57
863.16	227.57
863.47	227.54
863.78	227.54
864.09	227.54
864.40	227.55
864.71	227.57
865.02	227.58
865.33	227.58
865.64	227.57
865.95	227.56
866.27	227.61
866.58	227.60
866.89	227.62
867.20	227.61
867.51	227.62
867.82	227.56
868.13	227.62
868.44	227.58
868.75	227.56
869.06	227.58
869.37	227.60
869.68	227.58
869.99	227.60
870.30	227.57
870.61	227.56
870.92	227.52
871.23	227.51
871.54	227.53
871.85	227.56
872.16	227.57
872.47	227.54
872.78	227.45
873.09	227.46
873.40	227.43
873.71	227.45
874.02	227.43
874.33	227.43
874.64	227.40
874.95	227.43
875.26	227.44
875.56	227.45
875.87	227.48
876.18	227.47
876.49	227.59
876.80	227.62
877.11	227.61
877.42	227.65
877.73	227.65
878.04	227.62
878.35	227.62
878.66	227.58
878.96	227.60
879.27	227.61
879.58	227.60
879.89	227.62
880.20	227.64
880.51	227.69
880.82	227.69
881.12	227.69
881.43	227.71
881.74	227.67
882.05	227.65
882.36	227.65
882.67	227.70
882.97	227.56
883.28	227.57
883.59	227.57
883.90	227.56
884.21	227.58
884.51	227.58
884.82	227.58
885.13	227.64
885.44	227.65
885.74	227.68
886.05	227.68
886.36	227.70
886.67	227.63
886.98	227.66
887.28	227.73
887.59	227.74
887.90	227.72
888.20	227.75
888.51	227.76
888.82	227.73
889.13	227.74
889.43	227.86
889.74	227.83
890.05	227.82
890.35	227.83
890.66	227.82
890.97	227.81
891.28	227.78
891.58	227.75
891.89	227.71
892.20	227.67
892.50	227.65
892.81	227.60
893.12	227.62
893.42	227.58
893.73	227.53
894.04	227.56
894.34	227.57
894.65	227.57
894.95	227.55
895.26	227.52
895.57	227.54
895.87	227.39
896.18	227.42
896.48	227.39
896.79	227.35
897.10	227.38
897.40	227.40
897.71	227.41
898.01	227.41
898.32	227.45
898.63	227.44
898.93	227.42
899.24	227.43
899.54	227.40
899.85	227.39
900.15	227.37
900.46	227.33
900.76	227.30
901.07	227.26
901.38	227.26
901.68	227.29
901.99	227.25
902.29	227.25
902.60	227.24
902.90	227.28
903.21	227.28
903.51	227.24
903.82	227.22
904.12	227.20
904.43	227.18
904.73	227.15
905.03	227.18
905.34	227.26
905.64	227.24
905.95	227.24
906.25	227.22
906.56	227.22
906.86	227.18
907.17	227.16
907.47	227.17
907.77	227.16
908.08	227.12
908.38	227.13
908.69	227.15
908.99	227.17
909.30	227.16
909.60	227.16
909.90	227.16
910.21	227.13
910.51	227.13
910.81	227.10
911.12	227.14
911.42	227.14
911.73	227.03
912.03	227.02
912.33	227.06
912.64	227.04
912.94	227.03
913.24	227.05
913.55	227.04
913.85	227.05
914.15	227.04
914.46	227.09
914.76	227.05
915.06	227.05
915.37	227.02
915.67	227.03
915.97	227.03
916.27	226.99
916.58	227.03
916.88	227.01
917.18	227.01
917.49	227.05
917.79	227.03
918.09	227.11
918.39	227.18
918.70	227.17
919.00	227.21
919.30	227.25
919.60	227.25
919.91	227.28
920.21	227.29
920.51	227.30
920.81	227.31
921.12	227.33
921.42	227.36
921.72	227.38
922.02	227.36
922.32	227.38
922.63	227.40
922.93	227.42
923.23	227.48
923.53	227.50
923.83	227.43
924.13	227.46
924.44	227.42
924.74	227.44
925.04	227.46
925.34	227.46
925.64	227.45
925.94	227.48
926.24	227.53
926.55	227.52
926.85	227.54
927.15	227.53
927.45	227.57
927.75	227.54
928.05	227.54
928.35	227.55
928.65	227.55
928.95	227.55
929.26	227.53
929.56	227.51
929.86	227.50
930.16	227.48
930.46	227.46
930.76	227.48
931.06	227.42
931.36	227.40
931.66	227.38
931.96	227.40
932.26	227.40
932.56	227.37
932.86	227.38
933.16	227.37
933.46	227.36
933.76	227.30
934.06	227.33
934.36	227.37
934.66	227.34
934.96	227.33
935.26	227.34
935.56	227.36
935.86	227.33
936.16	227.33
936.46	227.34
936.76	227.33
937.06	227.30
937.36	227.28
937.66	227.26
937.96	227.27
938.26	227.24
938.56	227.20
938.86	227.19
939.16	227.21
939.46	227.17
939.76	227.15
940.06	227.16
940.35	227.13
940.65	227.06
940.95	227.06
941.25	227.02
941.55	227.00
941.85	226.99
942.15	227.01
942.45	227.03
942.75	227.00
943.04	226.99
943.34	227.00
943.64	227.00
943.94	226.97
944.24	226.94
944.54	226.95
944.84	226.98
945.13	226.96
945.43	226.93
945.73	226.95
946.03	226.98
946.33	226.94
946.62	226.95
946.92	226.96
947.22	226.98
947.52	227.00
947.82	227.00
948.11	226.98
948.41	226.99
948.71	226.96
949.01	226.96
949.31	226.95
949.60	226.97
949.90	227.00
950.20	227.03
950.50	227.04
950.79	227.00
951.09	227.00
951.39	227.02
951.69	227.05
951.98	227.06
952.28	227.05
952.58	227.08
952.87	227.07
953.17	227.10
953.47	227.09
953.76	227.13
954.06	227.14
954.36	227.17
954.66	227.16
954.95	227.20
955.25	227.23
955.55	227.26
955.84	227.25
956.14	227.27
956.44	227.26
956.73	227.28
957.03	227.30
957.32	227.28
957.62	227.26
957.92	227.25
958.21	227.23
958.51	227.33
958.81	227.32
959.10	227.32
959.40	227.32
959.69	227.34
959.99	227.34
960.29	227.34
960.58	227.33
960.88	227.36
961.17	227.36
961.47	227.36
961.76	227.37
962.06	227.36
962.36	227.36
962.65	227.37
962.95	227.37
963.24	227.35
963.54	227.34
963.83	227.35
964.13	227.34
964.42	227.34
964.72	227.25
965.01	227.25
965.31	227.25
965.60	227.23
965.90	227.28
966.19	227.27
966.49	227.26
966.78	227.23
967.08	227.21
967.37	227.19
967.67	227.21
967.96	227.19
968.26	227.21
968.55	227.21
968.85	227.20
969.14	227.21
969.43	227.21
969.73	227.22
970.02	227.25
970.32	227.26
970.61	227.25
970.91	227.23
971.20	227.23
971.49	227.21
971.79	227.21
972.08	227.11
972.38	227.11
972.67	227.09
972.96	227.08
973.26	227.05
973.55	227.09
973.85	227.06
974.14	227.06
974.43	227.07
974.73	227.02
975.02	227.00
975.31	226.96
975.61	226.94
975.90	226.91
976.19	226.82
976.49	226.80
976.78	226.79
977.07	226.79
977.37	226.79
977.66	226.79
977.95	226.77
978.24	226.77
978.54	226.77
978.83	226.77
979.12	226.79
979.42	226.76
979.71	226.72
980.00	226.71
980.29	226.69
980.59	226.66
980.88	226.69
981.17	226.68
981.46	226.68
981.76	226.69
982.05	226.72
982.34	226.78
982.63	226.78
982.93	226.78
983.22	226.81
983.51	226.83
983.80	226.84
984.09	226.84
984.39	226.89
984.68	226.89
984.97	226.88
985.26	226.88
985.55	226.91
985.85	226.91
986.14	226.89
986.43	226.94
986.72	226.94
987.01	226.91
987.30	226.91
987.59	226.92
987.89	226.93
988.18	226.93
988.47	226.92
988.76	226.91
989.05	226.95
989.34	226.91
989.63	226.92
989.92	226.92
990.22	226.95
990.51	226.93
990.80	226.92
991.09	226.95
991.38	226.96
991.67	226.95
991.96	226.99
992.25	227.04
992.54	227.01
992.83	227.01
993.12	227.00
993.41	227.05
993.70	227.12
993.99	227.15
994.28	227.20
994.58	227.23
994.87	227.24
995.16	227.20
995.45	227.21
995.74	227.20
996.03	227.20
996.32	227.19
996.61	227.19
996.90	227.21
997.19	227.22
997.48	227.26
997.77	227.25
998.06	227.23
998.34	227.22
998.63	227.22
998.92	227.22
999.21	227.25
999.50	227.25
999.79	227.22
1000.08	227.20
1000.37	227.16
1000.66	227.10
1000.95	227.14
1001.24	227.18
1001.53	227.22
1001.82	227.23
1002.11	227.25
1002.40	227.28
1002.68	227.33
1002.97	227.39
1003.26	227.35
1003.55	227.33
1003.84	227.33
1004.13	227.37
1004.42	227.39
1004.71	227.43
1004.99	227.42
1005.28	227.48
1005.57	227.49
1005.86	227.47
1006.15	227.46
1006.44	227.45
1006.72	227.49
1007.01	227.46
1007.30	227.46
1007.59	227.44
1007.88	227.41
1008.17	227.39
1008.45	227.35
1008.74	227.29
1009.03	227.26
1009.32	227.25
1009.60	227.23
1009.89	227.22
1010.18	227.18
1010.47	227.12
1010.76	227.09
1011.04	227.11
1011.33	227.08
1011.62	227.06
1011.91	227.05
1012.19	227.05
1012.48	227.04
1012.77	227.04
1013.05	227.10
1013.34	227.06
1013.63	227.02
1013.92	227.03
1014.20	227.01
1014.49	227.02
1014.78	227.03
1015.06	226.98
1015.35	226.98
1015.64	227.01
1015.92	227.02
1016.21	227.01
1016.50	227.02
1016.78	227.02
1017.07	227.00
1017.36	226.96
1017.64	226.92
1017.93	226.93
1018.22	226.93
1018.50	226.94
1018.79	226.95
1019.08	226.91
1019.36	226.94
1019.65	226.96
1019.93	226.98
1020.22	226.98
1020.51	227.04
1020.79	227.00
1021.08	226.91
1021.36	227.08
1021.65	227.40
1021.94	227.54
1022.22	227.15
1022.51	226.95
1022.79	227.18
1023.08	226.75
1023.36	228.16
1023.65	226.44
>>>>>End Processed Spectral Data<<<<<
