SpectraSuite Data File
++++++++++++++++++++++++++++++++++++
Date: Fri Feb 01 15:07:20 EST 2013
User: group
Dark Spectrum Present: No
Reference Spectrum Present: No
Number of Sampled Component Spectra: 1
Spectrometers: USB2E7196
Integration Time (usec): 35000 (USB2E7196)
Spectra Averaged: 100 (USB2E7196)
Boxcar Smoothing: 10 (USB2E7196)
Correct for Electrical Dark: No (USB2E7196)
Strobe/Lamp Enabled: No (USB2E7196)
Correct for Detector Non-linearity: No (USB2E7196)
Correct for Stray Light: No (USB2E7196)
Number of Pixels in Processed Spectrum: 2048
>>>>>Begin Processed Spectral Data<<<<<
339.09	0.00
339.48	214.66
339.86	216.46
340.24	218.20
340.63	219.06
341.01	221.55
341.39	221.61
341.78	222.67
342.16	224.44
342.54	224.92
342.93	213.29
343.31	224.07
343.69	224.64
344.07	225.11
344.46	225.53
344.84	225.92
345.22	226.18
345.60	226.46
345.99	226.66
346.37	226.78
346.75	226.92
347.13	226.98
347.52	227.00
347.90	227.10
348.28	227.10
348.66	227.15
349.05	227.16
349.43	227.22
349.81	227.30
350.19	227.35
350.57	227.43
350.96	227.50
351.34	227.60
351.72	227.65
352.10	227.75
352.48	227.83
352.87	227.90
353.25	227.96
353.63	228.02
354.01	228.11
354.39	228.24
354.77	228.31
355.15	228.44
355.54	228.55
355.92	228.60
356.30	228.70
356.68	228.85
357.06	228.89
357.44	228.95
357.82	229.03
358.20	229.13
358.58	229.14
358.97	229.22
359.35	229.29
359.73	229.37
360.11	229.42
360.49	229.46
360.87	229.49
361.25	229.57
361.63	229.63
362.01	229.66
362.39	229.65
362.77	229.65
363.15	229.63
363.53	229.63
363.91	229.64
364.29	229.63
364.67	229.55
365.05	229.58
365.43	229.57
365.81	229.55
366.19	229.55
366.57	229.61
366.95	229.59
367.33	229.56
367.71	229.56
368.09	229.53
368.47	229.51
368.85	229.48
369.23	229.46
369.61	229.39
369.99	229.41
370.37	229.38
370.75	229.39
371.13	229.37
371.51	229.29
371.89	229.27
372.27	229.23
372.65	229.20
373.03	229.13
373.41	229.10
373.78	229.04
374.16	228.93
374.54	228.83
374.92	228.76
375.30	228.68
375.68	228.58
376.06	228.54
376.44	228.48
376.82	228.42
377.19	228.32
377.57	228.23
377.95	228.12
378.33	228.03
378.71	227.87
379.09	227.84
379.47	227.78
379.84	227.67
380.22	227.59
380.60	227.48
380.98	227.41
381.36	227.32
381.73	227.23
382.11	227.20
382.49	227.11
382.87	227.04
383.25	226.97
383.62	227.02
384.00	226.92
384.38	226.88
384.76	226.83
385.13	226.84
385.51	226.80
385.89	226.73
386.27	226.66
386.64	226.64
387.02	226.56
387.40	226.51
387.78	226.50
388.15	226.45
388.53	226.39
388.91	226.37
389.29	226.36
389.66	226.40
390.04	226.31
390.42	226.31
390.79	226.28
391.17	226.31
391.55	226.19
391.92	226.17
392.30	226.13
392.68	226.12
393.05	226.12
393.43	226.15
393.81	226.18
394.18	226.24
394.56	226.30
394.94	226.34
395.31	226.38
395.69	226.43
396.06	226.51
396.44	226.58
396.82	226.59
397.19	226.67
397.57	226.68
397.95	226.79
398.32	226.84
398.70	226.95
399.07	227.01
399.45	227.10
399.82	227.23
400.20	227.32
400.58	227.44
400.95	227.45
401.33	227.55
401.70	227.70
402.08	227.79
402.45	227.89
402.83	228.04
403.20	228.17
403.58	228.27
403.95	228.39
404.33	228.57
404.71	228.71
405.08	228.91
405.46	229.09
405.83	229.24
406.21	229.44
406.58	229.57
406.96	229.74
407.33	229.94
407.70	230.11
408.08	230.39
408.45	230.60
408.83	230.88
409.20	231.10
409.58	231.31
409.95	231.59
410.33	231.83
410.70	232.08
411.08	232.40
411.45	232.70
411.82	233.02
412.20	233.38
412.57	233.83
412.95	234.12
413.32	234.49
413.69	234.89
414.07	235.31
414.44	235.78
414.82	236.29
415.19	236.82
415.56	237.40
415.94	237.91
416.31	238.56
416.68	239.19
417.06	239.91
417.43	240.60
417.81	241.32
418.18	242.13
418.55	242.95
418.93	243.79
419.30	244.68
419.67	245.63
420.04	246.55
420.42	247.51
420.79	248.70
421.16	249.84
421.54	251.02
421.91	252.21
422.28	253.48
422.66	254.80
423.03	256.07
423.40	257.39
423.77	258.84
424.15	260.26
424.52	261.73
424.89	263.32
425.26	264.88
425.64	266.33
426.01	267.93
426.38	269.60
426.75	271.28
427.13	273.01
427.50	274.79
427.87	276.63
428.24	278.53
428.61	280.27
428.99	282.22
429.36	284.35
429.73	286.47
430.10	288.49
430.47	290.52
430.85	292.67
431.22	294.92
431.59	297.31
431.96	299.55
432.33	302.07
432.70	304.47
433.08	307.27
433.45	309.91
433.82	312.48
434.19	315.39
434.56	318.20
434.93	320.87
435.30	323.48
435.68	326.39
436.05	329.19
436.42	332.01
436.79	334.55
437.16	337.22
437.53	340.04
437.90	342.86
438.27	345.65
438.64	348.47
439.01	351.06
439.38	353.26
439.75	355.44
440.13	357.89
440.50	360.24
440.87	362.10
441.24	364.09
441.61	366.26
441.98	367.73
442.35	369.52
442.72	371.38
443.09	373.20
443.46	374.25
443.83	374.80
444.20	375.30
444.57	376.11
444.94	376.44
445.31	376.76
445.68	377.12
446.05	377.16
446.42	376.76
446.79	376.36
447.16	375.93
447.53	375.58
447.90	374.42
448.27	373.21
448.64	371.59
449.01	370.40
449.37	368.46
449.74	366.56
450.11	364.31
450.48	361.84
450.85	359.28
451.22	357.10
451.59	355.12
451.96	353.12
452.33	350.55
452.70	348.17
453.07	345.37
453.43	342.45
453.80	339.70
454.17	337.02
454.54	334.42
454.91	331.70
455.28	329.02
455.65	326.54
456.02	324.08
456.38	321.93
456.75	319.28
457.12	317.03
457.49	314.81
457.86	312.64
458.23	310.77
458.59	308.74
458.96	306.63
459.33	304.78
459.70	302.91
460.07	301.36
460.43	299.59
460.80	297.94
461.17	296.48
461.54	294.95
461.91	293.53
462.27	292.11
462.64	290.87
463.01	289.54
463.38	288.26
463.74	286.94
464.11	285.75
464.48	284.71
464.85	283.60
465.21	282.69
465.58	281.77
465.95	280.72
466.32	279.79
466.68	278.88
467.05	277.94
467.42	277.08
467.78	276.18
468.15	275.33
468.52	274.65
468.88	273.80
469.25	273.04
469.62	272.39
469.98	271.70
470.35	271.03
470.72	270.40
471.08	269.69
471.45	269.10
471.82	268.53
472.18	267.93
472.55	267.46
472.92	266.92
473.28	266.44
473.65	265.95
474.02	265.53
474.38	265.19
474.75	264.88
475.11	264.58
475.48	264.30
475.85	264.07
476.21	263.81
476.58	263.60
476.94	263.46
477.31	263.29
477.67	263.14
478.04	263.05
478.41	263.02
478.77	263.06
479.14	262.99
479.50	263.02
479.87	263.11
480.23	263.20
480.60	263.26
480.96	263.36
481.33	263.56
481.69	263.75
482.06	263.93
482.42	264.11
482.79	264.32
483.15	264.62
483.52	264.96
483.88	265.31
484.25	265.73
484.61	266.14
484.98	266.60
485.34	267.19
485.71	267.76
486.07	268.35
486.44	268.95
486.80	269.64
487.17	270.36
487.53	271.19
487.90	272.01
488.26	272.97
488.62	273.92
488.99	274.87
489.35	275.88
489.72	277.01
490.08	278.26
490.44	279.50
490.81	280.80
491.17	282.19
491.54	283.69
491.90	285.19
492.26	286.87
492.63	288.60
492.99	290.32
493.36	292.19
493.72	294.19
494.08	296.32
494.45	298.59
494.81	300.96
495.17	303.37
495.54	305.92
495.90	308.59
496.26	311.38
496.63	314.31
496.99	317.43
497.35	320.69
497.72	324.07
498.08	327.61
498.44	331.30
498.80	335.15
499.17	339.12
499.53	343.25
499.89	347.56
500.26	352.05
500.62	356.72
500.98	361.69
501.34	366.74
501.71	372.01
502.07	377.44
502.43	383.05
502.79	388.81
503.16	394.89
503.52	401.13
503.88	407.48
504.24	414.11
504.60	420.99
504.97	428.03
505.33	435.24
505.69	442.92
506.05	450.71
506.41	458.65
506.78	466.82
507.14	475.30
507.50	484.05
507.86	493.05
508.22	502.16
508.59	511.31
508.95	520.90
509.31	530.64
509.67	540.72
510.03	550.96
510.39	561.54
510.75	572.34
511.12	583.27
511.48	594.57
511.84	605.98
512.20	617.51
512.56	629.48
512.92	641.73
513.28	654.01
513.64	666.43
514.00	679.13
514.37	692.06
514.73	705.16
515.09	718.20
515.45	731.44
515.81	745.13
516.17	759.14
516.53	773.23
516.89	787.39
517.25	801.51
517.61	816.04
517.97	830.55
518.33	844.95
518.69	859.81
519.05	874.88
519.41	890.15
519.77	905.71
520.13	921.26
520.49	936.65
520.85	952.20
521.21	967.96
521.57	984.24
521.93	1000.20
522.29	1016.58
522.65	1032.86
523.01	1049.24
523.37	1065.34
523.73	1081.60
524.09	1097.79
524.45	1114.27
524.81	1131.11
525.17	1147.99
525.53	1164.96
525.89	1181.87
526.25	1198.67
526.61	1215.16
526.97	1232.01
527.33	1248.57
527.68	1265.22
528.04	1281.82
528.40	1298.46
528.76	1315.63
529.12	1332.19
529.48	1349.14
529.84	1365.31
530.20	1382.14
530.56	1399.21
530.91	1416.75
531.27	1433.54
531.63	1450.01
531.99	1466.64
532.35	1482.55
532.71	1498.44
533.07	1514.69
533.42	1530.77
533.78	1546.93
534.14	1563.28
534.50	1578.53
534.86	1594.53
535.21	1609.72
535.57	1625.74
535.93	1641.42
536.29	1656.31
536.65	1671.62
537.00	1686.49
537.36	1701.73
537.72	1716.17
538.08	1730.62
538.44	1744.34
538.79	1758.34
539.15	1772.33
539.51	1786.13
539.87	1800.61
540.22	1814.35
540.58	1828.32
540.94	1841.82
541.29	1854.86
541.65	1867.66
542.01	1880.99
542.37	1893.20
542.72	1905.82
543.08	1917.57
543.44	1930.05
543.79	1941.33
544.15	1952.27
544.51	1963.78
544.87	1974.98
545.22	1985.79
545.58	1996.01
545.94	2005.83
546.29	2015.68
546.65	2025.40
547.01	2034.62
547.36	2043.33
547.72	2051.79
548.07	2059.61
548.43	2067.70
548.79	2075.79
549.14	2083.26
549.50	2090.79
549.86	2098.65
550.21	2105.88
550.57	2113.15
550.92	2119.57
551.28	2126.65
551.64	2133.69
551.99	2140.23
552.35	2146.31
552.70	2152.48
553.06	2158.42
553.41	2164.69
553.77	2170.80
554.13	2176.92
554.48	2182.96
554.84	2188.42
555.19	2193.85
555.55	2198.93
555.90	2203.40
556.26	2208.18
556.61	2212.93
556.97	2216.91
557.32	2220.93
557.68	2225.04
558.03	2229.43
558.39	2233.12
558.74	2237.66
559.10	2241.33
559.45	2244.98
559.81	2249.32
560.16	2253.06
560.52	2256.31
560.87	2259.80
561.23	2262.30
561.58	2265.18
561.94	2267.67
562.29	2270.10
562.64	2272.67
563.00	2275.34
563.35	2278.81
563.71	2281.84
564.06	2284.94
564.42	2287.89
564.77	2290.42
565.12	2292.66
565.48	2294.26
565.83	2295.98
566.19	2297.23
566.54	2298.36
566.89	2299.36
567.25	2299.71
567.60	2301.21
567.96	2302.76
568.31	2303.51
568.66	2304.50
569.02	2305.06
569.37	2305.36
569.72	2306.01
570.08	2306.03
570.43	2305.82
570.78	2305.05
571.14	2303.46
571.49	2302.08
571.84	2301.66
572.20	2300.25
572.55	2298.99
572.90	2297.59
573.26	2296.14
573.61	2294.36
573.96	2292.33
574.31	2289.28
574.67	2286.14
575.02	2282.30
575.37	2278.78
575.72	2274.80
576.08	2271.51
576.43	2268.04
576.78	2264.38
577.13	2261.21
577.49	2258.14
577.84	2254.59
578.19	2250.75
578.54	2246.90
578.90	2242.46
579.25	2236.81
579.60	2231.67
579.95	2226.58
580.30	2221.30
580.66	2216.07
581.01	2211.00
581.36	2205.84
581.71	2201.57
582.06	2197.04
582.42	2192.44
582.77	2187.19
583.12	2182.52
583.47	2177.57
583.82	2172.41
584.17	2166.96
584.53	2161.22
584.88	2155.42
585.23	2149.45
585.58	2143.89
585.93	2138.44
586.28	2133.71
586.63	2128.52
586.98	2123.62
587.34	2118.83
587.69	2113.79
588.04	2108.40
588.39	2102.52
588.74	2096.22
589.09	2089.82
589.44	2082.90
589.79	2076.85
590.14	2071.07
590.49	2064.42
590.84	2058.02
591.19	2051.78
591.54	2045.27
591.89	2037.72
592.25	2030.73
592.60	2023.48
592.95	2015.78
593.30	2008.22
593.65	2000.49
594.00	1993.37
594.35	1985.96
594.70	1978.02
595.05	1970.65
595.40	1963.43
595.75	1955.90
596.10	1949.42
596.45	1942.68
596.80	1936.45
597.15	1929.57
597.50	1922.35
597.85	1915.81
598.19	1908.95
598.54	1901.83
598.89	1895.12
599.24	1889.25
599.59	1882.45
599.94	1876.21
600.29	1869.82
600.64	1863.30
600.99	1855.62
601.34	1848.63
601.69	1841.50
602.04	1834.39
602.39	1827.03
602.74	1819.93
603.08	1813.23
603.43	1806.56
603.78	1799.27
604.13	1792.08
604.48	1784.72
604.83	1777.96
605.18	1770.92
605.53	1762.97
605.87	1755.02
606.22	1747.65
606.57	1739.70
606.92	1732.52
607.27	1725.22
607.62	1718.26
607.96	1710.87
608.31	1704.46
608.66	1696.98
609.01	1689.43
609.36	1681.90
609.70	1673.90
610.05	1665.83
610.40	1658.00
610.75	1649.71
611.10	1641.99
611.44	1633.59
611.79	1625.69
612.14	1616.94
612.49	1607.88
612.83	1599.50
613.18	1591.38
613.53	1583.45
613.88	1574.95
614.22	1566.64
614.57	1558.17
614.92	1550.04
615.27	1542.46
615.61	1534.13
615.96	1526.08
616.31	1518.45
616.65	1511.08
617.00	1503.51
617.35	1495.94
617.70	1487.59
618.04	1479.02
618.39	1470.75
618.74	1463.14
619.08	1454.95
619.43	1447.47
619.78	1440.61
620.12	1433.52
620.47	1425.96
620.82	1417.80
621.16	1410.44
621.51	1402.90
621.85	1395.31
622.20	1386.89
622.55	1378.56
622.89	1370.64
623.24	1363.11
623.59	1355.82
623.93	1348.28
624.28	1341.11
624.62	1333.55
624.97	1326.44
625.32	1319.76
625.66	1312.82
626.01	1305.67
626.35	1298.13
626.70	1290.40
627.04	1282.67
627.39	1274.91
627.73	1267.59
628.08	1260.64
628.43	1253.31
628.77	1245.92
629.12	1238.34
629.46	1231.13
629.81	1223.90
630.15	1216.68
630.50	1209.30
630.84	1201.08
631.19	1193.35
631.53	1185.88
631.88	1178.39
632.22	1170.85
632.57	1163.54
632.91	1156.09
633.26	1148.70
633.60	1141.45
633.95	1134.43
634.29	1127.44
634.64	1120.85
634.98	1113.50
635.32	1106.45
635.67	1100.00
636.01	1093.40
636.36	1086.69
636.70	1080.32
637.05	1073.60
637.39	1067.32
637.73	1060.84
638.08	1055.05
638.42	1048.97
638.77	1042.52
639.11	1035.93
639.45	1029.61
639.80	1023.06
640.14	1016.51
640.49	1010.09
640.83	1003.80
641.17	997.56
641.52	991.27
641.86	984.88
642.20	979.02
642.55	972.71
642.89	966.09
643.23	959.59
643.58	953.81
643.92	947.55
644.26	941.58
644.61	935.56
644.95	929.54
645.29	922.98
645.64	916.22
645.98	910.00
646.32	904.21
646.66	898.19
647.01	892.37
647.35	886.78
647.69	880.97
648.04	875.48
648.38	869.67
648.72	863.67
649.06	857.53
649.41	851.70
649.75	845.72
650.09	839.85
650.43	834.03
650.78	827.88
651.12	822.07
651.46	816.41
651.80	810.55
652.14	805.14
652.49	799.76
652.83	794.66
653.17	788.92
653.51	783.18
653.85	777.82
654.20	772.16
654.54	766.17
654.88	760.40
655.22	754.45
655.56	748.80
655.90	743.32
656.25	738.12
656.59	732.79
656.93	727.71
657.27	722.59
657.61	717.18
657.95	712.19
658.29	707.09
658.64	701.86
658.98	696.69
659.32	691.20
659.66	686.08
660.00	680.73
660.34	675.89
660.68	671.02
661.02	666.05
661.36	661.43
661.70	657.01
662.05	652.64
662.39	648.37
662.73	643.90
663.07	639.60
663.41	635.14
663.75	630.71
664.09	626.19
664.43	621.88
664.77	617.80
665.11	613.43
665.45	609.30
665.79	605.25
666.13	601.07
666.47	597.04
666.81	592.80
667.15	588.76
667.49	584.86
667.83	581.09
668.17	577.14
668.51	573.01
668.85	568.93
669.19	565.08
669.53	561.25
669.87	557.39
670.21	553.75
670.55	550.17
670.89	546.67
671.23	543.30
671.57	539.71
671.91	536.23
672.25	532.84
672.58	529.37
672.92	525.94
673.26	522.79
673.60	519.65
673.94	516.57
674.28	513.70
674.62	510.77
674.96	507.68
675.30	504.72
675.64	501.83
675.97	499.10
676.31	496.28
676.65	493.36
676.99	490.69
677.33	487.79
677.67	484.95
678.01	481.89
678.34	478.86
678.68	476.04
679.02	473.21
679.36	470.46
679.70	467.73
680.04	465.02
680.37	462.15
680.71	459.36
681.05	456.75
681.39	454.03
681.73	451.38
682.06	448.83
682.40	446.34
682.74	443.82
683.08	441.31
683.42	438.73
683.75	436.22
684.09	433.71
684.43	431.27
684.77	428.83
685.10	426.60
685.44	424.33
685.78	422.08
686.12	419.83
686.45	417.52
686.79	415.27
687.13	413.09
687.46	410.97
687.80	408.85
688.14	406.71
688.48	404.66
688.81	402.41
689.15	400.30
689.49	398.18
689.82	396.09
690.16	394.05
690.50	392.12
690.83	390.19
691.17	388.23
691.51	386.33
691.84	384.47
692.18	382.52
692.52	380.53
692.85	378.59
693.19	376.81
693.52	375.06
693.86	373.25
694.20	371.45
694.53	369.61
694.87	367.76
695.21	365.98
695.54	364.20
695.88	362.51
696.21	360.79
696.55	359.14
696.88	357.48
697.22	355.83
697.56	354.17
697.89	352.50
698.23	350.91
698.56	349.32
698.90	347.77
699.23	346.08
699.57	344.52
699.90	342.97
700.24	341.38
700.58	339.82
700.91	338.33
701.25	336.87
701.58	335.56
701.92	334.25
702.25	332.89
702.59	331.49
702.92	330.16
703.26	328.82
703.59	327.54
703.93	326.41
704.26	325.17
704.60	323.93
704.93	322.74
705.26	321.51
705.60	320.32
705.93	319.14
706.27	318.17
706.60	317.20
706.94	316.12
707.27	315.01
707.61	313.96
707.94	312.96
708.27	311.91
708.61	310.84
708.94	309.78
709.28	308.78
709.61	307.84
709.94	306.91
710.28	305.96
710.61	304.98
710.95	303.90
711.28	302.99
711.61	302.04
711.95	301.09
712.28	300.11
712.61	299.15
712.95	298.27
713.28	297.39
713.61	296.46
713.95	295.58
714.28	294.75
714.61	293.87
714.95	293.02
715.28	292.20
715.61	291.31
715.95	290.48
716.28	289.61
716.61	288.75
716.95	287.92
717.28	287.19
717.61	286.42
717.94	285.65
718.28	284.85
718.61	284.11
718.94	283.41
719.27	282.80
719.61	282.15
719.94	281.46
720.27	280.75
720.60	280.09
720.94	279.45
721.27	278.83
721.60	278.24
721.93	277.65
722.27	277.08
722.60	276.55
722.93	276.01
723.26	275.51
723.59	274.99
723.93	274.44
724.26	273.85
724.59	273.30
724.92	272.77
725.25	272.27
725.59	271.77
725.92	271.29
726.25	270.75
726.58	270.23
726.91	269.73
727.24	269.23
727.57	268.76
727.91	268.27
728.24	267.82
728.57	267.37
728.90	266.89
729.23	266.39
729.56	265.94
729.89	265.45
730.22	264.96
730.55	264.52
730.89	264.07
731.22	263.66
731.55	263.22
731.88	262.82
732.21	262.40
732.54	261.99
732.87	261.58
733.20	261.17
733.53	260.79
733.86	260.46
734.19	260.09
734.52	259.73
734.85	259.44
735.18	259.03
735.51	258.67
735.84	258.31
736.17	257.95
736.50	257.54
736.83	257.30
737.16	256.96
737.49	256.61
737.82	256.26
738.15	255.92
738.48	255.64
738.81	255.29
739.14	254.96
739.47	254.64
739.80	254.28
740.13	254.02
740.46	253.72
740.79	253.36
741.12	253.04
741.45	252.73
741.78	252.35
742.11	252.05
742.44	251.74
742.77	251.46
743.10	251.18
743.43	250.91
743.75	250.55
744.08	250.38
744.41	250.12
744.74	249.86
745.07	249.59
745.40	249.30
745.73	249.10
746.06	248.82
746.39	248.56
746.71	248.32
747.04	248.02
747.37	247.76
747.70	247.53
748.03	247.25
748.36	247.02
748.68	246.79
749.01	246.57
749.34	246.31
749.67	246.06
750.00	245.80
750.33	245.65
750.65	245.39
750.98	245.05
751.31	244.82
751.64	244.58
751.97	244.37
752.29	244.20
752.62	243.91
752.95	243.70
753.28	243.47
753.60	243.25
753.93	243.08
754.26	242.85
754.59	242.65
754.91	242.47
755.24	242.26
755.57	242.08
755.90	241.88
756.22	241.70
756.55	241.52
756.88	241.35
757.20	241.11
757.53	240.93
757.86	240.78
758.19	240.60
758.51	240.45
758.84	240.28
759.17	240.07
759.49	239.92
759.82	239.82
760.15	239.67
760.47	239.54
760.80	239.38
761.13	239.29
761.45	239.15
761.78	239.02
762.11	238.90
762.43	238.77
762.76	238.63
763.08	238.49
763.41	238.38
763.74	238.26
764.06	238.12
764.39	237.99
764.71	237.84
765.04	237.71
765.37	237.57
765.69	237.43
766.02	237.27
766.34	237.17
766.67	236.99
767.00	236.90
767.32	236.84
767.65	236.75
767.97	236.60
768.30	236.46
768.62	236.35
768.95	236.20
769.27	236.08
769.60	235.98
769.92	235.86
770.25	235.72
770.57	235.59
770.90	235.50
771.22	235.37
771.55	235.29
771.87	235.19
772.20	235.09
772.52	235.05
772.85	235.12
773.17	234.99
773.50	234.89
773.82	234.78
774.15	234.65
774.47	234.50
774.80	234.43
775.12	234.31
775.45	234.23
775.77	234.16
776.09	234.08
776.42	233.99
776.74	233.95
777.07	233.86
777.39	233.79
777.72	233.72
778.04	233.72
778.36	233.65
778.69	233.60
779.01	233.51
779.33	233.40
779.66	233.20
779.98	233.16
780.31	233.13
780.63	233.11
780.95	233.05
781.28	233.00
781.60	232.91
781.92	232.88
782.25	232.82
782.57	232.76
782.89	232.70
783.22	232.65
783.54	232.58
783.86	232.52
784.19	232.45
784.51	232.43
784.83	232.32
785.16	232.26
785.48	232.21
785.80	232.21
786.12	232.14
786.45	232.08
786.77	232.03
787.09	232.00
787.42	231.88
787.74	231.81
788.06	231.78
788.38	231.74
788.71	231.70
789.03	231.66
789.35	231.63
789.67	231.58
789.99	231.57
790.32	231.53
790.64	231.50
790.96	231.55
791.28	231.46
791.61	231.44
791.93	231.41
792.25	231.36
792.57	231.36
792.89	231.35
793.21	231.31
793.54	231.28
793.86	231.21
794.18	231.22
794.50	231.16
794.82	231.12
795.14	231.11
795.47	231.07
795.79	231.03
796.11	230.98
796.43	230.95
796.75	230.94
797.07	230.91
797.39	230.87
797.71	230.76
798.04	230.75
798.36	230.71
798.68	230.73
799.00	230.70
799.32	230.62
799.64	230.58
799.96	230.55
800.28	230.53
800.60	230.48
800.92	230.44
801.24	230.45
801.56	230.43
801.89	230.38
802.21	230.37
802.53	230.31
802.85	230.29
803.17	230.30
803.49	230.25
803.81	230.22
804.13	230.20
804.45	230.17
804.77	230.14
805.09	230.09
805.41	230.00
805.73	229.95
806.05	229.91
806.37	229.87
806.69	229.85
807.01	229.80
807.33	229.77
807.65	229.70
807.97	229.71
808.28	229.66
808.60	229.65
808.92	229.62
809.24	229.67
809.56	229.62
809.88	229.54
810.20	229.52
810.52	229.48
810.84	229.44
811.16	229.43
811.48	229.40
811.80	229.45
812.12	229.44
812.43	229.45
812.75	229.45
813.07	229.40
813.39	229.37
813.71	229.33
814.03	229.32
814.35	229.27
814.67	229.21
814.98	229.18
815.30	229.14
815.62	229.07
815.94	228.95
816.26	228.97
816.58	228.96
816.89	228.95
817.21	228.94
817.53	228.94
817.85	228.90
818.17	228.84
818.48	228.78
818.80	228.76
819.12	228.71
819.44	228.65
819.76	228.67
820.07	228.65
820.39	228.67
820.71	228.63
821.03	228.64
821.34	228.65
821.66	228.64
821.98	228.63
822.30	228.62
822.61	228.69
822.93	228.66
823.25	228.65
823.57	228.60
823.88	228.59
824.20	228.54
824.52	228.57
824.83	228.55
825.15	228.55
825.47	228.54
825.79	228.55
826.10	228.53
826.42	228.50
826.74	228.50
827.05	228.51
827.37	228.52
827.69	228.52
828.00	228.47
828.32	228.47
828.64	228.44
828.95	228.48
829.27	228.44
829.58	228.41
829.90	228.41
830.22	228.38
830.53	228.38
830.85	228.37
831.17	228.29
831.48	228.30
831.80	228.28
832.11	228.26
832.43	228.25
832.75	228.25
833.06	228.32
833.38	228.30
833.69	228.26
834.01	228.26
834.32	228.24
834.64	228.24
834.96	228.24
835.27	228.24
835.59	228.22
835.90	228.21
836.22	228.16
836.53	228.13
836.85	228.15
837.16	228.25
837.48	228.28
837.79	228.36
838.11	228.34
838.42	228.34
838.74	228.36
839.05	228.35
839.37	228.35
839.68	228.26
840.00	228.26
840.31	228.32
840.63	228.31
840.94	228.27
841.26	228.28
841.57	228.28
841.88	228.26
842.20	228.25
842.51	228.24
842.83	228.27
843.14	228.35
843.46	228.37
843.77	228.25
844.08	228.22
844.40	228.15
844.71	228.20
845.03	228.17
845.34	228.14
845.65	228.10
845.97	228.08
846.28	228.09
846.60	228.09
846.91	228.03
847.22	228.04
847.54	228.08
847.85	228.09
848.16	228.06
848.48	228.05
848.79	228.07
849.10	228.09
849.42	228.08
849.73	228.00
850.04	227.97
850.36	227.94
850.67	227.96
850.98	227.97
851.30	227.96
851.61	227.96
851.92	227.94
852.23	227.98
852.55	227.97
852.86	227.96
853.17	227.93
853.49	227.93
853.80	227.94
854.11	227.92
854.42	227.93
854.74	227.92
855.05	227.90
855.36	227.88
855.67	227.85
855.99	227.88
856.30	227.96
856.61	227.93
856.92	227.96
857.23	227.94
857.55	227.92
857.86	227.88
858.17	227.88
858.48	227.89
858.79	227.89
859.11	227.90
859.42	227.95
859.73	227.94
860.04	227.96
860.35	227.94
860.66	227.90
860.98	227.86
861.29	227.85
861.60	227.84
861.91	227.86
862.22	227.85
862.53	227.81
862.84	227.73
863.16	227.78
863.47	227.74
863.78	227.72
864.09	227.73
864.40	227.74
864.71	227.73
865.02	227.74
865.33	227.73
865.64	227.73
865.95	227.70
866.27	227.75
866.58	227.73
866.89	227.73
867.20	227.74
867.51	227.73
867.82	227.75
868.13	227.79
868.44	227.73
868.75	227.72
869.06	227.72
869.37	227.73
869.68	227.66
869.99	227.70
870.30	227.72
870.61	227.73
870.92	227.69
871.23	227.67
871.54	227.69
871.85	227.70
872.16	227.67
872.47	227.65
872.78	227.59
873.09	227.61
873.40	227.58
873.71	227.60
874.02	227.59
874.33	227.58
874.64	227.55
874.95	227.58
875.26	227.57
875.56	227.55
875.87	227.53
876.18	227.55
876.49	227.61
876.80	227.59
877.11	227.56
877.42	227.58
877.73	227.59
878.04	227.55
878.35	227.56
878.66	227.58
878.96	227.58
879.27	227.58
879.58	227.55
879.89	227.58
880.20	227.59
880.51	227.61
880.82	227.60
881.12	227.58
881.43	227.58
881.74	227.56
882.05	227.60
882.36	227.56
882.67	227.55
882.97	227.45
883.28	227.43
883.59	227.43
883.90	227.43
884.21	227.44
884.51	227.44
884.82	227.39
885.13	227.39
885.44	227.39
885.74	227.42
886.05	227.41
886.36	227.38
886.67	227.35
886.98	227.39
887.28	227.42
887.59	227.44
887.90	227.41
888.20	227.41
888.51	227.37
888.82	227.39
889.13	227.41
889.43	227.50
889.74	227.48
890.05	227.49
890.35	227.51
890.66	227.52
890.97	227.52
891.28	227.55
891.58	227.53
891.89	227.51
892.20	227.47
892.50	227.50
892.81	227.47
893.12	227.49
893.42	227.45
893.73	227.42
894.04	227.41
894.34	227.45
894.65	227.46
894.95	227.47
895.26	227.50
895.57	227.54
895.87	227.43
896.18	227.45
896.48	227.46
896.79	227.43
897.10	227.44
897.40	227.43
897.71	227.44
898.01	227.45
898.32	227.45
898.63	227.48
898.93	227.46
899.24	227.50
899.54	227.48
899.85	227.46
900.15	227.47
900.46	227.47
900.76	227.49
901.07	227.46
901.38	227.45
901.68	227.43
901.99	227.38
902.29	227.39
902.60	227.40
902.90	227.40
903.21	227.41
903.51	227.38
903.82	227.40
904.12	227.39
904.43	227.38
904.73	227.43
905.03	227.38
905.34	227.45
905.64	227.41
905.95	227.45
906.25	227.46
906.56	227.47
906.86	227.47
907.17	227.43
907.47	227.46
907.77	227.47
908.08	227.46
908.38	227.48
908.69	227.47
908.99	227.49
909.30	227.47
909.60	227.46
909.90	227.49
910.21	227.46
910.51	227.46
910.81	227.49
911.12	227.46
911.42	227.49
911.73	227.43
912.03	227.43
912.33	227.44
912.64	227.44
912.94	227.42
913.24	227.40
913.55	227.42
913.85	227.40
914.15	227.42
914.46	227.44
914.76	227.42
915.06	227.43
915.37	227.42
915.67	227.43
915.97	227.43
916.27	227.41
916.58	227.39
916.88	227.41
917.18	227.35
917.49	227.38
917.79	227.37
918.09	227.37
918.39	227.40
918.70	227.39
919.00	227.40
919.30	227.44
919.60	227.45
919.91	227.42
920.21	227.44
920.51	227.39
920.81	227.38
921.12	227.40
921.42	227.38
921.72	227.38
922.02	227.39
922.32	227.40
922.63	227.39
922.93	227.46
923.23	227.42
923.53	227.44
923.83	227.42
924.13	227.47
924.44	227.44
924.74	227.46
925.04	227.47
925.34	227.46
925.64	227.43
925.94	227.43
926.24	227.48
926.55	227.47
926.85	227.51
927.15	227.50
927.45	227.45
927.75	227.48
928.05	227.51
928.35	227.50
928.65	227.53
928.95	227.52
929.26	227.49
929.56	227.50
929.86	227.49
930.16	227.47
930.46	227.45
930.76	227.50
931.06	227.45
931.36	227.45
931.66	227.47
931.96	227.46
932.26	227.46
932.56	227.42
932.86	227.41
933.16	227.41
933.46	227.40
933.76	227.43
934.06	227.43
934.36	227.45
934.66	227.44
934.96	227.46
935.26	227.45
935.56	227.48
935.86	227.45
936.16	227.44
936.46	227.44
936.76	227.40
937.06	227.36
937.36	227.37
937.66	227.37
937.96	227.34
938.26	227.34
938.56	227.36
938.86	227.36
939.16	227.39
939.46	227.38
939.76	227.36
940.06	227.38
940.35	227.37
940.65	227.31
940.95	227.32
941.25	227.25
941.55	227.27
941.85	227.27
942.15	227.31
942.45	227.37
942.75	227.36
943.04	227.36
943.34	227.38
943.64	227.38
943.94	227.35
944.24	227.35
944.54	227.33
944.84	227.31
945.13	227.31
945.43	227.25
945.73	227.27
946.03	227.27
946.33	227.23
946.62	227.20
946.92	227.19
947.22	227.17
947.52	227.18
947.82	227.17
948.11	227.16
948.41	227.11
948.71	227.03
949.01	227.02
949.31	227.00
949.60	227.01
949.90	227.00
950.20	226.98
950.50	226.99
950.79	226.99
951.09	227.01
951.39	226.97
951.69	226.99
951.98	227.00
952.28	227.00
952.58	227.01
952.87	227.03
953.17	227.09
953.47	227.07
953.76	227.06
954.06	227.05
954.36	227.03
954.66	227.05
954.95	227.11
955.25	227.12
955.55	227.14
955.84	227.12
956.14	227.16
956.44	227.20
956.73	227.19
957.03	227.19
957.32	227.20
957.62	227.22
957.92	227.25
958.21	227.22
958.51	227.34
958.81	227.35
959.10	227.37
959.40	227.35
959.69	227.38
959.99	227.41
960.29	227.41
960.58	227.40
960.88	227.43
961.17	227.42
961.47	227.41
961.76	227.38
962.06	227.42
962.36	227.40
962.65	227.40
962.95	227.38
963.24	227.38
963.54	227.40
963.83	227.46
964.13	227.49
964.42	227.47
964.72	227.40
965.01	227.39
965.31	227.40
965.60	227.40
965.90	227.45
966.19	227.44
966.49	227.46
966.78	227.46
967.08	227.47
967.37	227.44
967.67	227.43
967.96	227.47
968.26	227.46
968.55	227.47
968.85	227.47
969.14	227.49
969.43	227.46
969.73	227.43
970.02	227.38
970.32	227.35
970.61	227.37
970.91	227.31
971.20	227.31
971.49	227.28
971.79	227.28
972.08	227.19
972.38	227.20
972.67	227.15
972.96	227.17
973.26	227.14
973.55	227.20
973.85	227.20
974.14	227.18
974.43	227.16
974.73	227.12
975.02	227.08
975.31	227.05
975.61	227.04
975.90	227.05
976.19	227.04
976.49	227.04
976.78	227.02
977.07	227.04
977.37	227.03
977.66	227.05
977.95	227.02
978.24	227.05
978.54	227.05
978.83	227.05
979.12	227.02
979.42	227.03
979.71	227.01
980.00	227.00
980.29	227.02
980.59	227.00
980.88	227.03
981.17	227.04
981.46	227.08
981.76	227.08
982.05	227.10
982.34	227.08
982.63	227.10
982.93	227.06
983.22	227.06
983.51	227.05
983.80	227.01
984.09	227.03
984.39	227.01
984.68	227.02
984.97	227.01
985.26	227.01
985.55	226.97
985.85	226.89
986.14	226.88
986.43	226.88
986.72	226.88
987.01	226.89
987.30	226.89
987.59	226.87
987.89	226.85
988.18	226.83
988.47	226.82
988.76	226.79
989.05	226.81
989.34	226.83
989.63	226.86
989.92	226.88
990.22	226.88
990.51	226.86
990.80	226.84
991.09	226.86
991.38	226.87
991.67	226.85
991.96	226.86
992.25	226.91
992.54	226.88
992.83	226.89
993.12	226.85
993.41	226.85
993.70	226.89
993.99	226.93
994.28	226.96
994.58	226.98
994.87	227.00
995.16	226.98
995.45	226.95
995.74	226.90
996.03	226.92
996.32	226.88
996.61	226.91
996.90	226.93
997.19	226.95
997.48	226.98
997.77	226.99
998.06	227.02
998.34	227.01
998.63	227.02
998.92	227.00
999.21	227.02
999.50	227.00
999.79	226.93
1000.08	226.93
1000.37	226.94
1000.66	226.94
1000.95	226.96
1001.24	226.98
1001.53	227.02
1001.82	227.03
1002.11	227.01
1002.40	227.07
1002.68	227.07
1002.97	227.13
1003.26	227.10
1003.55	227.06
1003.84	227.09
1004.13	227.11
1004.42	227.11
1004.71	227.11
1004.99	227.11
1005.28	227.15
1005.57	227.16
1005.86	227.19
1006.15	227.20
1006.44	227.16
1006.72	227.17
1007.01	227.13
1007.30	227.14
1007.59	227.11
1007.88	227.09
1008.17	227.09
1008.45	227.04
1008.74	227.03
1009.03	226.99
1009.32	227.01
1009.60	227.06
1009.89	227.02
1010.18	227.00
1010.47	226.97
1010.76	226.98
1011.04	226.98
1011.33	226.96
1011.62	226.99
1011.91	227.00
1012.19	226.98
1012.48	226.98
1012.77	226.97
1013.05	226.99
1013.34	226.97
1013.63	226.99
1013.92	227.00
1014.20	226.98
1014.49	226.99
1014.78	227.01
1015.06	226.97
1015.35	226.97
1015.64	226.97
1015.92	227.01
1016.21	227.04
1016.50	227.05
1016.78	227.06
1017.07	227.07
1017.36	227.08
1017.64	227.04
1017.93	227.05
1018.22	227.07
1018.50	227.06
1018.79	227.04
1019.08	227.04
1019.36	227.03
1019.65	227.00
1019.93	227.02
1020.22	227.03
1020.51	227.10
1020.79	227.07
1021.08	227.19
1021.36	226.83
1021.65	226.52
1021.94	226.81
1022.22	226.55
1022.51	226.84
1022.79	226.96
1023.08	226.70
1023.36	228.34
1023.65	226.78
>>>>>End Processed Spectral Data<<<<<
