SpectraSuite Data File
++++++++++++++++++++++++++++++++++++
Date: Fri Feb 01 16:15:56 EST 2013
User: group
Dark Spectrum Present: No
Reference Spectrum Present: No
Number of Sampled Component Spectra: 1
Spectrometers: USB2E7196
Integration Time (usec): 35000 (USB2E7196)
Spectra Averaged: 100 (USB2E7196)
Boxcar Smoothing: 10 (USB2E7196)
Correct for Electrical Dark: No (USB2E7196)
Strobe/Lamp Enabled: No (USB2E7196)
Correct for Detector Non-linearity: No (USB2E7196)
Correct for Stray Light: No (USB2E7196)
Number of Pixels in Processed Spectrum: 2048
>>>>>Begin Processed Spectral Data<<<<<
339.09	0.00
339.48	213.95
339.86	215.69
340.24	217.30
340.63	218.49
341.01	221.26
341.39	220.71
341.78	222.00
342.16	223.70
342.54	223.48
342.93	212.51
343.31	223.28
343.69	223.82
344.07	224.29
344.46	224.69
344.84	225.05
345.22	225.26
345.60	225.53
345.99	225.72
346.37	225.84
346.75	225.97
347.13	226.02
347.52	226.06
347.90	226.14
348.28	226.16
348.66	226.20
349.05	226.20
349.43	226.25
349.81	226.32
350.19	226.37
350.57	226.42
350.96	226.49
351.34	226.53
351.72	226.62
352.10	226.71
352.48	226.80
352.87	226.87
353.25	226.95
353.63	227.00
354.01	227.07
354.39	227.16
354.77	227.25
355.15	227.36
355.54	227.43
355.92	227.45
356.30	227.53
356.68	227.68
357.06	227.74
357.44	227.77
357.82	227.82
358.20	227.89
358.58	227.93
358.97	227.97
359.35	228.07
359.73	228.15
360.11	228.17
360.49	228.22
360.87	228.27
361.25	228.33
361.63	228.41
362.01	228.46
362.39	228.48
362.77	228.53
363.15	228.55
363.53	228.57
363.91	228.58
364.29	228.63
364.67	228.53
365.05	228.54
365.43	228.61
365.81	228.61
366.19	228.61
366.57	228.66
366.95	228.67
367.33	228.62
367.71	228.65
368.09	228.64
368.47	228.63
368.85	228.60
369.23	228.59
369.61	228.56
369.99	228.54
370.37	228.53
370.75	228.53
371.13	228.47
371.51	228.40
371.89	228.38
372.27	228.28
372.65	228.26
373.03	228.25
373.41	228.15
373.78	228.09
374.16	228.05
374.54	227.94
374.92	227.90
375.30	227.82
375.68	227.69
376.06	227.64
376.44	227.52
376.82	227.45
377.19	227.36
377.57	227.26
377.95	227.17
378.33	227.06
378.71	226.92
379.09	226.84
379.47	226.74
379.84	226.63
380.22	226.59
380.60	226.49
380.98	226.40
381.36	226.30
381.73	226.20
382.11	226.13
382.49	226.08
382.87	226.01
383.25	225.98
383.62	226.03
384.00	225.94
384.38	225.93
384.76	225.93
385.13	225.90
385.51	225.86
385.89	225.82
386.27	225.79
386.64	225.75
387.02	225.70
387.40	225.70
387.78	225.67
388.15	225.61
388.53	225.58
388.91	225.54
389.29	225.53
389.66	225.55
390.04	225.53
390.42	225.55
390.79	225.51
391.17	225.48
391.55	225.37
391.92	225.40
392.30	225.40
392.68	225.35
393.05	225.37
393.43	225.40
393.81	225.40
394.18	225.40
394.56	225.43
394.94	225.49
395.31	225.52
395.69	225.60
396.06	225.66
396.44	225.69
396.82	225.73
397.19	225.84
397.57	225.85
397.95	225.93
398.32	225.92
398.70	226.00
399.07	226.09
399.45	226.17
399.82	226.21
400.20	226.29
400.58	226.35
400.95	226.38
401.33	226.44
401.70	226.58
402.08	226.66
402.45	226.79
402.83	226.89
403.20	226.98
403.58	227.07
403.95	227.18
404.33	227.32
404.71	227.45
405.08	227.63
405.46	227.80
405.83	227.92
406.21	228.08
406.58	228.22
406.96	228.35
407.33	228.53
407.70	228.72
408.08	228.97
408.45	229.19
408.83	229.44
409.20	229.66
409.58	229.84
409.95	230.13
410.33	230.38
410.70	230.64
411.08	230.93
411.45	231.25
411.82	231.59
412.20	231.94
412.57	232.37
412.95	232.62
413.32	233.01
413.69	233.43
414.07	233.87
414.44	234.33
414.82	234.81
415.19	235.35
415.56	235.88
415.94	236.41
416.31	237.06
416.68	237.66
417.06	238.37
417.43	239.05
417.81	239.79
418.18	240.55
418.55	241.40
418.93	242.28
419.30	243.15
419.67	244.05
420.04	245.01
420.42	245.93
420.79	247.14
421.16	248.29
421.54	249.46
421.91	250.66
422.28	251.94
422.66	253.27
423.03	254.55
423.40	255.89
423.77	257.29
424.15	258.72
424.52	260.24
424.89	261.85
425.26	263.39
425.64	264.86
426.01	266.43
426.38	268.08
426.75	269.77
427.13	271.47
427.50	273.28
427.87	275.13
428.24	276.99
428.61	278.71
428.99	280.65
429.36	282.76
429.73	284.84
430.10	286.87
430.47	288.95
430.85	291.08
431.22	293.33
431.59	295.69
431.96	297.90
432.33	300.38
432.70	302.76
433.08	305.56
433.45	308.22
433.82	310.82
434.19	313.69
434.56	316.49
434.93	319.16
435.30	321.75
435.68	324.63
436.05	327.44
436.42	330.25
436.79	332.77
437.16	335.48
437.53	338.27
437.90	341.10
438.27	343.79
438.64	346.61
439.01	349.24
439.38	351.50
439.75	353.70
440.13	356.16
440.50	358.52
440.87	360.36
441.24	362.28
441.61	364.42
441.98	365.95
442.35	367.73
442.72	369.58
443.09	371.40
443.46	372.40
443.83	373.01
444.20	373.51
444.57	374.32
444.94	374.58
445.31	374.93
445.68	375.26
446.05	375.33
446.42	374.96
446.79	374.52
447.16	374.07
447.53	373.76
447.90	372.60
448.27	371.43
448.64	369.90
449.01	368.76
449.37	366.83
449.74	364.90
450.11	362.66
450.48	360.23
450.85	357.75
451.22	355.63
451.59	353.63
451.96	351.68
452.33	349.10
452.70	346.76
453.07	343.90
453.43	340.97
453.80	338.20
454.17	335.49
454.54	332.93
454.91	330.24
455.28	327.54
455.65	325.07
456.02	322.63
456.38	320.46
456.75	317.81
457.12	315.54
457.49	313.31
457.86	311.13
458.23	309.26
458.59	307.18
458.96	305.11
459.33	303.24
459.70	301.39
460.07	299.81
460.43	298.08
460.80	296.47
461.17	295.07
461.54	293.61
461.91	292.23
462.27	290.83
462.64	289.55
463.01	288.20
463.38	286.94
463.74	285.54
464.11	284.40
464.48	283.35
464.85	282.24
465.21	281.37
465.58	280.45
465.95	279.34
466.32	278.47
466.68	277.53
467.05	276.62
467.42	275.73
467.78	274.86
468.15	274.00
468.52	273.35
468.88	272.47
469.25	271.73
469.62	271.10
469.98	270.39
470.35	269.77
470.72	269.16
471.08	268.47
471.45	267.95
471.82	267.39
472.18	266.81
472.55	266.40
472.92	265.90
473.28	265.46
473.65	265.02
474.02	264.56
474.38	264.24
474.75	263.99
475.11	263.66
475.48	263.42
475.85	263.21
476.21	263.03
476.58	262.88
476.94	262.72
477.31	262.58
477.67	262.46
478.04	262.37
478.41	262.33
478.77	262.42
479.14	262.36
479.50	262.37
479.87	262.47
480.23	262.61
480.60	262.71
480.96	262.83
481.33	263.06
481.69	263.28
482.06	263.44
482.42	263.64
482.79	263.95
483.15	264.28
483.52	264.66
483.88	264.98
484.25	265.37
484.61	265.81
484.98	266.26
485.34	266.81
485.71	267.40
486.07	268.02
486.44	268.57
486.80	269.24
487.17	269.99
487.53	270.77
487.90	271.56
488.26	272.50
488.62	273.47
488.99	274.44
489.35	275.51
489.72	276.65
490.08	277.85
490.44	279.09
490.81	280.40
491.17	281.76
491.54	283.26
491.90	284.79
492.26	286.44
492.63	288.19
492.99	290.01
493.36	291.90
493.72	294.00
494.08	296.15
494.45	298.45
494.81	300.82
495.17	303.28
495.54	305.89
495.90	308.57
496.26	311.33
496.63	314.31
496.99	317.39
497.35	320.61
497.72	324.04
498.08	327.53
498.44	331.22
498.80	335.14
499.17	339.16
499.53	343.32
499.89	347.70
500.26	352.26
500.62	356.91
500.98	361.90
501.34	366.89
501.71	372.13
502.07	377.58
502.43	383.25
502.79	389.05
503.16	395.12
503.52	401.44
503.88	407.91
504.24	414.59
504.60	421.53
504.97	428.71
505.33	436.04
505.69	443.79
506.05	451.52
506.41	459.42
506.78	467.61
507.14	476.07
507.50	484.83
507.86	493.76
508.22	502.97
508.59	512.13
508.95	521.77
509.31	531.63
509.67	541.71
510.03	551.95
510.39	562.50
510.75	573.24
511.12	584.13
511.48	595.47
511.84	606.84
512.20	618.35
512.56	630.30
512.92	642.43
513.28	654.79
513.64	667.33
514.00	680.00
514.37	692.91
514.73	706.00
515.09	718.98
515.45	732.25
515.81	745.84
516.17	759.86
516.53	773.96
516.89	788.12
517.25	802.36
517.61	816.78
517.97	831.22
518.33	845.64
518.69	860.46
519.05	875.37
519.41	890.63
519.77	906.06
520.13	921.48
520.49	936.82
520.85	952.17
521.21	967.92
521.57	984.18
521.93	999.91
522.29	1016.23
522.65	1032.51
523.01	1048.74
523.37	1064.70
523.73	1080.78
524.09	1096.83
524.45	1113.19
524.81	1129.73
525.17	1146.39
525.53	1163.27
525.89	1180.12
526.25	1196.83
526.61	1213.21
526.97	1229.81
527.33	1246.39
527.68	1262.92
528.04	1279.49
528.40	1296.01
528.76	1312.92
529.12	1329.46
529.48	1346.35
529.84	1362.30
530.20	1378.81
530.56	1395.78
530.91	1413.16
531.27	1429.88
531.63	1446.23
531.99	1462.67
532.35	1478.49
532.71	1494.38
533.07	1510.61
533.42	1526.51
533.78	1542.52
534.14	1558.84
534.50	1574.25
534.86	1589.99
535.21	1605.09
535.57	1620.82
535.93	1636.30
536.29	1651.01
536.65	1666.02
537.00	1680.74
537.36	1695.98
537.72	1710.48
538.08	1724.81
538.44	1738.66
538.79	1752.50
539.15	1766.19
539.51	1779.78
539.87	1794.13
540.22	1807.93
540.58	1821.56
540.94	1834.74
541.29	1847.54
541.65	1859.97
542.01	1872.89
542.37	1885.14
542.72	1897.41
543.08	1909.08
543.44	1921.36
543.79	1932.56
544.15	1943.43
544.51	1954.90
544.87	1965.90
545.22	1976.64
545.58	1986.64
545.94	1996.26
546.29	2005.98
546.65	2015.83
547.01	2025.19
547.36	2033.83
547.72	2042.07
548.07	2049.87
548.43	2058.02
548.79	2065.98
549.14	2073.40
549.50	2080.82
549.86	2088.47
550.21	2095.97
550.57	2103.24
550.92	2109.79
551.28	2116.71
551.64	2123.80
551.99	2130.22
552.35	2136.14
552.70	2142.38
553.06	2148.57
553.41	2154.88
553.77	2160.86
554.13	2166.87
554.48	2173.03
554.84	2178.57
555.19	2183.86
555.55	2189.08
555.90	2193.50
556.26	2198.43
556.61	2203.36
556.97	2207.58
557.32	2211.73
557.68	2215.71
558.03	2219.93
558.39	2223.67
558.74	2228.47
559.10	2232.23
559.45	2235.90
559.81	2240.35
560.16	2244.13
560.52	2247.32
560.87	2250.68
561.23	2253.49
561.58	2256.42
561.94	2258.82
562.29	2261.23
562.64	2263.85
563.00	2266.43
563.35	2270.09
563.71	2273.17
564.06	2276.32
564.42	2279.29
564.77	2281.70
565.12	2284.07
565.48	2286.01
565.83	2287.92
566.19	2289.16
566.54	2290.05
566.89	2291.19
567.25	2291.72
567.60	2292.99
567.96	2294.71
568.31	2295.55
568.66	2296.83
569.02	2297.50
569.37	2297.94
569.72	2298.77
570.08	2298.99
570.43	2299.10
570.78	2298.45
571.14	2296.90
571.49	2295.59
571.84	2295.28
572.20	2294.32
572.55	2293.40
572.90	2291.75
573.26	2290.40
573.61	2288.71
573.96	2287.15
574.31	2284.25
574.67	2281.31
575.02	2277.68
575.37	2274.33
575.72	2270.62
576.08	2267.17
576.43	2263.88
576.78	2260.12
577.13	2256.90
577.49	2254.02
577.84	2250.56
578.19	2246.93
578.54	2243.42
578.90	2239.31
579.25	2233.86
579.60	2228.83
579.95	2223.82
580.30	2218.94
580.66	2213.71
581.01	2208.90
581.36	2204.12
581.71	2200.05
582.06	2195.67
582.42	2191.29
582.77	2186.15
583.12	2181.69
583.47	2176.89
583.82	2171.87
584.17	2166.71
584.53	2161.29
584.88	2155.52
585.23	2149.74
585.58	2144.38
585.93	2138.97
586.28	2134.17
586.63	2129.02
586.98	2124.05
587.34	2119.32
587.69	2114.59
588.04	2109.37
588.39	2103.75
588.74	2097.18
589.09	2090.97
589.44	2084.26
589.79	2078.30
590.14	2072.61
590.49	2066.07
590.84	2059.99
591.19	2054.04
591.54	2047.67
591.89	2040.38
592.25	2033.79
592.60	2026.66
592.95	2019.07
593.30	2011.73
593.65	2004.19
594.00	1997.16
594.35	1989.92
594.70	1981.84
595.05	1974.61
595.40	1967.41
595.75	1959.96
596.10	1953.86
596.45	1947.32
596.80	1941.22
597.15	1934.55
597.50	1927.57
597.85	1921.13
598.19	1914.32
598.54	1907.12
598.89	1900.38
599.24	1894.47
599.59	1887.74
599.94	1881.63
600.29	1875.26
600.64	1868.65
600.99	1861.17
601.34	1854.48
601.69	1847.46
602.04	1840.71
602.39	1833.33
602.74	1826.52
603.08	1819.78
603.43	1812.99
603.78	1805.56
604.13	1798.32
604.48	1791.14
604.83	1784.20
605.18	1777.12
605.53	1769.17
605.87	1761.29
606.22	1754.11
606.57	1746.22
606.92	1738.88
607.27	1731.59
607.62	1724.73
607.96	1717.52
608.31	1710.88
608.66	1703.24
609.01	1695.75
609.36	1688.11
609.70	1680.09
610.05	1672.08
610.40	1664.40
610.75	1656.04
611.10	1648.43
611.44	1639.92
611.79	1631.81
612.14	1623.10
612.49	1614.05
612.83	1605.65
613.18	1597.45
613.53	1589.38
613.88	1580.76
614.22	1572.48
614.57	1563.89
614.92	1555.82
615.27	1548.16
615.61	1539.91
615.96	1531.86
616.31	1524.25
616.65	1516.98
617.00	1509.46
617.35	1501.75
617.70	1493.29
618.04	1484.77
618.39	1476.56
618.74	1469.02
619.08	1460.68
619.43	1453.13
619.78	1446.19
620.12	1439.14
620.47	1431.66
620.82	1423.58
621.16	1416.29
621.51	1408.77
621.85	1401.18
622.20	1392.67
622.55	1384.33
622.89	1376.50
623.24	1368.87
623.59	1361.48
623.93	1353.91
624.28	1346.67
624.62	1339.12
624.97	1331.97
625.32	1325.20
625.66	1318.25
626.01	1311.04
626.35	1303.67
626.70	1296.00
627.04	1288.34
627.39	1280.42
627.73	1273.02
628.08	1266.03
628.43	1258.73
628.77	1251.25
629.12	1243.70
629.46	1236.58
629.81	1229.27
630.15	1221.98
630.50	1214.64
630.84	1206.47
631.19	1198.51
631.53	1190.90
631.88	1183.30
632.22	1175.72
632.57	1168.41
632.91	1160.81
633.26	1153.39
633.60	1146.05
633.95	1138.93
634.29	1131.77
634.64	1125.15
634.98	1117.73
635.32	1110.52
635.67	1103.83
636.01	1097.23
636.36	1090.37
636.70	1083.70
637.05	1077.00
637.39	1070.46
637.73	1063.92
638.08	1057.94
638.42	1051.90
638.77	1045.45
639.11	1038.92
639.45	1032.56
639.80	1025.89
640.14	1019.44
640.49	1012.91
640.83	1006.59
641.17	1000.27
641.52	993.93
641.86	987.41
642.20	981.56
642.55	975.27
642.89	968.73
643.23	962.16
643.58	956.34
643.92	950.28
644.26	944.24
644.61	938.20
644.95	932.08
645.29	925.55
645.64	918.87
645.98	912.54
646.32	906.66
646.66	900.60
647.01	894.89
647.35	889.19
647.69	883.32
648.04	877.77
648.38	872.01
648.72	865.98
649.06	859.93
649.41	854.05
649.75	848.10
650.09	842.24
650.43	836.40
650.78	830.33
651.12	824.36
651.46	818.65
651.80	813.02
652.14	807.67
652.49	802.30
652.83	797.06
653.17	791.44
653.51	785.66
653.85	780.24
654.20	774.52
654.54	768.47
654.88	762.74
655.22	756.89
655.56	751.17
655.90	745.83
656.25	740.63
656.59	735.34
656.93	730.24
657.27	725.16
657.61	719.73
657.95	714.60
658.29	709.45
658.64	704.14
658.98	698.84
659.32	693.35
659.66	688.17
660.00	682.91
660.34	677.90
660.68	673.05
661.02	667.97
661.36	663.28
661.70	658.80
662.05	654.47
662.39	650.12
662.73	645.64
663.07	641.19
663.41	636.72
663.75	632.14
664.09	627.60
664.43	623.09
664.77	619.06
665.11	614.79
665.45	610.65
665.79	606.55
666.13	602.34
666.47	598.28
666.81	594.11
667.15	589.92
667.49	586.12
667.83	582.28
668.17	578.39
668.51	574.28
668.85	570.28
669.19	566.40
669.53	562.52
669.87	558.66
670.21	554.99
670.55	551.37
670.89	548.01
671.23	544.57
671.57	541.06
671.91	537.45
672.25	533.99
672.58	530.49
672.92	527.16
673.26	524.01
673.60	520.82
673.94	517.72
674.28	514.86
674.62	511.87
674.96	508.86
675.30	505.90
675.64	503.02
675.97	500.22
676.31	497.40
676.65	494.47
676.99	491.75
677.33	488.90
677.67	485.98
678.01	482.91
678.34	479.83
678.68	476.94
679.02	474.16
679.36	471.34
679.70	468.60
680.04	465.84
680.37	463.00
680.71	460.23
681.05	457.56
681.39	454.85
681.73	452.16
682.06	449.56
682.40	447.04
682.74	444.47
683.08	441.91
683.42	439.30
683.75	436.83
684.09	434.29
684.43	431.80
684.77	429.39
685.10	426.99
685.44	424.78
685.78	422.49
686.12	420.26
686.45	417.98
686.79	415.68
687.13	413.47
687.46	411.33
687.80	409.14
688.14	406.94
688.48	404.88
688.81	402.66
689.15	400.51
689.49	398.37
689.82	396.32
690.16	394.25
690.50	392.29
690.83	390.33
691.17	388.36
691.51	386.44
691.84	384.57
692.18	382.69
692.52	380.67
692.85	378.70
693.19	376.76
693.52	374.88
693.86	373.10
694.20	371.26
694.53	369.41
694.87	367.58
695.21	365.75
695.54	363.92
695.88	362.22
696.21	360.49
696.55	358.78
696.88	357.09
697.22	355.38
697.56	353.76
697.89	352.08
698.23	350.46
698.56	348.88
698.90	347.28
699.23	345.65
699.57	344.13
699.90	342.63
700.24	341.09
700.58	339.60
700.91	338.05
701.25	336.64
701.58	335.29
701.92	333.94
702.25	332.59
702.59	331.19
702.92	329.82
703.26	328.53
703.59	327.30
703.93	326.10
704.26	324.91
704.60	323.61
704.93	322.34
705.26	321.08
705.60	319.85
705.93	318.73
706.27	317.70
706.60	316.63
706.94	315.57
707.27	314.47
707.61	313.39
707.94	312.44
708.27	311.33
708.61	310.24
708.94	309.25
709.28	308.29
709.61	307.37
709.94	306.45
710.28	305.38
710.61	304.36
710.95	303.30
711.28	302.41
711.61	301.41
711.95	300.49
712.28	299.56
712.61	298.58
712.95	297.66
713.28	296.74
713.61	295.85
713.95	294.93
714.28	294.11
714.61	293.26
714.95	292.38
715.28	291.58
715.61	290.69
715.95	289.78
716.28	288.88
716.61	288.01
716.95	287.14
717.28	286.43
717.61	285.67
717.94	284.95
718.28	284.09
718.61	283.37
718.94	282.68
719.27	282.00
719.61	281.37
719.94	280.68
720.27	279.99
720.60	279.30
720.94	278.68
721.27	278.02
721.60	277.44
721.93	276.81
722.27	276.22
722.60	275.67
722.93	275.13
723.26	274.62
723.59	274.05
723.93	273.54
724.26	272.97
724.59	272.39
724.92	271.86
725.25	271.38
725.59	270.87
725.92	270.34
726.25	269.83
726.58	269.33
726.91	268.84
727.24	268.38
727.57	267.91
727.91	267.40
728.24	266.95
728.57	266.42
728.90	265.95
729.23	265.45
729.56	264.99
729.89	264.50
730.22	264.01
730.55	263.56
730.89	263.08
731.22	262.63
731.55	262.18
731.88	261.74
732.21	261.28
732.54	260.84
732.87	260.46
733.20	260.02
733.53	259.64
733.86	259.22
734.19	258.81
734.52	258.42
734.85	258.08
735.18	257.65
735.51	257.32
735.84	256.96
736.17	256.63
736.50	256.24
736.83	256.06
737.16	255.72
737.49	255.37
737.82	255.06
738.15	254.75
738.48	254.45
738.81	254.11
739.14	253.81
739.47	253.49
739.80	253.19
740.13	252.94
740.46	252.65
740.79	252.33
741.12	252.01
741.45	251.69
741.78	251.39
742.11	251.10
742.44	250.82
742.77	250.57
743.10	250.23
743.43	249.94
743.75	249.50
744.08	249.37
744.41	249.13
744.74	248.86
745.07	248.54
745.40	248.27
745.73	248.08
746.06	247.82
746.39	247.58
746.71	247.30
747.04	247.04
747.37	246.73
747.70	246.50
748.03	246.29
748.36	246.10
748.68	245.86
749.01	245.60
749.34	245.34
749.67	245.07
750.00	244.88
750.33	244.74
750.65	244.58
750.98	244.20
751.31	243.99
751.64	243.76
751.97	243.65
752.29	243.45
752.62	243.21
752.95	242.97
753.28	242.75
753.60	242.52
753.93	242.35
754.26	242.16
754.59	241.91
754.91	241.68
755.24	241.44
755.57	241.25
755.90	241.11
756.22	240.91
756.55	240.70
756.88	240.50
757.20	240.28
757.53	240.05
757.86	239.90
758.19	239.73
758.51	239.55
758.84	239.32
759.17	239.12
759.49	238.94
759.82	238.80
760.15	238.64
760.47	238.51
760.80	238.34
761.13	238.22
761.45	238.07
761.78	237.93
762.11	237.81
762.43	237.67
762.76	237.48
763.08	237.32
763.41	237.21
763.74	237.06
764.06	236.86
764.39	236.76
764.71	236.63
765.04	236.49
765.37	236.37
765.69	236.26
766.02	236.11
766.34	235.99
766.67	235.83
767.00	235.73
767.32	235.65
767.65	235.56
767.97	235.45
768.30	235.34
768.62	235.23
768.95	235.08
769.27	234.98
769.60	234.92
769.92	234.80
770.25	234.69
770.57	234.57
770.90	234.49
771.22	234.35
771.55	234.23
771.87	234.14
772.20	234.04
772.52	233.99
772.85	234.02
773.17	233.92
773.50	233.86
773.82	233.77
774.15	233.61
774.47	233.44
774.80	233.35
775.12	233.31
775.45	233.22
775.77	233.16
776.09	233.10
776.42	233.04
776.74	233.02
777.07	232.94
777.39	232.89
777.72	232.81
778.04	232.77
778.36	232.73
778.69	232.67
779.01	232.62
779.33	232.49
779.66	232.33
779.98	232.24
780.31	232.16
780.63	232.10
780.95	232.11
781.28	232.09
781.60	232.00
781.92	231.93
782.25	231.85
782.57	231.82
782.89	231.72
783.22	231.62
783.54	231.56
783.86	231.50
784.19	231.46
784.51	231.44
784.83	231.36
785.16	231.26
785.48	231.18
785.80	231.11
786.12	231.05
786.45	231.00
786.77	230.95
787.09	230.89
787.42	230.83
787.74	230.76
788.06	230.69
788.38	230.66
788.71	230.60
789.03	230.55
789.35	230.51
789.67	230.45
789.99	230.42
790.32	230.36
790.64	230.32
790.96	230.34
791.28	230.29
791.61	230.24
791.93	230.23
792.25	230.20
792.57	230.27
792.89	230.22
793.21	230.19
793.54	230.17
793.86	230.14
794.18	230.11
794.50	230.03
794.82	230.00
795.14	229.95
795.47	229.94
795.79	229.92
796.11	229.85
796.43	229.82
796.75	229.78
797.07	229.74
797.39	229.70
797.71	229.62
798.04	229.58
798.36	229.54
798.68	229.49
799.00	229.45
799.32	229.35
799.64	229.34
799.96	229.29
800.28	229.26
800.60	229.24
800.92	229.21
801.24	229.18
801.56	229.14
801.89	229.11
802.21	229.06
802.53	229.03
802.85	229.01
803.17	229.04
803.49	229.01
803.81	228.97
804.13	228.95
804.45	228.87
804.77	228.84
805.09	228.83
805.41	228.81
805.73	228.76
806.05	228.68
806.37	228.65
806.69	228.62
807.01	228.61
807.33	228.56
807.65	228.51
807.97	228.54
808.28	228.49
808.60	228.48
808.92	228.45
809.24	228.47
809.56	228.44
809.88	228.37
810.20	228.35
810.52	228.37
810.84	228.33
811.16	228.31
811.48	228.29
811.80	228.30
812.12	228.31
812.43	228.32
812.75	228.30
813.07	228.27
813.39	228.25
813.71	228.20
814.03	228.20
814.35	228.17
814.67	228.12
814.98	228.13
815.30	228.11
815.62	228.05
815.94	227.96
816.26	227.99
816.58	227.98
816.89	227.97
817.21	227.89
817.53	227.88
817.85	227.85
818.17	227.83
818.48	227.76
818.80	227.71
819.12	227.69
819.44	227.67
819.76	227.66
820.07	227.65
820.39	227.64
820.71	227.64
821.03	227.60
821.34	227.58
821.66	227.57
821.98	227.54
822.30	227.56
822.61	227.61
822.93	227.56
823.25	227.54
823.57	227.49
823.88	227.50
824.20	227.48
824.52	227.52
824.83	227.50
825.15	227.50
825.47	227.48
825.79	227.48
826.10	227.47
826.42	227.42
826.74	227.39
827.05	227.40
827.37	227.37
827.69	227.39
828.00	227.38
828.32	227.38
828.64	227.36
828.95	227.39
829.27	227.33
829.58	227.33
829.90	227.32
830.22	227.34
830.53	227.29
830.85	227.27
831.17	227.24
831.48	227.24
831.80	227.20
832.11	227.21
832.43	227.20
832.75	227.18
833.06	227.28
833.38	227.25
833.69	227.23
834.01	227.23
834.32	227.21
834.64	227.22
834.96	227.17
835.27	227.19
835.59	227.14
835.90	227.15
836.22	227.12
836.53	227.11
836.85	227.05
837.16	227.16
837.48	227.17
837.79	227.17
838.11	227.16
838.42	227.17
838.74	227.15
839.05	227.12
839.37	227.14
839.68	227.06
840.00	227.05
840.31	227.05
840.63	227.03
840.94	227.04
841.26	227.02
841.57	227.04
841.88	227.02
842.20	227.01
842.51	226.97
842.83	226.96
843.14	227.03
843.46	227.09
843.77	227.00
844.08	226.99
844.40	226.91
844.71	226.91
845.03	226.88
845.34	226.89
845.65	226.89
845.97	226.88
846.28	226.86
846.60	226.86
846.91	226.87
847.22	226.86
847.54	226.83
847.85	226.83
848.16	226.82
848.48	226.79
848.79	226.81
849.10	226.80
849.42	226.81
849.73	226.72
850.04	226.67
850.36	226.66
850.67	226.68
850.98	226.71
851.30	226.70
851.61	226.71
851.92	226.67
852.23	226.70
852.55	226.73
852.86	226.73
853.17	226.75
853.49	226.74
853.80	226.76
854.11	226.78
854.42	226.80
854.74	226.79
855.05	226.79
855.36	226.75
855.67	226.75
855.99	226.74
856.30	226.83
856.61	226.87
856.92	226.86
857.23	226.84
857.55	226.82
857.86	226.83
858.17	226.83
858.48	226.83
858.79	226.80
859.11	226.77
859.42	226.75
859.73	226.71
860.04	226.71
860.35	226.68
860.66	226.66
860.98	226.62
861.29	226.61
861.60	226.59
861.91	226.62
862.22	226.63
862.53	226.60
862.84	226.51
863.16	226.53
863.47	226.55
863.78	226.56
864.09	226.61
864.40	226.60
864.71	226.63
865.02	226.66
865.33	226.70
865.64	226.69
865.95	226.69
866.27	226.79
866.58	226.79
866.89	226.82
867.20	226.83
867.51	226.82
867.82	226.81
868.13	226.87
868.44	226.85
868.75	226.84
869.06	226.86
869.37	226.90
869.68	226.86
869.99	226.83
870.30	226.84
870.61	226.86
870.92	226.84
871.23	226.81
871.54	226.78
871.85	226.76
872.16	226.78
872.47	226.78
872.78	226.71
873.09	226.70
873.40	226.66
873.71	226.67
874.02	226.69
874.33	226.66
874.64	226.60
874.95	226.61
875.26	226.60
875.56	226.56
875.87	226.51
876.18	226.48
876.49	226.55
876.80	226.54
877.11	226.52
877.42	226.50
877.73	226.53
878.04	226.53
878.35	226.53
878.66	226.53
878.96	226.54
879.27	226.52
879.58	226.53
879.89	226.51
880.20	226.48
880.51	226.42
880.82	226.45
881.12	226.47
881.43	226.45
881.74	226.40
882.05	226.43
882.36	226.45
882.67	226.46
882.97	226.40
883.28	226.38
883.59	226.34
883.90	226.35
884.21	226.33
884.51	226.32
884.82	226.28
885.13	226.26
885.44	226.24
885.74	226.25
886.05	226.20
886.36	226.20
886.67	226.21
886.98	226.30
887.28	226.28
887.59	226.29
887.90	226.29
888.20	226.33
888.51	226.35
888.82	226.32
889.13	226.33
889.43	226.41
889.74	226.39
890.05	226.38
890.35	226.39
890.66	226.33
890.97	226.31
891.28	226.32
891.58	226.35
891.89	226.32
892.20	226.30
892.50	226.32
892.81	226.36
893.12	226.34
893.42	226.28
893.73	226.32
894.04	226.33
894.34	226.34
894.65	226.33
894.95	226.33
895.26	226.33
895.57	226.34
895.87	226.24
896.18	226.30
896.48	226.33
896.79	226.33
897.10	226.41
897.40	226.45
897.71	226.44
898.01	226.45
898.32	226.50
898.63	226.50
898.93	226.49
899.24	226.48
899.54	226.48
899.85	226.48
900.15	226.48
900.46	226.47
900.76	226.50
901.07	226.50
901.38	226.47
901.68	226.53
901.99	226.51
902.29	226.54
902.60	226.52
902.90	226.50
903.21	226.49
903.51	226.46
903.82	226.45
904.12	226.48
904.43	226.45
904.73	226.42
905.03	226.44
905.34	226.55
905.64	226.53
905.95	226.56
906.25	226.56
906.56	226.58
906.86	226.59
907.17	226.58
907.47	226.53
907.77	226.52
908.08	226.48
908.38	226.49
908.69	226.49
908.99	226.49
909.30	226.54
909.60	226.51
909.90	226.50
910.21	226.52
910.51	226.50
910.81	226.49
911.12	226.50
911.42	226.52
911.73	226.40
912.03	226.40
912.33	226.42
912.64	226.42
912.94	226.35
913.24	226.33
913.55	226.34
913.85	226.34
914.15	226.37
914.46	226.37
914.76	226.34
915.06	226.31
915.37	226.29
915.67	226.21
915.97	226.24
916.27	226.24
916.58	226.21
916.88	226.20
917.18	226.17
917.49	226.21
917.79	226.18
918.09	226.19
918.39	226.20
918.70	226.15
919.00	226.12
919.30	226.17
919.60	226.17
919.91	226.12
920.21	226.13
920.51	226.10
920.81	226.07
921.12	226.09
921.42	226.08
921.72	226.09
922.02	226.11
922.32	226.09
922.63	226.07
922.93	226.11
923.23	226.12
923.53	226.13
923.83	226.07
924.13	226.08
924.44	226.07
924.74	226.08
925.04	226.10
925.34	226.10
925.64	226.09
925.94	226.06
926.24	226.12
926.55	226.14
926.85	226.13
927.15	226.17
927.45	226.15
927.75	226.16
928.05	226.15
928.35	226.17
928.65	226.23
928.95	226.23
929.26	226.20
929.56	226.17
929.86	226.18
930.16	226.17
930.46	226.14
930.76	226.18
931.06	226.14
931.36	226.11
931.66	226.16
931.96	226.16
932.26	226.16
932.56	226.09
932.86	226.08
933.16	226.07
933.46	226.04
933.76	226.03
934.06	226.03
934.36	226.09
934.66	226.08
934.96	226.04
935.26	226.06
935.56	226.08
935.86	226.10
936.16	226.09
936.46	226.11
936.76	226.13
937.06	226.09
937.36	226.11
937.66	226.11
937.96	226.08
938.26	226.07
938.56	226.05
938.86	226.07
939.16	226.09
939.46	226.12
939.76	226.15
940.06	226.18
940.35	226.16
940.65	226.10
940.95	226.13
941.25	226.11
941.55	226.10
941.85	226.09
942.15	226.09
942.45	226.14
942.75	226.13
943.04	226.12
943.34	226.13
943.64	226.12
943.94	226.13
944.24	226.15
944.54	226.16
944.84	226.21
945.13	226.20
945.43	226.21
945.73	226.20
946.03	226.19
946.33	226.17
946.62	226.20
946.92	226.21
947.22	226.17
947.52	226.18
947.82	226.18
948.11	226.17
948.41	226.19
948.71	226.14
949.01	226.15
949.31	226.14
949.60	226.16
949.90	226.15
950.20	226.14
950.50	226.13
950.79	226.17
951.09	226.15
951.39	226.15
951.69	226.11
951.98	226.15
952.28	226.16
952.58	226.15
952.87	226.14
953.17	226.15
953.47	226.17
953.76	226.16
954.06	226.12
954.36	226.11
954.66	226.09
954.95	226.13
955.25	226.14
955.55	226.13
955.84	226.12
956.14	226.14
956.44	226.15
956.73	226.15
957.03	226.11
957.32	226.09
957.62	226.09
957.92	226.12
958.21	226.06
958.51	226.15
958.81	226.16
959.10	226.16
959.40	226.15
959.69	226.11
959.99	226.11
960.29	226.15
960.58	226.12
960.88	226.13
961.17	226.05
961.47	226.03
961.76	226.04
962.06	226.04
962.36	226.00
962.65	226.00
962.95	225.98
963.24	225.96
963.54	225.97
963.83	225.95
964.13	225.92
964.42	225.93
964.72	225.83
965.01	225.83
965.31	225.77
965.60	225.75
965.90	225.81
966.19	225.81
966.49	225.79
966.78	225.77
967.08	225.77
967.37	225.82
967.67	225.83
967.96	225.82
968.26	225.82
968.55	225.82
968.85	225.83
969.14	225.83
969.43	225.80
969.73	225.78
970.02	225.78
970.32	225.78
970.61	225.77
970.91	225.70
971.20	225.67
971.49	225.73
971.79	225.75
972.08	225.71
972.38	225.72
972.67	225.73
972.96	225.77
973.26	225.76
973.55	225.79
973.85	225.77
974.14	225.78
974.43	225.81
974.73	225.81
975.02	225.80
975.31	225.81
975.61	225.85
975.90	225.86
976.19	225.91
976.49	225.93
976.78	225.93
977.07	225.98
977.37	226.04
977.66	226.04
977.95	226.02
978.24	226.05
978.54	226.07
978.83	226.09
979.12	226.12
979.42	226.13
979.71	226.10
980.00	226.14
980.29	226.19
980.59	226.17
980.88	226.22
981.17	226.24
981.46	226.29
981.76	226.30
982.05	226.36
982.34	226.33
982.63	226.33
982.93	226.34
983.22	226.37
983.51	226.36
983.80	226.35
984.09	226.39
984.39	226.37
984.68	226.39
984.97	226.36
985.26	226.35
985.55	226.36
985.85	226.37
986.14	226.37
986.43	226.33
986.72	226.33
987.01	226.30
987.30	226.28
987.59	226.24
987.89	226.22
988.18	226.19
988.47	226.18
988.76	226.20
989.05	226.20
989.34	226.15
989.63	226.18
989.92	226.18
990.22	226.16
990.51	226.17
990.80	226.13
991.09	226.14
991.38	226.15
991.67	226.14
991.96	226.11
992.25	226.10
992.54	226.08
992.83	226.05
993.12	226.03
993.41	226.00
993.70	226.02
993.99	226.03
994.28	225.99
994.58	225.98
994.87	225.95
995.16	225.91
995.45	225.90
995.74	225.85
996.03	225.84
996.32	225.83
996.61	225.84
996.90	225.82
997.19	225.81
997.48	225.77
997.77	225.73
998.06	225.70
998.34	225.69
998.63	225.71
998.92	225.73
999.21	225.74
999.50	225.77
999.79	225.74
1000.08	225.73
1000.37	225.74
1000.66	225.72
1000.95	225.75
1001.24	225.76
1001.53	225.80
1001.82	225.79
1002.11	225.76
1002.40	225.77
1002.68	225.75
1002.97	225.82
1003.26	225.79
1003.55	225.79
1003.84	225.82
1004.13	225.87
1004.42	225.87
1004.71	225.87
1004.99	225.86
1005.28	225.87
1005.57	225.85
1005.86	225.85
1006.15	225.85
1006.44	225.83
1006.72	225.87
1007.01	225.85
1007.30	225.90
1007.59	225.87
1007.88	225.88
1008.17	225.91
1008.45	225.91
1008.74	225.86
1009.03	225.84
1009.32	225.84
1009.60	225.84
1009.89	225.88
1010.18	225.83
1010.47	225.84
1010.76	225.84
1011.04	225.84
1011.33	225.85
1011.62	225.86
1011.91	225.89
1012.19	225.91
1012.48	225.91
1012.77	225.92
1013.05	225.97
1013.34	225.97
1013.63	225.99
1013.92	225.98
1014.20	226.01
1014.49	226.03
1014.78	226.11
1015.06	226.06
1015.35	226.09
1015.64	226.15
1015.92	226.13
1016.21	226.16
1016.50	226.17
1016.78	226.18
1017.07	226.21
1017.36	226.21
1017.64	226.22
1017.93	226.19
1018.22	226.18
1018.50	226.20
1018.79	226.21
1019.08	226.17
1019.36	226.17
1019.65	226.14
1019.93	226.20
1020.22	226.18
1020.51	226.23
1020.79	226.20
1021.08	225.90
1021.36	225.76
1021.65	226.56
1021.94	225.74
1022.22	226.20
1022.51	225.76
1022.79	226.73
1023.08	226.09
1023.36	227.39
1023.65	226.17
>>>>>End Processed Spectral Data<<<<<
