SpectraSuite Data File
++++++++++++++++++++++++++++++++++++
Date: Fri Feb 01 16:11:34 EST 2013
User: group
Dark Spectrum Present: No
Reference Spectrum Present: No
Number of Sampled Component Spectra: 1
Spectrometers: USB2E7196
Integration Time (usec): 35000 (USB2E7196)
Spectra Averaged: 100 (USB2E7196)
Boxcar Smoothing: 10 (USB2E7196)
Correct for Electrical Dark: No (USB2E7196)
Strobe/Lamp Enabled: No (USB2E7196)
Correct for Detector Non-linearity: No (USB2E7196)
Correct for Stray Light: No (USB2E7196)
Number of Pixels in Processed Spectrum: 2048
>>>>>Begin Processed Spectral Data<<<<<
339.09	0.00
339.48	214.28
339.86	215.69
340.24	216.79
340.63	218.63
341.01	221.72
341.39	221.21
341.78	222.33
342.16	223.87
342.54	224.54
342.93	212.64
343.31	223.38
343.69	223.93
344.07	224.41
344.46	224.84
344.84	225.21
345.22	225.41
345.60	225.68
345.99	225.86
346.37	225.98
346.75	226.07
347.13	226.14
347.52	226.20
347.90	226.27
348.28	226.26
348.66	226.30
349.05	226.32
349.43	226.36
349.81	226.42
350.19	226.46
350.57	226.51
350.96	226.58
351.34	226.66
351.72	226.76
352.10	226.83
352.48	226.93
352.87	227.00
353.25	227.10
353.63	227.15
354.01	227.23
354.39	227.34
354.77	227.40
355.15	227.50
355.54	227.59
355.92	227.62
356.30	227.71
356.68	227.87
357.06	227.99
357.44	228.05
357.82	228.13
358.20	228.23
358.58	228.31
358.97	228.38
359.35	228.44
359.73	228.49
360.11	228.55
360.49	228.57
360.87	228.62
361.25	228.66
361.63	228.73
362.01	228.77
362.39	228.77
362.77	228.83
363.15	228.87
363.53	228.89
363.91	228.92
364.29	228.92
364.67	228.85
365.05	228.84
365.43	228.83
365.81	228.81
366.19	228.85
366.57	228.91
366.95	228.87
367.33	228.85
367.71	228.87
368.09	228.91
368.47	228.90
368.85	228.90
369.23	228.91
369.61	228.85
369.99	228.86
370.37	228.83
370.75	228.83
371.13	228.77
371.51	228.71
371.89	228.66
372.27	228.67
372.65	228.60
373.03	228.54
373.41	228.49
373.78	228.45
374.16	228.34
374.54	228.23
374.92	228.16
375.30	228.08
375.68	227.94
376.06	227.87
376.44	227.80
376.82	227.71
377.19	227.62
377.57	227.57
377.95	227.44
378.33	227.37
378.71	227.25
379.09	227.19
379.47	227.11
379.84	227.06
380.22	226.94
380.60	226.86
380.98	226.76
381.36	226.69
381.73	226.62
382.11	226.59
382.49	226.58
382.87	226.56
383.25	226.52
383.62	226.64
384.00	226.54
384.38	226.51
384.76	226.47
385.13	226.46
385.51	226.39
385.89	226.35
386.27	226.34
386.64	226.32
387.02	226.26
387.40	226.26
387.78	226.21
388.15	226.20
388.53	226.16
388.91	226.17
389.29	226.16
389.66	226.14
390.04	226.03
390.42	225.97
390.79	225.94
391.17	225.91
391.55	225.74
391.92	225.76
392.30	225.74
392.68	225.72
393.05	225.72
393.43	225.75
393.81	225.75
394.18	225.74
394.56	225.74
394.94	225.80
395.31	225.80
395.69	225.87
396.06	225.89
396.44	225.92
396.82	225.94
397.19	226.01
397.57	226.04
397.95	226.14
398.32	226.16
398.70	226.22
399.07	226.28
399.45	226.36
399.82	226.41
400.20	226.48
400.58	226.56
400.95	226.57
401.33	226.65
401.70	226.82
402.08	226.89
402.45	226.96
402.83	227.07
403.20	227.18
403.58	227.25
403.95	227.39
404.33	227.55
404.71	227.67
405.08	227.83
405.46	227.97
405.83	228.10
406.21	228.24
406.58	228.40
406.96	228.57
407.33	228.77
407.70	228.92
408.08	229.17
408.45	229.38
408.83	229.60
409.20	229.83
409.58	229.99
409.95	230.26
410.33	230.56
410.70	230.79
411.08	231.05
411.45	231.33
411.82	231.64
412.20	231.96
412.57	232.38
412.95	232.67
413.32	233.07
413.69	233.49
414.07	233.95
414.44	234.41
414.82	234.89
415.19	235.42
415.56	236.00
415.94	236.55
416.31	237.18
416.68	237.80
417.06	238.47
417.43	239.18
417.81	239.96
418.18	240.70
418.55	241.55
418.93	242.45
419.30	243.38
419.67	244.32
420.04	245.26
420.42	246.26
420.79	247.47
421.16	248.60
421.54	249.83
421.91	251.05
422.28	252.34
422.66	253.66
423.03	254.99
423.40	256.32
423.77	257.74
424.15	259.18
424.52	260.68
424.89	262.32
425.26	263.85
425.64	265.28
426.01	266.88
426.38	268.52
426.75	270.19
427.13	271.91
427.50	273.68
427.87	275.59
428.24	277.43
428.61	279.16
428.99	281.14
429.36	283.18
429.73	285.25
430.10	287.26
430.47	289.32
430.85	291.41
431.22	293.66
431.59	296.04
431.96	298.30
432.33	300.80
432.70	303.14
433.08	305.94
433.45	308.57
433.82	311.18
434.19	314.07
434.56	316.92
434.93	319.53
435.30	322.15
435.68	325.01
436.05	327.86
436.42	330.69
436.79	333.21
437.16	335.93
437.53	338.78
437.90	341.57
438.27	344.35
438.64	347.15
439.01	349.79
439.38	352.06
439.75	354.21
440.13	356.68
440.50	359.04
440.87	360.87
441.24	362.85
441.61	364.99
441.98	366.48
442.35	368.23
442.72	370.11
443.09	371.93
443.46	372.92
443.83	373.49
444.20	373.95
444.57	374.74
444.94	374.99
445.31	375.26
445.68	375.62
446.05	375.67
446.42	375.31
446.79	374.83
447.16	374.32
447.53	374.04
447.90	372.88
448.27	371.72
448.64	370.17
449.01	368.99
449.37	366.99
449.74	365.10
450.11	362.88
450.48	360.41
450.85	357.89
451.22	355.79
451.59	353.80
451.96	351.85
452.33	349.22
452.70	346.86
453.07	344.02
453.43	341.07
453.80	338.28
454.17	335.61
454.54	333.06
454.91	330.35
455.28	327.63
455.65	325.15
456.02	322.71
456.38	320.59
456.75	317.92
457.12	315.73
457.49	313.52
457.86	311.33
458.23	309.48
458.59	307.41
458.96	305.31
459.33	303.44
459.70	301.59
460.07	300.19
460.43	298.47
460.80	296.92
461.17	295.58
461.54	294.11
461.91	292.70
462.27	291.25
462.64	290.01
463.01	288.68
463.38	287.36
463.74	285.99
464.11	284.82
464.48	283.85
464.85	282.75
465.21	281.89
465.58	281.02
465.95	279.94
466.32	279.06
466.68	278.17
467.05	277.25
467.42	276.37
467.78	275.39
468.15	274.57
468.52	273.92
468.88	273.01
469.25	272.25
469.62	271.66
469.98	270.97
470.35	270.29
470.72	269.71
471.08	269.06
471.45	268.56
471.82	268.02
472.18	267.36
472.55	266.93
472.92	266.40
473.28	265.92
473.65	265.48
474.02	265.06
474.38	264.68
474.75	264.39
475.11	264.06
475.48	263.83
475.85	263.58
476.21	263.34
476.58	263.14
476.94	262.97
477.31	262.79
477.67	262.67
478.04	262.62
478.41	262.57
478.77	262.63
479.14	262.54
479.50	262.57
479.87	262.70
480.23	262.77
480.60	262.83
480.96	262.92
481.33	263.11
481.69	263.32
482.06	263.52
482.42	263.73
482.79	263.96
483.15	264.25
483.52	264.63
483.88	264.98
484.25	265.40
484.61	265.84
484.98	266.27
485.34	266.84
485.71	267.43
486.07	268.02
486.44	268.53
486.80	269.24
487.17	269.98
487.53	270.77
487.90	271.64
488.26	272.56
488.62	273.55
488.99	274.53
489.35	275.56
489.72	276.69
490.08	277.86
490.44	279.13
490.81	280.46
491.17	281.81
491.54	283.30
491.90	284.83
492.26	286.48
492.63	288.24
492.99	289.99
493.36	291.88
493.72	293.93
494.08	296.11
494.45	298.35
494.81	300.70
495.17	303.13
495.54	305.67
495.90	308.37
496.26	311.18
496.63	314.12
496.99	317.23
497.35	320.52
497.72	323.96
498.08	327.51
498.44	331.21
498.80	335.14
499.17	339.21
499.53	343.42
499.89	347.81
500.26	352.33
500.62	357.04
500.98	362.02
501.34	367.11
501.71	372.39
502.07	377.85
502.43	383.46
502.79	389.27
503.16	395.32
503.52	401.60
503.88	407.99
504.24	414.65
504.60	421.58
504.97	428.66
505.33	435.97
505.69	443.70
506.05	451.45
506.41	459.38
506.78	467.54
507.14	475.95
507.50	484.67
507.86	493.60
508.22	502.78
508.59	512.00
508.95	521.56
509.31	531.39
509.67	541.51
510.03	551.79
510.39	562.34
510.75	573.15
511.12	584.08
511.48	595.36
511.84	606.78
512.20	618.36
512.56	630.29
512.92	642.51
513.28	654.78
513.64	667.19
514.00	679.92
514.37	692.85
514.73	705.96
515.09	718.99
515.45	732.36
515.81	745.92
516.17	759.85
516.53	774.01
516.89	788.25
517.25	802.41
517.61	816.91
517.97	831.37
518.33	845.92
518.69	860.65
519.05	875.69
519.41	891.02
519.77	906.43
520.13	922.05
520.49	937.47
520.85	952.86
521.21	968.62
521.57	984.73
521.93	1000.43
522.29	1016.74
522.65	1032.94
523.01	1049.08
523.37	1065.15
523.73	1081.24
524.09	1097.30
524.45	1113.52
524.81	1130.07
525.17	1146.76
525.53	1163.56
525.89	1180.33
526.25	1197.10
526.61	1213.44
526.97	1230.08
527.33	1246.45
527.68	1262.84
528.04	1279.22
528.40	1295.70
528.76	1312.76
529.12	1329.44
529.48	1346.35
529.84	1362.22
530.20	1378.78
530.56	1395.65
530.91	1412.97
531.27	1429.86
531.63	1446.23
531.99	1462.74
532.35	1478.64
532.71	1494.40
533.07	1510.61
533.42	1526.44
533.78	1542.49
534.14	1558.71
534.50	1573.87
534.86	1589.73
535.21	1604.81
535.57	1620.63
535.93	1636.13
536.29	1650.86
536.65	1665.71
537.00	1680.35
537.36	1695.63
537.72	1710.09
538.08	1724.66
538.44	1738.32
538.79	1751.98
539.15	1765.51
539.51	1779.23
539.87	1793.58
540.22	1807.21
540.58	1820.91
540.94	1834.08
541.29	1846.75
541.65	1859.34
542.01	1872.58
542.37	1884.91
542.72	1897.46
543.08	1909.22
543.44	1921.48
543.79	1932.76
544.15	1943.69
544.51	1955.08
544.87	1966.07
545.22	1976.84
545.58	1986.95
545.94	1996.75
546.29	2006.65
546.65	2016.60
547.01	2025.81
547.36	2034.42
547.72	2042.97
548.07	2050.89
548.43	2059.04
548.79	2066.97
549.14	2074.50
549.50	2081.68
549.86	2089.13
550.21	2096.21
550.57	2103.28
550.92	2109.84
551.28	2116.74
551.64	2123.83
551.99	2130.56
552.35	2136.61
552.70	2142.75
553.06	2148.75
553.41	2155.11
553.77	2161.05
554.13	2166.99
554.48	2173.08
554.84	2178.67
555.19	2183.95
555.55	2189.14
555.90	2193.65
556.26	2198.68
556.61	2203.51
556.97	2207.96
557.32	2212.16
557.68	2216.30
558.03	2220.58
558.39	2224.33
558.74	2228.87
559.10	2232.71
559.45	2236.14
559.81	2240.30
560.16	2244.07
560.52	2247.24
560.87	2250.62
561.23	2253.35
561.58	2256.25
561.94	2258.78
562.29	2260.94
562.64	2263.62
563.00	2266.07
563.35	2269.59
563.71	2272.68
564.06	2275.72
564.42	2278.50
564.77	2281.14
565.12	2283.69
565.48	2285.72
565.83	2287.61
566.19	2289.06
566.54	2289.97
566.89	2291.36
567.25	2292.21
567.60	2293.51
567.96	2295.21
568.31	2296.04
568.66	2297.23
569.02	2297.91
569.37	2298.23
569.72	2299.33
570.08	2299.54
570.43	2299.55
570.78	2299.06
571.14	2297.57
571.49	2296.30
571.84	2296.04
572.20	2294.97
572.55	2293.84
572.90	2292.12
573.26	2290.78
573.61	2289.10
573.96	2287.43
574.31	2284.41
574.67	2281.26
575.02	2277.75
575.37	2274.34
575.72	2270.62
576.08	2267.11
576.43	2263.74
576.78	2260.23
577.13	2256.91
577.49	2253.63
577.84	2250.18
578.19	2246.42
578.54	2243.02
578.90	2238.97
579.25	2233.44
579.60	2228.46
579.95	2223.38
580.30	2218.50
580.66	2213.18
581.01	2208.19
581.36	2203.31
581.71	2199.25
582.06	2194.98
582.42	2190.61
582.77	2185.38
583.12	2180.85
583.47	2176.20
583.82	2171.35
584.17	2166.01
584.53	2160.50
584.88	2155.08
585.23	2149.49
585.58	2143.95
585.93	2138.33
586.28	2133.39
586.63	2128.37
586.98	2123.28
587.34	2118.49
587.69	2113.68
588.04	2108.55
588.39	2102.98
588.74	2096.41
589.09	2090.15
589.44	2083.40
589.79	2077.29
590.14	2071.67
590.49	2065.03
590.84	2058.78
591.19	2052.72
591.54	2046.38
591.89	2039.26
592.25	2032.42
592.60	2025.15
592.95	2017.83
593.30	2010.48
593.65	2002.84
594.00	1995.85
594.35	1988.58
594.70	1980.69
595.05	1973.47
595.40	1966.29
595.75	1958.81
596.10	1952.76
596.45	1946.10
596.80	1939.95
597.15	1933.39
597.50	1926.64
597.85	1920.24
598.19	1913.61
598.54	1906.65
598.89	1899.96
599.24	1893.97
599.59	1887.37
599.94	1881.18
600.29	1874.75
600.64	1868.17
600.99	1860.89
601.34	1853.99
601.69	1847.07
602.04	1840.23
602.39	1832.89
602.74	1826.17
603.08	1819.47
603.43	1812.73
603.78	1805.44
604.13	1798.23
604.48	1791.03
604.83	1783.96
605.18	1777.19
605.53	1769.21
605.87	1761.08
606.22	1753.83
606.57	1745.86
606.92	1738.54
607.27	1731.44
607.62	1724.57
607.96	1717.51
608.31	1710.93
608.66	1703.26
609.01	1695.85
609.36	1688.35
609.70	1680.40
610.05	1672.37
610.40	1664.73
610.75	1656.35
611.10	1648.58
611.44	1640.20
611.79	1632.09
612.14	1623.35
612.49	1614.03
612.83	1605.51
613.18	1597.49
613.53	1589.33
613.88	1580.81
614.22	1572.66
614.57	1564.08
614.92	1556.14
615.27	1548.74
615.61	1540.41
615.96	1532.52
616.31	1524.88
616.65	1517.51
617.00	1510.05
617.35	1502.39
617.70	1493.98
618.04	1485.64
618.39	1477.57
618.74	1469.93
619.08	1461.69
619.43	1454.23
619.78	1447.34
620.12	1440.34
620.47	1432.77
620.82	1424.64
621.16	1417.26
621.51	1409.41
621.85	1401.68
622.20	1393.02
622.55	1384.39
622.89	1376.47
623.24	1368.86
623.59	1361.39
623.93	1353.78
624.28	1346.45
624.62	1338.83
624.97	1331.64
625.32	1324.73
625.66	1317.59
626.01	1310.44
626.35	1302.99
626.70	1295.17
627.04	1287.44
627.39	1279.51
627.73	1272.09
628.08	1265.22
628.43	1257.94
628.77	1250.66
629.12	1243.17
629.46	1236.05
629.81	1228.56
630.15	1221.38
630.50	1213.84
630.84	1205.61
631.19	1197.62
631.53	1190.05
631.88	1182.46
632.22	1174.85
632.57	1167.53
632.91	1160.02
633.26	1152.64
633.60	1145.21
633.95	1138.07
634.29	1131.03
634.64	1124.40
634.98	1117.10
635.32	1109.98
635.67	1103.32
636.01	1096.73
636.36	1089.88
636.70	1083.29
637.05	1076.77
637.39	1070.30
637.73	1063.89
638.08	1058.00
638.42	1052.08
638.77	1045.75
639.11	1039.18
639.45	1032.79
639.80	1026.16
640.14	1019.79
640.49	1013.23
640.83	1007.00
641.17	1000.91
641.52	994.59
641.86	988.14
642.20	982.22
642.55	975.80
642.89	969.46
643.23	962.83
643.58	957.09
643.92	950.96
644.26	944.95
644.61	938.96
644.95	933.00
645.29	926.52
645.64	919.76
645.98	913.36
646.32	907.49
646.66	901.48
647.01	895.67
647.35	889.94
647.69	884.02
648.04	878.38
648.38	872.48
648.72	866.55
649.06	860.51
649.41	854.60
649.75	848.75
650.09	842.70
650.43	836.96
650.78	830.82
651.12	824.80
651.46	819.10
651.80	813.39
652.14	807.94
652.49	802.46
652.83	797.27
653.17	791.59
653.51	785.90
653.85	780.49
654.20	774.83
654.54	768.83
654.88	763.20
655.22	757.33
655.56	751.68
655.90	746.16
656.25	740.97
656.59	735.63
656.93	730.53
657.27	725.51
657.61	720.05
657.95	714.93
658.29	709.81
658.64	704.44
658.98	699.09
659.32	693.57
659.66	688.40
660.00	683.13
660.34	678.24
660.68	673.29
661.02	668.26
661.36	663.60
661.70	659.09
662.05	654.69
662.39	650.45
662.73	645.94
663.07	641.53
663.41	637.01
663.75	632.54
664.09	627.90
664.43	623.41
664.77	619.36
665.11	615.08
665.45	611.00
665.79	607.00
666.13	602.76
666.47	598.60
666.81	594.46
667.15	590.33
667.49	586.34
667.83	582.50
668.17	578.57
668.51	574.46
668.85	570.38
669.19	566.50
669.53	562.65
669.87	558.80
670.21	555.08
670.55	551.46
670.89	548.02
671.23	544.62
671.57	541.07
671.91	537.46
672.25	533.97
672.58	530.45
672.92	527.02
673.26	523.92
673.60	520.82
673.94	517.78
674.28	514.82
674.62	511.94
674.96	508.80
675.30	505.88
675.64	502.97
675.97	500.25
676.31	497.40
676.65	494.44
676.99	491.77
677.33	488.90
677.67	486.02
678.01	482.97
678.34	480.01
678.68	477.10
679.02	474.31
679.36	471.54
679.70	468.83
680.04	466.11
680.37	463.20
680.71	460.38
681.05	457.68
681.39	454.97
681.73	452.26
682.06	449.73
682.40	447.25
682.74	444.68
683.08	442.15
683.42	439.53
683.75	437.04
684.09	434.46
684.43	432.03
684.77	429.64
685.10	427.28
685.44	425.00
685.78	422.74
686.12	420.48
686.45	418.17
686.79	415.85
687.13	413.65
687.46	411.53
687.80	409.42
688.14	407.21
688.48	405.19
688.81	402.97
689.15	400.87
689.49	398.66
689.82	396.61
690.16	394.51
690.50	392.60
690.83	390.66
691.17	388.65
691.51	386.75
691.84	384.88
692.18	382.98
692.52	380.98
692.85	379.01
693.19	377.12
693.52	375.32
693.86	373.53
694.20	371.73
694.53	369.92
694.87	368.09
695.21	366.28
695.54	364.43
695.88	362.73
696.21	360.96
696.55	359.29
696.88	357.60
697.22	355.90
697.56	354.25
697.89	352.61
698.23	351.01
698.56	349.39
698.90	347.85
699.23	346.25
699.57	344.73
699.90	343.21
700.24	341.64
700.58	340.10
700.91	338.57
701.25	337.08
701.58	335.69
701.92	334.27
702.25	332.93
702.59	331.57
702.92	330.17
703.26	328.87
703.59	327.58
703.93	326.37
704.26	325.14
704.60	323.82
704.93	322.53
705.26	321.26
705.60	320.06
705.93	318.84
706.27	317.76
706.60	316.67
706.94	315.58
707.27	314.47
707.61	313.37
707.94	312.35
708.27	311.26
708.61	310.17
708.94	309.19
709.28	308.20
709.61	307.26
709.94	306.32
710.28	305.33
710.61	304.33
710.95	303.25
711.28	302.34
711.61	301.38
711.95	300.48
712.28	299.56
712.61	298.58
712.95	297.64
713.28	296.76
713.61	295.85
713.95	294.97
714.28	294.13
714.61	293.27
714.95	292.43
715.28	291.57
715.61	290.73
715.95	289.86
716.28	289.00
716.61	288.12
716.95	287.31
717.28	286.55
717.61	285.78
717.94	285.07
718.28	284.24
718.61	283.50
718.94	282.80
719.27	282.13
719.61	281.49
719.94	280.86
720.27	280.15
720.60	279.49
720.94	278.86
721.27	278.26
721.60	277.72
721.93	277.13
722.27	276.62
722.60	276.07
722.93	275.53
723.26	274.98
723.59	274.45
723.93	273.90
724.26	273.34
724.59	272.80
724.92	272.26
725.25	271.79
725.59	271.32
725.92	270.82
726.25	270.32
726.58	269.84
726.91	269.33
727.24	268.86
727.57	268.39
727.91	267.87
728.24	267.43
728.57	266.93
728.90	266.48
729.23	265.97
729.56	265.57
729.89	265.12
730.22	264.65
730.55	264.21
730.89	263.78
731.22	263.35
731.55	262.95
731.88	262.53
732.21	262.10
732.54	261.64
732.87	261.24
733.20	260.84
733.53	260.44
733.86	260.06
734.19	259.64
734.52	259.24
734.85	258.95
735.18	258.50
735.51	258.13
735.84	257.73
736.17	257.37
736.50	256.91
736.83	256.67
737.16	256.34
737.49	255.96
737.82	255.60
738.15	255.25
738.48	254.90
738.81	254.55
739.14	254.28
739.47	253.95
739.80	253.64
740.13	253.29
740.46	252.94
740.79	252.63
741.12	252.31
741.45	251.99
741.78	251.63
742.11	251.38
742.44	251.04
742.77	250.75
743.10	250.43
743.43	250.14
743.75	249.74
744.08	249.57
744.41	249.33
744.74	249.04
745.07	248.72
745.40	248.47
745.73	248.25
746.06	247.92
746.39	247.66
746.71	247.34
747.04	247.13
747.37	246.87
747.70	246.62
748.03	246.38
748.36	246.18
748.68	245.92
749.01	245.67
749.34	245.44
749.67	245.22
750.00	245.03
750.33	244.86
750.65	244.65
750.98	244.32
751.31	244.09
751.64	243.90
751.97	243.79
752.29	243.55
752.62	243.29
752.95	243.08
753.28	242.87
753.60	242.68
753.93	242.50
754.26	242.27
754.59	242.07
754.91	241.85
755.24	241.60
755.57	241.42
755.90	241.24
756.22	241.06
756.55	240.86
756.88	240.63
757.20	240.42
757.53	240.22
757.86	240.04
758.19	239.85
758.51	239.66
758.84	239.43
759.17	239.27
759.49	239.12
759.82	239.01
760.15	238.88
760.47	238.70
760.80	238.51
761.13	238.44
761.45	238.25
761.78	238.12
762.11	237.99
762.43	237.86
762.76	237.71
763.08	237.56
763.41	237.44
763.74	237.30
764.06	237.17
764.39	237.04
764.71	236.91
765.04	236.79
765.37	236.69
765.69	236.58
766.02	236.45
766.34	236.35
766.67	236.21
767.00	236.10
767.32	236.07
767.65	236.01
767.97	235.88
768.30	235.79
768.62	235.67
768.95	235.59
769.27	235.47
769.60	235.38
769.92	235.28
770.25	235.18
770.57	235.12
770.90	234.99
771.22	234.92
771.55	234.85
771.87	234.74
772.20	234.65
772.52	234.66
772.85	234.69
773.17	234.59
773.50	234.48
773.82	234.35
774.15	234.22
774.47	234.04
774.80	233.96
775.12	233.89
775.45	233.83
775.77	233.74
776.09	233.67
776.42	233.58
776.74	233.55
777.07	233.45
777.39	233.36
777.72	233.33
778.04	233.25
778.36	233.13
778.69	233.07
779.01	232.99
779.33	232.78
779.66	232.59
779.98	232.53
780.31	232.46
780.63	232.45
780.95	232.45
781.28	232.44
781.60	232.38
781.92	232.28
782.25	232.20
782.57	232.14
782.89	232.10
783.22	232.03
783.54	231.94
783.86	231.88
784.19	231.82
784.51	231.77
784.83	231.71
785.16	231.66
785.48	231.61
785.80	231.58
786.12	231.58
786.45	231.54
786.77	231.49
787.09	231.47
787.42	231.39
787.74	231.29
788.06	231.23
788.38	231.17
788.71	231.15
789.03	231.10
789.35	231.09
789.67	231.03
789.99	231.01
790.32	230.96
790.64	230.94
790.96	230.95
791.28	230.88
791.61	230.79
791.93	230.76
792.25	230.71
792.57	230.70
792.89	230.61
793.21	230.57
793.54	230.53
793.86	230.47
794.18	230.42
794.50	230.36
794.82	230.31
795.14	230.26
795.47	230.21
795.79	230.18
796.11	230.10
796.43	230.04
796.75	229.99
797.07	229.92
797.39	229.90
797.71	229.81
798.04	229.79
798.36	229.81
798.68	229.79
799.00	229.78
799.32	229.72
799.64	229.72
799.96	229.70
800.28	229.64
800.60	229.62
800.92	229.62
801.24	229.57
801.56	229.55
801.89	229.48
802.21	229.46
802.53	229.43
802.85	229.42
803.17	229.44
803.49	229.43
803.81	229.43
804.13	229.39
804.45	229.35
804.77	229.33
805.09	229.28
805.41	229.23
805.73	229.18
806.05	229.14
806.37	229.09
806.69	229.05
807.01	229.05
807.33	229.01
807.65	228.93
807.97	228.98
808.28	228.98
808.60	228.97
808.92	229.00
809.24	229.02
809.56	228.98
809.88	228.92
810.20	228.86
810.52	228.86
810.84	228.83
811.16	228.81
811.48	228.77
811.80	228.80
812.12	228.77
812.43	228.77
812.75	228.73
813.07	228.73
813.39	228.71
813.71	228.64
814.03	228.59
814.35	228.61
814.67	228.53
814.98	228.47
815.30	228.44
815.62	228.38
815.94	228.29
816.26	228.32
816.58	228.31
816.89	228.33
817.21	228.25
817.53	228.20
817.85	228.18
818.17	228.15
818.48	228.08
818.80	228.08
819.12	228.03
819.44	227.98
819.76	227.97
820.07	227.97
820.39	227.96
820.71	227.98
821.03	227.92
821.34	227.90
821.66	227.90
821.98	227.91
822.30	227.91
822.61	227.97
822.93	227.91
823.25	227.88
823.57	227.85
823.88	227.88
824.20	227.90
824.52	227.89
824.83	227.90
825.15	227.91
825.47	227.90
825.79	227.93
826.10	227.91
826.42	227.87
826.74	227.83
827.05	227.81
827.37	227.82
827.69	227.82
828.00	227.82
828.32	227.82
828.64	227.81
828.95	227.78
829.27	227.75
829.58	227.74
829.90	227.73
830.22	227.71
830.53	227.68
830.85	227.63
831.17	227.60
831.48	227.54
831.80	227.50
832.11	227.48
832.43	227.43
832.75	227.43
833.06	227.52
833.38	227.50
833.69	227.51
834.01	227.49
834.32	227.50
834.64	227.44
834.96	227.42
835.27	227.41
835.59	227.37
835.90	227.37
836.22	227.36
836.53	227.32
836.85	227.33
837.16	227.42
837.48	227.43
837.79	227.47
838.11	227.51
838.42	227.51
838.74	227.48
839.05	227.50
839.37	227.49
839.68	227.42
840.00	227.39
840.31	227.42
840.63	227.41
840.94	227.37
841.26	227.39
841.57	227.38
841.88	227.38
842.20	227.39
842.51	227.34
842.83	227.34
843.14	227.42
843.46	227.41
843.77	227.35
844.08	227.35
844.40	227.33
844.71	227.29
845.03	227.27
845.34	227.29
845.65	227.22
845.97	227.22
846.28	227.20
846.60	227.21
846.91	227.14
847.22	227.10
847.54	227.13
847.85	227.14
848.16	227.14
848.48	227.11
848.79	227.15
849.10	227.14
849.42	227.17
849.73	227.09
850.04	227.07
850.36	227.01
850.67	227.01
850.98	226.98
851.30	227.00
851.61	227.01
851.92	227.00
852.23	227.06
852.55	227.08
852.86	227.10
853.17	227.11
853.49	227.15
853.80	227.17
854.11	227.15
854.42	227.15
854.74	227.14
855.05	227.15
855.36	227.10
855.67	227.09
855.99	227.04
856.30	227.17
856.61	227.16
856.92	227.17
857.23	227.16
857.55	227.15
857.86	227.17
858.17	227.17
858.48	227.12
858.79	227.10
859.11	227.08
859.42	227.05
859.73	227.03
860.04	227.02
860.35	227.00
860.66	226.96
860.98	226.96
861.29	226.94
861.60	226.92
861.91	226.92
862.22	226.94
862.53	226.93
862.84	226.81
863.16	226.83
863.47	226.85
863.78	226.86
864.09	226.85
864.40	226.84
864.71	226.85
865.02	226.89
865.33	226.89
865.64	226.89
865.95	226.89
866.27	226.96
866.58	226.93
866.89	226.94
867.20	226.92
867.51	226.89
867.82	226.86
868.13	226.89
868.44	226.87
868.75	226.87
869.06	226.87
869.37	226.87
869.68	226.83
869.99	226.76
870.30	226.75
870.61	226.76
870.92	226.75
871.23	226.73
871.54	226.76
871.85	226.76
872.16	226.76
872.47	226.73
872.78	226.64
873.09	226.66
873.40	226.64
873.71	226.69
874.02	226.70
874.33	226.71
874.64	226.66
874.95	226.68
875.26	226.64
875.56	226.61
875.87	226.62
876.18	226.61
876.49	226.76
876.80	226.72
877.11	226.71
877.42	226.67
877.73	226.63
878.04	226.59
878.35	226.59
878.66	226.60
878.96	226.57
879.27	226.58
879.58	226.57
879.89	226.59
880.20	226.59
880.51	226.54
880.82	226.56
881.12	226.59
881.43	226.56
881.74	226.56
882.05	226.56
882.36	226.56
882.67	226.58
882.97	226.45
883.28	226.45
883.59	226.47
883.90	226.47
884.21	226.51
884.51	226.52
884.82	226.55
885.13	226.53
885.44	226.53
885.74	226.52
886.05	226.53
886.36	226.51
886.67	226.49
886.98	226.59
887.28	226.61
887.59	226.59
887.90	226.60
888.20	226.61
888.51	226.64
888.82	226.64
889.13	226.66
889.43	226.74
889.74	226.75
890.05	226.75
890.35	226.75
890.66	226.74
890.97	226.71
891.28	226.66
891.58	226.69
891.89	226.72
892.20	226.74
892.50	226.74
892.81	226.74
893.12	226.74
893.42	226.68
893.73	226.67
894.04	226.71
894.34	226.70
894.65	226.69
894.95	226.67
895.26	226.68
895.57	226.71
895.87	226.65
896.18	226.67
896.48	226.65
896.79	226.68
897.10	226.69
897.40	226.70
897.71	226.72
898.01	226.71
898.32	226.70
898.63	226.68
898.93	226.68
899.24	226.70
899.54	226.70
899.85	226.67
900.15	226.68
900.46	226.64
900.76	226.64
901.07	226.63
901.38	226.64
901.68	226.63
901.99	226.59
902.29	226.57
902.60	226.54
902.90	226.55
903.21	226.51
903.51	226.49
903.82	226.51
904.12	226.49
904.43	226.46
904.73	226.46
905.03	226.46
905.34	226.52
905.64	226.46
905.95	226.45
906.25	226.45
906.56	226.41
906.86	226.39
907.17	226.40
907.47	226.41
907.77	226.41
908.08	226.41
908.38	226.39
908.69	226.43
908.99	226.47
909.30	226.48
909.60	226.47
909.90	226.50
910.21	226.48
910.51	226.46
910.81	226.47
911.12	226.47
911.42	226.47
911.73	226.36
912.03	226.39
912.33	226.39
912.64	226.40
912.94	226.41
913.24	226.40
913.55	226.39
913.85	226.37
914.15	226.35
914.46	226.35
914.76	226.35
915.06	226.26
915.37	226.24
915.67	226.23
915.97	226.25
916.27	226.20
916.58	226.19
916.88	226.20
917.18	226.19
917.49	226.26
917.79	226.25
918.09	226.27
918.39	226.32
918.70	226.32
919.00	226.35
919.30	226.42
919.60	226.41
919.91	226.38
920.21	226.40
920.51	226.39
920.81	226.38
921.12	226.40
921.42	226.44
921.72	226.44
922.02	226.43
922.32	226.44
922.63	226.46
922.93	226.53
923.23	226.54
923.53	226.57
923.83	226.51
924.13	226.55
924.44	226.55
924.74	226.56
925.04	226.59
925.34	226.58
925.64	226.55
925.94	226.57
926.24	226.62
926.55	226.63
926.85	226.64
927.15	226.66
927.45	226.67
927.75	226.69
928.05	226.69
928.35	226.70
928.65	226.73
928.95	226.75
929.26	226.69
929.56	226.73
929.86	226.74
930.16	226.72
930.46	226.72
930.76	226.74
931.06	226.70
931.36	226.69
931.66	226.69
931.96	226.68
932.26	226.69
932.56	226.68
932.86	226.68
933.16	226.69
933.46	226.71
933.76	226.71
934.06	226.73
934.36	226.76
934.66	226.76
934.96	226.73
935.26	226.73
935.56	226.73
935.86	226.67
936.16	226.66
936.46	226.67
936.76	226.67
937.06	226.64
937.36	226.62
937.66	226.61
937.96	226.62
938.26	226.62
938.56	226.61
938.86	226.59
939.16	226.64
939.46	226.65
939.76	226.60
940.06	226.55
940.35	226.51
940.65	226.45
940.95	226.44
941.25	226.42
941.55	226.37
941.85	226.39
942.15	226.43
942.45	226.42
942.75	226.38
943.04	226.35
943.34	226.38
943.64	226.36
943.94	226.33
944.24	226.29
944.54	226.28
944.84	226.28
945.13	226.27
945.43	226.21
945.73	226.17
946.03	226.14
946.33	226.18
946.62	226.18
946.92	226.20
947.22	226.18
947.52	226.16
947.82	226.22
948.11	226.18
948.41	226.12
948.71	226.11
949.01	226.12
949.31	226.13
949.60	226.12
949.90	226.14
950.20	226.13
950.50	226.11
950.79	226.10
951.09	226.10
951.39	226.08
951.69	226.07
951.98	226.13
952.28	226.21
952.58	226.18
952.87	226.14
953.17	226.12
953.47	226.14
953.76	226.14
954.06	226.09
954.36	226.08
954.66	226.10
954.95	226.12
955.25	226.12
955.55	226.12
955.84	226.09
956.14	226.12
956.44	226.17
956.73	226.18
957.03	226.18
957.32	226.18
957.62	226.21
957.92	226.26
958.21	226.24
958.51	226.32
958.81	226.38
959.10	226.41
959.40	226.44
959.69	226.46
959.99	226.48
960.29	226.53
960.58	226.56
960.88	226.62
961.17	226.64
961.47	226.68
961.76	226.67
962.06	226.70
962.36	226.68
962.65	226.67
962.95	226.69
963.24	226.69
963.54	226.70
963.83	226.69
964.13	226.66
964.42	226.64
964.72	226.57
965.01	226.54
965.31	226.53
965.60	226.53
965.90	226.59
966.19	226.60
966.49	226.57
966.78	226.57
967.08	226.57
967.37	226.56
967.67	226.53
967.96	226.58
968.26	226.61
968.55	226.62
968.85	226.65
969.14	226.66
969.43	226.66
969.73	226.61
970.02	226.61
970.32	226.63
970.61	226.61
970.91	226.59
971.20	226.60
971.49	226.62
971.79	226.62
972.08	226.53
972.38	226.54
972.67	226.53
972.96	226.53
973.26	226.47
973.55	226.48
973.85	226.47
974.14	226.44
974.43	226.41
974.73	226.38
975.02	226.32
975.31	226.31
975.61	226.30
975.90	226.29
976.19	226.26
976.49	226.24
976.78	226.26
977.07	226.22
977.37	226.20
977.66	226.19
977.95	226.14
978.24	226.12
978.54	226.10
978.83	226.10
979.12	226.10
979.42	226.11
979.71	226.09
980.00	226.07
980.29	226.04
980.59	226.03
980.88	226.06
981.17	226.09
981.46	226.06
981.76	226.04
982.05	226.09
982.34	226.11
982.63	226.13
982.93	226.11
983.22	226.12
983.51	226.14
983.80	226.11
984.09	226.14
984.39	226.13
984.68	226.13
984.97	226.12
985.26	226.07
985.55	226.05
985.85	226.05
986.14	226.05
986.43	226.06
986.72	225.99
987.01	225.95
987.30	225.92
987.59	225.93
987.89	225.94
988.18	225.88
988.47	225.89
988.76	225.86
989.05	225.85
989.34	225.89
989.63	225.87
989.92	225.87
990.22	225.86
990.51	225.88
990.80	225.87
991.09	225.91
991.38	225.94
991.67	225.93
991.96	225.92
992.25	225.94
992.54	225.97
992.83	226.03
993.12	226.04
993.41	226.10
993.70	226.12
993.99	226.13
994.28	226.19
994.58	226.18
994.87	226.19
995.16	226.23
995.45	226.21
995.74	226.21
996.03	226.25
996.32	226.28
996.61	226.32
996.90	226.35
997.19	226.34
997.48	226.35
997.77	226.35
998.06	226.39
998.34	226.36
998.63	226.35
998.92	226.39
999.21	226.41
999.50	226.39
999.79	226.38
1000.08	226.38
1000.37	226.38
1000.66	226.40
1000.95	226.41
1001.24	226.44
1001.53	226.48
1001.82	226.49
1002.11	226.47
1002.40	226.46
1002.68	226.49
1002.97	226.53
1003.26	226.53
1003.55	226.53
1003.84	226.57
1004.13	226.59
1004.42	226.60
1004.71	226.60
1004.99	226.60
1005.28	226.61
1005.57	226.61
1005.86	226.62
1006.15	226.65
1006.44	226.63
1006.72	226.66
1007.01	226.64
1007.30	226.60
1007.59	226.57
1007.88	226.56
1008.17	226.59
1008.45	226.57
1008.74	226.53
1009.03	226.50
1009.32	226.49
1009.60	226.50
1009.89	226.47
1010.18	226.41
1010.47	226.41
1010.76	226.40
1011.04	226.36
1011.33	226.36
1011.62	226.36
1011.91	226.35
1012.19	226.32
1012.48	226.34
1012.77	226.31
1013.05	226.37
1013.34	226.39
1013.63	226.35
1013.92	226.34
1014.20	226.29
1014.49	226.31
1014.78	226.31
1015.06	226.26
1015.35	226.26
1015.64	226.26
1015.92	226.27
1016.21	226.30
1016.50	226.30
1016.78	226.29
1017.07	226.31
1017.36	226.27
1017.64	226.23
1017.93	226.23
1018.22	226.21
1018.50	226.19
1018.79	226.20
1019.08	226.12
1019.36	226.10
1019.65	226.12
1019.93	226.15
1020.22	226.16
1020.51	226.18
1020.79	226.16
1021.08	225.58
1021.36	226.06
1021.65	226.62
1021.94	225.86
1022.22	226.15
1022.51	226.02
1022.79	226.36
1023.08	226.28
1023.36	226.93
1023.65	225.87
>>>>>End Processed Spectral Data<<<<<
