SpectraSuite Data File
++++++++++++++++++++++++++++++++++++
Date: Fri Feb 01 17:14:52 EST 2013
User: group
Dark Spectrum Present: No
Reference Spectrum Present: No
Number of Sampled Component Spectra: 1
Spectrometers: USB2E7196
Integration Time (usec): 35000 (USB2E7196)
Spectra Averaged: 100 (USB2E7196)
Boxcar Smoothing: 10 (USB2E7196)
Correct for Electrical Dark: No (USB2E7196)
Strobe/Lamp Enabled: No (USB2E7196)
Correct for Detector Non-linearity: No (USB2E7196)
Correct for Stray Light: No (USB2E7196)
Number of Pixels in Processed Spectrum: 2048
>>>>>Begin Processed Spectral Data<<<<<
339.09	0.00
339.48	213.21
339.86	214.58
340.24	216.67
340.63	217.26
341.01	220.62
341.39	220.33
341.78	221.34
342.16	223.15
342.54	223.38
342.93	211.71
343.31	222.42
343.69	222.97
344.07	223.41
344.46	223.79
344.84	224.18
345.22	224.41
345.60	224.65
345.99	224.86
346.37	224.93
346.75	225.01
347.13	225.10
347.52	225.14
347.90	225.22
348.28	225.24
348.66	225.28
349.05	225.27
349.43	225.28
349.81	225.32
350.19	225.41
350.57	225.47
350.96	225.52
351.34	225.57
351.72	225.63
352.10	225.77
352.48	225.82
352.87	225.87
353.25	225.92
353.63	225.97
354.01	226.03
354.39	226.13
354.77	226.19
355.15	226.27
355.54	226.33
355.92	226.36
356.30	226.43
356.68	226.54
357.06	226.61
357.44	226.65
357.82	226.70
358.20	226.74
358.58	226.82
358.97	226.85
359.35	226.92
359.73	227.00
360.11	227.01
360.49	227.08
360.87	227.10
361.25	227.15
361.63	227.22
362.01	227.23
362.39	227.24
362.77	227.30
363.15	227.32
363.53	227.29
363.91	227.33
364.29	227.33
364.67	227.27
365.05	227.29
365.43	227.35
365.81	227.36
366.19	227.39
366.57	227.39
366.95	227.40
367.33	227.38
367.71	227.36
368.09	227.37
368.47	227.38
368.85	227.39
369.23	227.39
369.61	227.35
369.99	227.39
370.37	227.38
370.75	227.42
371.13	227.38
371.51	227.37
371.89	227.36
372.27	227.33
372.65	227.28
373.03	227.25
373.41	227.15
373.78	227.10
374.16	227.02
374.54	226.95
374.92	226.89
375.30	226.87
375.68	226.79
376.06	226.75
376.44	226.65
376.82	226.59
377.19	226.49
377.57	226.41
377.95	226.28
378.33	226.22
378.71	226.08
379.09	226.02
379.47	225.99
379.84	225.89
380.22	225.81
380.60	225.73
380.98	225.69
381.36	225.62
381.73	225.55
382.11	225.52
382.49	225.44
382.87	225.35
383.25	225.24
383.62	225.31
384.00	225.25
384.38	225.22
384.76	225.20
385.13	225.22
385.51	225.19
385.89	225.13
386.27	225.09
386.64	225.05
387.02	225.02
387.40	224.97
387.78	224.95
388.15	224.92
388.53	224.88
388.91	224.81
389.29	224.82
389.66	224.80
390.04	224.77
390.42	224.78
390.79	224.78
391.17	224.80
391.55	224.68
391.92	224.68
392.30	224.66
392.68	224.60
393.05	224.60
393.43	224.61
393.81	224.64
394.18	224.63
394.56	224.65
394.94	224.67
395.31	224.65
395.69	224.70
396.06	224.74
396.44	224.77
396.82	224.81
397.19	224.87
397.57	224.86
397.95	224.91
398.32	224.93
398.70	224.96
399.07	225.03
399.45	225.08
399.82	225.12
400.20	225.19
400.58	225.27
400.95	225.26
401.33	225.32
401.70	225.46
402.08	225.56
402.45	225.66
402.83	225.77
403.20	225.86
403.58	225.94
403.95	226.06
404.33	226.18
404.71	226.31
405.08	226.50
405.46	226.64
405.83	226.77
406.21	226.93
406.58	227.09
406.96	227.22
407.33	227.38
407.70	227.55
408.08	227.76
408.45	227.98
408.83	228.20
409.20	228.44
409.58	228.62
409.95	228.84
410.33	229.06
410.70	229.31
411.08	229.62
411.45	229.93
411.82	230.24
412.20	230.57
412.57	231.00
412.95	231.29
413.32	231.70
413.69	232.12
414.07	232.56
414.44	233.05
414.82	233.58
415.19	234.12
415.56	234.68
415.94	235.29
416.31	235.94
416.68	236.60
417.06	237.33
417.43	238.03
417.81	238.82
418.18	239.65
418.55	240.51
418.93	241.41
419.30	242.31
419.67	243.27
420.04	244.27
420.42	245.30
420.79	246.46
421.16	247.64
421.54	248.89
421.91	250.13
422.28	251.41
422.66	252.77
423.03	254.14
423.40	255.56
423.77	256.99
424.15	258.45
424.52	259.98
424.89	261.61
425.26	263.21
425.64	264.75
426.01	266.38
426.38	268.06
426.75	269.76
427.13	271.52
427.50	273.40
427.87	275.34
428.24	277.22
428.61	279.06
428.99	281.08
429.36	283.23
429.73	285.34
430.10	287.39
430.47	289.53
430.85	291.67
431.22	293.95
431.59	296.40
431.96	298.69
432.33	301.22
432.70	303.68
433.08	306.52
433.45	309.17
433.82	311.80
434.19	314.73
434.56	317.64
434.93	320.35
435.30	322.97
435.68	325.88
436.05	328.77
436.42	331.63
436.79	334.20
437.16	336.91
437.53	339.81
437.90	342.68
438.27	345.44
438.64	348.34
439.01	351.01
439.38	353.29
439.75	355.49
440.13	358.05
440.50	360.44
440.87	362.37
441.24	364.37
441.61	366.62
441.98	368.22
442.35	370.03
442.72	371.96
443.09	373.87
443.46	374.94
443.83	375.54
444.20	376.09
444.57	376.95
444.94	377.25
445.31	377.62
445.68	377.99
446.05	378.09
446.42	377.71
446.79	377.25
447.16	376.77
447.53	376.50
447.90	375.33
448.27	374.14
448.64	372.56
449.01	371.38
449.37	369.35
449.74	367.42
450.11	365.14
450.48	362.67
450.85	360.07
451.22	357.90
451.59	355.85
451.96	353.84
452.33	351.22
452.70	348.85
453.07	345.94
453.43	342.98
453.80	340.17
454.17	337.47
454.54	334.87
454.91	332.14
455.28	329.41
455.65	326.85
456.02	324.36
456.38	322.12
456.75	319.39
457.12	317.09
457.49	314.79
457.86	312.57
458.23	310.60
458.59	308.54
458.96	306.39
459.33	304.48
459.70	302.61
460.07	301.05
460.43	299.27
460.80	297.63
461.17	296.19
461.54	294.62
461.91	293.14
462.27	291.65
462.64	290.35
463.01	288.95
463.38	287.58
463.74	286.18
464.11	284.99
464.48	283.96
464.85	282.86
465.21	281.97
465.58	281.05
465.95	279.91
466.32	278.98
466.68	278.07
467.05	277.17
467.42	276.22
467.78	275.26
468.15	274.37
468.52	273.73
468.88	272.83
469.25	272.03
469.62	271.39
469.98	270.70
470.35	270.08
470.72	269.50
471.08	268.85
471.45	268.31
471.82	267.76
472.18	267.14
472.55	266.71
472.92	266.22
473.28	265.75
473.65	265.31
474.02	264.88
474.38	264.50
474.75	264.17
475.11	263.82
475.48	263.55
475.85	263.35
476.21	263.10
476.58	262.96
476.94	262.84
477.31	262.69
477.67	262.57
478.04	262.46
478.41	262.37
478.77	262.44
479.14	262.41
479.50	262.45
479.87	262.54
480.23	262.58
480.60	262.63
480.96	262.72
481.33	262.93
481.69	263.11
482.06	263.28
482.42	263.45
482.79	263.70
483.15	264.01
483.52	264.35
483.88	264.65
484.25	265.01
484.61	265.43
484.98	265.88
485.34	266.43
485.71	267.01
486.07	267.58
486.44	268.15
486.80	268.81
487.17	269.53
487.53	270.36
487.90	271.20
488.26	272.13
488.62	273.13
488.99	274.11
489.35	275.17
489.72	276.32
490.08	277.53
490.44	278.75
490.81	280.08
491.17	281.41
491.54	282.93
491.90	284.46
492.26	286.11
492.63	287.83
492.99	289.58
493.36	291.47
493.72	293.54
494.08	295.63
494.45	297.87
494.81	300.21
495.17	302.62
495.54	305.21
495.90	307.90
496.26	310.71
496.63	313.65
496.99	316.71
497.35	319.98
497.72	323.40
498.08	326.95
498.44	330.64
498.80	334.60
499.17	338.65
499.53	342.77
499.89	347.13
500.26	351.67
500.62	356.30
500.98	361.27
501.34	366.32
501.71	371.60
502.07	377.00
502.43	382.59
502.79	388.38
503.16	394.33
503.52	400.55
503.88	406.88
504.24	413.44
504.60	420.25
504.97	427.35
505.33	434.54
505.69	442.14
506.05	449.86
506.41	457.61
506.78	465.63
507.14	474.03
507.50	482.61
507.86	491.49
508.22	500.63
508.59	509.71
508.95	519.20
509.31	528.90
509.67	538.84
510.03	549.03
510.39	559.51
510.75	570.17
511.12	580.87
511.48	591.99
511.84	603.35
512.20	614.74
512.56	626.46
512.92	638.53
513.28	650.72
513.64	662.96
514.00	675.54
514.37	688.33
514.73	701.20
515.09	714.01
515.45	727.06
515.81	740.45
516.17	754.19
516.53	768.13
516.89	782.16
517.25	796.09
517.61	810.31
517.97	824.42
518.33	838.69
518.69	853.26
519.05	867.86
519.41	882.71
519.77	897.91
520.13	913.05
520.49	928.19
520.85	943.15
521.21	958.54
521.57	974.47
521.93	989.91
522.29	1005.87
522.65	1021.88
523.01	1037.85
523.37	1053.58
523.73	1069.37
524.09	1085.08
524.45	1100.96
524.81	1117.27
525.17	1133.61
525.53	1150.14
525.89	1166.64
526.25	1183.27
526.61	1199.36
526.97	1215.80
527.33	1232.14
527.68	1248.44
528.04	1264.54
528.40	1280.84
528.76	1297.59
529.12	1313.86
529.48	1330.49
529.84	1346.19
530.20	1362.52
530.56	1379.01
530.91	1396.11
531.27	1412.56
531.63	1428.65
531.99	1444.90
532.35	1460.76
532.71	1476.32
533.07	1492.37
533.42	1507.97
533.78	1523.79
534.14	1539.89
534.50	1554.97
534.86	1570.49
535.21	1585.37
535.57	1601.17
535.93	1616.45
536.29	1630.96
536.65	1645.61
537.00	1659.93
537.36	1675.03
537.72	1689.22
538.08	1703.47
538.44	1716.98
538.79	1730.67
539.15	1744.02
539.51	1757.56
539.87	1771.56
540.22	1785.06
540.58	1798.45
540.94	1811.39
541.29	1823.77
541.65	1836.18
542.01	1849.07
542.37	1861.24
542.72	1873.46
543.08	1885.00
543.44	1897.30
543.79	1908.60
544.15	1919.48
544.51	1930.99
544.87	1941.90
545.22	1952.80
545.58	1963.03
545.94	1972.88
546.29	1982.84
546.65	1992.86
547.01	2002.20
547.36	2010.91
547.72	2019.56
548.07	2027.77
548.43	2036.14
548.79	2044.17
549.14	2051.95
549.50	2059.45
549.86	2067.04
550.21	2074.49
550.57	2081.76
550.92	2088.60
551.28	2095.65
551.64	2102.86
551.99	2109.61
552.35	2115.99
552.70	2122.31
553.06	2128.51
553.41	2134.87
553.77	2140.78
554.13	2146.98
554.48	2153.16
554.84	2159.14
555.19	2164.46
555.55	2169.75
555.90	2174.51
556.26	2179.91
556.61	2184.70
556.97	2189.34
557.32	2193.81
557.68	2198.20
558.03	2202.70
558.39	2206.53
558.74	2211.28
559.10	2215.50
559.45	2219.48
559.81	2223.87
560.16	2227.85
560.52	2231.39
560.87	2235.04
561.23	2238.14
561.58	2241.29
561.94	2244.27
562.29	2246.55
562.64	2249.78
563.00	2252.49
563.35	2256.26
563.71	2259.59
564.06	2262.97
564.42	2266.17
564.77	2269.13
565.12	2271.92
565.48	2274.25
565.83	2276.43
566.19	2278.22
566.54	2279.22
566.89	2280.64
567.25	2281.65
567.60	2283.13
567.96	2285.16
568.31	2286.39
568.66	2287.68
569.02	2288.63
569.37	2289.10
569.72	2290.46
570.08	2290.90
570.43	2291.34
570.78	2291.21
571.14	2289.98
571.49	2288.94
571.84	2288.76
572.20	2287.93
572.55	2287.05
572.90	2285.58
573.26	2284.48
573.61	2282.88
573.96	2281.70
574.31	2279.15
574.67	2276.32
575.02	2272.99
575.37	2269.72
575.72	2266.20
576.08	2263.14
576.43	2259.78
576.78	2256.69
577.13	2253.55
577.49	2250.36
577.84	2247.18
578.19	2243.50
578.54	2240.18
578.90	2236.46
579.25	2231.25
579.60	2226.55
579.95	2221.81
580.30	2217.04
580.66	2212.21
581.01	2207.44
581.36	2202.51
581.71	2198.63
582.06	2194.70
582.42	2190.70
582.77	2185.85
583.12	2181.56
583.47	2177.30
583.82	2172.96
584.17	2167.72
584.53	2162.57
584.88	2157.27
585.23	2151.77
585.58	2146.44
585.93	2141.11
586.28	2136.22
586.63	2131.35
586.98	2126.30
587.34	2121.68
587.69	2116.97
588.04	2111.99
588.39	2106.49
588.74	2100.25
589.09	2094.04
589.44	2087.36
589.79	2081.19
590.14	2075.55
590.49	2069.15
590.84	2062.71
591.19	2056.65
591.54	2050.32
591.89	2043.24
592.25	2036.78
592.60	2029.66
592.95	2022.52
593.30	2015.41
593.65	2008.04
594.00	2001.09
594.35	1994.11
594.70	1986.02
595.05	1979.14
595.40	1971.84
595.75	1964.66
596.10	1958.83
596.45	1952.35
596.80	1946.30
597.15	1939.98
597.50	1933.29
597.85	1926.83
598.19	1920.49
598.54	1913.73
598.89	1907.34
599.24	1901.42
599.59	1894.86
599.94	1888.63
600.29	1882.21
600.64	1875.59
600.99	1868.39
601.34	1861.63
601.69	1854.58
602.04	1848.02
602.39	1840.57
602.74	1833.84
603.08	1827.26
603.43	1820.49
603.78	1813.34
604.13	1806.14
604.48	1799.10
604.83	1792.21
605.18	1785.53
605.53	1777.51
605.87	1769.41
606.22	1761.96
606.57	1753.93
606.92	1746.37
607.27	1739.37
607.62	1732.51
607.96	1725.38
608.31	1718.95
608.66	1711.40
609.01	1703.93
609.36	1696.43
609.70	1688.50
610.05	1680.37
610.40	1672.77
610.75	1664.44
611.10	1656.70
611.44	1648.20
611.79	1639.96
612.14	1631.08
612.49	1621.76
612.83	1613.29
613.18	1605.07
613.53	1596.99
613.88	1588.53
614.22	1580.42
614.57	1571.61
614.92	1563.58
615.27	1556.14
615.61	1547.85
615.96	1539.74
616.31	1531.94
616.65	1524.46
617.00	1516.83
617.35	1509.17
617.70	1500.76
618.04	1492.23
618.39	1483.82
618.74	1476.32
619.08	1467.98
619.43	1460.46
619.78	1453.50
620.12	1446.41
620.47	1438.80
620.82	1430.51
621.16	1423.02
621.51	1415.35
621.85	1407.62
622.20	1398.98
622.55	1390.32
622.89	1382.28
623.24	1374.58
623.59	1367.05
623.93	1359.56
624.28	1352.24
624.62	1344.78
624.97	1337.50
625.32	1330.55
625.66	1323.39
626.01	1316.09
626.35	1308.79
626.70	1300.91
627.04	1293.17
627.39	1285.24
627.73	1277.72
628.08	1270.86
628.43	1263.53
628.77	1256.20
629.12	1248.78
629.46	1241.60
629.81	1234.08
630.15	1226.68
630.50	1219.26
630.84	1211.20
631.19	1203.07
631.53	1195.41
631.88	1187.63
632.22	1179.90
632.57	1172.58
632.91	1165.05
633.26	1157.56
633.60	1149.92
633.95	1142.66
634.29	1135.40
634.64	1128.67
634.98	1121.48
635.32	1114.34
635.67	1107.57
636.01	1100.75
636.36	1093.91
636.70	1087.27
637.05	1080.68
637.39	1074.24
637.73	1067.74
638.08	1061.75
638.42	1055.74
638.77	1049.39
639.11	1042.84
639.45	1036.41
639.80	1029.63
640.14	1023.24
640.49	1016.77
640.83	1010.38
641.17	1004.21
641.52	997.99
641.86	991.47
642.20	985.49
642.55	979.07
642.89	972.67
643.23	965.98
643.58	960.15
643.92	954.03
644.26	948.05
644.61	941.88
644.95	935.81
645.29	929.25
645.64	922.58
645.98	916.09
646.32	910.00
646.66	903.92
647.01	898.22
647.35	892.48
647.69	886.53
648.04	881.05
648.38	875.21
648.72	869.19
649.06	863.24
649.41	857.25
649.75	851.34
650.09	845.34
650.43	839.63
650.78	833.47
651.12	827.44
651.46	821.63
651.80	816.08
652.14	810.56
652.49	805.18
652.83	799.95
653.17	794.42
653.51	788.92
653.85	783.45
654.20	777.79
654.54	771.81
654.88	766.02
655.22	760.11
655.56	754.46
655.90	748.95
656.25	743.63
656.59	738.36
656.93	733.22
657.27	728.14
657.61	722.66
657.95	717.48
658.29	712.38
658.64	707.02
658.98	701.57
659.32	696.09
659.66	690.88
660.00	685.58
660.34	680.60
660.68	675.56
661.02	670.61
661.36	665.90
661.70	661.34
662.05	656.99
662.39	652.71
662.73	648.18
663.07	643.75
663.41	639.19
663.75	634.70
664.09	630.04
664.43	625.61
664.77	621.56
665.11	617.40
665.45	613.23
665.79	609.23
666.13	605.12
666.47	601.05
666.81	596.91
667.15	592.67
667.49	588.72
667.83	584.81
668.17	580.75
668.51	576.66
668.85	572.62
669.19	568.71
669.53	564.84
669.87	561.00
670.21	557.26
670.55	553.68
670.89	550.19
671.23	546.82
671.57	543.23
671.91	539.60
672.25	536.02
672.58	532.49
672.92	529.04
673.26	525.77
673.60	522.52
673.94	519.38
674.28	516.44
674.62	513.46
674.96	510.42
675.30	507.60
675.64	504.68
675.97	501.84
676.31	498.96
676.65	495.98
676.99	493.22
677.33	490.32
677.67	487.45
678.01	484.37
678.34	481.36
678.68	478.43
679.02	475.60
679.36	472.76
679.70	469.98
680.04	467.17
680.37	464.32
680.71	461.56
681.05	458.87
681.39	456.21
681.73	453.54
682.06	450.95
682.40	448.35
682.74	445.74
683.08	443.14
683.42	440.45
683.75	437.92
684.09	435.29
684.43	432.78
684.77	430.28
685.10	427.92
685.44	425.54
685.78	423.29
686.12	420.99
686.45	418.69
686.79	416.42
687.13	414.19
687.46	411.99
687.80	409.81
688.14	407.56
688.48	405.40
688.81	403.18
689.15	401.01
689.49	398.84
689.82	396.77
690.16	394.64
690.50	392.65
690.83	390.73
691.17	388.73
691.51	386.80
691.84	384.94
692.18	383.05
692.52	381.13
692.85	379.17
693.19	377.25
693.52	375.39
693.86	373.51
694.20	371.73
694.53	369.96
694.87	368.12
695.21	366.32
695.54	364.50
695.88	362.71
696.21	360.97
696.55	359.30
696.88	357.57
697.22	355.92
697.56	354.30
697.89	352.65
698.23	351.09
698.56	349.51
698.90	347.95
699.23	346.29
699.57	344.72
699.90	343.18
700.24	341.67
700.58	340.13
700.91	338.66
701.25	337.19
701.58	335.79
701.92	334.35
702.25	333.01
702.59	331.59
702.92	330.27
703.26	328.93
703.59	327.63
703.93	326.41
704.26	325.19
704.60	323.93
704.93	322.63
705.26	321.33
705.60	320.11
705.93	318.91
706.27	317.85
706.60	316.78
706.94	315.66
707.27	314.50
707.61	313.42
707.94	312.38
708.27	311.32
708.61	310.21
708.94	309.22
709.28	308.19
709.61	307.27
709.94	306.29
710.28	305.29
710.61	304.30
710.95	303.22
711.28	302.31
711.61	301.32
711.95	300.40
712.28	299.51
712.61	298.58
712.95	297.64
713.28	296.73
713.61	295.77
713.95	294.90
714.28	294.08
714.61	293.20
714.95	292.33
715.28	291.42
715.61	290.57
715.95	289.72
716.28	288.87
716.61	288.02
716.95	287.22
717.28	286.47
717.61	285.68
717.94	284.95
718.28	284.10
718.61	283.36
718.94	282.66
719.27	281.98
719.61	281.27
719.94	280.60
720.27	279.89
720.60	279.26
720.94	278.58
721.27	277.98
721.60	277.42
721.93	276.82
722.27	276.28
722.60	275.71
722.93	275.14
723.26	274.59
723.59	273.98
723.93	273.43
724.26	272.86
724.59	272.28
724.92	271.71
725.25	271.25
725.59	270.75
725.92	270.21
726.25	269.65
726.58	269.17
726.91	268.67
727.24	268.16
727.57	267.67
727.91	267.17
728.24	266.70
728.57	266.23
728.90	265.77
729.23	265.28
729.56	264.81
729.89	264.30
730.22	263.79
730.55	263.35
730.89	262.83
731.22	262.39
731.55	261.97
731.88	261.52
732.21	261.04
732.54	260.59
732.87	260.19
733.20	259.77
733.53	259.33
733.86	258.95
734.19	258.53
734.52	258.15
734.85	257.82
735.18	257.36
735.51	256.97
735.84	256.57
736.17	256.24
736.50	255.86
736.83	255.63
737.16	255.28
737.49	254.95
737.82	254.65
738.15	254.31
738.48	253.94
738.81	253.61
739.14	253.30
739.47	252.98
739.80	252.66
740.13	252.37
740.46	252.03
740.79	251.71
741.12	251.41
741.45	251.08
741.78	250.75
742.11	250.49
742.44	250.15
742.77	249.88
743.10	249.57
743.43	249.27
743.75	248.90
744.08	248.80
744.41	248.54
744.74	248.28
745.07	247.97
745.40	247.74
745.73	247.53
746.06	247.24
746.39	246.99
746.71	246.70
747.04	246.42
747.37	246.18
747.70	245.93
748.03	245.69
748.36	245.49
748.68	245.24
749.01	244.99
749.34	244.79
749.67	244.58
750.00	244.36
750.33	244.19
750.65	243.95
750.98	243.60
751.31	243.35
751.64	243.15
751.97	243.01
752.29	242.77
752.62	242.54
752.95	242.36
753.28	242.13
753.60	241.97
753.93	241.79
754.26	241.60
754.59	241.40
754.91	241.19
755.24	240.99
755.57	240.73
755.90	240.55
756.22	240.34
756.55	240.10
756.88	239.91
757.20	239.69
757.53	239.48
757.86	239.30
758.19	239.17
758.51	238.98
758.84	238.79
759.17	238.61
759.49	238.48
759.82	238.36
760.15	238.20
760.47	238.00
760.80	237.85
761.13	237.71
761.45	237.55
761.78	237.40
762.11	237.25
762.43	237.17
762.76	237.01
763.08	236.90
763.41	236.77
763.74	236.61
764.06	236.45
764.39	236.31
764.71	236.17
765.04	236.00
765.37	235.84
765.69	235.70
766.02	235.58
766.34	235.41
766.67	235.21
767.00	235.13
767.32	235.05
767.65	234.99
767.97	234.84
768.30	234.74
768.62	234.59
768.95	234.49
769.27	234.36
769.60	234.27
769.92	234.11
770.25	233.98
770.57	233.86
770.90	233.74
771.22	233.63
771.55	233.49
771.87	233.41
772.20	233.29
772.52	233.25
772.85	233.27
773.17	233.18
773.50	233.09
773.82	232.97
774.15	232.82
774.47	232.67
774.80	232.57
775.12	232.47
775.45	232.41
775.77	232.31
776.09	232.21
776.42	232.09
776.74	232.05
777.07	231.97
777.39	231.88
777.72	231.80
778.04	231.74
778.36	231.68
778.69	231.60
779.01	231.56
779.33	231.41
779.66	231.21
779.98	231.09
780.31	231.03
780.63	230.97
780.95	230.92
781.28	230.83
781.60	230.76
781.92	230.69
782.25	230.66
782.57	230.57
782.89	230.52
783.22	230.45
783.54	230.37
783.86	230.31
784.19	230.26
784.51	230.24
784.83	230.20
785.16	230.16
785.48	230.09
785.80	230.03
786.12	229.99
786.45	229.94
786.77	229.93
787.09	229.90
787.42	229.84
787.74	229.80
788.06	229.76
788.38	229.70
788.71	229.63
789.03	229.57
789.35	229.57
789.67	229.50
789.99	229.52
790.32	229.44
790.64	229.42
790.96	229.45
791.28	229.40
791.61	229.33
791.93	229.29
792.25	229.23
792.57	229.28
792.89	229.21
793.21	229.17
793.54	229.12
793.86	229.07
794.18	229.03
794.50	228.96
794.82	228.93
795.14	228.93
795.47	228.89
795.79	228.86
796.11	228.79
796.43	228.76
796.75	228.72
797.07	228.70
797.39	228.69
797.71	228.62
798.04	228.59
798.36	228.55
798.68	228.52
799.00	228.51
799.32	228.43
799.64	228.39
799.96	228.36
800.28	228.35
800.60	228.32
800.92	228.30
801.24	228.30
801.56	228.26
801.89	228.22
802.21	228.23
802.53	228.16
802.85	228.18
803.17	228.20
803.49	228.14
803.81	228.09
804.13	228.01
804.45	227.95
804.77	227.92
805.09	227.90
805.41	227.84
805.73	227.78
806.05	227.75
806.37	227.72
806.69	227.69
807.01	227.64
807.33	227.63
807.65	227.58
807.97	227.58
808.28	227.58
808.60	227.58
808.92	227.53
809.24	227.59
809.56	227.55
809.88	227.46
810.20	227.43
810.52	227.47
810.84	227.47
811.16	227.43
811.48	227.40
811.80	227.42
812.12	227.39
812.43	227.37
812.75	227.35
813.07	227.35
813.39	227.34
813.71	227.31
814.03	227.25
814.35	227.25
814.67	227.21
814.98	227.16
815.30	227.10
815.62	227.04
815.94	226.94
816.26	226.94
816.58	226.91
816.89	226.93
817.21	226.85
817.53	226.81
817.85	226.80
818.17	226.75
818.48	226.66
818.80	226.69
819.12	226.65
819.44	226.60
819.76	226.56
820.07	226.54
820.39	226.55
820.71	226.57
821.03	226.53
821.34	226.51
821.66	226.49
821.98	226.51
822.30	226.52
822.61	226.57
822.93	226.50
823.25	226.49
823.57	226.42
823.88	226.48
824.20	226.46
824.52	226.48
824.83	226.47
825.15	226.46
825.47	226.38
825.79	226.43
826.10	226.42
826.42	226.40
826.74	226.38
827.05	226.34
827.37	226.29
827.69	226.28
828.00	226.27
828.32	226.26
828.64	226.21
828.95	226.22
829.27	226.14
829.58	226.15
829.90	226.12
830.22	226.15
830.53	226.06
830.85	226.07
831.17	226.04
831.48	226.02
831.80	226.03
832.11	226.05
832.43	226.00
832.75	225.99
833.06	226.04
833.38	226.00
833.69	226.01
834.01	225.99
834.32	225.98
834.64	225.95
834.96	225.97
835.27	225.96
835.59	225.96
835.90	225.96
836.22	225.95
836.53	225.97
836.85	225.93
837.16	226.03
837.48	226.02
837.79	226.03
838.11	226.07
838.42	226.06
838.74	226.06
839.05	226.06
839.37	226.05
839.68	226.01
840.00	226.03
840.31	226.04
840.63	226.07
840.94	226.07
841.26	226.05
841.57	226.02
841.88	226.05
842.20	226.03
842.51	226.02
842.83	226.02
843.14	226.11
843.46	226.13
843.77	226.10
844.08	226.10
844.40	226.06
844.71	226.06
845.03	226.05
845.34	226.02
845.65	226.03
845.97	226.01
846.28	226.00
846.60	225.98
846.91	225.98
847.22	225.97
847.54	225.97
847.85	226.00
848.16	226.01
848.48	225.99
848.79	226.02
849.10	226.05
849.42	226.01
849.73	225.94
850.04	225.92
850.36	225.91
850.67	225.91
850.98	225.92
851.30	225.92
851.61	225.94
851.92	225.96
852.23	226.02
852.55	226.04
852.86	226.04
853.17	226.05
853.49	226.08
853.80	226.09
854.11	226.09
854.42	226.11
854.74	226.08
855.05	226.08
855.36	226.02
855.67	225.99
855.99	226.00
856.30	226.08
856.61	226.06
856.92	226.05
857.23	226.03
857.55	226.02
857.86	226.00
858.17	225.98
858.48	225.98
858.79	225.92
859.11	225.89
859.42	225.90
859.73	225.87
860.04	225.83
860.35	225.82
860.66	225.79
860.98	225.80
861.29	225.83
861.60	225.81
861.91	225.80
862.22	225.82
862.53	225.82
862.84	225.70
863.16	225.73
863.47	225.70
863.78	225.71
864.09	225.72
864.40	225.71
864.71	225.69
865.02	225.68
865.33	225.66
865.64	225.66
865.95	225.64
866.27	225.73
866.58	225.75
866.89	225.73
867.20	225.73
867.51	225.70
867.82	225.68
868.13	225.70
868.44	225.72
868.75	225.74
869.06	225.67
869.37	225.69
869.68	225.69
869.99	225.66
870.30	225.66
870.61	225.65
870.92	225.65
871.23	225.67
871.54	225.67
871.85	225.69
872.16	225.68
872.47	225.67
872.78	225.58
873.09	225.60
873.40	225.62
873.71	225.61
874.02	225.62
874.33	225.60
874.64	225.61
874.95	225.61
875.26	225.54
875.56	225.57
875.87	225.55
876.18	225.54
876.49	225.67
876.80	225.68
877.11	225.65
877.42	225.65
877.73	225.65
878.04	225.64
878.35	225.62
878.66	225.64
878.96	225.65
879.27	225.66
879.58	225.64
879.89	225.60
880.20	225.65
880.51	225.64
880.82	225.66
881.12	225.65
881.43	225.62
881.74	225.66
882.05	225.69
882.36	225.72
882.67	225.68
882.97	225.56
883.28	225.52
883.59	225.53
883.90	225.54
884.21	225.52
884.51	225.55
884.82	225.56
885.13	225.54
885.44	225.53
885.74	225.51
886.05	225.50
886.36	225.49
886.67	225.45
886.98	225.48
887.28	225.49
887.59	225.50
887.90	225.48
888.20	225.45
888.51	225.45
888.82	225.44
889.13	225.44
889.43	225.51
889.74	225.53
890.05	225.52
890.35	225.51
890.66	225.49
890.97	225.47
891.28	225.44
891.58	225.48
891.89	225.50
892.20	225.47
892.50	225.49
892.81	225.53
893.12	225.50
893.42	225.46
893.73	225.44
894.04	225.42
894.34	225.45
894.65	225.45
894.95	225.41
895.26	225.39
895.57	225.45
895.87	225.36
896.18	225.38
896.48	225.39
896.79	225.37
897.10	225.37
897.40	225.38
897.71	225.41
898.01	225.36
898.32	225.36
898.63	225.37
898.93	225.36
899.24	225.33
899.54	225.33
899.85	225.30
900.15	225.31
900.46	225.30
900.76	225.33
901.07	225.31
901.38	225.34
901.68	225.37
901.99	225.31
902.29	225.31
902.60	225.28
902.90	225.27
903.21	225.29
903.51	225.27
903.82	225.30
904.12	225.28
904.43	225.28
904.73	225.29
905.03	225.28
905.34	225.37
905.64	225.35
905.95	225.34
906.25	225.37
906.56	225.38
906.86	225.38
907.17	225.34
907.47	225.36
907.77	225.32
908.08	225.29
908.38	225.32
908.69	225.33
908.99	225.34
909.30	225.34
909.60	225.33
909.90	225.38
910.21	225.33
910.51	225.31
910.81	225.32
911.12	225.31
911.42	225.32
911.73	225.23
912.03	225.25
912.33	225.28
912.64	225.26
912.94	225.25
913.24	225.25
913.55	225.24
913.85	225.20
914.15	225.23
914.46	225.22
914.76	225.21
915.06	225.19
915.37	225.18
915.67	225.18
915.97	225.15
916.27	225.10
916.58	225.09
916.88	225.11
917.18	225.08
917.49	225.14
917.79	225.12
918.09	225.11
918.39	225.10
918.70	225.10
919.00	225.10
919.30	225.14
919.60	225.15
919.91	225.15
920.21	225.18
920.51	225.18
920.81	225.18
921.12	225.17
921.42	225.16
921.72	225.18
922.02	225.17
922.32	225.18
922.63	225.19
922.93	225.26
923.23	225.27
923.53	225.24
923.83	225.18
924.13	225.21
924.44	225.20
924.74	225.21
925.04	225.22
925.34	225.20
925.64	225.15
925.94	225.12
926.24	225.19
926.55	225.17
926.85	225.16
927.15	225.17
927.45	225.16
927.75	225.18
928.05	225.18
928.35	225.16
928.65	225.21
928.95	225.22
929.26	225.16
929.56	225.16
929.86	225.19
930.16	225.19
930.46	225.14
930.76	225.14
931.06	225.11
931.36	225.09
931.66	225.09
931.96	225.12
932.26	225.11
932.56	225.03
932.86	225.04
933.16	225.04
933.46	225.01
933.76	225.02
934.06	225.01
934.36	225.02
934.66	225.07
934.96	225.03
935.26	225.05
935.56	225.02
935.86	225.02
936.16	225.00
936.46	224.97
936.76	224.99
937.06	225.00
937.36	225.02
937.66	225.00
937.96	225.00
938.26	224.99
938.56	224.99
938.86	224.99
939.16	224.99
939.46	224.99
939.76	225.00
940.06	225.00
940.35	225.02
940.65	224.96
940.95	224.92
941.25	224.96
941.55	224.95
941.85	224.97
942.15	224.99
942.45	225.03
942.75	225.04
943.04	225.10
943.34	225.10
943.64	225.08
943.94	225.12
944.24	225.13
944.54	225.13
944.84	225.14
945.13	225.15
945.43	225.12
945.73	225.14
946.03	225.16
946.33	225.14
946.62	225.12
946.92	225.15
947.22	225.14
947.52	225.11
947.82	225.11
948.11	225.11
948.41	225.09
948.71	225.04
949.01	225.06
949.31	225.03
949.60	225.04
949.90	225.03
950.20	225.02
950.50	225.03
950.79	225.03
951.09	225.04
951.39	225.05
951.69	225.07
951.98	225.08
952.28	225.08
952.58	225.09
952.87	225.07
953.17	225.10
953.47	225.12
953.76	225.10
954.06	225.10
954.36	225.09
954.66	225.08
954.95	225.13
955.25	225.13
955.55	225.12
955.84	225.09
956.14	225.11
956.44	225.11
956.73	225.09
957.03	225.06
957.32	225.06
957.62	225.02
957.92	225.04
958.21	225.03
958.51	225.14
958.81	225.12
959.10	225.10
959.40	225.10
959.69	225.07
959.99	225.09
960.29	225.07
960.58	225.02
960.88	225.08
961.17	225.03
961.47	225.01
961.76	224.99
962.06	225.03
962.36	225.02
962.65	225.03
962.95	225.03
963.24	225.05
963.54	225.06
963.83	225.09
964.13	225.09
964.42	225.04
964.72	224.93
965.01	224.95
965.31	224.98
965.60	224.97
965.90	225.03
966.19	225.00
966.49	225.01
966.78	225.05
967.08	225.02
967.37	225.01
967.67	225.01
967.96	225.03
968.26	225.01
968.55	225.01
968.85	225.01
969.14	225.01
969.43	225.00
969.73	224.96
970.02	224.95
970.32	224.92
970.61	224.96
970.91	224.97
971.20	224.95
971.49	224.94
971.79	224.94
972.08	224.88
972.38	224.91
972.67	224.92
972.96	224.92
973.26	224.92
973.55	224.97
973.85	224.96
974.14	224.96
974.43	224.96
974.73	224.95
975.02	224.94
975.31	224.95
975.61	224.95
975.90	224.96
976.19	224.93
976.49	224.97
976.78	224.95
977.07	224.93
977.37	224.93
977.66	224.96
977.95	224.96
978.24	225.00
978.54	225.03
978.83	225.01
979.12	225.02
979.42	225.04
979.71	225.05
980.00	225.06
980.29	225.08
980.59	225.10
980.88	225.11
981.17	225.11
981.46	225.06
981.76	225.03
982.05	225.07
982.34	225.09
982.63	225.08
982.93	225.14
983.22	225.17
983.51	225.21
983.80	225.21
984.09	225.21
984.39	225.18
984.68	225.17
984.97	225.18
985.26	225.17
985.55	225.15
985.85	225.10
986.14	225.12
986.43	225.12
986.72	225.09
987.01	225.07
987.30	225.09
987.59	225.14
987.89	225.17
988.18	225.16
988.47	225.15
988.76	225.14
989.05	225.11
989.34	225.09
989.63	225.08
989.92	225.08
990.22	225.06
990.51	225.06
990.80	225.03
991.09	225.02
991.38	225.01
991.67	225.01
991.96	224.98
992.25	225.00
992.54	224.98
992.83	224.97
993.12	224.98
993.41	224.96
993.70	224.97
993.99	224.98
994.28	224.99
994.58	225.03
994.87	224.99
995.16	224.97
995.45	224.94
995.74	224.93
996.03	224.90
996.32	224.93
996.61	224.95
996.90	224.95
997.19	224.96
997.48	224.95
997.77	224.93
998.06	224.96
998.34	224.94
998.63	224.96
998.92	224.97
999.21	224.99
999.50	225.02
999.79	224.99
1000.08	224.99
1000.37	224.97
1000.66	224.94
1000.95	224.95
1001.24	224.95
1001.53	224.95
1001.82	224.96
1002.11	224.95
1002.40	224.92
1002.68	224.94
1002.97	225.03
1003.26	225.03
1003.55	225.00
1003.84	225.03
1004.13	225.05
1004.42	225.05
1004.71	225.03
1004.99	225.01
1005.28	225.02
1005.57	225.01
1005.86	225.01
1006.15	224.98
1006.44	224.98
1006.72	224.97
1007.01	224.97
1007.30	224.97
1007.59	225.00
1007.88	225.01
1008.17	224.99
1008.45	225.01
1008.74	224.94
1009.03	224.89
1009.32	224.91
1009.60	224.96
1009.89	224.99
1010.18	224.97
1010.47	224.99
1010.76	225.00
1011.04	224.98
1011.33	224.98
1011.62	224.99
1011.91	225.02
1012.19	225.04
1012.48	225.06
1012.77	225.09
1013.05	225.17
1013.34	225.19
1013.63	225.20
1013.92	225.22
1014.20	225.26
1014.49	225.28
1014.78	225.33
1015.06	225.30
1015.35	225.31
1015.64	225.32
1015.92	225.31
1016.21	225.31
1016.50	225.31
1016.78	225.31
1017.07	225.36
1017.36	225.37
1017.64	225.36
1017.93	225.34
1018.22	225.33
1018.50	225.35
1018.79	225.35
1019.08	225.29
1019.36	225.25
1019.65	225.24
1019.93	225.27
1020.22	225.24
1020.51	225.26
1020.79	225.24
1021.08	225.14
1021.36	225.59
1021.65	224.91
1021.94	225.31
1022.22	224.32
1022.51	225.30
1022.79	226.13
1023.08	224.51
1023.36	226.02
1023.65	224.99
>>>>>End Processed Spectral Data<<<<<
