SpectraSuite Data File
++++++++++++++++++++++++++++++++++++
Date: Fri Feb 01 15:59:43 EST 2013
User: group
Dark Spectrum Present: No
Reference Spectrum Present: No
Number of Sampled Component Spectra: 1
Spectrometers: USB2E7196
Integration Time (usec): 35000 (USB2E7196)
Spectra Averaged: 100 (USB2E7196)
Boxcar Smoothing: 10 (USB2E7196)
Correct for Electrical Dark: No (USB2E7196)
Strobe/Lamp Enabled: No (USB2E7196)
Correct for Detector Non-linearity: No (USB2E7196)
Correct for Stray Light: No (USB2E7196)
Number of Pixels in Processed Spectrum: 2048
>>>>>Begin Processed Spectral Data<<<<<
339.09	0.00
339.48	214.80
339.86	216.30
340.24	217.53
340.63	218.87
341.01	221.58
341.39	221.66
341.78	223.43
342.16	224.28
342.54	224.85
342.93	213.02
343.31	223.78
343.69	224.29
344.07	224.74
344.46	225.14
344.84	225.51
345.22	225.75
345.60	225.98
345.99	226.13
346.37	226.25
346.75	226.33
347.13	226.42
347.52	226.48
347.90	226.53
348.28	226.59
348.66	226.65
349.05	226.63
349.43	226.66
349.81	226.72
350.19	226.75
350.57	226.79
350.96	226.86
351.34	226.94
351.72	227.03
352.10	227.11
352.48	227.16
352.87	227.24
353.25	227.31
353.63	227.39
354.01	227.46
354.39	227.53
354.77	227.59
355.15	227.65
355.54	227.70
355.92	227.76
356.30	227.80
356.68	227.91
357.06	227.99
357.44	228.03
357.82	228.10
358.20	228.19
358.58	228.29
358.97	228.39
359.35	228.46
359.73	228.51
360.11	228.58
360.49	228.68
360.87	228.70
361.25	228.75
361.63	228.83
362.01	228.89
362.39	228.93
362.77	228.97
363.15	229.02
363.53	229.07
363.91	229.09
364.29	229.11
364.67	229.05
365.05	229.05
365.43	229.09
365.81	229.08
366.19	229.10
366.57	229.12
366.95	229.07
367.33	229.05
367.71	229.06
368.09	229.05
368.47	229.04
368.85	229.03
369.23	229.02
369.61	228.94
369.99	228.94
370.37	228.90
370.75	228.92
371.13	228.86
371.51	228.81
371.89	228.80
372.27	228.78
372.65	228.72
373.03	228.70
373.41	228.62
373.78	228.58
374.16	228.50
374.54	228.40
374.92	228.37
375.30	228.33
375.68	228.27
376.06	228.23
376.44	228.16
376.82	228.10
377.19	228.03
377.57	228.00
377.95	227.88
378.33	227.83
378.71	227.72
379.09	227.65
379.47	227.59
379.84	227.47
380.22	227.39
380.60	227.34
380.98	227.28
381.36	227.22
381.73	227.15
382.11	227.07
382.49	227.04
382.87	226.99
383.25	226.91
383.62	226.98
384.00	226.88
384.38	226.82
384.76	226.79
385.13	226.78
385.51	226.72
385.89	226.68
386.27	226.64
386.64	226.61
387.02	226.59
387.40	226.51
387.78	226.50
388.15	226.50
388.53	226.47
388.91	226.45
389.29	226.40
389.66	226.40
390.04	226.39
390.42	226.36
390.79	226.33
391.17	226.31
391.55	226.20
391.92	226.21
392.30	226.23
392.68	226.19
393.05	226.19
393.43	226.21
393.81	226.21
394.18	226.17
394.56	226.18
394.94	226.18
395.31	226.21
395.69	226.28
396.06	226.27
396.44	226.30
396.82	226.29
397.19	226.35
397.57	226.36
397.95	226.43
398.32	226.43
398.70	226.51
399.07	226.59
399.45	226.64
399.82	226.67
400.20	226.68
400.58	226.76
400.95	226.79
401.33	226.86
401.70	227.03
402.08	227.16
402.45	227.26
402.83	227.42
403.20	227.52
403.58	227.61
403.95	227.76
404.33	227.89
404.71	228.03
405.08	228.23
405.46	228.39
405.83	228.52
406.21	228.67
406.58	228.82
406.96	228.94
407.33	229.08
407.70	229.30
408.08	229.61
408.45	229.84
408.83	230.08
409.20	230.28
409.58	230.46
409.95	230.70
410.33	230.95
410.70	231.21
411.08	231.50
411.45	231.81
411.82	232.13
412.20	232.48
412.57	232.94
412.95	233.21
413.32	233.62
413.69	234.01
414.07	234.49
414.44	234.95
414.82	235.46
415.19	236.06
415.56	236.62
415.94	237.16
416.31	237.81
416.68	238.41
417.06	239.15
417.43	239.85
417.81	240.60
418.18	241.41
418.55	242.22
418.93	243.09
419.30	243.98
419.67	244.88
420.04	245.84
420.42	246.81
420.79	248.00
421.16	249.18
421.54	250.37
421.91	251.60
422.28	252.87
422.66	254.19
423.03	255.49
423.40	256.80
423.77	258.24
424.15	259.63
424.52	261.14
424.89	262.73
425.26	264.24
425.64	265.71
426.01	267.31
426.38	268.96
426.75	270.61
427.13	272.36
427.50	274.12
427.87	275.96
428.24	277.79
428.61	279.53
428.99	281.45
429.36	283.56
429.73	285.62
430.10	287.61
430.47	289.70
430.85	291.79
431.22	294.04
431.59	296.39
431.96	298.63
432.33	301.10
432.70	303.49
433.08	306.34
433.45	309.02
433.82	311.58
434.19	314.49
434.56	317.35
434.93	319.97
435.30	322.62
435.68	325.54
436.05	328.40
436.42	331.15
436.79	333.65
437.16	336.37
437.53	339.23
437.90	342.10
438.27	344.83
438.64	347.65
439.01	350.24
439.38	352.47
439.75	354.68
440.13	357.20
440.50	359.54
440.87	361.39
441.24	363.29
441.61	365.50
441.98	366.98
442.35	368.71
442.72	370.61
443.09	372.39
443.46	373.39
443.83	373.97
444.20	374.46
444.57	375.30
444.94	375.54
445.31	375.82
445.68	376.09
446.05	376.15
446.42	375.73
446.79	375.28
447.16	374.82
447.53	374.48
447.90	373.30
448.27	372.13
448.64	370.54
449.01	369.41
449.37	367.40
449.74	365.49
450.11	363.24
450.48	360.75
450.85	358.25
451.22	356.13
451.59	354.11
451.96	352.18
452.33	349.57
452.70	347.17
453.07	344.33
453.43	341.46
453.80	338.73
454.17	336.08
454.54	333.56
454.91	330.83
455.28	328.17
455.65	325.69
456.02	323.22
456.38	321.08
456.75	318.42
457.12	316.18
457.49	313.99
457.86	311.86
458.23	310.01
458.59	307.96
458.96	305.85
459.33	303.96
459.70	302.14
460.07	300.64
460.43	298.99
460.80	297.43
461.17	296.01
461.54	294.47
461.91	293.06
462.27	291.64
462.64	290.43
463.01	289.07
463.38	287.76
463.74	286.41
464.11	285.21
464.48	284.20
464.85	283.10
465.21	282.26
465.58	281.35
465.95	280.25
466.32	279.37
466.68	278.49
467.05	277.63
467.42	276.75
467.78	275.88
468.15	275.00
468.52	274.32
468.88	273.44
469.25	272.68
469.62	272.11
469.98	271.41
470.35	270.76
470.72	270.15
471.08	269.51
471.45	268.97
471.82	268.46
472.18	267.81
472.55	267.39
472.92	266.83
473.28	266.38
473.65	265.92
474.02	265.46
474.38	265.10
474.75	264.81
475.11	264.47
475.48	264.14
475.85	263.95
476.21	263.71
476.58	263.54
476.94	263.40
477.31	263.18
477.67	263.07
478.04	262.96
478.41	262.95
478.77	262.99
479.14	262.93
479.50	262.95
479.87	263.04
480.23	263.11
480.60	263.19
480.96	263.27
481.33	263.48
481.69	263.71
482.06	263.89
482.42	264.07
482.79	264.28
483.15	264.59
483.52	264.94
483.88	265.29
484.25	265.70
484.61	266.14
484.98	266.61
485.34	267.16
485.71	267.72
486.07	268.29
486.44	268.86
486.80	269.57
487.17	270.26
487.53	271.08
487.90	271.95
488.26	272.89
488.62	273.86
488.99	274.82
489.35	275.82
489.72	276.93
490.08	278.08
490.44	279.33
490.81	280.66
491.17	281.98
491.54	283.49
491.90	285.00
492.26	286.64
492.63	288.38
492.99	290.10
493.36	292.01
493.72	294.01
494.08	296.09
494.45	298.36
494.81	300.76
495.17	303.19
495.54	305.75
495.90	308.41
496.26	311.22
496.63	314.16
496.99	317.27
497.35	320.55
497.72	323.98
498.08	327.52
498.44	331.23
498.80	335.15
499.17	339.18
499.53	343.39
499.89	347.72
500.26	352.28
500.62	357.02
500.98	362.00
501.34	367.12
501.71	372.46
502.07	377.85
502.43	383.42
502.79	389.27
503.16	395.33
503.52	401.63
503.88	408.10
504.24	414.78
504.60	421.73
504.97	428.90
505.33	436.22
505.69	443.93
506.05	451.68
506.41	459.57
506.78	467.72
507.14	476.17
507.50	484.92
507.86	493.86
508.22	503.02
508.59	512.22
508.95	521.83
509.31	531.68
509.67	541.83
510.03	552.19
510.39	562.76
510.75	573.59
511.12	584.49
511.48	595.75
511.84	607.21
512.20	618.64
512.56	630.46
512.92	642.69
513.28	655.07
513.64	667.53
514.00	680.22
514.37	693.16
514.73	706.24
515.09	719.34
515.45	732.69
515.81	746.28
516.17	760.30
516.53	774.45
516.89	788.56
517.25	802.74
517.61	817.15
517.97	831.55
518.33	845.92
518.69	860.74
519.05	875.77
519.41	890.90
519.77	906.53
520.13	922.10
520.49	937.39
520.85	952.78
521.21	968.55
521.57	984.79
521.93	1000.51
522.29	1016.86
522.65	1033.06
523.01	1049.28
523.37	1065.32
523.73	1081.45
524.09	1097.46
524.45	1113.66
524.81	1130.22
525.17	1147.02
525.53	1163.97
525.89	1180.88
526.25	1197.65
526.61	1214.00
526.97	1230.83
527.33	1247.23
527.68	1263.74
528.04	1280.27
528.40	1296.81
528.76	1313.82
529.12	1330.45
529.48	1347.32
529.84	1363.32
530.20	1379.79
530.56	1396.71
530.91	1414.01
531.27	1430.75
531.63	1447.31
531.99	1464.00
532.35	1479.98
532.71	1495.91
533.07	1512.05
533.42	1527.86
533.78	1543.88
534.14	1560.14
534.50	1575.31
534.86	1591.15
535.21	1606.23
535.57	1622.10
535.93	1637.51
536.29	1652.14
536.65	1667.22
537.00	1682.00
537.36	1697.20
537.72	1711.82
538.08	1726.14
538.44	1740.00
538.79	1753.73
539.15	1767.28
539.51	1780.94
539.87	1795.19
540.22	1808.76
540.58	1822.52
540.94	1835.80
541.29	1848.76
541.65	1861.33
542.01	1874.63
542.37	1887.03
542.72	1899.57
543.08	1911.42
543.44	1923.81
543.79	1935.12
544.15	1945.98
544.51	1957.54
544.87	1968.48
545.22	1979.32
545.58	1989.52
545.94	1999.17
546.29	2009.00
546.65	2018.82
547.01	2028.04
547.36	2036.79
547.72	2045.22
548.07	2053.02
548.43	2061.20
548.79	2069.07
549.14	2076.59
549.50	2083.88
549.86	2091.51
550.21	2098.60
550.57	2105.56
550.92	2112.05
551.28	2119.04
551.64	2126.05
551.99	2132.52
552.35	2138.69
552.70	2144.66
553.06	2150.65
553.41	2156.97
553.77	2163.06
554.13	2169.20
554.48	2175.34
554.84	2180.78
555.19	2186.07
555.55	2191.23
555.90	2195.75
556.26	2200.60
556.61	2205.46
556.97	2209.62
557.32	2213.63
557.68	2217.96
558.03	2222.40
558.39	2226.18
558.74	2230.76
559.10	2234.68
559.45	2238.21
559.81	2242.54
560.16	2246.43
560.52	2249.63
560.87	2253.06
561.23	2255.82
561.58	2258.60
561.94	2261.06
562.29	2263.32
562.64	2266.07
563.00	2268.64
563.35	2272.15
563.71	2275.39
564.06	2278.60
564.42	2281.45
564.77	2284.06
565.12	2286.33
565.48	2288.13
565.83	2290.02
566.19	2291.43
566.54	2292.28
566.89	2293.62
567.25	2294.16
567.60	2295.40
567.96	2297.06
568.31	2298.09
568.66	2299.18
569.02	2299.85
569.37	2300.28
569.72	2301.23
570.08	2301.30
570.43	2301.39
570.78	2300.90
571.14	2299.47
571.49	2298.11
571.84	2297.89
572.20	2296.75
572.55	2295.67
572.90	2294.12
573.26	2292.72
573.61	2290.93
573.96	2289.22
574.31	2286.03
574.67	2283.17
575.02	2279.62
575.37	2276.44
575.72	2272.45
576.08	2269.04
576.43	2265.64
576.78	2261.97
577.13	2258.79
577.49	2255.85
577.84	2252.42
578.19	2248.76
578.54	2244.93
578.90	2240.65
579.25	2235.17
579.60	2230.19
579.95	2225.21
580.30	2220.38
580.66	2215.31
581.01	2210.56
581.36	2205.61
581.71	2201.66
582.06	2197.08
582.42	2192.62
582.77	2187.39
583.12	2182.91
583.47	2178.14
583.82	2173.32
584.17	2168.10
584.53	2162.77
584.88	2157.06
585.23	2151.22
585.58	2145.63
585.93	2140.27
586.28	2135.62
586.63	2130.53
586.98	2125.44
587.34	2120.75
587.69	2115.80
588.04	2110.42
588.39	2104.74
588.74	2098.28
589.09	2091.95
589.44	2085.07
589.79	2079.08
590.14	2073.39
590.49	2066.89
590.84	2060.57
591.19	2054.47
591.54	2047.97
591.89	2040.39
592.25	2033.51
592.60	2026.33
592.95	2018.67
593.30	2011.30
593.65	2003.61
594.00	1996.57
594.35	1989.31
594.70	1981.31
595.05	1973.91
595.40	1966.77
595.75	1959.14
596.10	1952.86
596.45	1946.24
596.80	1940.25
597.15	1933.68
597.50	1926.46
597.85	1920.10
598.19	1913.41
598.54	1906.21
598.89	1899.68
599.24	1893.85
599.59	1887.13
599.94	1880.98
600.29	1874.63
600.64	1868.00
600.99	1860.65
601.34	1853.77
601.69	1846.94
602.04	1840.08
602.39	1832.86
602.74	1825.99
603.08	1819.28
603.43	1812.71
603.78	1805.43
604.13	1798.21
604.48	1790.87
604.83	1784.17
605.18	1777.07
605.53	1769.06
605.87	1761.07
606.22	1753.75
606.57	1745.85
606.92	1738.67
607.27	1731.46
607.62	1724.60
607.96	1717.40
608.31	1710.60
608.66	1702.94
609.01	1695.26
609.36	1687.68
609.70	1679.66
610.05	1671.57
610.40	1663.83
610.75	1655.45
611.10	1647.73
611.44	1639.38
611.79	1631.45
612.14	1622.71
612.49	1613.52
612.83	1605.23
613.18	1597.10
613.53	1589.16
613.88	1580.62
614.22	1572.31
614.57	1563.61
614.92	1555.52
615.27	1547.86
615.61	1539.57
615.96	1531.65
616.31	1524.04
616.65	1516.65
617.00	1509.16
617.35	1501.52
617.70	1493.29
618.04	1484.76
618.39	1476.53
618.74	1468.75
619.08	1460.37
619.43	1452.90
619.78	1446.06
620.12	1438.83
620.47	1431.41
620.82	1423.13
621.16	1415.74
621.51	1408.14
621.85	1400.69
622.20	1392.20
622.55	1383.93
622.89	1376.15
623.24	1368.58
623.59	1361.19
623.93	1353.58
624.28	1346.32
624.62	1338.79
624.97	1331.54
625.32	1324.87
625.66	1317.92
626.01	1310.81
626.35	1303.38
626.70	1295.56
627.04	1287.75
627.39	1280.05
627.73	1272.60
628.08	1265.70
628.43	1258.29
628.77	1250.80
629.12	1243.20
629.46	1236.15
629.81	1228.75
630.15	1221.47
630.50	1213.96
630.84	1205.85
631.19	1198.01
631.53	1190.44
631.88	1182.96
632.22	1175.38
632.57	1168.05
632.91	1160.52
633.26	1153.10
633.60	1145.80
633.95	1138.68
634.29	1131.73
634.64	1125.05
634.98	1117.77
635.32	1110.60
635.67	1104.03
636.01	1097.44
636.36	1090.66
636.70	1084.01
637.05	1077.41
637.39	1070.92
637.73	1064.47
638.08	1058.58
638.42	1052.54
638.77	1046.10
639.11	1039.35
639.45	1032.98
639.80	1026.34
640.14	1019.86
640.49	1013.39
640.83	1006.97
641.17	1000.73
641.52	994.33
641.86	987.85
642.20	981.85
642.55	975.56
642.89	969.10
643.23	962.59
643.58	956.77
643.92	950.64
644.26	944.47
644.61	938.51
644.95	932.39
645.29	925.71
645.64	919.05
645.98	912.71
646.32	906.99
646.66	900.97
647.01	895.16
647.35	889.46
647.69	883.56
648.04	878.12
648.38	872.35
648.72	866.31
649.06	860.17
649.41	854.39
649.75	848.38
650.09	842.45
650.43	836.61
650.78	830.46
651.12	824.45
651.46	818.83
651.80	813.08
652.14	807.70
652.49	802.33
652.83	797.11
653.17	791.40
653.51	785.63
653.85	780.26
654.20	774.54
654.54	768.52
654.88	762.81
655.22	756.88
655.56	751.21
655.90	745.83
656.25	740.60
656.59	735.23
656.93	730.19
657.27	725.08
657.61	719.70
657.95	714.56
658.29	709.47
658.64	704.20
658.98	698.89
659.32	693.38
659.66	688.16
660.00	682.79
660.34	677.92
660.68	672.99
661.02	667.89
661.36	663.22
661.70	658.72
662.05	654.33
662.39	650.00
662.73	645.52
663.07	641.08
663.41	636.65
663.75	632.11
664.09	627.46
664.43	623.01
664.77	618.89
665.11	614.64
665.45	610.58
665.79	606.42
666.13	602.27
666.47	598.30
666.81	594.13
667.15	590.07
667.49	586.14
667.83	582.37
668.17	578.46
668.51	574.41
668.85	570.43
669.19	566.61
669.53	562.79
669.87	558.90
670.21	555.19
670.55	551.57
670.89	548.15
671.23	544.76
671.57	541.25
671.91	537.69
672.25	534.23
672.58	530.65
672.92	527.33
673.26	524.15
673.60	520.91
673.94	517.82
674.28	514.93
674.62	512.01
674.96	508.91
675.30	505.99
675.64	503.04
675.97	500.23
676.31	497.32
676.65	494.43
676.99	491.72
677.33	488.87
677.67	486.09
678.01	483.07
678.34	480.08
678.68	477.19
679.02	474.39
679.36	471.63
679.70	468.95
680.04	466.20
680.37	463.30
680.71	460.49
681.05	457.87
681.39	455.09
681.73	452.38
682.06	449.82
682.40	447.25
682.74	444.75
683.08	442.27
683.42	439.73
683.75	437.20
684.09	434.64
684.43	432.16
684.77	429.69
685.10	427.35
685.44	425.03
685.78	422.73
686.12	420.51
686.45	418.18
686.79	415.82
687.13	413.61
687.46	411.49
687.80	409.39
688.14	407.21
688.48	405.16
688.81	402.91
689.15	400.72
689.49	398.55
689.82	396.47
690.16	394.33
690.50	392.33
690.83	390.36
691.17	388.37
691.51	386.46
691.84	384.59
692.18	382.62
692.52	380.60
692.85	378.68
693.19	376.75
693.52	374.97
693.86	373.19
694.20	371.38
694.53	369.55
694.87	367.70
695.21	365.83
695.54	364.01
695.88	362.29
696.21	360.60
696.55	358.96
696.88	357.23
697.22	355.58
697.56	353.98
697.89	352.34
698.23	350.75
698.56	349.15
698.90	347.56
699.23	345.93
699.57	344.43
699.90	342.91
700.24	341.36
700.58	339.82
700.91	338.26
701.25	336.82
701.58	335.46
701.92	334.12
702.25	332.78
702.59	331.38
702.92	330.08
703.26	328.78
703.59	327.46
703.93	326.31
704.26	325.06
704.60	323.71
704.93	322.45
705.26	321.21
705.60	320.04
705.93	318.88
706.27	317.86
706.60	316.79
706.94	315.72
707.27	314.63
707.61	313.58
707.94	312.63
708.27	311.54
708.61	310.47
708.94	309.41
709.28	308.47
709.61	307.54
709.94	306.59
710.28	305.60
710.61	304.66
710.95	303.59
711.28	302.71
711.61	301.83
711.95	300.93
712.28	300.00
712.61	299.01
712.95	298.08
713.28	297.22
713.61	296.34
713.95	295.49
714.28	294.66
714.61	293.80
714.95	292.95
715.28	292.13
715.61	291.26
715.95	290.42
716.28	289.57
716.61	288.76
716.95	287.94
717.28	287.18
717.61	286.44
717.94	285.70
718.28	284.90
718.61	284.17
718.94	283.45
719.27	282.79
719.61	282.19
719.94	281.56
720.27	280.84
720.60	280.16
720.94	279.54
721.27	278.95
721.60	278.37
721.93	277.75
722.27	277.17
722.60	276.63
722.93	276.09
723.26	275.51
723.59	274.94
723.93	274.40
724.26	273.83
724.59	273.27
724.92	272.75
725.25	272.24
725.59	271.73
725.92	271.25
726.25	270.72
726.58	270.21
726.91	269.70
727.24	269.22
727.57	268.75
727.91	268.19
728.24	267.70
728.57	267.22
728.90	266.77
729.23	266.30
729.56	265.84
729.89	265.36
730.22	264.93
730.55	264.44
730.89	263.99
731.22	263.55
731.55	263.09
731.88	262.67
732.21	262.19
732.54	261.74
732.87	261.27
733.20	260.86
733.53	260.44
733.86	260.05
734.19	259.64
734.52	259.25
734.85	258.96
735.18	258.53
735.51	258.15
735.84	257.75
736.17	257.40
736.50	257.00
736.83	256.78
737.16	256.42
737.49	256.09
737.82	255.74
738.15	255.38
738.48	255.03
738.81	254.70
739.14	254.41
739.47	254.07
739.80	253.76
740.13	253.47
740.46	253.14
740.79	252.80
741.12	252.46
741.45	252.13
741.78	251.75
742.11	251.48
742.44	251.12
742.77	250.83
743.10	250.49
743.43	250.18
743.75	249.79
744.08	249.64
744.41	249.35
744.74	249.07
745.07	248.80
745.40	248.55
745.73	248.31
746.06	248.02
746.39	247.76
746.71	247.53
747.04	247.26
747.37	247.01
747.70	246.79
748.03	246.59
748.36	246.34
748.68	246.11
749.01	245.85
749.34	245.64
749.67	245.43
750.00	245.20
750.33	245.04
750.65	244.80
750.98	244.44
751.31	244.22
751.64	244.02
751.97	243.86
752.29	243.67
752.62	243.40
752.95	243.21
753.28	243.01
753.60	242.78
753.93	242.59
754.26	242.40
754.59	242.18
754.91	241.98
755.24	241.81
755.57	241.63
755.90	241.47
756.22	241.30
756.55	241.08
756.88	240.93
757.20	240.70
757.53	240.54
757.86	240.39
758.19	240.24
758.51	240.08
758.84	239.88
759.17	239.70
759.49	239.56
759.82	239.47
760.15	239.31
760.47	239.19
760.80	239.05
761.13	238.91
761.45	238.78
761.78	238.62
762.11	238.50
762.43	238.34
762.76	238.20
763.08	238.04
763.41	237.93
763.74	237.78
764.06	237.63
764.39	237.51
764.71	237.38
765.04	237.24
765.37	237.09
765.69	236.98
766.02	236.86
766.34	236.72
766.67	236.54
767.00	236.47
767.32	236.39
767.65	236.28
767.97	236.19
768.30	236.08
768.62	235.97
768.95	235.85
769.27	235.75
769.60	235.65
769.92	235.55
770.25	235.46
770.57	235.36
770.90	235.28
771.22	235.16
771.55	235.07
771.87	235.00
772.20	234.90
772.52	234.87
772.85	234.91
773.17	234.83
773.50	234.74
773.82	234.60
774.15	234.47
774.47	234.35
774.80	234.22
775.12	234.12
775.45	234.05
775.77	233.94
776.09	233.89
776.42	233.80
776.74	233.75
777.07	233.64
777.39	233.56
777.72	233.46
778.04	233.40
778.36	233.31
778.69	233.22
779.01	233.15
779.33	232.99
779.66	232.80
779.98	232.70
780.31	232.63
780.63	232.61
780.95	232.54
781.28	232.46
781.60	232.40
781.92	232.32
782.25	232.23
782.57	232.22
782.89	232.17
783.22	232.09
783.54	232.00
783.86	231.94
784.19	231.87
784.51	231.85
784.83	231.79
785.16	231.73
785.48	231.66
785.80	231.62
786.12	231.60
786.45	231.54
786.77	231.50
787.09	231.43
787.42	231.36
787.74	231.31
788.06	231.27
788.38	231.20
788.71	231.17
789.03	231.16
789.35	231.10
789.67	231.04
789.99	231.01
790.32	230.96
790.64	230.93
790.96	230.96
791.28	230.89
791.61	230.85
791.93	230.82
792.25	230.84
792.57	230.83
792.89	230.77
793.21	230.78
793.54	230.74
793.86	230.70
794.18	230.63
794.50	230.61
794.82	230.59
795.14	230.59
795.47	230.55
795.79	230.51
796.11	230.47
796.43	230.41
796.75	230.37
797.07	230.34
797.39	230.30
797.71	230.23
798.04	230.20
798.36	230.19
798.68	230.13
799.00	230.06
799.32	229.99
799.64	230.00
799.96	229.95
800.28	229.95
800.60	229.90
800.92	229.91
801.24	229.83
801.56	229.81
801.89	229.77
802.21	229.77
802.53	229.72
802.85	229.71
803.17	229.74
803.49	229.70
803.81	229.70
804.13	229.66
804.45	229.63
804.77	229.61
805.09	229.56
805.41	229.54
805.73	229.49
806.05	229.46
806.37	229.43
806.69	229.37
807.01	229.31
807.33	229.32
807.65	229.26
807.97	229.29
808.28	229.23
808.60	229.22
808.92	229.16
809.24	229.21
809.56	229.16
809.88	229.09
810.20	229.08
810.52	229.04
810.84	229.03
811.16	228.99
811.48	228.99
811.80	228.99
812.12	228.98
812.43	229.02
812.75	228.99
813.07	228.97
813.39	228.97
813.71	228.94
814.03	228.92
814.35	228.91
814.67	228.86
814.98	228.83
815.30	228.75
815.62	228.73
815.94	228.61
816.26	228.63
816.58	228.58
816.89	228.54
817.21	228.53
817.53	228.46
817.85	228.48
818.17	228.41
818.48	228.34
818.80	228.33
819.12	228.28
819.44	228.27
819.76	228.21
820.07	228.18
820.39	228.18
820.71	228.15
821.03	228.12
821.34	228.11
821.66	228.13
821.98	228.17
822.30	228.15
822.61	228.20
822.93	228.14
823.25	228.15
823.57	228.13
823.88	228.11
824.20	228.13
824.52	228.10
824.83	228.09
825.15	228.06
825.47	228.06
825.79	228.05
826.10	228.03
826.42	228.02
826.74	228.01
827.05	227.97
827.37	227.97
827.69	227.96
828.00	227.92
828.32	227.91
828.64	227.87
828.95	227.93
829.27	227.90
829.58	227.88
829.90	227.90
830.22	227.92
830.53	227.91
830.85	227.89
831.17	227.85
831.48	227.85
831.80	227.88
832.11	227.85
832.43	227.84
832.75	227.83
833.06	227.89
833.38	227.85
833.69	227.84
834.01	227.85
834.32	227.79
834.64	227.79
834.96	227.77
835.27	227.78
835.59	227.75
835.90	227.73
836.22	227.74
836.53	227.67
836.85	227.67
837.16	227.77
837.48	227.78
837.79	227.85
838.11	227.84
838.42	227.81
838.74	227.81
839.05	227.79
839.37	227.77
839.68	227.73
840.00	227.73
840.31	227.74
840.63	227.75
840.94	227.79
841.26	227.79
841.57	227.81
841.88	227.81
842.20	227.77
842.51	227.77
842.83	227.78
843.14	227.89
843.46	227.91
843.77	227.84
844.08	227.82
844.40	227.78
844.71	227.79
845.03	227.79
845.34	227.78
845.65	227.78
845.97	227.79
846.28	227.80
846.60	227.83
846.91	227.83
847.22	227.81
847.54	227.83
847.85	227.82
848.16	227.81
848.48	227.80
848.79	227.82
849.10	227.82
849.42	227.82
849.73	227.71
850.04	227.66
850.36	227.62
850.67	227.64
850.98	227.62
851.30	227.60
851.61	227.63
851.92	227.63
852.23	227.66
852.55	227.65
852.86	227.61
853.17	227.62
853.49	227.61
853.80	227.63
854.11	227.61
854.42	227.60
854.74	227.60
855.05	227.57
855.36	227.57
855.67	227.56
855.99	227.53
856.30	227.63
856.61	227.61
856.92	227.62
857.23	227.62
857.55	227.59
857.86	227.55
858.17	227.53
858.48	227.53
858.79	227.53
859.11	227.53
859.42	227.51
859.73	227.44
860.04	227.43
860.35	227.40
860.66	227.38
860.98	227.36
861.29	227.36
861.60	227.35
861.91	227.31
862.22	227.31
862.53	227.28
862.84	227.17
863.16	227.22
863.47	227.18
863.78	227.13
864.09	227.17
864.40	227.21
864.71	227.21
865.02	227.20
865.33	227.16
865.64	227.17
865.95	227.21
866.27	227.26
866.58	227.24
866.89	227.27
867.20	227.25
867.51	227.23
867.82	227.20
868.13	227.23
868.44	227.21
868.75	227.22
869.06	227.25
869.37	227.26
869.68	227.21
869.99	227.26
870.30	227.27
870.61	227.24
870.92	227.21
871.23	227.22
871.54	227.19
871.85	227.18
872.16	227.16
872.47	227.13
872.78	227.10
873.09	227.07
873.40	227.04
873.71	227.08
874.02	227.11
874.33	227.12
874.64	227.15
874.95	227.15
875.26	227.13
875.56	227.09
875.87	227.09
876.18	227.10
876.49	227.16
876.80	227.16
877.11	227.14
877.42	227.13
877.73	227.13
878.04	227.13
878.35	227.15
878.66	227.17
878.96	227.16
879.27	227.17
879.58	227.19
879.89	227.19
880.20	227.21
880.51	227.18
880.82	227.17
881.12	227.12
881.43	227.10
881.74	227.10
882.05	227.09
882.36	227.08
882.67	227.03
882.97	226.91
883.28	226.92
883.59	226.94
883.90	226.95
884.21	226.93
884.51	226.90
884.82	226.86
885.13	226.88
885.44	226.89
885.74	226.89
886.05	226.88
886.36	226.83
886.67	226.78
886.98	226.83
887.28	226.82
887.59	226.86
887.90	226.85
888.20	226.83
888.51	226.85
888.82	226.82
889.13	226.87
889.43	226.92
889.74	226.90
890.05	226.90
890.35	226.91
890.66	226.92
890.97	226.91
891.28	226.91
891.58	226.89
891.89	226.88
892.20	226.87
892.50	226.86
892.81	226.89
893.12	226.89
893.42	226.82
893.73	226.84
894.04	226.80
894.34	226.84
894.65	226.85
894.95	226.85
895.26	226.87
895.57	226.90
895.87	226.85
896.18	226.86
896.48	226.86
896.79	226.84
897.10	226.83
897.40	226.88
897.71	226.91
898.01	226.90
898.32	226.90
898.63	226.85
898.93	226.86
899.24	226.86
899.54	226.86
899.85	226.86
900.15	226.84
900.46	226.83
900.76	226.82
901.07	226.81
901.38	226.83
901.68	226.84
901.99	226.80
902.29	226.83
902.60	226.83
902.90	226.81
903.21	226.81
903.51	226.84
903.82	226.85
904.12	226.81
904.43	226.80
904.73	226.79
905.03	226.81
905.34	226.91
905.64	226.93
905.95	226.93
906.25	226.95
906.56	226.96
906.86	227.01
907.17	227.01
907.47	227.03
907.77	227.01
908.08	226.99
908.38	226.97
908.69	226.96
908.99	226.97
909.30	227.00
909.60	227.01
909.90	226.98
910.21	226.96
910.51	226.96
910.81	226.97
911.12	226.98
911.42	227.02
911.73	226.93
912.03	226.93
912.33	226.95
912.64	226.95
912.94	226.96
913.24	226.92
913.55	226.92
913.85	226.88
914.15	226.93
914.46	226.93
914.76	226.93
915.06	226.90
915.37	226.90
915.67	226.87
915.97	226.86
916.27	226.85
916.58	226.85
916.88	226.90
917.18	226.88
917.49	226.95
917.79	226.93
918.09	226.93
918.39	226.95
918.70	226.95
919.00	226.96
919.30	226.98
919.60	226.95
919.91	226.95
920.21	226.96
920.51	226.95
920.81	226.95
921.12	226.98
921.42	226.99
921.72	226.99
922.02	227.01
922.32	227.03
922.63	227.01
922.93	227.05
923.23	227.03
923.53	227.04
923.83	226.96
924.13	226.96
924.44	226.97
924.74	226.96
925.04	226.97
925.34	226.94
925.64	226.91
925.94	226.92
926.24	226.96
926.55	226.93
926.85	226.89
927.15	226.87
927.45	226.85
927.75	226.85
928.05	226.86
928.35	226.86
928.65	226.87
928.95	226.88
929.26	226.86
929.56	226.88
929.86	226.89
930.16	226.88
930.46	226.87
930.76	226.86
931.06	226.80
931.36	226.77
931.66	226.79
931.96	226.79
932.26	226.77
932.56	226.72
932.86	226.77
933.16	226.79
933.46	226.78
933.76	226.78
934.06	226.80
934.36	226.83
934.66	226.80
934.96	226.78
935.26	226.79
935.56	226.80
935.86	226.72
936.16	226.68
936.46	226.66
936.76	226.62
937.06	226.61
937.36	226.64
937.66	226.65
937.96	226.61
938.26	226.58
938.56	226.58
938.86	226.60
939.16	226.61
939.46	226.58
939.76	226.57
940.06	226.58
940.35	226.55
940.65	226.49
940.95	226.51
941.25	226.48
941.55	226.48
941.85	226.47
942.15	226.53
942.45	226.55
942.75	226.57
943.04	226.61
943.34	226.66
943.64	226.67
943.94	226.63
944.24	226.68
944.54	226.72
944.84	226.71
945.13	226.68
945.43	226.65
945.73	226.69
946.03	226.71
946.33	226.73
946.62	226.73
946.92	226.73
947.22	226.72
947.52	226.75
947.82	226.79
948.11	226.77
948.41	226.78
948.71	226.78
949.01	226.78
949.31	226.76
949.60	226.76
949.90	226.79
950.20	226.82
950.50	226.81
950.79	226.81
951.09	226.85
951.39	226.90
951.69	226.91
951.98	226.94
952.28	226.95
952.58	226.92
952.87	226.94
953.17	226.96
953.47	226.98
953.76	226.98
954.06	226.96
954.36	226.98
954.66	226.97
954.95	227.00
955.25	227.03
955.55	227.05
955.84	226.98
956.14	226.97
956.44	226.98
956.73	226.97
957.03	226.97
957.32	226.96
957.62	226.91
957.92	226.91
958.21	226.88
958.51	226.97
958.81	227.01
959.10	227.01
959.40	227.02
959.69	226.98
959.99	227.02
960.29	227.01
960.58	226.97
960.88	227.04
961.17	227.00
961.47	226.98
961.76	226.98
962.06	227.04
962.36	227.00
962.65	226.98
962.95	226.99
963.24	226.97
963.54	226.97
963.83	227.00
964.13	227.01
964.42	226.96
964.72	226.87
965.01	226.81
965.31	226.83
965.60	226.83
965.90	226.89
966.19	226.85
966.49	226.83
966.78	226.82
967.08	226.75
967.37	226.75
967.67	226.75
967.96	226.75
968.26	226.71
968.55	226.74
968.85	226.75
969.14	226.75
969.43	226.73
969.73	226.71
970.02	226.70
970.32	226.68
970.61	226.68
970.91	226.67
971.20	226.68
971.49	226.63
971.79	226.61
972.08	226.54
972.38	226.56
972.67	226.58
972.96	226.59
973.26	226.57
973.55	226.57
973.85	226.54
974.14	226.55
974.43	226.56
974.73	226.52
975.02	226.51
975.31	226.50
975.61	226.49
975.90	226.47
976.19	226.47
976.49	226.46
976.78	226.48
977.07	226.49
977.37	226.48
977.66	226.52
977.95	226.53
978.24	226.56
978.54	226.57
978.83	226.55
979.12	226.56
979.42	226.54
979.71	226.58
980.00	226.56
980.29	226.57
980.59	226.55
980.88	226.60
981.17	226.61
981.46	226.61
981.76	226.61
982.05	226.66
982.34	226.68
982.63	226.69
982.93	226.66
983.22	226.72
983.51	226.72
983.80	226.70
984.09	226.71
984.39	226.67
984.68	226.66
984.97	226.65
985.26	226.66
985.55	226.66
985.85	226.62
986.14	226.67
986.43	226.68
986.72	226.69
987.01	226.66
987.30	226.68
987.59	226.68
987.89	226.69
988.18	226.66
988.47	226.64
988.76	226.64
989.05	226.63
989.34	226.59
989.63	226.64
989.92	226.67
990.22	226.64
990.51	226.67
990.80	226.65
991.09	226.67
991.38	226.68
991.67	226.70
991.96	226.69
992.25	226.69
992.54	226.66
992.83	226.63
993.12	226.63
993.41	226.62
993.70	226.63
993.99	226.67
994.28	226.67
994.58	226.70
994.87	226.68
995.16	226.71
995.45	226.71
995.74	226.65
996.03	226.62
996.32	226.63
996.61	226.63
996.90	226.63
997.19	226.63
997.48	226.61
997.77	226.61
998.06	226.62
998.34	226.59
998.63	226.59
998.92	226.63
999.21	226.63
999.50	226.65
999.79	226.65
1000.08	226.61
1000.37	226.60
1000.66	226.56
1000.95	226.58
1001.24	226.59
1001.53	226.60
1001.82	226.60
1002.11	226.57
1002.40	226.59
1002.68	226.57
1002.97	226.63
1003.26	226.60
1003.55	226.59
1003.84	226.59
1004.13	226.60
1004.42	226.60
1004.71	226.59
1004.99	226.54
1005.28	226.54
1005.57	226.52
1005.86	226.48
1006.15	226.52
1006.44	226.52
1006.72	226.54
1007.01	226.52
1007.30	226.51
1007.59	226.49
1007.88	226.49
1008.17	226.50
1008.45	226.48
1008.74	226.48
1009.03	226.40
1009.32	226.40
1009.60	226.40
1009.89	226.41
1010.18	226.36
1010.47	226.37
1010.76	226.37
1011.04	226.40
1011.33	226.41
1011.62	226.41
1011.91	226.41
1012.19	226.43
1012.48	226.43
1012.77	226.44
1013.05	226.48
1013.34	226.49
1013.63	226.49
1013.92	226.53
1014.20	226.55
1014.49	226.55
1014.78	226.56
1015.06	226.57
1015.35	226.58
1015.64	226.59
1015.92	226.60
1016.21	226.66
1016.50	226.66
1016.78	226.69
1017.07	226.68
1017.36	226.68
1017.64	226.68
1017.93	226.72
1018.22	226.68
1018.50	226.67
1018.79	226.70
1019.08	226.68
1019.36	226.68
1019.65	226.66
1019.93	226.66
1020.22	226.67
1020.51	226.74
1020.79	226.73
1021.08	226.52
1021.36	226.58
1021.65	227.17
1021.94	227.06
1022.22	226.44
1022.51	226.40
1022.79	226.85
1023.08	226.85
1023.36	228.05
1023.65	226.48
>>>>>End Processed Spectral Data<<<<<
