SpectraSuite Data File
++++++++++++++++++++++++++++++++++++
Date: Fri Feb 01 18:02:58 EST 2013
User: group
Dark Spectrum Present: No
Reference Spectrum Present: No
Number of Sampled Component Spectra: 1
Spectrometers: USB2E7196
Integration Time (usec): 35000 (USB2E7196)
Spectra Averaged: 100 (USB2E7196)
Boxcar Smoothing: 10 (USB2E7196)
Correct for Electrical Dark: No (USB2E7196)
Strobe/Lamp Enabled: No (USB2E7196)
Correct for Detector Non-linearity: No (USB2E7196)
Correct for Stray Light: No (USB2E7196)
Number of Pixels in Processed Spectrum: 2048
>>>>>Begin Processed Spectral Data<<<<<
339.09	0.00
339.48	212.48
339.86	214.11
340.24	215.69
340.63	217.25
341.01	219.64
341.39	219.97
341.78	221.07
342.16	222.45
342.54	222.76
342.93	211.31
343.31	221.97
343.69	222.53
344.07	223.03
344.46	223.46
344.84	223.87
345.22	224.08
345.60	224.32
345.99	224.51
346.37	224.63
346.75	224.73
347.13	224.79
347.52	224.84
347.90	224.92
348.28	224.97
348.66	225.02
349.05	225.02
349.43	225.08
349.81	225.14
350.19	225.16
350.57	225.22
350.96	225.26
351.34	225.34
351.72	225.44
352.10	225.51
352.48	225.59
352.87	225.60
353.25	225.71
353.63	225.79
354.01	225.89
354.39	225.97
354.77	226.05
355.15	226.16
355.54	226.21
355.92	226.24
356.30	226.31
356.68	226.45
357.06	226.51
357.44	226.56
357.82	226.59
358.20	226.69
358.58	226.78
358.97	226.87
359.35	226.95
359.73	227.01
360.11	227.08
360.49	227.16
360.87	227.21
361.25	227.26
361.63	227.32
362.01	227.35
362.39	227.38
362.77	227.46
363.15	227.47
363.53	227.51
363.91	227.55
364.29	227.58
364.67	227.50
365.05	227.51
365.43	227.55
365.81	227.59
366.19	227.60
366.57	227.65
366.95	227.61
367.33	227.62
367.71	227.62
368.09	227.58
368.47	227.54
368.85	227.52
369.23	227.51
369.61	227.43
369.99	227.42
370.37	227.41
370.75	227.38
371.13	227.35
371.51	227.27
371.89	227.24
372.27	227.20
372.65	227.19
373.03	227.18
373.41	227.13
373.78	227.08
374.16	227.00
374.54	226.90
374.92	226.87
375.30	226.79
375.68	226.72
376.06	226.72
376.44	226.64
376.82	226.60
377.19	226.58
377.57	226.53
377.95	226.44
378.33	226.39
378.71	226.28
379.09	226.21
379.47	226.20
379.84	226.13
380.22	226.04
380.60	225.96
380.98	225.88
381.36	225.82
381.73	225.76
382.11	225.71
382.49	225.68
382.87	225.58
383.25	225.55
383.62	225.63
384.00	225.53
384.38	225.51
384.76	225.48
385.13	225.45
385.51	225.42
385.89	225.37
386.27	225.33
386.64	225.30
387.02	225.27
387.40	225.22
387.78	225.19
388.15	225.18
388.53	225.13
388.91	225.10
389.29	225.06
389.66	225.05
390.04	225.03
390.42	225.01
390.79	225.01
391.17	224.99
391.55	224.83
391.92	224.85
392.30	224.84
392.68	224.84
393.05	224.83
393.43	224.82
393.81	224.84
394.18	224.80
394.56	224.79
394.94	224.85
395.31	224.84
395.69	224.90
396.06	224.94
396.44	224.97
396.82	225.00
397.19	225.10
397.57	225.12
397.95	225.16
398.32	225.17
398.70	225.23
399.07	225.27
399.45	225.33
399.82	225.37
400.20	225.42
400.58	225.47
400.95	225.48
401.33	225.59
401.70	225.75
402.08	225.84
402.45	225.95
402.83	226.04
403.20	226.16
403.58	226.20
403.95	226.35
404.33	226.48
404.71	226.63
405.08	226.80
405.46	226.98
405.83	227.15
406.21	227.27
406.58	227.45
406.96	227.66
407.33	227.85
407.70	228.10
408.08	228.42
408.45	228.67
408.83	228.97
409.20	229.22
409.58	229.43
409.95	229.75
410.33	230.10
410.70	230.40
411.08	230.79
411.45	231.21
411.82	231.58
412.20	232.04
412.57	232.53
412.95	232.92
413.32	233.38
413.69	233.91
414.07	234.53
414.44	235.17
414.82	235.82
415.19	236.54
415.56	237.28
415.94	237.98
416.31	238.83
416.68	239.68
417.06	240.65
417.43	241.55
417.81	242.61
418.18	243.66
418.55	244.79
418.93	245.96
419.30	247.14
419.67	248.38
420.04	249.66
420.42	251.01
420.79	252.61
421.16	254.19
421.54	255.78
421.91	257.41
422.28	259.07
422.66	260.86
423.03	262.62
423.40	264.43
423.77	266.38
424.15	268.34
424.52	270.34
424.89	272.48
425.26	274.60
425.64	276.58
426.01	278.71
426.38	280.94
426.75	283.20
427.13	285.58
427.50	288.07
427.87	290.63
428.24	293.19
428.61	295.58
428.99	298.20
429.36	301.10
429.73	303.90
430.10	306.67
430.47	309.50
430.85	312.42
431.22	315.46
431.59	318.65
431.96	321.74
432.33	325.09
432.70	328.35
433.08	332.18
433.45	335.75
433.82	339.29
434.19	343.25
434.56	347.07
434.93	350.67
435.30	354.19
435.68	358.14
436.05	361.95
436.42	365.73
436.79	369.18
437.16	372.82
437.53	376.71
437.90	380.52
438.27	384.23
438.64	388.01
439.01	391.53
439.38	394.60
439.75	397.49
440.13	400.92
440.50	404.10
440.87	406.58
441.24	409.24
441.61	412.21
441.98	414.19
442.35	416.66
442.72	419.17
443.09	421.67
443.46	423.00
443.83	423.83
444.20	424.56
444.57	425.71
444.94	426.09
445.31	426.52
445.68	427.00
446.05	427.09
446.42	426.62
446.79	426.00
447.16	425.42
447.53	425.02
447.90	423.40
448.27	421.83
448.64	419.68
449.01	418.13
449.37	415.46
449.74	412.92
450.11	409.83
450.48	406.51
450.85	403.06
451.22	400.13
451.59	397.34
451.96	394.69
452.33	391.17
452.70	387.98
453.07	384.15
453.43	380.21
453.80	376.47
454.17	372.84
454.54	369.41
454.91	365.72
455.28	362.07
455.65	358.77
456.02	355.41
456.38	352.47
456.75	348.82
457.12	345.73
457.49	342.69
457.86	339.74
458.23	337.20
458.59	334.42
458.96	331.58
459.33	329.08
459.70	326.53
460.07	324.45
460.43	322.13
460.80	319.88
461.17	317.92
461.54	315.86
461.91	313.88
462.27	311.92
462.64	310.18
463.01	308.30
463.38	306.50
463.74	304.65
464.11	303.05
464.48	301.63
464.85	300.16
465.21	298.98
465.58	297.72
465.95	296.20
466.32	294.93
466.68	293.74
467.05	292.51
467.42	291.28
467.78	290.03
468.15	288.81
468.52	287.91
468.88	286.69
469.25	285.65
469.62	284.82
469.98	283.91
470.35	283.04
470.72	282.24
471.08	281.34
471.45	280.59
471.82	279.88
472.18	279.05
472.55	278.42
472.92	277.67
473.28	277.01
473.65	276.38
474.02	275.76
474.38	275.18
474.75	274.72
475.11	274.24
475.48	273.80
475.85	273.45
476.21	273.06
476.58	272.81
476.94	272.55
477.31	272.23
477.67	271.93
478.04	271.76
478.41	271.59
478.77	271.52
479.14	271.37
479.50	271.29
479.87	271.31
480.23	271.36
480.60	271.36
480.96	271.37
481.33	271.56
481.69	271.70
482.06	271.88
482.42	272.01
482.79	272.23
483.15	272.54
483.52	272.87
483.88	273.22
484.25	273.56
484.61	273.95
484.98	274.40
485.34	274.96
485.71	275.52
486.07	276.13
486.44	276.71
486.80	277.46
487.17	278.19
487.53	279.05
487.90	279.93
488.26	280.91
488.62	281.96
488.99	282.93
489.35	284.09
489.72	285.28
490.08	286.55
490.44	287.86
490.81	289.27
491.17	290.68
491.54	292.22
491.90	293.80
492.26	295.57
492.63	297.41
492.99	299.31
493.36	301.32
493.72	303.51
494.08	305.76
494.45	308.10
494.81	310.61
495.17	313.16
495.54	315.82
495.90	318.67
496.26	321.66
496.63	324.80
496.99	328.03
497.35	331.39
497.72	335.05
498.08	338.74
498.44	342.63
498.80	346.79
499.17	351.10
499.53	355.59
499.89	360.26
500.26	365.04
500.62	370.01
500.98	375.26
501.34	380.59
501.71	386.27
502.07	392.13
502.43	398.09
502.79	404.23
503.16	410.72
503.52	417.37
503.88	424.13
504.24	431.22
504.60	438.51
504.97	446.16
505.33	453.91
505.69	462.15
506.05	470.45
506.41	478.84
506.78	487.51
507.14	496.48
507.50	505.66
507.86	515.21
508.22	524.97
508.59	534.79
508.95	545.01
509.31	555.42
509.67	566.13
510.03	577.13
510.39	588.51
510.75	600.06
511.12	611.77
511.48	623.90
511.84	636.24
512.20	648.64
512.56	661.47
512.92	674.50
513.28	687.75
513.64	701.19
514.00	714.93
514.37	728.84
514.73	742.89
515.09	756.94
515.45	771.36
515.81	786.10
516.17	801.18
516.53	816.53
516.89	831.89
517.25	847.28
517.61	862.92
517.97	878.54
518.33	894.14
518.69	910.14
519.05	926.44
519.41	942.90
519.77	959.84
520.13	976.67
520.49	993.50
520.85	1010.27
521.21	1027.28
521.57	1044.98
521.93	1062.24
522.29	1080.19
522.65	1098.13
523.01	1115.90
523.37	1133.56
523.73	1151.34
524.09	1169.03
524.45	1187.05
524.81	1205.46
525.17	1224.09
525.53	1242.78
525.89	1261.45
526.25	1280.09
526.61	1298.25
526.97	1316.75
527.33	1334.92
527.68	1353.26
528.04	1371.70
528.40	1390.10
528.76	1409.14
529.12	1427.61
529.48	1446.50
529.84	1464.28
530.20	1482.81
530.56	1501.79
530.91	1521.19
531.27	1540.01
531.63	1558.47
531.99	1577.09
532.35	1595.08
532.71	1612.93
533.07	1631.22
533.42	1649.26
533.78	1667.59
534.14	1686.04
534.50	1703.44
534.86	1721.58
535.21	1738.93
535.57	1756.97
535.93	1774.70
536.29	1791.73
536.65	1809.03
537.00	1825.83
537.36	1843.61
537.72	1860.30
538.08	1876.97
538.44	1893.00
538.79	1909.10
539.15	1924.80
539.51	1940.65
539.87	1957.21
540.22	1973.29
540.58	1989.39
540.94	2004.81
541.29	2019.77
541.65	2034.75
542.01	2050.35
542.37	2065.00
542.72	2079.59
543.08	2093.64
543.44	2108.38
543.79	2121.81
544.15	2134.92
544.51	2148.91
544.87	2161.94
545.22	2175.09
545.58	2187.48
545.94	2199.23
546.29	2211.35
546.65	2223.61
547.01	2235.12
547.36	2246.12
547.72	2256.64
548.07	2266.47
548.43	2276.82
548.79	2286.95
549.14	2296.54
549.50	2305.84
549.86	2315.64
550.21	2325.08
550.57	2334.29
550.92	2342.90
551.28	2352.07
551.64	2361.35
551.99	2369.81
552.35	2377.98
552.70	2386.06
553.06	2393.97
553.41	2402.48
553.77	2410.41
554.13	2418.33
554.48	2426.53
554.84	2433.86
555.19	2440.88
555.55	2448.04
555.90	2454.31
556.26	2460.94
556.61	2467.37
556.97	2473.53
557.32	2479.19
557.68	2485.02
558.03	2491.02
558.39	2496.22
558.74	2502.50
559.10	2507.91
559.45	2513.23
559.81	2519.11
560.16	2524.61
560.52	2529.47
560.87	2534.15
561.23	2538.10
561.58	2542.43
561.94	2546.12
562.29	2549.65
562.64	2553.85
563.00	2557.67
563.35	2562.50
563.71	2567.10
564.06	2571.58
564.42	2575.76
564.77	2579.61
565.12	2583.39
565.48	2586.38
565.83	2589.56
566.19	2592.07
566.54	2593.83
566.89	2596.10
567.25	2597.75
567.60	2599.96
567.96	2602.78
568.31	2604.74
568.66	2607.02
569.02	2608.42
569.37	2609.65
569.72	2611.44
570.08	2612.38
570.43	2613.14
570.78	2613.36
571.14	2612.37
571.49	2611.53
571.84	2611.87
572.20	2611.46
572.55	2610.79
572.90	2609.73
573.26	2608.78
573.61	2607.39
573.96	2606.35
574.31	2603.55
574.67	2600.81
575.02	2597.32
575.37	2593.89
575.72	2590.38
576.08	2586.94
576.43	2583.89
576.78	2580.50
577.13	2577.50
577.49	2574.41
577.84	2570.99
578.19	2567.22
578.54	2563.76
578.90	2559.51
579.25	2553.54
579.60	2548.22
579.95	2542.86
580.30	2537.56
580.66	2532.11
581.01	2526.72
581.36	2521.39
581.71	2517.02
582.06	2512.53
582.42	2507.77
582.77	2502.16
583.12	2497.13
583.47	2492.30
583.82	2486.94
584.17	2481.25
584.53	2475.34
584.88	2469.24
585.23	2463.10
585.58	2457.19
585.93	2451.02
586.28	2445.79
586.63	2440.42
586.98	2434.84
587.34	2429.69
587.69	2424.24
588.04	2418.45
588.39	2412.31
588.74	2405.03
589.09	2398.14
589.44	2390.39
589.79	2383.57
590.14	2377.46
590.49	2370.18
590.84	2362.83
591.19	2356.12
591.54	2348.79
591.89	2340.48
592.25	2332.76
592.60	2324.52
592.95	2316.02
593.30	2307.79
593.65	2299.26
594.00	2291.07
594.35	2282.89
594.70	2273.71
595.05	2265.75
595.40	2257.51
595.75	2248.87
596.10	2241.88
596.45	2234.29
596.80	2227.25
597.15	2219.75
597.50	2211.78
597.85	2204.20
598.19	2196.65
598.54	2188.52
598.89	2180.72
599.24	2173.88
599.59	2166.31
599.94	2159.20
600.29	2151.80
600.64	2143.99
600.99	2135.37
601.34	2127.47
601.69	2119.34
602.04	2111.52
602.39	2102.88
602.74	2094.84
603.08	2087.14
603.43	2079.18
603.78	2070.62
604.13	2062.21
604.48	2053.91
604.83	2045.66
605.18	2037.64
605.53	2028.32
605.87	2018.98
606.22	2010.61
606.57	2001.30
606.92	1992.62
607.27	1984.23
607.62	1976.17
607.96	1967.83
608.31	1960.25
608.66	1951.56
609.01	1942.89
609.36	1934.07
609.70	1924.70
610.05	1915.40
610.40	1906.31
610.75	1896.64
611.10	1887.60
611.44	1877.69
611.79	1868.19
612.14	1858.13
612.49	1847.37
612.83	1837.53
613.18	1827.91
613.53	1818.36
613.88	1808.18
614.22	1798.47
614.57	1788.13
614.92	1778.63
615.27	1769.72
615.61	1759.86
615.96	1750.22
616.31	1741.03
616.65	1732.27
617.00	1723.36
617.35	1714.09
617.70	1704.34
618.04	1694.38
618.39	1684.70
618.74	1675.82
619.08	1666.00
619.43	1656.94
619.78	1648.72
620.12	1640.29
620.47	1631.38
620.82	1621.76
621.16	1612.94
621.51	1603.83
621.85	1594.78
622.20	1584.88
622.55	1574.95
622.89	1565.67
623.24	1556.56
623.59	1547.74
623.93	1538.89
624.28	1530.35
624.62	1521.57
624.97	1513.16
625.32	1505.04
625.66	1496.76
626.01	1488.15
626.35	1479.49
626.70	1470.37
627.04	1461.27
627.39	1452.00
627.73	1443.27
628.08	1435.13
628.43	1426.80
628.77	1418.23
629.12	1409.42
629.46	1400.92
629.81	1392.17
630.15	1383.56
630.50	1374.89
630.84	1365.29
631.19	1355.86
631.53	1346.95
631.88	1337.91
632.22	1328.95
632.57	1320.31
632.91	1311.40
633.26	1302.77
633.60	1293.91
633.95	1285.46
634.29	1277.03
634.64	1269.09
634.98	1260.44
635.32	1251.98
635.67	1244.10
636.01	1236.33
636.36	1228.48
636.70	1220.72
637.05	1213.01
637.39	1205.53
637.73	1197.98
638.08	1191.11
638.42	1184.03
638.77	1176.49
639.11	1168.94
639.45	1161.40
639.80	1153.63
640.14	1146.25
640.49	1138.60
640.83	1131.30
641.17	1124.02
641.52	1116.67
641.86	1109.23
642.20	1102.40
642.55	1094.93
642.89	1087.37
643.23	1079.65
643.58	1072.85
643.92	1065.61
644.26	1058.47
644.61	1051.35
644.95	1044.34
645.29	1036.71
645.64	1028.90
645.98	1021.47
646.32	1014.62
646.66	1007.57
647.01	1000.83
647.35	994.13
647.69	987.28
648.04	980.79
648.38	974.12
648.72	967.33
649.06	960.32
649.41	953.47
649.75	946.66
650.09	939.82
650.43	933.13
650.78	925.99
651.12	919.11
651.46	912.51
651.80	905.92
652.14	899.58
652.49	893.27
652.83	887.23
653.17	880.77
653.51	874.18
653.85	867.86
654.20	861.37
654.54	854.31
654.88	847.63
655.22	840.75
655.56	834.12
655.90	827.71
656.25	821.64
656.59	815.38
656.93	809.52
657.27	803.49
657.61	797.24
657.95	791.36
658.29	785.42
658.64	779.36
658.98	773.15
659.32	766.86
659.66	760.82
660.00	754.68
660.34	748.93
660.68	743.13
661.02	737.37
661.36	731.88
661.70	726.65
662.05	721.66
662.39	716.76
662.73	711.57
663.07	706.51
663.41	701.34
663.75	696.10
664.09	690.75
664.43	685.71
664.77	680.93
665.11	675.94
665.45	671.18
665.79	666.40
666.13	661.73
666.47	656.91
666.81	652.14
667.15	647.44
667.49	642.81
667.83	638.47
668.17	633.90
668.51	629.25
668.85	624.58
669.19	620.11
669.53	615.63
669.87	611.22
670.21	606.84
670.55	602.56
670.89	598.64
671.23	594.67
671.57	590.55
671.91	586.44
672.25	582.37
672.58	578.31
672.92	574.33
673.26	570.48
673.60	566.86
673.94	563.27
674.28	559.87
674.62	556.53
674.96	552.89
675.30	549.55
675.64	546.15
675.97	542.97
676.31	539.61
676.65	536.24
676.99	533.12
677.33	529.83
677.67	526.60
678.01	523.14
678.34	519.71
678.68	516.39
679.02	513.12
679.36	509.86
679.70	506.74
680.04	503.59
680.37	500.36
680.71	497.09
681.05	494.08
681.39	490.94
681.73	487.86
682.06	484.92
682.40	481.93
682.74	478.97
683.08	476.03
683.42	473.02
683.75	470.07
684.09	467.02
684.43	464.14
684.77	461.28
685.10	458.56
685.44	455.88
685.78	453.23
686.12	450.64
686.45	448.06
686.79	445.31
687.13	442.79
687.46	440.25
687.80	437.77
688.14	435.17
688.48	432.74
688.81	430.09
689.15	427.57
689.49	425.01
689.82	422.59
690.16	420.14
690.50	417.88
690.83	415.63
691.17	413.29
691.51	411.12
691.84	408.93
692.18	406.69
692.52	404.43
692.85	402.13
693.19	399.92
693.52	397.80
693.86	395.69
694.20	393.55
694.53	391.48
694.87	389.33
695.21	387.20
695.54	385.07
695.88	383.02
696.21	381.05
696.55	379.13
696.88	377.20
697.22	375.25
697.56	373.37
697.89	371.44
698.23	369.64
698.56	367.77
698.90	365.94
699.23	364.04
699.57	362.20
699.90	360.41
700.24	358.59
700.58	356.83
700.91	355.15
701.25	353.51
701.58	351.91
701.92	350.33
702.25	348.79
702.59	347.22
702.92	345.74
703.26	344.26
703.59	342.77
703.93	341.41
704.26	340.04
704.60	338.50
704.93	337.07
705.26	335.61
705.60	334.24
705.93	332.88
706.27	331.64
706.60	330.40
706.94	329.14
707.27	327.82
707.61	326.53
707.94	325.29
708.27	324.02
708.61	322.77
708.94	321.60
709.28	320.44
709.61	319.35
709.94	318.24
710.28	317.04
710.61	315.90
710.95	314.66
711.28	313.56
711.61	312.46
711.95	311.36
712.28	310.27
712.61	309.12
712.95	308.02
713.28	306.99
713.61	305.96
713.95	304.93
714.28	303.97
714.61	302.99
714.95	302.01
715.28	300.99
715.61	299.95
715.95	298.93
716.28	297.90
716.61	296.91
716.95	295.92
717.28	295.00
717.61	294.13
717.94	293.23
718.28	292.28
718.61	291.45
718.94	290.61
719.27	289.84
719.61	289.09
719.94	288.30
720.27	287.46
720.60	286.66
720.94	285.91
721.27	285.18
721.60	284.47
721.93	283.77
722.27	283.12
722.60	282.47
722.93	281.84
723.26	281.20
723.59	280.54
723.93	279.89
724.26	279.26
724.59	278.57
724.92	277.92
725.25	277.34
725.59	276.70
725.92	276.09
726.25	275.47
726.58	274.93
726.91	274.37
727.24	273.85
727.57	273.30
727.91	272.72
728.24	272.20
728.57	271.64
728.90	271.11
729.23	270.55
729.56	270.05
729.89	269.51
730.22	268.94
730.55	268.37
730.89	267.87
731.22	267.37
731.55	266.86
731.88	266.38
732.21	265.87
732.54	265.40
732.87	264.94
733.20	264.47
733.53	263.94
733.86	263.51
734.19	263.01
734.52	262.61
734.85	262.25
735.18	261.77
735.51	261.39
735.84	260.96
736.17	260.55
736.50	260.07
736.83	259.74
737.16	259.39
737.49	259.03
737.82	258.61
738.15	258.21
738.48	257.86
738.81	257.50
739.14	257.11
739.47	256.72
739.80	256.36
740.13	256.01
740.46	255.68
740.79	255.30
741.12	254.94
741.45	254.56
741.78	254.13
742.11	253.81
742.44	253.39
742.77	253.05
743.10	252.68
743.43	252.33
743.75	251.93
744.08	251.78
744.41	251.47
744.74	251.19
745.07	250.86
745.40	250.56
745.73	250.27
746.06	249.97
746.39	249.67
746.71	249.33
747.04	249.01
747.37	248.71
747.70	248.44
748.03	248.15
748.36	247.90
748.68	247.65
749.01	247.30
749.34	247.07
749.67	246.79
750.00	246.56
750.33	246.39
750.65	246.15
750.98	245.75
751.31	245.49
751.64	245.20
751.97	244.99
752.29	244.74
752.62	244.44
752.95	244.22
753.28	243.99
753.60	243.77
753.93	243.55
754.26	243.31
754.59	243.06
754.91	242.81
755.24	242.55
755.57	242.33
755.90	242.16
756.22	241.93
756.55	241.72
756.88	241.50
757.20	241.22
757.53	241.00
757.86	240.80
758.19	240.62
758.51	240.45
758.84	240.24
759.17	240.01
759.49	239.83
759.82	239.68
760.15	239.49
760.47	239.32
760.80	239.13
761.13	238.96
761.45	238.78
761.78	238.62
762.11	238.46
762.43	238.30
762.76	238.11
763.08	237.97
763.41	237.79
763.74	237.65
764.06	237.48
764.39	237.27
764.71	237.09
765.04	236.94
765.37	236.79
765.69	236.62
766.02	236.47
766.34	236.35
766.67	236.16
767.00	236.04
767.32	235.95
767.65	235.91
767.97	235.74
768.30	235.63
768.62	235.46
768.95	235.31
769.27	235.15
769.60	235.06
769.92	234.92
770.25	234.79
770.57	234.63
770.90	234.55
771.22	234.44
771.55	234.34
771.87	234.22
772.20	234.08
772.52	234.06
772.85	234.09
773.17	233.96
773.50	233.87
773.82	233.72
774.15	233.61
774.47	233.43
774.80	233.34
775.12	233.24
775.45	233.16
775.77	233.06
776.09	233.01
776.42	232.87
776.74	232.80
777.07	232.70
777.39	232.62
777.72	232.49
778.04	232.44
778.36	232.32
778.69	232.23
779.01	232.15
779.33	231.99
779.66	231.77
779.98	231.72
780.31	231.63
780.63	231.61
780.95	231.53
781.28	231.44
781.60	231.38
781.92	231.29
782.25	231.23
782.57	231.20
782.89	231.12
783.22	231.05
783.54	230.95
783.86	230.91
784.19	230.83
784.51	230.77
784.83	230.67
785.16	230.61
785.48	230.55
785.80	230.53
786.12	230.49
786.45	230.47
786.77	230.38
787.09	230.30
787.42	230.21
787.74	230.14
788.06	230.13
788.38	230.05
788.71	229.97
789.03	229.93
789.35	229.87
789.67	229.81
789.99	229.80
790.32	229.74
790.64	229.70
790.96	229.75
791.28	229.74
791.61	229.70
791.93	229.65
792.25	229.61
792.57	229.60
792.89	229.54
793.21	229.48
793.54	229.43
793.86	229.35
794.18	229.31
794.50	229.24
794.82	229.19
795.14	229.18
795.47	229.17
795.79	229.12
796.11	229.06
796.43	229.04
796.75	228.97
797.07	228.95
797.39	228.89
797.71	228.80
798.04	228.76
798.36	228.75
798.68	228.73
799.00	228.69
799.32	228.62
799.64	228.59
799.96	228.57
800.28	228.55
800.60	228.55
800.92	228.57
801.24	228.54
801.56	228.55
801.89	228.49
802.21	228.46
802.53	228.44
802.85	228.44
803.17	228.43
803.49	228.40
803.81	228.36
804.13	228.33
804.45	228.34
804.77	228.28
805.09	228.26
805.41	228.21
805.73	228.19
806.05	228.13
806.37	228.12
806.69	228.09
807.01	228.07
807.33	228.05
807.65	227.98
807.97	228.01
808.28	227.91
808.60	227.92
808.92	227.87
809.24	227.91
809.56	227.83
809.88	227.77
810.20	227.75
810.52	227.76
810.84	227.74
811.16	227.63
811.48	227.61
811.80	227.61
812.12	227.58
812.43	227.57
812.75	227.54
813.07	227.48
813.39	227.43
813.71	227.36
814.03	227.33
814.35	227.29
814.67	227.22
814.98	227.22
815.30	227.16
815.62	227.13
815.94	227.02
816.26	227.05
816.58	227.01
816.89	226.97
817.21	226.91
817.53	226.90
817.85	226.92
818.17	226.90
818.48	226.80
818.80	226.78
819.12	226.75
819.44	226.69
819.76	226.66
820.07	226.66
820.39	226.65
820.71	226.64
821.03	226.65
821.34	226.60
821.66	226.59
821.98	226.58
822.30	226.56
822.61	226.62
822.93	226.55
823.25	226.52
823.57	226.48
823.88	226.48
824.20	226.45
824.52	226.44
824.83	226.39
825.15	226.37
825.47	226.38
825.79	226.35
826.10	226.34
826.42	226.32
826.74	226.33
827.05	226.33
827.37	226.31
827.69	226.27
828.00	226.25
828.32	226.21
828.64	226.20
828.95	226.23
829.27	226.18
829.58	226.18
829.90	226.21
830.22	226.23
830.53	226.18
830.85	226.16
831.17	226.11
831.48	226.10
831.80	226.07
832.11	226.03
832.43	226.00
832.75	225.99
833.06	226.07
833.38	226.01
833.69	225.98
834.01	225.97
834.32	225.96
834.64	225.95
834.96	225.96
835.27	225.91
835.59	225.85
835.90	225.83
836.22	225.81
836.53	225.75
836.85	225.72
837.16	225.82
837.48	225.82
837.79	225.86
838.11	225.87
838.42	225.90
838.74	225.95
839.05	225.97
839.37	226.00
839.68	225.92
840.00	225.93
840.31	225.96
840.63	225.95
840.94	225.93
841.26	225.90
841.57	225.88
841.88	225.92
842.20	225.94
842.51	225.94
842.83	225.93
843.14	226.03
843.46	226.01
843.77	225.94
844.08	225.91
844.40	225.87
844.71	225.84
845.03	225.81
845.34	225.75
845.65	225.70
845.97	225.67
846.28	225.66
846.60	225.64
846.91	225.63
847.22	225.61
847.54	225.63
847.85	225.66
848.16	225.65
848.48	225.62
848.79	225.62
849.10	225.62
849.42	225.60
849.73	225.49
850.04	225.50
850.36	225.48
850.67	225.50
850.98	225.51
851.30	225.51
851.61	225.51
851.92	225.52
852.23	225.59
852.55	225.60
852.86	225.57
853.17	225.59
853.49	225.63
853.80	225.64
854.11	225.65
854.42	225.67
854.74	225.65
855.05	225.63
855.36	225.58
855.67	225.58
855.99	225.57
856.30	225.71
856.61	225.71
856.92	225.69
857.23	225.68
857.55	225.63
857.86	225.64
858.17	225.65
858.48	225.64
858.79	225.59
859.11	225.62
859.42	225.64
859.73	225.62
860.04	225.59
860.35	225.55
860.66	225.48
860.98	225.47
861.29	225.47
861.60	225.47
861.91	225.53
862.22	225.50
862.53	225.46
862.84	225.30
863.16	225.34
863.47	225.33
863.78	225.32
864.09	225.34
864.40	225.35
864.71	225.37
865.02	225.36
865.33	225.37
865.64	225.30
865.95	225.27
866.27	225.31
866.58	225.32
866.89	225.35
867.20	225.38
867.51	225.31
867.82	225.31
868.13	225.34
868.44	225.30
868.75	225.35
869.06	225.38
869.37	225.43
869.68	225.39
869.99	225.41
870.30	225.40
870.61	225.40
870.92	225.38
871.23	225.35
871.54	225.38
871.85	225.37
872.16	225.41
872.47	225.41
872.78	225.39
873.09	225.39
873.40	225.39
873.71	225.38
874.02	225.41
874.33	225.39
874.64	225.37
874.95	225.40
875.26	225.35
875.56	225.36
875.87	225.34
876.18	225.33
876.49	225.43
876.80	225.45
877.11	225.47
877.42	225.44
877.73	225.45
878.04	225.40
878.35	225.39
878.66	225.38
878.96	225.38
879.27	225.37
879.58	225.37
879.89	225.34
880.20	225.37
880.51	225.38
880.82	225.40
881.12	225.41
881.43	225.35
881.74	225.33
882.05	225.32
882.36	225.32
882.67	225.30
882.97	225.16
883.28	225.15
883.59	225.11
883.90	225.16
884.21	225.16
884.51	225.16
884.82	225.13
885.13	225.13
885.44	225.14
885.74	225.16
886.05	225.13
886.36	225.11
886.67	225.09
886.98	225.11
887.28	225.08
887.59	225.05
887.90	225.08
888.20	225.08
888.51	225.09
888.82	225.05
889.13	225.07
889.43	225.15
889.74	225.11
890.05	225.08
890.35	225.06
890.66	225.02
890.97	225.01
891.28	225.03
891.58	225.06
891.89	225.04
892.20	224.98
892.50	224.99
892.81	224.98
893.12	224.95
893.42	224.91
893.73	224.93
894.04	224.96
894.34	224.90
894.65	224.90
894.95	224.87
895.26	224.89
895.57	224.95
895.87	224.86
896.18	224.92
896.48	224.94
896.79	224.93
897.10	224.97
897.40	224.97
897.71	224.96
898.01	224.93
898.32	224.92
898.63	224.94
898.93	224.96
899.24	225.00
899.54	225.04
899.85	225.03
900.15	225.02
900.46	225.01
900.76	225.04
901.07	225.04
901.38	225.04
901.68	225.06
901.99	224.98
902.29	224.98
902.60	224.95
902.90	224.93
903.21	224.92
903.51	224.90
903.82	224.93
904.12	224.92
904.43	224.90
904.73	224.90
905.03	224.88
905.34	224.96
905.64	224.93
905.95	224.92
906.25	224.92
906.56	224.93
906.86	224.92
907.17	224.92
907.47	224.93
907.77	224.94
908.08	224.91
908.38	224.93
908.69	224.93
908.99	224.97
909.30	225.00
909.60	225.01
909.90	225.02
910.21	225.02
910.51	225.03
910.81	225.04
911.12	225.07
911.42	225.11
911.73	225.00
912.03	225.01
912.33	224.98
912.64	224.98
912.94	224.97
913.24	224.98
913.55	224.98
913.85	224.97
914.15	225.01
914.46	225.02
914.76	225.03
915.06	225.06
915.37	225.03
915.67	225.02
915.97	225.06
916.27	225.02
916.58	225.03
916.88	225.05
917.18	225.05
917.49	225.11
917.79	225.08
918.09	225.09
918.39	225.11
918.70	225.15
919.00	225.19
919.30	225.23
919.60	225.24
919.91	225.23
920.21	225.24
920.51	225.21
920.81	225.22
921.12	225.26
921.42	225.26
921.72	225.30
922.02	225.32
922.32	225.30
922.63	225.28
922.93	225.32
923.23	225.31
923.53	225.29
923.83	225.21
924.13	225.26
924.44	225.25
924.74	225.25
925.04	225.28
925.34	225.24
925.64	225.23
925.94	225.18
926.24	225.23
926.55	225.26
926.85	225.27
927.15	225.22
927.45	225.18
927.75	225.17
928.05	225.12
928.35	225.10
928.65	225.10
928.95	225.09
929.26	225.03
929.56	225.00
929.86	225.04
930.16	225.01
930.46	224.97
930.76	224.97
931.06	224.94
931.36	224.90
931.66	224.91
931.96	224.88
932.26	224.90
932.56	224.87
932.86	224.85
933.16	224.79
933.46	224.81
933.76	224.78
934.06	224.80
934.36	224.82
934.66	224.81
934.96	224.81
935.26	224.86
935.56	224.86
935.86	224.86
936.16	224.85
936.46	224.84
936.76	224.86
937.06	224.86
937.36	224.87
937.66	224.86
937.96	224.84
938.26	224.83
938.56	224.83
938.86	224.86
939.16	224.84
939.46	224.90
939.76	224.90
940.06	224.92
940.35	224.88
940.65	224.83
940.95	224.82
941.25	224.82
941.55	224.79
941.85	224.81
942.15	224.84
942.45	224.85
942.75	224.84
943.04	224.79
943.34	224.81
943.64	224.78
943.94	224.76
944.24	224.78
944.54	224.80
944.84	224.79
945.13	224.75
945.43	224.76
945.73	224.74
946.03	224.75
946.33	224.74
946.62	224.76
946.92	224.78
947.22	224.79
947.52	224.78
947.82	224.80
948.11	224.78
948.41	224.73
948.71	224.71
949.01	224.74
949.31	224.76
949.60	224.78
949.90	224.81
950.20	224.84
950.50	224.82
950.79	224.81
951.09	224.83
951.39	224.85
951.69	224.83
951.98	224.85
952.28	224.85
952.58	224.85
952.87	224.83
953.17	224.82
953.47	224.84
953.76	224.85
954.06	224.85
954.36	224.84
954.66	224.82
954.95	224.85
955.25	224.87
955.55	224.88
955.84	224.86
956.14	224.85
956.44	224.84
956.73	224.83
957.03	224.85
957.32	224.84
957.62	224.83
957.92	224.84
958.21	224.83
958.51	224.94
958.81	224.96
959.10	224.97
959.40	224.99
959.69	225.00
959.99	225.02
960.29	225.02
960.58	225.03
960.88	225.08
961.17	225.05
961.47	225.05
961.76	225.01
962.06	224.99
962.36	224.99
962.65	225.01
962.95	225.04
963.24	225.01
963.54	225.01
963.83	225.04
964.13	225.02
964.42	225.02
964.72	224.92
965.01	224.90
965.31	224.91
965.60	224.87
965.90	224.90
966.19	224.85
966.49	224.82
966.78	224.81
967.08	224.81
967.37	224.82
967.67	224.80
967.96	224.83
968.26	224.86
968.55	224.86
968.85	224.81
969.14	224.82
969.43	224.86
969.73	224.87
970.02	224.84
970.32	224.84
970.61	224.84
970.91	224.84
971.20	224.86
971.49	224.82
971.79	224.84
972.08	224.77
972.38	224.78
972.67	224.79
972.96	224.81
973.26	224.80
973.55	224.83
973.85	224.81
974.14	224.78
974.43	224.78
974.73	224.81
975.02	224.82
975.31	224.83
975.61	224.81
975.90	224.75
976.19	224.77
976.49	224.77
976.78	224.76
977.07	224.75
977.37	224.75
977.66	224.78
977.95	224.77
978.24	224.78
978.54	224.81
978.83	224.79
979.12	224.78
979.42	224.75
979.71	224.75
980.00	224.76
980.29	224.77
980.59	224.76
980.88	224.75
981.17	224.77
981.46	224.75
981.76	224.77
982.05	224.84
982.34	224.85
982.63	224.84
982.93	224.84
983.22	224.86
983.51	224.86
983.80	224.89
984.09	224.92
984.39	224.95
984.68	224.96
984.97	224.96
985.26	224.94
985.55	224.95
985.85	224.92
986.14	224.96
986.43	224.97
986.72	224.97
987.01	224.96
987.30	224.93
987.59	224.94
987.89	224.96
988.18	224.90
988.47	224.88
988.76	224.92
989.05	224.92
989.34	224.93
989.63	224.95
989.92	224.93
990.22	224.93
990.51	224.88
990.80	224.87
991.09	224.89
991.38	224.90
991.67	224.94
991.96	224.94
992.25	224.94
992.54	224.92
992.83	224.94
993.12	224.93
993.41	224.98
993.70	224.99
993.99	224.97
994.28	225.00
994.58	225.02
994.87	224.99
995.16	224.97
995.45	224.95
995.74	224.92
996.03	224.91
996.32	224.93
996.61	224.97
996.90	224.96
997.19	224.94
997.48	224.94
997.77	224.90
998.06	224.89
998.34	224.84
998.63	224.84
998.92	224.83
999.21	224.85
999.50	224.85
999.79	224.83
1000.08	224.86
1000.37	224.83
1000.66	224.83
1000.95	224.86
1001.24	224.88
1001.53	224.92
1001.82	224.90
1002.11	224.90
1002.40	224.88
1002.68	224.91
1002.97	224.99
1003.26	224.97
1003.55	224.98
1003.84	224.99
1004.13	225.04
1004.42	225.05
1004.71	225.08
1004.99	225.08
1005.28	225.05
1005.57	225.03
1005.86	225.04
1006.15	224.99
1006.44	224.98
1006.72	225.00
1007.01	224.98
1007.30	224.96
1007.59	224.93
1007.88	224.93
1008.17	224.92
1008.45	224.89
1008.74	224.81
1009.03	224.74
1009.32	224.75
1009.60	224.71
1009.89	224.71
1010.18	224.63
1010.47	224.61
1010.76	224.57
1011.04	224.53
1011.33	224.53
1011.62	224.51
1011.91	224.49
1012.19	224.49
1012.48	224.48
1012.77	224.42
1013.05	224.45
1013.34	224.45
1013.63	224.40
1013.92	224.40
1014.20	224.40
1014.49	224.40
1014.78	224.40
1015.06	224.37
1015.35	224.37
1015.64	224.39
1015.92	224.41
1016.21	224.41
1016.50	224.43
1016.78	224.46
1017.07	224.45
1017.36	224.46
1017.64	224.46
1017.93	224.49
1018.22	224.48
1018.50	224.46
1018.79	224.45
1019.08	224.38
1019.36	224.38
1019.65	224.40
1019.93	224.41
1020.22	224.41
1020.51	224.46
1020.79	224.47
1021.08	224.09
1021.36	224.04
1021.65	223.84
1021.94	224.11
1022.22	224.56
1022.51	224.17
1022.79	224.60
1023.08	224.53
1023.36	225.68
1023.65	224.40
>>>>>End Processed Spectral Data<<<<<
