SpectraSuite Data File
++++++++++++++++++++++++++++++++++++
Date: Fri Feb 01 18:10:31 EST 2013
User: group
Dark Spectrum Present: No
Reference Spectrum Present: No
Number of Sampled Component Spectra: 1
Spectrometers: USB2E7196
Integration Time (usec): 35000 (USB2E7196)
Spectra Averaged: 100 (USB2E7196)
Boxcar Smoothing: 10 (USB2E7196)
Correct for Electrical Dark: No (USB2E7196)
Strobe/Lamp Enabled: No (USB2E7196)
Correct for Detector Non-linearity: No (USB2E7196)
Correct for Stray Light: No (USB2E7196)
Number of Pixels in Processed Spectrum: 2048
>>>>>Begin Processed Spectral Data<<<<<
339.09	0.00
339.48	213.15
339.86	214.26
340.24	215.68
340.63	216.67
341.01	219.79
341.39	219.76
341.78	221.14
342.16	222.40
342.54	223.10
342.93	211.19
343.31	221.85
343.69	222.36
344.07	222.82
344.46	223.22
344.84	223.61
345.22	223.82
345.60	224.08
345.99	224.25
346.37	224.38
346.75	224.49
347.13	224.60
347.52	224.71
347.90	224.81
348.28	224.81
348.66	224.84
349.05	224.83
349.43	224.85
349.81	224.91
350.19	224.97
350.57	225.00
350.96	225.08
351.34	225.21
351.72	225.32
352.10	225.43
352.48	225.53
352.87	225.59
353.25	225.72
353.63	225.78
354.01	225.86
354.39	225.93
354.77	225.97
355.15	226.07
355.54	226.10
355.92	226.14
356.30	226.24
356.68	226.44
357.06	226.53
357.44	226.62
357.82	226.64
358.20	226.71
358.58	226.79
358.97	226.86
359.35	226.96
359.73	227.03
360.11	227.10
360.49	227.19
360.87	227.25
361.25	227.33
361.63	227.41
362.01	227.48
362.39	227.56
362.77	227.67
363.15	227.70
363.53	227.77
363.91	227.82
364.29	227.88
364.67	227.82
365.05	227.82
365.43	227.85
365.81	227.94
366.19	228.01
366.57	228.08
366.95	228.09
367.33	228.06
367.71	228.05
368.09	228.06
368.47	228.05
368.85	228.05
369.23	228.06
369.61	228.02
369.99	228.06
370.37	228.02
370.75	228.02
371.13	228.02
371.51	227.96
371.89	227.92
372.27	227.86
372.65	227.83
373.03	227.79
373.41	227.73
373.78	227.67
374.16	227.59
374.54	227.49
374.92	227.46
375.30	227.40
375.68	227.37
376.06	227.30
376.44	227.24
376.82	227.19
377.19	227.08
377.57	227.01
377.95	226.90
378.33	226.83
378.71	226.67
379.09	226.58
379.47	226.56
379.84	226.49
380.22	226.42
380.60	226.33
380.98	226.29
381.36	226.24
381.73	226.19
382.11	226.13
382.49	226.09
382.87	226.00
383.25	225.94
383.62	225.97
384.00	225.94
384.38	225.89
384.76	225.88
385.13	225.89
385.51	225.84
385.89	225.74
386.27	225.71
386.64	225.71
387.02	225.64
387.40	225.56
387.78	225.53
388.15	225.50
388.53	225.48
388.91	225.44
389.29	225.42
389.66	225.37
390.04	225.31
390.42	225.29
390.79	225.29
391.17	225.28
391.55	225.16
391.92	225.12
392.30	225.11
392.68	225.04
393.05	225.02
393.43	225.00
393.81	225.01
394.18	224.99
394.56	224.97
394.94	225.02
395.31	225.02
395.69	225.05
396.06	225.05
396.44	225.06
396.82	225.09
397.19	225.16
397.57	225.19
397.95	225.26
398.32	225.25
398.70	225.26
399.07	225.31
399.45	225.36
399.82	225.40
400.20	225.43
400.58	225.54
400.95	225.52
401.33	225.62
401.70	225.79
402.08	225.87
402.45	225.95
402.83	226.08
403.20	226.17
403.58	226.30
403.95	226.46
404.33	226.62
404.71	226.78
405.08	226.93
405.46	227.11
405.83	227.27
406.21	227.49
406.58	227.72
406.96	227.92
407.33	228.11
407.70	228.36
408.08	228.69
408.45	228.94
408.83	229.30
409.20	229.58
409.58	229.83
409.95	230.15
410.33	230.58
410.70	230.88
411.08	231.30
411.45	231.68
411.82	232.08
412.20	232.53
412.57	233.04
412.95	233.48
413.32	234.01
413.69	234.60
414.07	235.16
414.44	235.78
414.82	236.47
415.19	237.23
415.56	238.00
415.94	238.78
416.31	239.66
416.68	240.49
417.06	241.49
417.43	242.43
417.81	243.52
418.18	244.55
418.55	245.72
418.93	246.95
419.30	248.22
419.67	249.56
420.04	250.91
420.42	252.32
420.79	253.95
421.16	255.54
421.54	257.18
421.91	258.92
422.28	260.66
422.66	262.50
423.03	264.30
423.40	266.16
423.77	268.13
424.15	270.12
424.52	272.23
424.89	274.49
425.26	276.67
425.64	278.71
426.01	280.92
426.38	283.23
426.75	285.56
427.13	287.98
427.50	290.52
427.87	293.11
428.24	295.73
428.61	298.21
428.99	300.92
429.36	303.87
429.73	306.77
430.10	309.63
430.47	312.49
430.85	315.51
431.22	318.66
431.59	321.97
431.96	325.11
432.33	328.62
432.70	331.94
433.08	335.84
433.45	339.59
433.82	343.31
434.19	347.35
434.56	351.29
434.93	355.05
435.30	358.73
435.68	362.79
436.05	366.78
436.42	370.71
436.79	374.22
437.16	377.97
437.53	381.91
437.90	385.82
438.27	389.73
438.64	393.72
439.01	397.33
439.38	400.48
439.75	403.51
440.13	407.02
440.50	410.30
440.87	412.96
441.24	415.69
441.61	418.72
441.98	420.87
442.35	423.41
442.72	425.99
443.09	428.53
443.46	429.96
443.83	430.76
444.20	431.50
444.57	432.79
444.94	433.26
445.31	433.77
445.68	434.29
446.05	434.35
446.42	433.81
446.79	433.26
447.16	432.70
447.53	432.31
447.90	430.68
448.27	429.06
448.64	426.85
449.01	425.27
449.37	422.49
449.74	419.84
450.11	416.66
450.48	413.22
450.85	409.70
451.22	406.75
451.59	403.91
451.96	401.18
452.33	397.47
452.70	394.17
453.07	390.19
453.43	386.14
453.80	382.27
454.17	378.49
454.54	374.93
454.91	371.07
455.28	367.29
455.65	363.77
456.02	360.27
456.38	357.24
456.75	353.44
457.12	350.25
457.49	347.10
457.86	344.10
458.23	341.45
458.59	338.55
458.96	335.57
459.33	332.94
459.70	330.26
460.07	328.10
460.43	325.66
460.80	323.36
461.17	321.28
461.54	319.16
461.91	317.12
462.27	315.03
462.64	313.26
463.01	311.33
463.38	309.52
463.74	307.63
464.11	305.96
464.48	304.50
464.85	302.91
465.21	301.65
465.58	300.31
465.95	298.74
466.32	297.38
466.68	296.11
467.05	294.85
467.42	293.59
467.78	292.31
468.15	291.05
468.52	290.12
468.88	288.91
469.25	287.78
469.62	286.91
469.98	285.96
470.35	285.04
470.72	284.18
471.08	283.22
471.45	282.45
471.82	281.66
472.18	280.83
472.55	280.20
472.92	279.43
473.28	278.74
473.65	278.08
474.02	277.46
474.38	276.88
474.75	276.38
475.11	275.86
475.48	275.45
475.85	275.08
476.21	274.69
476.58	274.40
476.94	274.18
477.31	273.85
477.67	273.58
478.04	273.35
478.41	273.19
478.77	273.12
479.14	272.94
479.50	272.87
479.87	272.86
480.23	272.85
480.60	272.85
480.96	272.86
481.33	273.01
481.69	273.20
482.06	273.34
482.42	273.45
482.79	273.66
483.15	273.90
483.52	274.24
483.88	274.55
484.25	274.89
484.61	275.29
484.98	275.73
485.34	276.30
485.71	276.89
486.07	277.48
486.44	278.05
486.80	278.74
487.17	279.48
487.53	280.29
487.90	281.16
488.26	282.12
488.62	283.18
488.99	284.18
489.35	285.26
489.72	286.48
490.08	287.79
490.44	289.08
490.81	290.48
491.17	291.89
491.54	293.50
491.90	295.12
492.26	296.84
492.63	298.69
492.99	300.58
493.36	302.56
493.72	304.76
494.08	306.99
494.45	309.41
494.81	311.96
495.17	314.60
495.54	317.42
495.90	320.29
496.26	323.25
496.63	326.46
496.99	329.80
497.35	333.30
497.72	336.94
498.08	340.72
498.44	344.69
498.80	348.92
499.17	353.22
499.53	357.71
499.89	362.42
500.26	367.26
500.62	372.31
500.98	377.67
501.34	383.08
501.71	388.87
502.07	394.77
502.43	400.80
502.79	407.04
503.16	413.53
503.52	420.29
503.88	427.21
504.24	434.32
504.60	441.66
504.97	449.29
505.33	457.16
505.69	465.50
506.05	473.87
506.41	482.34
506.78	491.10
507.14	500.22
507.50	509.70
507.86	519.48
508.22	529.38
508.59	539.34
508.95	549.73
509.31	560.26
509.67	571.19
510.03	582.28
510.39	593.78
510.75	605.53
511.12	617.41
511.48	629.67
511.84	642.14
512.20	654.70
512.56	667.69
512.92	680.92
513.28	694.41
513.64	708.00
514.00	721.90
514.37	736.14
514.73	750.33
515.09	764.48
515.45	778.97
515.81	793.84
516.17	809.22
516.53	824.78
516.89	840.45
517.25	856.04
517.61	871.98
517.97	887.80
518.33	903.65
518.69	919.92
519.05	936.37
519.41	953.18
519.77	970.35
520.13	987.49
520.49	1004.53
520.85	1021.48
521.21	1038.78
521.57	1056.74
521.93	1074.22
522.29	1092.42
522.65	1110.51
523.01	1128.54
523.37	1146.46
523.73	1164.49
524.09	1182.48
524.45	1200.60
524.81	1219.11
525.17	1237.76
525.53	1256.69
525.89	1275.66
526.25	1294.49
526.61	1312.90
526.97	1331.63
527.33	1350.13
527.68	1368.75
528.04	1387.38
528.40	1406.14
528.76	1425.52
529.12	1444.42
529.48	1463.53
529.84	1481.73
530.20	1500.65
530.56	1519.89
530.91	1539.65
531.27	1558.78
531.63	1577.48
531.99	1596.51
532.35	1614.90
532.71	1633.18
533.07	1651.83
533.42	1670.21
533.78	1688.78
534.14	1707.65
534.50	1725.37
534.86	1743.74
535.21	1761.40
535.57	1779.83
535.93	1797.93
536.29	1815.25
536.65	1832.78
537.00	1850.03
537.36	1868.03
537.72	1885.14
538.08	1902.20
538.44	1918.56
538.79	1934.98
539.15	1951.17
539.51	1967.34
539.87	1984.45
540.22	2000.75
540.58	2017.18
540.94	2032.90
541.29	2048.24
541.65	2063.41
542.01	2079.26
542.37	2094.19
542.72	2109.23
543.08	2123.65
543.44	2138.66
543.79	2152.41
544.15	2165.81
544.51	2180.01
544.87	2193.46
545.22	2206.76
545.58	2219.50
545.94	2231.73
546.29	2243.98
546.65	2256.39
547.01	2268.13
547.36	2278.98
547.72	2290.03
548.07	2300.32
548.43	2310.95
548.79	2321.31
549.14	2331.42
549.50	2341.06
549.86	2351.03
550.21	2360.47
550.57	2369.91
550.92	2378.74
551.28	2388.05
551.64	2397.51
551.99	2406.12
552.35	2414.53
552.70	2422.82
553.06	2430.91
553.41	2439.29
553.77	2447.39
554.13	2455.47
554.48	2463.79
554.84	2471.55
555.19	2478.65
555.55	2485.78
555.90	2492.16
556.26	2499.26
556.61	2505.68
556.97	2512.00
557.32	2517.96
557.68	2524.03
558.03	2530.24
558.39	2535.67
558.74	2542.20
559.10	2547.85
559.45	2553.31
559.81	2559.12
560.16	2564.64
560.52	2569.60
560.87	2574.56
561.23	2578.81
561.58	2583.28
561.94	2587.27
562.29	2590.84
562.64	2595.18
563.00	2599.16
563.35	2604.17
563.71	2608.55
564.06	2613.24
564.42	2617.52
564.77	2621.55
565.12	2625.37
565.48	2628.51
565.83	2631.52
566.19	2634.17
566.54	2636.06
566.89	2638.42
567.25	2640.27
567.60	2642.66
567.96	2645.61
568.31	2647.58
568.66	2649.96
569.02	2651.60
569.37	2652.88
569.72	2654.85
570.08	2655.82
570.43	2656.59
570.78	2656.67
571.14	2655.92
571.49	2655.19
571.84	2655.55
572.20	2655.14
572.55	2654.52
572.90	2653.17
573.26	2652.40
573.61	2650.83
573.96	2649.62
574.31	2646.84
574.67	2644.00
575.02	2640.47
575.37	2636.95
575.72	2633.25
576.08	2629.59
576.43	2626.19
576.78	2622.61
577.13	2619.47
577.49	2616.27
577.84	2612.89
578.19	2609.07
578.54	2605.21
578.90	2600.80
579.25	2594.77
579.60	2589.38
579.95	2584.22
580.30	2578.93
580.66	2573.21
581.01	2567.83
581.36	2562.32
581.71	2557.78
582.06	2553.17
582.42	2548.64
582.77	2543.10
583.12	2538.26
583.47	2533.47
583.82	2528.09
584.17	2522.41
584.53	2516.26
584.88	2510.01
585.23	2503.77
585.58	2497.68
585.93	2491.55
586.28	2486.28
586.63	2480.78
586.98	2475.09
587.34	2469.61
587.69	2464.12
588.04	2458.50
588.39	2452.31
588.74	2445.13
589.09	2438.19
589.44	2430.35
589.79	2423.13
590.14	2416.56
590.49	2408.78
590.84	2401.19
591.19	2394.25
591.54	2386.67
591.89	2378.33
592.25	2370.81
592.60	2362.26
592.95	2353.80
593.30	2345.32
593.65	2336.40
594.00	2328.20
594.35	2319.58
594.70	2310.22
595.05	2302.13
595.40	2293.44
595.75	2284.65
596.10	2277.40
596.45	2269.61
596.80	2262.43
597.15	2254.85
597.50	2246.77
597.85	2239.41
598.19	2231.71
598.54	2223.60
598.89	2215.83
599.24	2209.00
599.59	2201.28
599.94	2193.97
600.29	2186.28
600.64	2178.59
600.99	2170.03
601.34	2162.04
601.69	2153.84
602.04	2145.82
602.39	2136.96
602.74	2129.01
603.08	2121.05
603.43	2112.92
603.78	2104.21
604.13	2095.58
604.48	2087.08
604.83	2078.88
605.18	2070.70
605.53	2061.31
605.87	2051.69
606.22	2043.03
606.57	2033.34
606.92	2024.22
607.27	2015.72
607.62	2007.49
607.96	1998.83
608.31	1990.99
608.66	1981.91
609.01	1973.08
609.36	1964.11
609.70	1954.55
610.05	1944.97
610.40	1935.86
610.75	1926.14
611.10	1916.92
611.44	1906.80
611.79	1896.98
612.14	1886.48
612.49	1875.44
612.83	1865.31
613.18	1855.49
613.53	1845.70
613.88	1835.56
614.22	1825.63
614.57	1815.27
614.92	1805.72
615.27	1796.74
615.61	1786.82
615.96	1777.14
616.31	1767.92
616.65	1759.10
617.00	1750.11
617.35	1740.74
617.70	1730.79
618.04	1720.55
618.39	1710.68
618.74	1701.75
619.08	1691.90
619.43	1682.84
619.78	1674.47
620.12	1665.96
620.47	1656.99
620.82	1647.13
621.16	1638.05
621.51	1628.88
621.85	1619.65
622.20	1609.38
622.55	1599.21
622.89	1589.60
623.24	1580.27
623.59	1571.16
623.93	1562.02
624.28	1553.13
624.62	1544.13
624.97	1535.37
625.32	1527.15
625.66	1518.76
626.01	1510.05
626.35	1501.17
626.70	1491.80
627.04	1482.50
627.39	1473.01
627.73	1464.14
628.08	1455.98
628.43	1447.43
628.77	1438.69
629.12	1429.66
629.46	1421.08
629.81	1412.03
630.15	1403.33
630.50	1394.50
630.84	1384.85
631.19	1375.19
631.53	1366.22
631.88	1357.02
632.22	1347.87
632.57	1338.96
632.91	1329.82
633.26	1320.85
633.60	1311.80
633.95	1303.22
634.29	1294.67
634.64	1286.74
634.98	1277.88
635.32	1269.22
635.67	1261.11
636.01	1253.10
636.36	1245.03
636.70	1237.12
637.05	1229.37
637.39	1221.61
637.73	1213.84
638.08	1206.73
638.42	1199.64
638.77	1192.01
639.11	1184.31
639.45	1176.67
639.80	1168.88
640.14	1161.30
640.49	1153.64
640.83	1146.15
641.17	1138.85
641.52	1131.46
641.86	1123.69
642.20	1116.69
642.55	1109.14
642.89	1101.61
643.23	1093.76
643.58	1087.01
643.92	1079.70
644.26	1072.67
644.61	1065.47
644.95	1058.38
645.29	1050.65
645.64	1042.73
645.98	1035.19
646.32	1028.12
646.66	1020.97
647.01	1014.12
647.35	1007.37
647.69	1000.37
648.04	993.94
648.38	987.14
648.72	980.05
649.06	972.92
649.41	965.91
649.75	958.95
650.09	951.91
650.43	945.20
650.78	937.81
651.12	930.76
651.46	923.85
651.80	917.21
652.14	910.79
652.49	904.41
652.83	898.29
653.17	891.68
653.51	885.11
653.85	878.71
654.20	872.09
654.54	864.99
654.88	858.22
655.22	851.18
655.56	844.37
655.90	837.87
656.25	831.76
656.59	825.49
656.93	819.44
657.27	813.37
657.61	806.94
657.95	800.91
658.29	794.99
658.64	788.77
658.98	782.35
659.32	775.86
659.66	769.75
660.00	763.50
660.34	757.69
660.68	751.81
661.02	745.88
661.36	740.27
661.70	735.05
662.05	729.91
662.39	724.88
662.73	719.62
663.07	714.53
663.41	709.32
663.75	704.05
664.09	698.67
664.43	693.51
664.77	688.64
665.11	683.56
665.45	678.58
665.79	673.78
666.13	668.99
666.47	664.23
666.81	659.38
667.15	654.54
667.49	649.83
667.83	645.34
668.17	640.76
668.51	635.99
668.85	631.16
669.19	626.65
669.53	622.14
669.87	617.62
670.21	613.16
670.55	608.79
670.89	604.77
671.23	600.71
671.57	596.51
671.91	592.33
672.25	588.24
672.58	584.13
672.92	580.10
673.26	576.38
673.60	572.64
673.94	568.94
674.28	565.42
674.62	562.01
674.96	558.33
675.30	554.89
675.64	551.44
675.97	548.16
676.31	544.78
676.65	541.31
676.99	538.09
677.33	534.75
677.67	531.46
678.01	527.90
678.34	524.49
678.68	521.11
679.02	517.86
679.36	514.62
679.70	511.47
680.04	508.27
680.37	504.88
680.71	501.65
681.05	498.59
681.39	495.46
681.73	492.26
682.06	489.33
682.40	486.38
682.74	483.39
683.08	480.38
683.42	477.31
683.75	474.41
684.09	471.42
684.43	468.48
684.77	465.56
685.10	462.78
685.44	459.97
685.78	457.29
686.12	454.68
686.45	451.96
686.79	449.26
687.13	446.68
687.46	444.07
687.80	441.43
688.14	438.76
688.48	436.34
688.81	433.76
689.15	431.21
689.49	428.60
689.82	426.12
690.16	423.61
690.50	421.29
690.83	418.94
691.17	416.57
691.51	414.34
691.84	412.16
692.18	409.88
692.52	407.61
692.85	405.27
693.19	402.94
693.52	400.77
693.86	398.51
694.20	396.39
694.53	394.34
694.87	392.17
695.21	390.07
695.54	387.89
695.88	385.82
696.21	383.73
696.55	381.73
696.88	379.77
697.22	377.82
697.56	375.89
697.89	373.95
698.23	372.06
698.56	370.15
698.90	368.27
699.23	366.32
699.57	364.48
699.90	362.64
700.24	360.82
700.58	359.01
700.91	357.33
701.25	355.58
701.58	353.96
701.92	352.39
702.25	350.77
702.59	349.15
702.92	347.57
703.26	346.10
703.59	344.62
703.93	343.18
704.26	341.72
704.60	340.18
704.93	338.70
705.26	337.24
705.60	335.80
705.93	334.37
706.27	333.15
706.60	331.92
706.94	330.65
707.27	329.30
707.61	328.02
707.94	326.78
708.27	325.50
708.61	324.15
708.94	322.88
709.28	321.68
709.61	320.50
709.94	319.36
710.28	318.11
710.61	316.92
710.95	315.68
711.28	314.54
711.61	313.41
711.95	312.27
712.28	311.14
712.61	310.00
712.95	308.87
713.28	307.80
713.61	306.70
713.95	305.65
714.28	304.69
714.61	303.68
714.95	302.67
715.28	301.64
715.61	300.66
715.95	299.68
716.28	298.66
716.61	297.66
716.95	296.66
717.28	295.76
717.61	294.86
717.94	293.94
718.28	293.02
718.61	292.15
718.94	291.33
719.27	290.54
719.61	289.80
719.94	289.06
720.27	288.20
720.60	287.44
720.94	286.69
721.27	285.97
721.60	285.26
721.93	284.55
722.27	283.93
722.60	283.25
722.93	282.55
723.26	281.92
723.59	281.29
723.93	280.67
724.26	280.00
724.59	279.33
724.92	278.72
725.25	278.16
725.59	277.56
725.92	276.95
726.25	276.35
726.58	275.73
726.91	275.15
727.24	274.63
727.57	274.06
727.91	273.49
728.24	272.92
728.57	272.41
728.90	271.86
729.23	271.28
729.56	270.73
729.89	270.21
730.22	269.66
730.55	269.13
730.89	268.60
731.22	268.11
731.55	267.60
731.88	267.11
732.21	266.58
732.54	266.07
732.87	265.60
733.20	265.14
733.53	264.71
733.86	264.28
734.19	263.79
734.52	263.35
734.85	262.94
735.18	262.52
735.51	262.05
735.84	261.60
736.17	261.19
736.50	260.78
736.83	260.48
737.16	260.09
737.49	259.66
737.82	259.25
738.15	258.87
738.48	258.48
738.81	258.09
739.14	257.70
739.47	257.36
739.80	257.00
740.13	256.64
740.46	256.25
740.79	255.82
741.12	255.47
741.45	255.09
741.78	254.70
742.11	254.31
742.44	253.91
742.77	253.61
743.10	253.25
743.43	252.87
743.75	252.42
744.08	252.20
744.41	251.88
744.74	251.55
745.07	251.18
745.40	250.90
745.73	250.61
746.06	250.30
746.39	249.96
746.71	249.61
747.04	249.26
747.37	248.95
747.70	248.69
748.03	248.40
748.36	248.14
748.68	247.84
749.01	247.58
749.34	247.33
749.67	247.05
750.00	246.78
750.33	246.56
750.65	246.30
750.98	245.92
751.31	245.67
751.64	245.41
751.97	245.23
752.29	244.95
752.62	244.69
752.95	244.43
753.28	244.18
753.60	243.96
753.93	243.78
754.26	243.55
754.59	243.29
754.91	243.04
755.24	242.78
755.57	242.57
755.90	242.33
756.22	242.07
756.55	241.83
756.88	241.59
757.20	241.33
757.53	241.09
757.86	240.89
758.19	240.69
758.51	240.52
758.84	240.27
759.17	240.05
759.49	239.86
759.82	239.71
760.15	239.53
760.47	239.36
760.80	239.14
761.13	239.03
761.45	238.84
761.78	238.63
762.11	238.49
762.43	238.31
762.76	238.16
763.08	238.05
763.41	237.90
763.74	237.76
764.06	237.60
764.39	237.47
764.71	237.31
765.04	237.16
765.37	237.00
765.69	236.85
766.02	236.75
766.34	236.60
766.67	236.42
767.00	236.33
767.32	236.24
767.65	236.17
767.97	235.99
768.30	235.86
768.62	235.77
768.95	235.64
769.27	235.53
769.60	235.41
769.92	235.25
770.25	235.15
770.57	235.01
770.90	234.89
771.22	234.75
771.55	234.66
771.87	234.52
772.20	234.44
772.52	234.43
772.85	234.43
773.17	234.32
773.50	234.23
773.82	234.10
774.15	233.94
774.47	233.78
774.80	233.69
775.12	233.62
775.45	233.52
775.77	233.40
776.09	233.30
776.42	233.19
776.74	233.13
777.07	233.02
777.39	232.94
777.72	232.84
778.04	232.77
778.36	232.66
778.69	232.60
779.01	232.51
779.33	232.34
779.66	232.14
779.98	232.08
780.31	232.01
780.63	231.99
780.95	231.93
781.28	231.87
781.60	231.75
781.92	231.67
782.25	231.58
782.57	231.52
782.89	231.45
783.22	231.39
783.54	231.30
783.86	231.24
784.19	231.16
784.51	231.13
784.83	231.07
785.16	231.02
785.48	230.93
785.80	230.88
786.12	230.82
786.45	230.76
786.77	230.73
787.09	230.65
787.42	230.54
787.74	230.51
788.06	230.43
788.38	230.43
788.71	230.36
789.03	230.33
789.35	230.27
789.67	230.22
789.99	230.20
790.32	230.15
790.64	230.09
790.96	230.12
791.28	230.04
791.61	229.96
791.93	229.93
792.25	229.90
792.57	229.94
792.89	229.86
793.21	229.83
793.54	229.76
793.86	229.67
794.18	229.58
794.50	229.50
794.82	229.47
795.14	229.40
795.47	229.38
795.79	229.34
796.11	229.28
796.43	229.25
796.75	229.18
797.07	229.15
797.39	229.13
797.71	229.04
798.04	229.00
798.36	228.99
798.68	228.93
799.00	228.91
799.32	228.81
799.64	228.80
799.96	228.74
800.28	228.71
800.60	228.70
800.92	228.72
801.24	228.68
801.56	228.61
801.89	228.59
802.21	228.53
802.53	228.47
802.85	228.48
803.17	228.48
803.49	228.44
803.81	228.39
804.13	228.33
804.45	228.30
804.77	228.27
805.09	228.19
805.41	228.14
805.73	228.09
806.05	228.02
806.37	227.96
806.69	227.91
807.01	227.90
807.33	227.89
807.65	227.84
807.97	227.91
808.28	227.90
808.60	227.87
808.92	227.83
809.24	227.86
809.56	227.80
809.88	227.74
810.20	227.67
810.52	227.72
810.84	227.70
811.16	227.63
811.48	227.60
811.80	227.65
812.12	227.64
812.43	227.63
812.75	227.63
813.07	227.61
813.39	227.62
813.71	227.58
814.03	227.56
814.35	227.54
814.67	227.42
814.98	227.39
815.30	227.37
815.62	227.33
815.94	227.23
816.26	227.26
816.58	227.22
816.89	227.23
817.21	227.15
817.53	227.14
817.85	227.11
818.17	227.09
818.48	226.99
818.80	226.99
819.12	226.95
819.44	226.91
819.76	226.90
820.07	226.87
820.39	226.83
820.71	226.80
821.03	226.74
821.34	226.75
821.66	226.76
821.98	226.75
822.30	226.77
822.61	226.81
822.93	226.73
823.25	226.74
823.57	226.70
823.88	226.68
824.20	226.66
824.52	226.67
824.83	226.68
825.15	226.68
825.47	226.66
825.79	226.67
826.10	226.66
826.42	226.64
826.74	226.63
827.05	226.61
827.37	226.60
827.69	226.61
828.00	226.56
828.32	226.54
828.64	226.51
828.95	226.50
829.27	226.48
829.58	226.50
829.90	226.51
830.22	226.50
830.53	226.51
830.85	226.48
831.17	226.45
831.48	226.42
831.80	226.45
832.11	226.41
832.43	226.38
832.75	226.35
833.06	226.41
833.38	226.40
833.69	226.39
834.01	226.38
834.32	226.38
834.64	226.40
834.96	226.39
835.27	226.39
835.59	226.41
835.90	226.37
836.22	226.34
836.53	226.31
836.85	226.27
837.16	226.33
837.48	226.32
837.79	226.38
838.11	226.37
838.42	226.35
838.74	226.36
839.05	226.34
839.37	226.32
839.68	226.26
840.00	226.24
840.31	226.27
840.63	226.26
840.94	226.22
841.26	226.22
841.57	226.19
841.88	226.18
842.20	226.13
842.51	226.09
842.83	226.11
843.14	226.22
843.46	226.25
843.77	226.23
844.08	226.26
844.40	226.19
844.71	226.19
845.03	226.17
845.34	226.17
845.65	226.19
845.97	226.20
846.28	226.15
846.60	226.15
846.91	226.12
847.22	226.11
847.54	226.12
847.85	226.10
848.16	226.09
848.48	226.09
848.79	226.12
849.10	226.11
849.42	226.10
849.73	225.96
850.04	225.94
850.36	225.88
850.67	225.87
850.98	225.89
851.30	225.87
851.61	225.85
851.92	225.86
852.23	225.91
852.55	225.89
852.86	225.91
853.17	225.88
853.49	225.90
853.80	225.88
854.11	225.89
854.42	225.88
854.74	225.87
855.05	225.86
855.36	225.82
855.67	225.86
855.99	225.83
856.30	225.95
856.61	225.96
856.92	225.95
857.23	225.92
857.55	225.90
857.86	225.91
858.17	225.89
858.48	225.86
858.79	225.82
859.11	225.83
859.42	225.82
859.73	225.81
860.04	225.75
860.35	225.75
860.66	225.72
860.98	225.71
861.29	225.69
861.60	225.67
861.91	225.66
862.22	225.60
862.53	225.58
862.84	225.48
863.16	225.48
863.47	225.44
863.78	225.39
864.09	225.38
864.40	225.38
864.71	225.39
865.02	225.37
865.33	225.30
865.64	225.28
865.95	225.26
866.27	225.33
866.58	225.32
866.89	225.31
867.20	225.29
867.51	225.29
867.82	225.30
868.13	225.30
868.44	225.28
868.75	225.32
869.06	225.32
869.37	225.32
869.68	225.26
869.99	225.27
870.30	225.33
870.61	225.31
870.92	225.27
871.23	225.25
871.54	225.27
871.85	225.32
872.16	225.34
872.47	225.34
872.78	225.28
873.09	225.31
873.40	225.31
873.71	225.35
874.02	225.36
874.33	225.36
874.64	225.37
874.95	225.40
875.26	225.38
875.56	225.40
875.87	225.36
876.18	225.38
876.49	225.50
876.80	225.48
877.11	225.51
877.42	225.52
877.73	225.51
878.04	225.52
878.35	225.51
878.66	225.50
878.96	225.51
879.27	225.50
879.58	225.51
879.89	225.50
880.20	225.51
880.51	225.48
880.82	225.50
881.12	225.51
881.43	225.50
881.74	225.47
882.05	225.47
882.36	225.48
882.67	225.51
882.97	225.37
883.28	225.37
883.59	225.37
883.90	225.35
884.21	225.39
884.51	225.40
884.82	225.40
885.13	225.41
885.44	225.37
885.74	225.40
886.05	225.38
886.36	225.39
886.67	225.34
886.98	225.38
887.28	225.36
887.59	225.35
887.90	225.39
888.20	225.41
888.51	225.42
888.82	225.41
889.13	225.44
889.43	225.51
889.74	225.51
890.05	225.50
890.35	225.51
890.66	225.50
890.97	225.46
891.28	225.41
891.58	225.43
891.89	225.45
892.20	225.42
892.50	225.40
892.81	225.41
893.12	225.42
893.42	225.41
893.73	225.41
894.04	225.39
894.34	225.36
894.65	225.36
894.95	225.32
895.26	225.32
895.57	225.30
895.87	225.24
896.18	225.28
896.48	225.27
896.79	225.30
897.10	225.27
897.40	225.27
897.71	225.31
898.01	225.27
898.32	225.27
898.63	225.28
898.93	225.28
899.24	225.27
899.54	225.29
899.85	225.28
900.15	225.28
900.46	225.27
900.76	225.23
901.07	225.23
901.38	225.22
901.68	225.23
901.99	225.20
902.29	225.20
902.60	225.17
902.90	225.15
903.21	225.11
903.51	225.11
903.82	225.12
904.12	225.12
904.43	225.15
904.73	225.15
905.03	225.16
905.34	225.27
905.64	225.24
905.95	225.20
906.25	225.19
906.56	225.16
906.86	225.17
907.17	225.16
907.47	225.15
907.77	225.15
908.08	225.13
908.38	225.14
908.69	225.11
908.99	225.11
909.30	225.11
909.60	225.12
909.90	225.11
910.21	225.12
910.51	225.10
910.81	225.08
911.12	225.06
911.42	225.04
911.73	224.93
912.03	224.96
912.33	224.98
912.64	224.98
912.94	225.01
913.24	224.98
913.55	224.99
913.85	224.98
914.15	225.02
914.46	225.01
914.76	225.02
915.06	225.05
915.37	225.04
915.67	225.02
915.97	225.04
916.27	225.04
916.58	225.06
916.88	225.04
917.18	225.04
917.49	225.10
917.79	225.10
918.09	225.12
918.39	225.14
918.70	225.14
919.00	225.16
919.30	225.21
919.60	225.21
919.91	225.23
920.21	225.25
920.51	225.23
920.81	225.25
921.12	225.27
921.42	225.27
921.72	225.28
922.02	225.29
922.32	225.28
922.63	225.33
922.93	225.36
923.23	225.36
923.53	225.37
923.83	225.31
924.13	225.32
924.44	225.32
924.74	225.32
925.04	225.32
925.34	225.33
925.64	225.28
925.94	225.28
926.24	225.33
926.55	225.31
926.85	225.31
927.15	225.29
927.45	225.29
927.75	225.28
928.05	225.31
928.35	225.30
928.65	225.33
928.95	225.30
929.26	225.26
929.56	225.31
929.86	225.31
930.16	225.33
930.46	225.33
930.76	225.34
931.06	225.33
931.36	225.31
931.66	225.33
931.96	225.36
932.26	225.41
932.56	225.37
932.86	225.39
933.16	225.38
933.46	225.37
933.76	225.38
934.06	225.42
934.36	225.44
934.66	225.42
934.96	225.39
935.26	225.40
935.56	225.39
935.86	225.34
936.16	225.33
936.46	225.32
936.76	225.28
937.06	225.23
937.36	225.23
937.66	225.19
937.96	225.15
938.26	225.13
938.56	225.06
938.86	225.03
939.16	225.02
939.46	225.01
939.76	225.01
940.06	224.96
940.35	224.88
940.65	224.82
940.95	224.82
941.25	224.79
941.55	224.80
941.85	224.77
942.15	224.81
942.45	224.79
942.75	224.76
943.04	224.76
943.34	224.79
943.64	224.78
943.94	224.77
944.24	224.76
944.54	224.74
944.84	224.78
945.13	224.78
945.43	224.78
945.73	224.78
946.03	224.76
946.33	224.75
946.62	224.78
946.92	224.79
947.22	224.78
947.52	224.77
947.82	224.74
948.11	224.74
948.41	224.70
948.71	224.68
949.01	224.68
949.31	224.70
949.60	224.69
949.90	224.69
950.20	224.71
950.50	224.70
950.79	224.70
951.09	224.70
951.39	224.70
951.69	224.68
951.98	224.71
952.28	224.73
952.58	224.75
952.87	224.72
953.17	224.74
953.47	224.73
953.76	224.73
954.06	224.71
954.36	224.68
954.66	224.68
954.95	224.73
955.25	224.74
955.55	224.73
955.84	224.72
956.14	224.73
956.44	224.72
956.73	224.71
957.03	224.68
957.32	224.66
957.62	224.65
957.92	224.67
958.21	224.66
958.51	224.75
958.81	224.75
959.10	224.76
959.40	224.76
959.69	224.79
959.99	224.82
960.29	224.79
960.58	224.81
960.88	224.84
961.17	224.81
961.47	224.82
961.76	224.82
962.06	224.85
962.36	224.85
962.65	224.87
962.95	224.91
963.24	224.91
963.54	224.93
963.83	224.93
964.13	224.90
964.42	224.86
964.72	224.81
965.01	224.83
965.31	224.83
965.60	224.84
965.90	224.90
966.19	224.86
966.49	224.90
966.78	224.90
967.08	224.89
967.37	224.89
967.67	224.88
967.96	224.90
968.26	224.87
968.55	224.89
968.85	224.89
969.14	224.85
969.43	224.88
969.73	224.87
970.02	224.85
970.32	224.86
970.61	224.86
970.91	224.81
971.20	224.79
971.49	224.75
971.79	224.76
972.08	224.67
972.38	224.71
972.67	224.71
972.96	224.75
973.26	224.70
973.55	224.77
973.85	224.76
974.14	224.76
974.43	224.77
974.73	224.75
975.02	224.73
975.31	224.73
975.61	224.72
975.90	224.72
976.19	224.72
976.49	224.75
976.78	224.76
977.07	224.77
977.37	224.77
977.66	224.80
977.95	224.76
978.24	224.79
978.54	224.82
978.83	224.81
979.12	224.78
979.42	224.82
979.71	224.79
980.00	224.78
980.29	224.80
980.59	224.81
980.88	224.82
981.17	224.82
981.46	224.83
981.76	224.82
982.05	224.83
982.34	224.87
982.63	224.85
982.93	224.88
983.22	224.90
983.51	224.87
983.80	224.90
984.09	224.90
984.39	224.87
984.68	224.84
984.97	224.81
985.26	224.80
985.55	224.80
985.85	224.73
986.14	224.74
986.43	224.72
986.72	224.70
987.01	224.67
987.30	224.68
987.59	224.67
987.89	224.67
988.18	224.68
988.47	224.65
988.76	224.65
989.05	224.64
989.34	224.61
989.63	224.64
989.92	224.63
990.22	224.61
990.51	224.64
990.80	224.65
991.09	224.67
991.38	224.68
991.67	224.67
991.96	224.68
992.25	224.70
992.54	224.68
992.83	224.68
993.12	224.72
993.41	224.73
993.70	224.76
993.99	224.79
994.28	224.76
994.58	224.80
994.87	224.82
995.16	224.78
995.45	224.79
995.74	224.79
996.03	224.77
996.32	224.82
996.61	224.83
996.90	224.79
997.19	224.80
997.48	224.81
997.77	224.79
998.06	224.80
998.34	224.81
998.63	224.84
998.92	224.83
999.21	224.83
999.50	224.85
999.79	224.81
1000.08	224.83
1000.37	224.84
1000.66	224.82
1000.95	224.80
1001.24	224.86
1001.53	224.90
1001.82	224.89
1002.11	224.91
1002.40	224.90
1002.68	224.91
1002.97	225.02
1003.26	225.06
1003.55	225.03
1003.84	225.06
1004.13	225.09
1004.42	225.04
1004.71	225.02
1004.99	225.05
1005.28	225.04
1005.57	225.02
1005.86	225.02
1006.15	224.99
1006.44	224.97
1006.72	224.97
1007.01	224.98
1007.30	224.94
1007.59	224.92
1007.88	224.90
1008.17	224.88
1008.45	224.85
1008.74	224.81
1009.03	224.72
1009.32	224.68
1009.60	224.69
1009.89	224.69
1010.18	224.65
1010.47	224.68
1010.76	224.65
1011.04	224.61
1011.33	224.60
1011.62	224.62
1011.91	224.64
1012.19	224.63
1012.48	224.64
1012.77	224.64
1013.05	224.68
1013.34	224.72
1013.63	224.70
1013.92	224.70
1014.20	224.72
1014.49	224.71
1014.78	224.75
1015.06	224.74
1015.35	224.75
1015.64	224.74
1015.92	224.70
1016.21	224.73
1016.50	224.74
1016.78	224.75
1017.07	224.79
1017.36	224.79
1017.64	224.78
1017.93	224.76
1018.22	224.76
1018.50	224.75
1018.79	224.73
1019.08	224.70
1019.36	224.66
1019.65	224.65
1019.93	224.68
1020.22	224.69
1020.51	224.80
1020.79	224.74
1021.08	224.75
1021.36	224.37
1021.65	224.58
1021.94	224.85
1022.22	224.50
1022.51	224.41
1022.79	225.28
1023.08	224.99
1023.36	226.40
1023.65	223.97
>>>>>End Processed Spectral Data<<<<<
