SpectraSuite Data File
++++++++++++++++++++++++++++++++++++
Date: Fri Feb 01 16:52:48 EST 2013
User: group
Dark Spectrum Present: No
Reference Spectrum Present: No
Number of Sampled Component Spectra: 1
Spectrometers: USB2E7196
Integration Time (usec): 35000 (USB2E7196)
Spectra Averaged: 100 (USB2E7196)
Boxcar Smoothing: 10 (USB2E7196)
Correct for Electrical Dark: No (USB2E7196)
Strobe/Lamp Enabled: No (USB2E7196)
Correct for Detector Non-linearity: No (USB2E7196)
Correct for Stray Light: No (USB2E7196)
Number of Pixels in Processed Spectrum: 2048
>>>>>Begin Processed Spectral Data<<<<<
339.09	0.00
339.48	213.24
339.86	214.02
340.24	216.10
340.63	217.14
341.01	219.42
341.39	219.63
341.78	221.46
342.16	222.27
342.54	223.09
342.93	211.35
343.31	222.04
343.69	222.56
344.07	223.05
344.46	223.46
344.84	223.85
345.22	224.13
345.60	224.41
345.99	224.60
346.37	224.76
346.75	224.87
347.13	224.96
347.52	225.03
347.90	225.09
348.28	225.18
348.66	225.19
349.05	225.20
349.43	225.27
349.81	225.37
350.19	225.44
350.57	225.51
350.96	225.58
351.34	225.65
351.72	225.73
352.10	225.82
352.48	225.92
352.87	225.97
353.25	226.04
353.63	226.08
354.01	226.14
354.39	226.25
354.77	226.34
355.15	226.49
355.54	226.58
355.92	226.67
356.30	226.73
356.68	226.86
357.06	226.92
357.44	226.95
357.82	227.01
358.20	227.11
358.58	227.21
358.97	227.27
359.35	227.38
359.73	227.48
360.11	227.56
360.49	227.60
360.87	227.64
361.25	227.70
361.63	227.81
362.01	227.91
362.39	227.91
362.77	227.95
363.15	227.92
363.53	227.94
363.91	227.99
364.29	227.99
364.67	227.95
365.05	227.99
365.43	228.05
365.81	228.08
366.19	228.14
366.57	228.18
366.95	228.22
367.33	228.17
367.71	228.17
368.09	228.19
368.47	228.20
368.85	228.21
369.23	228.23
369.61	228.15
369.99	228.13
370.37	228.11
370.75	228.16
371.13	228.09
371.51	228.03
371.89	227.95
372.27	227.93
372.65	227.90
373.03	227.84
373.41	227.75
373.78	227.66
374.16	227.56
374.54	227.45
374.92	227.38
375.30	227.34
375.68	227.26
376.06	227.19
376.44	227.11
376.82	227.06
377.19	226.99
377.57	226.93
377.95	226.82
378.33	226.73
378.71	226.57
379.09	226.54
379.47	226.52
379.84	226.44
380.22	226.33
380.60	226.21
380.98	226.14
381.36	226.09
381.73	226.05
382.11	225.96
382.49	225.89
382.87	225.83
383.25	225.78
383.62	225.82
384.00	225.73
384.38	225.70
384.76	225.66
385.13	225.63
385.51	225.57
385.89	225.51
386.27	225.45
386.64	225.44
387.02	225.38
387.40	225.33
387.78	225.32
388.15	225.31
388.53	225.30
388.91	225.26
389.29	225.22
389.66	225.18
390.04	225.16
390.42	225.16
390.79	225.14
391.17	225.12
391.55	224.98
391.92	224.98
392.30	224.99
392.68	224.97
393.05	224.93
393.43	224.92
393.81	224.94
394.18	224.94
394.56	224.94
394.94	224.97
395.31	224.96
395.69	224.97
396.06	225.00
396.44	225.01
396.82	225.00
397.19	225.08
397.57	225.11
397.95	225.19
398.32	225.19
398.70	225.23
399.07	225.27
399.45	225.35
399.82	225.39
400.20	225.42
400.58	225.46
400.95	225.47
401.33	225.58
401.70	225.71
402.08	225.81
402.45	225.94
402.83	226.04
403.20	226.15
403.58	226.27
403.95	226.40
404.33	226.52
404.71	226.67
405.08	226.82
405.46	226.92
405.83	227.05
406.21	227.22
406.58	227.36
406.96	227.54
407.33	227.72
407.70	227.93
408.08	228.20
408.45	228.44
408.83	228.72
409.20	228.89
409.58	229.04
409.95	229.30
410.33	229.52
410.70	229.76
411.08	230.05
411.45	230.33
411.82	230.60
412.20	230.94
412.57	231.35
412.95	231.62
413.32	232.05
413.69	232.45
414.07	232.87
414.44	233.33
414.82	233.77
415.19	234.31
415.56	234.83
415.94	235.34
416.31	235.94
416.68	236.55
417.06	237.27
417.43	237.97
417.81	238.71
418.18	239.51
418.55	240.32
418.93	241.17
419.30	242.04
419.67	243.01
420.04	243.97
420.42	244.95
420.79	246.15
421.16	247.28
421.54	248.46
421.91	249.66
422.28	250.92
422.66	252.24
423.03	253.55
423.40	254.87
423.77	256.30
424.15	257.69
424.52	259.15
424.89	260.74
425.26	262.28
425.64	263.73
426.01	265.31
426.38	266.96
426.75	268.60
427.13	270.33
427.50	272.12
427.87	274.00
428.24	275.89
428.61	277.62
428.99	279.54
429.36	281.62
429.73	283.63
430.10	285.59
430.47	287.65
430.85	289.73
431.22	291.95
431.59	294.29
431.96	296.56
432.33	299.05
432.70	301.43
433.08	304.21
433.45	306.80
433.82	309.39
434.19	312.30
434.56	315.13
434.93	317.76
435.30	320.31
435.68	323.14
436.05	325.87
436.42	328.64
436.79	331.15
437.16	333.80
437.53	336.65
437.90	339.43
438.27	342.17
438.64	344.99
439.01	347.57
439.38	349.81
439.75	351.95
440.13	354.40
440.50	356.71
440.87	358.56
441.24	360.49
441.61	362.63
441.98	364.11
442.35	365.87
442.72	367.70
443.09	369.53
443.46	370.52
443.83	371.12
444.20	371.63
444.57	372.47
444.94	372.79
445.31	373.16
445.68	373.55
446.05	373.60
446.42	373.22
446.79	372.83
447.16	372.41
447.53	372.11
447.90	370.97
448.27	369.84
448.64	368.25
449.01	367.13
449.37	365.16
449.74	363.23
450.11	360.99
450.48	358.58
450.85	356.08
451.22	354.02
451.59	352.04
451.96	350.17
452.33	347.58
452.70	345.26
453.07	342.44
453.43	339.54
453.80	336.83
454.17	334.18
454.54	331.64
454.91	328.93
455.28	326.27
455.65	323.82
456.02	321.42
456.38	319.33
456.75	316.71
457.12	314.50
457.49	312.30
457.86	310.16
458.23	308.34
458.59	306.34
458.96	304.25
459.33	302.42
459.70	300.50
460.07	299.02
460.43	297.32
460.80	295.71
461.17	294.31
461.54	292.83
461.91	291.40
462.27	289.96
462.64	288.69
463.01	287.37
463.38	286.06
463.74	284.71
464.11	283.52
464.48	282.51
464.85	281.39
465.21	280.58
465.58	279.70
465.95	278.58
466.32	277.64
466.68	276.76
467.05	275.86
467.42	275.01
467.78	274.08
468.15	273.20
468.52	272.54
468.88	271.68
469.25	270.93
469.62	270.33
469.98	269.67
470.35	269.09
470.72	268.49
471.08	267.89
471.45	267.34
471.82	266.79
472.18	266.23
472.55	265.85
472.92	265.28
473.28	264.82
473.65	264.42
474.02	264.01
474.38	263.62
474.75	263.30
475.11	262.96
475.48	262.72
475.85	262.51
476.21	262.29
476.58	262.13
476.94	262.03
477.31	261.84
477.67	261.73
478.04	261.61
478.41	261.55
478.77	261.57
479.14	261.53
479.50	261.59
479.87	261.68
480.23	261.73
480.60	261.82
480.96	261.90
481.33	262.07
481.69	262.27
482.06	262.50
482.42	262.73
482.79	263.04
483.15	263.37
483.52	263.77
483.88	264.15
484.25	264.55
484.61	264.98
484.98	265.45
485.34	266.02
485.71	266.66
486.07	267.30
486.44	267.90
486.80	268.64
487.17	269.37
487.53	270.21
487.90	271.10
488.26	272.03
488.62	273.07
488.99	274.06
489.35	275.11
489.72	276.26
490.08	277.46
490.44	278.68
490.81	279.99
491.17	281.37
491.54	282.83
491.90	284.34
492.26	285.96
492.63	287.73
492.99	289.47
493.36	291.34
493.72	293.35
494.08	295.43
494.45	297.64
494.81	300.00
495.17	302.38
495.54	304.94
495.90	307.65
496.26	310.43
496.63	313.38
496.99	316.47
497.35	319.71
497.72	323.15
498.08	326.66
498.44	330.33
498.80	334.18
499.17	338.22
499.53	342.40
499.89	346.73
500.26	351.20
500.62	355.87
500.98	360.85
501.34	365.93
501.71	371.25
502.07	376.67
502.43	382.29
502.79	388.08
503.16	394.07
503.52	400.30
503.88	406.65
504.24	413.29
504.60	420.15
504.97	427.21
505.33	434.46
505.69	442.14
506.05	449.95
506.41	457.77
506.78	465.88
507.14	474.33
507.50	483.02
507.86	492.00
508.22	501.11
508.59	510.21
508.95	519.68
509.31	529.41
509.67	539.41
510.03	549.60
510.39	560.09
510.75	570.79
511.12	581.59
511.48	592.81
511.84	604.19
512.20	615.51
512.56	627.39
512.92	639.45
513.28	651.62
513.64	663.90
514.00	676.55
514.37	689.38
514.73	702.28
515.09	715.15
515.45	728.31
515.81	741.76
516.17	755.54
516.53	769.55
516.89	783.60
517.25	797.65
517.61	811.88
517.97	826.12
518.33	840.47
518.69	855.06
519.05	869.89
519.41	884.85
519.77	900.22
520.13	915.41
520.49	930.62
520.85	945.87
521.21	961.51
521.57	977.47
521.93	992.93
522.29	1009.07
522.65	1025.10
523.01	1040.94
523.37	1056.77
523.73	1072.81
524.09	1088.66
524.45	1104.65
524.81	1121.06
525.17	1137.63
525.53	1154.33
525.89	1170.87
526.25	1187.55
526.61	1203.64
526.97	1220.06
527.33	1236.39
527.68	1252.78
528.04	1268.97
528.40	1285.27
528.76	1301.97
529.12	1318.39
529.48	1335.16
529.84	1350.95
530.20	1367.33
530.56	1384.14
530.91	1401.33
531.27	1417.86
531.63	1434.18
531.99	1450.50
532.35	1466.21
532.71	1481.92
533.07	1497.84
533.42	1513.57
533.78	1529.33
534.14	1545.42
534.50	1560.68
534.86	1576.17
535.21	1591.15
535.57	1606.75
535.93	1621.94
536.29	1636.52
536.65	1651.19
537.00	1665.39
537.36	1680.47
537.72	1694.81
538.08	1709.00
538.44	1722.49
538.79	1736.11
539.15	1749.39
539.51	1762.95
539.87	1776.98
540.22	1790.50
540.58	1804.00
540.94	1816.97
541.29	1829.67
541.65	1842.05
542.01	1854.92
542.37	1867.17
542.72	1879.37
543.08	1891.03
543.44	1903.35
543.79	1914.42
544.15	1925.37
544.51	1937.07
544.87	1947.81
545.22	1958.42
545.58	1968.48
545.94	1977.99
546.29	1987.63
546.65	1997.47
547.01	2006.69
547.36	2015.30
547.72	2023.61
548.07	2031.47
548.43	2039.57
548.79	2047.35
549.14	2054.85
549.50	2061.99
549.86	2069.52
550.21	2076.75
550.57	2083.82
550.92	2090.22
551.28	2097.14
551.64	2104.10
551.99	2110.44
552.35	2116.58
552.70	2122.84
553.06	2128.91
553.41	2135.37
553.77	2141.33
554.13	2147.26
554.48	2153.29
554.84	2158.84
555.19	2164.04
555.55	2169.24
555.90	2173.75
556.26	2178.68
556.61	2183.34
556.97	2187.81
557.32	2192.06
557.68	2196.05
558.03	2200.41
558.39	2204.14
558.74	2209.00
559.10	2212.85
559.45	2216.67
559.81	2220.81
560.16	2224.49
560.52	2227.76
560.87	2231.19
561.23	2233.95
561.58	2236.97
561.94	2239.55
562.29	2241.77
562.64	2244.66
563.00	2247.21
563.35	2250.72
563.71	2254.03
564.06	2257.28
564.42	2260.23
564.77	2262.87
565.12	2265.48
565.48	2267.64
565.83	2269.77
566.19	2271.06
566.54	2272.20
566.89	2273.33
567.25	2274.31
567.60	2275.81
567.96	2277.63
568.31	2278.49
568.66	2279.84
569.02	2280.58
569.37	2281.09
569.72	2282.28
570.08	2282.58
570.43	2282.70
570.78	2282.51
571.14	2281.13
571.49	2279.96
571.84	2279.70
572.20	2278.70
572.55	2277.81
572.90	2276.21
573.26	2274.90
573.61	2273.27
573.96	2271.74
574.31	2269.00
574.67	2266.17
575.02	2262.69
575.37	2259.30
575.72	2255.76
576.08	2252.42
576.43	2249.30
576.78	2245.85
577.13	2242.77
577.49	2239.71
577.84	2236.55
578.19	2232.77
578.54	2229.35
578.90	2225.50
579.25	2220.15
579.60	2215.32
579.95	2210.48
580.30	2205.59
580.66	2200.78
581.01	2196.09
581.36	2191.30
581.71	2187.31
582.06	2182.85
582.42	2178.48
582.77	2173.61
583.12	2169.33
583.47	2164.94
583.82	2159.99
584.17	2154.86
584.53	2149.60
584.88	2144.14
585.23	2138.58
585.58	2133.32
585.93	2127.88
586.28	2123.11
586.63	2118.13
586.98	2113.21
587.34	2108.60
587.69	2103.91
588.04	2098.70
588.39	2093.13
588.74	2086.89
589.09	2080.82
589.44	2074.34
589.79	2068.51
590.14	2062.99
590.49	2056.50
590.84	2050.30
591.19	2044.50
591.54	2038.28
591.89	2031.09
592.25	2024.43
592.60	2017.23
592.95	2009.78
593.30	2002.62
593.65	1995.25
594.00	1988.36
594.35	1981.27
594.70	1973.36
595.05	1966.37
595.40	1959.03
595.75	1951.66
596.10	1945.52
596.45	1939.00
596.80	1932.99
597.15	1926.55
597.50	1919.50
597.85	1913.06
598.19	1906.39
598.54	1899.51
598.89	1892.85
599.24	1887.03
599.59	1880.63
599.94	1874.53
600.29	1868.34
600.64	1861.78
600.99	1854.46
601.34	1847.93
601.69	1840.98
602.04	1834.23
602.39	1826.96
602.74	1820.27
603.08	1813.66
603.43	1806.91
603.78	1799.62
604.13	1792.36
604.48	1785.16
604.83	1778.45
605.18	1771.77
605.53	1763.95
605.87	1755.91
606.22	1748.84
606.57	1741.04
606.92	1733.67
607.27	1726.71
607.62	1719.90
607.96	1712.79
608.31	1706.29
608.66	1698.65
609.01	1691.32
609.36	1683.83
609.70	1675.85
610.05	1667.92
610.40	1660.28
610.75	1652.09
611.10	1644.57
611.44	1636.26
611.79	1628.36
612.14	1619.76
612.49	1610.52
612.83	1602.05
613.18	1593.96
613.53	1585.81
613.88	1577.31
614.22	1569.05
614.57	1560.29
614.92	1552.27
615.27	1544.82
615.61	1536.56
615.96	1528.48
616.31	1520.82
616.65	1513.44
617.00	1505.97
617.35	1498.35
617.70	1490.07
618.04	1481.57
618.39	1473.33
618.74	1465.75
619.08	1457.41
619.43	1449.71
619.78	1442.86
620.12	1435.82
620.47	1428.35
620.82	1420.17
621.16	1412.67
621.51	1405.13
621.85	1397.63
622.20	1389.11
622.55	1380.65
622.89	1372.80
623.24	1365.25
623.59	1357.79
623.93	1350.29
624.28	1343.14
624.62	1335.58
624.97	1328.39
625.32	1321.59
625.66	1314.59
626.01	1307.49
626.35	1300.05
626.70	1292.45
627.04	1284.66
627.39	1276.80
627.73	1269.35
628.08	1262.53
628.43	1255.34
628.77	1247.91
629.12	1240.35
629.46	1233.19
629.81	1225.84
630.15	1218.49
630.50	1211.00
630.84	1202.87
631.19	1194.95
631.53	1187.39
631.88	1179.90
632.22	1172.29
632.57	1165.01
632.91	1157.52
633.26	1150.15
633.60	1142.83
633.95	1135.70
634.29	1128.67
634.64	1122.11
634.98	1114.84
635.32	1107.68
635.67	1101.03
636.01	1094.42
636.36	1087.72
636.70	1081.21
637.05	1074.64
637.39	1068.26
637.73	1061.80
638.08	1055.94
638.42	1049.97
638.77	1043.50
639.11	1036.89
639.45	1030.48
639.80	1023.90
640.14	1017.40
640.49	1010.82
640.83	1004.46
641.17	998.25
641.52	991.92
641.86	985.38
642.20	979.52
642.55	973.19
642.89	966.74
643.23	960.18
643.58	954.44
643.92	948.30
644.26	942.38
644.61	936.26
644.95	930.28
645.29	923.73
645.64	917.02
645.98	910.66
646.32	904.82
646.66	898.79
647.01	893.01
647.35	887.43
647.69	881.65
648.04	876.14
648.38	870.33
648.72	864.43
649.06	858.46
649.41	852.56
649.75	846.60
650.09	840.70
650.43	834.98
650.78	828.80
651.12	822.84
651.46	817.01
651.80	811.44
652.14	806.07
652.49	800.71
652.83	795.48
653.17	789.87
653.51	784.24
653.85	778.88
654.20	773.28
654.54	767.25
654.88	761.42
655.22	755.56
655.56	749.84
655.90	744.37
656.25	739.15
656.59	733.80
656.93	728.73
657.27	723.57
657.61	718.08
657.95	712.99
658.29	707.83
658.64	702.61
658.98	697.25
659.32	691.78
659.66	686.58
660.00	681.33
660.34	676.43
660.68	671.45
661.02	666.42
661.36	661.65
661.70	657.14
662.05	652.84
662.39	648.56
662.73	644.20
663.07	639.83
663.41	635.42
663.75	630.93
664.09	626.36
664.43	621.99
664.77	617.99
665.11	613.76
665.45	609.64
665.79	605.54
666.13	601.39
666.47	597.28
666.81	593.11
667.15	589.02
667.49	585.04
667.83	581.30
668.17	577.39
668.51	573.36
668.85	569.34
669.19	565.47
669.53	561.63
669.87	557.76
670.21	554.09
670.55	550.36
670.89	547.02
671.23	543.61
671.57	540.04
671.91	536.46
672.25	532.95
672.58	529.44
672.92	526.06
673.26	522.90
673.60	519.79
673.94	516.72
674.28	513.78
674.62	510.93
674.96	507.78
675.30	504.86
675.64	501.89
675.97	499.10
676.31	496.26
676.65	493.30
676.99	490.54
677.33	487.66
677.67	484.87
678.01	481.82
678.34	478.88
678.68	476.01
679.02	473.20
679.36	470.48
679.70	467.82
680.04	465.07
680.37	462.15
680.71	459.37
681.05	456.71
681.39	453.96
681.73	451.25
682.06	448.78
682.40	446.22
682.74	443.70
683.08	441.18
683.42	438.57
683.75	436.08
684.09	433.53
684.43	431.07
684.77	428.64
685.10	426.27
685.44	423.94
685.78	421.69
686.12	419.43
686.45	417.08
686.79	414.72
687.13	412.49
687.46	410.36
687.80	408.19
688.14	405.93
688.48	403.96
688.81	401.70
689.15	399.54
689.49	397.44
689.82	395.33
690.16	393.20
690.50	391.25
690.83	389.40
691.17	387.47
691.51	385.52
691.84	383.64
692.18	381.71
692.52	379.70
692.85	377.73
693.19	375.86
693.52	374.05
693.86	372.26
694.20	370.47
694.53	368.69
694.87	366.88
695.21	365.14
695.54	363.26
695.88	361.54
696.21	359.82
696.55	358.12
696.88	356.46
697.22	354.83
697.56	353.20
697.89	351.51
698.23	349.87
698.56	348.31
698.90	346.73
699.23	345.11
699.57	343.63
699.90	342.12
700.24	340.56
700.58	339.03
700.91	337.53
701.25	336.08
701.58	334.70
701.92	333.33
702.25	331.98
702.59	330.62
702.92	329.29
703.26	327.94
703.59	326.65
703.93	325.49
704.26	324.28
704.60	322.97
704.93	321.64
705.26	320.40
705.60	319.16
705.93	317.98
706.27	316.95
706.60	315.87
706.94	314.78
707.27	313.69
707.61	312.63
707.94	311.58
708.27	310.51
708.61	309.40
708.94	308.39
709.28	307.39
709.61	306.44
709.94	305.49
710.28	304.46
710.61	303.48
710.95	302.36
711.28	301.41
711.61	300.48
711.95	299.62
712.28	298.66
712.61	297.69
712.95	296.80
713.28	295.91
713.61	294.96
713.95	294.12
714.28	293.28
714.61	292.45
714.95	291.61
715.28	290.74
715.61	289.89
715.95	289.02
716.28	288.17
716.61	287.32
716.95	286.48
717.28	285.80
717.61	285.02
717.94	284.26
718.28	283.44
718.61	282.72
718.94	281.97
719.27	281.32
719.61	280.70
719.94	280.02
720.27	279.31
720.60	278.66
720.94	278.00
721.27	277.36
721.60	276.75
721.93	276.19
722.27	275.66
722.60	275.09
722.93	274.50
723.26	273.96
723.59	273.36
723.93	272.79
724.26	272.23
724.59	271.69
724.92	271.19
725.25	270.75
725.59	270.22
725.92	269.72
726.25	269.18
726.58	268.70
726.91	268.19
727.24	267.71
727.57	267.23
727.91	266.74
728.24	266.30
728.57	265.80
728.90	265.30
729.23	264.80
729.56	264.38
729.89	263.90
730.22	263.41
730.55	262.98
730.89	262.59
731.22	262.14
731.55	261.68
731.88	261.26
732.21	260.80
732.54	260.35
732.87	259.95
733.20	259.56
733.53	259.15
733.86	258.74
734.19	258.36
734.52	257.98
734.85	257.64
735.18	257.20
735.51	256.85
735.84	256.52
736.17	256.19
736.50	255.77
736.83	255.57
737.16	255.22
737.49	254.92
737.82	254.54
738.15	254.18
738.48	253.83
738.81	253.50
739.14	253.16
739.47	252.86
739.80	252.52
740.13	252.24
740.46	251.90
740.79	251.58
741.12	251.25
741.45	250.95
741.78	250.60
742.11	250.36
742.44	250.00
742.77	249.68
743.10	249.35
743.43	249.06
743.75	248.62
744.08	248.48
744.41	248.20
744.74	247.95
745.07	247.67
745.40	247.46
745.73	247.22
746.06	246.93
746.39	246.67
746.71	246.42
747.04	246.12
747.37	245.84
747.70	245.62
748.03	245.36
748.36	245.12
748.68	244.88
749.01	244.62
749.34	244.40
749.67	244.15
750.00	243.94
750.33	243.79
750.65	243.61
750.98	243.29
751.31	243.06
751.64	242.86
751.97	242.70
752.29	242.44
752.62	242.18
752.95	241.94
753.28	241.73
753.60	241.54
753.93	241.36
754.26	241.20
754.59	240.95
754.91	240.76
755.24	240.53
755.57	240.36
755.90	240.16
756.22	239.97
756.55	239.77
756.88	239.56
757.20	239.36
757.53	239.14
757.86	238.91
758.19	238.75
758.51	238.57
758.84	238.37
759.17	238.19
759.49	238.07
759.82	238.00
760.15	237.85
760.47	237.66
760.80	237.49
761.13	237.36
761.45	237.25
761.78	237.09
762.11	236.99
762.43	236.85
762.76	236.69
763.08	236.55
763.41	236.46
763.74	236.32
764.06	236.17
764.39	236.04
764.71	235.92
765.04	235.77
765.37	235.63
765.69	235.50
766.02	235.40
766.34	235.25
766.67	235.07
767.00	234.96
767.32	234.93
767.65	234.87
767.97	234.73
768.30	234.62
768.62	234.52
768.95	234.38
769.27	234.27
769.60	234.19
769.92	234.10
770.25	233.98
770.57	233.89
770.90	233.79
771.22	233.67
771.55	233.57
771.87	233.50
772.20	233.40
772.52	233.39
772.85	233.39
773.17	233.30
773.50	233.22
773.82	233.13
774.15	232.98
774.47	232.84
774.80	232.74
775.12	232.65
775.45	232.54
775.77	232.45
776.09	232.37
776.42	232.27
776.74	232.22
777.07	232.11
777.39	232.02
777.72	231.92
778.04	231.88
778.36	231.80
778.69	231.75
779.01	231.70
779.33	231.53
779.66	231.36
779.98	231.28
780.31	231.20
780.63	231.18
780.95	231.13
781.28	231.06
781.60	231.00
781.92	230.92
782.25	230.85
782.57	230.82
782.89	230.75
783.22	230.69
783.54	230.63
783.86	230.60
784.19	230.56
784.51	230.53
784.83	230.46
785.16	230.42
785.48	230.33
785.80	230.26
786.12	230.23
786.45	230.18
786.77	230.12
787.09	230.10
787.42	229.99
787.74	229.93
788.06	229.91
788.38	229.86
788.71	229.87
789.03	229.85
789.35	229.81
789.67	229.78
789.99	229.74
790.32	229.67
790.64	229.65
790.96	229.67
791.28	229.60
791.61	229.56
791.93	229.54
792.25	229.52
792.57	229.50
792.89	229.46
793.21	229.43
793.54	229.39
793.86	229.35
794.18	229.33
794.50	229.29
794.82	229.25
795.14	229.23
795.47	229.18
795.79	229.15
796.11	229.10
796.43	229.07
796.75	229.02
797.07	228.99
797.39	228.94
797.71	228.84
798.04	228.80
798.36	228.75
798.68	228.72
799.00	228.69
799.32	228.63
799.64	228.60
799.96	228.57
800.28	228.58
800.60	228.54
800.92	228.50
801.24	228.48
801.56	228.43
801.89	228.40
802.21	228.39
802.53	228.32
802.85	228.30
803.17	228.29
803.49	228.28
803.81	228.23
804.13	228.21
804.45	228.19
804.77	228.21
805.09	228.19
805.41	228.14
805.73	228.07
806.05	228.00
806.37	227.96
806.69	227.92
807.01	227.86
807.33	227.82
807.65	227.76
807.97	227.78
808.28	227.76
808.60	227.74
808.92	227.66
809.24	227.71
809.56	227.66
809.88	227.62
810.20	227.56
810.52	227.58
810.84	227.54
811.16	227.49
811.48	227.44
811.80	227.47
812.12	227.45
812.43	227.47
812.75	227.47
813.07	227.44
813.39	227.43
813.71	227.40
814.03	227.37
814.35	227.34
814.67	227.27
814.98	227.23
815.30	227.20
815.62	227.19
815.94	227.11
816.26	227.15
816.58	227.12
816.89	227.12
817.21	227.07
817.53	227.03
817.85	227.00
818.17	226.98
818.48	226.90
818.80	226.91
819.12	226.88
819.44	226.87
819.76	226.84
820.07	226.84
820.39	226.83
820.71	226.85
821.03	226.89
821.34	226.87
821.66	226.89
821.98	226.88
822.30	226.81
822.61	226.87
822.93	226.78
823.25	226.77
823.57	226.79
823.88	226.81
824.20	226.82
824.52	226.83
824.83	226.84
825.15	226.84
825.47	226.84
825.79	226.82
826.10	226.81
826.42	226.84
826.74	226.83
827.05	226.82
827.37	226.81
827.69	226.77
828.00	226.78
828.32	226.77
828.64	226.76
828.95	226.87
829.27	226.83
829.58	226.86
829.90	226.84
830.22	226.80
830.53	226.76
830.85	226.75
831.17	226.73
831.48	226.74
831.80	226.72
832.11	226.68
832.43	226.67
832.75	226.67
833.06	226.69
833.38	226.66
833.69	226.64
834.01	226.64
834.32	226.66
834.64	226.64
834.96	226.67
835.27	226.65
835.59	226.61
835.90	226.58
836.22	226.56
836.53	226.56
836.85	226.59
837.16	226.68
837.48	226.70
837.79	226.72
838.11	226.71
838.42	226.71
838.74	226.71
839.05	226.67
839.37	226.64
839.68	226.57
840.00	226.53
840.31	226.57
840.63	226.55
840.94	226.51
841.26	226.51
841.57	226.47
841.88	226.47
842.20	226.40
842.51	226.39
842.83	226.41
843.14	226.47
843.46	226.45
843.77	226.37
844.08	226.30
844.40	226.28
844.71	226.26
845.03	226.22
845.34	226.24
845.65	226.24
845.97	226.25
846.28	226.22
846.60	226.27
846.91	226.21
847.22	226.19
847.54	226.19
847.85	226.17
848.16	226.17
848.48	226.13
848.79	226.19
849.10	226.17
849.42	226.15
849.73	226.07
850.04	226.05
850.36	226.03
850.67	226.07
850.98	226.04
851.30	226.05
851.61	226.07
851.92	226.07
852.23	226.11
852.55	226.09
852.86	226.10
853.17	226.07
853.49	226.10
853.80	226.13
854.11	226.14
854.42	226.16
854.74	226.14
855.05	226.17
855.36	226.11
855.67	226.13
855.99	226.11
856.30	226.21
856.61	226.21
856.92	226.18
857.23	226.15
857.55	226.18
857.86	226.16
858.17	226.17
858.48	226.12
858.79	226.13
859.11	226.14
859.42	226.17
859.73	226.16
860.04	226.17
860.35	226.13
860.66	226.12
860.98	226.13
861.29	226.14
861.60	226.11
861.91	226.11
862.22	226.10
862.53	226.07
862.84	225.95
863.16	225.96
863.47	225.95
863.78	225.95
864.09	225.94
864.40	225.92
864.71	225.90
865.02	225.89
865.33	225.86
865.64	225.84
865.95	225.83
866.27	225.93
866.58	225.91
866.89	225.91
867.20	225.90
867.51	225.84
867.82	225.81
868.13	225.85
868.44	225.81
868.75	225.83
869.06	225.83
869.37	225.84
869.68	225.83
869.99	225.86
870.30	225.88
870.61	225.92
870.92	225.91
871.23	225.92
871.54	225.96
871.85	226.00
872.16	226.02
872.47	225.98
872.78	225.92
873.09	225.90
873.40	225.91
873.71	225.90
874.02	225.93
874.33	225.93
874.64	225.91
874.95	225.95
875.26	225.94
875.56	225.94
875.87	225.93
876.18	225.92
876.49	225.99
876.80	225.97
877.11	225.92
877.42	225.93
877.73	225.91
878.04	225.89
878.35	225.83
878.66	225.84
878.96	225.85
879.27	225.81
879.58	225.81
879.89	225.79
880.20	225.83
880.51	225.83
880.82	225.84
881.12	225.83
881.43	225.79
881.74	225.76
882.05	225.75
882.36	225.75
882.67	225.73
882.97	225.61
883.28	225.60
883.59	225.62
883.90	225.62
884.21	225.59
884.51	225.59
884.82	225.61
885.13	225.57
885.44	225.54
885.74	225.52
886.05	225.49
886.36	225.49
886.67	225.45
886.98	225.52
887.28	225.54
887.59	225.52
887.90	225.51
888.20	225.50
888.51	225.50
888.82	225.51
889.13	225.50
889.43	225.59
889.74	225.56
890.05	225.50
890.35	225.44
890.66	225.44
890.97	225.39
891.28	225.34
891.58	225.37
891.89	225.39
892.20	225.40
892.50	225.40
892.81	225.40
893.12	225.37
893.42	225.28
893.73	225.26
894.04	225.26
894.34	225.24
894.65	225.22
894.95	225.22
895.26	225.22
895.57	225.27
895.87	225.16
896.18	225.18
896.48	225.22
896.79	225.24
897.10	225.23
897.40	225.25
897.71	225.29
898.01	225.26
898.32	225.24
898.63	225.19
898.93	225.16
899.24	225.14
899.54	225.14
899.85	225.12
900.15	225.12
900.46	225.11
900.76	225.16
901.07	225.18
901.38	225.18
901.68	225.19
901.99	225.13
902.29	225.15
902.60	225.15
902.90	225.13
903.21	225.14
903.51	225.14
903.82	225.16
904.12	225.15
904.43	225.16
904.73	225.15
905.03	225.18
905.34	225.32
905.64	225.31
905.95	225.34
906.25	225.37
906.56	225.33
906.86	225.35
907.17	225.29
907.47	225.30
907.77	225.31
908.08	225.30
908.38	225.30
908.69	225.32
908.99	225.32
909.30	225.34
909.60	225.35
909.90	225.38
910.21	225.36
910.51	225.37
910.81	225.37
911.12	225.40
911.42	225.44
911.73	225.35
912.03	225.37
912.33	225.38
912.64	225.36
912.94	225.36
913.24	225.36
913.55	225.37
913.85	225.39
914.15	225.39
914.46	225.41
914.76	225.42
915.06	225.40
915.37	225.39
915.67	225.38
915.97	225.36
916.27	225.32
916.58	225.32
916.88	225.32
917.18	225.30
917.49	225.38
917.79	225.38
918.09	225.39
918.39	225.41
918.70	225.41
919.00	225.41
919.30	225.45
919.60	225.43
919.91	225.45
920.21	225.47
920.51	225.44
920.81	225.41
921.12	225.45
921.42	225.44
921.72	225.46
922.02	225.46
922.32	225.50
922.63	225.50
922.93	225.55
923.23	225.55
923.53	225.56
923.83	225.47
924.13	225.50
924.44	225.49
924.74	225.53
925.04	225.54
925.34	225.57
925.64	225.54
925.94	225.57
926.24	225.62
926.55	225.60
926.85	225.60
927.15	225.62
927.45	225.60
927.75	225.62
928.05	225.62
928.35	225.62
928.65	225.63
928.95	225.64
929.26	225.59
929.56	225.63
929.86	225.62
930.16	225.63
930.46	225.57
930.76	225.59
931.06	225.51
931.36	225.48
931.66	225.46
931.96	225.47
932.26	225.49
932.56	225.43
932.86	225.43
933.16	225.47
933.46	225.46
933.76	225.44
934.06	225.47
934.36	225.50
934.66	225.48
934.96	225.44
935.26	225.46
935.56	225.48
935.86	225.43
936.16	225.43
936.46	225.42
936.76	225.44
937.06	225.42
937.36	225.47
937.66	225.45
937.96	225.44
938.26	225.41
938.56	225.36
938.86	225.37
939.16	225.39
939.46	225.39
939.76	225.39
940.06	225.41
940.35	225.35
940.65	225.31
940.95	225.35
941.25	225.35
941.55	225.37
941.85	225.34
942.15	225.39
942.45	225.37
942.75	225.35
943.04	225.34
943.34	225.35
943.64	225.32
943.94	225.36
944.24	225.35
944.54	225.40
944.84	225.41
945.13	225.39
945.43	225.34
945.73	225.30
946.03	225.28
946.33	225.24
946.62	225.28
946.92	225.26
947.22	225.26
947.52	225.28
947.82	225.26
948.11	225.27
948.41	225.23
948.71	225.26
949.01	225.30
949.31	225.30
949.60	225.29
949.90	225.32
950.20	225.30
950.50	225.30
950.79	225.28
951.09	225.30
951.39	225.29
951.69	225.28
951.98	225.31
952.28	225.34
952.58	225.36
952.87	225.33
953.17	225.37
953.47	225.37
953.76	225.34
954.06	225.34
954.36	225.32
954.66	225.34
954.95	225.37
955.25	225.36
955.55	225.39
955.84	225.39
956.14	225.37
956.44	225.38
956.73	225.37
957.03	225.39
957.32	225.36
957.62	225.40
957.92	225.45
958.21	225.43
958.51	225.51
958.81	225.53
959.10	225.54
959.40	225.57
959.69	225.57
959.99	225.62
960.29	225.62
960.58	225.60
960.88	225.63
961.17	225.60
961.47	225.58
961.76	225.53
962.06	225.53
962.36	225.51
962.65	225.54
962.95	225.55
963.24	225.54
963.54	225.56
963.83	225.55
964.13	225.53
964.42	225.52
964.72	225.44
965.01	225.45
965.31	225.47
965.60	225.43
965.90	225.48
966.19	225.46
966.49	225.43
966.78	225.43
967.08	225.40
967.37	225.43
967.67	225.40
967.96	225.44
968.26	225.43
968.55	225.48
968.85	225.45
969.14	225.47
969.43	225.47
969.73	225.48
970.02	225.45
970.32	225.41
970.61	225.39
970.91	225.38
971.20	225.36
971.49	225.32
971.79	225.30
972.08	225.20
972.38	225.19
972.67	225.19
972.96	225.21
973.26	225.20
973.55	225.18
973.85	225.17
974.14	225.15
974.43	225.15
974.73	225.09
975.02	225.05
975.31	225.03
975.61	225.01
975.90	224.96
976.19	224.96
976.49	225.02
976.78	225.04
977.07	225.02
977.37	225.01
977.66	225.02
977.95	225.02
978.24	225.05
978.54	225.08
978.83	225.08
979.12	225.07
979.42	225.09
979.71	225.09
980.00	225.11
980.29	225.13
980.59	225.10
980.88	225.14
981.17	225.13
981.46	225.15
981.76	225.14
982.05	225.16
982.34	225.19
982.63	225.17
982.93	225.16
983.22	225.20
983.51	225.20
983.80	225.23
984.09	225.23
984.39	225.22
984.68	225.19
984.97	225.20
985.26	225.19
985.55	225.19
985.85	225.15
986.14	225.20
986.43	225.19
986.72	225.20
987.01	225.18
987.30	225.21
987.59	225.20
987.89	225.23
988.18	225.22
988.47	225.23
988.76	225.25
989.05	225.24
989.34	225.22
989.63	225.26
989.92	225.27
990.22	225.30
990.51	225.33
990.80	225.36
991.09	225.39
991.38	225.41
991.67	225.39
991.96	225.43
992.25	225.42
992.54	225.39
992.83	225.42
993.12	225.44
993.41	225.45
993.70	225.51
993.99	225.53
994.28	225.57
994.58	225.55
994.87	225.51
995.16	225.53
995.45	225.50
995.74	225.45
996.03	225.46
996.32	225.47
996.61	225.48
996.90	225.47
997.19	225.47
997.48	225.49
997.77	225.46
998.06	225.45
998.34	225.44
998.63	225.45
998.92	225.43
999.21	225.45
999.50	225.47
999.79	225.44
1000.08	225.40
1000.37	225.39
1000.66	225.39
1000.95	225.42
1001.24	225.42
1001.53	225.42
1001.82	225.42
1002.11	225.36
1002.40	225.34
1002.68	225.32
1002.97	225.41
1003.26	225.37
1003.55	225.34
1003.84	225.35
1004.13	225.37
1004.42	225.38
1004.71	225.41
1004.99	225.39
1005.28	225.39
1005.57	225.37
1005.86	225.35
1006.15	225.34
1006.44	225.33
1006.72	225.35
1007.01	225.33
1007.30	225.30
1007.59	225.29
1007.88	225.30
1008.17	225.34
1008.45	225.31
1008.74	225.30
1009.03	225.21
1009.32	225.20
1009.60	225.20
1009.89	225.19
1010.18	225.14
1010.47	225.11
1010.76	225.09
1011.04	225.09
1011.33	225.07
1011.62	225.07
1011.91	225.04
1012.19	225.07
1012.48	225.07
1012.77	225.05
1013.05	225.08
1013.34	225.11
1013.63	225.09
1013.92	225.12
1014.20	225.10
1014.49	225.10
1014.78	225.07
1015.06	225.03
1015.35	225.05
1015.64	225.05
1015.92	225.07
1016.21	225.05
1016.50	225.04
1016.78	225.04
1017.07	225.08
1017.36	225.07
1017.64	225.06
1017.93	225.08
1018.22	225.04
1018.50	225.02
1018.79	225.01
1019.08	224.99
1019.36	224.95
1019.65	224.96
1019.93	224.97
1020.22	224.98
1020.51	225.05
1020.79	225.07
1021.08	224.65
1021.36	224.81
1021.65	224.78
1021.94	225.42
1022.22	224.71
1022.51	224.74
1022.79	225.61
1023.08	225.29
1023.36	226.26
1023.65	225.11
>>>>>End Processed Spectral Data<<<<<
