SpectraSuite Data File
++++++++++++++++++++++++++++++++++++
Date: Fri Feb 01 15:44:53 EST 2013
User: group
Dark Spectrum Present: No
Reference Spectrum Present: No
Number of Sampled Component Spectra: 1
Spectrometers: USB2E7196
Integration Time (usec): 35000 (USB2E7196)
Spectra Averaged: 100 (USB2E7196)
Boxcar Smoothing: 10 (USB2E7196)
Correct for Electrical Dark: No (USB2E7196)
Strobe/Lamp Enabled: No (USB2E7196)
Correct for Detector Non-linearity: No (USB2E7196)
Correct for Stray Light: No (USB2E7196)
Number of Pixels in Processed Spectrum: 2048
>>>>>Begin Processed Spectral Data<<<<<
339.09	0.00
339.48	215.05
339.86	216.29
340.24	217.68
340.63	218.82
341.01	221.63
341.39	221.98
341.78	222.55
342.16	224.10
342.54	224.49
342.93	213.15
343.31	223.94
343.69	224.46
344.07	224.93
344.46	225.36
344.84	225.78
345.22	226.03
345.60	226.28
345.99	226.51
346.37	226.66
346.75	226.77
347.13	226.84
347.52	226.91
347.90	226.98
348.28	226.99
348.66	227.01
349.05	226.99
349.43	227.02
349.81	227.05
350.19	227.13
350.57	227.20
350.96	227.28
351.34	227.37
351.72	227.45
352.10	227.58
352.48	227.63
352.87	227.67
353.25	227.71
353.63	227.78
354.01	227.85
354.39	227.92
354.77	228.02
355.15	228.09
355.54	228.13
355.92	228.18
356.30	228.25
356.68	228.37
357.06	228.46
357.44	228.53
357.82	228.62
358.20	228.70
358.58	228.75
358.97	228.83
359.35	228.90
359.73	228.99
360.11	229.02
360.49	229.12
360.87	229.20
361.25	229.28
361.63	229.33
362.01	229.38
362.39	229.44
362.77	229.47
363.15	229.53
363.53	229.58
363.91	229.61
364.29	229.65
364.67	229.62
365.05	229.65
365.43	229.69
365.81	229.72
366.19	229.73
366.57	229.77
366.95	229.76
367.33	229.75
367.71	229.75
368.09	229.75
368.47	229.72
368.85	229.70
369.23	229.69
369.61	229.65
369.99	229.65
370.37	229.63
370.75	229.64
371.13	229.58
371.51	229.53
371.89	229.52
372.27	229.50
372.65	229.42
373.03	229.35
373.41	229.31
373.78	229.26
374.16	229.17
374.54	229.09
374.92	229.01
375.30	228.93
375.68	228.84
376.06	228.77
376.44	228.70
376.82	228.61
377.19	228.52
377.57	228.46
377.95	228.37
378.33	228.27
378.71	228.15
379.09	228.08
379.47	228.01
379.84	227.90
380.22	227.79
380.60	227.72
380.98	227.63
381.36	227.53
381.73	227.43
382.11	227.38
382.49	227.35
382.87	227.28
383.25	227.20
383.62	227.24
384.00	227.18
384.38	227.12
384.76	227.14
385.13	227.13
385.51	227.08
385.89	226.99
386.27	226.94
386.64	226.90
387.02	226.86
387.40	226.81
387.78	226.79
388.15	226.76
388.53	226.71
388.91	226.68
389.29	226.66
389.66	226.63
390.04	226.60
390.42	226.58
390.79	226.55
391.17	226.55
391.55	226.46
391.92	226.45
392.30	226.41
392.68	226.33
393.05	226.33
393.43	226.34
393.81	226.32
394.18	226.34
394.56	226.37
394.94	226.39
395.31	226.40
395.69	226.43
396.06	226.45
396.44	226.50
396.82	226.50
397.19	226.57
397.57	226.64
397.95	226.72
398.32	226.75
398.70	226.84
399.07	226.92
399.45	226.95
399.82	227.03
400.20	227.13
400.58	227.21
400.95	227.27
401.33	227.38
401.70	227.55
402.08	227.61
402.45	227.68
402.83	227.80
403.20	227.95
403.58	228.08
403.95	228.24
404.33	228.40
404.71	228.57
405.08	228.79
405.46	228.89
405.83	229.06
406.21	229.25
406.58	229.44
406.96	229.59
407.33	229.80
407.70	229.96
408.08	230.23
408.45	230.45
408.83	230.71
409.20	230.92
409.58	231.10
409.95	231.42
410.33	231.73
410.70	231.95
411.08	232.23
411.45	232.55
411.82	232.86
412.20	233.22
412.57	233.63
412.95	233.88
413.32	234.30
413.69	234.66
414.07	235.09
414.44	235.51
414.82	236.05
415.19	236.60
415.56	237.16
415.94	237.70
416.31	238.34
416.68	238.94
417.06	239.64
417.43	240.34
417.81	241.08
418.18	241.84
418.55	242.69
418.93	243.56
419.30	244.44
419.67	245.36
420.04	246.27
420.42	247.28
420.79	248.48
421.16	249.62
421.54	250.83
421.91	252.03
422.28	253.30
422.66	254.57
423.03	255.86
423.40	257.19
423.77	258.59
424.15	259.98
424.52	261.42
424.89	263.04
425.26	264.60
425.64	266.02
426.01	267.61
426.38	269.30
426.75	270.98
427.13	272.66
427.50	274.45
427.87	276.31
428.24	278.13
428.61	279.83
428.99	281.74
429.36	283.85
429.73	285.92
430.10	287.94
430.47	290.03
430.85	292.16
431.22	294.37
431.59	296.74
431.96	299.02
432.33	301.55
432.70	303.91
433.08	306.70
433.45	309.32
433.82	311.90
434.19	314.78
434.56	317.56
434.93	320.22
435.30	322.83
435.68	325.72
436.05	328.58
436.42	331.39
436.79	333.93
437.16	336.62
437.53	339.42
437.90	342.22
438.27	344.91
438.64	347.72
439.01	350.31
439.38	352.58
439.75	354.74
440.13	357.22
440.50	359.52
440.87	361.38
441.24	363.33
441.61	365.51
441.98	366.99
442.35	368.83
442.72	370.70
443.09	372.52
443.46	373.53
443.83	374.10
444.20	374.61
444.57	375.45
444.94	375.71
445.31	376.06
445.68	376.42
446.05	376.52
446.42	376.14
446.79	375.70
447.16	375.20
447.53	374.86
447.90	373.70
448.27	372.52
448.64	370.89
449.01	369.74
449.37	367.76
449.74	365.86
450.11	363.54
450.48	361.07
450.85	358.55
451.22	356.42
451.59	354.39
451.96	352.46
452.33	349.89
452.70	347.54
453.07	344.73
453.43	341.80
453.80	339.05
454.17	336.37
454.54	333.86
454.91	331.20
455.28	328.53
455.65	326.06
456.02	323.64
456.38	321.58
456.75	318.95
457.12	316.70
457.49	314.48
457.86	312.34
458.23	310.46
458.59	308.41
458.96	306.33
459.33	304.48
459.70	302.64
460.07	301.12
460.43	299.39
460.80	297.76
461.17	296.32
461.54	294.82
461.91	293.39
462.27	291.95
462.64	290.68
463.01	289.36
463.38	288.05
463.74	286.68
464.11	285.47
464.48	284.44
464.85	283.34
465.21	282.46
465.58	281.58
465.95	280.49
466.32	279.62
466.68	278.68
467.05	277.79
467.42	276.87
467.78	275.91
468.15	275.06
468.52	274.38
468.88	273.53
469.25	272.75
469.62	272.15
469.98	271.47
470.35	270.79
470.72	270.18
471.08	269.51
471.45	268.94
471.82	268.40
472.18	267.79
472.55	267.33
472.92	266.82
473.28	266.31
473.65	265.85
474.02	265.39
474.38	265.01
474.75	264.66
475.11	264.30
475.48	264.06
475.85	263.82
476.21	263.56
476.58	263.36
476.94	263.19
477.31	262.98
477.67	262.84
478.04	262.75
478.41	262.68
478.77	262.73
479.14	262.69
479.50	262.70
479.87	262.76
480.23	262.81
480.60	262.84
480.96	262.96
481.33	263.21
481.69	263.40
482.06	263.65
482.42	263.85
482.79	264.14
483.15	264.42
483.52	264.80
483.88	265.15
484.25	265.55
484.61	266.00
484.98	266.48
485.34	267.04
485.71	267.65
486.07	268.26
486.44	268.82
486.80	269.55
487.17	270.29
487.53	271.13
487.90	272.02
488.26	273.02
488.62	274.02
488.99	274.98
489.35	276.03
489.72	277.12
490.08	278.32
490.44	279.56
490.81	280.93
491.17	282.28
491.54	283.76
491.90	285.29
492.26	286.96
492.63	288.68
492.99	290.46
493.36	292.35
493.72	294.38
494.08	296.53
494.45	298.79
494.81	301.13
495.17	303.58
495.54	306.16
495.90	308.82
496.26	311.65
496.63	314.63
496.99	317.75
497.35	321.04
497.72	324.44
498.08	327.98
498.44	331.66
498.80	335.57
499.17	339.64
499.53	343.86
499.89	348.25
500.26	352.75
500.62	357.42
500.98	362.37
501.34	367.45
501.71	372.74
502.07	378.13
502.43	383.81
502.79	389.61
503.16	395.72
503.52	401.98
503.88	408.37
504.24	414.97
504.60	421.86
504.97	428.99
505.33	436.34
505.69	444.04
506.05	451.84
506.41	459.70
506.78	467.83
507.14	476.29
507.50	485.01
507.86	494.09
508.22	503.21
508.59	512.43
508.95	521.97
509.31	531.84
509.67	541.96
510.03	552.22
510.39	562.73
510.75	573.50
511.12	584.42
511.48	595.76
511.84	607.27
512.20	618.80
512.56	630.79
512.92	642.97
513.28	655.32
513.64	667.81
514.00	680.54
514.37	693.44
514.73	706.46
515.09	719.50
515.45	732.72
515.81	746.39
516.17	760.50
516.53	774.70
516.89	788.81
517.25	803.01
517.61	817.41
517.97	831.87
518.33	846.27
518.69	861.07
519.05	876.07
519.41	891.27
519.77	906.75
520.13	922.14
520.49	937.49
520.85	952.89
521.21	968.62
521.57	984.82
521.93	1000.59
522.29	1016.95
522.65	1033.15
523.01	1049.45
523.37	1065.51
523.73	1081.50
524.09	1097.49
524.45	1113.81
524.81	1130.48
525.17	1147.42
525.53	1164.38
525.89	1181.31
526.25	1198.13
526.61	1214.44
526.97	1231.11
527.33	1247.70
527.68	1264.28
528.04	1280.75
528.40	1297.37
528.76	1314.27
529.12	1330.90
529.48	1347.85
529.84	1363.93
530.20	1380.61
530.56	1397.58
530.91	1414.92
531.27	1431.77
531.63	1448.34
531.99	1464.96
532.35	1480.90
532.71	1496.72
533.07	1513.01
533.42	1528.93
533.78	1544.95
534.14	1561.26
534.50	1576.55
534.86	1592.40
535.21	1607.70
535.57	1623.67
535.93	1639.08
536.29	1654.03
536.65	1669.18
537.00	1683.88
537.36	1699.16
537.72	1713.66
538.08	1728.15
538.44	1741.98
538.79	1755.89
539.15	1769.51
539.51	1783.33
539.87	1797.66
540.22	1811.48
540.58	1825.16
540.94	1838.49
541.29	1851.41
541.65	1864.09
542.01	1877.41
542.37	1889.76
542.72	1902.08
543.08	1913.78
543.44	1926.26
543.79	1937.53
544.15	1948.51
544.51	1960.18
544.87	1971.19
545.22	1982.12
545.58	1992.29
545.94	2002.11
546.29	2011.97
546.65	2021.80
547.01	2030.96
547.36	2039.81
547.72	2048.11
548.07	2055.96
548.43	2064.10
548.79	2072.25
549.14	2079.73
549.50	2087.12
549.86	2094.79
550.21	2102.13
550.57	2109.37
550.92	2115.99
551.28	2123.04
551.64	2130.12
551.99	2136.60
552.35	2142.84
552.70	2148.87
553.06	2154.92
553.41	2161.33
553.77	2167.31
554.13	2173.45
554.48	2179.45
554.84	2184.79
555.19	2190.18
555.55	2195.30
555.90	2199.72
556.26	2204.48
556.61	2209.25
556.97	2213.34
557.32	2217.40
557.68	2221.55
558.03	2225.86
558.39	2229.47
558.74	2233.99
559.10	2237.71
559.45	2241.39
559.81	2245.67
560.16	2249.49
560.52	2252.57
560.87	2255.85
561.23	2258.62
561.58	2261.71
561.94	2264.33
562.29	2266.69
562.64	2269.33
563.00	2271.93
563.35	2275.39
563.71	2278.58
564.06	2281.87
564.42	2284.79
564.77	2287.24
565.12	2289.40
565.48	2291.19
565.83	2292.98
566.19	2294.37
566.54	2295.45
566.89	2296.52
567.25	2297.00
567.60	2298.24
567.96	2299.88
568.31	2300.66
568.66	2301.62
569.02	2302.06
569.37	2302.38
569.72	2303.20
570.08	2303.30
570.43	2303.54
570.78	2303.01
571.14	2301.37
571.49	2299.87
571.84	2299.55
572.20	2298.36
572.55	2297.32
572.90	2295.94
573.26	2294.54
573.61	2292.86
573.96	2290.99
574.31	2288.02
574.67	2285.12
575.02	2281.65
575.37	2278.40
575.72	2274.64
576.08	2271.30
576.43	2268.05
576.78	2264.34
577.13	2261.19
577.49	2258.15
577.84	2254.57
578.19	2250.83
578.54	2247.23
578.90	2242.91
579.25	2237.29
579.60	2232.35
579.95	2227.29
580.30	2222.24
580.66	2217.15
581.01	2212.11
581.36	2207.19
581.71	2203.00
582.06	2198.38
582.42	2193.96
582.77	2188.65
583.12	2184.15
583.47	2179.48
583.82	2174.32
584.17	2169.10
584.53	2163.66
584.88	2157.84
585.23	2151.94
585.58	2146.46
585.93	2140.98
586.28	2136.37
586.63	2131.36
586.98	2126.32
587.34	2121.68
587.69	2116.66
588.04	2111.27
588.39	2105.55
588.74	2099.00
589.09	2092.79
589.44	2086.02
589.79	2079.95
590.14	2074.45
590.49	2067.80
590.84	2061.35
591.19	2055.37
591.54	2048.98
591.89	2041.48
592.25	2034.82
592.60	2027.64
592.95	2020.00
593.30	2012.67
593.65	2004.99
594.00	1997.89
594.35	1990.55
594.70	1982.62
595.05	1975.44
595.40	1968.26
595.75	1960.80
596.10	1954.65
596.45	1947.86
596.80	1941.75
597.15	1934.83
597.50	1927.50
597.85	1921.10
598.19	1914.45
598.54	1907.27
598.89	1900.52
599.24	1894.59
599.59	1887.76
599.94	1881.59
600.29	1875.23
600.64	1868.58
600.99	1861.11
601.34	1854.33
601.69	1847.45
602.04	1840.49
602.39	1833.13
602.74	1826.31
603.08	1819.51
603.43	1812.80
603.78	1805.56
604.13	1798.27
604.48	1790.98
604.83	1784.09
605.18	1776.90
605.53	1768.85
605.87	1760.80
606.22	1753.59
606.57	1745.67
606.92	1738.48
607.27	1731.27
607.62	1724.39
607.96	1716.99
608.31	1710.35
608.66	1702.70
609.01	1695.19
609.36	1687.57
609.70	1679.56
610.05	1671.38
610.40	1663.66
610.75	1655.33
611.10	1647.61
611.44	1639.24
611.79	1631.34
612.14	1622.75
612.49	1613.78
612.83	1605.46
613.18	1597.46
613.53	1589.44
613.88	1580.94
614.22	1572.55
614.57	1563.95
614.92	1555.93
615.27	1548.40
615.61	1540.09
615.96	1532.08
616.31	1524.40
616.65	1517.06
617.00	1509.41
617.35	1501.89
617.70	1493.57
618.04	1484.97
618.39	1476.84
618.74	1469.23
619.08	1460.89
619.43	1453.37
619.78	1446.45
620.12	1439.25
620.47	1431.52
620.82	1423.26
621.16	1415.83
621.51	1408.30
621.85	1400.60
622.20	1391.93
622.55	1383.65
622.89	1375.88
623.24	1368.27
623.59	1360.99
623.93	1353.45
624.28	1346.29
624.62	1338.66
624.97	1331.51
625.32	1324.72
625.66	1317.66
626.01	1310.43
626.35	1303.00
626.70	1295.17
627.04	1287.32
627.39	1279.49
627.73	1272.19
628.08	1265.26
628.43	1257.94
628.77	1250.58
629.12	1243.07
629.46	1235.98
629.81	1228.62
630.15	1221.31
630.50	1213.92
630.84	1205.56
631.19	1197.73
631.53	1190.18
631.88	1182.68
632.22	1175.03
632.57	1167.80
632.91	1160.22
633.26	1152.87
633.60	1145.51
633.95	1138.53
634.29	1131.56
634.64	1124.90
634.98	1117.52
635.32	1110.40
635.67	1103.79
636.01	1097.13
636.36	1090.30
636.70	1083.80
637.05	1077.20
637.39	1070.70
637.73	1064.09
638.08	1058.28
638.42	1052.21
638.77	1045.85
639.11	1039.21
639.45	1032.78
639.80	1026.10
640.14	1019.70
640.49	1013.04
640.83	1006.78
641.17	1000.41
641.52	994.07
641.86	987.63
642.20	981.83
642.55	975.51
642.89	969.00
643.23	962.51
643.58	956.69
643.92	950.49
644.26	944.35
644.61	938.46
644.95	932.43
645.29	925.75
645.64	918.96
645.98	912.62
646.32	906.79
646.66	900.79
647.01	895.06
647.35	889.28
647.69	883.52
648.04	877.98
648.38	872.19
648.72	866.16
649.06	860.11
649.41	854.17
649.75	848.20
650.09	842.21
650.43	836.34
650.78	830.16
651.12	824.23
651.46	818.57
651.80	812.66
652.14	807.28
652.49	802.00
652.83	796.84
653.17	791.12
653.51	785.31
653.85	779.97
654.20	774.25
654.54	768.36
654.88	762.65
655.22	756.78
655.56	751.11
655.90	745.67
656.25	740.41
656.59	735.06
656.93	729.92
657.27	724.84
657.61	719.36
657.95	714.27
658.29	709.19
658.64	703.90
658.98	698.67
659.32	693.25
659.66	688.03
660.00	682.70
660.34	677.79
660.68	672.96
661.02	667.88
661.36	663.18
661.70	658.60
662.05	654.22
662.39	649.91
662.73	645.39
663.07	641.04
663.41	636.62
663.75	632.14
664.09	627.64
664.43	623.22
664.77	619.20
665.11	615.01
665.45	610.89
665.79	606.84
666.13	602.72
666.47	598.67
666.81	594.47
667.15	590.34
667.49	586.36
667.83	582.58
668.17	578.68
668.51	574.60
668.85	570.56
669.19	566.75
669.53	562.87
669.87	559.01
670.21	555.26
670.55	551.54
670.89	548.15
671.23	544.68
671.57	541.19
671.91	537.60
672.25	534.10
672.58	530.50
672.92	527.12
673.26	523.92
673.60	520.75
673.94	517.64
674.28	514.76
674.62	511.86
674.96	508.71
675.30	505.77
675.64	502.81
675.97	500.06
676.31	497.19
676.65	494.27
676.99	491.63
677.33	488.80
677.67	486.01
678.01	482.93
678.34	479.97
678.68	477.05
679.02	474.27
679.36	471.50
679.70	468.87
680.04	466.07
680.37	463.23
680.71	460.41
681.05	457.85
681.39	455.12
681.73	452.43
682.06	449.94
682.40	447.35
682.74	444.84
683.08	442.31
683.42	439.67
683.75	437.19
684.09	434.63
684.43	432.11
684.77	429.64
685.10	427.30
685.44	425.00
685.78	422.76
686.12	420.51
686.45	418.19
686.79	415.89
687.13	413.74
687.46	411.56
687.80	409.44
688.14	407.17
688.48	405.11
688.81	402.87
689.15	400.72
689.49	398.62
689.82	396.56
690.16	394.49
690.50	392.57
690.83	390.60
691.17	388.63
691.51	386.78
691.84	384.97
692.18	383.08
692.52	381.05
692.85	379.12
693.19	377.22
693.52	375.41
693.86	373.61
694.20	371.81
694.53	370.05
694.87	368.18
695.21	366.42
695.54	364.64
695.88	362.93
696.21	361.23
696.55	359.57
696.88	357.89
697.22	356.24
697.56	354.61
697.89	352.93
698.23	351.34
698.56	349.77
698.90	348.17
699.23	346.50
699.57	344.96
699.90	343.44
700.24	341.91
700.58	340.39
700.91	338.89
701.25	337.43
701.58	336.04
701.92	334.70
702.25	333.34
702.59	332.00
702.92	330.68
703.26	329.33
703.59	328.03
703.93	326.83
704.26	325.62
704.60	324.32
704.93	323.10
705.26	321.83
705.60	320.65
705.93	319.48
706.27	318.47
706.60	317.44
706.94	316.36
707.27	315.25
707.61	314.21
707.94	313.18
708.27	312.12
708.61	311.03
708.94	310.00
709.28	308.99
709.61	308.01
709.94	307.08
710.28	306.11
710.61	305.13
710.95	304.07
711.28	303.13
711.61	302.17
711.95	301.24
712.28	300.29
712.61	299.26
712.95	298.31
713.28	297.41
713.61	296.50
713.95	295.62
714.28	294.77
714.61	293.92
714.95	293.05
715.28	292.17
715.61	291.27
715.95	290.41
716.28	289.59
716.61	288.75
716.95	287.90
717.28	287.13
717.61	286.36
717.94	285.62
718.28	284.83
718.61	284.09
718.94	283.40
719.27	282.72
719.61	282.08
719.94	281.46
720.27	280.75
720.60	280.11
720.94	279.44
721.27	278.81
721.60	278.18
721.93	277.60
722.27	277.08
722.60	276.54
722.93	276.00
723.26	275.42
723.59	274.82
723.93	274.27
724.26	273.69
724.59	273.15
724.92	272.63
725.25	272.11
725.59	271.62
725.92	271.09
726.25	270.61
726.58	270.10
726.91	269.56
727.24	269.07
727.57	268.57
727.91	268.07
728.24	267.63
728.57	267.11
728.90	266.66
729.23	266.13
729.56	265.68
729.89	265.20
730.22	264.72
730.55	264.27
730.89	263.82
731.22	263.38
731.55	262.91
731.88	262.48
732.21	262.05
732.54	261.57
732.87	261.15
733.20	260.74
733.53	260.34
733.86	259.98
734.19	259.58
734.52	259.21
734.85	258.92
735.18	258.51
735.51	258.19
735.84	257.81
736.17	257.44
736.50	257.08
736.83	256.82
737.16	256.49
737.49	256.17
737.82	255.81
738.15	255.52
738.48	255.17
738.81	254.83
739.14	254.54
739.47	254.29
739.80	254.00
740.13	253.68
740.46	253.41
740.79	253.10
741.12	252.82
741.45	252.52
741.78	252.19
742.11	251.86
742.44	251.54
742.77	251.29
743.10	251.02
743.43	250.73
743.75	250.38
744.08	250.27
744.41	249.99
744.74	249.73
745.07	249.43
745.40	249.21
745.73	249.01
746.06	248.72
746.39	248.43
746.71	248.16
747.04	247.90
747.37	247.64
747.70	247.41
748.03	247.15
748.36	246.89
748.68	246.65
749.01	246.44
749.34	246.23
749.67	246.01
750.00	245.77
750.33	245.66
750.65	245.43
750.98	245.04
751.31	244.82
751.64	244.62
751.97	244.47
752.29	244.26
752.62	244.01
752.95	243.83
753.28	243.63
753.60	243.42
753.93	243.24
754.26	243.04
754.59	242.79
754.91	242.59
755.24	242.42
755.57	242.24
755.90	242.05
756.22	241.85
756.55	241.62
756.88	241.43
757.20	241.15
757.53	240.97
757.86	240.84
758.19	240.70
758.51	240.54
758.84	240.33
759.17	240.17
759.49	240.00
759.82	239.85
760.15	239.66
760.47	239.51
760.80	239.32
761.13	239.16
761.45	239.04
761.78	238.89
762.11	238.72
762.43	238.58
762.76	238.45
763.08	238.34
763.41	238.21
763.74	238.09
764.06	237.95
764.39	237.82
764.71	237.68
765.04	237.48
765.37	237.33
765.69	237.19
766.02	237.06
766.34	236.92
766.67	236.77
767.00	236.68
767.32	236.62
767.65	236.55
767.97	236.44
768.30	236.31
768.62	236.21
768.95	236.07
769.27	235.93
769.60	235.80
769.92	235.66
770.25	235.55
770.57	235.44
770.90	235.32
771.22	235.22
771.55	235.12
771.87	235.07
772.20	234.96
772.52	234.94
772.85	234.94
773.17	234.84
773.50	234.79
773.82	234.73
774.15	234.59
774.47	234.45
774.80	234.34
775.12	234.29
775.45	234.20
775.77	234.16
776.09	234.09
776.42	234.02
776.74	233.95
777.07	233.84
777.39	233.77
777.72	233.72
778.04	233.60
778.36	233.53
778.69	233.46
779.01	233.41
779.33	233.28
779.66	233.10
779.98	233.02
780.31	232.91
780.63	232.85
780.95	232.80
781.28	232.78
781.60	232.71
781.92	232.61
782.25	232.54
782.57	232.48
782.89	232.43
783.22	232.35
783.54	232.31
783.86	232.27
784.19	232.21
784.51	232.16
784.83	232.15
785.16	232.09
785.48	232.06
785.80	232.01
786.12	231.96
786.45	231.90
786.77	231.88
787.09	231.85
787.42	231.79
787.74	231.76
788.06	231.70
788.38	231.69
788.71	231.67
789.03	231.63
789.35	231.62
789.67	231.59
789.99	231.59
790.32	231.53
790.64	231.54
790.96	231.60
791.28	231.54
791.61	231.50
791.93	231.47
792.25	231.43
792.57	231.48
792.89	231.43
793.21	231.42
793.54	231.38
793.86	231.35
794.18	231.30
794.50	231.20
794.82	231.16
795.14	231.14
795.47	231.12
795.79	231.12
796.11	231.04
796.43	230.98
796.75	230.95
797.07	230.90
797.39	230.86
797.71	230.72
798.04	230.69
798.36	230.65
798.68	230.61
799.00	230.58
799.32	230.50
799.64	230.48
799.96	230.44
800.28	230.39
800.60	230.33
800.92	230.32
801.24	230.31
801.56	230.31
801.89	230.25
802.21	230.22
802.53	230.13
802.85	230.12
803.17	230.13
803.49	230.05
803.81	230.03
804.13	229.96
804.45	229.93
804.77	229.93
805.09	229.89
805.41	229.86
805.73	229.76
806.05	229.69
806.37	229.62
806.69	229.60
807.01	229.60
807.33	229.60
807.65	229.53
807.97	229.55
808.28	229.46
808.60	229.43
808.92	229.38
809.24	229.42
809.56	229.38
809.88	229.29
810.20	229.30
810.52	229.29
810.84	229.28
811.16	229.21
811.48	229.15
811.80	229.12
812.12	229.10
812.43	229.16
812.75	229.14
813.07	229.13
813.39	229.11
813.71	229.05
814.03	229.00
814.35	228.99
814.67	228.94
814.98	228.91
815.30	228.87
815.62	228.82
815.94	228.75
816.26	228.78
816.58	228.76
816.89	228.73
817.21	228.69
817.53	228.66
817.85	228.68
818.17	228.68
818.48	228.64
818.80	228.65
819.12	228.60
819.44	228.58
819.76	228.57
820.07	228.54
820.39	228.53
820.71	228.51
821.03	228.49
821.34	228.45
821.66	228.48
821.98	228.49
822.30	228.47
822.61	228.53
822.93	228.44
823.25	228.45
823.57	228.42
823.88	228.44
824.20	228.45
824.52	228.44
824.83	228.42
825.15	228.42
825.47	228.41
825.79	228.43
826.10	228.44
826.42	228.42
826.74	228.44
827.05	228.43
827.37	228.45
827.69	228.42
828.00	228.43
828.32	228.45
828.64	228.44
828.95	228.50
829.27	228.48
829.58	228.52
829.90	228.49
830.22	228.49
830.53	228.47
830.85	228.41
831.17	228.40
831.48	228.41
831.80	228.39
832.11	228.37
832.43	228.32
832.75	228.30
833.06	228.38
833.38	228.37
833.69	228.37
834.01	228.35
834.32	228.36
834.64	228.32
834.96	228.29
835.27	228.29
835.59	228.24
835.90	228.18
836.22	228.16
836.53	228.15
836.85	228.17
837.16	228.25
837.48	228.26
837.79	228.26
838.11	228.25
838.42	228.30
838.74	228.32
839.05	228.28
839.37	228.26
839.68	228.17
840.00	228.15
840.31	228.16
840.63	228.15
840.94	228.13
841.26	228.10
841.57	228.09
841.88	228.05
842.20	228.03
842.51	228.04
842.83	228.01
843.14	228.08
843.46	228.05
843.77	227.95
844.08	227.94
844.40	227.91
844.71	227.87
845.03	227.81
845.34	227.73
845.65	227.75
845.97	227.74
846.28	227.72
846.60	227.70
846.91	227.66
847.22	227.63
847.54	227.65
847.85	227.66
848.16	227.63
848.48	227.60
848.79	227.60
849.10	227.56
849.42	227.56
849.73	227.49
850.04	227.47
850.36	227.48
850.67	227.46
850.98	227.44
851.30	227.44
851.61	227.46
851.92	227.48
852.23	227.50
852.55	227.48
852.86	227.48
853.17	227.48
853.49	227.46
853.80	227.49
854.11	227.49
854.42	227.51
854.74	227.48
855.05	227.51
855.36	227.46
855.67	227.49
855.99	227.46
856.30	227.55
856.61	227.54
856.92	227.49
857.23	227.49
857.55	227.49
857.86	227.54
858.17	227.48
858.48	227.45
858.79	227.41
859.11	227.44
859.42	227.40
859.73	227.39
860.04	227.39
860.35	227.35
860.66	227.29
860.98	227.29
861.29	227.32
861.60	227.30
861.91	227.34
862.22	227.33
862.53	227.35
862.84	227.22
863.16	227.25
863.47	227.25
863.78	227.25
864.09	227.28
864.40	227.23
864.71	227.24
865.02	227.26
865.33	227.26
865.64	227.23
865.95	227.28
866.27	227.30
866.58	227.32
866.89	227.33
867.20	227.37
867.51	227.35
867.82	227.38
868.13	227.40
868.44	227.39
868.75	227.41
869.06	227.44
869.37	227.49
869.68	227.45
869.99	227.48
870.30	227.50
870.61	227.53
870.92	227.52
871.23	227.52
871.54	227.52
871.85	227.55
872.16	227.56
872.47	227.56
872.78	227.52
873.09	227.55
873.40	227.55
873.71	227.56
874.02	227.59
874.33	227.54
874.64	227.55
874.95	227.56
875.26	227.54
875.56	227.49
875.87	227.47
876.18	227.48
876.49	227.55
876.80	227.50
877.11	227.44
877.42	227.50
877.73	227.52
878.04	227.57
878.35	227.57
878.66	227.55
878.96	227.53
879.27	227.55
879.58	227.49
879.89	227.47
880.20	227.47
880.51	227.45
880.82	227.46
881.12	227.45
881.43	227.43
881.74	227.41
882.05	227.45
882.36	227.41
882.67	227.40
882.97	227.30
883.28	227.29
883.59	227.29
883.90	227.24
884.21	227.24
884.51	227.19
884.82	227.13
885.13	227.18
885.44	227.18
885.74	227.16
886.05	227.16
886.36	227.15
886.67	227.11
886.98	227.12
887.28	227.10
887.59	227.08
887.90	227.07
888.20	227.05
888.51	227.03
888.82	227.04
889.13	227.02
889.43	227.09
889.74	227.09
890.05	227.11
890.35	227.09
890.66	227.07
890.97	227.02
891.28	227.00
891.58	226.96
891.89	226.92
892.20	226.93
892.50	226.93
892.81	226.90
893.12	226.89
893.42	226.87
893.73	226.89
894.04	226.87
894.34	226.86
894.65	226.87
894.95	226.83
895.26	226.84
895.57	226.87
895.87	226.78
896.18	226.81
896.48	226.79
896.79	226.83
897.10	226.84
897.40	226.87
897.71	226.92
898.01	226.91
898.32	226.92
898.63	226.93
898.93	226.91
899.24	226.92
899.54	226.93
899.85	226.90
900.15	226.90
900.46	226.93
900.76	226.94
901.07	226.93
901.38	226.92
901.68	226.90
901.99	226.88
902.29	226.93
902.60	226.89
902.90	226.86
903.21	226.84
903.51	226.83
903.82	226.86
904.12	226.83
904.43	226.85
904.73	226.87
905.03	226.85
905.34	226.96
905.64	226.94
905.95	226.94
906.25	226.96
906.56	226.97
906.86	226.96
907.17	226.94
907.47	226.96
907.77	226.98
908.08	226.99
908.38	227.03
908.69	227.03
908.99	227.06
909.30	227.12
909.60	227.11
909.90	227.13
910.21	227.07
910.51	227.11
910.81	227.11
911.12	227.12
911.42	227.12
911.73	227.05
912.03	227.08
912.33	227.14
912.64	227.12
912.94	227.10
913.24	227.11
913.55	227.12
913.85	227.14
914.15	227.18
914.46	227.19
914.76	227.15
915.06	227.16
915.37	227.14
915.67	227.14
915.97	227.15
916.27	227.15
916.58	227.18
916.88	227.13
917.18	227.11
917.49	227.17
917.79	227.14
918.09	227.13
918.39	227.17
918.70	227.12
919.00	227.14
919.30	227.16
919.60	227.17
919.91	227.13
920.21	227.12
920.51	227.11
920.81	227.07
921.12	227.08
921.42	227.01
921.72	227.06
922.02	227.04
922.32	227.08
922.63	227.06
922.93	227.10
923.23	227.13
923.53	227.14
923.83	227.09
924.13	227.11
924.44	227.13
924.74	227.12
925.04	227.15
925.34	227.12
925.64	227.10
925.94	227.06
926.24	227.15
926.55	227.11
926.85	227.08
927.15	227.11
927.45	227.06
927.75	227.09
928.05	227.05
928.35	227.05
928.65	227.03
928.95	227.03
929.26	226.95
929.56	226.96
929.86	226.96
930.16	226.95
930.46	226.94
930.76	226.92
931.06	226.91
931.36	226.90
931.66	226.91
931.96	226.91
932.26	226.91
932.56	226.87
932.86	226.89
933.16	226.90
933.46	226.87
933.76	226.89
934.06	226.91
934.36	226.91
934.66	226.90
934.96	226.90
935.26	226.92
935.56	226.95
935.86	226.96
936.16	226.95
936.46	226.95
936.76	226.94
937.06	226.94
937.36	226.94
937.66	226.93
937.96	226.96
938.26	226.97
938.56	226.99
938.86	227.01
939.16	227.03
939.46	227.04
939.76	227.05
940.06	227.07
940.35	227.07
940.65	227.04
940.95	227.07
941.25	227.06
941.55	227.04
941.85	227.04
942.15	227.04
942.45	227.08
942.75	227.06
943.04	227.07
943.34	227.09
943.64	227.06
943.94	227.08
944.24	227.07
944.54	227.07
944.84	227.07
945.13	227.03
945.43	227.02
945.73	227.01
946.03	226.99
946.33	227.00
946.62	226.98
946.92	227.00
947.22	226.98
947.52	226.99
947.82	227.01
948.11	227.02
948.41	227.00
948.71	226.96
949.01	226.99
949.31	227.00
949.60	226.99
949.90	227.01
950.20	226.98
950.50	226.98
950.79	226.96
951.09	226.98
951.39	226.98
951.69	226.98
951.98	227.01
952.28	227.03
952.58	227.02
952.87	227.03
953.17	227.03
953.47	227.02
953.76	227.01
954.06	227.00
954.36	226.97
954.66	226.97
954.95	226.98
955.25	227.00
955.55	227.01
955.84	227.01
956.14	226.99
956.44	226.99
956.73	226.97
957.03	226.95
957.32	226.94
957.62	226.97
957.92	226.99
958.21	226.96
958.51	227.06
958.81	227.07
959.10	227.06
959.40	227.11
959.69	227.14
959.99	227.16
960.29	227.17
960.58	227.17
960.88	227.21
961.17	227.22
961.47	227.21
961.76	227.18
962.06	227.18
962.36	227.20
962.65	227.24
962.95	227.24
963.24	227.25
963.54	227.26
963.83	227.23
964.13	227.23
964.42	227.22
964.72	227.11
965.01	227.08
965.31	227.07
965.60	227.04
965.90	227.08
966.19	227.05
966.49	227.03
966.78	227.04
967.08	227.02
967.37	227.02
967.67	226.98
967.96	227.01
968.26	227.02
968.55	227.03
968.85	226.98
969.14	226.98
969.43	226.99
969.73	226.95
970.02	226.95
970.32	226.93
970.61	226.92
970.91	226.93
971.20	226.92
971.49	226.90
971.79	226.90
972.08	226.84
972.38	226.87
972.67	226.88
972.96	226.88
973.26	226.85
973.55	226.84
973.85	226.85
974.14	226.86
974.43	226.84
974.73	226.80
975.02	226.83
975.31	226.82
975.61	226.78
975.90	226.81
976.19	226.79
976.49	226.82
976.78	226.79
977.07	226.79
977.37	226.81
977.66	226.81
977.95	226.77
978.24	226.77
978.54	226.76
978.83	226.77
979.12	226.77
979.42	226.78
979.71	226.76
980.00	226.75
980.29	226.71
980.59	226.70
980.88	226.73
981.17	226.71
981.46	226.68
981.76	226.74
982.05	226.76
982.34	226.78
982.63	226.81
982.93	226.83
983.22	226.90
983.51	226.91
983.80	226.99
984.09	227.04
984.39	227.00
984.68	227.00
984.97	226.99
985.26	226.99
985.55	226.98
985.85	227.01
986.14	227.03
986.43	227.06
986.72	227.04
987.01	227.01
987.30	227.03
987.59	227.05
987.89	227.02
988.18	227.01
988.47	227.02
988.76	226.97
989.05	226.97
989.34	226.95
989.63	226.97
989.92	226.92
990.22	226.89
990.51	226.90
990.80	226.87
991.09	226.87
991.38	226.85
991.67	226.87
991.96	226.82
992.25	226.82
992.54	226.80
992.83	226.84
993.12	226.84
993.41	226.84
993.70	226.88
993.99	226.91
994.28	226.90
994.58	226.92
994.87	226.92
995.16	226.90
995.45	226.88
995.74	226.83
996.03	226.83
996.32	226.85
996.61	226.88
996.90	226.91
997.19	226.92
997.48	226.94
997.77	226.93
998.06	226.97
998.34	226.94
998.63	226.93
998.92	226.93
999.21	226.93
999.50	226.94
999.79	226.92
1000.08	226.91
1000.37	226.91
1000.66	226.88
1000.95	226.87
1001.24	226.89
1001.53	226.93
1001.82	226.91
1002.11	226.91
1002.40	226.91
1002.68	226.93
1002.97	226.97
1003.26	226.95
1003.55	226.92
1003.84	226.92
1004.13	226.93
1004.42	226.94
1004.71	226.96
1004.99	226.90
1005.28	226.93
1005.57	226.91
1005.86	226.87
1006.15	226.84
1006.44	226.84
1006.72	226.86
1007.01	226.85
1007.30	226.82
1007.59	226.77
1007.88	226.77
1008.17	226.77
1008.45	226.75
1008.74	226.72
1009.03	226.66
1009.32	226.65
1009.60	226.67
1009.89	226.65
1010.18	226.61
1010.47	226.60
1010.76	226.60
1011.04	226.63
1011.33	226.61
1011.62	226.61
1011.91	226.61
1012.19	226.63
1012.48	226.60
1012.77	226.59
1013.05	226.65
1013.34	226.69
1013.63	226.69
1013.92	226.70
1014.20	226.66
1014.49	226.67
1014.78	226.66
1015.06	226.64
1015.35	226.64
1015.64	226.63
1015.92	226.65
1016.21	226.67
1016.50	226.65
1016.78	226.65
1017.07	226.63
1017.36	226.59
1017.64	226.60
1017.93	226.63
1018.22	226.65
1018.50	226.65
1018.79	226.63
1019.08	226.54
1019.36	226.53
1019.65	226.51
1019.93	226.57
1020.22	226.58
1020.51	226.65
1020.79	226.65
1021.08	227.22
1021.36	226.15
1021.65	226.36
1021.94	226.41
1022.22	226.60
1022.51	226.19
1022.79	227.66
1023.08	226.35
1023.36	228.10
1023.65	226.71
>>>>>End Processed Spectral Data<<<<<
