SpectraSuite Data File
++++++++++++++++++++++++++++++++++++
Date: Fri Feb 01 15:12:36 EST 2013
User: group
Dark Spectrum Present: No
Reference Spectrum Present: No
Number of Sampled Component Spectra: 1
Spectrometers: USB2E7196
Integration Time (usec): 35000 (USB2E7196)
Spectra Averaged: 100 (USB2E7196)
Boxcar Smoothing: 10 (USB2E7196)
Correct for Electrical Dark: No (USB2E7196)
Strobe/Lamp Enabled: No (USB2E7196)
Correct for Detector Non-linearity: No (USB2E7196)
Correct for Stray Light: No (USB2E7196)
Number of Pixels in Processed Spectrum: 2048
>>>>>Begin Processed Spectral Data<<<<<
339.09	0.00
339.48	215.01
339.86	216.63
340.24	217.76
340.63	219.44
341.01	222.06
341.39	222.23
341.78	223.90
342.16	224.46
342.54	225.13
342.93	213.59
343.31	224.39
343.69	224.94
344.07	225.41
344.46	225.84
344.84	226.24
345.22	226.51
345.60	226.75
345.99	226.90
346.37	227.04
346.75	227.15
347.13	227.21
347.52	227.27
347.90	227.37
348.28	227.37
348.66	227.42
349.05	227.39
349.43	227.42
349.81	227.44
350.19	227.44
350.57	227.50
350.96	227.57
351.34	227.64
351.72	227.72
352.10	227.82
352.48	227.90
352.87	227.94
353.25	227.99
353.63	228.04
354.01	228.14
354.39	228.25
354.77	228.29
355.15	228.37
355.54	228.42
355.92	228.44
356.30	228.54
356.68	228.62
357.06	228.72
357.44	228.77
357.82	228.81
358.20	228.91
358.58	228.94
358.97	228.97
359.35	229.04
359.73	229.08
360.11	229.10
360.49	229.15
360.87	229.19
361.25	229.23
361.63	229.31
362.01	229.32
362.39	229.32
362.77	229.36
363.15	229.41
363.53	229.45
363.91	229.46
364.29	229.45
364.67	229.41
365.05	229.42
365.43	229.45
365.81	229.45
366.19	229.48
366.57	229.52
366.95	229.52
367.33	229.50
367.71	229.49
368.09	229.52
368.47	229.48
368.85	229.44
369.23	229.42
369.61	229.36
369.99	229.35
370.37	229.33
370.75	229.35
371.13	229.27
371.51	229.20
371.89	229.16
372.27	229.13
372.65	229.09
373.03	229.05
373.41	228.96
373.78	228.92
374.16	228.81
374.54	228.75
374.92	228.70
375.30	228.63
375.68	228.54
376.06	228.43
376.44	228.37
376.82	228.32
377.19	228.24
377.57	228.18
377.95	228.09
378.33	228.00
378.71	227.86
379.09	227.76
379.47	227.74
379.84	227.64
380.22	227.57
380.60	227.48
380.98	227.37
381.36	227.30
381.73	227.22
382.11	227.15
382.49	227.05
382.87	226.98
383.25	226.88
383.62	226.93
384.00	226.86
384.38	226.83
384.76	226.76
385.13	226.76
385.51	226.68
385.89	226.59
386.27	226.53
386.64	226.48
387.02	226.44
387.40	226.36
387.78	226.36
388.15	226.28
388.53	226.23
388.91	226.27
389.29	226.23
389.66	226.22
390.04	226.22
390.42	226.25
390.79	226.24
391.17	226.25
391.55	226.18
391.92	226.23
392.30	226.20
392.68	226.21
393.05	226.21
393.43	226.24
393.81	226.28
394.18	226.30
394.56	226.33
394.94	226.42
395.31	226.46
395.69	226.50
396.06	226.60
396.44	226.65
396.82	226.65
397.19	226.77
397.57	226.87
397.95	226.92
398.32	226.91
398.70	226.95
399.07	227.04
399.45	227.08
399.82	227.14
400.20	227.21
400.58	227.27
400.95	227.31
401.33	227.43
401.70	227.58
402.08	227.69
402.45	227.80
402.83	227.89
403.20	228.00
403.58	228.11
403.95	228.22
404.33	228.37
404.71	228.51
405.08	228.70
405.46	228.79
405.83	228.97
406.21	229.17
406.58	229.38
406.96	229.57
407.33	229.75
407.70	229.94
408.08	230.24
408.45	230.47
408.83	230.72
409.20	230.93
409.58	231.13
409.95	231.37
410.33	231.65
410.70	231.92
411.08	232.23
411.45	232.57
411.82	232.85
412.20	233.19
412.57	233.59
412.95	233.87
413.32	234.29
413.69	234.65
414.07	235.09
414.44	235.57
414.82	236.00
415.19	236.54
415.56	237.12
415.94	237.67
416.31	238.30
416.68	238.93
417.06	239.65
417.43	240.34
417.81	241.11
418.18	241.90
418.55	242.73
418.93	243.63
419.30	244.47
419.67	245.46
420.04	246.39
420.42	247.38
420.79	248.59
421.16	249.76
421.54	250.99
421.91	252.20
422.28	253.43
422.66	254.81
423.03	256.13
423.40	257.42
423.77	258.80
424.15	260.26
424.52	261.73
424.89	263.39
425.26	264.94
425.64	266.41
426.01	267.99
426.38	269.70
426.75	271.35
427.13	273.09
427.50	274.88
427.87	276.80
428.24	278.64
428.61	280.34
428.99	282.26
429.36	284.38
429.73	286.45
430.10	288.47
430.47	290.51
430.85	292.70
431.22	294.92
431.59	297.29
431.96	299.51
432.33	302.03
432.70	304.39
433.08	307.22
433.45	309.83
433.82	312.47
434.19	315.29
434.56	318.10
434.93	320.79
435.30	323.41
435.68	326.33
436.05	329.17
436.42	331.99
436.79	334.55
437.16	337.22
437.53	340.09
437.90	342.92
438.27	345.68
438.64	348.46
439.01	351.05
439.38	353.33
439.75	355.48
440.13	357.98
440.50	360.32
440.87	362.22
441.24	364.17
441.61	366.30
441.98	367.86
442.35	369.71
442.72	371.59
443.09	373.43
443.46	374.40
443.83	375.01
444.20	375.54
444.57	376.31
444.94	376.63
445.31	376.97
445.68	377.35
446.05	377.39
446.42	376.98
446.79	376.61
447.16	376.11
447.53	375.83
447.90	374.66
448.27	373.46
448.64	371.78
449.01	370.66
449.37	368.68
449.74	366.73
450.11	364.42
450.48	361.93
450.85	359.36
451.22	357.21
451.59	355.17
451.96	353.21
452.33	350.63
452.70	348.25
453.07	345.41
453.43	342.47
453.80	339.72
454.17	337.08
454.54	334.50
454.91	331.82
455.28	329.17
455.65	326.64
456.02	324.18
456.38	322.06
456.75	319.37
457.12	317.10
457.49	314.91
457.86	312.72
458.23	310.85
458.59	308.81
458.96	306.73
459.33	304.88
459.70	303.02
460.07	301.48
460.43	299.75
460.80	298.10
461.17	296.63
461.54	295.13
461.91	293.69
462.27	292.26
462.64	291.01
463.01	289.66
463.38	288.38
463.74	287.03
464.11	285.86
464.48	284.86
464.85	283.78
465.21	282.86
465.58	281.95
465.95	280.87
466.32	279.94
466.68	279.02
467.05	278.08
467.42	277.17
467.78	276.24
468.15	275.37
468.52	274.71
468.88	273.87
469.25	273.10
469.62	272.46
469.98	271.75
470.35	271.08
470.72	270.38
471.08	269.74
471.45	269.19
471.82	268.62
472.18	268.02
472.55	267.57
472.92	267.04
473.28	266.60
473.65	266.10
474.02	265.65
474.38	265.24
474.75	264.91
475.11	264.53
475.48	264.30
475.85	264.07
476.21	263.80
476.58	263.61
476.94	263.44
477.31	263.24
477.67	263.12
478.04	263.00
478.41	262.98
478.77	263.00
479.14	262.92
479.50	262.93
479.87	263.01
480.23	263.08
480.60	263.18
480.96	263.21
481.33	263.41
481.69	263.64
482.06	263.83
482.42	264.03
482.79	264.30
483.15	264.55
483.52	264.92
483.88	265.29
484.25	265.65
484.61	266.07
484.98	266.55
485.34	267.06
485.71	267.69
486.07	268.24
486.44	268.80
486.80	269.51
487.17	270.20
487.53	270.98
487.90	271.81
488.26	272.72
488.62	273.69
488.99	274.68
489.35	275.69
489.72	276.82
490.08	278.06
490.44	279.33
490.81	280.69
491.17	282.05
491.54	283.50
491.90	285.05
492.26	286.68
492.63	288.39
492.99	290.17
493.36	292.00
493.72	294.09
494.08	296.19
494.45	298.43
494.81	300.80
495.17	303.23
495.54	305.79
495.90	308.48
496.26	311.28
496.63	314.23
496.99	317.29
497.35	320.54
497.72	323.87
498.08	327.33
498.44	331.02
498.80	334.92
499.17	338.95
499.53	343.10
499.89	347.50
500.26	352.00
500.62	356.63
500.98	361.55
501.34	366.59
501.71	371.90
502.07	377.33
502.43	382.95
502.79	388.79
503.16	394.84
503.52	401.12
503.88	407.55
504.24	414.18
504.60	421.09
504.97	428.20
505.33	435.53
505.69	443.23
506.05	450.91
506.41	458.77
506.78	466.88
507.14	475.29
507.50	484.02
507.86	493.02
508.22	502.25
508.59	511.54
508.95	521.09
509.31	530.90
509.67	541.02
510.03	551.36
510.39	561.86
510.75	572.67
511.12	583.61
511.48	594.88
511.84	606.30
512.20	617.84
512.56	629.85
512.92	642.02
513.28	654.29
513.64	666.87
514.00	679.61
514.37	692.61
514.73	705.75
515.09	718.71
515.45	732.00
515.81	745.63
516.17	759.52
516.53	773.73
516.89	787.93
517.25	802.11
517.61	816.48
517.97	831.02
518.33	845.39
518.69	860.23
519.05	875.25
519.41	890.52
519.77	906.12
520.13	921.48
520.49	936.90
520.85	952.43
521.21	968.19
521.57	984.43
521.93	1000.31
522.29	1016.65
522.65	1033.04
523.01	1049.37
523.37	1065.51
523.73	1081.81
524.09	1097.95
524.45	1114.33
524.81	1130.99
525.17	1147.95
525.53	1165.01
525.89	1182.11
526.25	1198.98
526.61	1215.49
526.97	1232.25
527.33	1248.73
527.68	1265.51
528.04	1282.25
528.40	1299.06
528.76	1316.13
529.12	1332.82
529.48	1349.67
529.84	1365.93
530.20	1382.60
530.56	1399.72
530.91	1417.06
531.27	1433.93
531.63	1450.46
531.99	1467.08
532.35	1483.08
532.71	1498.90
533.07	1515.04
533.42	1530.97
533.78	1547.01
534.14	1563.19
534.50	1578.67
534.86	1594.60
535.21	1609.91
535.57	1625.83
535.93	1641.23
536.29	1656.09
536.65	1671.25
537.00	1686.14
537.36	1701.48
537.72	1716.11
538.08	1730.55
538.44	1744.54
538.79	1758.60
539.15	1772.48
539.51	1786.40
539.87	1800.92
540.22	1814.72
540.58	1828.70
540.94	1842.12
541.29	1855.24
541.65	1868.04
542.01	1881.45
542.37	1893.78
542.72	1906.25
543.08	1917.92
543.44	1930.46
543.79	1941.80
544.15	1952.93
544.51	1964.55
544.87	1975.63
545.22	1986.46
545.58	1996.73
545.94	2006.45
546.29	2016.23
546.65	2026.11
547.01	2035.34
547.36	2044.01
547.72	2052.59
548.07	2060.43
548.43	2068.56
548.79	2076.60
549.14	2084.31
549.50	2091.63
549.86	2099.46
550.21	2106.70
550.57	2114.06
550.92	2120.63
551.28	2127.68
551.64	2134.80
551.99	2141.29
552.35	2147.51
552.70	2153.57
553.06	2159.52
553.41	2165.97
553.77	2172.05
554.13	2178.07
554.48	2184.14
554.84	2189.59
555.19	2194.92
555.55	2199.96
555.90	2204.44
556.26	2209.30
556.61	2214.01
556.97	2218.11
557.32	2222.21
557.68	2226.59
558.03	2230.87
558.39	2234.58
558.74	2239.30
559.10	2242.98
559.45	2246.66
559.81	2250.96
560.16	2254.78
560.52	2258.03
560.87	2261.30
561.23	2263.78
561.58	2266.58
561.94	2269.21
562.29	2271.60
562.64	2274.22
563.00	2276.88
563.35	2280.43
563.71	2283.54
564.06	2286.65
564.42	2289.54
564.77	2291.89
565.12	2293.73
565.48	2295.41
565.83	2297.14
566.19	2298.23
566.54	2299.23
566.89	2300.26
567.25	2300.58
567.60	2301.88
567.96	2303.42
568.31	2304.29
568.66	2305.43
569.02	2305.96
569.37	2306.09
569.72	2306.96
570.08	2306.98
570.43	2306.83
570.78	2305.99
571.14	2304.19
571.49	2302.76
571.84	2302.37
572.20	2301.20
572.55	2300.23
572.90	2298.70
573.26	2297.31
573.61	2295.56
573.96	2293.58
574.31	2290.56
574.67	2287.44
575.02	2283.75
575.37	2280.29
575.72	2276.37
576.08	2273.04
576.43	2269.67
576.78	2265.93
577.13	2262.49
577.49	2259.29
577.84	2255.76
578.19	2252.16
578.54	2248.38
578.90	2243.97
579.25	2238.27
579.60	2233.18
579.95	2228.02
580.30	2222.90
580.66	2217.55
581.01	2212.64
581.36	2207.58
581.71	2203.11
582.06	2198.61
582.42	2194.03
582.77	2188.72
583.12	2183.83
583.47	2178.80
583.82	2173.66
584.17	2168.35
584.53	2162.79
584.88	2157.17
585.23	2151.28
585.58	2145.64
585.93	2140.15
586.28	2135.40
586.63	2130.20
586.98	2125.08
587.34	2120.30
587.69	2115.39
588.04	2110.04
588.39	2104.11
588.74	2097.62
589.09	2091.49
589.44	2084.55
589.79	2078.52
590.14	2072.82
590.49	2066.31
590.84	2059.87
591.19	2053.71
591.54	2047.17
591.89	2039.64
592.25	2032.67
592.60	2025.39
592.95	2017.55
593.30	2010.10
593.65	2002.34
594.00	1995.36
594.35	1988.01
594.70	1979.92
595.05	1972.51
595.40	1965.09
595.75	1957.58
596.10	1951.20
596.45	1944.30
596.80	1938.10
597.15	1931.23
597.50	1924.05
597.85	1917.55
598.19	1910.86
598.54	1903.62
598.89	1897.02
599.24	1891.18
599.59	1884.39
599.94	1878.08
600.29	1871.84
600.64	1865.33
600.99	1857.82
601.34	1850.83
601.69	1843.85
602.04	1836.81
602.39	1829.47
602.74	1822.60
603.08	1815.83
603.43	1809.08
603.78	1801.94
604.13	1794.80
604.48	1787.50
604.83	1780.62
605.18	1773.63
605.53	1765.55
605.87	1757.61
606.22	1750.23
606.57	1742.16
606.92	1734.94
607.27	1727.74
607.62	1720.76
607.96	1713.41
608.31	1706.79
608.66	1699.09
609.01	1691.47
609.36	1683.91
609.70	1675.84
610.05	1667.71
610.40	1660.01
610.75	1651.76
611.10	1644.01
611.44	1635.55
611.79	1627.58
612.14	1618.83
612.49	1609.62
612.83	1601.36
613.18	1593.33
613.53	1585.21
613.88	1576.82
614.22	1568.45
614.57	1559.90
614.92	1551.87
615.27	1544.21
615.61	1535.89
615.96	1527.94
616.31	1520.49
616.65	1513.14
617.00	1505.58
617.35	1498.05
617.70	1489.67
618.04	1481.00
618.39	1472.77
618.74	1465.26
619.08	1457.00
619.43	1449.51
619.78	1442.71
620.12	1435.48
620.47	1427.86
620.82	1419.74
621.16	1412.34
621.51	1404.81
621.85	1397.23
622.20	1388.73
622.55	1380.56
622.89	1372.72
623.24	1365.16
623.59	1357.67
623.93	1350.21
624.28	1343.04
624.62	1335.48
624.97	1328.28
625.32	1321.71
625.66	1314.76
626.01	1307.40
626.35	1299.92
626.70	1292.10
627.04	1284.27
627.39	1276.52
627.73	1269.21
628.08	1262.24
628.43	1254.88
628.77	1247.53
629.12	1239.95
629.46	1232.71
629.81	1225.24
630.15	1218.05
630.50	1210.53
630.84	1202.33
631.19	1194.52
631.53	1187.04
631.88	1179.53
632.22	1171.86
632.57	1164.54
632.91	1157.06
633.26	1149.60
633.60	1142.32
633.95	1135.32
634.29	1128.44
634.64	1121.83
634.98	1114.45
635.32	1107.38
635.67	1100.88
636.01	1094.26
636.36	1087.42
636.70	1080.98
637.05	1074.46
637.39	1067.99
637.73	1061.63
638.08	1055.84
638.42	1049.90
638.77	1043.52
639.11	1036.89
639.45	1030.61
639.80	1023.96
640.14	1017.42
640.49	1011.07
640.83	1004.77
641.17	998.51
641.52	992.17
641.86	985.74
642.20	979.93
642.55	973.60
642.89	967.07
643.23	960.51
643.58	954.76
643.92	948.62
644.26	942.51
644.61	936.56
644.95	930.49
645.29	923.91
645.64	917.10
645.98	910.69
646.32	904.95
646.66	898.91
647.01	893.16
647.35	887.49
647.69	881.64
648.04	876.14
648.38	870.41
648.72	864.32
649.06	858.21
649.41	852.34
649.75	846.44
650.09	840.43
650.43	834.60
650.78	828.44
651.12	822.40
651.46	816.76
651.80	810.88
652.14	805.45
652.49	800.05
652.83	794.89
653.17	789.15
653.51	783.40
653.85	778.02
654.20	772.33
654.54	766.29
654.88	760.60
655.22	754.68
655.56	748.93
655.90	743.54
656.25	738.28
656.59	732.87
656.93	727.75
657.27	722.69
657.61	717.37
657.95	712.25
658.29	707.25
658.64	701.98
658.98	696.82
659.32	691.46
659.66	686.26
660.00	680.88
660.34	676.02
660.68	671.09
661.02	666.05
661.36	661.37
661.70	656.98
662.05	652.60
662.39	648.25
662.73	643.91
663.07	639.52
663.41	635.13
663.75	630.63
664.09	626.15
664.43	621.78
664.77	617.65
665.11	613.49
665.45	609.43
665.79	605.38
666.13	601.31
666.47	597.14
666.81	592.99
667.15	588.90
667.49	585.04
667.83	581.29
668.17	577.43
668.51	573.37
668.85	569.39
669.19	565.53
669.53	561.71
669.87	557.81
670.21	554.17
670.55	550.54
670.89	547.18
671.23	543.69
671.57	540.18
671.91	536.67
672.25	533.18
672.58	529.70
672.92	526.31
673.26	523.15
673.60	520.12
673.94	517.08
674.28	514.26
674.62	511.29
674.96	508.27
675.30	505.39
675.64	502.53
675.97	499.72
676.31	496.90
676.65	494.10
676.99	491.34
677.33	488.48
677.67	485.64
678.01	482.61
678.34	479.67
678.68	476.81
679.02	473.98
679.36	471.21
679.70	468.50
680.04	465.74
680.37	462.82
680.71	459.98
681.05	457.35
681.39	454.62
681.73	452.01
682.06	449.41
682.40	446.85
682.74	444.34
683.08	441.83
683.42	439.24
683.75	436.72
684.09	434.22
684.43	431.82
684.77	429.40
685.10	427.11
685.44	424.81
685.78	422.53
686.12	420.30
686.45	418.06
686.79	415.73
687.13	413.54
687.46	411.41
687.80	409.27
688.14	407.09
688.48	405.01
688.81	402.77
689.15	400.63
689.49	398.53
689.82	396.41
690.16	394.33
690.50	392.36
690.83	390.37
691.17	388.36
691.51	386.38
691.84	384.53
692.18	382.59
692.52	380.63
692.85	378.70
693.19	376.81
693.52	374.96
693.86	373.13
694.20	371.34
694.53	369.53
694.87	367.73
695.21	365.90
695.54	364.11
695.88	362.40
696.21	360.68
696.55	358.94
696.88	357.23
697.22	355.56
697.56	353.92
697.89	352.26
698.23	350.70
698.56	349.10
698.90	347.52
699.23	345.81
699.57	344.28
699.90	342.77
700.24	341.24
700.58	339.71
700.91	338.23
701.25	336.83
701.58	335.46
701.92	334.10
702.25	332.77
702.59	331.41
702.92	330.08
703.26	328.74
703.59	327.47
703.93	326.32
704.26	325.13
704.60	323.87
704.93	322.62
705.26	321.38
705.60	320.26
705.93	319.09
706.27	318.11
706.60	317.08
706.94	316.00
707.27	314.84
707.61	313.84
707.94	312.82
708.27	311.69
708.61	310.62
708.94	309.63
709.28	308.67
709.61	307.71
709.94	306.78
710.28	305.81
710.61	304.90
710.95	303.85
711.28	302.89
711.61	301.95
711.95	301.02
712.28	300.05
712.61	299.06
712.95	298.12
713.28	297.24
713.61	296.31
713.95	295.41
714.28	294.64
714.61	293.72
714.95	292.89
715.28	292.09
715.61	291.23
715.95	290.38
716.28	289.52
716.61	288.68
716.95	287.88
717.28	287.15
717.61	286.41
717.94	285.67
718.28	284.87
718.61	284.15
718.94	283.51
719.27	282.92
719.61	282.30
719.94	281.68
720.27	280.96
720.60	280.31
720.94	279.64
721.27	279.02
721.60	278.48
721.93	277.92
722.27	277.38
722.60	276.82
722.93	276.20
723.26	275.68
723.59	275.16
723.93	274.60
724.26	274.03
724.59	273.47
724.92	272.96
725.25	272.43
725.59	271.93
725.92	271.39
726.25	270.84
726.58	270.35
726.91	269.87
727.24	269.42
727.57	268.99
727.91	268.53
728.24	268.09
728.57	267.58
728.90	267.08
729.23	266.55
729.56	266.11
729.89	265.65
730.22	265.15
730.55	264.67
730.89	264.21
731.22	263.78
731.55	263.33
731.88	262.89
732.21	262.48
732.54	262.01
732.87	261.59
733.20	261.20
733.53	260.83
733.86	260.47
734.19	260.02
734.52	259.58
734.85	259.24
735.18	258.83
735.51	258.44
735.84	258.07
736.17	257.72
736.50	257.33
736.83	257.10
737.16	256.76
737.49	256.45
737.82	256.14
738.15	255.77
738.48	255.43
738.81	255.10
739.14	254.78
739.47	254.50
739.80	254.21
740.13	253.90
740.46	253.53
740.79	253.16
741.12	252.88
741.45	252.57
741.78	252.24
742.11	251.92
742.44	251.60
742.77	251.34
743.10	251.05
743.43	250.73
743.75	250.34
744.08	250.19
744.41	249.90
744.74	249.64
745.07	249.38
745.40	249.14
745.73	248.91
746.06	248.60
746.39	248.37
746.71	248.12
747.04	247.85
747.37	247.60
747.70	247.36
748.03	247.13
748.36	246.88
748.68	246.64
749.01	246.38
749.34	246.17
749.67	245.92
750.00	245.68
750.33	245.54
750.65	245.38
750.98	245.04
751.31	244.79
751.64	244.55
751.97	244.39
752.29	244.16
752.62	243.86
752.95	243.70
753.28	243.46
753.60	243.23
753.93	243.08
754.26	242.90
754.59	242.67
754.91	242.46
755.24	242.29
755.57	242.08
755.90	241.91
756.22	241.73
756.55	241.55
756.88	241.39
757.20	241.18
757.53	240.96
757.86	240.78
758.19	240.66
758.51	240.52
758.84	240.29
759.17	240.12
759.49	240.01
759.82	239.88
760.15	239.75
760.47	239.61
760.80	239.41
761.13	239.27
761.45	239.17
761.78	239.03
762.11	238.89
762.43	238.78
762.76	238.66
763.08	238.52
763.41	238.38
763.74	238.24
764.06	238.10
764.39	237.97
764.71	237.81
765.04	237.65
765.37	237.52
765.69	237.41
766.02	237.29
766.34	237.16
766.67	237.00
767.00	236.89
767.32	236.83
767.65	236.80
767.97	236.65
768.30	236.50
768.62	236.38
768.95	236.24
769.27	236.12
769.60	236.03
769.92	235.93
770.25	235.78
770.57	235.65
770.90	235.55
771.22	235.44
771.55	235.36
771.87	235.28
772.20	235.18
772.52	235.18
772.85	235.19
773.17	235.09
773.50	235.02
773.82	234.90
774.15	234.73
774.47	234.54
774.80	234.47
775.12	234.40
775.45	234.31
775.77	234.25
776.09	234.17
776.42	234.05
776.74	233.97
777.07	233.92
777.39	233.86
777.72	233.78
778.04	233.71
778.36	233.65
778.69	233.56
779.01	233.48
779.33	233.29
779.66	233.12
779.98	233.06
780.31	232.96
780.63	232.94
780.95	232.91
781.28	232.86
781.60	232.77
781.92	232.72
782.25	232.65
782.57	232.58
782.89	232.53
783.22	232.51
783.54	232.46
783.86	232.42
784.19	232.34
784.51	232.28
784.83	232.23
785.16	232.15
785.48	232.11
785.80	232.06
786.12	232.05
786.45	231.99
786.77	231.96
787.09	231.89
787.42	231.80
787.74	231.77
788.06	231.73
788.38	231.66
788.71	231.61
789.03	231.58
789.35	231.53
789.67	231.47
789.99	231.40
790.32	231.33
790.64	231.28
790.96	231.32
791.28	231.28
791.61	231.24
791.93	231.21
792.25	231.17
792.57	231.22
792.89	231.16
793.21	231.13
793.54	231.09
793.86	231.09
794.18	231.06
794.50	231.00
794.82	230.96
795.14	230.95
795.47	230.93
795.79	230.88
796.11	230.83
796.43	230.82
796.75	230.83
797.07	230.81
797.39	230.80
797.71	230.72
798.04	230.67
798.36	230.64
798.68	230.61
799.00	230.56
799.32	230.47
799.64	230.46
799.96	230.45
800.28	230.41
800.60	230.39
800.92	230.38
801.24	230.33
801.56	230.32
801.89	230.30
802.21	230.28
802.53	230.24
802.85	230.24
803.17	230.25
803.49	230.17
803.81	230.13
804.13	230.10
804.45	230.06
804.77	230.07
805.09	230.06
805.41	230.02
805.73	229.98
806.05	229.96
806.37	229.93
806.69	229.89
807.01	229.88
807.33	229.85
807.65	229.78
807.97	229.80
808.28	229.76
808.60	229.72
808.92	229.65
809.24	229.69
809.56	229.65
809.88	229.57
810.20	229.56
810.52	229.56
810.84	229.52
811.16	229.47
811.48	229.41
811.80	229.43
812.12	229.41
812.43	229.41
812.75	229.36
813.07	229.29
813.39	229.26
813.71	229.22
814.03	229.15
814.35	229.13
814.67	229.09
814.98	229.07
815.30	229.03
815.62	229.01
815.94	228.95
816.26	228.98
816.58	228.93
816.89	228.93
817.21	228.90
817.53	228.88
817.85	228.85
818.17	228.85
818.48	228.77
818.80	228.80
819.12	228.72
819.44	228.71
819.76	228.73
820.07	228.70
820.39	228.70
820.71	228.70
821.03	228.71
821.34	228.68
821.66	228.67
821.98	228.69
822.30	228.69
822.61	228.70
822.93	228.66
823.25	228.65
823.57	228.64
823.88	228.62
824.20	228.61
824.52	228.64
824.83	228.62
825.15	228.61
825.47	228.57
825.79	228.63
826.10	228.61
826.42	228.58
826.74	228.60
827.05	228.57
827.37	228.55
827.69	228.53
828.00	228.52
828.32	228.53
828.64	228.54
828.95	228.56
829.27	228.53
829.58	228.50
829.90	228.51
830.22	228.49
830.53	228.44
830.85	228.42
831.17	228.35
831.48	228.33
831.80	228.31
832.11	228.29
832.43	228.24
832.75	228.22
833.06	228.25
833.38	228.22
833.69	228.23
834.01	228.24
834.32	228.23
834.64	228.20
834.96	228.15
835.27	228.12
835.59	228.06
835.90	228.01
836.22	228.03
836.53	228.00
836.85	227.99
837.16	228.10
837.48	228.09
837.79	228.14
838.11	228.12
838.42	228.10
838.74	228.15
839.05	228.13
839.37	228.12
839.68	228.07
840.00	228.03
840.31	228.02
840.63	228.02
840.94	228.01
841.26	227.99
841.57	227.99
841.88	228.00
842.20	228.02
842.51	228.05
842.83	227.99
843.14	228.08
843.46	228.08
843.77	228.01
844.08	227.99
844.40	227.95
844.71	227.94
845.03	227.94
845.34	227.87
845.65	227.88
845.97	227.87
846.28	227.84
846.60	227.84
846.91	227.81
847.22	227.82
847.54	227.84
847.85	227.86
848.16	227.85
848.48	227.82
848.79	227.81
849.10	227.80
849.42	227.80
849.73	227.69
850.04	227.67
850.36	227.65
850.67	227.68
850.98	227.69
851.30	227.68
851.61	227.69
851.92	227.68
852.23	227.71
852.55	227.72
852.86	227.74
853.17	227.72
853.49	227.78
853.80	227.77
854.11	227.77
854.42	227.76
854.74	227.79
855.05	227.79
855.36	227.76
855.67	227.74
855.99	227.76
856.30	227.88
856.61	227.86
856.92	227.84
857.23	227.81
857.55	227.79
857.86	227.79
858.17	227.79
858.48	227.79
858.79	227.77
859.11	227.80
859.42	227.82
859.73	227.84
860.04	227.81
860.35	227.76
860.66	227.74
860.98	227.73
861.29	227.70
861.60	227.69
861.91	227.72
862.22	227.72
862.53	227.71
862.84	227.62
863.16	227.66
863.47	227.66
863.78	227.67
864.09	227.69
864.40	227.70
864.71	227.70
865.02	227.70
865.33	227.69
865.64	227.63
865.95	227.63
866.27	227.71
866.58	227.69
866.89	227.73
867.20	227.70
867.51	227.70
867.82	227.69
868.13	227.74
868.44	227.70
868.75	227.75
869.06	227.74
869.37	227.76
869.68	227.74
869.99	227.76
870.30	227.81
870.61	227.82
870.92	227.82
871.23	227.82
871.54	227.83
871.85	227.86
872.16	227.89
872.47	227.86
872.78	227.79
873.09	227.81
873.40	227.80
873.71	227.82
874.02	227.82
874.33	227.81
874.64	227.77
874.95	227.80
875.26	227.76
875.56	227.77
875.87	227.76
876.18	227.76
876.49	227.83
876.80	227.76
877.11	227.75
877.42	227.77
877.73	227.74
878.04	227.72
878.35	227.70
878.66	227.69
878.96	227.69
879.27	227.66
879.58	227.67
879.89	227.65
880.20	227.70
880.51	227.67
880.82	227.69
881.12	227.68
881.43	227.64
881.74	227.61
882.05	227.60
882.36	227.59
882.67	227.59
882.97	227.47
883.28	227.49
883.59	227.47
883.90	227.42
884.21	227.46
884.51	227.46
884.82	227.46
885.13	227.45
885.44	227.44
885.74	227.42
886.05	227.40
886.36	227.39
886.67	227.34
886.98	227.42
887.28	227.42
887.59	227.43
887.90	227.45
888.20	227.44
888.51	227.45
888.82	227.42
889.13	227.44
889.43	227.49
889.74	227.51
890.05	227.51
890.35	227.52
890.66	227.49
890.97	227.46
891.28	227.46
891.58	227.46
891.89	227.48
892.20	227.48
892.50	227.43
892.81	227.45
893.12	227.42
893.42	227.32
893.73	227.33
894.04	227.29
894.34	227.32
894.65	227.30
894.95	227.27
895.26	227.27
895.57	227.30
895.87	227.22
896.18	227.20
896.48	227.21
896.79	227.21
897.10	227.24
897.40	227.25
897.71	227.24
898.01	227.25
898.32	227.26
898.63	227.26
898.93	227.29
899.24	227.31
899.54	227.33
899.85	227.36
900.15	227.33
900.46	227.33
900.76	227.30
901.07	227.33
901.38	227.35
901.68	227.39
901.99	227.34
902.29	227.37
902.60	227.33
902.90	227.34
903.21	227.33
903.51	227.30
903.82	227.34
904.12	227.36
904.43	227.36
904.73	227.34
905.03	227.37
905.34	227.48
905.64	227.44
905.95	227.43
906.25	227.46
906.56	227.51
906.86	227.53
907.17	227.54
907.47	227.57
907.77	227.55
908.08	227.51
908.38	227.51
908.69	227.50
908.99	227.57
909.30	227.57
909.60	227.58
909.90	227.61
910.21	227.55
910.51	227.50
910.81	227.51
911.12	227.48
911.42	227.47
911.73	227.36
912.03	227.37
912.33	227.39
912.64	227.38
912.94	227.35
913.24	227.33
913.55	227.33
913.85	227.29
914.15	227.35
914.46	227.39
914.76	227.41
915.06	227.39
915.37	227.33
915.67	227.30
915.97	227.29
916.27	227.25
916.58	227.24
916.88	227.24
917.18	227.21
917.49	227.31
917.79	227.28
918.09	227.26
918.39	227.30
918.70	227.27
919.00	227.27
919.30	227.30
919.60	227.33
919.91	227.28
920.21	227.31
920.51	227.30
920.81	227.26
921.12	227.26
921.42	227.26
921.72	227.29
922.02	227.29
922.32	227.29
922.63	227.30
922.93	227.35
923.23	227.36
923.53	227.35
923.83	227.31
924.13	227.32
924.44	227.33
924.74	227.34
925.04	227.35
925.34	227.30
925.64	227.28
925.94	227.23
926.24	227.32
926.55	227.28
926.85	227.25
927.15	227.22
927.45	227.21
927.75	227.24
928.05	227.22
928.35	227.20
928.65	227.21
928.95	227.21
929.26	227.18
929.56	227.18
929.86	227.19
930.16	227.15
930.46	227.15
930.76	227.14
931.06	227.08
931.36	227.03
931.66	227.05
931.96	227.03
932.26	227.04
932.56	227.01
932.86	227.01
933.16	227.01
933.46	227.03
933.76	226.99
934.06	227.00
934.36	227.04
934.66	227.01
934.96	227.02
935.26	227.03
935.56	227.06
935.86	227.02
936.16	226.99
936.46	226.99
936.76	227.00
937.06	226.98
937.36	226.97
937.66	227.04
937.96	227.03
938.26	227.03
938.56	227.01
938.86	226.98
939.16	226.97
939.46	227.00
939.76	227.01
940.06	227.02
940.35	226.98
940.65	226.93
940.95	226.97
941.25	226.93
941.55	226.89
941.85	226.88
942.15	226.92
942.45	226.95
942.75	226.96
943.04	226.94
943.34	226.99
943.64	226.97
943.94	226.91
944.24	226.91
944.54	226.90
944.84	226.91
945.13	226.93
945.43	226.97
945.73	226.92
946.03	226.92
946.33	226.93
946.62	226.97
946.92	226.97
947.22	227.01
947.52	227.04
947.82	227.09
948.11	227.07
948.41	227.07
948.71	227.04
949.01	227.03
949.31	227.04
949.60	227.03
949.90	227.07
950.20	227.10
950.50	227.11
950.79	227.15
951.09	227.16
951.39	227.15
951.69	227.16
951.98	227.21
952.28	227.22
952.58	227.19
952.87	227.19
953.17	227.23
953.47	227.18
953.76	227.18
954.06	227.18
954.36	227.18
954.66	227.21
954.95	227.26
955.25	227.29
955.55	227.33
955.84	227.36
956.14	227.39
956.44	227.37
956.73	227.35
957.03	227.35
957.32	227.41
957.62	227.41
957.92	227.40
958.21	227.38
958.51	227.47
958.81	227.50
959.10	227.49
959.40	227.53
959.69	227.54
959.99	227.52
960.29	227.53
960.58	227.52
960.88	227.53
961.17	227.52
961.47	227.47
961.76	227.45
962.06	227.46
962.36	227.47
962.65	227.47
962.95	227.49
963.24	227.45
963.54	227.39
963.83	227.37
964.13	227.36
964.42	227.34
964.72	227.28
965.01	227.25
965.31	227.23
965.60	227.19
965.90	227.24
966.19	227.23
966.49	227.20
966.78	227.18
967.08	227.15
967.37	227.13
967.67	227.13
967.96	227.16
968.26	227.08
968.55	227.06
968.85	227.05
969.14	227.03
969.43	227.04
969.73	227.05
970.02	227.03
970.32	227.00
970.61	226.99
970.91	226.94
971.20	226.96
971.49	226.93
971.79	226.90
972.08	226.84
972.38	226.83
972.67	226.83
972.96	226.87
973.26	226.85
973.55	226.86
973.85	226.87
974.14	226.82
974.43	226.87
974.73	226.84
975.02	226.84
975.31	226.85
975.61	226.83
975.90	226.83
976.19	226.83
976.49	226.83
976.78	226.87
977.07	226.87
977.37	226.89
977.66	226.93
977.95	226.94
978.24	226.97
978.54	227.01
978.83	227.01
979.12	227.01
979.42	227.02
979.71	227.00
980.00	226.99
980.29	227.00
980.59	226.96
980.88	227.02
981.17	227.01
981.46	227.01
981.76	227.02
982.05	227.08
982.34	227.12
982.63	227.15
982.93	227.13
983.22	227.19
983.51	227.20
983.80	227.22
984.09	227.27
984.39	227.25
984.68	227.24
984.97	227.27
985.26	227.26
985.55	227.29
985.85	227.30
986.14	227.32
986.43	227.36
986.72	227.38
987.01	227.34
987.30	227.36
987.59	227.37
987.89	227.40
988.18	227.37
988.47	227.38
988.76	227.38
989.05	227.38
989.34	227.35
989.63	227.34
989.92	227.33
990.22	227.32
990.51	227.34
990.80	227.33
991.09	227.33
991.38	227.33
991.67	227.32
991.96	227.32
992.25	227.32
992.54	227.31
992.83	227.30
993.12	227.33
993.41	227.32
993.70	227.37
993.99	227.40
994.28	227.39
994.58	227.37
994.87	227.35
995.16	227.31
995.45	227.32
995.74	227.26
996.03	227.27
996.32	227.25
996.61	227.23
996.90	227.25
997.19	227.24
997.48	227.24
997.77	227.22
998.06	227.19
998.34	227.17
998.63	227.15
998.92	227.16
999.21	227.12
999.50	227.14
999.79	227.05
1000.08	227.01
1000.37	226.96
1000.66	226.94
1000.95	226.95
1001.24	226.97
1001.53	226.96
1001.82	226.97
1002.11	226.94
1002.40	226.96
1002.68	226.96
1002.97	226.99
1003.26	226.97
1003.55	226.94
1003.84	226.96
1004.13	226.97
1004.42	226.98
1004.71	226.97
1004.99	226.96
1005.28	227.01
1005.57	226.98
1005.86	226.99
1006.15	226.97
1006.44	226.99
1006.72	226.97
1007.01	226.94
1007.30	226.94
1007.59	226.92
1007.88	226.91
1008.17	226.90
1008.45	226.85
1008.74	226.83
1009.03	226.79
1009.32	226.79
1009.60	226.78
1009.89	226.74
1010.18	226.73
1010.47	226.69
1010.76	226.69
1011.04	226.64
1011.33	226.62
1011.62	226.62
1011.91	226.63
1012.19	226.65
1012.48	226.66
1012.77	226.67
1013.05	226.73
1013.34	226.72
1013.63	226.71
1013.92	226.73
1014.20	226.73
1014.49	226.76
1014.78	226.79
1015.06	226.76
1015.35	226.75
1015.64	226.77
1015.92	226.81
1016.21	226.81
1016.50	226.83
1016.78	226.87
1017.07	226.89
1017.36	226.89
1017.64	226.90
1017.93	226.93
1018.22	226.90
1018.50	226.89
1018.79	226.92
1019.08	226.85
1019.36	226.87
1019.65	226.85
1019.93	226.85
1020.22	226.87
1020.51	226.93
1020.79	226.94
1021.08	226.65
1021.36	226.47
1021.65	227.17
1021.94	226.40
1022.22	227.16
1022.51	226.17
1022.79	226.97
1023.08	227.06
1023.36	228.24
1023.65	227.28
>>>>>End Processed Spectral Data<<<<<
