SpectraSuite Data File
++++++++++++++++++++++++++++++++++++
Date: Fri Feb 01 14:53:42 EST 2013
User: group
Dark Spectrum Present: No
Reference Spectrum Present: No
Number of Sampled Component Spectra: 1
Spectrometers: USB2E7196
Integration Time (usec): 35000 (USB2E7196)
Spectra Averaged: 100 (USB2E7196)
Boxcar Smoothing: 10 (USB2E7196)
Correct for Electrical Dark: No (USB2E7196)
Strobe/Lamp Enabled: No (USB2E7196)
Correct for Detector Non-linearity: No (USB2E7196)
Correct for Stray Light: No (USB2E7196)
Number of Pixels in Processed Spectrum: 2048
>>>>>Begin Processed Spectral Data<<<<<
339.09	0.00
339.48	215.13
339.86	217.07
340.24	218.14
340.63	219.90
341.01	222.35
341.39	222.15
341.78	222.74
342.16	224.93
342.54	225.28
342.93	213.58
343.31	224.39
343.69	224.97
344.07	225.42
344.46	225.86
344.84	226.21
345.22	226.44
345.60	226.69
345.99	226.92
346.37	227.07
346.75	227.18
347.13	227.25
347.52	227.31
347.90	227.35
348.28	227.37
348.66	227.43
349.05	227.46
349.43	227.48
349.81	227.52
350.19	227.53
350.57	227.57
350.96	227.64
351.34	227.71
351.72	227.79
352.10	227.91
352.48	227.98
352.87	228.03
353.25	228.12
353.63	228.21
354.01	228.28
354.39	228.34
354.77	228.41
355.15	228.51
355.54	228.59
355.92	228.67
356.30	228.78
356.68	228.93
357.06	229.01
357.44	229.10
357.82	229.13
358.20	229.24
358.58	229.34
358.97	229.38
359.35	229.48
359.73	229.51
360.11	229.57
360.49	229.60
360.87	229.69
361.25	229.75
361.63	229.82
362.01	229.88
362.39	229.89
362.77	229.95
363.15	229.99
363.53	230.01
363.91	230.02
364.29	230.01
364.67	229.94
365.05	229.93
365.43	229.95
365.81	229.99
366.19	230.02
366.57	230.05
366.95	230.05
367.33	229.98
367.71	229.98
368.09	229.96
368.47	229.93
368.85	229.88
369.23	229.83
369.61	229.76
369.99	229.71
370.37	229.68
370.75	229.66
371.13	229.55
371.51	229.50
371.89	229.43
372.27	229.38
372.65	229.34
373.03	229.30
373.41	229.21
373.78	229.15
374.16	229.03
374.54	228.92
374.92	228.84
375.30	228.76
375.68	228.67
376.06	228.60
376.44	228.53
376.82	228.44
377.19	228.37
377.57	228.27
377.95	228.18
378.33	228.08
378.71	227.96
379.09	227.84
379.47	227.76
379.84	227.70
380.22	227.59
380.60	227.48
380.98	227.39
381.36	227.32
381.73	227.23
382.11	227.19
382.49	227.14
382.87	227.05
383.25	227.02
383.62	227.05
384.00	226.96
384.38	226.88
384.76	226.87
385.13	226.82
385.51	226.76
385.89	226.71
386.27	226.66
386.64	226.64
387.02	226.63
387.40	226.59
387.78	226.53
388.15	226.51
388.53	226.47
388.91	226.43
389.29	226.38
389.66	226.36
390.04	226.29
390.42	226.31
390.79	226.34
391.17	226.31
391.55	226.24
391.92	226.24
392.30	226.27
392.68	226.25
393.05	226.28
393.43	226.32
393.81	226.36
394.18	226.37
394.56	226.40
394.94	226.46
395.31	226.47
395.69	226.54
396.06	226.59
396.44	226.65
396.82	226.70
397.19	226.84
397.57	226.86
397.95	226.96
398.32	226.98
398.70	227.05
399.07	227.14
399.45	227.20
399.82	227.29
400.20	227.34
400.58	227.42
400.95	227.47
401.33	227.59
401.70	227.75
402.08	227.88
402.45	227.97
402.83	228.10
403.20	228.24
403.58	228.35
403.95	228.51
404.33	228.67
404.71	228.81
405.08	229.02
405.46	229.20
405.83	229.38
406.21	229.56
406.58	229.72
406.96	229.89
407.33	230.09
407.70	230.28
408.08	230.61
408.45	230.84
408.83	231.10
409.20	231.33
409.58	231.50
409.95	231.79
410.33	232.10
410.70	232.34
411.08	232.65
411.45	233.01
411.82	233.31
412.20	233.64
412.57	234.07
412.95	234.37
413.32	234.79
413.69	235.17
414.07	235.60
414.44	236.07
414.82	236.58
415.19	237.13
415.56	237.69
415.94	238.22
416.31	238.85
416.68	239.50
417.06	240.18
417.43	240.88
417.81	241.62
418.18	242.38
418.55	243.20
418.93	244.06
419.30	244.94
419.67	245.86
420.04	246.82
420.42	247.79
420.79	248.96
421.16	250.09
421.54	251.29
421.91	252.52
422.28	253.73
422.66	255.05
423.03	256.34
423.40	257.60
423.77	258.99
424.15	260.42
424.52	261.88
424.89	263.48
425.26	265.00
425.64	266.45
426.01	268.05
426.38	269.71
426.75	271.37
427.13	273.09
427.50	274.91
427.87	276.79
428.24	278.66
428.61	280.38
428.99	282.33
429.36	284.40
429.73	286.42
430.10	288.44
430.47	290.49
430.85	292.58
431.22	294.88
431.59	297.25
431.96	299.51
432.33	301.99
432.70	304.37
433.08	307.20
433.45	309.82
433.82	312.43
434.19	315.32
434.56	318.11
434.93	320.74
435.30	323.36
435.68	326.25
436.05	329.11
436.42	331.92
436.79	334.46
437.16	337.18
437.53	340.06
437.90	342.93
438.27	345.62
438.64	348.43
439.01	350.98
439.38	353.27
439.75	355.41
440.13	357.88
440.50	360.23
440.87	362.09
441.24	364.02
441.61	366.16
441.98	367.65
442.35	369.47
442.72	371.32
443.09	373.16
443.46	374.15
443.83	374.66
444.20	375.18
444.57	375.99
444.94	376.24
445.31	376.56
445.68	376.88
446.05	376.98
446.42	376.63
446.79	376.24
447.16	375.74
447.53	375.43
447.90	374.27
448.27	373.11
448.64	371.53
449.01	370.44
449.37	368.48
449.74	366.60
450.11	364.34
450.48	361.85
450.85	359.33
451.22	357.19
451.59	355.19
451.96	353.23
452.33	350.60
452.70	348.30
453.07	345.47
453.43	342.58
453.80	339.85
454.17	337.18
454.54	334.64
454.91	331.94
455.28	329.22
455.65	326.76
456.02	324.32
456.38	322.20
456.75	319.53
457.12	317.25
457.49	315.04
457.86	312.91
458.23	311.09
458.59	309.03
458.96	306.93
459.33	305.11
459.70	303.23
460.07	301.74
460.43	299.98
460.80	298.33
461.17	296.87
461.54	295.36
461.91	293.94
462.27	292.48
462.64	291.21
463.01	289.89
463.38	288.57
463.74	287.16
464.11	285.96
464.48	284.91
464.85	283.82
465.21	282.95
465.58	282.01
465.95	280.87
466.32	279.94
466.68	279.03
467.05	278.09
467.42	277.20
467.78	276.29
468.15	275.42
468.52	274.78
468.88	273.92
469.25	273.14
469.62	272.50
469.98	271.86
470.35	271.25
470.72	270.61
471.08	269.96
471.45	269.42
471.82	268.86
472.18	268.27
472.55	267.78
472.92	267.23
473.28	266.78
473.65	266.33
474.02	265.88
474.38	265.50
474.75	265.15
475.11	264.81
475.48	264.49
475.85	264.26
476.21	263.99
476.58	263.81
476.94	263.65
477.31	263.44
477.67	263.25
478.04	263.10
478.41	263.02
478.77	263.04
479.14	262.96
479.50	262.99
479.87	263.03
480.23	263.13
480.60	263.21
480.96	263.25
481.33	263.44
481.69	263.62
482.06	263.80
482.42	263.99
482.79	264.24
483.15	264.56
483.52	264.91
483.88	265.27
484.25	265.65
484.61	266.07
484.98	266.55
485.34	267.08
485.71	267.64
486.07	268.30
486.44	268.84
486.80	269.52
487.17	270.19
487.53	270.99
487.90	271.80
488.26	272.67
488.62	273.67
488.99	274.64
489.35	275.68
489.72	276.82
490.08	278.04
490.44	279.28
490.81	280.59
491.17	281.91
491.54	283.33
491.90	284.85
492.26	286.47
492.63	288.16
492.99	289.93
493.36	291.81
493.72	293.80
494.08	295.95
494.45	298.17
494.81	300.51
495.17	302.87
495.54	305.45
495.90	308.16
496.26	310.93
496.63	313.90
496.99	317.00
497.35	320.21
497.72	323.58
498.08	327.04
498.44	330.69
498.80	334.60
499.17	338.65
499.53	342.79
499.89	347.11
500.26	351.56
500.62	356.19
500.98	361.14
501.34	366.17
501.71	371.39
502.07	376.76
502.43	382.37
502.79	388.20
503.16	394.15
503.52	400.35
503.88	406.70
504.24	413.29
504.60	420.08
504.97	427.18
505.33	434.47
505.69	442.16
506.05	449.88
506.41	457.68
506.78	465.77
507.14	474.17
507.50	482.91
507.86	491.88
508.22	501.07
508.59	510.22
508.95	519.76
509.31	529.51
509.67	539.62
510.03	549.85
510.39	560.37
510.75	571.21
511.12	582.17
511.48	593.46
511.84	604.90
512.20	616.49
512.56	628.42
512.92	640.59
513.28	652.80
513.64	665.25
514.00	678.00
514.37	690.92
514.73	703.95
515.09	716.92
515.45	730.21
515.81	743.82
516.17	757.82
516.53	771.94
516.89	786.08
517.25	800.30
517.61	814.73
517.97	829.21
518.33	843.66
518.69	858.46
519.05	873.48
519.41	888.62
519.77	904.11
520.13	919.66
520.49	935.03
520.85	950.61
521.21	966.45
521.57	982.80
521.93	998.72
522.29	1015.23
522.65	1031.64
523.01	1047.93
523.37	1064.00
523.73	1080.31
524.09	1096.51
524.45	1113.00
524.81	1129.65
525.17	1146.60
525.53	1163.59
525.89	1180.46
526.25	1197.45
526.61	1213.95
526.97	1230.84
527.33	1247.47
527.68	1264.03
528.04	1280.66
528.40	1297.40
528.76	1314.53
529.12	1331.12
529.48	1348.03
529.84	1364.15
530.20	1380.79
530.56	1397.88
530.91	1415.30
531.27	1432.01
531.63	1448.58
531.99	1465.20
532.35	1481.28
532.71	1497.14
533.07	1513.47
533.42	1529.50
533.78	1545.44
534.14	1561.75
534.50	1577.09
534.86	1593.04
535.21	1608.35
535.57	1624.28
535.93	1639.77
536.29	1654.54
536.65	1669.79
537.00	1684.59
537.36	1699.92
537.72	1714.47
538.08	1729.01
538.44	1742.95
538.79	1757.02
539.15	1770.83
539.51	1784.59
539.87	1798.92
540.22	1812.77
540.58	1826.51
540.94	1839.98
541.29	1853.02
541.65	1865.76
542.01	1879.05
542.37	1891.33
542.72	1903.77
543.08	1915.68
543.44	1928.14
543.79	1939.51
544.15	1950.42
544.51	1962.03
544.87	1973.01
545.22	1983.96
545.58	1994.23
545.94	2003.98
546.29	2013.79
546.65	2023.65
547.01	2032.90
547.36	2041.71
547.72	2050.27
548.07	2058.13
548.43	2066.33
548.79	2074.34
549.14	2082.00
549.50	2089.42
549.86	2097.26
550.21	2104.52
550.57	2111.73
550.92	2118.35
551.28	2125.43
551.64	2132.49
551.99	2139.01
552.35	2145.16
552.70	2151.07
553.06	2156.93
553.41	2163.16
553.77	2169.17
554.13	2174.99
554.48	2181.08
554.84	2186.48
555.19	2191.77
555.55	2196.86
555.90	2201.06
556.26	2205.79
556.61	2210.34
556.97	2214.49
557.32	2218.42
557.68	2222.64
558.03	2226.82
558.39	2230.49
558.74	2234.96
559.10	2238.71
559.45	2242.21
559.81	2246.32
560.16	2250.16
560.52	2253.31
560.87	2256.83
561.23	2259.33
561.58	2262.25
561.94	2264.74
562.29	2267.03
562.64	2269.59
563.00	2272.15
563.35	2275.74
563.71	2278.77
564.06	2281.76
564.42	2284.55
564.77	2286.91
565.12	2288.96
565.48	2290.61
565.83	2292.17
566.19	2293.30
566.54	2294.20
566.89	2295.30
567.25	2295.79
567.60	2297.02
567.96	2298.55
568.31	2299.19
568.66	2300.14
569.02	2300.51
569.37	2300.57
569.72	2301.18
570.08	2301.05
570.43	2300.99
570.78	2300.01
571.14	2298.31
571.49	2296.85
571.84	2296.24
572.20	2294.86
572.55	2293.56
572.90	2291.69
573.26	2290.24
573.61	2288.43
573.96	2286.28
574.31	2283.02
574.67	2279.76
575.02	2275.84
575.37	2272.24
575.72	2268.28
576.08	2264.77
576.43	2261.32
576.78	2257.49
577.13	2254.16
577.49	2250.87
577.84	2247.11
578.19	2243.17
578.54	2239.32
578.90	2234.84
579.25	2229.14
579.60	2224.07
579.95	2218.89
580.30	2213.81
580.66	2208.37
581.01	2203.16
581.36	2198.21
581.71	2193.89
582.06	2189.41
582.42	2184.71
582.77	2179.29
583.12	2174.49
583.47	2169.65
583.82	2164.49
584.17	2159.17
584.53	2153.50
584.88	2147.65
585.23	2141.76
585.58	2136.26
585.93	2130.66
586.28	2125.89
586.63	2120.74
586.98	2115.53
587.34	2110.87
587.69	2105.82
588.04	2100.42
588.39	2094.70
588.74	2088.16
589.09	2081.91
589.44	2074.81
589.79	2068.77
590.14	2062.97
590.49	2056.17
590.84	2049.50
591.19	2043.24
591.54	2036.59
591.89	2028.99
592.25	2022.06
592.60	2014.68
592.95	2006.91
593.30	1999.55
593.65	1991.69
594.00	1984.50
594.35	1977.06
594.70	1968.79
595.05	1961.50
595.40	1954.10
595.75	1946.50
596.10	1940.06
596.45	1933.05
596.80	1926.90
597.15	1920.08
597.50	1912.90
597.85	1906.53
598.19	1900.02
598.54	1892.96
598.89	1886.24
599.24	1880.29
599.59	1873.52
599.94	1867.18
600.29	1860.86
600.64	1854.06
600.99	1846.61
601.34	1839.72
601.69	1832.85
602.04	1825.88
602.39	1818.54
602.74	1811.76
603.08	1805.09
603.43	1798.42
603.78	1791.28
604.13	1783.95
604.48	1776.76
604.83	1769.94
605.18	1762.92
605.53	1754.76
605.87	1746.72
606.22	1739.69
606.57	1731.89
606.92	1724.65
607.27	1717.56
607.62	1710.73
607.96	1703.57
608.31	1697.05
608.66	1689.48
609.01	1681.88
609.36	1674.44
609.70	1666.46
610.05	1658.58
610.40	1650.75
610.75	1642.41
611.10	1634.71
611.44	1626.56
611.79	1618.58
612.14	1609.89
612.49	1600.76
612.83	1592.49
613.18	1584.40
613.53	1576.21
613.88	1567.82
614.22	1559.62
614.57	1551.11
614.92	1543.04
615.27	1535.54
615.61	1527.26
615.96	1519.33
616.31	1511.75
616.65	1504.42
617.00	1496.96
617.35	1489.24
617.70	1480.97
618.04	1472.46
618.39	1464.39
618.74	1456.79
619.08	1448.57
619.43	1441.14
619.78	1434.33
620.12	1427.29
620.47	1419.87
620.82	1411.80
621.16	1404.40
621.51	1396.95
621.85	1389.45
622.20	1381.10
622.55	1372.88
622.89	1365.13
623.24	1357.61
623.59	1350.38
623.93	1342.93
624.28	1335.70
624.62	1328.27
624.97	1321.18
625.32	1314.53
625.66	1307.50
626.01	1300.45
626.35	1293.13
626.70	1285.51
627.04	1277.82
627.39	1270.05
627.73	1262.68
628.08	1255.82
628.43	1248.46
628.77	1241.07
629.12	1233.43
629.46	1226.25
629.81	1218.87
630.15	1211.69
630.50	1204.33
630.84	1196.15
631.19	1188.14
631.53	1180.73
631.88	1173.16
632.22	1165.72
632.57	1158.52
632.91	1151.12
633.26	1143.69
633.60	1136.33
633.95	1129.26
634.29	1122.30
634.64	1115.74
634.98	1108.44
635.32	1101.40
635.67	1095.02
636.01	1088.41
636.36	1081.75
636.70	1075.34
637.05	1068.90
637.39	1062.48
637.73	1056.05
638.08	1050.27
638.42	1044.49
638.77	1038.12
639.11	1031.59
639.45	1025.18
639.80	1018.62
640.14	1012.29
640.49	1005.80
640.83	999.64
641.17	993.40
641.52	987.12
641.86	980.78
642.20	975.06
642.55	968.84
642.89	962.40
643.23	955.99
643.58	950.30
643.92	944.17
644.26	938.13
644.61	932.24
644.95	926.19
645.29	919.56
645.64	912.88
645.98	906.60
646.32	900.77
646.66	894.80
647.01	889.02
647.35	883.29
647.69	877.54
648.04	872.00
648.38	866.37
648.72	860.39
649.06	854.32
649.41	848.41
649.75	842.41
650.09	836.51
650.43	830.77
650.78	824.60
651.12	818.68
651.46	812.92
651.80	807.14
652.14	801.79
652.49	796.57
652.83	791.42
653.17	785.73
653.51	780.09
653.85	774.81
654.20	769.23
654.54	763.20
654.88	757.57
655.22	751.72
655.56	746.04
655.90	740.71
656.25	735.50
656.59	730.21
656.93	725.18
657.27	720.06
657.61	714.60
657.95	709.65
658.29	704.62
658.64	699.50
658.98	694.27
659.32	688.89
659.66	683.72
660.00	678.46
660.34	673.65
660.68	668.85
661.02	663.84
661.36	659.19
661.70	654.90
662.05	650.58
662.39	646.29
662.73	641.85
663.07	637.45
663.41	633.02
663.75	628.66
664.09	624.20
664.43	619.81
664.77	615.78
665.11	611.46
665.45	607.43
665.79	603.36
666.13	599.28
666.47	595.25
666.81	591.10
667.15	587.01
667.49	583.16
667.83	579.36
668.17	575.46
668.51	571.45
668.85	567.43
669.19	563.56
669.53	559.77
669.87	555.98
670.21	552.33
670.55	548.79
670.89	545.32
671.23	541.89
671.57	538.47
671.91	534.97
672.25	531.58
672.58	528.02
672.92	524.61
673.26	521.52
673.60	518.42
673.94	515.33
674.28	512.44
674.62	509.51
674.96	506.37
675.30	503.50
675.64	500.58
675.97	497.84
676.31	495.02
676.65	492.10
676.99	489.40
677.33	486.59
677.67	483.81
678.01	480.84
678.34	477.88
678.68	475.00
679.02	472.23
679.36	469.46
679.70	466.86
680.04	464.16
680.37	461.27
680.71	458.48
681.05	455.93
681.39	453.24
681.73	450.64
682.06	448.17
682.40	445.58
682.74	443.10
683.08	440.59
683.42	438.01
683.75	435.56
684.09	433.03
684.43	430.60
684.77	428.18
685.10	425.86
685.44	423.59
685.78	421.34
686.12	419.12
686.45	416.91
686.79	414.54
687.13	412.36
687.46	410.23
687.80	408.07
688.14	405.91
688.48	403.90
688.81	401.64
689.15	399.53
689.49	397.47
689.82	395.39
690.16	393.30
690.50	391.35
690.83	389.41
691.17	387.50
691.51	385.61
691.84	383.80
692.18	381.88
692.52	379.88
692.85	377.97
693.19	376.13
693.52	374.32
693.86	372.58
694.20	370.83
694.53	369.02
694.87	367.22
695.21	365.42
695.54	363.61
695.88	361.93
696.21	360.27
696.55	358.57
696.88	356.89
697.22	355.23
697.56	353.66
697.89	352.03
698.23	350.43
698.56	348.85
698.90	347.24
699.23	345.61
699.57	344.09
699.90	342.56
700.24	341.02
700.58	339.50
700.91	338.02
701.25	336.60
701.58	335.30
701.92	333.96
702.25	332.66
702.59	331.32
702.92	330.02
703.26	328.70
703.59	327.47
703.93	326.36
704.26	325.17
704.60	323.88
704.93	322.66
705.26	321.45
705.60	320.31
705.93	319.19
706.27	318.21
706.60	317.19
706.94	316.14
707.27	314.98
707.61	313.96
707.94	312.97
708.27	311.90
708.61	310.85
708.94	309.86
709.28	308.85
709.61	307.90
709.94	306.97
710.28	305.95
710.61	304.96
710.95	303.87
711.28	302.99
711.61	302.03
711.95	301.10
712.28	300.12
712.61	299.14
712.95	298.22
713.28	297.32
713.61	296.40
713.95	295.53
714.28	294.78
714.61	293.91
714.95	293.05
715.28	292.22
715.61	291.31
715.95	290.45
716.28	289.60
716.61	288.78
716.95	287.97
717.28	287.23
717.61	286.50
717.94	285.73
718.28	284.89
718.61	284.22
718.94	283.55
719.27	282.92
719.61	282.25
719.94	281.55
720.27	280.84
720.60	280.22
720.94	279.59
721.27	278.95
721.60	278.38
721.93	277.77
722.27	277.16
722.60	276.62
722.93	276.06
723.26	275.51
723.59	274.94
723.93	274.38
724.26	273.79
724.59	273.24
724.92	272.73
725.25	272.27
725.59	271.77
725.92	271.24
726.25	270.68
726.58	270.23
726.91	269.78
727.24	269.32
727.57	268.83
727.91	268.32
728.24	267.83
728.57	267.28
728.90	266.84
729.23	266.38
729.56	265.97
729.89	265.48
730.22	264.97
730.55	264.51
730.89	264.07
731.22	263.64
731.55	263.19
731.88	262.77
732.21	262.29
732.54	261.87
732.87	261.44
733.20	261.07
733.53	260.64
733.86	260.27
734.19	259.86
734.52	259.49
734.85	259.16
735.18	258.79
735.51	258.49
735.84	258.07
736.17	257.71
736.50	257.28
736.83	257.04
737.16	256.72
737.49	256.36
737.82	256.01
738.15	255.71
738.48	255.40
738.81	255.05
739.14	254.76
739.47	254.44
739.80	254.18
740.13	253.86
740.46	253.57
740.79	253.24
741.12	252.96
741.45	252.63
741.78	252.30
742.11	251.98
742.44	251.67
742.77	251.44
743.10	251.14
743.43	250.87
743.75	250.50
744.08	250.39
744.41	250.13
744.74	249.82
745.07	249.56
745.40	249.31
745.73	249.10
746.06	248.85
746.39	248.58
746.71	248.26
747.04	248.02
747.37	247.76
747.70	247.50
748.03	247.23
748.36	247.04
748.68	246.83
749.01	246.60
749.34	246.37
749.67	246.12
750.00	245.89
750.33	245.75
750.65	245.56
750.98	245.20
751.31	245.02
751.64	244.87
751.97	244.67
752.29	244.47
752.62	244.24
752.95	244.01
753.28	243.81
753.60	243.65
753.93	243.49
754.26	243.30
754.59	243.09
754.91	242.91
755.24	242.71
755.57	242.52
755.90	242.33
756.22	242.17
756.55	242.00
756.88	241.84
757.20	241.60
757.53	241.46
757.86	241.30
758.19	241.13
758.51	240.97
758.84	240.78
759.17	240.59
759.49	240.40
759.82	240.30
760.15	240.15
760.47	239.99
760.80	239.78
761.13	239.65
761.45	239.49
761.78	239.35
762.11	239.21
762.43	239.04
762.76	238.88
763.08	238.71
763.41	238.57
763.74	238.44
764.06	238.31
764.39	238.13
764.71	237.99
765.04	237.86
765.37	237.71
765.69	237.59
766.02	237.46
766.34	237.34
766.67	237.19
767.00	237.09
767.32	237.01
767.65	236.99
767.97	236.87
768.30	236.74
768.62	236.61
768.95	236.47
769.27	236.36
769.60	236.30
769.92	236.20
770.25	236.07
770.57	235.93
770.90	235.84
771.22	235.72
771.55	235.66
771.87	235.56
772.20	235.46
772.52	235.46
772.85	235.49
773.17	235.40
773.50	235.30
773.82	235.19
774.15	235.04
774.47	234.88
774.80	234.78
775.12	234.71
775.45	234.65
775.77	234.61
776.09	234.51
776.42	234.39
776.74	234.32
777.07	234.25
777.39	234.18
777.72	234.07
778.04	234.04
778.36	233.94
778.69	233.88
779.01	233.82
779.33	233.63
779.66	233.45
779.98	233.41
780.31	233.33
780.63	233.30
780.95	233.26
781.28	233.19
781.60	233.12
781.92	233.05
782.25	232.97
782.57	232.89
782.89	232.85
783.22	232.81
783.54	232.74
783.86	232.68
784.19	232.64
784.51	232.62
784.83	232.54
785.16	232.45
785.48	232.38
785.80	232.32
786.12	232.27
786.45	232.22
786.77	232.15
787.09	232.14
787.42	232.06
787.74	232.01
788.06	231.98
788.38	231.94
788.71	231.88
789.03	231.86
789.35	231.84
789.67	231.82
789.99	231.78
790.32	231.74
790.64	231.76
790.96	231.78
791.28	231.71
791.61	231.66
791.93	231.67
792.25	231.65
792.57	231.68
792.89	231.63
793.21	231.61
793.54	231.56
793.86	231.50
794.18	231.43
794.50	231.38
794.82	231.33
795.14	231.31
795.47	231.34
795.79	231.30
796.11	231.22
796.43	231.17
796.75	231.14
797.07	231.14
797.39	231.06
797.71	230.97
798.04	230.96
798.36	230.92
798.68	230.85
799.00	230.79
799.32	230.72
799.64	230.75
799.96	230.71
800.28	230.69
800.60	230.65
800.92	230.66
801.24	230.60
801.56	230.60
801.89	230.53
802.21	230.49
802.53	230.46
802.85	230.47
803.17	230.49
803.49	230.45
803.81	230.43
804.13	230.39
804.45	230.36
804.77	230.35
805.09	230.32
805.41	230.31
805.73	230.31
806.05	230.23
806.37	230.18
806.69	230.15
807.01	230.08
807.33	230.06
807.65	230.00
807.97	230.03
808.28	229.96
808.60	229.94
808.92	229.89
809.24	229.90
809.56	229.86
809.88	229.76
810.20	229.74
810.52	229.71
810.84	229.69
811.16	229.65
811.48	229.57
811.80	229.58
812.12	229.53
812.43	229.52
812.75	229.51
813.07	229.46
813.39	229.43
813.71	229.45
814.03	229.45
814.35	229.42
814.67	229.35
814.98	229.35
815.30	229.33
815.62	229.27
815.94	229.16
816.26	229.16
816.58	229.14
816.89	229.08
817.21	229.01
817.53	229.00
817.85	228.98
818.17	228.96
818.48	228.90
818.80	228.90
819.12	228.83
819.44	228.83
819.76	228.82
820.07	228.79
820.39	228.78
820.71	228.74
821.03	228.70
821.34	228.70
821.66	228.68
821.98	228.67
822.30	228.69
822.61	228.78
822.93	228.73
823.25	228.70
823.57	228.71
823.88	228.72
824.20	228.68
824.52	228.67
824.83	228.69
825.15	228.66
825.47	228.66
825.79	228.66
826.10	228.62
826.42	228.62
826.74	228.61
827.05	228.58
827.37	228.60
827.69	228.61
828.00	228.62
828.32	228.60
828.64	228.59
828.95	228.65
829.27	228.62
829.58	228.62
829.90	228.67
830.22	228.65
830.53	228.61
830.85	228.62
831.17	228.58
831.48	228.57
831.80	228.57
832.11	228.58
832.43	228.59
832.75	228.58
833.06	228.63
833.38	228.61
833.69	228.61
834.01	228.60
834.32	228.58
834.64	228.56
834.96	228.54
835.27	228.53
835.59	228.48
835.90	228.41
836.22	228.40
836.53	228.34
836.85	228.34
837.16	228.46
837.48	228.41
837.79	228.43
838.11	228.43
838.42	228.43
838.74	228.39
839.05	228.36
839.37	228.34
839.68	228.28
840.00	228.27
840.31	228.27
840.63	228.25
840.94	228.22
841.26	228.20
841.57	228.22
841.88	228.22
842.20	228.21
842.51	228.20
842.83	228.21
843.14	228.31
843.46	228.33
843.77	228.26
844.08	228.29
844.40	228.26
844.71	228.25
845.03	228.25
845.34	228.26
845.65	228.26
845.97	228.28
846.28	228.28
846.60	228.27
846.91	228.22
847.22	228.18
847.54	228.19
847.85	228.15
848.16	228.13
848.48	228.11
848.79	228.13
849.10	228.11
849.42	228.08
849.73	227.94
850.04	227.89
850.36	227.83
850.67	227.82
850.98	227.82
851.30	227.83
851.61	227.79
851.92	227.76
852.23	227.80
852.55	227.76
852.86	227.76
853.17	227.70
853.49	227.71
853.80	227.74
854.11	227.74
854.42	227.76
854.74	227.74
855.05	227.72
855.36	227.64
855.67	227.65
855.99	227.67
856.30	227.81
856.61	227.78
856.92	227.79
857.23	227.79
857.55	227.79
857.86	227.76
858.17	227.77
858.48	227.75
858.79	227.71
859.11	227.73
859.42	227.74
859.73	227.75
860.04	227.77
860.35	227.75
860.66	227.72
860.98	227.75
861.29	227.75
861.60	227.74
861.91	227.77
862.22	227.74
862.53	227.72
862.84	227.60
863.16	227.67
863.47	227.64
863.78	227.65
864.09	227.65
864.40	227.68
864.71	227.70
865.02	227.75
865.33	227.75
865.64	227.74
865.95	227.72
866.27	227.82
866.58	227.81
866.89	227.79
867.20	227.85
867.51	227.81
867.82	227.83
868.13	227.87
868.44	227.89
868.75	227.92
869.06	227.92
869.37	227.94
869.68	227.90
869.99	227.94
870.30	227.96
870.61	228.00
870.92	227.98
871.23	227.98
871.54	227.98
871.85	228.02
872.16	228.03
872.47	228.06
872.78	227.98
873.09	228.00
873.40	228.02
873.71	228.01
874.02	228.05
874.33	228.06
874.64	228.07
874.95	228.07
875.26	228.08
875.56	228.11
875.87	228.08
876.18	228.07
876.49	228.17
876.80	228.13
877.11	228.15
877.42	228.15
877.73	228.14
878.04	228.12
878.35	228.11
878.66	228.11
878.96	228.08
879.27	228.06
879.58	228.09
879.89	228.09
880.20	228.11
880.51	228.09
880.82	228.07
881.12	228.06
881.43	228.07
881.74	228.05
882.05	228.03
882.36	228.06
882.67	228.05
882.97	227.93
883.28	227.91
883.59	227.83
883.90	227.83
884.21	227.82
884.51	227.80
884.82	227.75
885.13	227.75
885.44	227.75
885.74	227.75
886.05	227.68
886.36	227.66
886.67	227.64
886.98	227.67
887.28	227.69
887.59	227.67
887.90	227.64
888.20	227.64
888.51	227.63
888.82	227.59
889.13	227.61
889.43	227.70
889.74	227.71
890.05	227.70
890.35	227.68
890.66	227.67
890.97	227.65
891.28	227.62
891.58	227.63
891.89	227.61
892.20	227.59
892.50	227.59
892.81	227.57
893.12	227.52
893.42	227.46
893.73	227.43
894.04	227.43
894.34	227.42
894.65	227.40
894.95	227.38
895.26	227.40
895.57	227.41
895.87	227.31
896.18	227.31
896.48	227.33
896.79	227.33
897.10	227.37
897.40	227.40
897.71	227.41
898.01	227.36
898.32	227.39
898.63	227.37
898.93	227.39
899.24	227.39
899.54	227.38
899.85	227.39
900.15	227.38
900.46	227.38
900.76	227.38
901.07	227.40
901.38	227.39
901.68	227.42
901.99	227.41
902.29	227.42
902.60	227.41
902.90	227.42
903.21	227.44
903.51	227.43
903.82	227.43
904.12	227.50
904.43	227.52
904.73	227.56
905.03	227.60
905.34	227.69
905.64	227.72
905.95	227.76
906.25	227.77
906.56	227.77
906.86	227.80
907.17	227.82
907.47	227.83
907.77	227.87
908.08	227.83
908.38	227.82
908.69	227.84
908.99	227.89
909.30	227.89
909.60	227.91
909.90	227.93
910.21	227.87
910.51	227.83
910.81	227.84
911.12	227.81
911.42	227.77
911.73	227.68
912.03	227.67
912.33	227.66
912.64	227.64
912.94	227.64
913.24	227.61
913.55	227.60
913.85	227.57
914.15	227.57
914.46	227.57
914.76	227.57
915.06	227.55
915.37	227.55
915.67	227.56
915.97	227.52
916.27	227.48
916.58	227.50
916.88	227.50
917.18	227.50
917.49	227.57
917.79	227.61
918.09	227.62
918.39	227.66
918.70	227.63
919.00	227.67
919.30	227.76
919.60	227.73
919.91	227.70
920.21	227.69
920.51	227.67
920.81	227.68
921.12	227.68
921.42	227.68
921.72	227.63
922.02	227.65
922.32	227.65
922.63	227.65
922.93	227.71
923.23	227.70
923.53	227.69
923.83	227.62
924.13	227.60
924.44	227.60
924.74	227.58
925.04	227.62
925.34	227.59
925.64	227.51
925.94	227.48
926.24	227.56
926.55	227.55
926.85	227.56
927.15	227.55
927.45	227.55
927.75	227.53
928.05	227.52
928.35	227.48
928.65	227.51
928.95	227.48
929.26	227.40
929.56	227.39
929.86	227.37
930.16	227.37
930.46	227.38
930.76	227.40
931.06	227.35
931.36	227.34
931.66	227.36
931.96	227.37
932.26	227.42
932.56	227.40
932.86	227.40
933.16	227.41
933.46	227.41
933.76	227.40
934.06	227.43
934.36	227.47
934.66	227.46
934.96	227.46
935.26	227.49
935.56	227.52
935.86	227.51
936.16	227.53
936.46	227.52
936.76	227.52
937.06	227.48
937.36	227.52
937.66	227.52
937.96	227.53
938.26	227.52
938.56	227.52
938.86	227.52
939.16	227.58
939.46	227.59
939.76	227.61
940.06	227.63
940.35	227.63
940.65	227.58
940.95	227.58
941.25	227.55
941.55	227.56
941.85	227.57
942.15	227.60
942.45	227.62
942.75	227.61
943.04	227.60
943.34	227.64
943.64	227.65
943.94	227.64
944.24	227.62
944.54	227.62
944.84	227.59
945.13	227.56
945.43	227.52
945.73	227.54
946.03	227.52
946.33	227.51
946.62	227.49
946.92	227.53
947.22	227.55
947.52	227.57
947.82	227.58
948.11	227.58
948.41	227.53
948.71	227.53
949.01	227.55
949.31	227.57
949.60	227.56
949.90	227.53
950.20	227.51
950.50	227.49
950.79	227.48
951.09	227.51
951.39	227.51
951.69	227.52
951.98	227.50
952.28	227.52
952.58	227.52
952.87	227.52
953.17	227.51
953.47	227.50
953.76	227.49
954.06	227.47
954.36	227.48
954.66	227.52
954.95	227.54
955.25	227.54
955.55	227.54
955.84	227.54
956.14	227.53
956.44	227.56
956.73	227.59
957.03	227.60
957.32	227.60
957.62	227.60
957.92	227.61
958.21	227.60
958.51	227.69
958.81	227.67
959.10	227.67
959.40	227.71
959.69	227.71
959.99	227.69
960.29	227.70
960.58	227.69
960.88	227.70
961.17	227.66
961.47	227.64
961.76	227.60
962.06	227.61
962.36	227.62
962.65	227.60
962.95	227.57
963.24	227.55
963.54	227.55
963.83	227.53
964.13	227.53
964.42	227.53
964.72	227.44
965.01	227.44
965.31	227.43
965.60	227.38
965.90	227.43
966.19	227.43
966.49	227.40
966.78	227.37
967.08	227.39
967.37	227.42
967.67	227.41
967.96	227.45
968.26	227.42
968.55	227.43
968.85	227.43
969.14	227.44
969.43	227.46
969.73	227.45
970.02	227.41
970.32	227.40
970.61	227.38
970.91	227.35
971.20	227.31
971.49	227.31
971.79	227.32
972.08	227.26
972.38	227.26
972.67	227.24
972.96	227.25
973.26	227.20
973.55	227.21
973.85	227.21
974.14	227.20
974.43	227.25
974.73	227.26
975.02	227.24
975.31	227.24
975.61	227.25
975.90	227.24
976.19	227.24
976.49	227.22
976.78	227.22
977.07	227.21
977.37	227.25
977.66	227.29
977.95	227.23
978.24	227.24
978.54	227.27
978.83	227.26
979.12	227.24
979.42	227.26
979.71	227.20
980.00	227.19
980.29	227.21
980.59	227.15
980.88	227.16
981.17	227.12
981.46	227.13
981.76	227.10
982.05	227.14
982.34	227.17
982.63	227.18
982.93	227.20
983.22	227.24
983.51	227.25
983.80	227.25
984.09	227.34
984.39	227.33
984.68	227.30
984.97	227.33
985.26	227.36
985.55	227.36
985.85	227.40
986.14	227.41
986.43	227.40
986.72	227.44
987.01	227.39
987.30	227.47
987.59	227.45
987.89	227.47
988.18	227.47
988.47	227.46
988.76	227.46
989.05	227.43
989.34	227.45
989.63	227.50
989.92	227.47
990.22	227.44
990.51	227.45
990.80	227.45
991.09	227.47
991.38	227.46
991.67	227.46
991.96	227.42
992.25	227.43
992.54	227.41
992.83	227.41
993.12	227.43
993.41	227.43
993.70	227.45
993.99	227.46
994.28	227.44
994.58	227.47
994.87	227.47
995.16	227.50
995.45	227.47
995.74	227.42
996.03	227.46
996.32	227.46
996.61	227.50
996.90	227.50
997.19	227.49
997.48	227.49
997.77	227.50
998.06	227.48
998.34	227.44
998.63	227.46
998.92	227.45
999.21	227.46
999.50	227.42
999.79	227.40
1000.08	227.39
1000.37	227.39
1000.66	227.38
1000.95	227.37
1001.24	227.33
1001.53	227.32
1001.82	227.28
1002.11	227.25
1002.40	227.24
1002.68	227.23
1002.97	227.27
1003.26	227.25
1003.55	227.22
1003.84	227.17
1004.13	227.23
1004.42	227.25
1004.71	227.22
1004.99	227.20
1005.28	227.17
1005.57	227.15
1005.86	227.12
1006.15	227.10
1006.44	227.03
1006.72	227.01
1007.01	227.01
1007.30	227.02
1007.59	227.00
1007.88	227.01
1008.17	226.98
1008.45	226.96
1008.74	226.95
1009.03	226.92
1009.32	226.91
1009.60	226.92
1009.89	226.93
1010.18	226.87
1010.47	226.85
1010.76	226.85
1011.04	226.84
1011.33	226.86
1011.62	226.87
1011.91	226.89
1012.19	226.91
1012.48	226.97
1012.77	226.98
1013.05	227.02
1013.34	227.01
1013.63	227.00
1013.92	227.02
1014.20	226.99
1014.49	226.99
1014.78	226.95
1015.06	226.91
1015.35	226.89
1015.64	226.92
1015.92	226.97
1016.21	227.00
1016.50	227.01
1016.78	227.03
1017.07	227.04
1017.36	227.02
1017.64	227.03
1017.93	227.07
1018.22	227.07
1018.50	227.05
1018.79	227.03
1019.08	226.99
1019.36	227.04
1019.65	227.04
1019.93	227.07
1020.22	227.09
1020.51	227.17
1020.79	227.20
1021.08	227.20
1021.36	227.13
1021.65	226.67
1021.94	227.17
1022.22	227.58
1022.51	226.92
1022.79	227.56
1023.08	226.90
1023.36	228.35
1023.65	227.31
>>>>>End Processed Spectral Data<<<<<
