SpectraSuite Data File
++++++++++++++++++++++++++++++++++++
Date: Fri Feb 01 16:27:25 EST 2013
User: group
Dark Spectrum Present: No
Reference Spectrum Present: No
Number of Sampled Component Spectra: 1
Spectrometers: USB2E7196
Integration Time (usec): 35000 (USB2E7196)
Spectra Averaged: 100 (USB2E7196)
Boxcar Smoothing: 10 (USB2E7196)
Correct for Electrical Dark: No (USB2E7196)
Strobe/Lamp Enabled: No (USB2E7196)
Correct for Detector Non-linearity: No (USB2E7196)
Correct for Stray Light: No (USB2E7196)
Number of Pixels in Processed Spectrum: 2048
>>>>>Begin Processed Spectral Data<<<<<
339.09	0.00
339.48	214.01
339.86	215.66
340.24	217.06
340.63	218.47
341.01	221.06
341.39	220.45
341.78	222.56
342.16	223.62
342.54	224.06
342.93	212.37
343.31	223.10
343.69	223.62
344.07	224.08
344.46	224.49
344.84	224.83
345.22	225.07
345.60	225.34
345.99	225.52
346.37	225.61
346.75	225.69
347.13	225.78
347.52	225.85
347.90	225.92
348.28	225.94
348.66	225.98
349.05	225.95
349.43	226.01
349.81	226.02
350.19	226.06
350.57	226.12
350.96	226.16
351.34	226.27
351.72	226.36
352.10	226.45
352.48	226.53
352.87	226.58
353.25	226.62
353.63	226.69
354.01	226.73
354.39	226.81
354.77	226.90
355.15	227.00
355.54	227.08
355.92	227.13
356.30	227.21
356.68	227.38
357.06	227.48
357.44	227.54
357.82	227.62
358.20	227.69
358.58	227.74
358.97	227.85
359.35	227.90
359.73	228.00
360.11	228.04
360.49	228.10
360.87	228.18
361.25	228.26
361.63	228.33
362.01	228.40
362.39	228.46
362.77	228.51
363.15	228.53
363.53	228.54
363.91	228.55
364.29	228.57
364.67	228.50
365.05	228.51
365.43	228.52
365.81	228.56
366.19	228.65
366.57	228.70
366.95	228.70
367.33	228.69
367.71	228.66
368.09	228.68
368.47	228.67
368.85	228.64
369.23	228.65
369.61	228.62
369.99	228.62
370.37	228.59
370.75	228.63
371.13	228.56
371.51	228.51
371.89	228.49
372.27	228.47
372.65	228.43
373.03	228.38
373.41	228.38
373.78	228.32
374.16	228.20
374.54	228.12
374.92	228.00
375.30	227.95
375.68	227.88
376.06	227.82
376.44	227.76
376.82	227.70
377.19	227.62
377.57	227.53
377.95	227.46
378.33	227.39
378.71	227.23
379.09	227.21
379.47	227.16
379.84	227.09
380.22	226.98
380.60	226.91
380.98	226.83
381.36	226.69
381.73	226.59
382.11	226.56
382.49	226.53
382.87	226.49
383.25	226.41
383.62	226.46
384.00	226.39
384.38	226.34
384.76	226.30
385.13	226.29
385.51	226.26
385.89	226.18
386.27	226.15
386.64	226.15
387.02	226.08
387.40	226.01
387.78	225.96
388.15	225.92
388.53	225.88
388.91	225.86
389.29	225.85
389.66	225.80
390.04	225.77
390.42	225.74
390.79	225.70
391.17	225.66
391.55	225.54
391.92	225.51
392.30	225.50
392.68	225.47
393.05	225.45
393.43	225.45
393.81	225.46
394.18	225.44
394.56	225.43
394.94	225.47
395.31	225.52
395.69	225.56
396.06	225.61
396.44	225.65
396.82	225.69
397.19	225.80
397.57	225.88
397.95	225.94
398.32	225.92
398.70	225.95
399.07	226.02
399.45	226.07
399.82	226.15
400.20	226.19
400.58	226.27
400.95	226.31
401.33	226.42
401.70	226.56
402.08	226.67
402.45	226.77
402.83	226.83
403.20	226.89
403.58	227.00
403.95	227.12
404.33	227.25
404.71	227.33
405.08	227.47
405.46	227.58
405.83	227.72
406.21	227.88
406.58	228.09
406.96	228.27
407.33	228.46
407.70	228.62
408.08	228.90
408.45	229.12
408.83	229.34
409.20	229.52
409.58	229.68
409.95	229.92
410.33	230.18
410.70	230.46
411.08	230.77
411.45	231.08
411.82	231.38
412.20	231.69
412.57	232.12
412.95	232.43
413.32	232.86
413.69	233.23
414.07	233.68
414.44	234.14
414.82	234.61
415.19	235.17
415.56	235.71
415.94	236.26
416.31	236.83
416.68	237.44
417.06	238.13
417.43	238.83
417.81	239.61
418.18	240.37
418.55	241.18
418.93	242.04
419.30	242.89
419.67	243.83
420.04	244.81
420.42	245.80
420.79	246.96
421.16	248.11
421.54	249.31
421.91	250.50
422.28	251.75
422.66	253.08
423.03	254.37
423.40	255.71
423.77	257.11
424.15	258.56
424.52	260.05
424.89	261.65
425.26	263.16
425.64	264.57
426.01	266.16
426.38	267.81
426.75	269.45
427.13	271.21
427.50	273.00
427.87	274.87
428.24	276.75
428.61	278.47
428.99	280.34
429.36	282.45
429.73	284.55
430.10	286.55
430.47	288.57
430.85	290.65
431.22	292.88
431.59	295.26
431.96	297.52
432.33	300.00
432.70	302.34
433.08	305.19
433.45	307.84
433.82	310.41
434.19	313.30
434.56	316.10
434.93	318.72
435.30	321.35
435.68	324.15
436.05	326.95
436.42	329.73
436.79	332.28
437.16	334.93
437.53	337.72
437.90	340.51
438.27	343.26
438.64	346.09
439.01	348.67
439.38	350.84
439.75	352.98
440.13	355.49
440.50	357.83
440.87	359.65
441.24	361.57
441.61	363.73
441.98	365.19
442.35	367.03
442.72	368.87
443.09	370.65
443.46	371.67
443.83	372.24
444.20	372.75
444.57	373.59
444.94	373.91
445.31	374.24
445.68	374.60
446.05	374.69
446.42	374.31
446.79	373.89
447.16	373.46
447.53	373.11
447.90	371.93
448.27	370.77
448.64	369.18
449.01	368.06
449.37	366.10
449.74	364.26
450.11	362.01
450.48	359.55
450.85	357.03
451.22	354.88
451.59	352.91
451.96	351.00
452.33	348.42
452.70	346.06
453.07	343.26
453.43	340.39
453.80	337.64
454.17	334.98
454.54	332.49
454.91	329.80
455.28	327.17
455.65	324.72
456.02	322.29
456.38	320.18
456.75	317.56
457.12	315.35
457.49	313.13
457.86	310.95
458.23	309.09
458.59	307.07
458.96	305.05
459.33	303.15
459.70	301.33
460.07	299.81
460.43	298.12
460.80	296.48
461.17	295.04
461.54	293.56
461.91	292.16
462.27	290.70
462.64	289.48
463.01	288.16
463.38	286.87
463.74	285.52
464.11	284.39
464.48	283.34
464.85	282.24
465.21	281.38
465.58	280.50
465.95	279.43
466.32	278.53
466.68	277.60
467.05	276.76
467.42	275.83
467.78	274.90
468.15	274.02
468.52	273.37
468.88	272.51
469.25	271.75
469.62	271.15
469.98	270.47
470.35	269.81
470.72	269.21
471.08	268.59
471.45	268.04
471.82	267.46
472.18	266.91
472.55	266.45
472.92	265.93
473.28	265.46
473.65	265.06
474.02	264.63
474.38	264.28
474.75	263.95
475.11	263.62
475.48	263.38
475.85	263.15
476.21	262.95
476.58	262.77
476.94	262.63
477.31	262.43
477.67	262.29
478.04	262.19
478.41	262.13
478.77	262.19
479.14	262.13
479.50	262.17
479.87	262.20
480.23	262.29
480.60	262.37
480.96	262.47
481.33	262.66
481.69	262.88
482.06	263.11
482.42	263.28
482.79	263.57
483.15	263.89
483.52	264.28
483.88	264.63
484.25	265.09
484.61	265.50
484.98	266.00
485.34	266.55
485.71	267.17
486.07	267.81
486.44	268.34
486.80	269.04
487.17	269.78
487.53	270.61
487.90	271.50
488.26	272.44
488.62	273.45
488.99	274.46
489.35	275.47
489.72	276.58
490.08	277.82
490.44	279.07
490.81	280.41
491.17	281.78
491.54	283.29
491.90	284.78
492.26	286.44
492.63	288.18
492.99	289.97
493.36	291.85
493.72	293.87
494.08	296.00
494.45	298.28
494.81	300.67
495.17	303.11
495.54	305.66
495.90	308.34
496.26	311.16
496.63	314.12
496.99	317.25
497.35	320.54
497.72	323.94
498.08	327.46
498.44	331.14
498.80	335.04
499.17	339.06
499.53	343.27
499.89	347.67
500.26	352.16
500.62	356.85
500.98	361.84
501.34	366.86
501.71	372.21
502.07	377.65
502.43	383.25
502.79	389.12
503.16	395.24
503.52	401.53
503.88	407.97
504.24	414.63
504.60	421.55
504.97	428.69
505.33	436.05
505.69	443.75
506.05	451.50
506.41	459.43
506.78	467.57
507.14	475.99
507.50	484.70
507.86	493.78
508.22	502.96
508.59	512.17
508.95	521.82
509.31	531.61
509.67	541.72
510.03	552.02
510.39	562.57
510.75	573.27
511.12	584.12
511.48	595.36
511.84	606.78
512.20	618.20
512.56	630.12
512.92	642.26
513.28	654.56
513.64	667.11
514.00	679.78
514.37	692.74
514.73	705.84
515.09	718.88
515.45	732.14
515.81	745.76
516.17	759.69
516.53	773.83
516.89	787.93
517.25	802.12
517.61	816.51
517.97	830.88
518.33	845.32
518.69	860.13
519.05	875.04
519.41	890.18
519.77	905.71
520.13	921.11
520.49	936.46
520.85	951.83
521.21	967.51
521.57	983.75
521.93	999.42
522.29	1015.71
522.65	1031.84
523.01	1048.00
523.37	1063.88
523.73	1080.06
524.09	1095.97
524.45	1112.24
524.81	1128.65
525.17	1145.30
525.53	1162.20
525.89	1179.19
526.25	1195.91
526.61	1212.22
526.97	1228.77
527.33	1245.24
527.68	1261.75
528.04	1278.22
528.40	1294.76
528.76	1311.64
529.12	1328.09
529.48	1344.85
529.84	1360.78
530.20	1377.32
530.56	1394.19
530.91	1411.57
531.27	1428.25
531.63	1444.62
531.99	1461.18
532.35	1477.10
532.71	1493.00
533.07	1509.03
533.42	1524.67
533.78	1540.67
534.14	1556.82
534.50	1572.19
534.86	1587.85
535.21	1603.03
535.57	1618.81
535.93	1634.20
536.29	1648.97
536.65	1663.88
537.00	1678.60
537.36	1693.75
537.72	1708.26
538.08	1722.56
538.44	1736.22
538.79	1749.91
539.15	1763.55
539.51	1777.15
539.87	1791.44
540.22	1805.01
540.58	1818.66
540.94	1831.89
541.29	1844.56
541.65	1857.35
542.01	1870.47
542.37	1882.81
542.72	1895.05
543.08	1906.83
543.44	1919.16
543.79	1930.30
544.15	1941.12
544.51	1952.57
544.87	1963.50
545.22	1974.25
545.58	1984.56
545.94	1994.23
546.29	2004.00
546.65	2013.74
547.01	2022.92
547.36	2031.59
547.72	2040.00
548.07	2047.76
548.43	2055.75
548.79	2063.74
549.14	2071.08
549.50	2078.40
549.86	2085.89
550.21	2093.20
550.57	2100.12
550.92	2106.54
551.28	2113.55
551.64	2120.62
551.99	2127.15
552.35	2133.16
552.70	2139.29
553.06	2145.17
553.41	2151.47
553.77	2157.53
554.13	2163.61
554.48	2169.67
554.84	2175.21
555.19	2180.58
555.55	2185.93
555.90	2190.42
556.26	2195.41
556.61	2200.13
556.97	2204.31
557.32	2208.53
557.68	2212.70
558.03	2217.04
558.39	2220.85
558.74	2225.39
559.10	2229.38
559.45	2233.04
559.81	2237.41
560.16	2241.19
560.52	2244.42
560.87	2247.95
561.23	2250.59
561.58	2253.53
561.94	2256.06
562.29	2258.28
562.64	2260.91
563.00	2263.42
563.35	2267.03
563.71	2270.02
564.06	2273.30
564.42	2276.24
564.77	2278.79
565.12	2281.04
565.48	2283.09
565.83	2284.86
566.19	2286.13
566.54	2286.94
566.89	2287.99
567.25	2288.70
567.60	2290.00
567.96	2291.70
568.31	2292.46
568.66	2293.64
569.02	2294.33
569.37	2294.78
569.72	2295.70
570.08	2295.85
570.43	2295.94
570.78	2295.40
571.14	2294.02
571.49	2292.69
571.84	2292.36
572.20	2291.22
572.55	2290.25
572.90	2288.60
573.26	2287.22
573.61	2285.68
573.96	2284.02
574.31	2281.30
574.67	2278.38
575.02	2274.88
575.37	2271.59
575.72	2267.93
576.08	2264.59
576.43	2261.40
576.78	2257.69
577.13	2254.64
577.49	2251.68
577.84	2248.30
578.19	2244.64
578.54	2241.13
578.90	2236.99
579.25	2231.56
579.60	2226.68
579.95	2221.63
580.30	2216.68
580.66	2211.75
581.01	2207.00
581.36	2202.12
581.71	2197.95
582.06	2193.47
582.42	2189.15
582.77	2183.85
583.12	2179.39
583.47	2174.87
583.82	2169.77
584.17	2164.59
584.53	2159.14
584.88	2153.46
585.23	2147.71
585.58	2142.31
585.93	2136.92
586.28	2132.31
586.63	2127.35
586.98	2122.47
587.34	2117.94
587.69	2113.20
588.04	2107.92
588.39	2102.23
588.74	2095.96
589.09	2089.85
589.44	2083.16
589.79	2077.12
590.14	2071.65
590.49	2065.11
590.84	2058.69
591.19	2052.75
591.54	2046.39
591.89	2039.09
592.25	2032.48
592.60	2025.15
592.95	2017.60
593.30	2010.19
593.65	2002.70
594.00	1995.65
594.35	1988.34
594.70	1980.31
595.05	1973.13
595.40	1966.01
595.75	1958.56
596.10	1952.29
596.45	1945.62
596.80	1939.69
597.15	1933.03
597.50	1926.01
597.85	1919.60
598.19	1912.79
598.54	1905.74
598.89	1899.10
599.24	1893.32
599.59	1886.75
599.94	1880.74
600.29	1874.44
600.64	1868.02
600.99	1860.57
601.34	1853.68
601.69	1846.70
602.04	1839.77
602.39	1832.49
602.74	1825.79
603.08	1819.02
603.43	1812.31
603.78	1805.06
604.13	1797.70
604.48	1790.36
604.83	1783.53
605.18	1776.66
605.53	1768.91
605.87	1760.92
606.22	1753.82
606.57	1745.82
606.92	1738.37
607.27	1731.24
607.62	1724.33
607.96	1716.98
608.31	1710.26
608.66	1702.77
609.01	1695.31
609.36	1687.79
609.70	1679.73
610.05	1671.59
610.40	1663.92
610.75	1655.61
611.10	1647.86
611.44	1639.48
611.79	1631.62
612.14	1622.81
612.49	1613.53
612.83	1605.12
613.18	1597.06
613.53	1588.96
613.88	1580.34
614.22	1572.23
614.57	1563.64
614.92	1555.55
615.27	1548.00
615.61	1539.64
615.96	1531.62
616.31	1524.03
616.65	1516.67
617.00	1509.07
617.35	1501.28
617.70	1493.00
618.04	1484.44
618.39	1476.31
618.74	1468.69
619.08	1460.32
619.43	1452.84
619.78	1446.00
620.12	1438.78
620.47	1431.19
620.82	1422.98
621.16	1415.70
621.51	1408.03
621.85	1400.35
622.20	1391.82
622.55	1383.50
622.89	1375.69
623.24	1368.04
623.59	1360.58
623.93	1353.14
624.28	1345.91
624.62	1338.44
624.97	1331.26
625.32	1324.53
625.66	1317.52
626.01	1310.35
626.35	1303.01
626.70	1295.25
627.04	1287.48
627.39	1279.74
627.73	1272.36
628.08	1265.41
628.43	1258.11
628.77	1250.69
629.12	1243.21
629.46	1236.09
629.81	1228.62
630.15	1221.44
630.50	1213.97
630.84	1205.78
631.19	1197.82
631.53	1190.42
631.88	1182.82
632.22	1175.09
632.57	1167.79
632.91	1160.18
633.26	1152.70
633.60	1145.20
633.95	1138.16
634.29	1131.08
634.64	1124.42
634.98	1117.01
635.32	1109.88
635.67	1103.20
636.01	1096.48
636.36	1089.58
636.70	1083.13
637.05	1076.51
637.39	1069.98
637.73	1063.45
638.08	1057.56
638.42	1051.45
638.77	1044.97
639.11	1038.46
639.45	1032.09
639.80	1025.48
640.14	1019.10
640.49	1012.61
640.83	1006.38
641.17	1000.01
641.52	993.72
641.86	987.23
642.20	981.39
642.55	975.07
642.89	968.64
643.23	962.11
643.58	956.39
643.92	950.14
644.26	944.07
644.61	938.08
644.95	932.17
645.29	925.59
645.64	918.91
645.98	912.57
646.32	906.74
646.66	900.77
647.01	894.92
647.35	889.15
647.69	883.29
648.04	877.70
648.38	871.95
648.72	865.95
649.06	859.90
649.41	854.13
649.75	848.09
650.09	842.12
650.43	836.42
650.78	830.26
651.12	824.29
651.46	818.63
651.80	812.83
652.14	807.32
652.49	801.92
652.83	796.83
653.17	791.13
653.51	785.35
653.85	779.87
654.20	774.30
654.54	768.32
654.88	762.59
655.22	756.71
655.56	751.03
655.90	745.62
656.25	740.33
656.59	734.88
656.93	729.92
657.27	724.79
657.61	719.34
657.95	714.25
658.29	709.24
658.64	704.01
658.98	698.74
659.32	693.31
659.66	688.17
660.00	682.82
660.34	677.82
660.68	672.95
661.02	667.97
661.36	663.20
661.70	658.62
662.05	654.28
662.39	649.94
662.73	645.51
663.07	641.14
663.41	636.72
663.75	632.23
664.09	627.59
664.43	623.22
664.77	619.15
665.11	614.82
665.45	610.66
665.79	606.60
666.13	602.43
666.47	598.33
666.81	594.12
667.15	590.00
667.49	586.15
667.83	582.26
668.17	578.36
668.51	574.30
668.85	570.34
669.19	566.50
669.53	562.67
669.87	558.78
670.21	554.99
670.55	551.38
670.89	547.90
671.23	544.52
671.57	540.95
671.91	537.30
672.25	533.85
672.58	530.32
672.92	526.86
673.26	523.74
673.60	520.63
673.94	517.52
674.28	514.61
674.62	511.67
674.96	508.61
675.30	505.72
675.64	502.80
675.97	500.01
676.31	497.10
676.65	494.12
676.99	491.39
677.33	488.58
677.67	485.72
678.01	482.75
678.34	479.73
678.68	476.85
679.02	474.06
679.36	471.25
679.70	468.51
680.04	465.68
680.37	462.78
680.71	459.94
681.05	457.31
681.39	454.50
681.73	451.80
682.06	449.26
682.40	446.67
682.74	444.19
683.08	441.58
683.42	438.98
683.75	436.52
684.09	433.89
684.43	431.41
684.77	428.96
685.10	426.58
685.44	424.29
685.78	422.01
686.12	419.73
686.45	417.46
686.79	415.13
687.13	412.97
687.46	410.80
687.80	408.70
688.14	406.49
688.48	404.46
688.81	402.16
689.15	399.99
689.49	397.83
689.82	395.69
690.16	393.60
690.50	391.68
690.83	389.74
691.17	387.80
691.51	385.91
691.84	384.05
692.18	382.13
692.52	380.09
692.85	378.17
693.19	376.26
693.52	374.42
693.86	372.63
694.20	370.92
694.53	369.14
694.87	367.22
695.21	365.39
695.54	363.60
695.88	361.91
696.21	360.19
696.55	358.48
696.88	356.80
697.22	355.21
697.56	353.58
697.89	351.88
698.23	350.27
698.56	348.66
698.90	347.06
699.23	345.41
699.57	343.91
699.90	342.39
700.24	340.89
700.58	339.37
700.91	337.88
701.25	336.40
701.58	335.03
701.92	333.72
702.25	332.41
702.59	331.02
702.92	329.74
703.26	328.45
703.59	327.16
703.93	325.98
704.26	324.73
704.60	323.44
704.93	322.23
705.26	321.03
705.60	319.83
705.93	318.67
706.27	317.61
706.60	316.52
706.94	315.45
707.27	314.32
707.61	313.27
707.94	312.25
708.27	311.13
708.61	310.06
708.94	309.07
709.28	308.05
709.61	307.13
709.94	306.15
710.28	305.17
710.61	304.22
710.95	303.16
711.28	302.24
711.61	301.30
711.95	300.37
712.28	299.42
712.61	298.50
712.95	297.59
713.28	296.72
713.61	295.84
713.95	294.91
714.28	294.04
714.61	293.16
714.95	292.31
715.28	291.50
715.61	290.64
715.95	289.75
716.28	288.91
716.61	288.06
716.95	287.26
717.28	286.50
717.61	285.70
717.94	284.93
718.28	284.12
718.61	283.39
718.94	282.73
719.27	282.08
719.61	281.36
719.94	280.71
720.27	279.97
720.60	279.31
720.94	278.69
721.27	278.13
721.60	277.54
721.93	276.96
722.27	276.36
722.60	275.77
722.93	275.17
723.26	274.65
723.59	274.10
723.93	273.54
724.26	272.98
724.59	272.40
724.92	271.91
725.25	271.41
725.59	270.90
725.92	270.36
726.25	269.78
726.58	269.30
726.91	268.78
727.24	268.37
727.57	267.88
727.91	267.35
728.24	266.82
728.57	266.31
728.90	265.85
729.23	265.32
729.56	264.89
729.89	264.42
730.22	263.87
730.55	263.40
730.89	262.91
731.22	262.42
731.55	262.03
731.88	261.57
732.21	261.14
732.54	260.66
732.87	260.22
733.20	259.83
733.53	259.44
733.86	259.08
734.19	258.62
734.52	258.24
734.85	257.96
735.18	257.56
735.51	257.22
735.84	256.85
736.17	256.55
736.50	256.13
736.83	255.94
737.16	255.62
737.49	255.27
737.82	254.94
738.15	254.66
738.48	254.32
738.81	254.01
739.14	253.65
739.47	253.33
739.80	253.07
740.13	252.80
740.46	252.48
740.79	252.16
741.12	251.86
741.45	251.56
741.78	251.21
742.11	251.00
742.44	250.67
742.77	250.40
743.10	250.10
743.43	249.81
743.75	249.41
744.08	249.31
744.41	249.02
744.74	248.76
745.07	248.46
745.40	248.25
745.73	248.01
746.06	247.76
746.39	247.57
746.71	247.25
747.04	246.96
747.37	246.68
747.70	246.45
748.03	246.21
748.36	245.98
748.68	245.75
749.01	245.45
749.34	245.22
749.67	244.97
750.00	244.78
750.33	244.68
750.65	244.46
750.98	244.11
751.31	243.90
751.64	243.71
751.97	243.58
752.29	243.36
752.62	243.13
752.95	242.94
753.28	242.69
753.60	242.54
753.93	242.41
754.26	242.25
754.59	241.99
754.91	241.79
755.24	241.60
755.57	241.40
755.90	241.26
756.22	241.09
756.55	240.88
756.88	240.67
757.20	240.43
757.53	240.23
757.86	240.07
758.19	239.91
758.51	239.74
758.84	239.51
759.17	239.33
759.49	239.17
759.82	239.05
760.15	238.90
760.47	238.72
760.80	238.53
761.13	238.40
761.45	238.25
761.78	238.11
762.11	237.94
762.43	237.82
762.76	237.64
763.08	237.51
763.41	237.37
763.74	237.23
764.06	237.09
764.39	236.97
764.71	236.83
765.04	236.69
765.37	236.57
765.69	236.43
766.02	236.28
766.34	236.15
766.67	236.00
767.00	235.88
767.32	235.81
767.65	235.74
767.97	235.60
768.30	235.51
768.62	235.37
768.95	235.26
769.27	235.15
769.60	235.03
769.92	234.88
770.25	234.78
770.57	234.63
770.90	234.49
771.22	234.37
771.55	234.24
771.87	234.13
772.20	234.00
772.52	233.98
772.85	233.99
773.17	233.88
773.50	233.78
773.82	233.64
774.15	233.48
774.47	233.31
774.80	233.21
775.12	233.12
775.45	233.05
775.77	232.97
776.09	232.88
776.42	232.80
776.74	232.77
777.07	232.68
777.39	232.62
777.72	232.54
778.04	232.49
778.36	232.41
778.69	232.36
779.01	232.31
779.33	232.19
779.66	232.00
779.98	231.94
780.31	231.89
780.63	231.86
780.95	231.83
781.28	231.77
781.60	231.68
781.92	231.63
782.25	231.57
782.57	231.49
782.89	231.41
783.22	231.38
783.54	231.27
783.86	231.22
784.19	231.17
784.51	231.18
784.83	231.14
785.16	231.08
785.48	231.00
785.80	230.95
786.12	230.89
786.45	230.88
786.77	230.78
787.09	230.73
787.42	230.66
787.74	230.63
788.06	230.60
788.38	230.59
788.71	230.56
789.03	230.54
789.35	230.53
789.67	230.51
789.99	230.47
790.32	230.45
790.64	230.43
790.96	230.49
791.28	230.40
791.61	230.32
791.93	230.33
792.25	230.32
792.57	230.34
792.89	230.28
793.21	230.27
793.54	230.30
793.86	230.26
794.18	230.24
794.50	230.19
794.82	230.15
795.14	230.12
795.47	230.06
795.79	230.02
796.11	229.96
796.43	229.92
796.75	229.89
797.07	229.86
797.39	229.81
797.71	229.70
798.04	229.70
798.36	229.69
798.68	229.68
799.00	229.68
799.32	229.62
799.64	229.63
799.96	229.58
800.28	229.54
800.60	229.53
800.92	229.51
801.24	229.47
801.56	229.46
801.89	229.42
802.21	229.44
802.53	229.39
802.85	229.41
803.17	229.41
803.49	229.37
803.81	229.32
804.13	229.29
804.45	229.25
804.77	229.22
805.09	229.17
805.41	229.10
805.73	229.04
806.05	228.98
806.37	228.96
806.69	228.92
807.01	228.89
807.33	228.86
807.65	228.78
807.97	228.81
808.28	228.77
808.60	228.73
808.92	228.66
809.24	228.67
809.56	228.65
809.88	228.59
810.20	228.56
810.52	228.57
810.84	228.55
811.16	228.50
811.48	228.44
811.80	228.45
812.12	228.43
812.43	228.41
812.75	228.40
813.07	228.32
813.39	228.31
813.71	228.27
814.03	228.20
814.35	228.18
814.67	228.10
814.98	228.02
815.30	227.98
815.62	227.97
815.94	227.89
816.26	227.88
816.58	227.81
816.89	227.80
817.21	227.73
817.53	227.70
817.85	227.68
818.17	227.66
818.48	227.57
818.80	227.53
819.12	227.50
819.44	227.44
819.76	227.47
820.07	227.42
820.39	227.37
820.71	227.37
821.03	227.35
821.34	227.30
821.66	227.33
821.98	227.32
822.30	227.27
822.61	227.30
822.93	227.23
823.25	227.25
823.57	227.23
823.88	227.21
824.20	227.18
824.52	227.18
824.83	227.19
825.15	227.22
825.47	227.24
825.79	227.21
826.10	227.19
826.42	227.13
826.74	227.12
827.05	227.09
827.37	227.09
827.69	227.08
828.00	227.09
828.32	227.09
828.64	227.08
828.95	227.16
829.27	227.13
829.58	227.12
829.90	227.11
830.22	227.11
830.53	227.11
830.85	227.11
831.17	227.08
831.48	227.05
831.80	227.01
832.11	226.98
832.43	226.97
832.75	226.97
833.06	227.03
833.38	227.03
833.69	227.05
834.01	227.03
834.32	227.01
834.64	227.00
834.96	226.98
835.27	226.98
835.59	226.95
835.90	226.93
836.22	226.92
836.53	226.93
836.85	226.89
837.16	226.99
837.48	226.95
837.79	227.01
838.11	227.04
838.42	227.04
838.74	227.05
839.05	227.06
839.37	227.06
839.68	227.00
840.00	227.01
840.31	227.05
840.63	227.06
840.94	227.09
841.26	227.07
841.57	227.06
841.88	227.07
842.20	227.02
842.51	227.01
842.83	226.99
843.14	227.07
843.46	227.07
843.77	226.98
844.08	226.99
844.40	226.90
844.71	226.88
845.03	226.88
845.34	226.87
845.65	226.85
845.97	226.82
846.28	226.80
846.60	226.78
846.91	226.74
847.22	226.72
847.54	226.73
847.85	226.75
848.16	226.74
848.48	226.72
848.79	226.75
849.10	226.76
849.42	226.76
849.73	226.66
850.04	226.68
850.36	226.65
850.67	226.66
850.98	226.69
851.30	226.69
851.61	226.68
851.92	226.65
852.23	226.66
852.55	226.68
852.86	226.70
853.17	226.69
853.49	226.68
853.80	226.68
854.11	226.68
854.42	226.66
854.74	226.65
855.05	226.66
855.36	226.61
855.67	226.57
855.99	226.61
856.30	226.70
856.61	226.66
856.92	226.66
857.23	226.65
857.55	226.61
857.86	226.58
858.17	226.60
858.48	226.58
858.79	226.60
859.11	226.58
859.42	226.56
859.73	226.52
860.04	226.51
860.35	226.49
860.66	226.43
860.98	226.46
861.29	226.45
861.60	226.44
861.91	226.45
862.22	226.44
862.53	226.39
862.84	226.29
863.16	226.33
863.47	226.31
863.78	226.31
864.09	226.34
864.40	226.35
864.71	226.33
865.02	226.34
865.33	226.31
865.64	226.28
865.95	226.26
866.27	226.36
866.58	226.33
866.89	226.36
867.20	226.39
867.51	226.34
867.82	226.34
868.13	226.39
868.44	226.39
868.75	226.41
869.06	226.41
869.37	226.44
869.68	226.40
869.99	226.42
870.30	226.41
870.61	226.44
870.92	226.42
871.23	226.43
871.54	226.44
871.85	226.47
872.16	226.49
872.47	226.50
872.78	226.45
873.09	226.50
873.40	226.47
873.71	226.48
874.02	226.51
874.33	226.52
874.64	226.46
874.95	226.47
875.26	226.45
875.56	226.47
875.87	226.48
876.18	226.51
876.49	226.61
876.80	226.62
877.11	226.58
877.42	226.58
877.73	226.59
878.04	226.57
878.35	226.60
878.66	226.60
878.96	226.59
879.27	226.60
879.58	226.61
879.89	226.62
880.20	226.62
880.51	226.59
880.82	226.61
881.12	226.63
881.43	226.63
881.74	226.64
882.05	226.64
882.36	226.61
882.67	226.62
882.97	226.50
883.28	226.49
883.59	226.52
883.90	226.53
884.21	226.56
884.51	226.58
884.82	226.54
885.13	226.55
885.44	226.57
885.74	226.55
886.05	226.51
886.36	226.53
886.67	226.50
886.98	226.55
887.28	226.55
887.59	226.52
887.90	226.49
888.20	226.49
888.51	226.50
888.82	226.48
889.13	226.43
889.43	226.51
889.74	226.49
890.05	226.46
890.35	226.42
890.66	226.39
890.97	226.39
891.28	226.36
891.58	226.38
891.89	226.37
892.20	226.36
892.50	226.39
892.81	226.37
893.12	226.36
893.42	226.30
893.73	226.26
894.04	226.24
894.34	226.25
894.65	226.23
894.95	226.19
895.26	226.19
895.57	226.23
895.87	226.13
896.18	226.14
896.48	226.13
896.79	226.12
897.10	226.09
897.40	226.06
897.71	226.06
898.01	226.01
898.32	226.00
898.63	225.93
898.93	225.91
899.24	225.88
899.54	225.87
899.85	225.86
900.15	225.87
900.46	225.89
900.76	225.88
901.07	225.89
901.38	225.88
901.68	225.91
901.99	225.87
902.29	225.87
902.60	225.85
902.90	225.85
903.21	225.85
903.51	225.84
903.82	225.88
904.12	225.84
904.43	225.88
904.73	225.88
905.03	225.94
905.34	226.00
905.64	226.01
905.95	226.00
906.25	226.00
906.56	226.02
906.86	225.99
907.17	225.96
907.47	225.96
907.77	225.94
908.08	225.93
908.38	225.97
908.69	225.96
908.99	225.99
909.30	226.00
909.60	226.01
909.90	226.02
910.21	225.98
910.51	226.03
910.81	226.02
911.12	226.04
911.42	226.03
911.73	225.94
912.03	225.98
912.33	226.01
912.64	226.02
912.94	226.01
913.24	226.03
913.55	226.07
913.85	226.11
914.15	226.17
914.46	226.17
914.76	226.15
915.06	226.15
915.37	226.15
915.67	226.17
915.97	226.19
916.27	226.21
916.58	226.26
916.88	226.24
917.18	226.26
917.49	226.32
917.79	226.34
918.09	226.39
918.39	226.41
918.70	226.40
919.00	226.39
919.30	226.43
919.60	226.44
919.91	226.45
920.21	226.42
920.51	226.40
920.81	226.38
921.12	226.42
921.42	226.46
921.72	226.49
922.02	226.48
922.32	226.48
922.63	226.46
922.93	226.51
923.23	226.53
923.53	226.52
923.83	226.48
924.13	226.51
924.44	226.52
924.74	226.54
925.04	226.54
925.34	226.58
925.64	226.53
925.94	226.53
926.24	226.59
926.55	226.61
926.85	226.59
927.15	226.61
927.45	226.61
927.75	226.57
928.05	226.53
928.35	226.54
928.65	226.58
928.95	226.61
929.26	226.54
929.56	226.56
929.86	226.54
930.16	226.54
930.46	226.49
930.76	226.45
931.06	226.38
931.36	226.38
931.66	226.42
931.96	226.40
932.26	226.41
932.56	226.33
932.86	226.30
933.16	226.32
933.46	226.32
933.76	226.26
934.06	226.28
934.36	226.32
934.66	226.30
934.96	226.27
935.26	226.25
935.56	226.25
935.86	226.20
936.16	226.21
936.46	226.19
936.76	226.19
937.06	226.18
937.36	226.19
937.66	226.20
937.96	226.15
938.26	226.15
938.56	226.12
938.86	226.15
939.16	226.16
939.46	226.19
939.76	226.19
940.06	226.20
940.35	226.21
940.65	226.14
940.95	226.15
941.25	226.11
941.55	226.08
941.85	226.08
942.15	226.09
942.45	226.09
942.75	226.09
943.04	226.09
943.34	226.12
943.64	226.13
943.94	226.09
944.24	226.11
944.54	226.12
944.84	226.12
945.13	226.10
945.43	226.09
945.73	226.06
946.03	226.04
946.33	226.01
946.62	225.99
946.92	226.00
947.22	225.97
947.52	225.99
947.82	226.03
948.11	226.00
948.41	226.02
948.71	226.00
949.01	226.00
949.31	225.99
949.60	225.96
949.90	225.96
950.20	225.99
950.50	225.99
950.79	225.99
951.09	226.04
951.39	226.03
951.69	226.04
951.98	226.08
952.28	226.08
952.58	226.10
952.87	226.11
953.17	226.11
953.47	226.16
953.76	226.14
954.06	226.10
954.36	226.11
954.66	226.10
954.95	226.10
955.25	226.11
955.55	226.12
955.84	226.08
956.14	226.08
956.44	226.08
956.73	226.04
957.03	226.04
957.32	226.02
957.62	226.02
957.92	226.05
958.21	226.04
958.51	226.16
958.81	226.18
959.10	226.16
959.40	226.20
959.69	226.21
959.99	226.23
960.29	226.25
960.58	226.25
960.88	226.31
961.17	226.34
961.47	226.36
961.76	226.33
962.06	226.38
962.36	226.39
962.65	226.37
962.95	226.40
963.24	226.38
963.54	226.40
963.83	226.39
964.13	226.35
964.42	226.33
964.72	226.21
965.01	226.19
965.31	226.19
965.60	226.16
965.90	226.20
966.19	226.15
966.49	226.13
966.78	226.11
967.08	226.05
967.37	226.04
967.67	226.00
967.96	226.01
968.26	226.02
968.55	226.05
968.85	226.03
969.14	226.01
969.43	226.00
969.73	225.97
970.02	225.93
970.32	225.91
970.61	225.89
970.91	225.90
971.20	225.89
971.49	225.88
971.79	225.87
972.08	225.78
972.38	225.80
972.67	225.81
972.96	225.81
973.26	225.80
973.55	225.82
973.85	225.81
974.14	225.85
974.43	225.85
974.73	225.80
975.02	225.81
975.31	225.78
975.61	225.79
975.90	225.78
976.19	225.84
976.49	225.83
976.78	225.83
977.07	225.83
977.37	225.82
977.66	225.83
977.95	225.86
978.24	225.86
978.54	225.89
978.83	225.91
979.12	225.92
979.42	225.92
979.71	225.91
980.00	225.91
980.29	225.90
980.59	225.87
980.88	225.88
981.17	225.91
981.46	225.92
981.76	225.92
982.05	225.96
982.34	225.93
982.63	225.94
982.93	225.94
983.22	225.94
983.51	225.96
983.80	225.98
984.09	225.99
984.39	225.97
984.68	225.97
984.97	225.95
985.26	225.94
985.55	225.98
985.85	225.96
986.14	225.98
986.43	225.99
986.72	225.99
987.01	225.99
987.30	225.98
987.59	225.96
987.89	225.97
988.18	225.95
988.47	225.96
988.76	225.95
989.05	225.98
989.34	225.97
989.63	226.04
989.92	225.99
990.22	225.96
990.51	225.99
990.80	225.98
991.09	225.99
991.38	226.01
991.67	225.94
991.96	225.93
992.25	225.90
992.54	225.87
992.83	225.87
993.12	225.85
993.41	225.85
993.70	225.88
993.99	225.89
994.28	225.87
994.58	225.89
994.87	225.88
995.16	225.85
995.45	225.83
995.74	225.75
996.03	225.78
996.32	225.79
996.61	225.81
996.90	225.80
997.19	225.79
997.48	225.77
997.77	225.79
998.06	225.76
998.34	225.76
998.63	225.74
998.92	225.72
999.21	225.73
999.50	225.74
999.79	225.72
1000.08	225.70
1000.37	225.71
1000.66	225.67
1000.95	225.68
1001.24	225.70
1001.53	225.72
1001.82	225.72
1002.11	225.68
1002.40	225.66
1002.68	225.67
1002.97	225.71
1003.26	225.73
1003.55	225.70
1003.84	225.70
1004.13	225.75
1004.42	225.76
1004.71	225.79
1004.99	225.81
1005.28	225.82
1005.57	225.81
1005.86	225.79
1006.15	225.78
1006.44	225.78
1006.72	225.78
1007.01	225.73
1007.30	225.73
1007.59	225.72
1007.88	225.71
1008.17	225.71
1008.45	225.71
1008.74	225.67
1009.03	225.66
1009.32	225.63
1009.60	225.66
1009.89	225.66
1010.18	225.63
1010.47	225.61
1010.76	225.58
1011.04	225.52
1011.33	225.55
1011.62	225.54
1011.91	225.54
1012.19	225.53
1012.48	225.53
1012.77	225.55
1013.05	225.67
1013.34	225.65
1013.63	225.64
1013.92	225.67
1014.20	225.68
1014.49	225.70
1014.78	225.70
1015.06	225.67
1015.35	225.69
1015.64	225.71
1015.92	225.71
1016.21	225.71
1016.50	225.72
1016.78	225.74
1017.07	225.80
1017.36	225.77
1017.64	225.77
1017.93	225.81
1018.22	225.84
1018.50	225.83
1018.79	225.84
1019.08	225.76
1019.36	225.79
1019.65	225.82
1019.93	225.83
1020.22	225.86
1020.51	225.91
1020.79	225.88
1021.08	225.96
1021.36	225.41
1021.65	225.98
1021.94	225.39
1022.22	225.99
1022.51	226.13
1022.79	226.25
1023.08	226.10
1023.36	226.96
1023.65	225.24
>>>>>End Processed Spectral Data<<<<<
