SpectraSuite Data File
++++++++++++++++++++++++++++++++++++
Date: Fri Feb 01 16:07:18 EST 2013
User: group
Dark Spectrum Present: No
Reference Spectrum Present: No
Number of Sampled Component Spectra: 1
Spectrometers: USB2E7196
Integration Time (usec): 35000 (USB2E7196)
Spectra Averaged: 100 (USB2E7196)
Boxcar Smoothing: 10 (USB2E7196)
Correct for Electrical Dark: No (USB2E7196)
Strobe/Lamp Enabled: No (USB2E7196)
Correct for Detector Non-linearity: No (USB2E7196)
Correct for Stray Light: No (USB2E7196)
Number of Pixels in Processed Spectrum: 2048
>>>>>Begin Processed Spectral Data<<<<<
339.09	0.00
339.48	214.59
339.86	216.02
340.24	217.53
340.63	219.18
341.01	221.38
341.39	222.02
341.78	222.83
342.16	224.32
342.54	224.06
342.93	212.94
343.31	223.69
343.69	224.21
344.07	224.67
344.46	225.11
344.84	225.47
345.22	225.71
345.60	225.93
345.99	226.13
346.37	226.23
346.75	226.35
347.13	226.39
347.52	226.44
347.90	226.52
348.28	226.51
348.66	226.51
349.05	226.50
349.43	226.55
349.81	226.62
350.19	226.67
350.57	226.72
350.96	226.80
351.34	226.88
351.72	226.99
352.10	227.07
352.48	227.11
352.87	227.16
353.25	227.26
353.63	227.32
354.01	227.37
354.39	227.46
354.77	227.55
355.15	227.65
355.54	227.71
355.92	227.72
356.30	227.81
356.68	227.96
357.06	228.04
357.44	228.09
357.82	228.12
358.20	228.17
358.58	228.27
358.97	228.30
359.35	228.40
359.73	228.46
360.11	228.54
360.49	228.58
360.87	228.62
361.25	228.66
361.63	228.75
362.01	228.79
362.39	228.82
362.77	228.84
363.15	228.89
363.53	228.92
363.91	228.96
364.29	228.99
364.67	228.98
365.05	229.01
365.43	229.03
365.81	229.06
366.19	229.12
366.57	229.16
366.95	229.18
367.33	229.15
367.71	229.16
368.09	229.14
368.47	229.16
368.85	229.17
369.23	229.17
369.61	229.12
369.99	229.11
370.37	229.07
370.75	229.11
371.13	229.02
371.51	228.98
371.89	228.96
372.27	228.93
372.65	228.85
373.03	228.78
373.41	228.74
373.78	228.69
374.16	228.56
374.54	228.44
374.92	228.38
375.30	228.32
375.68	228.24
376.06	228.18
376.44	228.09
376.82	227.99
377.19	227.90
377.57	227.85
377.95	227.76
378.33	227.69
378.71	227.56
379.09	227.55
379.47	227.47
379.84	227.37
380.22	227.30
380.60	227.23
380.98	227.19
381.36	227.13
381.73	227.06
382.11	227.06
382.49	227.00
382.87	226.94
383.25	226.85
383.62	226.91
384.00	226.85
384.38	226.81
384.76	226.78
385.13	226.77
385.51	226.70
385.89	226.66
386.27	226.62
386.64	226.59
387.02	226.52
387.40	226.48
387.78	226.44
388.15	226.44
388.53	226.39
388.91	226.34
389.29	226.28
389.66	226.26
390.04	226.20
390.42	226.18
390.79	226.18
391.17	226.17
391.55	226.02
391.92	226.01
392.30	226.02
392.68	225.98
393.05	226.00
393.43	225.98
393.81	225.99
394.18	226.01
394.56	226.01
394.94	226.04
395.31	226.07
395.69	226.14
396.06	226.14
396.44	226.18
396.82	226.23
397.19	226.34
397.57	226.35
397.95	226.38
398.32	226.43
398.70	226.47
399.07	226.56
399.45	226.62
399.82	226.67
400.20	226.70
400.58	226.81
400.95	226.82
401.33	226.91
401.70	227.06
402.08	227.11
402.45	227.20
402.83	227.30
403.20	227.38
403.58	227.49
403.95	227.63
404.33	227.76
404.71	227.88
405.08	228.05
405.46	228.20
405.83	228.37
406.21	228.52
406.58	228.69
406.96	228.85
407.33	229.04
407.70	229.24
408.08	229.53
408.45	229.77
408.83	230.00
409.20	230.24
409.58	230.39
409.95	230.68
410.33	230.96
410.70	231.22
411.08	231.54
411.45	231.79
411.82	232.07
412.20	232.42
412.57	232.81
412.95	233.10
413.32	233.50
413.69	233.88
414.07	234.31
414.44	234.77
414.82	235.26
415.19	235.80
415.56	236.34
415.94	236.91
416.31	237.51
416.68	238.15
417.06	238.85
417.43	239.56
417.81	240.31
418.18	241.09
418.55	241.96
418.93	242.86
419.30	243.81
419.67	244.79
420.04	245.76
420.42	246.77
420.79	247.99
421.16	249.20
421.54	250.43
421.91	251.66
422.28	252.92
422.66	254.23
423.03	255.56
423.40	256.90
423.77	258.29
424.15	259.70
424.52	261.17
424.89	262.78
425.26	264.32
425.64	265.80
426.01	267.38
426.38	268.99
426.75	270.63
427.13	272.35
427.50	274.15
427.87	276.02
428.24	277.89
428.61	279.61
428.99	281.51
429.36	283.55
429.73	285.58
430.10	287.61
430.47	289.68
430.85	291.75
431.22	293.99
431.59	296.33
431.96	298.61
432.33	301.11
432.70	303.46
433.08	306.28
433.45	308.90
433.82	311.56
434.19	314.45
434.56	317.28
434.93	319.90
435.30	322.51
435.68	325.39
436.05	328.20
436.42	330.99
436.79	333.48
437.16	336.22
437.53	339.06
437.90	341.86
438.27	344.59
438.64	347.41
439.01	349.97
439.38	352.23
439.75	354.37
440.13	356.82
440.50	359.16
440.87	360.97
441.24	362.90
441.61	365.00
441.98	366.52
442.35	368.28
442.72	370.10
443.09	371.91
443.46	372.92
443.83	373.52
444.20	373.95
444.57	374.83
444.94	375.09
445.31	375.43
445.68	375.74
446.05	375.79
446.42	375.38
446.79	374.95
447.16	374.47
447.53	374.16
447.90	373.01
448.27	371.86
448.64	370.30
449.01	369.18
449.37	367.22
449.74	365.27
450.11	363.03
450.48	360.54
450.85	357.98
451.22	355.79
451.59	353.76
451.96	351.86
452.33	349.24
452.70	346.91
453.07	344.06
453.43	341.17
453.80	338.43
454.17	335.76
454.54	333.24
454.91	330.55
455.28	327.87
455.65	325.39
456.02	322.94
456.38	320.78
456.75	318.09
457.12	315.85
457.49	313.65
457.86	311.50
458.23	309.72
458.59	307.67
458.96	305.62
459.33	303.74
459.70	301.89
460.07	300.38
460.43	298.68
460.80	297.07
461.17	295.65
461.54	294.18
461.91	292.78
462.27	291.36
462.64	290.11
463.01	288.78
463.38	287.49
463.74	286.12
464.11	284.95
464.48	283.93
464.85	282.80
465.21	281.93
465.58	281.00
465.95	279.89
466.32	279.02
466.68	278.08
467.05	277.21
467.42	276.33
467.78	275.39
468.15	274.51
468.52	273.87
468.88	273.01
469.25	272.25
469.62	271.67
469.98	270.99
470.35	270.43
470.72	269.82
471.08	269.20
471.45	268.72
471.82	268.20
472.18	267.61
472.55	267.22
472.92	266.72
473.28	266.27
473.65	265.84
474.02	265.39
474.38	265.05
474.75	264.75
475.11	264.41
475.48	264.18
475.85	263.96
476.21	263.72
476.58	263.54
476.94	263.43
477.31	263.26
477.67	263.13
478.04	262.98
478.41	262.94
478.77	262.97
479.14	262.91
479.50	262.91
479.87	263.02
480.23	263.10
480.60	263.17
480.96	263.26
481.33	263.48
481.69	263.72
482.06	263.89
482.42	264.10
482.79	264.37
483.15	264.69
483.52	265.06
483.88	265.43
484.25	265.85
484.61	266.23
484.98	266.69
485.34	267.22
485.71	267.81
486.07	268.43
486.44	268.96
486.80	269.66
487.17	270.37
487.53	271.17
487.90	271.99
488.26	272.94
488.62	273.92
488.99	274.86
489.35	275.89
489.72	277.01
490.08	278.21
490.44	279.43
490.81	280.75
491.17	282.08
491.54	283.57
491.90	285.08
492.26	286.75
492.63	288.45
492.99	290.23
493.36	292.06
493.72	294.08
494.08	296.18
494.45	298.46
494.81	300.85
495.17	303.29
495.54	305.86
495.90	308.55
496.26	311.39
496.63	314.41
496.99	317.50
497.35	320.77
497.72	324.18
498.08	327.71
498.44	331.39
498.80	335.33
499.17	339.39
499.53	343.57
499.89	347.96
500.26	352.49
500.62	357.18
500.98	362.20
501.34	367.28
501.71	372.65
502.07	378.02
502.43	383.60
502.79	389.44
503.16	395.47
503.52	401.72
503.88	408.11
504.24	414.68
504.60	421.63
504.97	428.80
505.33	436.10
505.69	443.76
506.05	451.59
506.41	459.52
506.78	467.66
507.14	476.08
507.50	484.80
507.86	493.82
508.22	502.99
508.59	512.27
508.95	521.85
509.31	531.68
509.67	541.82
510.03	552.07
510.39	562.61
510.75	573.46
511.12	584.43
511.48	595.70
511.84	607.18
512.20	618.68
512.56	630.55
512.92	642.70
513.28	655.10
513.64	667.50
514.00	680.23
514.37	693.17
514.73	706.21
515.09	719.18
515.45	732.48
515.81	746.04
516.17	759.94
516.53	774.06
516.89	788.25
517.25	802.36
517.61	816.84
517.97	831.19
518.33	845.61
518.69	860.37
519.05	875.31
519.41	890.41
519.77	905.97
520.13	921.44
520.49	936.89
520.85	952.23
521.21	967.93
521.57	984.06
521.93	999.68
522.29	1016.04
522.65	1032.37
523.01	1048.49
523.37	1064.57
523.73	1080.68
524.09	1096.75
524.45	1112.94
524.81	1129.63
525.17	1146.38
525.53	1163.33
525.89	1180.21
526.25	1197.08
526.61	1213.53
526.97	1230.38
527.33	1246.83
527.68	1263.27
528.04	1279.60
528.40	1296.24
528.76	1313.32
529.12	1329.87
529.48	1346.83
529.84	1362.77
530.20	1379.24
530.56	1396.25
530.91	1413.59
531.27	1430.36
531.63	1446.75
531.99	1463.29
532.35	1479.27
532.71	1495.12
533.07	1511.34
533.42	1527.11
533.78	1543.02
534.14	1559.15
534.50	1574.45
534.86	1590.19
535.21	1605.44
535.57	1621.33
535.93	1636.71
536.29	1651.45
536.65	1666.43
537.00	1681.02
537.36	1696.41
537.72	1710.86
538.08	1725.24
538.44	1738.86
538.79	1752.67
539.15	1766.23
539.51	1779.86
539.87	1793.97
540.22	1807.57
540.58	1821.24
540.94	1834.47
541.29	1847.27
541.65	1859.91
542.01	1872.88
542.37	1885.11
542.72	1897.45
543.08	1909.13
543.44	1921.32
543.79	1932.38
544.15	1943.18
544.51	1954.82
544.87	1965.64
545.22	1976.35
545.58	1986.47
545.94	1996.26
546.29	2006.08
546.65	2015.86
547.01	2025.11
547.36	2033.79
547.72	2042.24
548.07	2050.00
548.43	2058.25
548.79	2066.22
549.14	2073.80
549.50	2081.19
549.86	2088.88
550.21	2096.17
550.57	2103.48
550.92	2110.17
551.28	2117.23
551.64	2124.32
551.99	2130.67
552.35	2136.81
552.70	2143.11
553.06	2149.03
553.41	2155.37
553.77	2161.40
554.13	2167.51
554.48	2173.62
554.84	2179.15
555.19	2184.35
555.55	2189.65
555.90	2194.07
556.26	2198.94
556.61	2203.49
556.97	2207.88
557.32	2211.99
557.68	2216.09
558.03	2220.28
558.39	2224.06
558.74	2228.74
559.10	2232.69
559.45	2236.50
559.81	2240.71
560.16	2244.50
560.52	2247.81
560.87	2251.27
561.23	2253.89
561.58	2256.83
561.94	2259.39
562.29	2261.69
562.64	2264.66
563.00	2267.15
563.35	2270.73
563.71	2273.79
564.06	2277.09
564.42	2279.92
564.77	2282.43
565.12	2284.88
565.48	2286.74
565.83	2288.50
566.19	2289.90
566.54	2290.77
566.89	2292.06
567.25	2292.89
567.60	2294.19
567.96	2295.90
568.31	2296.74
568.66	2297.90
569.02	2298.51
569.37	2298.96
569.72	2299.95
570.08	2299.98
570.43	2300.07
570.78	2299.59
571.14	2298.14
571.49	2296.89
571.84	2296.57
572.20	2295.54
572.55	2294.56
572.90	2293.03
573.26	2291.69
573.61	2289.94
573.96	2288.31
574.31	2285.37
574.67	2282.25
575.02	2278.62
575.37	2275.25
575.72	2271.45
576.08	2268.20
576.43	2264.97
576.78	2261.34
577.13	2258.00
577.49	2254.78
577.84	2251.26
578.19	2247.32
578.54	2243.76
578.90	2239.48
579.25	2233.84
579.60	2228.84
579.95	2223.72
580.30	2218.61
580.66	2213.52
581.01	2208.61
581.36	2203.65
581.71	2199.39
582.06	2194.93
582.42	2190.67
582.77	2185.47
583.12	2180.99
583.47	2176.22
583.82	2171.29
584.17	2166.05
584.53	2160.56
584.88	2154.96
585.23	2149.18
585.58	2143.72
585.93	2138.12
586.28	2133.44
586.63	2128.58
586.98	2123.51
587.34	2118.77
587.69	2114.11
588.04	2108.83
588.39	2103.21
588.74	2096.73
589.09	2090.56
589.44	2083.79
589.79	2077.56
590.14	2071.89
590.49	2065.24
590.84	2058.78
591.19	2052.53
591.54	2046.01
591.89	2038.84
592.25	2032.22
592.60	2025.14
592.95	2017.68
593.30	2010.54
593.65	2002.81
594.00	1995.67
594.35	1988.43
594.70	1980.40
595.05	1973.19
595.40	1965.89
595.75	1958.30
596.10	1952.08
596.45	1945.31
596.80	1939.27
597.15	1932.78
597.50	1925.81
597.85	1919.37
598.19	1912.83
598.54	1905.85
598.89	1899.17
599.24	1893.39
599.59	1886.78
599.94	1880.48
600.29	1874.09
600.64	1867.39
600.99	1860.12
601.34	1853.19
601.69	1846.30
602.04	1839.53
602.39	1832.12
602.74	1825.43
603.08	1818.67
603.43	1812.06
603.78	1804.77
604.13	1797.52
604.48	1790.27
604.83	1783.34
605.18	1776.44
605.53	1768.42
605.87	1760.48
606.22	1753.21
606.57	1745.17
606.92	1737.71
607.27	1730.65
607.62	1723.82
607.96	1716.65
608.31	1710.08
608.66	1702.54
609.01	1695.06
609.36	1687.56
609.70	1679.65
610.05	1671.58
610.40	1664.12
610.75	1655.68
611.10	1648.02
611.44	1639.68
611.79	1631.51
612.14	1622.83
612.49	1613.76
612.83	1605.31
613.18	1597.14
613.53	1589.13
613.88	1580.66
614.22	1572.46
614.57	1563.78
614.92	1555.82
615.27	1548.37
615.61	1540.03
615.96	1532.04
616.31	1524.30
616.65	1516.75
617.00	1509.26
617.35	1501.53
617.70	1493.13
618.04	1484.73
618.39	1476.55
618.74	1468.87
619.08	1460.66
619.43	1453.08
619.78	1446.17
620.12	1439.14
620.47	1431.66
620.82	1423.49
621.16	1415.96
621.51	1408.34
621.85	1400.69
622.20	1392.17
622.55	1383.66
622.89	1375.79
623.24	1368.11
623.59	1360.70
623.93	1353.25
624.28	1345.93
624.62	1338.41
624.97	1331.18
625.32	1324.39
625.66	1317.30
626.01	1310.23
626.35	1302.84
626.70	1295.12
627.04	1287.31
627.39	1279.43
627.73	1271.94
628.08	1264.99
628.43	1257.78
628.77	1250.42
629.12	1242.91
629.46	1235.67
629.81	1228.18
630.15	1220.92
630.50	1213.53
630.84	1205.38
631.19	1197.43
631.53	1189.95
631.88	1182.37
632.22	1174.72
632.57	1167.46
632.91	1159.96
633.26	1152.52
633.60	1145.01
633.95	1137.85
634.29	1130.83
634.64	1124.16
634.98	1116.88
635.32	1109.79
635.67	1103.15
636.01	1096.55
636.36	1089.73
636.70	1083.21
637.05	1076.75
637.39	1070.33
637.73	1063.89
638.08	1057.91
638.42	1051.99
638.77	1045.52
639.11	1039.00
639.45	1032.60
639.80	1025.91
640.14	1019.57
640.49	1013.03
640.83	1006.79
641.17	1000.68
641.52	994.33
641.86	987.80
642.20	981.97
642.55	975.56
642.89	969.09
643.23	962.47
643.58	956.76
643.92	950.61
644.26	944.55
644.61	938.46
644.95	932.46
645.29	925.96
645.64	919.13
645.98	912.78
646.32	906.95
646.66	900.90
647.01	895.12
647.35	889.36
647.69	883.49
648.04	877.96
648.38	872.11
648.72	866.19
649.06	860.30
649.41	854.37
649.75	848.38
650.09	842.40
650.43	836.58
650.78	830.40
651.12	824.45
651.46	818.80
651.80	813.09
652.14	807.70
652.49	802.38
652.83	797.30
653.17	791.61
653.51	785.87
653.85	780.48
654.20	774.90
654.54	768.97
654.88	763.18
655.22	757.37
655.56	751.64
655.90	746.06
656.25	740.81
656.59	735.45
656.93	730.49
657.27	725.36
657.61	719.96
657.95	714.84
658.29	709.75
658.64	704.38
658.98	699.03
659.32	693.51
659.66	688.19
660.00	682.91
660.34	677.97
660.68	672.99
661.02	668.05
661.36	663.32
661.70	658.79
662.05	654.44
662.39	650.03
662.73	645.56
663.07	641.29
663.41	636.82
663.75	632.36
664.09	627.75
664.43	623.37
664.77	619.30
665.11	615.08
665.45	610.91
665.79	606.82
666.13	602.73
666.47	598.65
666.81	594.54
667.15	590.32
667.49	586.42
667.83	582.59
668.17	578.56
668.51	574.43
668.85	570.34
669.19	566.47
669.53	562.62
669.87	558.78
670.21	554.98
670.55	551.29
670.89	547.85
671.23	544.42
671.57	540.89
671.91	537.36
672.25	533.84
672.58	530.32
672.92	526.97
673.26	523.78
673.60	520.57
673.94	517.52
674.28	514.65
674.62	511.68
674.96	508.56
675.30	505.69
675.64	502.83
675.97	500.08
676.31	497.27
676.65	494.38
676.99	491.63
677.33	488.84
677.67	486.07
678.01	483.05
678.34	480.11
678.68	477.20
679.02	474.38
679.36	471.63
679.70	468.87
680.04	466.08
680.37	463.23
680.71	460.48
681.05	457.81
681.39	455.09
681.73	452.40
682.06	449.93
682.40	447.37
682.74	444.78
683.08	442.23
683.42	439.62
683.75	437.16
684.09	434.55
684.43	432.07
684.77	429.61
685.10	427.25
685.44	424.91
685.78	422.63
686.12	420.33
686.45	418.02
686.79	415.77
687.13	413.62
687.46	411.40
687.80	409.24
688.14	407.03
688.48	404.97
688.81	402.79
689.15	400.58
689.49	398.41
689.82	396.36
690.16	394.24
690.50	392.27
690.83	390.30
691.17	388.38
691.51	386.50
691.84	384.65
692.18	382.69
692.52	380.70
692.85	378.78
693.19	376.93
693.52	375.09
693.86	373.26
694.20	371.42
694.53	369.68
694.87	367.82
695.21	366.02
695.54	364.23
695.88	362.50
696.21	360.82
696.55	359.19
696.88	357.50
697.22	355.87
697.56	354.29
697.89	352.66
698.23	351.03
698.56	349.38
698.90	347.74
699.23	346.14
699.57	344.59
699.90	343.05
700.24	341.47
700.58	339.95
700.91	338.50
701.25	337.11
701.58	335.70
701.92	334.35
702.25	332.96
702.59	331.57
702.92	330.25
703.26	328.97
703.59	327.68
703.93	326.46
704.26	325.23
704.60	323.94
704.93	322.65
705.26	321.44
705.60	320.28
705.93	319.13
706.27	318.07
706.60	317.06
706.94	316.00
707.27	314.91
707.61	313.85
707.94	312.81
708.27	311.69
708.61	310.62
708.94	309.62
709.28	308.67
709.61	307.72
709.94	306.75
710.28	305.70
710.61	304.68
710.95	303.57
711.28	302.64
711.61	301.65
711.95	300.74
712.28	299.78
712.61	298.81
712.95	297.87
713.28	296.98
713.61	296.01
713.95	295.13
714.28	294.28
714.61	293.41
714.95	292.51
715.28	291.65
715.61	290.79
715.95	289.94
716.28	289.08
716.61	288.24
716.95	287.39
717.28	286.63
717.61	285.84
717.94	285.11
718.28	284.31
718.61	283.57
718.94	282.83
719.27	282.15
719.61	281.51
719.94	280.84
720.27	280.14
720.60	279.51
720.94	278.84
721.27	278.22
721.60	277.65
721.93	277.06
722.27	276.49
722.60	275.93
722.93	275.31
723.26	274.76
723.59	274.18
723.93	273.65
724.26	273.13
724.59	272.59
724.92	272.10
725.25	271.61
725.59	271.10
725.92	270.60
726.25	270.07
726.58	269.60
726.91	269.13
727.24	268.69
727.57	268.21
727.91	267.75
728.24	267.27
728.57	266.79
728.90	266.31
729.23	265.84
729.56	265.37
729.89	264.93
730.22	264.45
730.55	263.99
730.89	263.55
731.22	263.09
731.55	262.64
731.88	262.22
732.21	261.79
732.54	261.33
732.87	260.94
733.20	260.56
733.53	260.17
733.86	259.81
734.19	259.35
734.52	258.99
734.85	258.68
735.18	258.30
735.51	257.94
735.84	257.58
736.17	257.25
736.50	256.88
736.83	256.63
737.16	256.32
737.49	256.04
737.82	255.68
738.15	255.36
738.48	255.03
738.81	254.74
739.14	254.44
739.47	254.18
739.80	253.86
740.13	253.57
740.46	253.22
740.79	252.86
741.12	252.60
741.45	252.26
741.78	251.89
742.11	251.64
742.44	251.31
742.77	251.07
743.10	250.74
743.43	250.45
743.75	250.06
744.08	249.94
744.41	249.66
744.74	249.40
745.07	249.12
745.40	248.92
745.73	248.66
746.06	248.37
746.39	248.11
746.71	247.85
747.04	247.57
747.37	247.33
747.70	247.12
748.03	246.84
748.36	246.61
748.68	246.40
749.01	246.11
749.34	245.88
749.67	245.61
750.00	245.40
750.33	245.26
750.65	245.09
750.98	244.70
751.31	244.46
751.64	244.24
751.97	244.10
752.29	243.87
752.62	243.59
752.95	243.37
753.28	243.14
753.60	242.95
753.93	242.74
754.26	242.52
754.59	242.28
754.91	242.09
755.24	241.89
755.57	241.67
755.90	241.49
756.22	241.31
756.55	241.11
756.88	240.93
757.20	240.70
757.53	240.51
757.86	240.32
758.19	240.14
758.51	240.00
758.84	239.75
759.17	239.52
759.49	239.37
759.82	239.26
760.15	239.10
760.47	238.92
760.80	238.72
761.13	238.60
761.45	238.43
761.78	238.30
762.11	238.14
762.43	238.01
762.76	237.86
763.08	237.75
763.41	237.61
763.74	237.43
764.06	237.25
764.39	237.07
764.71	236.94
765.04	236.77
765.37	236.59
765.69	236.45
766.02	236.36
766.34	236.25
766.67	236.05
767.00	235.95
767.32	235.91
767.65	235.88
767.97	235.77
768.30	235.68
768.62	235.58
768.95	235.44
769.27	235.30
769.60	235.21
769.92	235.06
770.25	234.95
770.57	234.84
770.90	234.74
771.22	234.66
771.55	234.58
771.87	234.52
772.20	234.39
772.52	234.41
772.85	234.42
773.17	234.33
773.50	234.27
773.82	234.17
774.15	234.01
774.47	233.89
774.80	233.79
775.12	233.69
775.45	233.58
775.77	233.56
776.09	233.51
776.42	233.43
776.74	233.40
777.07	233.34
777.39	233.30
777.72	233.26
778.04	233.21
778.36	233.14
778.69	233.13
779.01	233.11
779.33	232.95
779.66	232.80
779.98	232.73
780.31	232.69
780.63	232.68
780.95	232.66
781.28	232.58
781.60	232.51
781.92	232.44
782.25	232.43
782.57	232.34
782.89	232.27
783.22	232.24
783.54	232.13
783.86	232.08
784.19	232.01
784.51	231.98
784.83	231.91
785.16	231.85
785.48	231.78
785.80	231.71
786.12	231.66
786.45	231.59
786.77	231.55
787.09	231.51
787.42	231.40
787.74	231.38
788.06	231.35
788.38	231.32
788.71	231.32
789.03	231.25
789.35	231.23
789.67	231.20
789.99	231.12
790.32	231.05
790.64	231.01
790.96	231.04
791.28	230.99
791.61	230.95
791.93	230.96
792.25	230.90
792.57	230.93
792.89	230.90
793.21	230.88
793.54	230.82
793.86	230.73
794.18	230.71
794.50	230.65
794.82	230.61
795.14	230.57
795.47	230.50
795.79	230.48
796.11	230.40
796.43	230.35
796.75	230.34
797.07	230.33
797.39	230.31
797.71	230.22
798.04	230.19
798.36	230.13
798.68	230.06
799.00	230.05
799.32	229.94
799.64	229.90
799.96	229.85
800.28	229.83
800.60	229.79
800.92	229.72
801.24	229.66
801.56	229.63
801.89	229.58
802.21	229.56
802.53	229.49
802.85	229.48
803.17	229.48
803.49	229.42
803.81	229.37
804.13	229.31
804.45	229.25
804.77	229.21
805.09	229.19
805.41	229.18
805.73	229.10
806.05	229.07
806.37	229.02
806.69	228.97
807.01	228.92
807.33	228.92
807.65	228.89
807.97	228.91
808.28	228.87
808.60	228.83
808.92	228.79
809.24	228.84
809.56	228.78
809.88	228.71
810.20	228.72
810.52	228.74
810.84	228.70
811.16	228.65
811.48	228.60
811.80	228.60
812.12	228.58
812.43	228.59
812.75	228.58
813.07	228.57
813.39	228.58
813.71	228.57
814.03	228.54
814.35	228.54
814.67	228.47
814.98	228.45
815.30	228.41
815.62	228.39
815.94	228.30
816.26	228.35
816.58	228.31
816.89	228.28
817.21	228.22
817.53	228.22
817.85	228.22
818.17	228.22
818.48	228.18
818.80	228.20
819.12	228.19
819.44	228.18
819.76	228.16
820.07	228.16
820.39	228.18
820.71	228.18
821.03	228.15
821.34	228.13
821.66	228.12
821.98	228.14
822.30	228.12
822.61	228.16
822.93	228.15
823.25	228.16
823.57	228.16
823.88	228.20
824.20	228.20
824.52	228.21
824.83	228.20
825.15	228.18
825.47	228.15
825.79	228.18
826.10	228.15
826.42	228.12
826.74	228.09
827.05	228.03
827.37	228.03
827.69	228.03
828.00	228.07
828.32	228.08
828.64	228.08
828.95	228.10
829.27	228.07
829.58	228.03
829.90	228.05
830.22	228.05
830.53	228.01
830.85	228.00
831.17	227.97
831.48	227.97
831.80	227.99
832.11	227.96
832.43	227.91
832.75	227.91
833.06	227.97
833.38	227.96
833.69	227.97
834.01	227.94
834.32	227.95
834.64	227.91
834.96	227.87
835.27	227.83
835.59	227.79
835.90	227.75
836.22	227.72
836.53	227.68
836.85	227.65
837.16	227.75
837.48	227.73
837.79	227.76
838.11	227.75
838.42	227.70
838.74	227.72
839.05	227.69
839.37	227.69
839.68	227.60
840.00	227.62
840.31	227.61
840.63	227.60
840.94	227.56
841.26	227.56
841.57	227.56
841.88	227.57
842.20	227.55
842.51	227.55
842.83	227.51
843.14	227.61
843.46	227.61
843.77	227.50
844.08	227.47
844.40	227.42
844.71	227.42
845.03	227.42
845.34	227.37
845.65	227.39
845.97	227.37
846.28	227.40
846.60	227.36
846.91	227.35
847.22	227.33
847.54	227.37
847.85	227.33
848.16	227.32
848.48	227.29
848.79	227.35
849.10	227.32
849.42	227.32
849.73	227.19
850.04	227.15
850.36	227.13
850.67	227.14
850.98	227.13
851.30	227.10
851.61	227.06
851.92	227.05
852.23	227.07
852.55	227.04
852.86	227.04
853.17	227.01
853.49	227.05
853.80	227.09
854.11	227.04
854.42	227.06
854.74	227.07
855.05	227.10
855.36	227.04
855.67	227.08
855.99	227.11
856.30	227.25
856.61	227.28
856.92	227.30
857.23	227.31
857.55	227.33
857.86	227.33
858.17	227.41
858.48	227.42
858.79	227.36
859.11	227.38
859.42	227.40
859.73	227.39
860.04	227.35
860.35	227.31
860.66	227.32
860.98	227.32
861.29	227.32
861.60	227.28
861.91	227.29
862.22	227.27
862.53	227.27
862.84	227.14
863.16	227.18
863.47	227.16
863.78	227.16
864.09	227.16
864.40	227.17
864.71	227.13
865.02	227.12
865.33	227.14
865.64	227.14
865.95	227.11
866.27	227.18
866.58	227.18
866.89	227.19
867.20	227.17
867.51	227.16
867.82	227.14
868.13	227.19
868.44	227.18
868.75	227.19
869.06	227.16
869.37	227.16
869.68	227.09
869.99	227.10
870.30	227.10
870.61	227.10
870.92	227.09
871.23	227.08
871.54	227.09
871.85	227.09
872.16	227.06
872.47	227.04
872.78	227.00
873.09	227.00
873.40	227.01
873.71	227.02
874.02	226.99
874.33	227.01
874.64	227.00
874.95	226.99
875.26	226.97
875.56	226.97
875.87	226.96
876.18	226.99
876.49	227.08
876.80	227.07
877.11	227.08
877.42	227.09
877.73	227.06
878.04	227.06
878.35	227.06
878.66	227.11
878.96	227.12
879.27	227.10
879.58	227.09
879.89	227.09
880.20	227.13
880.51	227.13
880.82	227.14
881.12	227.15
881.43	227.12
881.74	227.14
882.05	227.17
882.36	227.20
882.67	227.18
882.97	227.05
883.28	227.05
883.59	227.02
883.90	227.01
884.21	227.05
884.51	227.05
884.82	227.06
885.13	227.03
885.44	227.05
885.74	227.03
886.05	227.06
886.36	227.05
886.67	227.04
886.98	227.09
887.28	227.09
887.59	227.07
887.90	227.07
888.20	227.07
888.51	227.05
888.82	227.02
889.13	227.04
889.43	227.12
889.74	227.13
890.05	227.13
890.35	227.09
890.66	227.07
890.97	227.03
891.28	226.99
891.58	227.00
891.89	226.99
892.20	226.99
892.50	226.95
892.81	226.95
893.12	226.94
893.42	226.88
893.73	226.84
894.04	226.84
894.34	226.85
894.65	226.82
894.95	226.85
895.26	226.86
895.57	226.87
895.87	226.79
896.18	226.79
896.48	226.78
896.79	226.83
897.10	226.83
897.40	226.84
897.71	226.86
898.01	226.81
898.32	226.82
898.63	226.81
898.93	226.82
899.24	226.81
899.54	226.80
899.85	226.81
900.15	226.82
900.46	226.78
900.76	226.80
901.07	226.81
901.38	226.80
901.68	226.80
901.99	226.77
902.29	226.78
902.60	226.78
902.90	226.80
903.21	226.77
903.51	226.76
903.82	226.78
904.12	226.77
904.43	226.81
904.73	226.80
905.03	226.80
905.34	226.89
905.64	226.86
905.95	226.86
906.25	226.84
906.56	226.86
906.86	226.88
907.17	226.85
907.47	226.86
907.77	226.86
908.08	226.84
908.38	226.84
908.69	226.84
908.99	226.84
909.30	226.82
909.60	226.81
909.90	226.79
910.21	226.77
910.51	226.76
910.81	226.73
911.12	226.70
911.42	226.71
911.73	226.61
912.03	226.64
912.33	226.65
912.64	226.65
912.94	226.63
913.24	226.63
913.55	226.60
913.85	226.56
914.15	226.55
914.46	226.57
914.76	226.53
915.06	226.52
915.37	226.51
915.67	226.53
915.97	226.55
916.27	226.55
916.58	226.54
916.88	226.52
917.18	226.53
917.49	226.62
917.79	226.62
918.09	226.64
918.39	226.66
918.70	226.62
919.00	226.64
919.30	226.68
919.60	226.68
919.91	226.69
920.21	226.72
920.51	226.73
920.81	226.68
921.12	226.71
921.42	226.72
921.72	226.72
922.02	226.74
922.32	226.75
922.63	226.77
922.93	226.85
923.23	226.86
923.53	226.87
923.83	226.79
924.13	226.79
924.44	226.78
924.74	226.83
925.04	226.84
925.34	226.81
925.64	226.78
925.94	226.78
926.24	226.81
926.55	226.81
926.85	226.80
927.15	226.81
927.45	226.81
927.75	226.81
928.05	226.82
928.35	226.79
928.65	226.80
928.95	226.81
929.26	226.74
929.56	226.77
929.86	226.78
930.16	226.80
930.46	226.79
930.76	226.80
931.06	226.72
931.36	226.72
931.66	226.74
931.96	226.76
932.26	226.76
932.56	226.76
932.86	226.73
933.16	226.75
933.46	226.73
933.76	226.72
934.06	226.75
934.36	226.77
934.66	226.78
934.96	226.75
935.26	226.74
935.56	226.77
935.86	226.74
936.16	226.74
936.46	226.72
936.76	226.72
937.06	226.72
937.36	226.72
937.66	226.71
937.96	226.69
938.26	226.65
938.56	226.64
938.86	226.64
939.16	226.72
939.46	226.73
939.76	226.71
940.06	226.70
940.35	226.67
940.65	226.64
940.95	226.60
941.25	226.58
941.55	226.58
941.85	226.52
942.15	226.56
942.45	226.56
942.75	226.58
943.04	226.58
943.34	226.57
943.64	226.57
943.94	226.56
944.24	226.57
944.54	226.58
944.84	226.59
945.13	226.56
945.43	226.46
945.73	226.45
946.03	226.47
946.33	226.47
946.62	226.42
946.92	226.41
947.22	226.48
947.52	226.52
947.82	226.51
948.11	226.53
948.41	226.51
948.71	226.43
949.01	226.39
949.31	226.37
949.60	226.34
949.90	226.37
950.20	226.38
950.50	226.37
950.79	226.40
951.09	226.41
951.39	226.43
951.69	226.48
951.98	226.51
952.28	226.50
952.58	226.50
952.87	226.55
953.17	226.58
953.47	226.53
953.76	226.51
954.06	226.51
954.36	226.51
954.66	226.52
954.95	226.61
955.25	226.65
955.55	226.66
955.84	226.67
956.14	226.67
956.44	226.71
956.73	226.70
957.03	226.71
957.32	226.72
957.62	226.71
957.92	226.71
958.21	226.73
958.51	226.83
958.81	226.87
959.10	226.87
959.40	226.89
959.69	226.91
959.99	226.92
960.29	226.94
960.58	226.91
960.88	226.93
961.17	226.91
961.47	226.93
961.76	226.94
962.06	227.00
962.36	226.99
962.65	226.96
962.95	226.98
963.24	226.97
963.54	226.97
963.83	226.96
964.13	226.94
964.42	226.90
964.72	226.83
965.01	226.80
965.31	226.82
965.60	226.77
965.90	226.84
966.19	226.81
966.49	226.83
966.78	226.85
967.08	226.84
967.37	226.85
967.67	226.83
967.96	226.83
968.26	226.80
968.55	226.78
968.85	226.79
969.14	226.78
969.43	226.75
969.73	226.74
970.02	226.77
970.32	226.76
970.61	226.77
970.91	226.75
971.20	226.75
971.49	226.68
971.79	226.72
972.08	226.62
972.38	226.63
972.67	226.61
972.96	226.62
973.26	226.58
973.55	226.61
973.85	226.58
974.14	226.55
974.43	226.54
974.73	226.53
975.02	226.53
975.31	226.53
975.61	226.55
975.90	226.52
976.19	226.48
976.49	226.50
976.78	226.46
977.07	226.46
977.37	226.44
977.66	226.46
977.95	226.43
978.24	226.43
978.54	226.46
978.83	226.40
979.12	226.40
979.42	226.38
979.71	226.36
980.00	226.39
980.29	226.40
980.59	226.41
980.88	226.42
981.17	226.41
981.46	226.41
981.76	226.41
982.05	226.44
982.34	226.44
982.63	226.42
982.93	226.39
983.22	226.39
983.51	226.43
983.80	226.44
984.09	226.48
984.39	226.48
984.68	226.47
984.97	226.52
985.26	226.48
985.55	226.51
985.85	226.48
986.14	226.44
986.43	226.44
986.72	226.41
987.01	226.35
987.30	226.34
987.59	226.35
987.89	226.35
988.18	226.32
988.47	226.30
988.76	226.27
989.05	226.32
989.34	226.31
989.63	226.28
989.92	226.24
990.22	226.19
990.51	226.17
990.80	226.12
991.09	226.10
991.38	226.15
991.67	226.12
991.96	226.15
992.25	226.16
992.54	226.18
992.83	226.20
993.12	226.20
993.41	226.22
993.70	226.20
993.99	226.20
994.28	226.23
994.58	226.25
994.87	226.28
995.16	226.25
995.45	226.27
995.74	226.27
996.03	226.32
996.32	226.36
996.61	226.37
996.90	226.38
997.19	226.39
997.48	226.39
997.77	226.42
998.06	226.43
998.34	226.41
998.63	226.36
998.92	226.35
999.21	226.39
999.50	226.39
999.79	226.39
1000.08	226.40
1000.37	226.42
1000.66	226.42
1000.95	226.44
1001.24	226.46
1001.53	226.46
1001.82	226.48
1002.11	226.47
1002.40	226.47
1002.68	226.51
1002.97	226.62
1003.26	226.60
1003.55	226.58
1003.84	226.58
1004.13	226.58
1004.42	226.60
1004.71	226.62
1004.99	226.65
1005.28	226.66
1005.57	226.64
1005.86	226.64
1006.15	226.66
1006.44	226.62
1006.72	226.62
1007.01	226.60
1007.30	226.58
1007.59	226.59
1007.88	226.57
1008.17	226.58
1008.45	226.54
1008.74	226.52
1009.03	226.47
1009.32	226.49
1009.60	226.48
1009.89	226.46
1010.18	226.43
1010.47	226.43
1010.76	226.42
1011.04	226.37
1011.33	226.37
1011.62	226.40
1011.91	226.42
1012.19	226.39
1012.48	226.41
1012.77	226.43
1013.05	226.50
1013.34	226.52
1013.63	226.51
1013.92	226.48
1014.20	226.47
1014.49	226.49
1014.78	226.49
1015.06	226.47
1015.35	226.45
1015.64	226.45
1015.92	226.46
1016.21	226.47
1016.50	226.47
1016.78	226.49
1017.07	226.53
1017.36	226.51
1017.64	226.47
1017.93	226.50
1018.22	226.49
1018.50	226.49
1018.79	226.48
1019.08	226.40
1019.36	226.41
1019.65	226.41
1019.93	226.47
1020.22	226.48
1020.51	226.53
1020.79	226.50
1021.08	226.42
1021.36	226.81
1021.65	226.33
1021.94	226.04
1022.22	226.76
1022.51	226.34
1022.79	227.38
1023.08	226.49
1023.36	227.59
1023.65	226.12
>>>>>End Processed Spectral Data<<<<<
