SpectraSuite Data File
++++++++++++++++++++++++++++++++++++
Date: Fri Feb 01 15:47:33 EST 2013
User: group
Dark Spectrum Present: No
Reference Spectrum Present: No
Number of Sampled Component Spectra: 1
Spectrometers: USB2E7196
Integration Time (usec): 35000 (USB2E7196)
Spectra Averaged: 100 (USB2E7196)
Boxcar Smoothing: 10 (USB2E7196)
Correct for Electrical Dark: No (USB2E7196)
Strobe/Lamp Enabled: No (USB2E7196)
Correct for Detector Non-linearity: No (USB2E7196)
Correct for Stray Light: No (USB2E7196)
Number of Pixels in Processed Spectrum: 2048
>>>>>Begin Processed Spectral Data<<<<<
339.09	0.00
339.48	215.85
339.86	215.82
340.24	217.58
340.63	219.07
341.01	222.02
341.39	222.00
341.78	223.58
342.16	224.50
342.54	225.08
342.93	213.05
343.31	223.80
343.69	224.32
344.07	224.78
344.46	225.23
344.84	225.60
345.22	225.80
345.60	226.04
345.99	226.19
346.37	226.32
346.75	226.40
347.13	226.51
347.52	226.57
347.90	226.62
348.28	226.64
348.66	226.67
349.05	226.71
349.43	226.77
349.81	226.79
350.19	226.83
350.57	226.92
350.96	226.98
351.34	227.06
351.72	227.13
352.10	227.21
352.48	227.24
352.87	227.29
353.25	227.36
353.63	227.41
354.01	227.47
354.39	227.53
354.77	227.61
355.15	227.72
355.54	227.76
355.92	227.81
356.30	227.88
356.68	228.01
357.06	228.07
357.44	228.10
357.82	228.17
358.20	228.25
358.58	228.32
358.97	228.40
359.35	228.49
359.73	228.57
360.11	228.65
360.49	228.72
360.87	228.77
361.25	228.86
361.63	228.92
362.01	228.98
362.39	229.00
362.77	229.01
363.15	229.02
363.53	229.11
363.91	229.14
364.29	229.21
364.67	229.14
365.05	229.16
365.43	229.20
365.81	229.23
366.19	229.30
366.57	229.35
366.95	229.31
367.33	229.29
367.71	229.28
368.09	229.24
368.47	229.20
368.85	229.19
369.23	229.18
369.61	229.14
369.99	229.14
370.37	229.13
370.75	229.18
371.13	229.15
371.51	229.08
371.89	229.04
372.27	228.98
372.65	228.94
373.03	228.90
373.41	228.87
373.78	228.84
374.16	228.73
374.54	228.63
374.92	228.56
375.30	228.51
375.68	228.39
376.06	228.38
376.44	228.34
376.82	228.26
377.19	228.18
377.57	228.14
377.95	228.03
378.33	227.95
378.71	227.80
379.09	227.77
379.47	227.74
379.84	227.66
380.22	227.59
380.60	227.49
380.98	227.39
381.36	227.31
381.73	227.21
382.11	227.15
382.49	227.08
382.87	227.06
383.25	226.99
383.62	227.07
384.00	226.96
384.38	226.92
384.76	226.87
385.13	226.85
385.51	226.78
385.89	226.71
386.27	226.64
386.64	226.63
387.02	226.58
387.40	226.50
387.78	226.48
388.15	226.46
388.53	226.42
388.91	226.40
389.29	226.39
389.66	226.36
390.04	226.30
390.42	226.32
390.79	226.27
391.17	226.24
391.55	226.11
391.92	226.12
392.30	226.13
392.68	226.15
393.05	226.15
393.43	226.17
393.81	226.20
394.18	226.19
394.56	226.20
394.94	226.23
395.31	226.25
395.69	226.29
396.06	226.28
396.44	226.32
396.82	226.38
397.19	226.43
397.57	226.49
397.95	226.57
398.32	226.55
398.70	226.61
399.07	226.70
399.45	226.74
399.82	226.81
400.20	226.83
400.58	226.85
400.95	226.89
401.33	226.97
401.70	227.12
402.08	227.23
402.45	227.32
402.83	227.45
403.20	227.59
403.58	227.69
403.95	227.85
404.33	228.02
404.71	228.12
405.08	228.30
405.46	228.39
405.83	228.59
406.21	228.76
406.58	228.92
406.96	229.10
407.33	229.30
407.70	229.50
408.08	229.80
408.45	230.05
408.83	230.27
409.20	230.49
409.58	230.67
409.95	230.98
410.33	231.26
410.70	231.48
411.08	231.77
411.45	232.07
411.82	232.33
412.20	232.68
412.57	233.11
412.95	233.43
413.32	233.91
413.69	234.28
414.07	234.74
414.44	235.22
414.82	235.72
415.19	236.26
415.56	236.84
415.94	237.38
416.31	238.06
416.68	238.68
417.06	239.41
417.43	240.10
417.81	240.88
418.18	241.62
418.55	242.48
418.93	243.35
419.30	244.26
419.67	245.27
420.04	246.23
420.42	247.22
420.79	248.39
421.16	249.51
421.54	250.72
421.91	251.90
422.28	253.14
422.66	254.48
423.03	255.80
423.40	257.11
423.77	258.51
424.15	259.92
424.52	261.46
424.89	263.09
425.26	264.64
425.64	266.07
426.01	267.68
426.38	269.30
426.75	270.99
427.13	272.69
427.50	274.46
427.87	276.32
428.24	278.21
428.61	279.94
428.99	281.88
429.36	283.98
429.73	286.08
430.10	288.09
430.47	290.11
430.85	292.25
431.22	294.51
431.59	296.90
431.96	299.11
432.33	301.62
432.70	303.97
433.08	306.77
433.45	309.42
433.82	312.03
434.19	314.91
434.56	317.69
434.93	320.37
435.30	322.99
435.68	325.86
436.05	328.66
436.42	331.43
436.79	333.93
437.16	336.65
437.53	339.47
437.90	342.30
438.27	345.04
438.64	347.86
439.01	350.41
439.38	352.62
439.75	354.80
440.13	357.26
440.50	359.59
440.87	361.44
441.24	363.32
441.61	365.49
441.98	367.00
442.35	368.78
442.72	370.61
443.09	372.41
443.46	373.43
443.83	374.01
444.20	374.53
444.57	375.36
444.94	375.60
445.31	375.91
445.68	376.26
446.05	376.36
446.42	375.92
446.79	375.55
447.16	375.14
447.53	374.86
447.90	373.67
448.27	372.50
448.64	370.92
449.01	369.82
449.37	367.85
449.74	365.98
450.11	363.77
450.48	361.29
450.85	358.78
451.22	356.61
451.59	354.59
451.96	352.67
452.33	350.09
452.70	347.75
453.07	344.94
453.43	342.03
453.80	339.28
454.17	336.60
454.54	334.01
454.91	331.27
455.28	328.60
455.65	326.14
456.02	323.70
456.38	321.55
456.75	318.92
457.12	316.67
457.49	314.43
457.86	312.25
458.23	310.42
458.59	308.37
458.96	306.30
459.33	304.46
459.70	302.61
460.07	301.11
460.43	299.42
460.80	297.82
461.17	296.41
461.54	294.90
461.91	293.51
462.27	292.08
462.64	290.83
463.01	289.48
463.38	288.18
463.74	286.84
464.11	285.68
464.48	284.65
464.85	283.58
465.21	282.74
465.58	281.83
465.95	280.74
466.32	279.84
466.68	278.99
467.05	278.10
467.42	277.22
467.78	276.28
468.15	275.39
468.52	274.75
468.88	273.93
469.25	273.17
469.62	272.54
469.98	271.87
470.35	271.26
470.72	270.62
471.08	269.95
471.45	269.40
471.82	268.88
472.18	268.24
472.55	267.75
472.92	267.17
473.28	266.73
473.65	266.28
474.02	265.83
474.38	265.43
474.75	265.13
475.11	264.77
475.48	264.48
475.85	264.26
476.21	263.96
476.58	263.71
476.94	263.54
477.31	263.37
477.67	263.23
478.04	263.12
478.41	263.06
478.77	263.13
479.14	263.04
479.50	263.01
479.87	263.12
480.23	263.21
480.60	263.28
480.96	263.33
481.33	263.49
481.69	263.69
482.06	263.86
482.42	264.03
482.79	264.27
483.15	264.60
483.52	264.96
483.88	265.29
484.25	265.70
484.61	266.14
484.98	266.60
485.34	267.14
485.71	267.69
486.07	268.29
486.44	268.83
486.80	269.52
487.17	270.26
487.53	271.06
487.90	271.90
488.26	272.83
488.62	273.83
488.99	274.81
489.35	275.86
489.72	276.98
490.08	278.20
490.44	279.43
490.81	280.76
491.17	282.13
491.54	283.64
491.90	285.17
492.26	286.78
492.63	288.51
492.99	290.26
493.36	292.18
493.72	294.24
494.08	296.33
494.45	298.56
494.81	300.92
495.17	303.35
495.54	305.94
495.90	308.60
496.26	311.35
496.63	314.33
496.99	317.40
497.35	320.63
497.72	324.04
498.08	327.57
498.44	331.27
498.80	335.19
499.17	339.22
499.53	343.42
499.89	347.78
500.26	352.24
500.62	356.94
500.98	361.94
501.34	366.99
501.71	372.27
502.07	377.73
502.43	383.33
502.79	389.15
503.16	395.24
503.52	401.60
503.88	408.08
504.24	414.76
504.60	421.68
504.97	428.87
505.33	436.18
505.69	443.86
506.05	451.63
506.41	459.49
506.78	467.66
507.14	476.08
507.50	484.83
507.86	493.90
508.22	503.11
508.59	512.29
508.95	521.89
509.31	531.76
509.67	541.87
510.03	552.20
510.39	562.76
510.75	573.58
511.12	584.40
511.48	595.66
511.84	607.06
512.20	618.62
512.56	630.57
512.92	642.77
513.28	655.15
513.64	667.64
514.00	680.35
514.37	693.28
514.73	706.36
515.09	719.39
515.45	732.65
515.81	746.23
516.17	760.30
516.53	774.44
516.89	788.58
517.25	802.77
517.61	817.19
517.97	831.69
518.33	846.06
518.69	860.88
519.05	875.92
519.41	891.21
519.77	906.68
520.13	922.18
520.49	937.58
520.85	953.07
521.21	968.80
521.57	985.07
521.93	1000.83
522.29	1017.20
522.65	1033.44
523.01	1049.76
523.37	1065.81
523.73	1081.94
524.09	1097.97
524.45	1114.29
524.81	1130.91
525.17	1147.64
525.53	1164.41
525.89	1181.38
526.25	1198.19
526.61	1214.58
526.97	1231.21
527.33	1247.75
527.68	1264.23
528.04	1280.63
528.40	1297.18
528.76	1314.20
529.12	1330.83
529.48	1347.79
529.84	1363.83
530.20	1380.58
530.56	1397.47
530.91	1414.78
531.27	1431.55
531.63	1448.08
531.99	1464.68
532.35	1480.61
532.71	1496.53
533.07	1512.85
533.42	1528.69
533.78	1544.84
534.14	1561.07
534.50	1576.34
534.86	1592.21
535.21	1607.41
535.57	1623.27
535.93	1638.73
536.29	1653.50
536.65	1668.50
537.00	1683.22
537.36	1698.58
537.72	1712.97
538.08	1727.44
538.44	1741.36
538.79	1755.21
539.15	1768.86
539.51	1782.47
539.87	1796.86
540.22	1810.69
540.58	1824.47
540.94	1837.88
541.29	1850.59
541.65	1863.37
542.01	1876.74
542.37	1888.94
542.72	1901.39
543.08	1913.22
543.44	1925.73
543.79	1937.08
544.15	1948.07
544.51	1959.58
544.87	1970.54
545.22	1981.36
545.58	1991.49
545.94	2001.34
546.29	2011.28
546.65	2021.16
547.01	2030.58
547.36	2039.30
547.72	2047.73
548.07	2055.56
548.43	2063.66
548.79	2071.87
549.14	2079.37
549.50	2086.66
549.86	2094.44
550.21	2101.80
550.57	2109.11
550.92	2115.62
551.28	2122.61
551.64	2129.76
551.99	2136.24
552.35	2142.41
552.70	2148.54
553.06	2154.58
553.41	2160.82
553.77	2166.81
554.13	2172.90
554.48	2179.07
554.84	2184.42
555.19	2189.71
555.55	2194.87
555.90	2199.35
556.26	2204.05
556.61	2208.78
556.97	2213.04
557.32	2217.15
557.68	2221.27
558.03	2225.55
558.39	2229.31
558.74	2234.00
559.10	2237.80
559.45	2241.54
559.81	2245.79
560.16	2249.58
560.52	2252.88
560.87	2256.25
561.23	2258.85
561.58	2261.82
561.94	2264.33
562.29	2266.86
562.64	2269.56
563.00	2272.29
563.35	2275.92
563.71	2279.18
564.06	2282.31
564.42	2285.13
564.77	2287.56
565.12	2289.79
565.48	2291.54
565.83	2293.41
566.19	2294.48
566.54	2295.40
566.89	2296.62
567.25	2297.22
567.60	2298.55
567.96	2300.27
568.31	2301.10
568.66	2302.36
569.02	2302.77
569.37	2302.96
569.72	2303.69
570.08	2303.84
570.43	2303.69
570.78	2302.92
571.14	2301.41
571.49	2300.09
571.84	2299.77
572.20	2298.76
572.55	2297.71
572.90	2296.16
573.26	2294.82
573.61	2293.26
573.96	2291.46
574.31	2288.42
574.67	2285.32
575.02	2281.76
575.37	2278.31
575.72	2274.56
576.08	2271.06
576.43	2267.79
576.78	2264.18
577.13	2261.15
577.49	2258.00
577.84	2254.45
578.19	2250.77
578.54	2247.00
578.90	2242.79
579.25	2237.22
579.60	2232.11
579.95	2227.08
580.30	2222.08
580.66	2216.65
581.01	2211.80
581.36	2206.88
581.71	2202.59
582.06	2198.16
582.42	2193.68
582.77	2188.38
583.12	2183.75
583.47	2179.02
583.82	2174.00
584.17	2168.82
584.53	2163.31
584.88	2157.70
585.23	2152.05
585.58	2146.56
585.93	2141.26
586.28	2136.45
586.63	2131.34
586.98	2126.29
587.34	2121.54
587.69	2116.64
588.04	2111.50
588.39	2105.71
588.74	2099.20
589.09	2093.15
589.44	2086.44
589.79	2080.41
590.14	2074.82
590.49	2068.28
590.84	2061.92
591.19	2055.85
591.54	2049.18
591.89	2041.65
592.25	2034.80
592.60	2027.55
592.95	2019.90
593.30	2012.39
593.65	2004.66
594.00	1997.68
594.35	1990.46
594.70	1982.46
595.05	1975.21
595.40	1967.93
595.75	1960.48
596.10	1954.36
596.45	1947.44
596.80	1941.13
597.15	1934.41
597.50	1927.17
597.85	1920.77
598.19	1914.04
598.54	1906.91
598.89	1900.38
599.24	1894.56
599.59	1887.72
599.94	1881.52
600.29	1875.08
600.64	1868.53
600.99	1861.19
601.34	1854.29
601.69	1847.36
602.04	1840.48
602.39	1833.23
602.74	1826.27
603.08	1819.46
603.43	1812.56
603.78	1805.31
604.13	1798.17
604.48	1790.76
604.83	1784.05
605.18	1776.88
605.53	1768.93
605.87	1760.93
606.22	1753.69
606.57	1745.73
606.92	1738.59
607.27	1731.28
607.62	1724.46
607.96	1717.17
608.31	1710.48
608.66	1702.89
609.01	1695.33
609.36	1687.73
609.70	1679.53
610.05	1671.50
610.40	1663.71
610.75	1655.41
611.10	1647.90
611.44	1639.45
611.79	1631.57
612.14	1622.77
612.49	1613.74
612.83	1605.34
613.18	1597.36
613.53	1589.08
613.88	1580.50
614.22	1572.16
614.57	1563.63
614.92	1555.49
615.27	1547.82
615.61	1539.60
615.96	1531.61
616.31	1523.97
616.65	1516.66
617.00	1509.18
617.35	1501.56
617.70	1493.31
618.04	1484.78
618.39	1476.42
618.74	1468.82
619.08	1460.61
619.43	1453.20
619.78	1446.30
620.12	1438.98
620.47	1431.36
620.82	1423.26
621.16	1415.85
621.51	1408.31
621.85	1400.70
622.20	1392.22
622.55	1383.96
622.89	1376.02
623.24	1368.34
623.59	1360.99
623.93	1353.32
624.28	1346.07
624.62	1338.61
624.97	1331.37
625.32	1324.67
625.66	1317.71
626.01	1310.54
626.35	1302.95
626.70	1295.11
627.04	1287.36
627.39	1279.69
627.73	1272.24
628.08	1265.36
628.43	1258.04
628.77	1250.59
629.12	1243.06
629.46	1235.88
629.81	1228.52
630.15	1221.32
630.50	1213.88
630.84	1205.62
631.19	1197.85
631.53	1190.39
631.88	1182.75
632.22	1175.15
632.57	1167.81
632.91	1160.18
633.26	1152.73
633.60	1145.36
633.95	1138.27
634.29	1131.20
634.64	1124.52
634.98	1117.22
635.32	1110.02
635.67	1103.45
636.01	1096.83
636.36	1090.00
636.70	1083.48
637.05	1076.89
637.39	1070.42
637.73	1063.88
638.08	1058.00
638.42	1051.99
638.77	1045.49
639.11	1038.86
639.45	1032.54
639.80	1025.84
640.14	1019.45
640.49	1012.91
640.83	1006.69
641.17	1000.37
641.52	994.02
641.86	987.69
642.20	981.73
642.55	975.51
642.89	968.90
643.23	962.33
643.58	956.53
643.92	950.37
644.26	944.23
644.61	938.17
644.95	932.17
645.29	925.54
645.64	918.71
645.98	912.38
646.32	906.63
646.66	900.56
647.01	894.78
647.35	889.11
647.69	883.33
648.04	877.69
648.38	872.00
648.72	866.00
649.06	859.85
649.41	854.06
649.75	848.03
650.09	842.21
650.43	836.38
650.78	830.26
651.12	824.35
651.46	818.65
651.80	812.90
652.14	807.54
652.49	802.17
652.83	797.05
653.17	791.35
653.51	785.61
653.85	780.21
654.20	774.60
654.54	768.54
654.88	762.77
655.22	756.93
655.56	751.21
655.90	745.77
656.25	740.52
656.59	735.13
656.93	730.08
657.27	724.93
657.61	719.56
657.95	714.45
658.29	709.38
658.64	704.15
658.98	698.93
659.32	693.43
659.66	688.21
660.00	682.85
660.34	677.90
660.68	672.99
661.02	667.95
661.36	663.23
661.70	658.79
662.05	654.41
662.39	650.11
662.73	645.67
663.07	641.27
663.41	636.83
663.75	632.37
664.09	627.79
664.43	623.41
664.77	619.31
665.11	615.09
665.45	610.96
665.79	606.94
666.13	602.79
666.47	598.72
666.81	594.66
667.15	590.60
667.49	586.74
667.83	582.91
668.17	579.00
668.51	574.92
668.85	570.88
669.19	567.05
669.53	563.21
669.87	559.32
670.21	555.64
670.55	551.97
670.89	548.55
671.23	545.18
671.57	541.66
671.91	538.12
672.25	534.61
672.58	531.07
672.92	527.58
673.26	524.35
673.60	521.21
673.94	518.05
674.28	515.09
674.62	512.15
674.96	509.02
675.30	506.13
675.64	503.19
675.97	500.42
676.31	497.57
676.65	494.64
676.99	491.92
677.33	489.09
677.67	486.29
678.01	483.25
678.34	480.26
678.68	477.41
679.02	474.59
679.36	471.84
679.70	469.11
680.04	466.38
680.37	463.52
680.71	460.74
681.05	458.11
681.39	455.38
681.73	452.74
682.06	450.18
682.40	447.52
682.74	445.03
683.08	442.47
683.42	439.94
683.75	437.40
684.09	434.87
684.43	432.36
684.77	429.93
685.10	427.60
685.44	425.26
685.78	422.90
686.12	420.67
686.45	418.37
686.79	416.06
687.13	413.87
687.46	411.74
687.80	409.61
688.14	407.39
688.48	405.36
688.81	403.07
689.15	401.00
689.49	398.92
689.82	396.80
690.16	394.76
690.50	392.74
690.83	390.86
691.17	388.87
691.51	386.96
691.84	385.06
692.18	383.13
692.52	381.18
692.85	379.27
693.19	377.37
693.52	375.56
693.86	373.74
694.20	371.96
694.53	370.14
694.87	368.23
695.21	366.50
695.54	364.69
695.88	363.01
696.21	361.28
696.55	359.60
696.88	357.98
697.22	356.29
697.56	354.65
697.89	352.99
698.23	351.38
698.56	349.80
698.90	348.23
699.23	346.55
699.57	345.03
699.90	343.50
700.24	341.93
700.58	340.35
700.91	338.92
701.25	337.43
701.58	336.10
701.92	334.77
702.25	333.35
702.59	331.98
702.92	330.58
703.26	329.23
703.59	327.92
703.93	326.70
704.26	325.47
704.60	324.24
704.93	322.94
705.26	321.71
705.60	320.52
705.93	319.33
706.27	318.31
706.60	317.25
706.94	316.17
707.27	315.03
707.61	314.02
707.94	312.95
708.27	311.89
708.61	310.79
708.94	309.81
709.28	308.84
709.61	307.87
709.94	306.98
710.28	305.95
710.61	305.00
710.95	303.92
711.28	302.98
711.61	301.98
711.95	301.09
712.28	300.10
712.61	299.13
712.95	298.19
713.28	297.34
713.61	296.40
713.95	295.48
714.28	294.66
714.61	293.79
714.95	292.95
715.28	292.09
715.61	291.21
715.95	290.36
716.28	289.47
716.61	288.65
716.95	287.81
717.28	287.04
717.61	286.28
717.94	285.53
718.28	284.72
718.61	283.99
718.94	283.27
719.27	282.63
719.61	282.00
719.94	281.34
720.27	280.61
720.60	279.94
720.94	279.37
721.27	278.74
721.60	278.12
721.93	277.54
722.27	276.99
722.60	276.46
722.93	275.85
723.26	275.34
723.59	274.80
723.93	274.23
724.26	273.71
724.59	273.14
724.92	272.62
725.25	272.12
725.59	271.59
725.92	271.08
726.25	270.55
726.58	270.03
726.91	269.55
727.24	269.03
727.57	268.54
727.91	268.03
728.24	267.57
728.57	267.10
728.90	266.62
729.23	266.12
729.56	265.67
729.89	265.21
730.22	264.72
730.55	264.28
730.89	263.87
731.22	263.41
731.55	262.97
731.88	262.57
732.21	262.13
732.54	261.72
732.87	261.30
733.20	260.94
733.53	260.54
733.86	260.16
734.19	259.76
734.52	259.39
734.85	259.06
735.18	258.64
735.51	258.26
735.84	257.91
736.17	257.55
736.50	257.15
736.83	256.88
737.16	256.53
737.49	256.19
737.82	255.82
738.15	255.47
738.48	255.16
738.81	254.81
739.14	254.52
739.47	254.17
739.80	253.84
740.13	253.54
740.46	253.23
740.79	252.90
741.12	252.62
741.45	252.31
741.78	251.96
742.11	251.69
742.44	251.38
742.77	251.08
743.10	250.79
743.43	250.51
743.75	250.13
744.08	250.03
744.41	249.78
744.74	249.51
745.07	249.28
745.40	249.01
745.73	248.84
746.06	248.55
746.39	248.33
746.71	248.08
747.04	247.82
747.37	247.54
747.70	247.29
748.03	247.07
748.36	246.85
748.68	246.61
749.01	246.36
749.34	246.17
749.67	245.93
750.00	245.69
750.33	245.51
750.65	245.30
750.98	244.93
751.31	244.67
751.64	244.45
751.97	244.27
752.29	244.06
752.62	243.74
752.95	243.55
753.28	243.34
753.60	243.17
753.93	242.96
754.26	242.78
754.59	242.55
754.91	242.32
755.24	242.11
755.57	241.92
755.90	241.76
756.22	241.54
756.55	241.35
756.88	241.19
757.20	240.94
757.53	240.75
757.86	240.59
758.19	240.45
758.51	240.24
758.84	239.99
759.17	239.82
759.49	239.66
759.82	239.50
760.15	239.32
760.47	239.13
760.80	238.97
761.13	238.82
761.45	238.66
761.78	238.47
762.11	238.31
762.43	238.15
762.76	238.02
763.08	237.90
763.41	237.80
763.74	237.67
764.06	237.54
764.39	237.37
764.71	237.24
765.04	237.07
765.37	236.97
765.69	236.87
766.02	236.71
766.34	236.62
766.67	236.48
767.00	236.36
767.32	236.29
767.65	236.22
767.97	236.11
768.30	236.02
768.62	235.92
768.95	235.80
769.27	235.71
769.60	235.61
769.92	235.50
770.25	235.35
770.57	235.21
770.90	235.13
771.22	235.06
771.55	234.98
771.87	234.89
772.20	234.79
772.52	234.77
772.85	234.81
773.17	234.73
773.50	234.64
773.82	234.54
774.15	234.41
774.47	234.27
774.80	234.17
775.12	234.06
775.45	233.99
775.77	233.92
776.09	233.80
776.42	233.71
776.74	233.63
777.07	233.55
777.39	233.51
777.72	233.41
778.04	233.33
778.36	233.23
778.69	233.16
779.01	233.11
779.33	232.98
779.66	232.82
779.98	232.74
780.31	232.69
780.63	232.69
780.95	232.66
781.28	232.60
781.60	232.55
781.92	232.50
782.25	232.45
782.57	232.38
782.89	232.34
783.22	232.29
783.54	232.23
783.86	232.21
784.19	232.10
784.51	232.08
784.83	232.04
785.16	231.99
785.48	231.94
785.80	231.86
786.12	231.80
786.45	231.78
786.77	231.74
787.09	231.69
787.42	231.61
787.74	231.56
788.06	231.52
788.38	231.48
788.71	231.43
789.03	231.42
789.35	231.44
789.67	231.40
789.99	231.34
790.32	231.30
790.64	231.24
790.96	231.32
791.28	231.24
791.61	231.20
791.93	231.17
792.25	231.15
792.57	231.20
792.89	231.16
793.21	231.10
793.54	231.05
793.86	231.01
794.18	230.97
794.50	230.91
794.82	230.85
795.14	230.85
795.47	230.83
795.79	230.78
796.11	230.71
796.43	230.68
796.75	230.67
797.07	230.66
797.39	230.63
797.71	230.48
798.04	230.48
798.36	230.44
798.68	230.38
799.00	230.37
799.32	230.30
799.64	230.28
799.96	230.23
800.28	230.22
800.60	230.17
800.92	230.13
801.24	230.09
801.56	230.06
801.89	230.00
802.21	229.96
802.53	229.92
802.85	229.89
803.17	229.89
803.49	229.84
803.81	229.76
804.13	229.71
804.45	229.70
804.77	229.66
805.09	229.62
805.41	229.59
805.73	229.51
806.05	229.46
806.37	229.42
806.69	229.41
807.01	229.36
807.33	229.36
807.65	229.32
807.97	229.36
808.28	229.34
808.60	229.31
808.92	229.29
809.24	229.31
809.56	229.26
809.88	229.20
810.20	229.17
810.52	229.17
810.84	229.12
811.16	229.07
811.48	229.02
811.80	229.04
812.12	229.02
812.43	229.00
812.75	228.99
813.07	228.93
813.39	228.90
813.71	228.87
814.03	228.80
814.35	228.75
814.67	228.67
814.98	228.63
815.30	228.63
815.62	228.59
815.94	228.51
816.26	228.52
816.58	228.49
816.89	228.47
817.21	228.42
817.53	228.43
817.85	228.44
818.17	228.42
818.48	228.39
818.80	228.41
819.12	228.41
819.44	228.39
819.76	228.39
820.07	228.34
820.39	228.31
820.71	228.33
821.03	228.34
821.34	228.30
821.66	228.29
821.98	228.25
822.30	228.23
822.61	228.27
822.93	228.23
823.25	228.20
823.57	228.18
823.88	228.20
824.20	228.18
824.52	228.17
824.83	228.20
825.15	228.14
825.47	228.09
825.79	228.10
826.10	228.03
826.42	228.03
826.74	228.09
827.05	228.08
827.37	228.09
827.69	228.08
828.00	228.10
828.32	228.12
828.64	228.08
828.95	228.14
829.27	228.12
829.58	228.07
829.90	228.11
830.22	228.12
830.53	228.08
830.85	228.08
831.17	228.05
831.48	228.06
831.80	228.09
832.11	228.09
832.43	228.06
832.75	228.11
833.06	228.17
833.38	228.13
833.69	228.16
834.01	228.15
834.32	228.17
834.64	228.13
834.96	228.13
835.27	228.16
835.59	228.11
835.90	228.10
836.22	228.12
836.53	228.09
836.85	228.07
837.16	228.19
837.48	228.16
837.79	228.20
838.11	228.18
838.42	228.22
838.74	228.23
839.05	228.22
839.37	228.22
839.68	228.14
840.00	228.14
840.31	228.13
840.63	228.13
840.94	228.11
841.26	228.11
841.57	228.14
841.88	228.11
842.20	228.10
842.51	228.08
842.83	228.08
843.14	228.18
843.46	228.23
843.77	228.15
844.08	228.14
844.40	228.10
844.71	228.08
845.03	228.01
845.34	227.99
845.65	227.96
845.97	227.94
846.28	227.92
846.60	227.89
846.91	227.85
847.22	227.81
847.54	227.80
847.85	227.81
848.16	227.77
848.48	227.76
848.79	227.79
849.10	227.82
849.42	227.82
849.73	227.71
850.04	227.68
850.36	227.66
850.67	227.66
850.98	227.66
851.30	227.64
851.61	227.64
851.92	227.62
852.23	227.65
852.55	227.65
852.86	227.62
853.17	227.64
853.49	227.67
853.80	227.70
854.11	227.73
854.42	227.72
854.74	227.69
855.05	227.65
855.36	227.58
855.67	227.53
855.99	227.51
856.30	227.65
856.61	227.62
856.92	227.58
857.23	227.58
857.55	227.59
857.86	227.57
858.17	227.59
858.48	227.56
858.79	227.52
859.11	227.52
859.42	227.53
859.73	227.49
860.04	227.46
860.35	227.42
860.66	227.35
860.98	227.37
861.29	227.37
861.60	227.37
861.91	227.36
862.22	227.32
862.53	227.30
862.84	227.13
863.16	227.17
863.47	227.15
863.78	227.15
864.09	227.10
864.40	227.10
864.71	227.06
865.02	227.09
865.33	227.05
865.64	227.02
865.95	227.01
866.27	227.07
866.58	227.06
866.89	227.07
867.20	227.07
867.51	227.02
867.82	227.00
868.13	227.03
868.44	227.03
868.75	227.07
869.06	227.07
869.37	227.07
869.68	227.02
869.99	227.03
870.30	227.03
870.61	227.05
870.92	227.03
871.23	227.03
871.54	227.03
871.85	227.08
872.16	227.13
872.47	227.12
872.78	227.07
873.09	227.09
873.40	227.05
873.71	227.06
874.02	227.12
874.33	227.10
874.64	227.09
874.95	227.11
875.26	227.08
875.56	227.10
875.87	227.11
876.18	227.11
876.49	227.22
876.80	227.21
877.11	227.20
877.42	227.21
877.73	227.23
878.04	227.22
878.35	227.20
878.66	227.19
878.96	227.18
879.27	227.17
879.58	227.13
879.89	227.15
880.20	227.19
880.51	227.19
880.82	227.25
881.12	227.25
881.43	227.25
881.74	227.25
882.05	227.22
882.36	227.21
882.67	227.22
882.97	227.13
883.28	227.13
883.59	227.14
883.90	227.14
884.21	227.13
884.51	227.13
884.82	227.12
885.13	227.11
885.44	227.12
885.74	227.15
886.05	227.17
886.36	227.17
886.67	227.11
886.98	227.13
887.28	227.11
887.59	227.11
887.90	227.10
888.20	227.09
888.51	227.16
888.82	227.15
889.13	227.13
889.43	227.18
889.74	227.18
890.05	227.17
890.35	227.17
890.66	227.17
890.97	227.19
891.28	227.19
891.58	227.21
891.89	227.17
892.20	227.13
892.50	227.12
892.81	227.11
893.12	227.09
893.42	227.01
893.73	227.04
894.04	227.01
894.34	227.04
894.65	227.00
894.95	226.95
895.26	226.95
895.57	227.01
895.87	226.90
896.18	226.92
896.48	226.96
896.79	226.97
897.10	226.98
897.40	226.96
897.71	226.95
898.01	226.94
898.32	226.99
898.63	227.02
898.93	227.02
899.24	227.03
899.54	227.05
899.85	227.07
900.15	227.05
900.46	227.08
900.76	227.05
901.07	227.06
901.38	227.11
901.68	227.13
901.99	227.09
902.29	227.13
902.60	227.09
902.90	227.03
903.21	227.02
903.51	227.03
903.82	227.06
904.12	227.06
904.43	227.04
904.73	227.03
905.03	227.03
905.34	227.12
905.64	227.11
905.95	227.09
906.25	227.10
906.56	227.08
906.86	227.05
907.17	227.06
907.47	227.08
907.77	227.04
908.08	227.04
908.38	227.03
908.69	227.02
908.99	227.10
909.30	227.13
909.60	227.14
909.90	227.12
910.21	227.10
910.51	227.09
910.81	227.09
911.12	227.11
911.42	227.09
911.73	227.00
912.03	227.00
912.33	227.04
912.64	227.01
912.94	227.04
913.24	227.03
913.55	227.03
913.85	227.03
914.15	227.04
914.46	227.04
914.76	227.03
915.06	227.06
915.37	226.99
915.67	226.97
915.97	226.96
916.27	226.95
916.58	226.95
916.88	226.99
917.18	227.00
917.49	227.08
917.79	227.09
918.09	227.13
918.39	227.18
918.70	227.19
919.00	227.22
919.30	227.25
919.60	227.29
919.91	227.29
920.21	227.31
920.51	227.31
920.81	227.32
921.12	227.34
921.42	227.31
921.72	227.32
922.02	227.34
922.32	227.35
922.63	227.37
922.93	227.40
923.23	227.38
923.53	227.37
923.83	227.30
924.13	227.30
924.44	227.28
924.74	227.29
925.04	227.26
925.34	227.26
925.64	227.23
925.94	227.19
926.24	227.21
926.55	227.19
926.85	227.18
927.15	227.18
927.45	227.18
927.75	227.19
928.05	227.17
928.35	227.18
928.65	227.20
928.95	227.18
929.26	227.15
929.56	227.14
929.86	227.17
930.16	227.11
930.46	227.06
930.76	227.07
931.06	226.97
931.36	226.94
931.66	226.95
931.96	226.94
932.26	226.92
932.56	226.89
932.86	226.89
933.16	226.88
933.46	226.87
933.76	226.85
934.06	226.88
934.36	226.92
934.66	226.87
934.96	226.87
935.26	226.88
935.56	226.89
935.86	226.89
936.16	226.82
936.46	226.84
936.76	226.86
937.06	226.82
937.36	226.84
937.66	226.83
937.96	226.82
938.26	226.80
938.56	226.82
938.86	226.83
939.16	226.84
939.46	226.86
939.76	226.86
940.06	226.85
940.35	226.84
940.65	226.78
940.95	226.81
941.25	226.76
941.55	226.75
941.85	226.73
942.15	226.74
942.45	226.79
942.75	226.79
943.04	226.81
943.34	226.84
943.64	226.86
943.94	226.89
944.24	226.89
944.54	226.92
944.84	226.91
945.13	226.88
945.43	226.87
945.73	226.87
946.03	226.87
946.33	226.88
946.62	226.86
946.92	226.86
947.22	226.87
947.52	226.89
947.82	226.90
948.11	226.93
948.41	226.92
948.71	226.92
949.01	226.95
949.31	226.92
949.60	226.95
949.90	226.97
950.20	227.00
950.50	227.02
950.79	226.98
951.09	227.00
951.39	227.01
951.69	227.01
951.98	227.01
952.28	227.03
952.58	227.02
952.87	227.05
953.17	227.08
953.47	227.07
953.76	227.08
954.06	227.08
954.36	227.07
954.66	227.09
954.95	227.13
955.25	227.11
955.55	227.16
955.84	227.13
956.14	227.13
956.44	227.08
956.73	227.05
957.03	227.08
957.32	227.09
957.62	227.10
957.92	227.12
958.21	227.13
958.51	227.22
958.81	227.24
959.10	227.24
959.40	227.26
959.69	227.26
959.99	227.29
960.29	227.28
960.58	227.24
960.88	227.25
961.17	227.17
961.47	227.20
961.76	227.16
962.06	227.18
962.36	227.16
962.65	227.21
962.95	227.22
963.24	227.21
963.54	227.17
963.83	227.19
964.13	227.19
964.42	227.12
964.72	227.01
965.01	226.99
965.31	226.98
965.60	226.94
965.90	226.98
966.19	226.91
966.49	226.91
966.78	226.93
967.08	226.90
967.37	226.95
967.67	226.91
967.96	226.88
968.26	226.86
968.55	226.86
968.85	226.79
969.14	226.76
969.43	226.73
969.73	226.73
970.02	226.71
970.32	226.68
970.61	226.67
970.91	226.67
971.20	226.64
971.49	226.62
971.79	226.60
972.08	226.56
972.38	226.59
972.67	226.55
972.96	226.54
973.26	226.51
973.55	226.50
973.85	226.48
974.14	226.48
974.43	226.46
974.73	226.44
975.02	226.43
975.31	226.44
975.61	226.45
975.90	226.43
976.19	226.40
976.49	226.41
976.78	226.44
977.07	226.42
977.37	226.45
977.66	226.44
977.95	226.46
978.24	226.46
978.54	226.46
978.83	226.44
979.12	226.46
979.42	226.45
979.71	226.45
980.00	226.48
980.29	226.50
980.59	226.48
980.88	226.54
981.17	226.56
981.46	226.56
981.76	226.56
982.05	226.60
982.34	226.60
982.63	226.64
982.93	226.64
983.22	226.66
983.51	226.68
983.80	226.70
984.09	226.73
984.39	226.73
984.68	226.74
984.97	226.77
985.26	226.77
985.55	226.78
985.85	226.77
986.14	226.80
986.43	226.83
986.72	226.87
987.01	226.84
987.30	226.88
987.59	226.88
987.89	226.90
988.18	226.89
988.47	226.91
988.76	226.90
989.05	226.92
989.34	226.94
989.63	226.97
989.92	226.97
990.22	226.98
990.51	226.96
990.80	226.97
991.09	227.01
991.38	227.03
991.67	227.02
991.96	226.98
992.25	226.98
992.54	226.99
992.83	226.98
993.12	226.99
993.41	226.99
993.70	227.04
993.99	227.05
994.28	227.06
994.58	227.10
994.87	227.08
995.16	227.06
995.45	227.07
995.74	227.01
996.03	227.04
996.32	227.02
996.61	227.04
996.90	227.01
997.19	226.97
997.48	226.98
997.77	226.97
998.06	227.02
998.34	227.01
998.63	227.01
998.92	227.01
999.21	227.01
999.50	227.01
999.79	226.95
1000.08	226.95
1000.37	226.91
1000.66	226.82
1000.95	226.83
1001.24	226.84
1001.53	226.82
1001.82	226.82
1002.11	226.75
1002.40	226.75
1002.68	226.76
1002.97	226.80
1003.26	226.78
1003.55	226.75
1003.84	226.76
1004.13	226.74
1004.42	226.71
1004.71	226.69
1004.99	226.65
1005.28	226.64
1005.57	226.61
1005.86	226.57
1006.15	226.54
1006.44	226.52
1006.72	226.56
1007.01	226.51
1007.30	226.50
1007.59	226.48
1007.88	226.48
1008.17	226.43
1008.45	226.43
1008.74	226.38
1009.03	226.34
1009.32	226.36
1009.60	226.33
1009.89	226.33
1010.18	226.31
1010.47	226.31
1010.76	226.29
1011.04	226.30
1011.33	226.29
1011.62	226.31
1011.91	226.36
1012.19	226.35
1012.48	226.38
1012.77	226.41
1013.05	226.46
1013.34	226.48
1013.63	226.50
1013.92	226.48
1014.20	226.54
1014.49	226.55
1014.78	226.56
1015.06	226.54
1015.35	226.51
1015.64	226.55
1015.92	226.56
1016.21	226.54
1016.50	226.56
1016.78	226.58
1017.07	226.59
1017.36	226.58
1017.64	226.56
1017.93	226.59
1018.22	226.58
1018.50	226.58
1018.79	226.57
1019.08	226.53
1019.36	226.54
1019.65	226.57
1019.93	226.62
1020.22	226.62
1020.51	226.66
1020.79	226.67
1021.08	226.19
1021.36	226.19
1021.65	227.01
1021.94	226.39
1022.22	226.99
1022.51	227.40
1022.79	227.05
1023.08	226.39
1023.36	227.92
1023.65	226.77
>>>>>End Processed Spectral Data<<<<<
