SpectraSuite Data File
++++++++++++++++++++++++++++++++++++
Date: Fri Feb 01 15:19:32 EST 2013
User: group
Dark Spectrum Present: No
Reference Spectrum Present: No
Number of Sampled Component Spectra: 1
Spectrometers: USB2E7196
Integration Time (usec): 35000 (USB2E7196)
Spectra Averaged: 100 (USB2E7196)
Boxcar Smoothing: 10 (USB2E7196)
Correct for Electrical Dark: No (USB2E7196)
Strobe/Lamp Enabled: No (USB2E7196)
Correct for Detector Non-linearity: No (USB2E7196)
Correct for Stray Light: No (USB2E7196)
Number of Pixels in Processed Spectrum: 2048
>>>>>Begin Processed Spectral Data<<<<<
339.09	0.00
339.48	215.21
339.86	216.59
340.24	218.02
340.63	219.55
341.01	222.15
341.39	222.17
341.78	223.73
342.16	224.96
342.54	225.22
342.93	213.61
343.31	224.39
343.69	224.94
344.07	225.41
344.46	225.82
344.84	226.18
345.22	226.40
345.60	226.64
345.99	226.76
346.37	226.89
346.75	226.97
347.13	227.07
347.52	227.10
347.90	227.15
348.28	227.20
348.66	227.24
349.05	227.20
349.43	227.23
349.81	227.26
350.19	227.28
350.57	227.30
350.96	227.35
351.34	227.46
351.72	227.51
352.10	227.59
352.48	227.67
352.87	227.73
353.25	227.80
353.63	227.84
354.01	227.95
354.39	228.04
354.77	228.13
355.15	228.19
355.54	228.28
355.92	228.33
356.30	228.39
356.68	228.51
357.06	228.59
357.44	228.67
357.82	228.77
358.20	228.84
358.58	228.89
358.97	228.97
359.35	229.01
359.73	229.10
360.11	229.13
360.49	229.20
360.87	229.25
361.25	229.31
361.63	229.40
362.01	229.44
362.39	229.44
362.77	229.48
363.15	229.50
363.53	229.50
363.91	229.53
364.29	229.54
364.67	229.47
365.05	229.49
365.43	229.48
365.81	229.44
366.19	229.51
366.57	229.56
366.95	229.53
367.33	229.51
367.71	229.50
368.09	229.49
368.47	229.45
368.85	229.41
369.23	229.42
369.61	229.36
369.99	229.34
370.37	229.33
370.75	229.32
371.13	229.24
371.51	229.19
371.89	229.13
372.27	229.10
372.65	229.02
373.03	228.97
373.41	228.91
373.78	228.86
374.16	228.72
374.54	228.61
374.92	228.56
375.30	228.50
375.68	228.39
376.06	228.34
376.44	228.27
376.82	228.18
377.19	228.07
377.57	228.02
377.95	227.92
378.33	227.82
378.71	227.70
379.09	227.66
379.47	227.59
379.84	227.55
380.22	227.46
380.60	227.40
380.98	227.34
381.36	227.28
381.73	227.20
382.11	227.15
382.49	227.11
382.87	227.02
383.25	226.97
383.62	227.02
384.00	226.93
384.38	226.87
384.76	226.86
385.13	226.86
385.51	226.82
385.89	226.80
386.27	226.77
386.64	226.75
387.02	226.68
387.40	226.64
387.78	226.56
388.15	226.53
388.53	226.48
388.91	226.42
389.29	226.36
389.66	226.34
390.04	226.33
390.42	226.30
390.79	226.29
391.17	226.24
391.55	226.15
391.92	226.15
392.30	226.17
392.68	226.17
393.05	226.16
393.43	226.15
393.81	226.13
394.18	226.09
394.56	226.13
394.94	226.18
395.31	226.20
395.69	226.25
396.06	226.27
396.44	226.33
396.82	226.36
397.19	226.45
397.57	226.49
397.95	226.54
398.32	226.59
398.70	226.67
399.07	226.75
399.45	226.79
399.82	226.84
400.20	226.89
400.58	226.94
400.95	226.96
401.33	227.06
401.70	227.22
402.08	227.35
402.45	227.42
402.83	227.52
403.20	227.64
403.58	227.75
403.95	227.91
404.33	228.05
404.71	228.17
405.08	228.36
405.46	228.51
405.83	228.64
406.21	228.79
406.58	228.94
406.96	229.13
407.33	229.33
407.70	229.54
408.08	229.81
408.45	230.08
408.83	230.32
409.20	230.57
409.58	230.77
409.95	231.03
410.33	231.32
410.70	231.57
411.08	231.86
411.45	232.20
411.82	232.51
412.20	232.85
412.57	233.29
412.95	233.61
413.32	234.04
413.69	234.45
414.07	234.87
414.44	235.37
414.82	235.84
415.19	236.38
415.56	236.95
415.94	237.49
416.31	238.08
416.68	238.74
417.06	239.44
417.43	240.12
417.81	240.92
418.18	241.70
418.55	242.58
418.93	243.46
419.30	244.38
419.67	245.33
420.04	246.28
420.42	247.27
420.79	248.44
421.16	249.56
421.54	250.79
421.91	252.05
422.28	253.31
422.66	254.67
423.03	255.98
423.40	257.34
423.77	258.79
424.15	260.25
424.52	261.75
424.89	263.37
425.26	264.96
425.64	266.37
426.01	267.98
426.38	269.66
426.75	271.32
427.13	273.02
427.50	274.79
427.87	276.71
428.24	278.61
428.61	280.36
428.99	282.34
429.36	284.44
429.73	286.54
430.10	288.57
430.47	290.64
430.85	292.81
431.22	295.02
431.59	297.40
431.96	299.66
432.33	302.15
432.70	304.51
433.08	307.31
433.45	310.02
433.82	312.63
434.19	315.52
434.56	318.38
434.93	321.09
435.30	323.75
435.68	326.63
436.05	329.45
436.42	332.26
436.79	334.76
437.16	337.47
437.53	340.30
437.90	343.08
438.27	345.78
438.64	348.61
439.01	351.22
439.38	353.48
439.75	355.69
440.13	358.18
440.50	360.54
440.87	362.34
441.24	364.25
441.61	366.39
441.98	367.91
442.35	369.67
442.72	371.50
443.09	373.34
443.46	374.34
443.83	374.88
444.20	375.37
444.57	376.24
444.94	376.48
445.31	376.82
445.68	377.20
446.05	377.27
446.42	376.83
446.79	376.44
447.16	375.90
447.53	375.52
447.90	374.36
448.27	373.17
448.64	371.61
449.01	370.44
449.37	368.44
449.74	366.50
450.11	364.28
450.48	361.75
450.85	359.16
451.22	357.02
451.59	355.05
451.96	353.12
452.33	350.51
452.70	348.14
453.07	345.23
453.43	342.33
453.80	339.62
454.17	336.93
454.54	334.33
454.91	331.65
455.28	328.96
455.65	326.41
456.02	323.97
456.38	321.80
456.75	319.16
457.12	316.96
457.49	314.71
457.86	312.51
458.23	310.65
458.59	308.60
458.96	306.50
459.33	304.58
459.70	302.66
460.07	301.16
460.43	299.47
460.80	297.93
461.17	296.44
461.54	294.92
461.91	293.52
462.27	292.06
462.64	290.81
463.01	289.50
463.38	288.19
463.74	286.85
464.11	285.71
464.48	284.67
464.85	283.55
465.21	282.69
465.58	281.77
465.95	280.70
466.32	279.84
466.68	278.94
467.05	278.04
467.42	277.20
467.78	276.26
468.15	275.34
468.52	274.65
468.88	273.82
469.25	273.03
469.62	272.41
469.98	271.75
470.35	271.13
470.72	270.51
471.08	269.90
471.45	269.35
471.82	268.82
472.18	268.26
472.55	267.78
472.92	267.29
473.28	266.82
473.65	266.39
474.02	265.90
474.38	265.52
474.75	265.24
475.11	264.91
475.48	264.63
475.85	264.42
476.21	264.19
476.58	264.01
476.94	263.86
477.31	263.66
477.67	263.52
478.04	263.38
478.41	263.28
478.77	263.29
479.14	263.24
479.50	263.18
479.87	263.16
480.23	263.24
480.60	263.29
480.96	263.36
481.33	263.55
481.69	263.77
482.06	263.97
482.42	264.15
482.79	264.37
483.15	264.65
483.52	265.02
483.88	265.33
484.25	265.67
484.61	266.09
484.98	266.54
485.34	267.07
485.71	267.62
486.07	268.25
486.44	268.84
486.80	269.55
487.17	270.28
487.53	271.13
487.90	271.96
488.26	272.86
488.62	273.85
488.99	274.83
489.35	275.80
489.72	276.90
490.08	278.10
490.44	279.32
490.81	280.64
491.17	281.96
491.54	283.41
491.90	284.93
492.26	286.56
492.63	288.27
492.99	290.05
493.36	291.97
493.72	293.99
494.08	296.04
494.45	298.28
494.81	300.66
495.17	303.08
495.54	305.65
495.90	308.33
496.26	311.10
496.63	314.03
496.99	317.16
497.35	320.40
497.72	323.79
498.08	327.30
498.44	330.96
498.80	334.94
499.17	339.01
499.53	343.19
499.89	347.56
500.26	352.07
500.62	356.75
500.98	361.71
501.34	366.77
501.71	372.15
502.07	377.56
502.43	383.23
502.79	389.02
503.16	395.09
503.52	401.33
503.88	407.74
504.24	414.39
504.60	421.26
504.97	428.39
505.33	435.74
505.69	443.46
506.05	451.28
506.41	459.19
506.78	467.29
507.14	475.81
507.50	484.53
507.86	493.56
508.22	502.74
508.59	511.89
508.95	521.51
509.31	531.26
509.67	541.29
510.03	551.51
510.39	562.04
510.75	572.85
511.12	583.84
511.48	595.20
511.84	606.69
512.20	618.25
512.56	630.19
512.92	642.38
513.28	654.70
513.64	667.16
514.00	679.84
514.37	692.82
514.73	705.86
515.09	718.96
515.45	732.28
515.81	745.87
516.17	759.91
516.53	773.97
516.89	788.23
517.25	802.45
517.61	816.94
517.97	831.55
518.33	846.02
518.69	860.75
519.05	875.81
519.41	890.99
519.77	906.52
520.13	922.05
520.49	937.46
520.85	952.98
521.21	968.88
521.57	985.17
521.93	1001.07
522.29	1017.45
522.65	1033.69
523.01	1049.88
523.37	1066.00
523.73	1082.19
524.09	1098.40
524.45	1114.78
524.81	1131.58
525.17	1148.52
525.53	1165.41
525.89	1182.36
526.25	1199.34
526.61	1215.70
526.97	1232.50
527.33	1249.05
527.68	1265.72
528.04	1282.27
528.40	1299.08
528.76	1316.09
529.12	1332.68
529.48	1349.58
529.84	1365.76
530.20	1382.53
530.56	1399.70
530.91	1417.26
531.27	1434.09
531.63	1450.52
531.99	1467.16
532.35	1483.21
532.71	1499.09
533.07	1515.43
533.42	1531.34
533.78	1547.40
534.14	1563.72
534.50	1579.13
534.86	1595.13
535.21	1610.38
535.57	1626.39
535.93	1641.82
536.29	1656.64
536.65	1671.96
537.00	1686.85
537.36	1702.12
537.72	1716.67
538.08	1731.10
538.44	1744.84
538.79	1758.91
539.15	1772.81
539.51	1786.61
539.87	1800.96
540.22	1814.78
540.58	1828.65
540.94	1842.27
541.29	1855.28
541.65	1868.20
542.01	1881.51
542.37	1893.79
542.72	1906.30
543.08	1918.07
543.44	1930.54
543.79	1941.93
544.15	1952.83
544.51	1964.51
544.87	1975.54
545.22	1986.34
545.58	1996.60
545.94	2006.37
546.29	2016.17
546.65	2025.99
547.01	2035.35
547.36	2044.24
547.72	2052.77
548.07	2060.58
548.43	2068.64
548.79	2076.63
549.14	2084.06
549.50	2091.48
549.86	2099.39
550.21	2106.69
550.57	2113.90
550.92	2120.37
551.28	2127.27
551.64	2134.49
551.99	2140.97
552.35	2147.19
552.70	2153.35
553.06	2159.21
553.41	2165.55
553.77	2171.68
554.13	2177.80
554.48	2183.82
554.84	2189.16
555.19	2194.59
555.55	2199.69
555.90	2204.08
556.26	2209.03
556.61	2213.77
556.97	2217.83
557.32	2221.85
557.68	2226.08
558.03	2230.34
558.39	2234.22
558.74	2238.86
559.10	2242.56
559.45	2246.09
559.81	2250.49
560.16	2254.44
560.52	2257.86
560.87	2261.40
561.23	2264.04
561.58	2266.90
561.94	2269.48
562.29	2271.96
562.64	2274.51
563.00	2277.19
563.35	2280.70
563.71	2283.86
564.06	2287.16
564.42	2290.08
564.77	2292.62
565.12	2294.65
565.48	2296.56
565.83	2298.29
566.19	2299.64
566.54	2300.52
566.89	2301.64
567.25	2301.92
567.60	2303.11
567.96	2304.60
568.31	2305.34
568.66	2306.37
569.02	2307.02
569.37	2307.30
569.72	2307.80
570.08	2307.72
570.43	2307.58
570.78	2306.89
571.14	2305.30
571.49	2303.83
571.84	2303.42
572.20	2302.08
572.55	2301.12
572.90	2299.53
573.26	2298.10
573.61	2296.41
573.96	2294.56
574.31	2291.57
574.67	2288.50
575.02	2284.87
575.37	2281.44
575.72	2277.46
576.08	2274.05
576.43	2270.57
576.78	2266.69
577.13	2263.59
577.49	2260.68
577.84	2257.17
578.19	2253.36
578.54	2249.48
578.90	2245.00
579.25	2239.41
579.60	2234.28
579.95	2229.19
580.30	2224.12
580.66	2218.78
581.01	2213.60
581.36	2208.57
581.71	2204.25
582.06	2199.83
582.42	2195.16
582.77	2189.89
583.12	2185.32
583.47	2180.39
583.82	2175.20
584.17	2169.92
584.53	2164.37
584.88	2158.38
585.23	2152.49
585.58	2146.93
585.93	2141.47
586.28	2136.62
586.63	2131.50
586.98	2126.40
587.34	2121.50
587.69	2116.51
588.04	2111.24
588.39	2105.56
588.74	2099.04
589.09	2092.86
589.44	2085.92
589.79	2079.91
590.14	2074.23
590.49	2067.54
590.84	2061.17
591.19	2055.15
591.54	2048.55
591.89	2041.04
592.25	2034.29
592.60	2026.96
592.95	2019.37
593.30	2011.92
593.65	2004.39
594.00	1997.16
594.35	1989.98
594.70	1982.00
595.05	1974.54
595.40	1967.16
595.75	1959.56
596.10	1953.23
596.45	1946.24
596.80	1940.10
597.15	1933.35
597.50	1925.97
597.85	1919.59
598.19	1912.80
598.54	1905.58
598.89	1899.00
599.24	1893.08
599.59	1886.27
599.94	1880.17
600.29	1873.73
600.64	1867.12
600.99	1859.50
601.34	1852.57
601.69	1845.48
602.04	1838.35
602.39	1831.05
602.74	1824.23
603.08	1817.47
603.43	1810.77
603.78	1803.45
604.13	1796.15
604.48	1788.72
604.83	1782.12
605.18	1775.00
605.53	1767.03
605.87	1759.08
606.22	1751.79
606.57	1743.83
606.92	1736.48
607.27	1729.28
607.62	1722.42
607.96	1715.10
608.31	1708.46
608.66	1700.92
609.01	1693.46
609.36	1686.01
609.70	1678.01
610.05	1669.83
610.40	1662.10
610.75	1653.78
611.10	1646.21
611.44	1637.91
611.79	1629.98
612.14	1621.21
612.49	1612.16
612.83	1603.80
613.18	1595.71
613.53	1587.58
613.88	1579.08
614.22	1570.92
614.57	1562.32
614.92	1554.19
615.27	1546.52
615.61	1538.26
615.96	1530.35
616.31	1522.58
616.65	1515.25
617.00	1507.69
617.35	1500.05
617.70	1491.64
618.04	1483.08
618.39	1474.87
618.74	1467.24
619.08	1459.03
619.43	1451.43
619.78	1444.45
620.12	1437.24
620.47	1429.80
620.82	1421.75
621.16	1414.28
621.51	1406.60
621.85	1398.89
622.20	1390.48
622.55	1382.26
622.89	1374.36
623.24	1366.63
623.59	1359.17
623.93	1351.58
624.28	1344.30
624.62	1336.80
624.97	1329.65
625.32	1322.90
625.66	1315.87
626.01	1308.57
626.35	1301.00
626.70	1293.24
627.04	1285.41
627.39	1277.71
627.73	1270.07
628.08	1263.10
628.43	1255.77
628.77	1248.41
629.12	1240.81
629.46	1233.57
629.81	1226.22
630.15	1219.05
630.50	1211.65
630.84	1203.55
631.19	1195.61
631.53	1188.22
631.88	1180.71
632.22	1173.08
632.57	1165.76
632.91	1158.14
633.26	1150.77
633.60	1143.51
633.95	1136.45
634.29	1129.61
634.64	1122.82
634.98	1115.52
635.32	1108.37
635.67	1101.85
636.01	1095.21
636.36	1088.42
636.70	1081.94
637.05	1075.25
637.39	1068.80
637.73	1062.31
638.08	1056.48
638.42	1050.58
638.77	1044.06
639.11	1037.36
639.45	1031.05
639.80	1024.36
640.14	1017.98
640.49	1011.47
640.83	1005.15
641.17	998.88
641.52	992.52
641.86	986.18
642.20	980.35
642.55	974.00
642.89	967.49
643.23	960.98
643.58	955.16
643.92	948.89
644.26	942.83
644.61	936.84
644.95	930.77
645.29	924.12
645.64	917.33
645.98	911.06
646.32	905.24
646.66	899.22
647.01	893.50
647.35	887.92
647.69	882.13
648.04	876.60
648.38	870.87
648.72	864.75
649.06	858.68
649.41	852.86
649.75	846.96
650.09	840.94
650.43	835.10
650.78	829.05
651.12	823.14
651.46	817.50
651.80	811.69
652.14	806.40
652.49	801.06
652.83	795.94
653.17	790.22
653.51	784.52
653.85	779.18
654.20	773.51
654.54	767.45
654.88	761.77
655.22	755.87
655.56	750.18
655.90	744.82
656.25	739.57
656.59	734.21
656.93	729.15
657.27	724.00
657.61	718.54
657.95	713.40
658.29	708.34
658.64	703.06
658.98	697.76
659.32	692.30
659.66	687.13
660.00	681.84
660.34	676.88
660.68	672.02
661.02	667.02
661.36	662.30
661.70	657.85
662.05	653.46
662.39	649.20
662.73	644.75
663.07	640.37
663.41	635.99
663.75	631.48
664.09	626.92
664.43	622.57
664.77	618.50
665.11	614.32
665.45	610.25
665.79	606.22
666.13	602.15
666.47	598.02
666.81	593.81
667.15	589.68
667.49	585.80
667.83	582.00
668.17	578.02
668.51	574.00
668.85	570.00
669.19	566.14
669.53	562.29
669.87	558.43
670.21	554.73
670.55	551.01
670.89	547.59
671.23	544.19
671.57	540.73
671.91	537.21
672.25	533.73
672.58	530.21
672.92	526.79
673.26	523.63
673.60	520.53
673.94	517.49
674.28	514.59
674.62	511.69
674.96	508.60
675.30	505.68
675.64	502.80
675.97	500.01
676.31	497.12
676.65	494.16
676.99	491.40
677.33	488.48
677.67	485.69
678.01	482.66
678.34	479.65
678.68	476.77
679.02	473.94
679.36	471.19
679.70	468.44
680.04	465.67
680.37	462.78
680.71	460.00
681.05	457.40
681.39	454.66
681.73	451.98
682.06	449.43
682.40	446.89
682.74	444.35
683.08	441.81
683.42	439.18
683.75	436.71
684.09	434.22
684.43	431.85
684.77	429.40
685.10	427.03
685.44	424.71
685.78	422.42
686.12	420.21
686.45	417.91
686.79	415.59
687.13	413.43
687.46	411.28
687.80	409.15
688.14	406.91
688.48	404.86
688.81	402.58
689.15	400.44
689.49	398.25
689.82	396.17
690.16	394.05
690.50	392.17
690.83	390.20
691.17	388.21
691.51	386.27
691.84	384.42
692.18	382.52
692.52	380.54
692.85	378.63
693.19	376.75
693.52	374.92
693.86	373.12
694.20	371.37
694.53	369.57
694.87	367.72
695.21	365.92
695.54	364.11
695.88	362.46
696.21	360.79
696.55	359.17
696.88	357.47
697.22	355.87
697.56	354.21
697.89	352.56
698.23	350.95
698.56	349.36
698.90	347.80
699.23	346.18
699.57	344.66
699.90	343.14
700.24	341.61
700.58	340.08
700.91	338.60
701.25	337.07
701.58	335.70
701.92	334.36
702.25	333.02
702.59	331.64
702.92	330.27
703.26	328.97
703.59	327.70
703.93	326.53
704.26	325.28
704.60	324.03
704.93	322.76
705.26	321.53
705.60	320.38
705.93	319.23
706.27	318.17
706.60	317.15
706.94	316.05
707.27	314.89
707.61	313.86
707.94	312.83
708.27	311.78
708.61	310.67
708.94	309.67
709.28	308.70
709.61	307.76
709.94	306.86
710.28	305.83
710.61	304.86
710.95	303.78
711.28	302.90
711.61	301.96
711.95	301.08
712.28	300.15
712.61	299.13
712.95	298.21
713.28	297.34
713.61	296.43
713.95	295.54
714.28	294.77
714.61	293.90
714.95	293.06
715.28	292.24
715.61	291.38
715.95	290.52
716.28	289.67
716.61	288.85
716.95	288.04
717.28	287.30
717.61	286.52
717.94	285.80
718.28	284.99
718.61	284.28
718.94	283.56
719.27	282.91
719.61	282.27
719.94	281.54
720.27	280.82
720.60	280.15
720.94	279.50
721.27	278.88
721.60	278.29
721.93	277.68
722.27	277.15
722.60	276.60
722.93	276.01
723.26	275.47
723.59	274.88
723.93	274.32
724.26	273.76
724.59	273.21
724.92	272.68
725.25	272.18
725.59	271.63
725.92	271.14
726.25	270.61
726.58	270.11
726.91	269.63
727.24	269.16
727.57	268.67
727.91	268.19
728.24	267.72
728.57	267.22
728.90	266.78
729.23	266.23
729.56	265.80
729.89	265.34
730.22	264.84
730.55	264.40
730.89	263.93
731.22	263.49
731.55	263.02
731.88	262.60
732.21	262.15
732.54	261.72
732.87	261.27
733.20	260.88
733.53	260.50
733.86	260.15
734.19	259.76
734.52	259.40
734.85	259.07
735.18	258.66
735.51	258.28
735.84	257.92
736.17	257.59
736.50	257.24
736.83	256.98
737.16	256.64
737.49	256.29
737.82	255.98
738.15	255.66
738.48	255.36
738.81	255.04
739.14	254.73
739.47	254.41
739.80	254.14
740.13	253.81
740.46	253.49
740.79	253.17
741.12	252.86
741.45	252.54
741.78	252.21
742.11	251.92
742.44	251.64
742.77	251.39
743.10	251.08
743.43	250.75
743.75	250.41
744.08	250.26
744.41	250.02
744.74	249.75
745.07	249.48
745.40	249.26
745.73	249.01
746.06	248.76
746.39	248.51
746.71	248.20
747.04	247.95
747.37	247.72
747.70	247.49
748.03	247.24
748.36	247.02
748.68	246.73
749.01	246.51
749.34	246.25
749.67	246.01
750.00	245.79
750.33	245.65
750.65	245.46
750.98	245.16
751.31	244.92
751.64	244.73
751.97	244.54
752.29	244.32
752.62	244.11
752.95	243.88
753.28	243.70
753.60	243.53
753.93	243.33
754.26	243.12
754.59	242.88
754.91	242.66
755.24	242.49
755.57	242.36
755.90	242.18
756.22	242.01
756.55	241.81
756.88	241.62
757.20	241.38
757.53	241.17
757.86	241.00
758.19	240.86
758.51	240.65
758.84	240.47
759.17	240.29
759.49	240.11
759.82	240.04
760.15	239.85
760.47	239.70
760.80	239.52
761.13	239.42
761.45	239.29
761.78	239.16
762.11	238.99
762.43	238.84
762.76	238.68
763.08	238.56
763.41	238.42
763.74	238.29
764.06	238.16
764.39	237.99
764.71	237.84
765.04	237.66
765.37	237.53
765.69	237.40
766.02	237.23
766.34	237.09
766.67	236.88
767.00	236.79
767.32	236.72
767.65	236.67
767.97	236.55
768.30	236.41
768.62	236.28
768.95	236.16
769.27	236.02
769.60	235.92
769.92	235.80
770.25	235.66
770.57	235.52
770.90	235.42
771.22	235.35
771.55	235.22
771.87	235.14
772.20	235.05
772.52	235.00
772.85	235.03
773.17	234.93
773.50	234.80
773.82	234.68
774.15	234.56
774.47	234.39
774.80	234.26
775.12	234.17
775.45	234.07
775.77	233.98
776.09	233.91
776.42	233.84
776.74	233.75
777.07	233.66
777.39	233.62
777.72	233.52
778.04	233.42
778.36	233.36
778.69	233.28
779.01	233.23
779.33	233.07
779.66	232.90
779.98	232.83
780.31	232.82
780.63	232.82
780.95	232.75
781.28	232.70
781.60	232.65
781.92	232.60
782.25	232.57
782.57	232.50
782.89	232.42
783.22	232.35
783.54	232.31
783.86	232.28
784.19	232.19
784.51	232.17
784.83	232.13
785.16	232.09
785.48	232.04
785.80	232.00
786.12	231.96
786.45	231.94
786.77	231.91
787.09	231.84
787.42	231.73
787.74	231.68
788.06	231.64
788.38	231.60
788.71	231.54
789.03	231.53
789.35	231.54
789.67	231.53
789.99	231.48
790.32	231.41
790.64	231.41
790.96	231.49
791.28	231.45
791.61	231.40
791.93	231.38
792.25	231.33
792.57	231.37
792.89	231.34
793.21	231.30
793.54	231.26
793.86	231.23
794.18	231.21
794.50	231.19
794.82	231.14
795.14	231.11
795.47	231.11
795.79	231.06
796.11	230.96
796.43	230.92
796.75	230.89
797.07	230.89
797.39	230.83
797.71	230.73
798.04	230.72
798.36	230.72
798.68	230.66
799.00	230.65
799.32	230.54
799.64	230.53
799.96	230.50
800.28	230.46
800.60	230.40
800.92	230.39
801.24	230.34
801.56	230.34
801.89	230.31
802.21	230.28
802.53	230.24
802.85	230.26
803.17	230.22
803.49	230.16
803.81	230.10
804.13	230.08
804.45	230.03
804.77	229.99
805.09	229.99
805.41	229.96
805.73	229.89
806.05	229.83
806.37	229.81
806.69	229.74
807.01	229.72
807.33	229.73
807.65	229.64
807.97	229.67
808.28	229.64
808.60	229.61
808.92	229.54
809.24	229.56
809.56	229.53
809.88	229.48
810.20	229.46
810.52	229.43
810.84	229.35
811.16	229.30
811.48	229.22
811.80	229.19
812.12	229.17
812.43	229.15
812.75	229.11
813.07	229.01
813.39	229.01
813.71	228.98
814.03	228.90
814.35	228.87
814.67	228.79
814.98	228.75
815.30	228.70
815.62	228.67
815.94	228.59
816.26	228.62
816.58	228.58
816.89	228.57
817.21	228.56
817.53	228.58
817.85	228.53
818.17	228.52
818.48	228.44
818.80	228.44
819.12	228.40
819.44	228.39
819.76	228.41
820.07	228.41
820.39	228.37
820.71	228.41
821.03	228.41
821.34	228.41
821.66	228.42
821.98	228.40
822.30	228.40
822.61	228.45
822.93	228.37
823.25	228.35
823.57	228.34
823.88	228.37
824.20	228.35
824.52	228.37
824.83	228.39
825.15	228.41
825.47	228.42
825.79	228.44
826.10	228.44
826.42	228.41
826.74	228.38
827.05	228.37
827.37	228.37
827.69	228.35
828.00	228.30
828.32	228.30
828.64	228.30
828.95	228.37
829.27	228.33
829.58	228.31
829.90	228.35
830.22	228.34
830.53	228.30
830.85	228.30
831.17	228.30
831.48	228.28
831.80	228.26
832.11	228.23
832.43	228.21
832.75	228.22
833.06	228.30
833.38	228.29
833.69	228.33
834.01	228.31
834.32	228.29
834.64	228.29
834.96	228.30
835.27	228.30
835.59	228.25
835.90	228.24
836.22	228.25
836.53	228.21
836.85	228.21
837.16	228.31
837.48	228.31
837.79	228.33
838.11	228.32
838.42	228.30
838.74	228.30
839.05	228.29
839.37	228.30
839.68	228.21
840.00	228.23
840.31	228.23
840.63	228.26
840.94	228.27
841.26	228.27
841.57	228.24
841.88	228.28
842.20	228.25
842.51	228.24
842.83	228.24
843.14	228.31
843.46	228.31
843.77	228.23
844.08	228.22
844.40	228.19
844.71	228.19
845.03	228.16
845.34	228.17
845.65	228.16
845.97	228.14
846.28	228.15
846.60	228.13
846.91	228.07
847.22	228.01
847.54	228.03
847.85	228.02
848.16	227.99
848.48	227.93
848.79	227.94
849.10	227.90
849.42	227.90
849.73	227.78
850.04	227.78
850.36	227.72
850.67	227.73
850.98	227.71
851.30	227.69
851.61	227.71
851.92	227.68
852.23	227.66
852.55	227.64
852.86	227.62
853.17	227.58
853.49	227.61
853.80	227.64
854.11	227.61
854.42	227.60
854.74	227.55
855.05	227.56
855.36	227.51
855.67	227.53
855.99	227.51
856.30	227.66
856.61	227.61
856.92	227.63
857.23	227.61
857.55	227.59
857.86	227.58
858.17	227.56
858.48	227.54
858.79	227.54
859.11	227.54
859.42	227.51
859.73	227.53
860.04	227.49
860.35	227.43
860.66	227.42
860.98	227.45
861.29	227.47
861.60	227.47
861.91	227.49
862.22	227.46
862.53	227.43
862.84	227.32
863.16	227.35
863.47	227.31
863.78	227.28
864.09	227.29
864.40	227.30
864.71	227.31
865.02	227.33
865.33	227.30
865.64	227.29
865.95	227.32
866.27	227.35
866.58	227.37
866.89	227.43
867.20	227.44
867.51	227.41
867.82	227.44
868.13	227.47
868.44	227.47
868.75	227.51
869.06	227.55
869.37	227.58
869.68	227.56
869.99	227.60
870.30	227.62
870.61	227.65
870.92	227.66
871.23	227.63
871.54	227.66
871.85	227.70
872.16	227.74
872.47	227.74
872.78	227.72
873.09	227.68
873.40	227.65
873.71	227.68
874.02	227.70
874.33	227.68
874.64	227.64
874.95	227.66
875.26	227.62
875.56	227.65
875.87	227.64
876.18	227.67
876.49	227.77
876.80	227.77
877.11	227.74
877.42	227.74
877.73	227.81
878.04	227.80
878.35	227.82
878.66	227.80
878.96	227.80
879.27	227.79
879.58	227.83
879.89	227.85
880.20	227.83
880.51	227.83
880.82	227.82
881.12	227.82
881.43	227.79
881.74	227.76
882.05	227.75
882.36	227.76
882.67	227.76
882.97	227.66
883.28	227.65
883.59	227.63
883.90	227.63
884.21	227.58
884.51	227.57
884.82	227.55
885.13	227.57
885.44	227.55
885.74	227.57
886.05	227.57
886.36	227.57
886.67	227.54
886.98	227.57
887.28	227.60
887.59	227.58
887.90	227.60
888.20	227.60
888.51	227.56
888.82	227.53
889.13	227.52
889.43	227.56
889.74	227.55
890.05	227.54
890.35	227.54
890.66	227.52
890.97	227.50
891.28	227.47
891.58	227.43
891.89	227.41
892.20	227.36
892.50	227.31
892.81	227.29
893.12	227.29
893.42	227.22
893.73	227.19
894.04	227.20
894.34	227.18
894.65	227.17
894.95	227.17
895.26	227.10
895.57	227.13
895.87	227.03
896.18	227.02
896.48	227.03
896.79	227.01
897.10	227.01
897.40	227.03
897.71	227.01
898.01	227.02
898.32	227.05
898.63	227.04
898.93	227.06
899.24	227.07
899.54	227.07
899.85	227.07
900.15	227.04
900.46	227.03
900.76	227.02
901.07	227.05
901.38	227.02
901.68	227.08
901.99	227.04
902.29	227.06
902.60	227.05
902.90	227.07
903.21	227.08
903.51	227.08
903.82	227.07
904.12	227.09
904.43	227.08
904.73	227.06
905.03	227.08
905.34	227.17
905.64	227.14
905.95	227.16
906.25	227.18
906.56	227.20
906.86	227.23
907.17	227.26
907.47	227.25
907.77	227.26
908.08	227.26
908.38	227.26
908.69	227.26
908.99	227.31
909.30	227.29
909.60	227.29
909.90	227.29
910.21	227.30
910.51	227.29
910.81	227.31
911.12	227.34
911.42	227.34
911.73	227.23
912.03	227.28
912.33	227.30
912.64	227.30
912.94	227.31
913.24	227.28
913.55	227.25
913.85	227.27
914.15	227.32
914.46	227.33
914.76	227.32
915.06	227.32
915.37	227.28
915.67	227.26
915.97	227.23
916.27	227.24
916.58	227.23
916.88	227.22
917.18	227.22
917.49	227.25
917.79	227.25
918.09	227.25
918.39	227.26
918.70	227.24
919.00	227.25
919.30	227.30
919.60	227.29
919.91	227.33
920.21	227.29
920.51	227.23
920.81	227.21
921.12	227.21
921.42	227.23
921.72	227.22
922.02	227.28
922.32	227.32
922.63	227.30
922.93	227.37
923.23	227.38
923.53	227.35
923.83	227.32
924.13	227.31
924.44	227.32
924.74	227.34
925.04	227.30
925.34	227.27
925.64	227.23
925.94	227.22
926.24	227.22
926.55	227.25
926.85	227.28
927.15	227.29
927.45	227.31
927.75	227.28
928.05	227.29
928.35	227.27
928.65	227.24
928.95	227.25
929.26	227.19
929.56	227.16
929.86	227.17
930.16	227.15
930.46	227.10
930.76	227.08
931.06	227.04
931.36	227.01
931.66	227.04
931.96	227.04
932.26	227.03
932.56	227.02
932.86	226.98
933.16	226.96
933.46	226.91
933.76	226.87
934.06	226.89
934.36	226.90
934.66	226.89
934.96	226.89
935.26	226.87
935.56	226.91
935.86	226.91
936.16	226.88
936.46	226.87
936.76	226.90
937.06	226.90
937.36	226.90
937.66	226.94
937.96	226.90
938.26	226.92
938.56	226.92
938.86	226.91
939.16	226.94
939.46	226.94
939.76	226.97
940.06	227.00
940.35	227.02
940.65	227.02
940.95	227.00
941.25	227.01
941.55	227.06
941.85	227.03
942.15	227.06
942.45	227.14
942.75	227.16
943.04	227.21
943.34	227.29
943.64	227.30
943.94	227.30
944.24	227.36
944.54	227.35
944.84	227.40
945.13	227.40
945.43	227.41
945.73	227.43
946.03	227.45
946.33	227.45
946.62	227.45
946.92	227.44
947.22	227.50
947.52	227.48
947.82	227.49
948.11	227.49
948.41	227.49
948.71	227.43
949.01	227.47
949.31	227.40
949.60	227.36
949.90	227.37
950.20	227.36
950.50	227.35
950.79	227.33
951.09	227.31
951.39	227.33
951.69	227.32
951.98	227.33
952.28	227.35
952.58	227.33
952.87	227.28
953.17	227.29
953.47	227.29
953.76	227.30
954.06	227.28
954.36	227.25
954.66	227.21
954.95	227.26
955.25	227.26
955.55	227.31
955.84	227.29
956.14	227.29
956.44	227.30
956.73	227.27
957.03	227.31
957.32	227.29
957.62	227.28
957.92	227.29
958.21	227.29
958.51	227.37
958.81	227.41
959.10	227.45
959.40	227.46
959.69	227.41
959.99	227.41
960.29	227.40
960.58	227.41
960.88	227.50
961.17	227.45
961.47	227.42
961.76	227.40
962.06	227.37
962.36	227.36
962.65	227.34
962.95	227.36
963.24	227.32
963.54	227.33
963.83	227.32
964.13	227.32
964.42	227.27
964.72	227.22
965.01	227.17
965.31	227.12
965.60	227.12
965.90	227.20
966.19	227.15
966.49	227.13
966.78	227.12
967.08	227.05
967.37	227.07
967.67	227.04
967.96	227.06
968.26	227.06
968.55	227.09
968.85	227.06
969.14	227.03
969.43	227.03
969.73	227.01
970.02	227.02
970.32	227.01
970.61	226.96
970.91	226.89
971.20	226.87
971.49	226.90
971.79	226.90
972.08	226.85
972.38	226.86
972.67	226.86
972.96	226.87
973.26	226.86
973.55	226.85
973.85	226.86
974.14	226.84
974.43	226.87
974.73	226.84
975.02	226.82
975.31	226.84
975.61	226.86
975.90	226.83
976.19	226.78
976.49	226.81
976.78	226.85
977.07	226.86
977.37	226.88
977.66	226.86
977.95	226.84
978.24	226.80
978.54	226.88
978.83	226.86
979.12	226.88
979.42	226.90
979.71	226.90
980.00	226.91
980.29	226.91
980.59	226.91
980.88	226.93
981.17	226.98
981.46	226.94
981.76	226.93
982.05	227.00
982.34	227.04
982.63	227.03
982.93	227.05
983.22	227.05
983.51	227.07
983.80	227.09
984.09	227.11
984.39	227.18
984.68	227.14
984.97	227.17
985.26	227.13
985.55	227.10
985.85	227.12
986.14	227.13
986.43	227.14
986.72	227.17
987.01	227.13
987.30	227.13
987.59	227.19
987.89	227.22
988.18	227.17
988.47	227.22
988.76	227.21
989.05	227.18
989.34	227.22
989.63	227.25
989.92	227.24
990.22	227.25
990.51	227.23
990.80	227.21
991.09	227.22
991.38	227.23
991.67	227.26
991.96	227.28
992.25	227.31
992.54	227.29
992.83	227.26
993.12	227.26
993.41	227.27
993.70	227.33
993.99	227.30
994.28	227.31
994.58	227.27
994.87	227.26
995.16	227.27
995.45	227.26
995.74	227.21
996.03	227.24
996.32	227.24
996.61	227.21
996.90	227.23
997.19	227.24
997.48	227.24
997.77	227.26
998.06	227.23
998.34	227.21
998.63	227.21
998.92	227.19
999.21	227.21
999.50	227.20
999.79	227.12
1000.08	227.11
1000.37	227.12
1000.66	227.09
1000.95	227.10
1001.24	227.11
1001.53	227.09
1001.82	227.08
1002.11	227.02
1002.40	227.03
1002.68	227.08
1002.97	227.10
1003.26	227.05
1003.55	227.04
1003.84	227.02
1004.13	227.04
1004.42	227.00
1004.71	227.00
1004.99	227.00
1005.28	227.00
1005.57	226.98
1005.86	226.97
1006.15	226.95
1006.44	226.90
1006.72	226.88
1007.01	226.88
1007.30	226.87
1007.59	226.86
1007.88	226.83
1008.17	226.85
1008.45	226.82
1008.74	226.71
1009.03	226.69
1009.32	226.69
1009.60	226.69
1009.89	226.69
1010.18	226.63
1010.47	226.64
1010.76	226.62
1011.04	226.59
1011.33	226.62
1011.62	226.63
1011.91	226.66
1012.19	226.68
1012.48	226.71
1012.77	226.75
1013.05	226.78
1013.34	226.78
1013.63	226.77
1013.92	226.79
1014.20	226.78
1014.49	226.77
1014.78	226.84
1015.06	226.80
1015.35	226.79
1015.64	226.79
1015.92	226.80
1016.21	226.83
1016.50	226.80
1016.78	226.83
1017.07	226.85
1017.36	226.81
1017.64	226.80
1017.93	226.79
1018.22	226.78
1018.50	226.79
1018.79	226.78
1019.08	226.73
1019.36	226.77
1019.65	226.77
1019.93	226.79
1020.22	226.83
1020.51	226.91
1020.79	226.89
1021.08	226.56
1021.36	226.76
1021.65	227.00
1021.94	226.74
1022.22	227.39
1022.51	226.80
1022.79	227.07
1023.08	227.35
1023.36	228.24
1023.65	226.71
>>>>>End Processed Spectral Data<<<<<
