SpectraSuite Data File
++++++++++++++++++++++++++++++++++++
Date: Fri Feb 01 16:11:41 EST 2013
User: group
Dark Spectrum Present: No
Reference Spectrum Present: No
Number of Sampled Component Spectra: 1
Spectrometers: USB2E7196
Integration Time (usec): 35000 (USB2E7196)
Spectra Averaged: 100 (USB2E7196)
Boxcar Smoothing: 10 (USB2E7196)
Correct for Electrical Dark: No (USB2E7196)
Strobe/Lamp Enabled: No (USB2E7196)
Correct for Detector Non-linearity: No (USB2E7196)
Correct for Stray Light: No (USB2E7196)
Number of Pixels in Processed Spectrum: 2048
>>>>>Begin Processed Spectral Data<<<<<
339.09	0.00
339.48	214.96
339.86	215.44
340.24	217.66
340.63	218.66
341.01	221.29
341.39	221.36
341.78	221.94
342.16	223.60
342.54	224.06
342.93	212.69
343.31	223.44
343.69	223.95
344.07	224.42
344.46	224.83
344.84	225.22
345.22	225.46
345.60	225.70
345.99	225.93
346.37	226.06
346.75	226.19
347.13	226.24
347.52	226.25
347.90	226.33
348.28	226.36
348.66	226.41
349.05	226.39
349.43	226.41
349.81	226.46
350.19	226.49
350.57	226.53
350.96	226.58
351.34	226.65
351.72	226.74
352.10	226.87
352.48	226.95
352.87	226.96
353.25	227.01
353.63	227.06
354.01	227.12
354.39	227.23
354.77	227.30
355.15	227.42
355.54	227.53
355.92	227.56
356.30	227.65
356.68	227.79
357.06	227.90
357.44	227.95
357.82	228.02
358.20	228.13
358.58	228.20
358.97	228.29
359.35	228.37
359.73	228.44
360.11	228.47
360.49	228.49
360.87	228.59
361.25	228.64
361.63	228.72
362.01	228.78
362.39	228.80
362.77	228.84
363.15	228.87
363.53	228.90
363.91	228.93
364.29	228.97
364.67	228.89
365.05	228.89
365.43	228.95
365.81	228.98
366.19	229.00
366.57	229.03
366.95	229.02
367.33	229.00
367.71	228.99
368.09	229.01
368.47	229.01
368.85	228.96
369.23	229.01
369.61	228.95
369.99	228.94
370.37	228.94
370.75	228.95
371.13	228.89
371.51	228.85
371.89	228.82
372.27	228.77
372.65	228.72
373.03	228.69
373.41	228.60
373.78	228.52
374.16	228.40
374.54	228.31
374.92	228.26
375.30	228.20
375.68	228.13
376.06	228.07
376.44	228.01
376.82	227.97
377.19	227.88
377.57	227.85
377.95	227.70
378.33	227.59
378.71	227.47
379.09	227.42
379.47	227.37
379.84	227.27
380.22	227.21
380.60	227.13
380.98	227.06
381.36	227.00
381.73	226.90
382.11	226.83
382.49	226.80
382.87	226.74
383.25	226.66
383.62	226.71
384.00	226.62
384.38	226.57
384.76	226.54
385.13	226.50
385.51	226.43
385.89	226.41
386.27	226.38
386.64	226.35
387.02	226.33
387.40	226.29
387.78	226.25
388.15	226.18
388.53	226.15
388.91	226.08
389.29	226.06
389.66	226.05
390.04	226.04
390.42	226.00
390.79	225.95
391.17	225.94
391.55	225.81
391.92	225.78
392.30	225.78
392.68	225.73
393.05	225.70
393.43	225.70
393.81	225.71
394.18	225.68
394.56	225.66
394.94	225.65
395.31	225.63
395.69	225.72
396.06	225.80
396.44	225.80
396.82	225.84
397.19	225.92
397.57	225.93
397.95	225.97
398.32	226.01
398.70	226.08
399.07	226.13
399.45	226.18
399.82	226.24
400.20	226.26
400.58	226.38
400.95	226.42
401.33	226.52
401.70	226.66
402.08	226.76
402.45	226.83
402.83	226.95
403.20	227.04
403.58	227.12
403.95	227.24
404.33	227.39
404.71	227.53
405.08	227.71
405.46	227.89
405.83	228.05
406.21	228.18
406.58	228.34
406.96	228.49
407.33	228.68
407.70	228.89
408.08	229.17
408.45	229.34
408.83	229.57
409.20	229.78
409.58	229.99
409.95	230.26
410.33	230.55
410.70	230.81
411.08	231.14
411.45	231.44
411.82	231.71
412.20	232.09
412.57	232.50
412.95	232.79
413.32	233.19
413.69	233.61
414.07	234.04
414.44	234.51
414.82	235.03
415.19	235.61
415.56	236.17
415.94	236.70
416.31	237.36
416.68	237.99
417.06	238.73
417.43	239.37
417.81	240.13
418.18	240.92
418.55	241.78
418.93	242.66
419.30	243.56
419.67	244.52
420.04	245.46
420.42	246.47
420.79	247.61
421.16	248.79
421.54	249.95
421.91	251.19
422.28	252.46
422.66	253.80
423.03	255.09
423.40	256.45
423.77	257.87
424.15	259.28
424.52	260.73
424.89	262.35
425.26	263.89
425.64	265.36
426.01	266.98
426.38	268.61
426.75	270.26
427.13	271.94
427.50	273.77
427.87	275.62
428.24	277.45
428.61	279.23
428.99	281.14
429.36	283.24
429.73	285.36
430.10	287.38
430.47	289.41
430.85	291.52
431.22	293.74
431.59	296.13
431.96	298.37
432.33	300.88
432.70	303.26
433.08	306.08
433.45	308.69
433.82	311.28
434.19	314.19
434.56	317.00
434.93	319.69
435.30	322.30
435.68	325.22
436.05	328.05
436.42	330.83
436.79	333.35
437.16	336.04
437.53	338.82
437.90	341.61
438.27	344.33
438.64	347.13
439.01	349.66
439.38	351.89
439.75	354.09
440.13	356.58
440.50	358.84
440.87	360.68
441.24	362.58
441.61	364.71
441.98	366.16
442.35	367.92
442.72	369.77
443.09	371.51
443.46	372.44
443.83	373.00
444.20	373.54
444.57	374.36
444.94	374.59
445.31	374.94
445.68	375.30
446.05	375.34
446.42	374.94
446.79	374.55
447.16	374.07
447.53	373.77
447.90	372.58
448.27	371.40
448.64	369.82
449.01	368.70
449.37	366.75
449.74	364.86
450.11	362.69
450.48	360.25
450.85	357.75
451.22	355.63
451.59	353.63
451.96	351.67
452.33	349.09
452.70	346.78
453.07	343.94
453.43	340.99
453.80	338.24
454.17	335.59
454.54	333.07
454.91	330.36
455.28	327.62
455.65	325.14
456.02	322.71
456.38	320.59
456.75	317.99
457.12	315.73
457.49	313.51
457.86	311.32
458.23	309.41
458.59	307.37
458.96	305.29
459.33	303.42
459.70	301.56
460.07	300.03
460.43	298.32
460.80	296.74
461.17	295.34
461.54	293.89
461.91	292.46
462.27	291.00
462.64	289.77
463.01	288.44
463.38	287.15
463.74	285.83
464.11	284.62
464.48	283.57
464.85	282.49
465.21	281.63
465.58	280.72
465.95	279.66
466.32	278.76
466.68	277.87
467.05	277.01
467.42	276.14
467.78	275.24
468.15	274.38
468.52	273.70
468.88	272.88
469.25	272.14
469.62	271.53
469.98	270.88
470.35	270.26
470.72	269.66
471.08	269.06
471.45	268.52
471.82	268.05
472.18	267.48
472.55	267.02
472.92	266.54
473.28	266.08
473.65	265.67
474.02	265.24
474.38	264.89
474.75	264.60
475.11	264.25
475.48	263.98
475.85	263.75
476.21	263.53
476.58	263.36
476.94	263.21
477.31	263.06
477.67	262.90
478.04	262.78
478.41	262.76
478.77	262.82
479.14	262.73
479.50	262.72
479.87	262.79
480.23	262.87
480.60	262.92
480.96	262.99
481.33	263.16
481.69	263.35
482.06	263.52
482.42	263.71
482.79	263.98
483.15	264.29
483.52	264.67
483.88	265.01
484.25	265.34
484.61	265.76
484.98	266.21
485.34	266.76
485.71	267.36
486.07	267.94
486.44	268.49
486.80	269.23
487.17	269.97
487.53	270.72
487.90	271.55
488.26	272.51
488.62	273.50
488.99	274.50
489.35	275.54
489.72	276.70
490.08	277.88
490.44	279.13
490.81	280.50
491.17	281.84
491.54	283.34
491.90	284.89
492.26	286.50
492.63	288.24
492.99	290.07
493.36	291.98
493.72	294.04
494.08	296.16
494.45	298.38
494.81	300.75
495.17	303.27
495.54	305.89
495.90	308.55
496.26	311.35
496.63	314.34
496.99	317.45
497.35	320.72
497.72	324.12
498.08	327.63
498.44	331.29
498.80	335.21
499.17	339.31
499.53	343.48
499.89	347.88
500.26	352.37
500.62	356.98
500.98	361.91
501.34	366.97
501.71	372.36
502.07	377.80
502.43	383.44
502.79	389.18
503.16	395.23
503.52	401.51
503.88	407.94
504.24	414.56
504.60	421.49
504.97	428.64
505.33	435.99
505.69	443.72
506.05	451.46
506.41	459.39
506.78	467.49
507.14	475.97
507.50	484.67
507.86	493.64
508.22	502.87
508.59	512.15
508.95	521.74
509.31	531.55
509.67	541.69
510.03	551.93
510.39	562.56
510.75	573.41
511.12	584.37
511.48	595.65
511.84	607.10
512.20	618.54
512.56	630.47
512.92	642.64
513.28	654.96
513.64	667.48
514.00	680.20
514.37	693.18
514.73	706.22
515.09	719.40
515.45	732.75
515.81	746.42
516.17	760.39
516.53	774.55
516.89	788.69
517.25	802.87
517.61	817.28
517.97	831.70
518.33	846.13
518.69	860.87
519.05	875.75
519.41	890.90
519.77	906.59
520.13	922.10
520.49	937.44
520.85	952.86
521.21	968.56
521.57	984.78
521.93	1000.47
522.29	1016.85
522.65	1032.84
523.01	1049.03
523.37	1065.00
523.73	1081.14
524.09	1097.28
524.45	1113.54
524.81	1130.15
525.17	1146.87
525.53	1163.70
525.89	1180.48
526.25	1197.40
526.61	1213.76
526.97	1230.46
527.33	1246.78
527.68	1263.26
528.04	1279.75
528.40	1296.29
528.76	1313.24
529.12	1329.75
529.48	1346.56
529.84	1362.59
530.20	1379.23
530.56	1396.26
530.91	1413.46
531.27	1430.18
531.63	1446.52
531.99	1463.01
532.35	1478.94
532.71	1494.85
533.07	1511.09
533.42	1527.03
533.78	1542.84
534.14	1559.07
534.50	1574.30
534.86	1590.14
535.21	1605.31
535.57	1621.16
535.93	1636.50
536.29	1651.31
536.65	1666.27
537.00	1680.96
537.36	1696.16
537.72	1710.74
538.08	1725.03
538.44	1738.82
538.79	1752.57
539.15	1766.12
539.51	1779.86
539.87	1794.10
540.22	1807.69
540.58	1821.31
540.94	1834.38
541.29	1847.17
541.65	1859.84
542.01	1873.01
542.37	1885.30
542.72	1897.65
543.08	1909.42
543.44	1921.78
543.79	1932.99
544.15	1943.92
544.51	1955.49
544.87	1966.35
545.22	1977.11
545.58	1987.23
545.94	1996.95
546.29	2006.75
546.65	2016.55
547.01	2025.82
547.36	2034.44
547.72	2042.96
548.07	2050.91
548.43	2059.07
548.79	2067.00
549.14	2074.67
549.50	2081.92
549.86	2089.40
550.21	2096.57
550.57	2103.63
550.92	2110.20
551.28	2117.15
551.64	2124.21
551.99	2130.76
552.35	2136.83
552.70	2142.84
553.06	2148.93
553.41	2155.38
553.77	2161.39
554.13	2167.53
554.48	2173.63
554.84	2179.34
555.19	2184.64
555.55	2189.77
555.90	2194.30
556.26	2199.33
556.61	2203.94
556.97	2208.44
557.32	2212.60
557.68	2216.69
558.03	2221.02
558.39	2224.67
558.74	2229.18
559.10	2233.03
559.45	2236.49
559.81	2240.84
560.16	2244.72
560.52	2247.88
560.87	2251.18
561.23	2253.86
561.58	2256.81
561.94	2259.23
562.29	2261.20
562.64	2263.90
563.00	2266.50
563.35	2270.08
563.71	2273.24
564.06	2276.47
564.42	2279.29
564.77	2281.89
565.12	2284.32
565.48	2286.24
565.83	2288.20
566.19	2289.64
566.54	2290.51
566.89	2291.91
567.25	2292.62
567.60	2293.99
567.96	2295.83
568.31	2296.72
568.66	2297.91
569.02	2298.45
569.37	2298.90
569.72	2300.11
570.08	2300.22
570.43	2300.28
570.78	2299.64
571.14	2298.15
571.49	2296.75
571.84	2296.27
572.20	2295.30
572.55	2294.06
572.90	2292.35
573.26	2290.99
573.61	2289.31
573.96	2287.63
574.31	2284.65
574.67	2281.54
575.02	2277.91
575.37	2274.36
575.72	2270.60
576.08	2267.10
576.43	2263.74
576.78	2260.04
577.13	2256.65
577.49	2253.56
577.84	2250.08
578.19	2246.32
578.54	2242.58
578.90	2238.38
579.25	2232.94
579.60	2227.93
579.95	2223.13
580.30	2218.25
580.66	2213.08
581.01	2208.07
581.36	2203.17
581.71	2199.11
582.06	2194.82
582.42	2190.35
582.77	2185.17
583.12	2180.74
583.47	2176.38
583.82	2171.48
584.17	2166.32
584.53	2160.97
584.88	2155.34
585.23	2149.53
585.58	2144.12
585.93	2138.71
586.28	2133.94
586.63	2128.92
586.98	2123.92
587.34	2119.25
587.69	2114.39
588.04	2109.23
588.39	2103.71
588.74	2097.24
589.09	2090.94
589.44	2084.22
589.79	2078.18
590.14	2072.47
590.49	2065.67
590.84	2059.11
591.19	2053.18
591.54	2046.69
591.89	2039.39
592.25	2032.71
592.60	2025.64
592.95	2018.12
593.30	2010.82
593.65	2003.11
594.00	1996.00
594.35	1988.75
594.70	1980.57
595.05	1973.48
595.40	1966.20
595.75	1958.77
596.10	1952.69
596.45	1946.09
596.80	1940.02
597.15	1933.61
597.50	1926.72
597.85	1920.46
598.19	1913.83
598.54	1906.75
598.89	1900.13
599.24	1894.36
599.59	1887.76
599.94	1881.43
600.29	1875.08
600.64	1868.49
600.99	1861.32
601.34	1854.52
601.69	1847.53
602.04	1840.80
602.39	1833.39
602.74	1826.65
603.08	1819.90
603.43	1813.16
603.78	1805.76
604.13	1798.46
604.48	1791.14
604.83	1784.34
605.18	1777.49
605.53	1769.54
605.87	1761.49
606.22	1754.25
606.57	1746.23
606.92	1738.87
607.27	1731.92
607.62	1725.17
607.96	1717.96
608.31	1711.39
608.66	1703.96
609.01	1696.47
609.36	1689.03
609.70	1681.16
610.05	1673.15
610.40	1665.53
610.75	1657.20
611.10	1649.63
611.44	1641.17
611.79	1633.15
612.14	1624.41
612.49	1615.15
612.83	1606.77
613.18	1598.65
613.53	1590.56
613.88	1581.95
614.22	1573.67
614.57	1564.89
614.92	1556.75
615.27	1549.32
615.61	1540.88
615.96	1532.78
616.31	1525.03
616.65	1517.73
617.00	1510.04
617.35	1502.22
617.70	1493.88
618.04	1485.38
618.39	1477.12
618.74	1469.54
619.08	1461.20
619.43	1453.56
619.78	1446.67
620.12	1439.52
620.47	1432.04
620.82	1423.91
621.16	1416.55
621.51	1408.85
621.85	1401.31
622.20	1392.87
622.55	1384.45
622.89	1376.58
623.24	1368.98
623.59	1361.56
623.93	1353.87
624.28	1346.70
624.62	1339.25
624.97	1331.97
625.32	1325.19
625.66	1318.07
626.01	1310.85
626.35	1303.44
626.70	1295.66
627.04	1288.06
627.39	1280.15
627.73	1272.70
628.08	1265.69
628.43	1258.39
628.77	1251.09
629.12	1243.48
629.46	1236.28
629.81	1228.72
630.15	1221.49
630.50	1213.91
630.84	1205.78
631.19	1197.76
631.53	1190.23
631.88	1182.68
632.22	1175.11
632.57	1167.75
632.91	1160.27
633.26	1152.99
633.60	1145.49
633.95	1138.38
634.29	1131.10
634.64	1124.43
634.98	1117.08
635.32	1109.93
635.67	1103.26
636.01	1096.68
636.36	1089.99
636.70	1083.35
637.05	1076.87
637.39	1070.43
637.73	1064.11
638.08	1058.21
638.42	1052.32
638.77	1045.80
639.11	1039.18
639.45	1032.80
639.80	1026.09
640.14	1019.63
640.49	1012.96
640.83	1006.73
641.17	1000.57
641.52	994.22
641.86	987.82
642.20	981.91
642.55	975.56
642.89	969.08
643.23	962.42
643.58	956.51
643.92	950.34
644.26	944.33
644.61	938.28
644.95	932.32
645.29	925.78
645.64	918.97
645.98	912.69
646.32	906.82
646.66	900.76
647.01	894.97
647.35	889.31
647.69	883.44
648.04	877.93
648.38	872.16
648.72	866.31
649.06	860.29
649.41	854.45
649.75	848.57
650.09	842.61
650.43	836.86
650.78	830.78
651.12	824.85
651.46	819.04
651.80	813.36
652.14	807.82
652.49	802.45
652.83	797.29
653.17	791.60
653.51	785.89
653.85	780.44
654.20	774.84
654.54	768.85
654.88	763.13
655.22	757.24
655.56	751.46
655.90	745.94
656.25	740.67
656.59	735.30
656.93	730.19
657.27	725.06
657.61	719.55
657.95	714.40
658.29	709.31
658.64	704.04
658.98	698.68
659.32	693.27
659.66	688.06
660.00	682.79
660.34	677.93
660.68	673.01
661.02	668.04
661.36	663.34
661.70	658.82
662.05	654.50
662.39	650.19
662.73	645.75
663.07	641.40
663.41	636.91
663.75	632.39
664.09	627.78
664.43	623.43
664.77	619.37
665.11	615.18
665.45	611.07
665.79	606.98
666.13	602.87
666.47	598.72
666.81	594.60
667.15	590.44
667.49	586.43
667.83	582.55
668.17	578.63
668.51	574.59
668.85	570.51
669.19	566.67
669.53	562.74
669.87	558.92
670.21	555.12
670.55	551.53
670.89	548.05
671.23	544.64
671.57	541.08
671.91	537.55
672.25	533.99
672.58	530.46
672.92	527.06
673.26	523.85
673.60	520.78
673.94	517.58
674.28	514.67
674.62	511.76
674.96	508.71
675.30	505.80
675.64	502.85
675.97	500.09
676.31	497.22
676.65	494.31
676.99	491.59
677.33	488.82
677.67	485.99
678.01	483.00
678.34	480.04
678.68	477.14
679.02	474.31
679.36	471.51
679.70	468.79
680.04	466.05
680.37	463.21
680.71	460.37
681.05	457.79
681.39	455.09
681.73	452.43
682.06	449.92
682.40	447.31
682.74	444.79
683.08	442.22
683.42	439.61
683.75	437.13
684.09	434.53
684.43	431.98
684.77	429.48
685.10	427.11
685.44	424.81
685.78	422.54
686.12	420.23
686.45	417.98
686.79	415.67
687.13	413.45
687.46	411.23
687.80	409.06
688.14	406.83
688.48	404.77
688.81	402.52
689.15	400.37
689.49	398.25
689.82	396.17
690.16	394.14
690.50	392.16
690.83	390.25
691.17	388.26
691.51	386.41
691.84	384.56
692.18	382.66
692.52	380.71
692.85	378.78
693.19	376.97
693.52	375.16
693.86	373.36
694.20	371.59
694.53	369.84
694.87	367.98
695.21	366.18
695.54	364.33
695.88	362.57
696.21	360.83
696.55	359.21
696.88	357.48
697.22	355.79
697.56	354.19
697.89	352.50
698.23	350.90
698.56	349.30
698.90	347.79
699.23	346.21
699.57	344.63
699.90	343.07
700.24	341.50
700.58	339.96
700.91	338.50
701.25	337.06
701.58	335.70
701.92	334.36
702.25	333.04
702.59	331.71
702.92	330.42
703.26	329.13
703.59	327.77
703.93	326.58
704.26	325.33
704.60	324.01
704.93	322.75
705.26	321.54
705.60	320.33
705.93	319.11
706.27	318.01
706.60	316.97
706.94	315.91
707.27	314.78
707.61	313.70
707.94	312.63
708.27	311.54
708.61	310.42
708.94	309.39
709.28	308.38
709.61	307.43
709.94	306.45
710.28	305.40
710.61	304.43
710.95	303.38
711.28	302.48
711.61	301.56
711.95	300.62
712.28	299.68
712.61	298.72
712.95	297.82
713.28	296.93
713.61	296.01
713.95	295.10
714.28	294.30
714.61	293.45
714.95	292.58
715.28	291.72
715.61	290.84
715.95	290.00
716.28	289.18
716.61	288.30
716.95	287.49
717.28	286.77
717.61	286.00
717.94	285.23
718.28	284.42
718.61	283.67
718.94	282.99
719.27	282.33
719.61	281.66
719.94	280.96
720.27	280.24
720.60	279.55
720.94	278.92
721.27	278.27
721.60	277.68
721.93	277.10
722.27	276.53
722.60	275.99
722.93	275.43
723.26	274.87
723.59	274.34
723.93	273.77
724.26	273.18
724.59	272.58
724.92	272.09
725.25	271.61
725.59	271.08
725.92	270.53
726.25	269.97
726.58	269.46
726.91	268.98
727.24	268.49
727.57	268.00
727.91	267.51
728.24	267.03
728.57	266.55
728.90	266.10
729.23	265.60
729.56	265.18
729.89	264.67
730.22	264.15
730.55	263.66
730.89	263.24
731.22	262.82
731.55	262.42
731.88	261.98
732.21	261.55
732.54	261.12
732.87	260.71
733.20	260.34
733.53	259.97
733.86	259.59
734.19	259.21
734.52	258.88
734.85	258.56
735.18	258.12
735.51	257.75
735.84	257.36
736.17	257.05
736.50	256.67
736.83	256.49
737.16	256.17
737.49	255.83
737.82	255.51
738.15	255.19
738.48	254.85
738.81	254.56
739.14	254.23
739.47	253.93
739.80	253.67
740.13	253.39
740.46	253.05
740.79	252.72
741.12	252.41
741.45	252.09
741.78	251.74
742.11	251.51
742.44	251.20
742.77	250.95
743.10	250.65
743.43	250.33
743.75	249.91
744.08	249.75
744.41	249.50
744.74	249.21
745.07	248.92
745.40	248.71
745.73	248.49
746.06	248.22
746.39	247.95
746.71	247.66
747.04	247.35
747.37	247.09
747.70	246.86
748.03	246.63
748.36	246.41
748.68	246.16
749.01	245.91
749.34	245.71
749.67	245.46
750.00	245.24
750.33	245.10
750.65	244.91
750.98	244.58
751.31	244.37
751.64	244.16
751.97	243.96
752.29	243.71
752.62	243.42
752.95	243.21
753.28	243.02
753.60	242.77
753.93	242.61
754.26	242.42
754.59	242.19
754.91	241.97
755.24	241.75
755.57	241.54
755.90	241.36
756.22	241.15
756.55	240.95
756.88	240.71
757.20	240.45
757.53	240.26
757.86	240.05
758.19	239.87
758.51	239.70
758.84	239.51
759.17	239.31
759.49	239.13
759.82	238.97
760.15	238.81
760.47	238.69
760.80	238.48
761.13	238.35
761.45	238.18
761.78	238.06
762.11	237.95
762.43	237.83
762.76	237.67
763.08	237.55
763.41	237.43
763.74	237.33
764.06	237.18
764.39	237.04
764.71	236.95
765.04	236.81
765.37	236.67
765.69	236.56
766.02	236.44
766.34	236.32
766.67	236.19
767.00	236.07
767.32	236.03
767.65	236.01
767.97	235.86
768.30	235.78
768.62	235.64
768.95	235.50
769.27	235.40
769.60	235.33
769.92	235.17
770.25	235.04
770.57	234.88
770.90	234.82
771.22	234.71
771.55	234.61
771.87	234.49
772.20	234.44
772.52	234.42
772.85	234.45
773.17	234.36
773.50	234.25
773.82	234.17
774.15	234.00
774.47	233.85
774.80	233.78
775.12	233.68
775.45	233.61
775.77	233.53
776.09	233.47
776.42	233.41
776.74	233.39
777.07	233.34
777.39	233.30
777.72	233.21
778.04	233.16
778.36	233.06
778.69	233.01
779.01	232.95
779.33	232.82
779.66	232.66
779.98	232.60
780.31	232.55
780.63	232.50
780.95	232.46
781.28	232.38
781.60	232.31
781.92	232.27
782.25	232.21
782.57	232.15
782.89	232.08
783.22	231.98
783.54	231.89
783.86	231.82
784.19	231.76
784.51	231.70
784.83	231.61
785.16	231.57
785.48	231.52
785.80	231.49
786.12	231.42
786.45	231.34
786.77	231.30
787.09	231.29
787.42	231.24
787.74	231.20
788.06	231.16
788.38	231.13
788.71	231.09
789.03	231.09
789.35	231.09
789.67	231.06
789.99	231.05
790.32	230.98
790.64	230.95
790.96	230.98
791.28	230.92
791.61	230.90
791.93	230.87
792.25	230.84
792.57	230.82
792.89	230.77
793.21	230.74
793.54	230.70
793.86	230.61
794.18	230.55
794.50	230.51
794.82	230.47
795.14	230.46
795.47	230.43
795.79	230.38
796.11	230.28
796.43	230.22
796.75	230.14
797.07	230.16
797.39	230.16
797.71	230.05
798.04	230.03
798.36	229.98
798.68	229.96
799.00	229.93
799.32	229.85
799.64	229.83
799.96	229.81
800.28	229.78
800.60	229.75
800.92	229.75
801.24	229.70
801.56	229.67
801.89	229.60
802.21	229.57
802.53	229.51
802.85	229.53
803.17	229.52
803.49	229.47
803.81	229.39
804.13	229.34
804.45	229.30
804.77	229.29
805.09	229.27
805.41	229.24
805.73	229.16
806.05	229.11
806.37	229.05
806.69	229.04
807.01	229.02
807.33	228.97
807.65	228.90
807.97	228.90
808.28	228.88
808.60	228.84
808.92	228.76
809.24	228.79
809.56	228.74
809.88	228.71
810.20	228.70
810.52	228.70
810.84	228.66
811.16	228.62
811.48	228.57
811.80	228.55
812.12	228.50
812.43	228.50
812.75	228.47
813.07	228.45
813.39	228.40
813.71	228.33
814.03	228.32
814.35	228.27
814.67	228.22
814.98	228.21
815.30	228.17
815.62	228.14
815.94	228.04
816.26	228.05
816.58	227.98
816.89	227.98
817.21	227.95
817.53	227.93
817.85	227.93
818.17	227.91
818.48	227.86
818.80	227.88
819.12	227.85
819.44	227.85
819.76	227.84
820.07	227.86
820.39	227.85
820.71	227.90
821.03	227.94
821.34	227.94
821.66	227.92
821.98	227.95
822.30	227.98
822.61	228.02
822.93	227.96
823.25	227.96
823.57	227.95
823.88	227.94
824.20	227.92
824.52	227.95
824.83	227.92
825.15	227.91
825.47	227.88
825.79	227.86
826.10	227.81
826.42	227.77
826.74	227.75
827.05	227.75
827.37	227.71
827.69	227.70
828.00	227.71
828.32	227.72
828.64	227.70
828.95	227.71
829.27	227.69
829.58	227.68
829.90	227.68
830.22	227.68
830.53	227.66
830.85	227.64
831.17	227.56
831.48	227.57
831.80	227.58
832.11	227.59
832.43	227.58
832.75	227.61
833.06	227.72
833.38	227.68
833.69	227.69
834.01	227.65
834.32	227.60
834.64	227.53
834.96	227.48
835.27	227.48
835.59	227.45
835.90	227.42
836.22	227.41
836.53	227.40
836.85	227.38
837.16	227.48
837.48	227.46
837.79	227.47
838.11	227.47
838.42	227.43
838.74	227.43
839.05	227.42
839.37	227.43
839.68	227.32
840.00	227.29
840.31	227.26
840.63	227.28
840.94	227.28
841.26	227.28
841.57	227.28
841.88	227.28
842.20	227.28
842.51	227.27
842.83	227.25
843.14	227.31
843.46	227.28
843.77	227.23
844.08	227.21
844.40	227.21
844.71	227.18
845.03	227.18
845.34	227.15
845.65	227.13
845.97	227.08
846.28	227.07
846.60	227.08
846.91	227.08
847.22	227.05
847.54	227.07
847.85	227.05
848.16	227.05
848.48	227.01
848.79	227.00
849.10	227.00
849.42	227.00
849.73	226.87
850.04	226.89
850.36	226.87
850.67	226.89
850.98	226.90
851.30	226.91
851.61	226.92
851.92	226.93
852.23	226.97
852.55	226.97
852.86	226.95
853.17	226.95
853.49	226.98
853.80	227.00
854.11	226.98
854.42	227.00
854.74	226.99
855.05	227.02
855.36	226.95
855.67	226.98
855.99	226.97
856.30	227.10
856.61	227.05
856.92	227.01
857.23	227.02
857.55	227.00
857.86	226.98
858.17	226.97
858.48	226.92
858.79	226.90
859.11	226.88
859.42	226.93
859.73	226.91
860.04	226.88
860.35	226.85
860.66	226.79
860.98	226.77
861.29	226.80
861.60	226.74
861.91	226.80
862.22	226.77
862.53	226.76
862.84	226.68
863.16	226.71
863.47	226.69
863.78	226.66
864.09	226.68
864.40	226.70
864.71	226.71
865.02	226.77
865.33	226.78
865.64	226.78
865.95	226.75
866.27	226.82
866.58	226.82
866.89	226.84
867.20	226.87
867.51	226.84
867.82	226.81
868.13	226.89
868.44	226.84
868.75	226.89
869.06	226.89
869.37	226.89
869.68	226.87
869.99	226.92
870.30	226.95
870.61	226.92
870.92	226.89
871.23	226.85
871.54	226.83
871.85	226.82
872.16	226.82
872.47	226.81
872.78	226.78
873.09	226.77
873.40	226.73
873.71	226.75
874.02	226.81
874.33	226.81
874.64	226.77
874.95	226.82
875.26	226.77
875.56	226.79
875.87	226.77
876.18	226.74
876.49	226.80
876.80	226.77
877.11	226.80
877.42	226.80
877.73	226.83
878.04	226.82
878.35	226.83
878.66	226.82
878.96	226.82
879.27	226.82
879.58	226.82
879.89	226.87
880.20	226.85
880.51	226.83
880.82	226.84
881.12	226.83
881.43	226.77
881.74	226.72
882.05	226.70
882.36	226.68
882.67	226.72
882.97	226.61
883.28	226.61
883.59	226.57
883.90	226.58
884.21	226.57
884.51	226.56
884.82	226.53
885.13	226.54
885.44	226.55
885.74	226.53
886.05	226.50
886.36	226.48
886.67	226.45
886.98	226.50
887.28	226.45
887.59	226.46
887.90	226.46
888.20	226.48
888.51	226.49
888.82	226.49
889.13	226.50
889.43	226.56
889.74	226.54
890.05	226.50
890.35	226.48
890.66	226.45
890.97	226.43
891.28	226.42
891.58	226.44
891.89	226.41
892.20	226.38
892.50	226.38
892.81	226.38
893.12	226.38
893.42	226.30
893.73	226.32
894.04	226.30
894.34	226.31
894.65	226.32
894.95	226.31
895.26	226.32
895.57	226.34
895.87	226.27
896.18	226.28
896.48	226.32
896.79	226.33
897.10	226.36
897.40	226.38
897.71	226.41
898.01	226.40
898.32	226.43
898.63	226.42
898.93	226.42
899.24	226.40
899.54	226.41
899.85	226.44
900.15	226.47
900.46	226.46
900.76	226.47
901.07	226.48
901.38	226.50
901.68	226.53
901.99	226.50
902.29	226.54
902.60	226.56
902.90	226.56
903.21	226.56
903.51	226.55
903.82	226.58
904.12	226.55
904.43	226.57
904.73	226.55
905.03	226.60
905.34	226.71
905.64	226.71
905.95	226.71
906.25	226.71
906.56	226.70
906.86	226.73
907.17	226.72
907.47	226.71
907.77	226.74
908.08	226.70
908.38	226.70
908.69	226.69
908.99	226.75
909.30	226.76
909.60	226.74
909.90	226.76
910.21	226.73
910.51	226.73
910.81	226.72
911.12	226.71
911.42	226.71
911.73	226.63
912.03	226.66
912.33	226.67
912.64	226.70
912.94	226.69
913.24	226.65
913.55	226.64
913.85	226.62
914.15	226.58
914.46	226.60
914.76	226.59
915.06	226.58
915.37	226.51
915.67	226.51
915.97	226.53
916.27	226.53
916.58	226.54
916.88	226.53
917.18	226.50
917.49	226.57
917.79	226.56
918.09	226.58
918.39	226.60
918.70	226.63
919.00	226.58
919.30	226.62
919.60	226.62
919.91	226.64
920.21	226.65
920.51	226.61
920.81	226.55
921.12	226.54
921.42	226.54
921.72	226.55
922.02	226.54
922.32	226.56
922.63	226.51
922.93	226.55
923.23	226.55
923.53	226.57
923.83	226.53
924.13	226.54
924.44	226.52
924.74	226.48
925.04	226.47
925.34	226.49
925.64	226.47
925.94	226.48
926.24	226.52
926.55	226.52
926.85	226.54
927.15	226.59
927.45	226.60
927.75	226.62
928.05	226.62
928.35	226.62
928.65	226.60
928.95	226.63
929.26	226.58
929.56	226.58
929.86	226.58
930.16	226.58
930.46	226.57
930.76	226.57
931.06	226.58
931.36	226.56
931.66	226.57
931.96	226.55
932.26	226.56
932.56	226.52
932.86	226.53
933.16	226.54
933.46	226.51
933.76	226.48
934.06	226.48
934.36	226.51
934.66	226.50
934.96	226.51
935.26	226.54
935.56	226.55
935.86	226.56
936.16	226.55
936.46	226.53
936.76	226.52
937.06	226.52
937.36	226.50
937.66	226.51
937.96	226.50
938.26	226.51
938.56	226.49
938.86	226.49
939.16	226.55
939.46	226.59
939.76	226.62
940.06	226.66
940.35	226.67
940.65	226.63
940.95	226.62
941.25	226.61
941.55	226.58
941.85	226.59
942.15	226.60
942.45	226.67
942.75	226.66
943.04	226.70
943.34	226.70
943.64	226.66
943.94	226.62
944.24	226.61
944.54	226.59
944.84	226.59
945.13	226.56
945.43	226.51
945.73	226.48
946.03	226.47
946.33	226.47
946.62	226.44
946.92	226.43
947.22	226.44
947.52	226.45
947.82	226.44
948.11	226.40
948.41	226.39
948.71	226.33
949.01	226.33
949.31	226.31
949.60	226.29
949.90	226.34
950.20	226.37
950.50	226.36
950.79	226.38
951.09	226.38
951.39	226.45
951.69	226.41
951.98	226.42
952.28	226.42
952.58	226.40
952.87	226.37
953.17	226.36
953.47	226.34
953.76	226.32
954.06	226.32
954.36	226.31
954.66	226.28
954.95	226.31
955.25	226.30
955.55	226.27
955.84	226.24
956.14	226.22
956.44	226.18
956.73	226.16
957.03	226.12
957.32	226.13
957.62	226.08
957.92	226.11
958.21	226.08
958.51	226.19
958.81	226.22
959.10	226.23
959.40	226.29
959.69	226.30
959.99	226.31
960.29	226.28
960.58	226.28
960.88	226.32
961.17	226.29
961.47	226.28
961.76	226.28
962.06	226.33
962.36	226.31
962.65	226.34
962.95	226.35
963.24	226.37
963.54	226.39
963.83	226.38
964.13	226.38
964.42	226.34
964.72	226.22
965.01	226.20
965.31	226.21
965.60	226.17
965.90	226.23
966.19	226.19
966.49	226.20
966.78	226.22
967.08	226.22
967.37	226.21
967.67	226.22
967.96	226.24
968.26	226.22
968.55	226.23
968.85	226.22
969.14	226.21
969.43	226.18
969.73	226.15
970.02	226.15
970.32	226.14
970.61	226.14
970.91	226.14
971.20	226.13
971.49	226.07
971.79	226.11
972.08	226.03
972.38	226.03
972.67	226.04
972.96	226.05
973.26	226.02
973.55	226.06
973.85	226.04
974.14	226.05
974.43	226.06
974.73	226.06
975.02	226.08
975.31	226.07
975.61	226.11
975.90	226.08
976.19	226.09
976.49	226.09
976.78	226.10
977.07	226.11
977.37	226.16
977.66	226.20
977.95	226.16
978.24	226.18
978.54	226.23
978.83	226.21
979.12	226.20
979.42	226.21
979.71	226.18
980.00	226.20
980.29	226.21
980.59	226.18
980.88	226.21
981.17	226.20
981.46	226.21
981.76	226.22
982.05	226.28
982.34	226.26
982.63	226.33
982.93	226.35
983.22	226.39
983.51	226.38
983.80	226.41
984.09	226.43
984.39	226.43
984.68	226.40
984.97	226.41
985.26	226.43
985.55	226.41
985.85	226.42
986.14	226.44
986.43	226.44
986.72	226.44
987.01	226.42
987.30	226.40
987.59	226.37
987.89	226.37
988.18	226.33
988.47	226.35
988.76	226.25
989.05	226.21
989.34	226.19
989.63	226.18
989.92	226.14
990.22	226.12
990.51	226.14
990.80	226.13
991.09	226.16
991.38	226.14
991.67	226.15
991.96	226.13
992.25	226.13
992.54	226.11
992.83	226.13
993.12	226.12
993.41	226.16
993.70	226.23
993.99	226.26
994.28	226.31
994.58	226.30
994.87	226.34
995.16	226.39
995.45	226.36
995.74	226.33
996.03	226.38
996.32	226.43
996.61	226.47
996.90	226.47
997.19	226.45
997.48	226.46
997.77	226.46
998.06	226.50
998.34	226.51
998.63	226.50
998.92	226.51
999.21	226.53
999.50	226.53
999.79	226.49
1000.08	226.50
1000.37	226.46
1000.66	226.48
1000.95	226.51
1001.24	226.48
1001.53	226.51
1001.82	226.50
1002.11	226.48
1002.40	226.47
1002.68	226.48
1002.97	226.52
1003.26	226.52
1003.55	226.50
1003.84	226.49
1004.13	226.50
1004.42	226.47
1004.71	226.45
1004.99	226.43
1005.28	226.44
1005.57	226.43
1005.86	226.40
1006.15	226.36
1006.44	226.33
1006.72	226.34
1007.01	226.30
1007.30	226.30
1007.59	226.28
1007.88	226.30
1008.17	226.29
1008.45	226.25
1008.74	226.19
1009.03	226.15
1009.32	226.13
1009.60	226.12
1009.89	226.11
1010.18	226.08
1010.47	226.07
1010.76	226.07
1011.04	226.04
1011.33	226.05
1011.62	226.03
1011.91	226.04
1012.19	226.05
1012.48	226.09
1012.77	226.07
1013.05	226.13
1013.34	226.12
1013.63	226.13
1013.92	226.11
1014.20	226.09
1014.49	226.10
1014.78	226.10
1015.06	226.08
1015.35	226.10
1015.64	226.10
1015.92	226.13
1016.21	226.12
1016.50	226.12
1016.78	226.10
1017.07	226.13
1017.36	226.07
1017.64	226.09
1017.93	226.10
1018.22	226.08
1018.50	226.07
1018.79	226.05
1019.08	226.00
1019.36	226.02
1019.65	226.00
1019.93	226.03
1020.22	226.07
1020.51	226.12
1020.79	226.12
1021.08	225.78
1021.36	226.21
1021.65	225.97
1021.94	226.20
1022.22	226.45
1022.51	225.92
1022.79	226.35
1023.08	226.69
1023.36	227.21
1023.65	226.18
>>>>>End Processed Spectral Data<<<<<
