SpectraSuite Data File
++++++++++++++++++++++++++++++++++++
Date: Fri Feb 01 16:22:49 EST 2013
User: group
Dark Spectrum Present: No
Reference Spectrum Present: No
Number of Sampled Component Spectra: 1
Spectrometers: USB2E7196
Integration Time (usec): 35000 (USB2E7196)
Spectra Averaged: 100 (USB2E7196)
Boxcar Smoothing: 10 (USB2E7196)
Correct for Electrical Dark: No (USB2E7196)
Strobe/Lamp Enabled: No (USB2E7196)
Correct for Detector Non-linearity: No (USB2E7196)
Correct for Stray Light: No (USB2E7196)
Number of Pixels in Processed Spectrum: 2048
>>>>>Begin Processed Spectral Data<<<<<
339.09	0.00
339.48	214.30
339.86	215.00
340.24	216.85
340.63	217.82
341.01	220.86
341.39	220.52
341.78	222.64
342.16	223.83
342.54	224.20
342.93	212.39
343.31	223.10
343.69	223.63
344.07	224.12
344.46	224.55
344.84	224.96
345.22	225.21
345.60	225.47
345.99	225.65
346.37	225.75
346.75	225.81
347.13	225.86
347.52	225.89
347.90	225.95
348.28	225.99
348.66	226.07
349.05	226.07
349.43	226.08
349.81	226.10
350.19	226.11
350.57	226.17
350.96	226.22
351.34	226.32
351.72	226.39
352.10	226.46
352.48	226.54
352.87	226.57
353.25	226.63
353.63	226.66
354.01	226.69
354.39	226.76
354.77	226.88
355.15	227.00
355.54	227.02
355.92	227.06
356.30	227.11
356.68	227.23
357.06	227.28
357.44	227.33
357.82	227.40
358.20	227.52
358.58	227.60
358.97	227.68
359.35	227.74
359.73	227.83
360.11	227.89
360.49	227.94
360.87	227.99
361.25	228.04
361.63	228.13
362.01	228.19
362.39	228.23
362.77	228.24
363.15	228.26
363.53	228.30
363.91	228.33
364.29	228.38
364.67	228.32
365.05	228.33
365.43	228.36
365.81	228.38
366.19	228.38
366.57	228.42
366.95	228.39
367.33	228.40
367.71	228.39
368.09	228.39
368.47	228.35
368.85	228.36
369.23	228.36
369.61	228.31
369.99	228.31
370.37	228.28
370.75	228.30
371.13	228.28
371.51	228.25
371.89	228.20
372.27	228.15
372.65	228.10
373.03	228.09
373.41	228.03
373.78	227.97
374.16	227.89
374.54	227.80
374.92	227.75
375.30	227.67
375.68	227.58
376.06	227.48
376.44	227.42
376.82	227.33
377.19	227.29
377.57	227.23
377.95	227.15
378.33	227.09
378.71	226.97
379.09	226.92
379.47	226.90
379.84	226.83
380.22	226.77
380.60	226.70
380.98	226.64
381.36	226.59
381.73	226.50
382.11	226.46
382.49	226.41
382.87	226.32
383.25	226.24
383.62	226.31
384.00	226.28
384.38	226.25
384.76	226.25
385.13	226.23
385.51	226.18
385.89	226.12
386.27	226.08
386.64	226.04
387.02	225.96
387.40	225.88
387.78	225.86
388.15	225.83
388.53	225.79
388.91	225.73
389.29	225.69
389.66	225.70
390.04	225.66
390.42	225.62
390.79	225.60
391.17	225.63
391.55	225.54
391.92	225.54
392.30	225.56
392.68	225.53
393.05	225.51
393.43	225.55
393.81	225.56
394.18	225.55
394.56	225.55
394.94	225.58
395.31	225.60
395.69	225.61
396.06	225.62
396.44	225.66
396.82	225.71
397.19	225.79
397.57	225.83
397.95	225.89
398.32	225.93
398.70	226.01
399.07	226.08
399.45	226.11
399.82	226.17
400.20	226.20
400.58	226.27
400.95	226.31
401.33	226.38
401.70	226.51
402.08	226.62
402.45	226.73
402.83	226.87
403.20	226.97
403.58	227.08
403.95	227.25
404.33	227.38
404.71	227.44
405.08	227.61
405.46	227.71
405.83	227.83
406.21	227.98
406.58	228.18
406.96	228.29
407.33	228.47
407.70	228.65
408.08	228.93
408.45	229.10
408.83	229.31
409.20	229.48
409.58	229.64
409.95	229.90
410.33	230.16
410.70	230.39
411.08	230.65
411.45	230.91
411.82	231.18
412.20	231.49
412.57	231.95
412.95	232.27
413.32	232.66
413.69	233.12
414.07	233.54
414.44	233.94
414.82	234.43
415.19	234.96
415.56	235.49
415.94	236.04
416.31	236.69
416.68	237.30
417.06	238.06
417.43	238.76
417.81	239.49
418.18	240.25
418.55	241.09
418.93	242.03
419.30	242.95
419.67	243.88
420.04	244.90
420.42	245.89
420.79	247.07
421.16	248.19
421.54	249.34
421.91	250.56
422.28	251.82
422.66	253.18
423.03	254.51
423.40	255.85
423.77	257.23
424.15	258.69
424.52	260.24
424.89	261.86
425.26	263.39
425.64	264.86
426.01	266.43
426.38	268.08
426.75	269.72
427.13	271.45
427.50	273.24
427.87	275.08
428.24	276.93
428.61	278.67
428.99	280.64
429.36	282.76
429.73	284.82
430.10	286.89
430.47	288.91
430.85	291.00
431.22	293.24
431.59	295.61
431.96	297.81
432.33	300.23
432.70	302.60
433.08	305.46
433.45	308.09
433.82	310.72
434.19	313.55
434.56	316.35
434.93	319.04
435.30	321.69
435.68	324.61
436.05	327.44
436.42	330.18
436.79	332.68
437.16	335.31
437.53	338.12
437.90	340.90
438.27	343.63
438.64	346.45
439.01	349.02
439.38	351.24
439.75	353.42
440.13	355.90
440.50	358.24
440.87	360.02
441.24	361.96
441.61	364.12
441.98	365.61
442.35	367.38
442.72	369.17
443.09	370.93
443.46	371.88
443.83	372.44
444.20	372.96
444.57	373.79
444.94	374.06
445.31	374.40
445.68	374.77
446.05	374.87
446.42	374.52
446.79	374.09
447.16	373.63
447.53	373.33
447.90	372.14
448.27	370.95
448.64	369.35
449.01	368.20
449.37	366.22
449.74	364.31
450.11	362.06
450.48	359.62
450.85	357.13
451.22	355.02
451.59	353.03
451.96	351.11
452.33	348.55
452.70	346.26
453.07	343.43
453.43	340.53
453.80	337.77
454.17	335.08
454.54	332.52
454.91	329.83
455.28	327.13
455.65	324.66
456.02	322.23
456.38	320.10
456.75	317.46
457.12	315.23
457.49	313.06
457.86	310.94
458.23	309.08
458.59	307.01
458.96	304.91
459.33	303.04
459.70	301.16
460.07	299.65
460.43	297.95
460.80	296.36
461.17	294.90
461.54	293.40
461.91	291.97
462.27	290.55
462.64	289.29
463.01	287.94
463.38	286.67
463.74	285.27
464.11	284.14
464.48	283.13
464.85	282.02
465.21	281.16
465.58	280.23
465.95	279.15
466.32	278.26
466.68	277.35
467.05	276.45
467.42	275.60
467.78	274.70
468.15	273.81
468.52	273.17
468.88	272.33
469.25	271.56
469.62	270.94
469.98	270.28
470.35	269.68
470.72	269.13
471.08	268.47
471.45	267.97
471.82	267.41
472.18	266.81
472.55	266.37
472.92	265.87
473.28	265.44
473.65	265.01
474.02	264.58
474.38	264.25
474.75	263.95
475.11	263.61
475.48	263.36
475.85	263.19
476.21	262.94
476.58	262.78
476.94	262.66
477.31	262.51
477.67	262.44
478.04	262.35
478.41	262.32
478.77	262.40
479.14	262.33
479.50	262.38
479.87	262.48
480.23	262.60
480.60	262.68
480.96	262.76
481.33	262.96
481.69	263.18
482.06	263.40
482.42	263.59
482.79	263.82
483.15	264.14
483.52	264.48
483.88	264.87
484.25	265.29
484.61	265.69
484.98	266.14
485.34	266.68
485.71	267.27
486.07	267.85
486.44	268.43
486.80	269.17
487.17	269.88
487.53	270.67
487.90	271.51
488.26	272.46
488.62	273.45
488.99	274.44
489.35	275.52
489.72	276.59
490.08	277.80
490.44	279.09
490.81	280.43
491.17	281.76
491.54	283.23
491.90	284.77
492.26	286.44
492.63	288.21
492.99	289.97
493.36	291.85
493.72	293.89
494.08	295.99
494.45	298.25
494.81	300.61
495.17	303.02
495.54	305.61
495.90	308.27
496.26	311.09
496.63	314.05
496.99	317.08
497.35	320.35
497.72	323.78
498.08	327.27
498.44	330.93
498.80	334.88
499.17	338.90
499.53	343.07
499.89	347.43
500.26	351.92
500.62	356.57
500.98	361.57
501.34	366.68
501.71	372.00
502.07	377.42
502.43	383.05
502.79	388.89
503.16	395.01
503.52	401.34
503.88	407.72
504.24	414.33
504.60	421.33
504.97	428.47
505.33	435.81
505.69	443.56
506.05	451.40
506.41	459.31
506.78	467.51
507.14	475.98
507.50	484.66
507.86	493.68
508.22	502.90
508.59	512.04
508.95	521.60
509.31	531.41
509.67	541.57
510.03	551.93
510.39	562.56
510.75	573.32
511.12	584.25
511.48	595.62
511.84	607.14
512.20	618.56
512.56	630.51
512.92	642.65
513.28	654.94
513.64	667.38
514.00	680.07
514.37	693.01
514.73	706.03
515.09	719.12
515.45	732.47
515.81	746.06
516.17	760.11
516.53	774.25
516.89	788.48
517.25	802.62
517.61	816.92
517.97	831.36
518.33	845.73
518.69	860.46
519.05	875.36
519.41	890.42
519.77	906.00
520.13	921.38
520.49	936.68
520.85	952.01
521.21	967.70
521.57	983.82
521.93	999.52
522.29	1015.88
522.65	1032.12
523.01	1048.28
523.37	1064.21
523.73	1080.32
524.09	1096.32
524.45	1112.60
524.81	1129.17
525.17	1145.95
525.53	1162.71
525.89	1179.65
526.25	1196.43
526.61	1212.86
526.97	1229.64
527.33	1246.03
527.68	1262.59
528.04	1279.10
528.40	1295.60
528.76	1312.54
529.12	1329.27
529.48	1346.00
529.84	1361.86
530.20	1378.43
530.56	1395.31
530.91	1412.69
531.27	1429.38
531.63	1445.77
531.99	1462.25
532.35	1478.07
532.71	1493.91
533.07	1510.11
533.42	1525.85
533.78	1541.75
534.14	1557.87
534.50	1573.06
534.86	1588.90
535.21	1604.11
535.57	1619.97
535.93	1635.45
536.29	1650.19
536.65	1664.98
537.00	1679.73
537.36	1694.99
537.72	1709.49
538.08	1724.00
538.44	1737.74
538.79	1751.45
539.15	1765.03
539.51	1778.56
539.87	1792.75
540.22	1806.39
540.58	1820.04
540.94	1833.30
541.29	1846.19
541.65	1858.69
542.01	1871.80
542.37	1884.03
542.72	1896.33
543.08	1907.96
543.44	1920.28
543.79	1931.51
544.15	1942.48
544.51	1953.98
544.87	1964.90
545.22	1975.57
545.58	1985.59
545.94	1995.33
546.29	2005.09
546.65	2015.00
547.01	2024.36
547.36	2033.09
547.72	2041.48
548.07	2049.31
548.43	2057.29
548.79	2065.33
549.14	2072.83
549.50	2080.17
549.86	2087.69
550.21	2094.90
550.57	2102.01
550.92	2108.50
551.28	2115.37
551.64	2122.50
551.99	2129.04
552.35	2135.14
552.70	2141.24
553.06	2147.08
553.41	2153.22
553.77	2159.29
554.13	2165.35
554.48	2171.30
554.84	2176.75
555.19	2182.04
555.55	2187.11
555.90	2191.66
556.26	2196.61
556.61	2201.50
556.97	2205.77
557.32	2209.91
557.68	2214.03
558.03	2218.43
558.39	2222.16
558.74	2226.79
559.10	2230.63
559.45	2234.26
559.81	2238.66
560.16	2242.50
560.52	2245.82
560.87	2249.26
561.23	2252.00
561.58	2254.93
561.94	2257.53
562.29	2259.89
562.64	2262.50
563.00	2265.09
563.35	2268.68
563.71	2271.64
564.06	2274.78
564.42	2277.66
564.77	2280.14
565.12	2282.55
565.48	2284.53
565.83	2286.47
566.19	2287.76
566.54	2288.58
566.89	2289.77
567.25	2290.13
567.60	2291.35
567.96	2293.12
568.31	2294.20
568.66	2295.38
569.02	2295.96
569.37	2296.41
569.72	2297.48
570.08	2297.62
570.43	2297.80
570.78	2297.18
571.14	2295.72
571.49	2294.34
571.84	2294.13
572.20	2293.16
572.55	2292.15
572.90	2290.50
573.26	2289.19
573.61	2287.78
573.96	2286.00
574.31	2283.02
574.67	2280.22
575.02	2276.79
575.37	2273.37
575.72	2269.55
576.08	2266.19
576.43	2262.81
576.78	2259.06
577.13	2255.74
577.49	2252.84
577.84	2249.32
578.19	2245.74
578.54	2242.15
578.90	2238.10
579.25	2232.58
579.60	2227.58
579.95	2222.55
580.30	2217.64
580.66	2212.48
581.01	2207.40
581.36	2202.73
581.71	2198.63
582.06	2194.23
582.42	2189.81
582.77	2184.73
583.12	2180.19
583.47	2175.57
583.82	2170.61
584.17	2165.49
584.53	2160.23
584.88	2154.60
585.23	2148.92
585.58	2143.49
585.93	2138.03
586.28	2133.34
586.63	2128.40
586.98	2123.54
587.34	2118.88
587.69	2113.96
588.04	2108.84
588.39	2103.33
588.74	2096.77
589.09	2090.66
589.44	2084.04
589.79	2078.00
590.14	2072.49
590.49	2065.90
590.84	2059.57
591.19	2053.74
591.54	2047.38
591.89	2039.96
592.25	2033.20
592.60	2025.99
592.95	2018.41
593.30	2011.08
593.65	2003.45
594.00	1996.35
594.35	1989.08
594.70	1981.17
595.05	1974.09
595.40	1966.77
595.75	1959.22
596.10	1953.11
596.45	1946.47
596.80	1940.28
597.15	1933.66
597.50	1926.48
597.85	1920.11
598.19	1913.52
598.54	1906.34
598.89	1899.70
599.24	1893.92
599.59	1887.26
599.94	1881.16
600.29	1874.91
600.64	1868.49
600.99	1861.09
601.34	1854.34
601.69	1847.46
602.04	1840.51
602.39	1833.23
602.74	1826.35
603.08	1819.68
603.43	1812.89
603.78	1805.63
604.13	1798.31
604.48	1791.15
604.83	1784.39
605.18	1777.45
605.53	1769.36
605.87	1761.48
606.22	1754.32
606.57	1746.39
606.92	1739.13
607.27	1732.06
607.62	1725.12
607.96	1717.82
608.31	1711.32
608.66	1703.70
609.01	1696.09
609.36	1688.66
609.70	1680.58
610.05	1672.65
610.40	1665.02
610.75	1656.87
611.10	1649.33
611.44	1641.03
611.79	1632.98
612.14	1624.21
612.49	1615.12
612.83	1606.75
613.18	1598.59
613.53	1590.43
613.88	1581.84
614.22	1573.54
614.57	1564.83
614.92	1556.75
615.27	1549.15
615.61	1540.67
615.96	1532.64
616.31	1524.89
616.65	1517.44
617.00	1509.87
617.35	1502.21
617.70	1493.88
618.04	1485.26
618.39	1476.92
618.74	1469.26
619.08	1460.92
619.43	1453.33
619.78	1446.39
620.12	1439.30
620.47	1431.74
620.82	1423.54
621.16	1416.08
621.51	1408.41
621.85	1400.83
622.20	1392.31
622.55	1383.93
622.89	1376.10
623.24	1368.43
623.59	1361.14
623.93	1353.53
624.28	1346.29
624.62	1338.68
624.97	1331.40
625.32	1324.58
625.66	1317.59
626.01	1310.50
626.35	1303.13
626.70	1295.42
627.04	1287.65
627.39	1279.82
627.73	1272.40
628.08	1265.51
628.43	1258.25
628.77	1250.86
629.12	1243.29
629.46	1236.18
629.81	1228.90
630.15	1221.75
630.50	1214.25
630.84	1206.02
631.19	1198.19
631.53	1190.64
631.88	1183.09
632.22	1175.58
632.57	1168.26
632.91	1160.62
633.26	1153.24
633.60	1145.75
633.95	1138.72
634.29	1131.72
634.64	1125.01
634.98	1117.64
635.32	1110.46
635.67	1103.86
636.01	1097.33
636.36	1090.50
636.70	1083.97
637.05	1077.28
637.39	1070.79
637.73	1064.40
638.08	1058.45
638.42	1052.48
638.77	1046.10
639.11	1039.50
639.45	1033.09
639.80	1026.52
640.14	1020.23
640.49	1013.66
640.83	1007.45
641.17	1001.08
641.52	994.70
641.86	988.23
642.20	982.36
642.55	976.07
642.89	969.59
643.23	962.97
643.58	957.21
643.92	951.02
644.26	945.03
644.61	938.94
644.95	932.92
645.29	926.33
645.64	919.57
645.98	913.29
646.32	907.49
646.66	901.44
647.01	895.61
647.35	889.79
647.69	883.88
648.04	878.27
648.38	872.46
648.72	866.43
649.06	860.42
649.41	854.52
649.75	848.54
650.09	842.55
650.43	836.81
650.78	830.65
651.12	824.66
651.46	818.87
651.80	813.13
652.14	807.66
652.49	802.39
652.83	797.18
653.17	791.43
653.51	785.67
653.85	780.26
654.20	774.61
654.54	768.59
654.88	762.87
655.22	757.03
655.56	751.34
655.90	745.87
656.25	740.63
656.59	735.25
656.93	730.18
657.27	725.04
657.61	719.54
657.95	714.46
658.29	709.39
658.64	704.11
658.98	698.81
659.32	693.34
659.66	688.14
660.00	682.82
660.34	677.84
660.68	672.93
661.02	667.88
661.36	663.15
661.70	658.69
662.05	654.36
662.39	650.04
662.73	645.58
663.07	641.22
663.41	636.69
663.75	632.21
664.09	627.63
664.43	623.21
664.77	619.11
665.11	614.82
665.45	610.66
665.79	606.56
666.13	602.41
666.47	598.44
666.81	594.28
667.15	590.13
667.49	586.23
667.83	582.36
668.17	578.44
668.51	574.39
668.85	570.33
669.19	566.46
669.53	562.62
669.87	558.78
670.21	555.11
670.55	551.56
670.89	548.12
671.23	544.72
671.57	541.18
671.91	537.67
672.25	534.21
672.58	530.70
672.92	527.31
673.26	524.14
673.60	520.93
673.94	517.79
674.28	514.92
674.62	512.03
674.96	508.96
675.30	506.06
675.64	503.08
675.97	500.28
676.31	497.37
676.65	494.42
676.99	491.69
677.33	488.83
677.67	485.93
678.01	482.91
678.34	479.89
678.68	477.05
679.02	474.18
679.36	471.34
679.70	468.65
680.04	465.92
680.37	463.04
680.71	460.24
681.05	457.58
681.39	454.83
681.73	452.09
682.06	449.53
682.40	446.95
682.74	444.44
683.08	441.90
683.42	439.30
683.75	436.84
684.09	434.29
684.43	431.80
684.77	429.37
685.10	427.06
685.44	424.77
685.78	422.50
686.12	420.25
686.45	418.00
686.79	415.67
687.13	413.45
687.46	411.31
687.80	409.18
688.14	406.94
688.48	404.87
688.81	402.61
689.15	400.51
689.49	398.34
689.82	396.23
690.16	394.14
690.50	392.21
690.83	390.21
691.17	388.23
691.51	386.32
691.84	384.43
692.18	382.49
692.52	380.50
692.85	378.52
693.19	376.64
693.52	374.78
693.86	372.93
694.20	371.17
694.53	369.42
694.87	367.50
695.21	365.74
695.54	363.93
695.88	362.21
696.21	360.44
696.55	358.79
696.88	357.11
697.22	355.45
697.56	353.81
697.89	352.17
698.23	350.55
698.56	348.92
698.90	347.36
699.23	345.69
699.57	344.13
699.90	342.60
700.24	341.08
700.58	339.55
700.91	338.08
701.25	336.58
701.58	335.13
701.92	333.81
702.25	332.43
702.59	331.06
702.92	329.74
703.26	328.43
703.59	327.16
703.93	325.95
704.26	324.69
704.60	323.37
704.93	322.08
705.26	320.79
705.60	319.62
705.93	318.41
706.27	317.39
706.60	316.33
706.94	315.27
707.27	314.09
707.61	313.05
707.94	312.01
708.27	310.88
708.61	309.85
708.94	308.83
709.28	307.88
709.61	306.91
709.94	306.01
710.28	305.03
710.61	304.04
710.95	302.97
711.28	302.07
711.61	301.16
711.95	300.28
712.28	299.36
712.61	298.41
712.95	297.45
713.28	296.53
713.61	295.63
713.95	294.71
714.28	293.89
714.61	293.04
714.95	292.19
715.28	291.34
715.61	290.46
715.95	289.55
716.28	288.64
716.61	287.80
716.95	286.93
717.28	286.18
717.61	285.39
717.94	284.66
718.28	283.87
718.61	283.13
718.94	282.42
719.27	281.75
719.61	281.07
719.94	280.41
720.27	279.72
720.60	279.07
720.94	278.44
721.27	277.82
721.60	277.18
721.93	276.59
722.27	276.10
722.60	275.55
722.93	275.01
723.26	274.49
723.59	273.95
723.93	273.40
724.26	272.82
724.59	272.27
724.92	271.74
725.25	271.24
725.59	270.73
725.92	270.21
726.25	269.71
726.58	269.23
726.91	268.77
727.24	268.32
727.57	267.83
727.91	267.34
728.24	266.87
728.57	266.42
728.90	265.98
729.23	265.48
729.56	265.05
729.89	264.57
730.22	264.12
730.55	263.66
730.89	263.23
731.22	262.81
731.55	262.38
731.88	261.98
732.21	261.54
732.54	261.09
732.87	260.65
733.20	260.24
733.53	259.85
733.86	259.47
734.19	259.03
734.52	258.64
734.85	258.30
735.18	257.92
735.51	257.56
735.84	257.17
736.17	256.82
736.50	256.39
736.83	256.17
737.16	255.85
737.49	255.50
737.82	255.16
738.15	254.84
738.48	254.48
738.81	254.13
739.14	253.83
739.47	253.50
739.80	253.23
740.13	252.95
740.46	252.61
740.79	252.27
741.12	251.96
741.45	251.65
741.78	251.32
742.11	251.04
742.44	250.72
742.77	250.43
743.10	250.11
743.43	249.82
743.75	249.45
744.08	249.27
744.41	249.00
744.74	248.71
745.07	248.41
745.40	248.18
745.73	247.97
746.06	247.70
746.39	247.45
746.71	247.18
747.04	246.87
747.37	246.65
747.70	246.42
748.03	246.18
748.36	245.95
748.68	245.70
749.01	245.40
749.34	245.15
749.67	244.93
750.00	244.67
750.33	244.55
750.65	244.34
750.98	244.02
751.31	243.76
751.64	243.59
751.97	243.40
752.29	243.17
752.62	242.91
752.95	242.67
753.28	242.49
753.60	242.26
753.93	242.12
754.26	241.89
754.59	241.68
754.91	241.49
755.24	241.29
755.57	241.12
755.90	240.95
756.22	240.76
756.55	240.54
756.88	240.37
757.20	240.10
757.53	239.85
757.86	239.64
758.19	239.53
758.51	239.32
758.84	239.13
759.17	238.96
759.49	238.78
759.82	238.67
760.15	238.48
760.47	238.34
760.80	238.15
761.13	238.03
761.45	237.91
761.78	237.74
762.11	237.61
762.43	237.46
762.76	237.31
763.08	237.17
763.41	237.04
763.74	236.93
764.06	236.81
764.39	236.71
764.71	236.61
765.04	236.44
765.37	236.33
765.69	236.22
766.02	236.10
766.34	235.99
766.67	235.86
767.00	235.80
767.32	235.72
767.65	235.67
767.97	235.54
768.30	235.43
768.62	235.35
768.95	235.24
769.27	235.15
769.60	235.09
769.92	234.99
770.25	234.87
770.57	234.76
770.90	234.64
771.22	234.52
771.55	234.38
771.87	234.34
772.20	234.23
772.52	234.20
772.85	234.21
773.17	234.13
773.50	234.04
773.82	233.88
774.15	233.75
774.47	233.60
774.80	233.50
775.12	233.42
775.45	233.32
775.77	233.25
776.09	233.20
776.42	233.12
776.74	233.08
777.07	233.03
777.39	232.96
777.72	232.89
778.04	232.84
778.36	232.79
778.69	232.70
779.01	232.61
779.33	232.47
779.66	232.32
779.98	232.25
780.31	232.17
780.63	232.19
780.95	232.16
781.28	232.10
781.60	232.00
781.92	231.91
782.25	231.88
782.57	231.79
782.89	231.72
783.22	231.65
783.54	231.56
783.86	231.49
784.19	231.42
784.51	231.39
784.83	231.31
785.16	231.27
785.48	231.21
785.80	231.19
786.12	231.17
786.45	231.08
786.77	231.07
787.09	231.02
787.42	230.86
787.74	230.79
788.06	230.75
788.38	230.71
788.71	230.67
789.03	230.60
789.35	230.57
789.67	230.51
789.99	230.49
790.32	230.47
790.64	230.43
790.96	230.47
791.28	230.41
791.61	230.36
791.93	230.31
792.25	230.26
792.57	230.28
792.89	230.17
793.21	230.16
793.54	230.10
793.86	230.05
794.18	230.05
794.50	230.02
794.82	229.99
795.14	229.97
795.47	229.94
795.79	229.90
796.11	229.82
796.43	229.74
796.75	229.67
797.07	229.60
797.39	229.53
797.71	229.45
798.04	229.42
798.36	229.41
798.68	229.38
799.00	229.33
799.32	229.25
799.64	229.25
799.96	229.19
800.28	229.13
800.60	229.08
800.92	229.08
801.24	229.02
801.56	228.99
801.89	228.97
802.21	228.96
802.53	228.91
802.85	228.91
803.17	228.97
803.49	228.95
803.81	228.93
804.13	228.92
804.45	228.85
804.77	228.82
805.09	228.77
805.41	228.73
805.73	228.69
806.05	228.64
806.37	228.59
806.69	228.60
807.01	228.60
807.33	228.57
807.65	228.50
807.97	228.52
808.28	228.47
808.60	228.41
808.92	228.37
809.24	228.41
809.56	228.36
809.88	228.31
810.20	228.27
810.52	228.27
810.84	228.25
811.16	228.25
811.48	228.21
811.80	228.22
812.12	228.20
812.43	228.19
812.75	228.20
813.07	228.19
813.39	228.13
813.71	228.09
814.03	228.08
814.35	228.09
814.67	228.03
814.98	228.02
815.30	228.02
815.62	227.97
815.94	227.90
816.26	227.93
816.58	227.90
816.89	227.93
817.21	227.90
817.53	227.88
817.85	227.87
818.17	227.87
818.48	227.85
818.80	227.89
819.12	227.92
819.44	227.87
819.76	227.83
820.07	227.85
820.39	227.87
820.71	227.84
821.03	227.81
821.34	227.81
821.66	227.80
821.98	227.81
822.30	227.84
822.61	227.89
822.93	227.85
823.25	227.79
823.57	227.77
823.88	227.78
824.20	227.80
824.52	227.81
824.83	227.79
825.15	227.77
825.47	227.73
825.79	227.71
826.10	227.70
826.42	227.73
826.74	227.74
827.05	227.71
827.37	227.73
827.69	227.73
828.00	227.69
828.32	227.71
828.64	227.69
828.95	227.73
829.27	227.69
829.58	227.66
829.90	227.69
830.22	227.66
830.53	227.62
830.85	227.56
831.17	227.52
831.48	227.52
831.80	227.51
832.11	227.51
832.43	227.45
832.75	227.41
833.06	227.44
833.38	227.36
833.69	227.34
834.01	227.32
834.32	227.30
834.64	227.29
834.96	227.22
835.27	227.19
835.59	227.10
835.90	227.06
836.22	227.04
836.53	226.96
836.85	226.94
837.16	227.00
837.48	226.97
837.79	226.95
838.11	226.91
838.42	226.89
838.74	226.86
839.05	226.84
839.37	226.85
839.68	226.79
840.00	226.80
840.31	226.82
840.63	226.79
840.94	226.76
841.26	226.73
841.57	226.75
841.88	226.73
842.20	226.74
842.51	226.69
842.83	226.68
843.14	226.82
843.46	226.80
843.77	226.73
844.08	226.71
844.40	226.68
844.71	226.67
845.03	226.61
845.34	226.58
845.65	226.58
845.97	226.56
846.28	226.55
846.60	226.56
846.91	226.50
847.22	226.51
847.54	226.55
847.85	226.56
848.16	226.53
848.48	226.53
848.79	226.57
849.10	226.58
849.42	226.59
849.73	226.49
850.04	226.47
850.36	226.44
850.67	226.47
850.98	226.50
851.30	226.50
851.61	226.53
851.92	226.54
852.23	226.57
852.55	226.62
852.86	226.60
853.17	226.59
853.49	226.60
853.80	226.60
854.11	226.57
854.42	226.60
854.74	226.61
855.05	226.58
855.36	226.53
855.67	226.55
855.99	226.51
856.30	226.59
856.61	226.59
856.92	226.57
857.23	226.57
857.55	226.52
857.86	226.51
858.17	226.52
858.48	226.53
858.79	226.50
859.11	226.46
859.42	226.47
859.73	226.46
860.04	226.47
860.35	226.47
860.66	226.49
860.98	226.48
861.29	226.47
861.60	226.52
861.91	226.54
862.22	226.53
862.53	226.58
862.84	226.49
863.16	226.52
863.47	226.54
863.78	226.53
864.09	226.54
864.40	226.59
864.71	226.61
865.02	226.62
865.33	226.63
865.64	226.61
865.95	226.61
866.27	226.67
866.58	226.65
866.89	226.64
867.20	226.63
867.51	226.63
867.82	226.60
868.13	226.60
868.44	226.58
868.75	226.60
869.06	226.60
869.37	226.62
869.68	226.60
869.99	226.62
870.30	226.60
870.61	226.61
870.92	226.56
871.23	226.52
871.54	226.54
871.85	226.52
872.16	226.53
872.47	226.51
872.78	226.46
873.09	226.49
873.40	226.48
873.71	226.49
874.02	226.48
874.33	226.51
874.64	226.47
874.95	226.49
875.26	226.43
875.56	226.42
875.87	226.40
876.18	226.39
876.49	226.45
876.80	226.46
877.11	226.45
877.42	226.46
877.73	226.50
878.04	226.46
878.35	226.53
878.66	226.53
878.96	226.56
879.27	226.57
879.58	226.54
879.89	226.54
880.20	226.55
880.51	226.48
880.82	226.45
881.12	226.44
881.43	226.40
881.74	226.42
882.05	226.43
882.36	226.45
882.67	226.45
882.97	226.39
883.28	226.36
883.59	226.36
883.90	226.39
884.21	226.36
884.51	226.36
884.82	226.29
885.13	226.29
885.44	226.24
885.74	226.23
886.05	226.21
886.36	226.21
886.67	226.20
886.98	226.26
887.28	226.27
887.59	226.26
887.90	226.27
888.20	226.28
888.51	226.28
888.82	226.27
889.13	226.27
889.43	226.34
889.74	226.35
890.05	226.36
890.35	226.32
890.66	226.30
890.97	226.28
891.28	226.29
891.58	226.30
891.89	226.31
892.20	226.32
892.50	226.33
892.81	226.31
893.12	226.29
893.42	226.30
893.73	226.30
894.04	226.33
894.34	226.33
894.65	226.30
894.95	226.29
895.26	226.25
895.57	226.28
895.87	226.19
896.18	226.20
896.48	226.21
896.79	226.21
897.10	226.26
897.40	226.25
897.71	226.25
898.01	226.24
898.32	226.25
898.63	226.23
898.93	226.21
899.24	226.21
899.54	226.20
899.85	226.16
900.15	226.16
900.46	226.13
900.76	226.16
901.07	226.15
901.38	226.14
901.68	226.17
901.99	226.15
902.29	226.14
902.60	226.16
902.90	226.13
903.21	226.14
903.51	226.09
903.82	226.12
904.12	226.12
904.43	226.13
904.73	226.13
905.03	226.13
905.34	226.21
905.64	226.22
905.95	226.21
906.25	226.23
906.56	226.24
906.86	226.22
907.17	226.20
907.47	226.23
907.77	226.21
908.08	226.20
908.38	226.17
908.69	226.17
908.99	226.17
909.30	226.15
909.60	226.13
909.90	226.15
910.21	226.14
910.51	226.13
910.81	226.12
911.12	226.08
911.42	226.07
911.73	226.00
912.03	225.98
912.33	226.00
912.64	225.99
912.94	225.99
913.24	226.02
913.55	226.01
913.85	225.98
914.15	225.95
914.46	225.95
914.76	225.94
915.06	225.94
915.37	225.92
915.67	225.93
915.97	225.93
916.27	225.91
916.58	225.92
916.88	225.91
917.18	225.92
917.49	226.02
917.79	226.04
918.09	226.05
918.39	226.10
918.70	226.12
919.00	226.10
919.30	226.14
919.60	226.12
919.91	226.11
920.21	226.11
920.51	226.15
920.81	226.16
921.12	226.18
921.42	226.19
921.72	226.22
922.02	226.22
922.32	226.24
922.63	226.24
922.93	226.25
923.23	226.25
923.53	226.22
923.83	226.18
924.13	226.20
924.44	226.19
924.74	226.19
925.04	226.21
925.34	226.22
925.64	226.18
925.94	226.16
926.24	226.22
926.55	226.23
926.85	226.20
927.15	226.22
927.45	226.22
927.75	226.21
928.05	226.20
928.35	226.24
928.65	226.26
928.95	226.25
929.26	226.23
929.56	226.25
929.86	226.28
930.16	226.22
930.46	226.18
930.76	226.19
931.06	226.16
931.36	226.10
931.66	226.14
931.96	226.15
932.26	226.17
932.56	226.14
932.86	226.17
933.16	226.19
933.46	226.18
933.76	226.18
934.06	226.18
934.36	226.20
934.66	226.15
934.96	226.12
935.26	226.12
935.56	226.13
935.86	226.09
936.16	226.09
936.46	226.09
936.76	226.10
937.06	226.08
937.36	226.05
937.66	226.05
937.96	226.04
938.26	226.00
938.56	225.99
938.86	225.96
939.16	225.94
939.46	225.96
939.76	225.94
940.06	225.92
940.35	225.92
940.65	225.85
940.95	225.87
941.25	225.83
941.55	225.83
941.85	225.86
942.15	225.89
942.45	225.87
942.75	225.89
943.04	225.89
943.34	225.87
943.64	225.86
943.94	225.87
944.24	225.85
944.54	225.86
944.84	225.88
945.13	225.86
945.43	225.89
945.73	225.85
946.03	225.84
946.33	225.83
946.62	225.81
946.92	225.85
947.22	225.87
947.52	225.90
947.82	225.93
948.11	225.91
948.41	225.88
948.71	225.86
949.01	225.90
949.31	225.88
949.60	225.89
949.90	225.90
950.20	225.89
950.50	225.91
950.79	225.92
951.09	225.93
951.39	225.93
951.69	225.89
951.98	225.92
952.28	225.94
952.58	225.94
952.87	225.94
953.17	225.95
953.47	225.93
953.76	225.93
954.06	225.89
954.36	225.86
954.66	225.88
954.95	225.90
955.25	225.87
955.55	225.87
955.84	225.88
956.14	225.89
956.44	225.90
956.73	225.87
957.03	225.90
957.32	225.89
957.62	225.88
957.92	225.96
958.21	225.96
958.51	226.07
958.81	226.11
959.10	226.13
959.40	226.14
959.69	226.15
959.99	226.15
960.29	226.17
960.58	226.19
960.88	226.21
961.17	226.24
961.47	226.22
961.76	226.21
962.06	226.25
962.36	226.22
962.65	226.19
962.95	226.18
963.24	226.19
963.54	226.18
963.83	226.20
964.13	226.16
964.42	226.11
964.72	226.02
965.01	226.00
965.31	226.01
965.60	225.98
965.90	226.04
966.19	226.02
966.49	226.03
966.78	226.03
967.08	225.99
967.37	225.96
967.67	225.93
967.96	225.98
968.26	225.96
968.55	225.99
968.85	226.00
969.14	225.99
969.43	225.95
969.73	225.97
970.02	225.97
970.32	225.95
970.61	225.99
970.91	225.97
971.20	225.97
971.49	225.94
971.79	225.98
972.08	225.92
972.38	225.92
972.67	225.93
972.96	225.94
973.26	225.94
973.55	225.99
973.85	226.01
974.14	225.99
974.43	225.97
974.73	225.97
975.02	225.98
975.31	226.01
975.61	226.00
975.90	225.97
976.19	225.92
976.49	225.96
976.78	225.93
977.07	225.94
977.37	225.94
977.66	225.94
977.95	225.91
978.24	225.90
978.54	225.94
978.83	225.92
979.12	225.92
979.42	225.95
979.71	225.91
980.00	225.91
980.29	225.89
980.59	225.87
980.88	225.89
981.17	225.87
981.46	225.86
981.76	225.87
982.05	225.90
982.34	225.92
982.63	225.88
982.93	225.90
983.22	225.94
983.51	225.92
983.80	225.96
984.09	225.98
984.39	225.94
984.68	225.96
984.97	225.95
985.26	225.93
985.55	225.94
985.85	225.96
986.14	225.96
986.43	226.00
986.72	226.01
987.01	225.98
987.30	225.99
987.59	226.01
987.89	226.00
988.18	226.00
988.47	226.00
988.76	226.01
989.05	225.99
989.34	225.96
989.63	225.98
989.92	225.96
990.22	225.92
990.51	225.95
990.80	225.90
991.09	225.92
991.38	225.96
991.67	225.93
991.96	225.86
992.25	225.86
992.54	225.86
992.83	225.88
993.12	225.86
993.41	225.88
993.70	225.89
993.99	225.92
994.28	225.93
994.58	225.91
994.87	225.89
995.16	225.89
995.45	225.85
995.74	225.83
996.03	225.84
996.32	225.90
996.61	225.91
996.90	225.92
997.19	225.91
997.48	225.88
997.77	225.87
998.06	225.92
998.34	225.93
998.63	225.91
998.92	225.88
999.21	225.92
999.50	225.90
999.79	225.88
1000.08	225.88
1000.37	225.90
1000.66	225.93
1000.95	225.98
1001.24	226.01
1001.53	226.08
1001.82	226.08
1002.11	226.06
1002.40	226.06
1002.68	226.12
1002.97	226.21
1003.26	226.18
1003.55	226.17
1003.84	226.20
1004.13	226.22
1004.42	226.22
1004.71	226.20
1004.99	226.25
1005.28	226.26
1005.57	226.29
1005.86	226.31
1006.15	226.32
1006.44	226.28
1006.72	226.30
1007.01	226.29
1007.30	226.26
1007.59	226.25
1007.88	226.27
1008.17	226.25
1008.45	226.20
1008.74	226.14
1009.03	226.05
1009.32	226.07
1009.60	226.08
1009.89	226.08
1010.18	226.04
1010.47	226.06
1010.76	226.09
1011.04	226.08
1011.33	226.10
1011.62	226.10
1011.91	226.05
1012.19	226.02
1012.48	226.01
1012.77	225.97
1013.05	226.02
1013.34	226.01
1013.63	225.97
1013.92	225.98
1014.20	226.00
1014.49	226.03
1014.78	226.01
1015.06	226.03
1015.35	226.02
1015.64	226.04
1015.92	226.07
1016.21	226.03
1016.50	226.03
1016.78	226.03
1017.07	226.01
1017.36	225.97
1017.64	225.92
1017.93	225.96
1018.22	225.95
1018.50	225.98
1018.79	225.99
1019.08	225.90
1019.36	225.93
1019.65	225.92
1019.93	225.92
1020.22	225.91
1020.51	225.98
1020.79	225.98
1021.08	225.42
1021.36	225.93
1021.65	225.90
1021.94	225.39
1022.22	226.31
1022.51	225.72
1022.79	226.12
1023.08	225.87
1023.36	227.35
1023.65	225.57
>>>>>End Processed Spectral Data<<<<<
