SpectraSuite Data File
++++++++++++++++++++++++++++++++++++
Date: Fri Feb 01 16:01:49 EST 2013
User: group
Dark Spectrum Present: No
Reference Spectrum Present: No
Number of Sampled Component Spectra: 1
Spectrometers: USB2E7196
Integration Time (usec): 35000 (USB2E7196)
Spectra Averaged: 100 (USB2E7196)
Boxcar Smoothing: 10 (USB2E7196)
Correct for Electrical Dark: No (USB2E7196)
Strobe/Lamp Enabled: No (USB2E7196)
Correct for Detector Non-linearity: No (USB2E7196)
Correct for Stray Light: No (USB2E7196)
Number of Pixels in Processed Spectrum: 2048
>>>>>Begin Processed Spectral Data<<<<<
339.09	0.00
339.48	214.97
339.86	215.93
340.24	218.28
340.63	219.65
341.01	222.27
341.39	221.51
341.78	222.76
342.16	223.66
342.54	224.34
342.93	213.10
343.31	223.86
343.69	224.41
344.07	224.90
344.46	225.29
344.84	225.64
345.22	225.85
345.60	226.12
345.99	226.32
346.37	226.46
346.75	226.59
347.13	226.67
347.52	226.71
347.90	226.76
348.28	226.77
348.66	226.80
349.05	226.77
349.43	226.86
349.81	226.88
350.19	226.94
350.57	226.97
350.96	227.04
351.34	227.12
351.72	227.18
352.10	227.24
352.48	227.29
352.87	227.33
353.25	227.40
353.63	227.45
354.01	227.49
354.39	227.55
354.77	227.60
355.15	227.70
355.54	227.79
355.92	227.84
356.30	227.91
356.68	228.04
357.06	228.13
357.44	228.16
357.82	228.25
358.20	228.31
358.58	228.38
358.97	228.46
359.35	228.54
359.73	228.61
360.11	228.67
360.49	228.73
360.87	228.77
361.25	228.82
361.63	228.87
362.01	228.93
362.39	228.96
362.77	229.01
363.15	229.03
363.53	229.05
363.91	229.05
364.29	229.08
364.67	229.00
365.05	229.02
365.43	229.04
365.81	229.02
366.19	229.09
366.57	229.07
366.95	229.06
367.33	229.00
367.71	228.97
368.09	228.97
368.47	228.97
368.85	228.96
369.23	228.93
369.61	228.90
369.99	228.93
370.37	228.92
370.75	228.95
371.13	228.88
371.51	228.83
371.89	228.83
372.27	228.81
372.65	228.75
373.03	228.72
373.41	228.66
373.78	228.61
374.16	228.46
374.54	228.43
374.92	228.36
375.30	228.33
375.68	228.28
376.06	228.23
376.44	228.16
376.82	228.09
377.19	228.03
377.57	227.99
377.95	227.86
378.33	227.79
378.71	227.67
379.09	227.61
379.47	227.55
379.84	227.47
380.22	227.40
380.60	227.36
380.98	227.29
381.36	227.25
381.73	227.19
382.11	227.17
382.49	227.12
382.87	227.08
383.25	227.00
383.62	227.09
384.00	227.02
384.38	226.94
384.76	226.90
385.13	226.89
385.51	226.86
385.89	226.80
386.27	226.78
386.64	226.73
387.02	226.69
387.40	226.64
387.78	226.59
388.15	226.56
388.53	226.54
388.91	226.49
389.29	226.39
389.66	226.38
390.04	226.34
390.42	226.32
390.79	226.29
391.17	226.27
391.55	226.13
391.92	226.12
392.30	226.15
392.68	226.14
393.05	226.12
393.43	226.10
393.81	226.13
394.18	226.13
394.56	226.14
394.94	226.20
395.31	226.23
395.69	226.30
396.06	226.33
396.44	226.31
396.82	226.32
397.19	226.42
397.57	226.42
397.95	226.49
398.32	226.51
398.70	226.57
399.07	226.67
399.45	226.68
399.82	226.75
400.20	226.78
400.58	226.86
400.95	226.90
401.33	226.97
401.70	227.12
402.08	227.20
402.45	227.28
402.83	227.37
403.20	227.45
403.58	227.54
403.95	227.64
404.33	227.80
404.71	227.95
405.08	228.11
405.46	228.28
405.83	228.41
406.21	228.56
406.58	228.72
406.96	228.87
407.33	229.06
407.70	229.24
408.08	229.48
408.45	229.70
408.83	229.93
409.20	230.16
409.58	230.29
409.95	230.54
410.33	230.79
410.70	231.03
411.08	231.36
411.45	231.63
411.82	231.94
412.20	232.30
412.57	232.72
412.95	233.04
413.32	233.49
413.69	233.87
414.07	234.29
414.44	234.73
414.82	235.21
415.19	235.81
415.56	236.35
415.94	236.91
416.31	237.53
416.68	238.20
417.06	238.90
417.43	239.63
417.81	240.42
418.18	241.24
418.55	242.09
418.93	242.95
419.30	243.90
419.67	244.84
420.04	245.78
420.42	246.78
420.79	247.95
421.16	249.08
421.54	250.32
421.91	251.55
422.28	252.86
422.66	254.18
423.03	255.43
423.40	256.81
423.77	258.22
424.15	259.68
424.52	261.14
424.89	262.75
425.26	264.29
425.64	265.69
426.01	267.29
426.38	268.94
426.75	270.63
427.13	272.34
427.50	274.16
427.87	276.04
428.24	277.85
428.61	279.61
428.99	281.59
429.36	283.67
429.73	285.72
430.10	287.72
430.47	289.80
430.85	291.96
431.22	294.20
431.59	296.59
431.96	298.85
432.33	301.37
432.70	303.74
433.08	306.55
433.45	309.27
433.82	311.89
434.19	314.79
434.56	317.60
434.93	320.26
435.30	322.90
435.68	325.79
436.05	328.69
436.42	331.50
436.79	334.00
437.16	336.71
437.53	339.60
437.90	342.40
438.27	345.13
438.64	347.95
439.01	350.52
439.38	352.74
439.75	354.87
440.13	357.33
440.50	359.66
440.87	361.51
441.24	363.43
441.61	365.52
441.98	366.97
442.35	368.75
442.72	370.60
443.09	372.37
443.46	373.32
443.83	373.85
444.20	374.32
444.57	375.12
444.94	375.37
445.31	375.66
445.68	376.04
446.05	376.12
446.42	375.72
446.79	375.33
447.16	374.89
447.53	374.59
447.90	373.41
448.27	372.24
448.64	370.66
449.01	369.43
449.37	367.47
449.74	365.57
450.11	363.30
450.48	360.79
450.85	358.26
451.22	356.13
451.59	354.10
451.96	352.16
452.33	349.54
452.70	347.21
453.07	344.37
453.43	341.44
453.80	338.64
454.17	335.97
454.54	333.38
454.91	330.64
455.28	327.96
455.65	325.46
456.02	323.01
456.38	320.84
456.75	318.24
457.12	316.03
457.49	313.82
457.86	311.66
458.23	309.84
458.59	307.81
458.96	305.73
459.33	303.89
459.70	302.06
460.07	300.58
460.43	298.82
460.80	297.17
461.17	295.79
461.54	294.32
461.91	292.90
462.27	291.47
462.64	290.27
463.01	288.91
463.38	287.66
463.74	286.28
464.11	285.14
464.48	284.14
464.85	283.00
465.21	282.15
465.58	281.25
465.95	280.14
466.32	279.21
466.68	278.33
467.05	277.45
467.42	276.54
467.78	275.63
468.15	274.79
468.52	274.18
468.88	273.26
469.25	272.52
469.62	271.90
469.98	271.25
470.35	270.59
470.72	270.02
471.08	269.38
471.45	268.86
471.82	268.31
472.18	267.69
472.55	267.28
472.92	266.76
473.28	266.28
473.65	265.81
474.02	265.42
474.38	265.03
474.75	264.68
475.11	264.36
475.48	264.12
475.85	263.92
476.21	263.65
476.58	263.47
476.94	263.33
477.31	263.18
477.67	262.99
478.04	262.90
478.41	262.84
478.77	262.87
479.14	262.80
479.50	262.82
479.87	262.87
480.23	262.96
480.60	263.00
480.96	263.11
481.33	263.32
481.69	263.50
482.06	263.71
482.42	263.95
482.79	264.21
483.15	264.50
483.52	264.88
483.88	265.25
484.25	265.66
484.61	266.02
484.98	266.45
485.34	266.98
485.71	267.54
486.07	268.11
486.44	268.66
486.80	269.37
487.17	270.08
487.53	270.90
487.90	271.74
488.26	272.65
488.62	273.62
488.99	274.62
489.35	275.66
489.72	276.77
490.08	277.93
490.44	279.15
490.81	280.47
491.17	281.79
491.54	283.24
491.90	284.78
492.26	286.47
492.63	288.19
492.99	290.02
493.36	291.92
493.72	293.97
494.08	296.07
494.45	298.32
494.81	300.70
495.17	303.16
495.54	305.71
495.90	308.44
496.26	311.27
496.63	314.23
496.99	317.36
497.35	320.64
497.72	324.07
498.08	327.62
498.44	331.29
498.80	335.26
499.17	339.33
499.53	343.54
499.89	347.93
500.26	352.43
500.62	357.10
500.98	362.05
501.34	367.16
501.71	372.54
502.07	378.00
502.43	383.62
502.79	389.51
503.16	395.59
503.52	401.87
503.88	408.28
504.24	414.96
504.60	421.89
504.97	429.03
505.33	436.39
505.69	444.10
506.05	451.88
506.41	459.74
506.78	467.93
507.14	476.39
507.50	485.06
507.86	494.08
508.22	503.28
508.59	512.53
508.95	522.10
509.31	531.91
509.67	542.01
510.03	552.32
510.39	562.84
510.75	573.62
511.12	584.59
511.48	595.94
511.84	607.37
512.20	618.89
512.56	630.80
512.92	642.95
513.28	655.26
513.64	667.81
514.00	680.58
514.37	693.51
514.73	706.57
515.09	719.66
515.45	732.99
515.81	746.61
516.17	760.56
516.53	774.68
516.89	788.82
517.25	803.04
517.61	817.45
517.97	831.89
518.33	846.35
518.69	861.09
519.05	876.02
519.41	891.21
519.77	906.68
520.13	922.09
520.49	937.48
520.85	952.91
521.21	968.50
521.57	984.72
521.93	1000.40
522.29	1016.67
522.65	1032.82
523.01	1049.02
523.37	1065.02
523.73	1081.22
524.09	1097.31
524.45	1113.56
524.81	1130.11
525.17	1146.93
525.53	1163.90
525.89	1180.73
526.25	1197.56
526.61	1213.94
526.97	1230.72
527.33	1247.26
527.68	1263.83
528.04	1280.29
528.40	1296.80
528.76	1313.93
529.12	1330.43
529.48	1347.34
529.84	1363.34
530.20	1379.99
530.56	1396.92
530.91	1414.22
531.27	1430.84
531.63	1447.28
531.99	1463.95
532.35	1479.85
532.71	1495.69
533.07	1511.84
533.42	1527.69
533.78	1543.74
534.14	1560.02
534.50	1575.24
534.86	1591.15
535.21	1606.33
535.57	1622.16
535.93	1637.63
536.29	1652.38
536.65	1667.41
537.00	1682.16
537.36	1697.49
537.72	1711.87
538.08	1726.33
538.44	1740.17
538.79	1754.13
539.15	1767.74
539.51	1781.32
539.87	1795.64
540.22	1809.24
540.58	1822.86
540.94	1836.07
541.29	1848.80
541.65	1861.32
542.01	1874.48
542.37	1886.60
542.72	1899.02
543.08	1910.81
543.44	1923.08
543.79	1934.32
544.15	1945.24
544.51	1956.72
544.87	1967.60
545.22	1978.51
545.58	1988.50
545.94	1998.24
546.29	2007.96
546.65	2017.74
547.01	2027.03
547.36	2035.68
547.72	2044.10
548.07	2052.00
548.43	2060.23
548.79	2068.36
549.14	2075.84
549.50	2083.15
549.86	2090.74
550.21	2097.98
550.57	2105.12
550.92	2111.73
551.28	2118.68
551.64	2125.74
551.99	2132.30
552.35	2138.47
552.70	2144.66
553.06	2150.76
553.41	2156.94
553.77	2163.04
554.13	2169.13
554.48	2175.26
554.84	2180.71
555.19	2186.10
555.55	2191.16
555.90	2195.66
556.26	2200.35
556.61	2205.21
556.97	2209.39
557.32	2213.57
557.68	2217.82
558.03	2222.03
558.39	2225.80
558.74	2230.46
559.10	2234.33
559.45	2237.93
559.81	2242.30
560.16	2246.06
560.52	2249.30
560.87	2252.90
561.23	2255.58
561.58	2258.61
561.94	2261.10
562.29	2263.53
562.64	2266.09
563.00	2268.76
563.35	2272.35
563.71	2275.57
564.06	2278.79
564.42	2281.63
564.77	2284.03
565.12	2286.10
565.48	2288.09
565.83	2289.97
566.19	2291.23
566.54	2292.13
566.89	2293.36
567.25	2293.88
567.60	2295.19
567.96	2296.98
568.31	2297.67
568.66	2298.87
569.02	2299.53
569.37	2299.82
569.72	2300.68
570.08	2300.93
570.43	2301.09
570.78	2300.48
571.14	2299.02
571.49	2297.75
571.84	2297.65
572.20	2296.86
572.55	2296.02
572.90	2294.47
573.26	2293.19
573.61	2291.49
573.96	2289.73
574.31	2286.75
574.67	2283.79
575.02	2280.30
575.37	2276.86
575.72	2273.14
576.08	2269.71
576.43	2266.38
576.78	2262.76
577.13	2259.63
577.49	2256.62
577.84	2253.07
578.19	2249.42
578.54	2245.83
578.90	2241.47
579.25	2235.93
579.60	2230.81
579.95	2225.71
580.30	2220.69
580.66	2215.61
581.01	2210.80
581.36	2205.90
581.71	2201.77
582.06	2197.27
582.42	2192.70
582.77	2187.56
583.12	2183.03
583.47	2178.25
583.82	2173.27
584.17	2168.15
584.53	2162.67
584.88	2156.96
585.23	2151.13
585.58	2145.68
585.93	2140.21
586.28	2135.55
586.63	2130.36
586.98	2125.34
587.34	2120.65
587.69	2115.92
588.04	2110.59
588.39	2104.87
588.74	2098.44
589.09	2092.25
589.44	2085.50
589.79	2079.59
590.14	2073.98
590.49	2067.50
590.84	2061.18
591.19	2055.00
591.54	2048.44
591.89	2041.17
592.25	2034.33
592.60	2027.27
592.95	2019.69
593.30	2012.28
593.65	2004.70
594.00	1997.72
594.35	1990.52
594.70	1982.63
595.05	1975.40
595.40	1968.07
595.75	1960.58
596.10	1954.48
596.45	1947.81
596.80	1941.71
597.15	1935.06
597.50	1927.92
597.85	1921.47
598.19	1914.81
598.54	1907.69
598.89	1901.15
599.24	1895.09
599.59	1888.46
599.94	1882.30
600.29	1875.99
600.64	1869.39
600.99	1861.89
601.34	1855.07
601.69	1848.12
602.04	1841.29
602.39	1833.86
602.74	1826.93
603.08	1820.19
603.43	1813.31
603.78	1805.96
604.13	1798.70
604.48	1791.36
604.83	1784.33
605.18	1777.31
605.53	1769.29
605.87	1761.34
606.22	1754.11
606.57	1746.20
606.92	1738.89
607.27	1731.63
607.62	1724.50
607.96	1717.37
608.31	1710.77
608.66	1703.14
609.01	1695.51
609.36	1687.89
609.70	1680.00
610.05	1672.12
610.40	1664.40
610.75	1656.10
611.10	1648.45
611.44	1640.12
611.79	1632.18
612.14	1623.63
612.49	1614.60
612.83	1606.21
613.18	1598.01
613.53	1589.82
613.88	1581.30
614.22	1573.04
614.57	1564.43
614.92	1556.50
615.27	1548.80
615.61	1540.41
615.96	1532.39
616.31	1524.77
616.65	1517.36
617.00	1509.63
617.35	1501.81
617.70	1493.39
618.04	1484.87
618.39	1476.71
618.74	1469.09
619.08	1460.74
619.43	1453.22
619.78	1446.17
620.12	1439.01
620.47	1431.59
620.82	1423.46
621.16	1416.09
621.51	1408.52
621.85	1400.94
622.20	1392.30
622.55	1383.96
622.89	1376.19
623.24	1368.61
623.59	1361.20
623.93	1353.66
624.28	1346.50
624.62	1339.04
624.97	1331.98
625.32	1325.31
625.66	1318.22
626.01	1311.00
626.35	1303.50
626.70	1295.67
627.04	1287.99
627.39	1280.31
627.73	1272.85
628.08	1265.97
628.43	1258.68
628.77	1251.17
629.12	1243.50
629.46	1236.47
629.81	1229.09
630.15	1221.89
630.50	1214.49
630.84	1206.26
631.19	1198.33
631.53	1190.86
631.88	1183.33
632.22	1175.66
632.57	1168.31
632.91	1160.68
633.26	1153.24
633.60	1145.89
633.95	1138.89
634.29	1131.76
634.64	1124.95
634.98	1117.62
635.32	1110.45
635.67	1103.77
636.01	1097.25
636.36	1090.49
636.70	1084.01
637.05	1077.38
637.39	1070.79
637.73	1064.20
638.08	1058.32
638.42	1052.26
638.77	1045.70
639.11	1039.07
639.45	1032.69
639.80	1026.03
640.14	1019.61
640.49	1013.09
640.83	1006.81
641.17	1000.49
641.52	994.22
641.86	987.89
642.20	982.09
642.55	975.75
642.89	969.27
643.23	962.73
643.58	956.97
643.92	950.66
644.26	944.65
644.61	938.79
644.95	932.76
645.29	926.07
645.64	919.38
645.98	913.15
646.32	907.31
646.66	901.24
647.01	895.48
647.35	889.82
647.69	883.93
648.04	878.38
648.38	872.59
648.72	866.62
649.06	860.49
649.41	854.62
649.75	848.67
650.09	842.81
650.43	837.04
650.78	830.74
651.12	824.78
651.46	819.09
651.80	813.20
652.14	807.85
652.49	802.60
652.83	797.31
653.17	791.56
653.51	785.77
653.85	780.47
654.20	774.77
654.54	768.82
654.88	763.13
655.22	757.25
655.56	751.57
655.90	746.14
656.25	740.88
656.59	735.48
656.93	730.39
657.27	725.14
657.61	719.66
657.95	714.63
658.29	709.53
658.64	704.22
658.98	698.94
659.32	693.45
659.66	688.23
660.00	683.05
660.34	678.10
660.68	673.19
661.02	668.12
661.36	663.43
661.70	658.85
662.05	654.40
662.39	650.08
662.73	645.65
663.07	641.16
663.41	636.80
663.75	632.27
664.09	627.71
664.43	623.39
664.77	619.26
665.11	615.08
665.45	610.96
665.79	606.88
666.13	602.78
666.47	598.77
666.81	594.57
667.15	590.42
667.49	586.51
667.83	582.76
668.17	578.85
668.51	574.71
668.85	570.76
669.19	567.04
669.53	563.17
669.87	559.24
670.21	555.57
670.55	551.92
670.89	548.45
671.23	545.00
671.57	541.46
671.91	537.92
672.25	534.37
672.58	530.86
672.92	527.47
673.26	524.29
673.60	521.08
673.94	517.96
674.28	515.03
674.62	512.09
674.96	508.98
675.30	506.04
675.64	503.16
675.97	500.38
676.31	497.49
676.65	494.59
676.99	491.94
677.33	489.03
677.67	486.18
678.01	483.13
678.34	480.15
678.68	477.30
679.02	474.46
679.36	471.74
679.70	469.03
680.04	466.27
680.37	463.35
680.71	460.56
681.05	457.96
681.39	455.25
681.73	452.57
682.06	450.02
682.40	447.49
682.74	444.92
683.08	442.37
683.42	439.78
683.75	437.20
684.09	434.61
684.43	432.16
684.77	429.68
685.10	427.41
685.44	425.09
685.78	422.70
686.12	420.46
686.45	418.13
686.79	415.85
687.13	413.65
687.46	411.51
687.80	409.36
688.14	407.17
688.48	405.11
688.81	402.85
689.15	400.71
689.49	398.52
689.82	396.45
690.16	394.33
690.50	392.36
690.83	390.48
691.17	388.44
691.51	386.56
691.84	384.70
692.18	382.71
692.52	380.74
692.85	378.83
693.19	376.93
693.52	375.12
693.86	373.30
694.20	371.53
694.53	369.74
694.87	367.90
695.21	366.06
695.54	364.23
695.88	362.52
696.21	360.80
696.55	359.15
696.88	357.49
697.22	355.84
697.56	354.18
697.89	352.50
698.23	350.97
698.56	349.34
698.90	347.76
699.23	346.11
699.57	344.55
699.90	343.06
700.24	341.48
700.58	339.94
700.91	338.42
701.25	336.94
701.58	335.55
701.92	334.21
702.25	332.88
702.59	331.55
702.92	330.22
703.26	328.91
703.59	327.61
703.93	326.39
704.26	325.16
704.60	323.87
704.93	322.62
705.26	321.34
705.60	320.20
705.93	319.05
706.27	318.02
706.60	316.96
706.94	315.86
707.27	314.76
707.61	313.67
707.94	312.67
708.27	311.59
708.61	310.53
708.94	309.47
709.28	308.48
709.61	307.51
709.94	306.60
710.28	305.59
710.61	304.65
710.95	303.57
711.28	302.65
711.61	301.71
711.95	300.80
712.28	299.87
712.61	298.90
712.95	297.96
713.28	297.11
713.61	296.22
713.95	295.34
714.28	294.53
714.61	293.71
714.95	292.85
715.28	291.98
715.61	291.09
715.95	290.27
716.28	289.45
716.61	288.60
716.95	287.78
717.28	287.08
717.61	286.26
717.94	285.56
718.28	284.74
718.61	284.06
718.94	283.36
719.27	282.72
719.61	282.03
719.94	281.41
720.27	280.68
720.60	280.03
720.94	279.42
721.27	278.80
721.60	278.17
721.93	277.55
722.27	277.00
722.60	276.46
722.93	275.88
723.26	275.30
723.59	274.72
723.93	274.16
724.26	273.56
724.59	273.02
724.92	272.46
725.25	271.95
725.59	271.38
725.92	270.85
726.25	270.31
726.58	269.82
726.91	269.27
727.24	268.79
727.57	268.29
727.91	267.80
728.24	267.30
728.57	266.85
728.90	266.39
729.23	265.89
729.56	265.47
729.89	264.98
730.22	264.48
730.55	264.00
730.89	263.52
731.22	263.05
731.55	262.59
731.88	262.18
732.21	261.74
732.54	261.31
732.87	260.93
733.20	260.53
733.53	260.14
733.86	259.78
734.19	259.39
734.52	259.06
734.85	258.74
735.18	258.36
735.51	257.96
735.84	257.59
736.17	257.24
736.50	256.79
736.83	256.57
737.16	256.29
737.49	255.98
737.82	255.64
738.15	255.33
738.48	255.02
738.81	254.68
739.14	254.37
739.47	254.04
739.80	253.72
740.13	253.40
740.46	253.08
740.79	252.71
741.12	252.42
741.45	252.05
741.78	251.69
742.11	251.38
742.44	251.07
742.77	250.80
743.10	250.49
743.43	250.21
743.75	249.81
744.08	249.59
744.41	249.33
744.74	249.06
745.07	248.80
745.40	248.56
745.73	248.35
746.06	248.08
746.39	247.84
746.71	247.58
747.04	247.32
747.37	247.07
747.70	246.84
748.03	246.59
748.36	246.40
748.68	246.18
749.01	245.97
749.34	245.78
749.67	245.58
750.00	245.41
750.33	245.25
750.65	245.06
750.98	244.78
751.31	244.54
751.64	244.39
751.97	244.25
752.29	244.05
752.62	243.78
752.95	243.58
753.28	243.35
753.60	243.15
753.93	243.01
754.26	242.80
754.59	242.60
754.91	242.36
755.24	242.15
755.57	241.97
755.90	241.80
756.22	241.59
756.55	241.35
756.88	241.17
757.20	240.95
757.53	240.75
757.86	240.57
758.19	240.44
758.51	240.24
758.84	239.99
759.17	239.79
759.49	239.64
759.82	239.50
760.15	239.38
760.47	239.23
760.80	239.05
761.13	238.95
761.45	238.78
761.78	238.68
762.11	238.53
762.43	238.38
762.76	238.23
763.08	238.10
763.41	237.99
763.74	237.84
764.06	237.72
764.39	237.56
764.71	237.43
765.04	237.28
765.37	237.12
765.69	237.00
766.02	236.88
766.34	236.76
766.67	236.58
767.00	236.47
767.32	236.38
767.65	236.30
767.97	236.16
768.30	236.04
768.62	235.89
768.95	235.78
769.27	235.66
769.60	235.55
769.92	235.44
770.25	235.29
770.57	235.22
770.90	235.09
771.22	234.99
771.55	234.86
771.87	234.76
772.20	234.69
772.52	234.64
772.85	234.68
773.17	234.60
773.50	234.52
773.82	234.41
774.15	234.26
774.47	234.08
774.80	233.98
775.12	233.94
775.45	233.85
775.77	233.78
776.09	233.70
776.42	233.65
776.74	233.57
777.07	233.50
777.39	233.40
777.72	233.29
778.04	233.24
778.36	233.19
778.69	233.12
779.01	233.03
779.33	232.91
779.66	232.71
779.98	232.62
780.31	232.56
780.63	232.55
780.95	232.50
781.28	232.46
781.60	232.40
781.92	232.30
782.25	232.26
782.57	232.20
782.89	232.11
783.22	232.02
783.54	231.97
783.86	231.93
784.19	231.88
784.51	231.89
784.83	231.79
785.16	231.71
785.48	231.65
785.80	231.60
786.12	231.59
786.45	231.53
786.77	231.49
787.09	231.45
787.42	231.36
787.74	231.32
788.06	231.29
788.38	231.23
788.71	231.19
789.03	231.15
789.35	231.10
789.67	231.06
789.99	231.04
790.32	231.00
790.64	230.96
790.96	230.99
791.28	230.92
791.61	230.94
791.93	230.93
792.25	230.92
792.57	230.96
792.89	230.91
793.21	230.91
793.54	230.86
793.86	230.81
794.18	230.77
794.50	230.71
794.82	230.68
795.14	230.67
795.47	230.65
795.79	230.61
796.11	230.57
796.43	230.56
796.75	230.50
797.07	230.44
797.39	230.45
797.71	230.34
798.04	230.33
798.36	230.30
798.68	230.23
799.00	230.20
799.32	230.12
799.64	230.10
799.96	230.08
800.28	230.09
800.60	230.04
800.92	230.01
801.24	230.01
801.56	229.99
801.89	229.94
802.21	229.92
802.53	229.91
802.85	229.91
803.17	229.91
803.49	229.86
803.81	229.81
804.13	229.75
804.45	229.70
804.77	229.66
805.09	229.66
805.41	229.65
805.73	229.62
806.05	229.57
806.37	229.55
806.69	229.50
807.01	229.46
807.33	229.46
807.65	229.42
807.97	229.46
808.28	229.41
808.60	229.38
808.92	229.32
809.24	229.34
809.56	229.29
809.88	229.24
810.20	229.25
810.52	229.27
810.84	229.24
811.16	229.25
811.48	229.19
811.80	229.15
812.12	229.11
812.43	229.07
812.75	229.05
813.07	229.01
813.39	228.97
813.71	228.91
814.03	228.89
814.35	228.87
814.67	228.79
814.98	228.74
815.30	228.69
815.62	228.68
815.94	228.60
816.26	228.62
816.58	228.58
816.89	228.55
817.21	228.48
817.53	228.46
817.85	228.42
818.17	228.44
818.48	228.39
818.80	228.37
819.12	228.36
819.44	228.35
819.76	228.27
820.07	228.28
820.39	228.27
820.71	228.27
821.03	228.25
821.34	228.23
821.66	228.25
821.98	228.26
822.30	228.22
822.61	228.25
822.93	228.18
823.25	228.16
823.57	228.13
823.88	228.16
824.20	228.12
824.52	228.10
824.83	228.07
825.15	228.04
825.47	228.07
825.79	228.06
826.10	228.01
826.42	228.04
826.74	228.02
827.05	227.99
827.37	227.98
827.69	227.93
828.00	227.92
828.32	227.91
828.64	227.90
828.95	227.96
829.27	227.93
829.58	227.94
829.90	227.96
830.22	227.99
830.53	227.94
830.85	227.94
831.17	227.93
831.48	227.92
831.80	227.92
832.11	227.90
832.43	227.89
832.75	227.92
833.06	227.96
833.38	227.92
833.69	227.93
834.01	227.93
834.32	227.92
834.64	227.89
834.96	227.91
835.27	227.89
835.59	227.85
835.90	227.81
836.22	227.79
836.53	227.74
836.85	227.70
837.16	227.82
837.48	227.81
837.79	227.85
838.11	227.83
838.42	227.84
838.74	227.79
839.05	227.76
839.37	227.72
839.68	227.67
840.00	227.62
840.31	227.63
840.63	227.60
840.94	227.60
841.26	227.60
841.57	227.54
841.88	227.53
842.20	227.52
842.51	227.49
842.83	227.50
843.14	227.55
843.46	227.53
843.77	227.45
844.08	227.43
844.40	227.36
844.71	227.35
845.03	227.33
845.34	227.35
845.65	227.34
845.97	227.35
846.28	227.34
846.60	227.38
846.91	227.37
847.22	227.38
847.54	227.40
847.85	227.42
848.16	227.40
848.48	227.37
848.79	227.41
849.10	227.41
849.42	227.41
849.73	227.32
850.04	227.38
850.36	227.32
850.67	227.35
850.98	227.37
851.30	227.37
851.61	227.37
851.92	227.36
852.23	227.37
852.55	227.38
852.86	227.36
853.17	227.36
853.49	227.34
853.80	227.30
854.11	227.28
854.42	227.26
854.74	227.25
855.05	227.27
855.36	227.19
855.67	227.19
855.99	227.18
856.30	227.27
856.61	227.22
856.92	227.23
857.23	227.18
857.55	227.16
857.86	227.12
858.17	227.12
858.48	227.06
858.79	227.05
859.11	227.02
859.42	226.97
859.73	226.96
860.04	226.97
860.35	226.96
860.66	226.93
860.98	226.92
861.29	226.95
861.60	226.96
861.91	226.99
862.22	227.00
862.53	226.98
862.84	226.88
863.16	226.91
863.47	226.89
863.78	226.91
864.09	226.94
864.40	226.94
864.71	226.96
865.02	226.99
865.33	226.97
865.64	226.98
865.95	227.00
866.27	227.03
866.58	227.04
866.89	227.08
867.20	227.09
867.51	227.10
867.82	227.10
868.13	227.14
868.44	227.14
868.75	227.17
869.06	227.16
869.37	227.19
869.68	227.16
869.99	227.19
870.30	227.21
870.61	227.19
870.92	227.20
871.23	227.16
871.54	227.16
871.85	227.19
872.16	227.19
872.47	227.21
872.78	227.18
873.09	227.19
873.40	227.17
873.71	227.16
874.02	227.16
874.33	227.15
874.64	227.09
874.95	227.09
875.26	227.04
875.56	227.07
875.87	227.11
876.18	227.12
876.49	227.20
876.80	227.18
877.11	227.18
877.42	227.18
877.73	227.20
878.04	227.20
878.35	227.22
878.66	227.24
878.96	227.24
879.27	227.23
879.58	227.21
879.89	227.22
880.20	227.25
880.51	227.25
880.82	227.22
881.12	227.23
881.43	227.20
881.74	227.19
882.05	227.18
882.36	227.15
882.67	227.13
882.97	226.99
883.28	226.99
883.59	226.99
883.90	227.02
884.21	227.02
884.51	227.02
884.82	226.98
885.13	226.98
885.44	226.94
885.74	226.95
886.05	226.93
886.36	226.88
886.67	226.86
886.98	226.88
887.28	226.89
887.59	226.86
887.90	226.84
888.20	226.84
888.51	226.82
888.82	226.81
889.13	226.81
889.43	226.90
889.74	226.88
890.05	226.85
890.35	226.82
890.66	226.81
890.97	226.80
891.28	226.80
891.58	226.75
891.89	226.76
892.20	226.71
892.50	226.68
892.81	226.70
893.12	226.69
893.42	226.63
893.73	226.61
894.04	226.60
894.34	226.59
894.65	226.59
894.95	226.57
895.26	226.51
895.57	226.55
895.87	226.46
896.18	226.45
896.48	226.45
896.79	226.42
897.10	226.42
897.40	226.40
897.71	226.41
898.01	226.43
898.32	226.40
898.63	226.42
898.93	226.44
899.24	226.45
899.54	226.47
899.85	226.44
900.15	226.44
900.46	226.47
900.76	226.50
901.07	226.48
901.38	226.47
901.68	226.52
901.99	226.45
902.29	226.45
902.60	226.46
902.90	226.46
903.21	226.45
903.51	226.43
903.82	226.46
904.12	226.42
904.43	226.41
904.73	226.47
905.03	226.48
905.34	226.56
905.64	226.54
905.95	226.52
906.25	226.56
906.56	226.57
906.86	226.58
907.17	226.59
907.47	226.63
907.77	226.65
908.08	226.62
908.38	226.66
908.69	226.67
908.99	226.68
909.30	226.72
909.60	226.75
909.90	226.81
910.21	226.77
910.51	226.78
910.81	226.80
911.12	226.80
911.42	226.82
911.73	226.74
912.03	226.77
912.33	226.78
912.64	226.76
912.94	226.76
913.24	226.75
913.55	226.75
913.85	226.76
914.15	226.80
914.46	226.82
914.76	226.81
915.06	226.82
915.37	226.83
915.67	226.81
915.97	226.83
916.27	226.80
916.58	226.82
916.88	226.85
917.18	226.82
917.49	226.87
917.79	226.87
918.09	226.89
918.39	226.93
918.70	226.93
919.00	226.97
919.30	227.03
919.60	227.05
919.91	227.05
920.21	227.05
920.51	227.05
920.81	227.06
921.12	227.07
921.42	227.09
921.72	227.09
922.02	227.08
922.32	227.07
922.63	227.09
922.93	227.13
923.23	227.13
923.53	227.18
923.83	227.12
924.13	227.12
924.44	227.07
924.74	227.09
925.04	227.09
925.34	227.09
925.64	227.02
925.94	227.01
926.24	227.06
926.55	227.05
926.85	227.02
927.15	227.01
927.45	227.02
927.75	227.02
928.05	227.00
928.35	227.02
928.65	227.07
928.95	227.08
929.26	227.07
929.56	227.05
929.86	227.04
930.16	227.04
930.46	227.00
930.76	227.00
931.06	226.94
931.36	226.91
931.66	226.89
931.96	226.89
932.26	226.87
932.56	226.80
932.86	226.77
933.16	226.77
933.46	226.76
933.76	226.73
934.06	226.74
934.36	226.78
934.66	226.72
934.96	226.70
935.26	226.66
935.56	226.66
935.86	226.64
936.16	226.62
936.46	226.59
936.76	226.58
937.06	226.58
937.36	226.59
937.66	226.58
937.96	226.59
938.26	226.60
938.56	226.59
938.86	226.58
939.16	226.64
939.46	226.67
939.76	226.67
940.06	226.65
940.35	226.62
940.65	226.59
940.95	226.63
941.25	226.60
941.55	226.60
941.85	226.60
942.15	226.61
942.45	226.64
942.75	226.65
943.04	226.67
943.34	226.69
943.64	226.68
943.94	226.69
944.24	226.70
944.54	226.69
944.84	226.72
945.13	226.70
945.43	226.66
945.73	226.63
946.03	226.61
946.33	226.61
946.62	226.60
946.92	226.58
947.22	226.59
947.52	226.61
947.82	226.62
948.11	226.59
948.41	226.59
948.71	226.55
949.01	226.57
949.31	226.57
949.60	226.56
949.90	226.56
950.20	226.58
950.50	226.57
950.79	226.57
951.09	226.57
951.39	226.60
951.69	226.58
951.98	226.64
952.28	226.66
952.58	226.65
952.87	226.67
953.17	226.67
953.47	226.67
953.76	226.64
954.06	226.65
954.36	226.66
954.66	226.62
954.95	226.67
955.25	226.70
955.55	226.72
955.84	226.73
956.14	226.78
956.44	226.76
956.73	226.74
957.03	226.74
957.32	226.76
957.62	226.75
957.92	226.78
958.21	226.76
958.51	226.86
958.81	226.92
959.10	226.92
959.40	226.96
959.69	226.96
959.99	226.98
960.29	226.96
960.58	226.95
960.88	227.04
961.17	227.03
961.47	227.00
961.76	227.00
962.06	227.00
962.36	226.99
962.65	226.98
962.95	227.00
963.24	226.99
963.54	226.99
963.83	227.01
964.13	227.02
964.42	226.98
964.72	226.91
965.01	226.87
965.31	226.85
965.60	226.78
965.90	226.85
966.19	226.82
966.49	226.82
966.78	226.83
967.08	226.79
967.37	226.76
967.67	226.73
967.96	226.75
968.26	226.74
968.55	226.76
968.85	226.76
969.14	226.71
969.43	226.72
969.73	226.68
970.02	226.68
970.32	226.65
970.61	226.66
970.91	226.59
971.20	226.59
971.49	226.57
971.79	226.63
972.08	226.52
972.38	226.53
972.67	226.54
972.96	226.54
973.26	226.52
973.55	226.57
973.85	226.57
974.14	226.52
974.43	226.52
974.73	226.47
975.02	226.47
975.31	226.49
975.61	226.48
975.90	226.46
976.19	226.43
976.49	226.41
976.78	226.41
977.07	226.40
977.37	226.38
977.66	226.37
977.95	226.32
978.24	226.36
978.54	226.36
978.83	226.30
979.12	226.28
979.42	226.29
979.71	226.26
980.00	226.26
980.29	226.29
980.59	226.25
980.88	226.30
981.17	226.32
981.46	226.30
981.76	226.27
982.05	226.32
982.34	226.32
982.63	226.35
982.93	226.35
983.22	226.39
983.51	226.43
983.80	226.51
984.09	226.53
984.39	226.53
984.68	226.52
984.97	226.58
985.26	226.61
985.55	226.62
985.85	226.61
986.14	226.62
986.43	226.63
986.72	226.64
987.01	226.59
987.30	226.58
987.59	226.59
987.89	226.67
988.18	226.64
988.47	226.60
988.76	226.61
989.05	226.61
989.34	226.62
989.63	226.62
989.92	226.58
990.22	226.57
990.51	226.57
990.80	226.59
991.09	226.58
991.38	226.57
991.67	226.56
991.96	226.55
992.25	226.56
992.54	226.52
992.83	226.51
993.12	226.52
993.41	226.50
993.70	226.57
993.99	226.56
994.28	226.56
994.58	226.59
994.87	226.60
995.16	226.60
995.45	226.59
995.74	226.54
996.03	226.56
996.32	226.58
996.61	226.59
996.90	226.57
997.19	226.58
997.48	226.55
997.77	226.55
998.06	226.56
998.34	226.55
998.63	226.58
998.92	226.57
999.21	226.59
999.50	226.61
999.79	226.52
1000.08	226.50
1000.37	226.52
1000.66	226.52
1000.95	226.53
1001.24	226.54
1001.53	226.56
1001.82	226.56
1002.11	226.51
1002.40	226.50
1002.68	226.53
1002.97	226.60
1003.26	226.56
1003.55	226.61
1003.84	226.58
1004.13	226.60
1004.42	226.61
1004.71	226.60
1004.99	226.59
1005.28	226.56
1005.57	226.54
1005.86	226.57
1006.15	226.54
1006.44	226.49
1006.72	226.47
1007.01	226.47
1007.30	226.46
1007.59	226.42
1007.88	226.42
1008.17	226.43
1008.45	226.40
1008.74	226.37
1009.03	226.34
1009.32	226.34
1009.60	226.31
1009.89	226.30
1010.18	226.26
1010.47	226.25
1010.76	226.21
1011.04	226.24
1011.33	226.27
1011.62	226.30
1011.91	226.28
1012.19	226.32
1012.48	226.35
1012.77	226.37
1013.05	226.41
1013.34	226.39
1013.63	226.39
1013.92	226.41
1014.20	226.42
1014.49	226.43
1014.78	226.40
1015.06	226.34
1015.35	226.33
1015.64	226.35
1015.92	226.38
1016.21	226.41
1016.50	226.41
1016.78	226.42
1017.07	226.43
1017.36	226.41
1017.64	226.37
1017.93	226.40
1018.22	226.37
1018.50	226.37
1018.79	226.35
1019.08	226.29
1019.36	226.34
1019.65	226.33
1019.93	226.38
1020.22	226.41
1020.51	226.49
1020.79	226.52
1021.08	226.23
1021.36	226.40
1021.65	226.25
1021.94	226.15
1022.22	226.96
1022.51	226.45
1022.79	227.30
1023.08	226.68
1023.36	228.09
1023.65	226.60
>>>>>End Processed Spectral Data<<<<<
