SpectraSuite Data File
++++++++++++++++++++++++++++++++++++
Date: Fri Feb 01 15:28:32 EST 2013
User: group
Dark Spectrum Present: No
Reference Spectrum Present: No
Number of Sampled Component Spectra: 1
Spectrometers: USB2E7196
Integration Time (usec): 35000 (USB2E7196)
Spectra Averaged: 100 (USB2E7196)
Boxcar Smoothing: 10 (USB2E7196)
Correct for Electrical Dark: No (USB2E7196)
Strobe/Lamp Enabled: No (USB2E7196)
Correct for Detector Non-linearity: No (USB2E7196)
Correct for Stray Light: No (USB2E7196)
Number of Pixels in Processed Spectrum: 2048
>>>>>Begin Processed Spectral Data<<<<<
339.09	0.00
339.48	215.46
339.86	217.04
340.24	217.49
340.63	219.52
341.01	222.36
341.39	221.86
341.78	223.36
342.16	224.78
342.54	224.66
342.93	213.45
343.31	224.26
343.69	224.80
344.07	225.23
344.46	225.67
344.84	226.02
345.22	226.24
345.60	226.50
345.99	226.66
346.37	226.79
346.75	226.91
347.13	226.98
347.52	227.03
347.90	227.12
348.28	227.15
348.66	227.14
349.05	227.15
349.43	227.18
349.81	227.24
350.19	227.29
350.57	227.33
350.96	227.41
351.34	227.46
351.72	227.52
352.10	227.61
352.48	227.66
352.87	227.73
353.25	227.80
353.63	227.86
354.01	227.93
354.39	227.99
354.77	228.08
355.15	228.16
355.54	228.23
355.92	228.27
356.30	228.35
356.68	228.49
357.06	228.59
357.44	228.64
357.82	228.68
358.20	228.77
358.58	228.84
358.97	228.87
359.35	228.97
359.73	229.04
360.11	229.09
360.49	229.17
360.87	229.21
361.25	229.24
361.63	229.31
362.01	229.36
362.39	229.37
362.77	229.36
363.15	229.41
363.53	229.41
363.91	229.41
364.29	229.43
364.67	229.37
365.05	229.37
365.43	229.39
365.81	229.41
366.19	229.43
366.57	229.47
366.95	229.49
367.33	229.43
367.71	229.45
368.09	229.45
368.47	229.44
368.85	229.43
369.23	229.43
369.61	229.39
369.99	229.39
370.37	229.37
370.75	229.41
371.13	229.32
371.51	229.31
371.89	229.27
372.27	229.25
372.65	229.20
373.03	229.17
373.41	229.10
373.78	229.03
374.16	228.93
374.54	228.82
374.92	228.76
375.30	228.72
375.68	228.59
376.06	228.56
376.44	228.49
376.82	228.42
377.19	228.37
377.57	228.28
377.95	228.21
378.33	228.16
378.71	228.03
379.09	227.96
379.47	227.88
379.84	227.81
380.22	227.72
380.60	227.62
380.98	227.52
381.36	227.45
381.73	227.38
382.11	227.32
382.49	227.28
382.87	227.25
383.25	227.18
383.62	227.28
384.00	227.20
384.38	227.12
384.76	227.11
385.13	227.11
385.51	227.05
385.89	226.97
386.27	226.92
386.64	226.88
387.02	226.83
387.40	226.77
387.78	226.76
388.15	226.71
388.53	226.72
388.91	226.71
389.29	226.68
389.66	226.66
390.04	226.64
390.42	226.62
390.79	226.58
391.17	226.57
391.55	226.40
391.92	226.39
392.30	226.41
392.68	226.37
393.05	226.33
393.43	226.33
393.81	226.37
394.18	226.35
394.56	226.41
394.94	226.46
395.31	226.50
395.69	226.53
396.06	226.59
396.44	226.59
396.82	226.61
397.19	226.67
397.57	226.72
397.95	226.77
398.32	226.81
398.70	226.83
399.07	226.90
399.45	226.97
399.82	227.03
400.20	227.11
400.58	227.17
400.95	227.18
401.33	227.27
401.70	227.42
402.08	227.54
402.45	227.59
402.83	227.71
403.20	227.83
403.58	227.94
403.95	228.07
404.33	228.23
404.71	228.38
405.08	228.56
405.46	228.68
405.83	228.81
406.21	228.97
406.58	229.14
406.96	229.30
407.33	229.48
407.70	229.64
408.08	229.91
408.45	230.17
408.83	230.46
409.20	230.69
409.58	230.86
409.95	231.10
410.33	231.37
410.70	231.64
411.08	231.93
411.45	232.20
411.82	232.52
412.20	232.85
412.57	233.26
412.95	233.58
413.32	234.03
413.69	234.48
414.07	234.91
414.44	235.41
414.82	235.89
415.19	236.48
415.56	237.04
415.94	237.57
416.31	238.16
416.68	238.80
417.06	239.52
417.43	240.22
417.81	240.97
418.18	241.77
418.55	242.61
418.93	243.47
419.30	244.36
419.67	245.30
420.04	246.26
420.42	247.25
420.79	248.43
421.16	249.56
421.54	250.76
421.91	251.99
422.28	253.26
422.66	254.62
423.03	255.94
423.40	257.32
423.77	258.73
424.15	260.20
424.52	261.65
424.89	263.24
425.26	264.82
425.64	266.31
426.01	267.89
426.38	269.55
426.75	271.24
427.13	272.98
427.50	274.77
427.87	276.68
428.24	278.54
428.61	280.30
428.99	282.24
429.36	284.33
429.73	286.41
430.10	288.43
430.47	290.52
430.85	292.65
431.22	294.89
431.59	297.26
431.96	299.49
432.33	302.01
432.70	304.41
433.08	307.26
433.45	309.91
433.82	312.56
434.19	315.45
434.56	318.27
434.93	320.92
435.30	323.57
435.68	326.47
436.05	329.28
436.42	332.10
436.79	334.67
437.16	337.38
437.53	340.26
437.90	343.05
438.27	345.80
438.64	348.65
439.01	351.26
439.38	353.50
439.75	355.71
440.13	358.19
440.50	360.53
440.87	362.37
441.24	364.29
441.61	366.44
441.98	367.94
442.35	369.71
442.72	371.56
443.09	373.37
443.46	374.30
443.83	374.92
444.20	375.37
444.57	376.20
444.94	376.47
445.31	376.74
445.68	377.11
446.05	377.15
446.42	376.68
446.79	376.20
447.16	375.73
447.53	375.37
447.90	374.20
448.27	373.03
448.64	371.40
449.01	370.23
449.37	368.27
449.74	366.35
450.11	364.07
450.48	361.59
450.85	359.05
451.22	356.91
451.59	354.86
451.96	352.94
452.33	350.29
452.70	347.88
453.07	345.02
453.43	342.11
453.80	339.31
454.17	336.65
454.54	334.09
454.91	331.37
455.28	328.68
455.65	326.17
456.02	323.70
456.38	321.54
456.75	318.89
457.12	316.57
457.49	314.37
457.86	312.24
458.23	310.37
458.59	308.30
458.96	306.18
459.33	304.32
459.70	302.41
460.07	300.90
460.43	299.23
460.80	297.62
461.17	296.13
461.54	294.61
461.91	293.17
462.27	291.70
462.64	290.48
463.01	289.11
463.38	287.81
463.74	286.44
464.11	285.27
464.48	284.25
464.85	283.19
465.21	282.30
465.58	281.36
465.95	280.27
466.32	279.36
466.68	278.45
467.05	277.51
467.42	276.68
467.78	275.77
468.15	274.88
468.52	274.26
468.88	273.42
469.25	272.68
469.62	272.08
469.98	271.45
470.35	270.79
470.72	270.22
471.08	269.59
471.45	269.08
471.82	268.52
472.18	267.92
472.55	267.45
472.92	266.90
473.28	266.45
473.65	266.01
474.02	265.59
474.38	265.26
474.75	264.97
475.11	264.62
475.48	264.32
475.85	264.06
476.21	263.78
476.58	263.60
476.94	263.46
477.31	263.29
477.67	263.13
478.04	262.98
478.41	262.89
478.77	262.93
479.14	262.88
479.50	262.91
479.87	262.97
480.23	263.06
480.60	263.17
480.96	263.26
481.33	263.45
481.69	263.67
482.06	263.86
482.42	264.09
482.79	264.32
483.15	264.64
483.52	265.05
483.88	265.41
484.25	265.80
484.61	266.25
484.98	266.70
485.34	267.26
485.71	267.87
486.07	268.52
486.44	269.07
486.80	269.74
487.17	270.42
487.53	271.25
487.90	272.11
488.26	273.03
488.62	274.01
488.99	274.98
489.35	275.97
489.72	277.08
490.08	278.29
490.44	279.50
490.81	280.84
491.17	282.18
491.54	283.65
491.90	285.18
492.26	286.79
492.63	288.54
492.99	290.29
493.36	292.20
493.72	294.25
494.08	296.31
494.45	298.59
494.81	301.01
495.17	303.43
495.54	306.00
495.90	308.66
496.26	311.45
496.63	314.43
496.99	317.56
497.35	320.78
497.72	324.16
498.08	327.70
498.44	331.33
498.80	335.26
499.17	339.32
499.53	343.46
499.89	347.82
500.26	352.26
500.62	356.93
500.98	361.88
501.34	366.88
501.71	372.20
502.07	377.58
502.43	383.14
502.79	388.91
503.16	395.00
503.52	401.22
503.88	407.60
504.24	414.22
504.60	421.14
504.97	428.30
505.33	435.64
505.69	443.28
506.05	451.08
506.41	458.97
506.78	467.11
507.14	475.59
507.50	484.28
507.86	493.29
508.22	502.52
508.59	511.73
508.95	521.36
509.31	531.23
509.67	541.35
510.03	551.64
510.39	562.23
510.75	573.07
511.12	584.10
511.48	595.42
511.84	606.89
512.20	618.38
512.56	630.47
512.92	642.69
513.28	655.17
513.64	667.67
514.00	680.39
514.37	693.33
514.73	706.35
515.09	719.47
515.45	732.81
515.81	746.40
516.17	760.48
516.53	774.69
516.89	788.89
517.25	803.10
517.61	817.60
517.97	832.12
518.33	846.59
518.69	861.43
519.05	876.59
519.41	891.89
519.77	907.58
520.13	922.94
520.49	938.34
520.85	953.78
521.21	969.58
521.57	985.83
521.93	1001.73
522.29	1018.24
522.65	1034.57
523.01	1050.96
523.37	1067.00
523.73	1083.19
524.09	1099.25
524.45	1115.60
524.81	1132.29
525.17	1149.22
525.53	1166.29
525.89	1183.16
526.25	1200.01
526.61	1216.37
526.97	1233.06
527.33	1249.53
527.68	1266.27
528.04	1282.90
528.40	1299.61
528.76	1316.72
529.12	1333.41
529.48	1350.31
529.84	1366.45
530.20	1383.19
530.56	1400.14
530.91	1417.68
531.27	1434.49
531.63	1451.02
531.99	1467.78
532.35	1483.85
532.71	1499.67
533.07	1515.78
533.42	1531.91
533.78	1548.01
534.14	1564.26
534.50	1579.60
534.86	1595.55
535.21	1610.71
535.57	1626.61
535.93	1642.06
536.29	1656.88
536.65	1672.04
537.00	1686.95
537.36	1702.17
537.72	1716.68
538.08	1731.17
538.44	1744.98
538.79	1758.91
539.15	1772.73
539.51	1786.40
539.87	1800.75
540.22	1814.52
540.58	1828.32
540.94	1841.48
541.29	1854.35
541.65	1867.06
542.01	1880.48
542.37	1892.72
542.72	1905.26
543.08	1917.03
543.44	1929.50
543.79	1940.78
544.15	1951.76
544.51	1963.21
544.87	1974.21
545.22	1985.09
545.58	1995.31
545.94	2005.14
546.29	2015.18
546.65	2024.97
547.01	2034.15
547.36	2043.09
547.72	2051.67
548.07	2059.70
548.43	2068.08
548.79	2076.16
549.14	2083.86
549.50	2091.19
549.86	2099.11
550.21	2106.38
550.57	2113.69
550.92	2120.26
551.28	2127.35
551.64	2134.34
551.99	2141.03
552.35	2147.35
552.70	2153.48
553.06	2159.48
553.41	2165.91
553.77	2171.85
554.13	2177.89
554.48	2184.09
554.84	2189.49
555.19	2194.85
555.55	2199.83
555.90	2204.22
556.26	2209.28
556.61	2213.96
556.97	2218.17
557.32	2222.17
557.68	2226.33
558.03	2230.59
558.39	2234.40
558.74	2239.06
559.10	2242.94
559.45	2246.60
559.81	2250.88
560.16	2254.65
560.52	2258.02
560.87	2261.58
561.23	2264.13
561.58	2267.14
561.94	2269.68
562.29	2272.06
562.64	2274.87
563.00	2277.55
563.35	2281.18
563.71	2284.31
564.06	2287.49
564.42	2290.44
564.77	2292.96
565.12	2295.25
565.48	2297.02
565.83	2298.77
566.19	2300.05
566.54	2301.12
566.89	2302.16
567.25	2302.75
567.60	2304.14
567.96	2305.68
568.31	2306.43
568.66	2307.55
569.02	2308.17
569.37	2308.54
569.72	2309.29
570.08	2309.18
570.43	2309.30
570.78	2308.54
571.14	2306.80
571.49	2305.40
571.84	2305.03
572.20	2303.78
572.55	2302.64
572.90	2301.18
573.26	2299.88
573.61	2298.01
573.96	2296.17
574.31	2293.20
574.67	2290.06
575.02	2286.34
575.37	2282.87
575.72	2278.84
576.08	2275.39
576.43	2272.03
576.78	2268.12
577.13	2264.94
577.49	2261.88
577.84	2258.28
578.19	2254.45
578.54	2250.69
578.90	2246.52
579.25	2240.94
579.60	2236.06
579.95	2230.95
580.30	2225.69
580.66	2220.28
581.01	2215.29
581.36	2210.18
581.71	2205.89
582.06	2201.45
582.42	2196.88
582.77	2191.57
583.12	2186.84
583.47	2182.06
583.82	2176.90
584.17	2171.63
584.53	2165.87
584.88	2160.03
585.23	2154.06
585.58	2148.52
585.93	2143.15
586.28	2138.31
586.63	2133.00
586.98	2127.81
587.34	2123.05
587.69	2118.18
588.04	2112.98
588.39	2107.22
588.74	2100.87
589.09	2094.62
589.44	2087.61
589.79	2081.48
590.14	2075.79
590.49	2069.20
590.84	2062.70
591.19	2056.57
591.54	2050.19
591.89	2042.83
592.25	2036.03
592.60	2028.83
592.95	2021.16
593.30	2013.64
593.65	2005.98
594.00	1998.91
594.35	1991.49
594.70	1983.47
595.05	1976.16
595.40	1968.78
595.75	1961.22
596.10	1954.87
596.45	1947.99
596.80	1941.80
597.15	1935.11
597.50	1927.94
597.85	1921.52
598.19	1914.87
598.54	1907.79
598.89	1901.07
599.24	1895.10
599.59	1888.33
599.94	1881.98
600.29	1875.64
600.64	1869.03
600.99	1861.58
601.34	1854.70
601.69	1847.62
602.04	1840.65
602.39	1833.27
602.74	1826.41
603.08	1819.81
603.43	1812.96
603.78	1805.70
604.13	1798.56
604.48	1791.17
604.83	1784.40
605.18	1777.31
605.53	1769.27
605.87	1761.17
606.22	1753.85
606.57	1745.86
606.92	1738.54
607.27	1731.39
607.62	1724.48
607.96	1717.16
608.31	1710.46
608.66	1702.79
609.01	1695.29
609.36	1687.67
609.70	1679.61
610.05	1671.44
610.40	1663.62
610.75	1655.29
611.10	1647.57
611.44	1639.05
611.79	1631.17
612.14	1622.36
612.49	1613.29
612.83	1604.98
613.18	1596.88
613.53	1588.75
613.88	1580.28
614.22	1571.91
614.57	1563.40
614.92	1555.22
615.27	1547.69
615.61	1539.21
615.96	1531.28
616.31	1523.70
616.65	1516.33
617.00	1508.74
617.35	1501.21
617.70	1492.76
618.04	1484.15
618.39	1475.94
618.74	1468.37
619.08	1459.99
619.43	1452.46
619.78	1445.45
620.12	1438.26
620.47	1430.81
620.82	1422.72
621.16	1415.23
621.51	1407.66
621.85	1400.04
622.20	1391.63
622.55	1383.32
622.89	1375.62
623.24	1367.98
623.59	1360.55
623.93	1353.04
624.28	1345.88
624.62	1338.24
624.97	1331.08
625.32	1324.40
625.66	1317.31
626.01	1310.15
626.35	1302.71
626.70	1294.92
627.04	1287.19
627.39	1279.33
627.73	1271.77
628.08	1264.78
628.43	1257.41
628.77	1250.11
629.12	1242.43
629.46	1235.14
629.81	1227.68
630.15	1220.31
630.50	1212.87
630.84	1204.67
631.19	1196.67
631.53	1189.14
631.88	1181.64
632.22	1174.15
632.57	1166.89
632.91	1159.36
633.26	1151.86
633.60	1144.53
633.95	1137.45
634.29	1130.55
634.64	1123.90
634.98	1116.55
635.32	1109.42
635.67	1102.93
636.01	1096.17
636.36	1089.42
636.70	1082.97
637.05	1076.44
637.39	1070.08
637.73	1063.58
638.08	1057.78
638.42	1051.94
638.77	1045.52
639.11	1038.89
639.45	1032.51
639.80	1025.74
640.14	1019.32
640.49	1012.87
640.83	1006.57
641.17	1000.37
641.52	993.95
641.86	987.58
642.20	981.76
642.55	975.41
642.89	969.03
643.23	962.57
643.58	956.77
643.92	950.48
644.26	944.33
644.61	938.34
644.95	932.26
645.29	925.59
645.64	918.75
645.98	912.40
646.32	906.63
646.66	900.51
647.01	894.76
647.35	889.13
647.69	883.23
648.04	877.69
648.38	871.77
648.72	865.79
649.06	859.73
649.41	853.84
649.75	847.86
650.09	841.86
650.43	836.09
650.78	829.95
651.12	824.05
651.46	818.37
651.80	812.49
652.14	807.12
652.49	801.80
652.83	796.59
653.17	790.89
653.51	785.09
653.85	779.67
654.20	774.04
654.54	767.99
654.88	762.33
655.22	756.49
655.56	750.90
655.90	745.41
656.25	740.15
656.59	734.84
656.93	729.75
657.27	724.57
657.61	719.08
657.95	714.00
658.29	708.92
658.64	703.65
658.98	698.40
659.32	692.98
659.66	687.66
660.00	682.44
660.34	677.52
660.68	672.56
661.02	667.57
661.36	662.91
661.70	658.49
662.05	654.13
662.39	649.76
662.73	645.30
663.07	640.93
663.41	636.43
663.75	631.94
664.09	627.45
664.43	623.04
664.77	619.00
665.11	614.73
665.45	610.60
665.79	606.50
666.13	602.31
666.47	598.13
666.81	593.99
667.15	589.84
667.49	585.89
667.83	582.14
668.17	578.20
668.51	574.07
668.85	570.00
669.19	566.12
669.53	562.26
669.87	558.32
670.21	554.60
670.55	550.95
670.89	547.53
671.23	544.08
671.57	540.52
671.91	536.92
672.25	533.41
672.58	529.88
672.92	526.53
673.26	523.44
673.60	520.34
673.94	517.25
674.28	514.36
674.62	511.41
674.96	508.24
675.30	505.30
675.64	502.40
675.97	499.65
676.31	496.79
676.65	493.88
676.99	491.20
677.33	488.32
677.67	485.51
678.01	482.44
678.34	479.43
678.68	476.62
679.02	473.81
679.36	471.07
679.70	468.39
680.04	465.60
680.37	462.67
680.71	459.91
681.05	457.29
681.39	454.57
681.73	451.96
682.06	449.49
682.40	446.95
682.74	444.45
683.08	441.86
683.42	439.26
683.75	436.75
684.09	434.19
684.43	431.76
684.77	429.38
685.10	427.06
685.44	424.77
685.78	422.44
686.12	420.19
686.45	417.91
686.79	415.63
687.13	413.46
687.46	411.35
687.80	409.14
688.14	406.96
688.48	404.91
688.81	402.66
689.15	400.51
689.49	398.43
689.82	396.37
690.16	394.32
690.50	392.39
690.83	390.42
691.17	388.49
691.51	386.63
691.84	384.78
692.18	382.83
692.52	380.87
692.85	379.00
693.19	377.15
693.52	375.32
693.86	373.49
694.20	371.74
694.53	369.98
694.87	368.21
695.21	366.45
695.54	364.66
695.88	362.99
696.21	361.22
696.55	359.54
696.88	357.85
697.22	356.22
697.56	354.56
697.89	352.98
698.23	351.40
698.56	349.78
698.90	348.18
699.23	346.57
699.57	345.00
699.90	343.43
700.24	341.90
700.58	340.40
700.91	338.91
701.25	337.42
701.58	336.03
701.92	334.65
702.25	333.24
702.59	331.85
702.92	330.50
703.26	329.23
703.59	327.94
703.93	326.74
704.26	325.47
704.60	324.19
704.93	322.91
705.26	321.68
705.60	320.51
705.93	319.32
706.27	318.28
706.60	317.26
706.94	316.15
707.27	315.01
707.61	313.91
707.94	312.90
708.27	311.84
708.61	310.72
708.94	309.73
709.28	308.79
709.61	307.83
709.94	306.87
710.28	305.86
710.61	304.86
710.95	303.76
711.28	302.84
711.61	301.89
711.95	300.97
712.28	300.00
712.61	299.00
712.95	298.05
713.28	297.15
713.61	296.24
713.95	295.36
714.28	294.55
714.61	293.68
714.95	292.84
715.28	292.01
715.61	291.14
715.95	290.31
716.28	289.42
716.61	288.60
716.95	287.74
717.28	286.97
717.61	286.21
717.94	285.50
718.28	284.70
718.61	283.97
718.94	283.28
719.27	282.65
719.61	282.00
719.94	281.39
720.27	280.64
720.60	280.00
720.94	279.38
721.27	278.80
721.60	278.22
721.93	277.63
722.27	277.04
722.60	276.49
722.93	275.90
723.26	275.35
723.59	274.75
723.93	274.27
724.26	273.77
724.59	273.23
724.92	272.72
725.25	272.23
725.59	271.70
725.92	271.17
726.25	270.66
726.58	270.19
726.91	269.64
727.24	269.20
727.57	268.72
727.91	268.21
728.24	267.71
728.57	267.24
728.90	266.76
729.23	266.31
729.56	265.88
729.89	265.39
730.22	264.92
730.55	264.51
730.89	264.03
731.22	263.54
731.55	263.12
731.88	262.67
732.21	262.24
732.54	261.84
732.87	261.42
733.20	261.04
733.53	260.62
733.86	260.26
734.19	259.90
734.52	259.54
734.85	259.24
735.18	258.86
735.51	258.51
735.84	258.14
736.17	257.80
736.50	257.45
736.83	257.22
737.16	256.90
737.49	256.60
737.82	256.26
738.15	256.03
738.48	255.66
738.81	255.36
739.14	255.06
739.47	254.71
739.80	254.40
740.13	254.08
740.46	253.79
740.79	253.48
741.12	253.15
741.45	252.83
741.78	252.50
742.11	252.24
742.44	251.92
742.77	251.64
743.10	251.30
743.43	250.98
743.75	250.61
744.08	250.46
744.41	250.17
744.74	249.93
745.07	249.58
745.40	249.34
745.73	249.10
746.06	248.81
746.39	248.59
746.71	248.35
747.04	248.04
747.37	247.76
747.70	247.53
748.03	247.28
748.36	247.06
748.68	246.82
749.01	246.58
749.34	246.34
749.67	246.10
750.00	245.88
750.33	245.72
750.65	245.51
750.98	245.19
751.31	244.94
751.64	244.72
751.97	244.57
752.29	244.35
752.62	244.12
752.95	243.89
753.28	243.68
753.60	243.42
753.93	243.29
754.26	243.05
754.59	242.84
754.91	242.65
755.24	242.45
755.57	242.25
755.90	242.02
756.22	241.83
756.55	241.61
756.88	241.38
757.20	241.13
757.53	240.93
757.86	240.71
758.19	240.57
758.51	240.36
758.84	240.13
759.17	239.97
759.49	239.77
759.82	239.66
760.15	239.48
760.47	239.36
760.80	239.15
761.13	239.06
761.45	238.90
761.78	238.72
762.11	238.57
762.43	238.37
762.76	238.20
763.08	238.06
763.41	237.93
763.74	237.83
764.06	237.70
764.39	237.54
764.71	237.41
765.04	237.26
765.37	237.10
765.69	236.98
766.02	236.82
766.34	236.68
766.67	236.53
767.00	236.41
767.32	236.34
767.65	236.26
767.97	236.12
768.30	235.99
768.62	235.90
768.95	235.77
769.27	235.72
769.60	235.63
769.92	235.52
770.25	235.41
770.57	235.29
770.90	235.20
771.22	235.12
771.55	235.00
771.87	234.91
772.20	234.82
772.52	234.81
772.85	234.86
773.17	234.78
773.50	234.69
773.82	234.61
774.15	234.48
774.47	234.35
774.80	234.28
775.12	234.22
775.45	234.11
775.77	234.05
776.09	233.94
776.42	233.88
776.74	233.86
777.07	233.81
777.39	233.76
777.72	233.68
778.04	233.62
778.36	233.57
778.69	233.51
779.01	233.49
779.33	233.33
779.66	233.18
779.98	233.12
780.31	233.10
780.63	233.11
780.95	233.08
781.28	233.03
781.60	232.97
781.92	232.90
782.25	232.89
782.57	232.83
782.89	232.77
783.22	232.73
783.54	232.64
783.86	232.61
784.19	232.56
784.51	232.54
784.83	232.49
785.16	232.47
785.48	232.43
785.80	232.36
786.12	232.34
786.45	232.30
786.77	232.26
787.09	232.18
787.42	232.08
787.74	232.04
788.06	232.01
788.38	231.97
788.71	231.92
789.03	231.87
789.35	231.84
789.67	231.79
789.99	231.75
790.32	231.70
790.64	231.67
790.96	231.69
791.28	231.63
791.61	231.60
791.93	231.55
792.25	231.52
792.57	231.58
792.89	231.52
793.21	231.46
793.54	231.43
793.86	231.37
794.18	231.32
794.50	231.24
794.82	231.20
795.14	231.17
795.47	231.13
795.79	231.07
796.11	231.01
796.43	231.01
796.75	230.96
797.07	230.92
797.39	230.86
797.71	230.76
798.04	230.70
798.36	230.65
798.68	230.63
799.00	230.60
799.32	230.53
799.64	230.53
799.96	230.48
800.28	230.45
800.60	230.41
800.92	230.40
801.24	230.37
801.56	230.33
801.89	230.27
802.21	230.25
802.53	230.20
802.85	230.17
803.17	230.14
803.49	230.08
803.81	230.04
804.13	230.00
804.45	229.93
804.77	229.91
805.09	229.88
805.41	229.81
805.73	229.75
806.05	229.66
806.37	229.61
806.69	229.58
807.01	229.52
807.33	229.50
807.65	229.42
807.97	229.46
808.28	229.36
808.60	229.33
808.92	229.30
809.24	229.34
809.56	229.29
809.88	229.27
810.20	229.29
810.52	229.26
810.84	229.22
811.16	229.21
811.48	229.17
811.80	229.17
812.12	229.14
812.43	229.13
812.75	229.13
813.07	229.08
813.39	229.07
813.71	229.03
814.03	228.99
814.35	228.95
814.67	228.87
814.98	228.91
815.30	228.93
815.62	228.90
815.94	228.81
816.26	228.87
816.58	228.78
816.89	228.76
817.21	228.74
817.53	228.75
817.85	228.73
818.17	228.69
818.48	228.64
818.80	228.67
819.12	228.61
819.44	228.58
819.76	228.58
820.07	228.57
820.39	228.58
820.71	228.59
821.03	228.59
821.34	228.60
821.66	228.62
821.98	228.58
822.30	228.57
822.61	228.61
822.93	228.55
823.25	228.58
823.57	228.57
823.88	228.60
824.20	228.58
824.52	228.61
824.83	228.66
825.15	228.65
825.47	228.62
825.79	228.65
826.10	228.66
826.42	228.66
826.74	228.68
827.05	228.68
827.37	228.68
827.69	228.66
828.00	228.69
828.32	228.64
828.64	228.62
828.95	228.66
829.27	228.62
829.58	228.60
829.90	228.59
830.22	228.57
830.53	228.51
830.85	228.50
831.17	228.46
831.48	228.43
831.80	228.44
832.11	228.44
832.43	228.41
832.75	228.38
833.06	228.39
833.38	228.33
833.69	228.31
834.01	228.32
834.32	228.34
834.64	228.30
834.96	228.30
835.27	228.31
835.59	228.27
835.90	228.26
836.22	228.27
836.53	228.25
836.85	228.25
837.16	228.35
837.48	228.35
837.79	228.38
838.11	228.38
838.42	228.37
838.74	228.38
839.05	228.37
839.37	228.40
839.68	228.33
840.00	228.31
840.31	228.33
840.63	228.30
840.94	228.27
841.26	228.25
841.57	228.25
841.88	228.24
842.20	228.22
842.51	228.17
842.83	228.16
843.14	228.21
843.46	228.21
843.77	228.11
844.08	228.09
844.40	228.00
844.71	227.97
845.03	227.92
845.34	227.88
845.65	227.88
845.97	227.84
846.28	227.84
846.60	227.85
846.91	227.82
847.22	227.82
847.54	227.85
847.85	227.82
848.16	227.79
848.48	227.76
848.79	227.78
849.10	227.80
849.42	227.77
849.73	227.73
850.04	227.70
850.36	227.66
850.67	227.68
850.98	227.72
851.30	227.73
851.61	227.73
851.92	227.74
852.23	227.75
852.55	227.76
852.86	227.76
853.17	227.79
853.49	227.79
853.80	227.80
854.11	227.77
854.42	227.82
854.74	227.82
855.05	227.82
855.36	227.77
855.67	227.79
855.99	227.85
856.30	227.94
856.61	227.91
856.92	227.94
857.23	227.92
857.55	227.91
857.86	227.90
858.17	227.93
858.48	227.92
858.79	227.92
859.11	227.89
859.42	227.87
859.73	227.84
860.04	227.84
860.35	227.82
860.66	227.78
860.98	227.78
861.29	227.78
861.60	227.80
861.91	227.82
862.22	227.78
862.53	227.72
862.84	227.61
863.16	227.66
863.47	227.67
863.78	227.65
864.09	227.66
864.40	227.66
864.71	227.64
865.02	227.64
865.33	227.62
865.64	227.60
865.95	227.59
866.27	227.65
866.58	227.64
866.89	227.63
867.20	227.62
867.51	227.56
867.82	227.55
868.13	227.55
868.44	227.50
868.75	227.54
869.06	227.54
869.37	227.55
869.68	227.52
869.99	227.53
870.30	227.53
870.61	227.51
870.92	227.49
871.23	227.48
871.54	227.48
871.85	227.51
872.16	227.55
872.47	227.54
872.78	227.45
873.09	227.47
873.40	227.46
873.71	227.44
874.02	227.47
874.33	227.45
874.64	227.44
874.95	227.46
875.26	227.42
875.56	227.40
875.87	227.38
876.18	227.33
876.49	227.39
876.80	227.42
877.11	227.40
877.42	227.38
877.73	227.41
878.04	227.37
878.35	227.33
878.66	227.32
878.96	227.33
879.27	227.34
879.58	227.35
879.89	227.36
880.20	227.41
880.51	227.40
880.82	227.41
881.12	227.36
881.43	227.34
881.74	227.33
882.05	227.33
882.36	227.35
882.67	227.40
882.97	227.34
883.28	227.28
883.59	227.28
883.90	227.31
884.21	227.31
884.51	227.32
884.82	227.32
885.13	227.35
885.44	227.34
885.74	227.32
886.05	227.29
886.36	227.32
886.67	227.30
886.98	227.35
887.28	227.36
887.59	227.36
887.90	227.39
888.20	227.42
888.51	227.45
888.82	227.41
889.13	227.39
889.43	227.42
889.74	227.43
890.05	227.44
890.35	227.45
890.66	227.42
890.97	227.39
891.28	227.37
891.58	227.33
891.89	227.35
892.20	227.38
892.50	227.34
892.81	227.28
893.12	227.28
893.42	227.23
893.73	227.25
894.04	227.30
894.34	227.29
894.65	227.26
894.95	227.25
895.26	227.30
895.57	227.36
895.87	227.30
896.18	227.32
896.48	227.32
896.79	227.29
897.10	227.29
897.40	227.31
897.71	227.32
898.01	227.32
898.32	227.31
898.63	227.28
898.93	227.33
899.24	227.35
899.54	227.31
899.85	227.30
900.15	227.25
900.46	227.23
900.76	227.25
901.07	227.25
901.38	227.24
901.68	227.23
901.99	227.16
902.29	227.16
902.60	227.16
902.90	227.11
903.21	227.13
903.51	227.12
903.82	227.16
904.12	227.15
904.43	227.15
904.73	227.14
905.03	227.13
905.34	227.19
905.64	227.18
905.95	227.21
906.25	227.21
906.56	227.21
906.86	227.19
907.17	227.15
907.47	227.17
907.77	227.15
908.08	227.09
908.38	227.11
908.69	227.12
908.99	227.14
909.30	227.18
909.60	227.17
909.90	227.17
910.21	227.17
910.51	227.16
910.81	227.15
911.12	227.15
911.42	227.17
911.73	227.06
912.03	227.10
912.33	227.09
912.64	227.09
912.94	227.11
913.24	227.08
913.55	227.10
913.85	227.08
914.15	227.08
914.46	227.14
914.76	227.13
915.06	227.10
915.37	227.07
915.67	227.09
915.97	227.12
916.27	227.07
916.58	227.07
916.88	227.10
917.18	227.12
917.49	227.17
917.79	227.16
918.09	227.19
918.39	227.19
918.70	227.19
919.00	227.18
919.30	227.21
919.60	227.23
919.91	227.23
920.21	227.24
920.51	227.23
920.81	227.22
921.12	227.22
921.42	227.23
921.72	227.25
922.02	227.25
922.32	227.26
922.63	227.31
922.93	227.38
923.23	227.39
923.53	227.37
923.83	227.34
924.13	227.39
924.44	227.38
924.74	227.40
925.04	227.43
925.34	227.44
925.64	227.43
925.94	227.45
926.24	227.47
926.55	227.50
926.85	227.52
927.15	227.50
927.45	227.51
927.75	227.50
928.05	227.50
928.35	227.47
928.65	227.49
928.95	227.50
929.26	227.46
929.56	227.47
929.86	227.48
930.16	227.47
930.46	227.43
930.76	227.43
931.06	227.39
931.36	227.35
931.66	227.37
931.96	227.38
932.26	227.37
932.56	227.35
932.86	227.32
933.16	227.30
933.46	227.29
933.76	227.29
934.06	227.31
934.36	227.31
934.66	227.28
934.96	227.22
935.26	227.18
935.56	227.14
935.86	227.08
936.16	227.07
936.46	227.02
936.76	226.99
937.06	226.99
937.36	226.97
937.66	227.00
937.96	227.00
938.26	226.96
938.56	226.96
938.86	226.93
939.16	226.95
939.46	226.98
939.76	226.99
940.06	226.95
940.35	226.96
940.65	226.92
940.95	226.93
941.25	226.90
941.55	226.89
941.85	226.90
942.15	226.88
942.45	226.93
942.75	226.94
943.04	226.96
943.34	226.99
943.64	227.00
943.94	226.95
944.24	226.94
944.54	226.98
944.84	226.97
945.13	226.95
945.43	226.92
945.73	226.91
946.03	226.90
946.33	226.89
946.62	226.86
946.92	226.87
947.22	226.89
947.52	226.89
947.82	226.90
948.11	226.87
948.41	226.87
948.71	226.80
949.01	226.82
949.31	226.81
949.60	226.78
949.90	226.80
950.20	226.82
950.50	226.80
950.79	226.75
951.09	226.78
951.39	226.81
951.69	226.81
951.98	226.84
952.28	226.86
952.58	226.87
952.87	226.86
953.17	226.87
953.47	226.87
953.76	226.89
954.06	226.90
954.36	226.89
954.66	226.87
954.95	226.91
955.25	226.91
955.55	226.92
955.84	226.90
956.14	226.90
956.44	226.90
956.73	226.90
957.03	226.92
957.32	226.92
957.62	226.90
957.92	226.92
958.21	226.90
958.51	226.98
958.81	226.99
959.10	227.04
959.40	227.03
959.69	227.02
959.99	227.04
960.29	227.04
960.58	227.09
960.88	227.16
961.17	227.16
961.47	227.19
961.76	227.20
962.06	227.24
962.36	227.22
962.65	227.26
962.95	227.27
963.24	227.28
963.54	227.27
963.83	227.28
964.13	227.29
964.42	227.27
964.72	227.22
965.01	227.23
965.31	227.22
965.60	227.23
965.90	227.31
966.19	227.33
966.49	227.35
966.78	227.34
967.08	227.36
967.37	227.37
967.67	227.34
967.96	227.35
968.26	227.32
968.55	227.33
968.85	227.30
969.14	227.32
969.43	227.32
969.73	227.32
970.02	227.29
970.32	227.28
970.61	227.30
970.91	227.24
971.20	227.25
971.49	227.24
971.79	227.25
972.08	227.19
972.38	227.15
972.67	227.15
972.96	227.15
973.26	227.11
973.55	227.10
973.85	227.09
974.14	227.09
974.43	227.12
974.73	227.12
975.02	227.11
975.31	227.07
975.61	227.08
975.90	227.06
976.19	227.06
976.49	227.05
976.78	227.03
977.07	227.03
977.37	227.01
977.66	226.99
977.95	226.93
978.24	226.91
978.54	226.91
978.83	226.87
979.12	226.85
979.42	226.82
979.71	226.82
980.00	226.80
980.29	226.77
980.59	226.74
980.88	226.76
981.17	226.76
981.46	226.77
981.76	226.72
982.05	226.74
982.34	226.76
982.63	226.72
982.93	226.72
983.22	226.73
983.51	226.68
983.80	226.69
984.09	226.73
984.39	226.73
984.68	226.72
984.97	226.70
985.26	226.70
985.55	226.74
985.85	226.67
986.14	226.71
986.43	226.71
986.72	226.71
987.01	226.67
987.30	226.69
987.59	226.69
987.89	226.74
988.18	226.71
988.47	226.69
988.76	226.70
989.05	226.72
989.34	226.71
989.63	226.78
989.92	226.79
990.22	226.80
990.51	226.81
990.80	226.81
991.09	226.81
991.38	226.82
991.67	226.79
991.96	226.82
992.25	226.80
992.54	226.80
992.83	226.76
993.12	226.75
993.41	226.73
993.70	226.79
993.99	226.76
994.28	226.79
994.58	226.84
994.87	226.84
995.16	226.86
995.45	226.87
995.74	226.85
996.03	226.86
996.32	226.89
996.61	226.90
996.90	226.89
997.19	226.94
997.48	226.96
997.77	226.96
998.06	226.97
998.34	226.95
998.63	226.98
998.92	227.01
999.21	227.08
999.50	227.10
999.79	227.05
1000.08	227.06
1000.37	227.06
1000.66	227.01
1000.95	227.07
1001.24	227.03
1001.53	227.08
1001.82	227.10
1002.11	227.06
1002.40	227.03
1002.68	227.02
1002.97	227.09
1003.26	227.09
1003.55	227.10
1003.84	227.11
1004.13	227.13
1004.42	227.17
1004.71	227.17
1004.99	227.14
1005.28	227.11
1005.57	227.07
1005.86	227.09
1006.15	227.11
1006.44	227.11
1006.72	227.12
1007.01	227.08
1007.30	227.09
1007.59	227.07
1007.88	227.07
1008.17	227.10
1008.45	227.12
1008.74	227.11
1009.03	227.10
1009.32	227.10
1009.60	227.07
1009.89	227.08
1010.18	227.06
1010.47	227.03
1010.76	227.03
1011.04	227.06
1011.33	227.06
1011.62	227.09
1011.91	227.07
1012.19	227.05
1012.48	227.03
1012.77	227.08
1013.05	227.12
1013.34	227.10
1013.63	227.08
1013.92	227.05
1014.20	227.01
1014.49	226.98
1014.78	226.98
1015.06	226.91
1015.35	226.89
1015.64	226.89
1015.92	226.87
1016.21	226.88
1016.50	226.88
1016.78	226.87
1017.07	226.88
1017.36	226.86
1017.64	226.83
1017.93	226.84
1018.22	226.82
1018.50	226.80
1018.79	226.75
1019.08	226.68
1019.36	226.75
1019.65	226.71
1019.93	226.75
1020.22	226.77
1020.51	226.82
1020.79	226.80
1021.08	226.37
1021.36	226.51
1021.65	226.81
1021.94	226.24
1022.22	227.50
1022.51	226.23
1022.79	227.46
1023.08	226.86
1023.36	227.90
1023.65	226.43
>>>>>End Processed Spectral Data<<<<<
