SpectraSuite Data File
++++++++++++++++++++++++++++++++++++
Date: Fri Feb 01 17:19:24 EST 2013
User: group
Dark Spectrum Present: No
Reference Spectrum Present: No
Number of Sampled Component Spectra: 1
Spectrometers: USB2E7196
Integration Time (usec): 35000 (USB2E7196)
Spectra Averaged: 100 (USB2E7196)
Boxcar Smoothing: 10 (USB2E7196)
Correct for Electrical Dark: No (USB2E7196)
Strobe/Lamp Enabled: No (USB2E7196)
Correct for Detector Non-linearity: No (USB2E7196)
Correct for Stray Light: No (USB2E7196)
Number of Pixels in Processed Spectrum: 2048
>>>>>Begin Processed Spectral Data<<<<<
339.09	0.00
339.48	212.52
339.86	213.92
340.24	216.06
340.63	216.72
341.01	220.24
341.39	219.20
341.78	220.69
342.16	222.68
342.54	222.44
342.93	211.21
343.31	221.86
343.69	222.40
344.07	222.89
344.46	223.30
344.84	223.67
345.22	223.91
345.60	224.18
345.99	224.38
346.37	224.49
346.75	224.60
347.13	224.67
347.52	224.71
347.90	224.81
348.28	224.83
348.66	224.86
349.05	224.87
349.43	224.90
349.81	224.93
350.19	224.96
350.57	225.00
350.96	225.09
351.34	225.18
351.72	225.29
352.10	225.38
352.48	225.45
352.87	225.55
353.25	225.62
353.63	225.69
354.01	225.75
354.39	225.86
354.77	225.94
355.15	226.08
355.54	226.14
355.92	226.15
356.30	226.23
356.68	226.34
357.06	226.44
357.44	226.55
357.82	226.65
358.20	226.76
358.58	226.81
358.97	226.84
359.35	226.94
359.73	227.01
360.11	227.07
360.49	227.14
360.87	227.16
361.25	227.21
361.63	227.31
362.01	227.38
362.39	227.42
362.77	227.48
363.15	227.54
363.53	227.60
363.91	227.63
364.29	227.69
364.67	227.66
365.05	227.66
365.43	227.66
365.81	227.69
366.19	227.75
366.57	227.79
366.95	227.83
367.33	227.78
367.71	227.80
368.09	227.82
368.47	227.80
368.85	227.81
369.23	227.80
369.61	227.73
369.99	227.72
370.37	227.68
370.75	227.69
371.13	227.61
371.51	227.57
371.89	227.55
372.27	227.43
372.65	227.40
373.03	227.37
373.41	227.32
373.78	227.24
374.16	227.13
374.54	227.05
374.92	226.97
375.30	226.92
375.68	226.83
376.06	226.76
376.44	226.68
376.82	226.61
377.19	226.54
377.57	226.47
377.95	226.40
378.33	226.34
378.71	226.21
379.09	226.17
379.47	226.09
379.84	226.01
380.22	225.96
380.60	225.86
380.98	225.74
381.36	225.65
381.73	225.56
382.11	225.53
382.49	225.44
382.87	225.36
383.25	225.28
383.62	225.34
384.00	225.26
384.38	225.23
384.76	225.18
385.13	225.12
385.51	225.07
385.89	224.97
386.27	224.93
386.64	224.90
387.02	224.84
387.40	224.81
387.78	224.76
388.15	224.73
388.53	224.70
388.91	224.68
389.29	224.66
389.66	224.66
390.04	224.60
390.42	224.57
390.79	224.57
391.17	224.57
391.55	224.44
391.92	224.43
392.30	224.38
392.68	224.37
393.05	224.39
393.43	224.43
393.81	224.44
394.18	224.43
394.56	224.40
394.94	224.42
395.31	224.42
395.69	224.47
396.06	224.51
396.44	224.51
396.82	224.56
397.19	224.63
397.57	224.66
397.95	224.73
398.32	224.77
398.70	224.83
399.07	224.90
399.45	224.93
399.82	224.98
400.20	225.04
400.58	225.09
400.95	225.12
401.33	225.20
401.70	225.32
402.08	225.37
402.45	225.46
402.83	225.60
403.20	225.72
403.58	225.78
403.95	225.93
404.33	226.07
404.71	226.17
405.08	226.37
405.46	226.49
405.83	226.66
406.21	226.81
406.58	226.97
406.96	227.10
407.33	227.30
407.70	227.55
408.08	227.84
408.45	228.09
408.83	228.33
409.20	228.52
409.58	228.71
409.95	229.01
410.33	229.32
410.70	229.54
411.08	229.89
411.45	230.24
411.82	230.54
412.20	230.92
412.57	231.37
412.95	231.65
413.32	232.11
413.69	232.51
414.07	232.97
414.44	233.46
414.82	233.97
415.19	234.57
415.56	235.08
415.94	235.65
416.31	236.28
416.68	236.93
417.06	237.70
417.43	238.45
417.81	239.25
418.18	240.04
418.55	240.92
418.93	241.80
419.30	242.72
419.67	243.69
420.04	244.68
420.42	245.68
420.79	246.92
421.16	248.08
421.54	249.30
421.91	250.57
422.28	251.89
422.66	253.24
423.03	254.55
423.40	255.96
423.77	257.41
424.15	258.87
424.52	260.43
424.89	262.07
425.26	263.62
425.64	265.10
426.01	266.75
426.38	268.46
426.75	270.16
427.13	271.95
427.50	273.81
427.87	275.75
428.24	277.66
428.61	279.46
428.99	281.47
429.36	283.65
429.73	285.79
430.10	287.82
430.47	289.96
430.85	292.13
431.22	294.42
431.59	296.86
431.96	299.17
432.33	301.68
432.70	304.16
433.08	307.03
433.45	309.77
433.82	312.48
434.19	315.41
434.56	318.32
434.93	321.07
435.30	323.75
435.68	326.71
436.05	329.57
436.42	332.37
436.79	334.94
437.16	337.68
437.53	340.57
437.90	343.42
438.27	346.28
438.64	349.18
439.01	351.87
439.38	354.19
439.75	356.42
440.13	358.99
440.50	361.38
440.87	363.32
441.24	365.25
441.61	367.51
441.98	369.08
442.35	370.90
442.72	372.80
443.09	374.71
443.46	375.78
443.83	376.46
444.20	377.06
444.57	377.94
444.94	378.28
445.31	378.62
445.68	379.04
446.05	379.12
446.42	378.78
446.79	378.35
447.16	377.90
447.53	377.62
447.90	376.46
448.27	375.27
448.64	373.71
449.01	372.57
449.37	370.49
449.74	368.49
450.11	366.23
450.48	363.68
450.85	361.06
451.22	358.82
451.59	356.73
451.96	354.71
452.33	352.03
452.70	349.61
453.07	346.72
453.43	343.76
453.80	340.91
454.17	338.14
454.54	335.50
454.91	332.70
455.28	329.91
455.65	327.37
456.02	324.85
456.38	322.58
456.75	319.84
457.12	317.54
457.49	315.29
457.86	313.05
458.23	311.18
458.59	309.07
458.96	306.92
459.33	305.01
459.70	303.12
460.07	301.53
460.43	299.75
460.80	298.08
461.17	296.61
461.54	295.05
461.91	293.59
462.27	292.12
462.64	290.84
463.01	289.46
463.38	288.14
463.74	286.73
464.11	285.52
464.48	284.51
464.85	283.38
465.21	282.49
465.58	281.56
465.95	280.41
466.32	279.50
466.68	278.61
467.05	277.72
467.42	276.79
467.78	275.89
468.15	274.98
468.52	274.36
468.88	273.47
469.25	272.69
469.62	272.03
469.98	271.36
470.35	270.70
470.72	270.10
471.08	269.38
471.45	268.87
471.82	268.35
472.18	267.72
472.55	267.27
472.92	266.75
473.28	266.29
473.65	265.87
474.02	265.38
474.38	264.95
474.75	264.59
475.11	264.23
475.48	263.95
475.85	263.73
476.21	263.46
476.58	263.26
476.94	263.15
477.31	262.97
477.67	262.80
478.04	262.71
478.41	262.66
478.77	262.74
479.14	262.63
479.50	262.67
479.87	262.74
480.23	262.81
480.60	262.89
480.96	262.95
481.33	263.10
481.69	263.29
482.06	263.50
482.42	263.68
482.79	263.95
483.15	264.28
483.52	264.65
483.88	264.97
484.25	265.38
484.61	265.78
484.98	266.23
485.34	266.79
485.71	267.35
486.07	267.92
486.44	268.45
486.80	269.13
487.17	269.81
487.53	270.60
487.90	271.44
488.26	272.37
488.62	273.31
488.99	274.29
489.35	275.36
489.72	276.46
490.08	277.68
490.44	278.88
490.81	280.18
491.17	281.55
491.54	283.02
491.90	284.49
492.26	286.11
492.63	287.83
492.99	289.61
493.36	291.49
493.72	293.52
494.08	295.59
494.45	297.88
494.81	300.22
495.17	302.65
495.54	305.22
495.90	307.85
496.26	310.68
496.63	313.58
496.99	316.65
497.35	319.89
497.72	323.26
498.08	326.73
498.44	330.36
498.80	334.23
499.17	338.27
499.53	342.44
499.89	346.78
500.26	351.25
500.62	355.83
500.98	360.77
501.34	365.84
501.71	371.13
502.07	376.51
502.43	382.04
502.79	387.83
503.16	393.84
503.52	400.04
503.88	406.35
504.24	412.95
504.60	419.80
504.97	426.87
505.33	434.10
505.69	441.74
506.05	449.50
506.41	457.28
506.78	465.32
507.14	473.69
507.50	482.29
507.86	491.17
508.22	500.28
508.59	509.42
508.95	518.83
509.31	528.62
509.67	538.56
510.03	548.67
510.39	559.05
510.75	569.69
511.12	580.45
511.48	591.58
511.84	602.90
512.20	614.17
512.56	625.96
512.92	637.93
513.28	650.14
513.64	662.42
514.00	674.89
514.37	687.62
514.73	700.43
515.09	713.21
515.45	726.28
515.81	739.61
516.17	753.19
516.53	767.04
516.89	780.90
517.25	794.81
517.61	809.09
517.97	823.23
518.33	837.38
518.69	851.85
519.05	866.43
519.41	881.21
519.77	896.48
520.13	911.57
520.49	926.65
520.85	941.56
521.21	956.79
521.57	972.67
521.93	988.09
522.29	1004.12
522.65	1020.07
523.01	1035.87
523.37	1051.63
523.73	1067.52
524.09	1083.22
524.45	1099.09
524.81	1115.32
525.17	1131.64
525.53	1148.18
525.89	1164.62
526.25	1181.15
526.61	1197.25
526.97	1213.69
527.33	1229.75
527.68	1245.88
528.04	1261.95
528.40	1278.24
528.76	1295.00
529.12	1311.20
529.48	1327.79
529.84	1343.43
530.20	1359.70
530.56	1376.34
530.91	1393.35
531.27	1409.78
531.63	1425.98
531.99	1442.24
532.35	1458.04
532.71	1473.61
533.07	1489.55
533.42	1505.17
533.78	1520.85
534.14	1536.98
534.50	1552.03
534.86	1567.59
535.21	1582.63
535.57	1598.33
535.93	1613.59
536.29	1628.11
536.65	1643.01
537.00	1657.42
537.36	1672.53
537.72	1686.80
538.08	1701.04
538.44	1714.58
538.79	1728.24
539.15	1741.61
539.51	1755.10
539.87	1769.12
540.22	1782.71
540.58	1796.14
540.94	1809.27
541.29	1822.06
541.65	1834.44
542.01	1847.50
542.37	1859.83
542.72	1872.02
543.08	1883.74
543.44	1896.00
543.79	1907.25
544.15	1918.19
544.51	1929.81
544.87	1940.75
545.22	1951.54
545.58	1961.84
545.94	1971.66
546.29	1981.60
546.65	1991.68
547.01	2001.17
547.36	2010.05
547.72	2018.58
548.07	2026.85
548.43	2035.08
548.79	2043.08
549.14	2050.82
549.50	2058.39
549.86	2066.14
550.21	2073.65
550.57	2080.98
550.92	2087.81
551.28	2094.98
551.64	2102.28
551.99	2108.89
552.35	2115.13
552.70	2121.49
553.06	2127.72
553.41	2134.34
553.77	2140.45
554.13	2146.64
554.48	2152.82
554.84	2158.67
555.19	2164.15
555.55	2169.48
555.90	2174.35
556.26	2179.66
556.61	2184.64
556.97	2189.34
557.32	2193.76
557.68	2198.30
558.03	2202.81
558.39	2206.84
558.74	2211.71
559.10	2215.78
559.45	2219.64
559.81	2224.15
560.16	2228.23
560.52	2231.69
560.87	2235.28
561.23	2238.26
561.58	2241.24
561.94	2244.03
562.29	2246.42
562.64	2249.58
563.00	2252.40
563.35	2256.14
563.71	2259.47
564.06	2262.84
564.42	2265.94
564.77	2268.84
565.12	2271.45
565.48	2273.77
565.83	2276.02
566.19	2277.80
566.54	2278.98
566.89	2280.73
567.25	2281.97
567.60	2283.57
567.96	2285.71
568.31	2286.81
568.66	2288.33
569.02	2289.41
569.37	2290.14
569.72	2291.47
570.08	2292.10
570.43	2292.36
570.78	2292.21
571.14	2291.03
571.49	2290.00
571.84	2289.84
572.20	2288.98
572.55	2288.33
572.90	2287.05
573.26	2285.97
573.61	2284.45
573.96	2283.12
574.31	2280.37
574.67	2277.58
575.02	2274.40
575.37	2271.18
575.72	2267.88
576.08	2264.64
576.43	2261.57
576.78	2258.39
577.13	2255.46
577.49	2252.34
577.84	2249.40
578.19	2245.69
578.54	2242.48
578.90	2238.79
579.25	2233.71
579.60	2229.22
579.95	2224.42
580.30	2219.61
580.66	2214.70
581.01	2210.09
581.36	2205.42
581.71	2201.61
582.06	2197.56
582.42	2193.45
582.77	2188.64
583.12	2184.32
583.47	2180.27
583.82	2175.76
584.17	2170.81
584.53	2165.48
584.88	2160.17
585.23	2154.62
585.58	2149.49
585.93	2144.24
586.28	2139.60
586.63	2134.70
586.98	2129.74
587.34	2125.20
587.69	2120.67
588.04	2115.81
588.39	2110.40
588.74	2104.01
589.09	2098.06
589.44	2091.46
589.79	2085.39
590.14	2079.85
590.49	2073.55
590.84	2067.20
591.19	2061.22
591.54	2054.74
591.89	2047.72
592.25	2041.22
592.60	2034.22
592.95	2027.00
593.30	2019.89
593.65	2012.39
594.00	2005.45
594.35	1998.33
594.70	1990.32
595.05	1983.33
595.40	1975.94
595.75	1968.59
596.10	1962.68
596.45	1956.06
596.80	1950.09
597.15	1943.66
597.50	1936.77
597.85	1930.24
598.19	1923.71
598.54	1916.98
598.89	1910.50
599.24	1904.72
599.59	1898.37
599.94	1892.09
600.29	1885.81
600.64	1879.20
600.99	1871.93
601.34	1865.21
601.69	1858.24
602.04	1851.63
602.39	1844.16
602.74	1837.56
603.08	1830.92
603.43	1824.19
603.78	1816.96
604.13	1809.59
604.48	1802.51
604.83	1795.64
605.18	1789.02
605.53	1780.97
605.87	1772.94
606.22	1765.70
606.57	1757.75
606.92	1749.98
607.27	1743.01
607.62	1736.17
607.96	1729.03
608.31	1722.55
608.66	1714.99
609.01	1707.67
609.36	1700.17
609.70	1692.15
610.05	1684.05
610.40	1676.28
610.75	1667.93
611.10	1660.20
611.44	1651.76
611.79	1643.65
612.14	1635.01
612.49	1625.70
612.83	1617.30
613.18	1608.98
613.53	1600.81
613.88	1592.22
614.22	1584.11
614.57	1575.36
614.92	1567.21
615.27	1559.62
615.61	1551.27
615.96	1543.06
616.31	1535.16
616.65	1527.67
617.00	1520.12
617.35	1512.36
617.70	1504.04
618.04	1495.54
618.39	1487.17
618.74	1479.61
619.08	1471.13
619.43	1463.37
619.78	1456.30
620.12	1449.14
620.47	1441.60
620.82	1433.35
621.16	1425.82
621.51	1418.05
621.85	1410.25
622.20	1401.56
622.55	1392.98
622.89	1384.93
623.24	1377.29
623.59	1369.79
623.93	1362.07
624.28	1354.78
624.62	1347.21
624.97	1339.75
625.32	1332.80
625.66	1325.67
626.01	1318.43
626.35	1311.15
626.70	1303.36
627.04	1295.55
627.39	1287.60
627.73	1280.08
628.08	1273.14
628.43	1265.79
628.77	1258.48
629.12	1250.94
629.46	1243.84
629.81	1236.32
630.15	1228.89
630.50	1221.38
630.84	1213.11
631.19	1205.08
631.53	1197.36
631.88	1189.61
632.22	1182.09
632.57	1174.73
632.91	1167.16
633.26	1159.69
633.60	1152.03
633.95	1144.81
634.29	1137.70
634.64	1131.00
634.98	1123.60
635.32	1116.44
635.67	1109.65
636.01	1102.85
636.36	1096.07
636.70	1089.41
637.05	1082.71
637.39	1076.29
637.73	1069.69
638.08	1063.71
638.42	1057.75
638.77	1051.31
639.11	1044.76
639.45	1038.30
639.80	1031.65
640.14	1025.23
640.49	1018.59
640.83	1012.31
641.17	1006.13
641.52	999.82
641.86	993.14
642.20	987.19
642.55	980.68
642.89	974.23
643.23	967.56
643.58	961.65
643.92	955.40
644.26	949.42
644.61	943.28
644.95	937.31
645.29	930.77
645.64	923.94
645.98	917.57
646.32	911.59
646.66	905.49
647.01	899.64
647.35	893.79
647.69	887.87
648.04	882.22
648.38	876.32
648.72	870.34
649.06	864.38
649.41	858.45
649.75	852.53
650.09	846.55
650.43	840.77
650.78	834.60
651.12	828.63
651.46	822.87
651.80	817.20
652.14	811.74
652.49	806.36
652.83	801.22
653.17	795.57
653.51	789.91
653.85	784.52
654.20	778.91
654.54	772.96
654.88	767.14
655.22	761.20
655.56	755.43
655.90	749.84
656.25	744.60
656.59	739.24
656.93	734.13
657.27	728.99
657.61	723.54
657.95	718.33
658.29	713.22
658.64	707.89
658.98	702.42
659.32	696.87
659.66	691.63
660.00	686.28
660.34	681.20
660.68	676.19
661.02	671.04
661.36	666.26
661.70	661.74
662.05	657.39
662.39	653.10
662.73	648.62
663.07	644.19
663.41	639.70
663.75	635.21
664.09	630.57
664.43	626.10
664.77	621.97
665.11	617.72
665.45	613.46
665.79	609.36
666.13	605.25
666.47	601.16
666.81	596.94
667.15	592.74
667.49	588.77
667.83	584.86
668.17	580.91
668.51	576.82
668.85	572.73
669.19	568.83
669.53	564.97
669.87	561.08
670.21	557.39
670.55	553.69
670.89	550.19
671.23	546.78
671.57	543.19
671.91	539.73
672.25	536.14
672.58	532.62
672.92	529.19
673.26	526.01
673.60	522.78
673.94	519.69
674.28	516.69
674.62	513.83
674.96	510.86
675.30	507.99
675.64	505.04
675.97	502.17
676.31	499.32
676.65	496.35
676.99	493.62
677.33	490.68
677.67	487.86
678.01	484.80
678.34	481.82
678.68	478.96
679.02	476.00
679.36	473.24
679.70	470.56
680.04	467.81
680.37	464.96
680.71	462.12
681.05	459.46
681.39	456.80
681.73	454.07
682.06	451.52
682.40	448.93
682.74	446.32
683.08	443.75
683.42	441.08
683.75	438.62
684.09	436.04
684.43	433.58
684.77	431.14
685.10	428.75
685.44	426.40
685.78	424.09
686.12	421.86
686.45	419.56
686.79	417.22
687.13	414.96
687.46	412.76
687.80	410.64
688.14	408.37
688.48	406.29
688.81	404.05
689.15	401.80
689.49	399.63
689.82	397.55
690.16	395.47
690.50	393.51
690.83	391.50
691.17	389.50
691.51	387.58
691.84	385.70
692.18	383.81
692.52	381.87
692.85	379.94
693.19	378.02
693.52	376.14
693.86	374.31
694.20	372.50
694.53	370.66
694.87	368.78
695.21	367.01
695.54	365.11
695.88	363.35
696.21	361.62
696.55	359.87
696.88	358.14
697.22	356.46
697.56	354.81
697.89	353.19
698.23	351.59
698.56	349.96
698.90	348.35
699.23	346.69
699.57	345.11
699.90	343.50
700.24	341.95
700.58	340.42
700.91	338.91
701.25	337.43
701.58	336.08
701.92	334.65
702.25	333.24
702.59	331.90
702.92	330.56
703.26	329.20
703.59	327.94
703.93	326.71
704.26	325.45
704.60	324.14
704.93	322.79
705.26	321.52
705.60	320.28
705.93	319.10
706.27	317.98
706.60	316.89
706.94	315.78
707.27	314.61
707.61	313.50
707.94	312.46
708.27	311.36
708.61	310.20
708.94	309.23
709.28	308.20
709.61	307.21
709.94	306.17
710.28	305.17
710.61	304.16
710.95	303.08
711.28	302.12
711.61	301.15
711.95	300.24
712.28	299.24
712.61	298.26
712.95	297.27
713.28	296.37
713.61	295.45
713.95	294.54
714.28	293.71
714.61	292.87
714.95	291.97
715.28	291.09
715.61	290.20
715.95	289.32
716.28	288.48
716.61	287.65
716.95	286.85
717.28	286.07
717.61	285.29
717.94	284.56
718.28	283.79
718.61	283.05
718.94	282.35
719.27	281.69
719.61	281.04
719.94	280.38
720.27	279.66
720.60	278.96
720.94	278.34
721.27	277.69
721.60	277.09
721.93	276.51
722.27	275.95
722.60	275.45
722.93	274.85
723.26	274.27
723.59	273.69
723.93	273.13
724.26	272.55
724.59	271.98
724.92	271.44
725.25	270.92
725.59	270.38
725.92	269.88
726.25	269.36
726.58	268.86
726.91	268.37
727.24	267.92
727.57	267.49
727.91	266.95
728.24	266.47
728.57	265.96
728.90	265.51
729.23	265.01
729.56	264.53
729.89	264.06
730.22	263.60
730.55	263.13
730.89	262.70
731.22	262.29
731.55	261.87
731.88	261.42
732.21	261.00
732.54	260.59
732.87	260.12
733.20	259.70
733.53	259.29
733.86	258.90
734.19	258.47
734.52	258.06
734.85	257.76
735.18	257.37
735.51	257.02
735.84	256.65
736.17	256.29
736.50	255.90
736.83	255.67
737.16	255.33
737.49	255.00
737.82	254.63
738.15	254.29
738.48	253.95
738.81	253.64
739.14	253.28
739.47	252.94
739.80	252.69
740.13	252.41
740.46	252.08
740.79	251.77
741.12	251.48
741.45	251.16
741.78	250.83
742.11	250.55
742.44	250.21
742.77	249.88
743.10	249.58
743.43	249.28
743.75	248.87
744.08	248.74
744.41	248.47
744.74	248.18
745.07	247.88
745.40	247.64
745.73	247.42
746.06	247.16
746.39	246.91
746.71	246.57
747.04	246.29
747.37	246.00
747.70	245.74
748.03	245.49
748.36	245.25
748.68	244.99
749.01	244.71
749.34	244.52
749.67	244.30
750.00	244.08
750.33	243.93
750.65	243.70
750.98	243.32
751.31	243.07
751.64	242.89
751.97	242.70
752.29	242.48
752.62	242.16
752.95	241.94
753.28	241.71
753.60	241.51
753.93	241.31
754.26	241.13
754.59	240.90
754.91	240.67
755.24	240.46
755.57	240.27
755.90	240.06
756.22	239.82
756.55	239.59
756.88	239.38
757.20	239.13
757.53	238.95
757.86	238.80
758.19	238.63
758.51	238.45
758.84	238.24
759.17	238.02
759.49	237.92
759.82	237.81
760.15	237.65
760.47	237.51
760.80	237.33
761.13	237.18
761.45	237.02
761.78	236.87
762.11	236.72
762.43	236.56
762.76	236.42
763.08	236.31
763.41	236.18
763.74	236.02
764.06	235.86
764.39	235.73
764.71	235.61
765.04	235.48
765.37	235.36
765.69	235.25
766.02	235.15
766.34	235.00
766.67	234.84
767.00	234.76
767.32	234.68
767.65	234.61
767.97	234.50
768.30	234.36
768.62	234.24
768.95	234.09
769.27	233.98
769.60	233.88
769.92	233.74
770.25	233.62
770.57	233.54
770.90	233.48
771.22	233.36
771.55	233.21
771.87	233.10
772.20	232.97
772.52	232.91
772.85	232.92
773.17	232.82
773.50	232.70
773.82	232.55
774.15	232.38
774.47	232.26
774.80	232.15
775.12	232.09
775.45	232.02
775.77	231.97
776.09	231.91
776.42	231.83
776.74	231.80
777.07	231.77
777.39	231.70
777.72	231.60
778.04	231.55
778.36	231.51
778.69	231.47
779.01	231.41
779.33	231.29
779.66	231.10
779.98	231.03
780.31	230.98
780.63	231.00
780.95	230.99
781.28	230.95
781.60	230.88
781.92	230.80
782.25	230.73
782.57	230.68
782.89	230.60
783.22	230.55
783.54	230.45
783.86	230.37
784.19	230.34
784.51	230.30
784.83	230.23
785.16	230.15
785.48	230.06
785.80	230.01
786.12	229.97
786.45	229.90
786.77	229.90
787.09	229.87
787.42	229.76
787.74	229.72
788.06	229.66
788.38	229.64
788.71	229.58
789.03	229.56
789.35	229.52
789.67	229.45
789.99	229.42
790.32	229.40
790.64	229.38
790.96	229.40
791.28	229.35
791.61	229.32
791.93	229.29
792.25	229.26
792.57	229.28
792.89	229.21
793.21	229.21
793.54	229.13
793.86	229.06
794.18	229.04
794.50	228.97
794.82	228.96
795.14	228.91
795.47	228.92
795.79	228.88
796.11	228.82
796.43	228.82
796.75	228.77
797.07	228.75
797.39	228.69
797.71	228.56
798.04	228.54
798.36	228.53
798.68	228.50
799.00	228.46
799.32	228.39
799.64	228.39
799.96	228.36
800.28	228.35
800.60	228.29
800.92	228.27
801.24	228.23
801.56	228.19
801.89	228.14
802.21	228.09
802.53	228.04
802.85	228.06
803.17	228.08
803.49	228.01
803.81	227.91
804.13	227.89
804.45	227.87
804.77	227.82
805.09	227.78
805.41	227.74
805.73	227.70
806.05	227.65
806.37	227.58
806.69	227.54
807.01	227.52
807.33	227.53
807.65	227.46
807.97	227.49
808.28	227.47
808.60	227.44
808.92	227.40
809.24	227.44
809.56	227.38
809.88	227.32
810.20	227.32
810.52	227.37
810.84	227.31
811.16	227.26
811.48	227.24
811.80	227.25
812.12	227.24
812.43	227.24
812.75	227.26
813.07	227.24
813.39	227.23
813.71	227.19
814.03	227.15
814.35	227.11
814.67	227.04
814.98	226.97
815.30	226.95
815.62	226.90
815.94	226.82
816.26	226.82
816.58	226.78
816.89	226.79
817.21	226.76
817.53	226.78
817.85	226.75
818.17	226.74
818.48	226.65
818.80	226.62
819.12	226.58
819.44	226.50
819.76	226.45
820.07	226.42
820.39	226.40
820.71	226.39
821.03	226.40
821.34	226.36
821.66	226.36
821.98	226.34
822.30	226.33
822.61	226.35
822.93	226.30
823.25	226.31
823.57	226.22
823.88	226.17
824.20	226.11
824.52	226.14
824.83	226.11
825.15	226.09
825.47	226.03
825.79	226.03
826.10	226.05
826.42	226.05
826.74	226.03
827.05	226.01
827.37	226.00
827.69	225.96
828.00	225.99
828.32	226.00
828.64	225.98
828.95	226.03
829.27	225.99
829.58	225.98
829.90	225.97
830.22	226.00
830.53	226.00
830.85	225.99
831.17	225.95
831.48	225.94
831.80	225.96
832.11	225.98
832.43	225.97
832.75	225.94
833.06	225.98
833.38	225.95
833.69	225.93
834.01	225.94
834.32	225.94
834.64	225.89
834.96	225.86
835.27	225.85
835.59	225.81
835.90	225.82
836.22	225.82
836.53	225.82
836.85	225.81
837.16	225.88
837.48	225.89
837.79	225.94
838.11	225.97
838.42	225.95
838.74	225.97
839.05	225.94
839.37	225.97
839.68	225.93
840.00	225.92
840.31	225.93
840.63	225.94
840.94	225.93
841.26	225.92
841.57	225.92
841.88	225.93
842.20	225.93
842.51	225.89
842.83	225.89
843.14	225.94
843.46	225.96
843.77	225.89
844.08	225.86
844.40	225.82
844.71	225.80
845.03	225.80
845.34	225.77
845.65	225.79
845.97	225.76
846.28	225.77
846.60	225.80
846.91	225.81
847.22	225.77
847.54	225.77
847.85	225.78
848.16	225.77
848.48	225.79
848.79	225.81
849.10	225.79
849.42	225.81
849.73	225.69
850.04	225.64
850.36	225.61
850.67	225.62
850.98	225.59
851.30	225.59
851.61	225.58
851.92	225.58
852.23	225.61
852.55	225.60
852.86	225.56
853.17	225.53
853.49	225.55
853.80	225.56
854.11	225.54
854.42	225.56
854.74	225.53
855.05	225.52
855.36	225.48
855.67	225.48
855.99	225.42
856.30	225.57
856.61	225.60
856.92	225.61
857.23	225.60
857.55	225.60
857.86	225.57
858.17	225.57
858.48	225.55
858.79	225.52
859.11	225.52
859.42	225.51
859.73	225.49
860.04	225.50
860.35	225.49
860.66	225.46
860.98	225.45
861.29	225.47
861.60	225.44
861.91	225.45
862.22	225.45
862.53	225.44
862.84	225.34
863.16	225.35
863.47	225.36
863.78	225.36
864.09	225.38
864.40	225.39
864.71	225.39
865.02	225.43
865.33	225.42
865.64	225.42
865.95	225.43
866.27	225.51
866.58	225.47
866.89	225.50
867.20	225.56
867.51	225.54
867.82	225.54
868.13	225.57
868.44	225.56
868.75	225.59
869.06	225.63
869.37	225.60
869.68	225.57
869.99	225.55
870.30	225.57
870.61	225.57
870.92	225.56
871.23	225.55
871.54	225.56
871.85	225.58
872.16	225.61
872.47	225.60
872.78	225.55
873.09	225.55
873.40	225.53
873.71	225.52
874.02	225.55
874.33	225.54
874.64	225.51
874.95	225.55
875.26	225.56
875.56	225.55
875.87	225.55
876.18	225.55
876.49	225.67
876.80	225.66
877.11	225.66
877.42	225.69
877.73	225.69
878.04	225.66
878.35	225.64
878.66	225.61
878.96	225.63
879.27	225.62
879.58	225.63
879.89	225.62
880.20	225.63
880.51	225.61
880.82	225.61
881.12	225.64
881.43	225.56
881.74	225.52
882.05	225.51
882.36	225.52
882.67	225.51
882.97	225.37
883.28	225.33
883.59	225.34
883.90	225.32
884.21	225.32
884.51	225.34
884.82	225.35
885.13	225.37
885.44	225.33
885.74	225.36
886.05	225.31
886.36	225.27
886.67	225.24
886.98	225.26
887.28	225.23
887.59	225.19
887.90	225.22
888.20	225.22
888.51	225.23
888.82	225.19
889.13	225.20
889.43	225.31
889.74	225.30
890.05	225.26
890.35	225.24
890.66	225.22
890.97	225.19
891.28	225.11
891.58	225.09
891.89	225.09
892.20	225.05
892.50	225.05
892.81	225.04
893.12	225.04
893.42	225.03
893.73	225.05
894.04	225.05
894.34	225.05
894.65	225.03
894.95	225.01
895.26	225.04
895.57	225.06
895.87	224.96
896.18	224.98
896.48	224.97
896.79	224.97
897.10	224.95
897.40	224.90
897.71	224.94
898.01	224.89
898.32	224.90
898.63	224.92
898.93	224.93
899.24	224.94
899.54	224.90
899.85	224.89
900.15	224.87
900.46	224.87
900.76	224.89
901.07	224.89
901.38	224.90
901.68	224.87
901.99	224.84
902.29	224.81
902.60	224.82
902.90	224.84
903.21	224.83
903.51	224.84
903.82	224.88
904.12	224.90
904.43	224.93
904.73	224.94
905.03	224.94
905.34	225.04
905.64	225.02
905.95	225.04
906.25	225.04
906.56	225.03
906.86	225.03
907.17	225.01
907.47	224.98
907.77	224.96
908.08	224.91
908.38	224.88
908.69	224.90
908.99	224.92
909.30	224.89
909.60	224.90
909.90	224.94
910.21	224.92
910.51	224.90
910.81	224.89
911.12	224.88
911.42	224.87
911.73	224.78
912.03	224.80
912.33	224.81
912.64	224.80
912.94	224.80
913.24	224.78
913.55	224.75
913.85	224.78
914.15	224.81
914.46	224.86
914.76	224.91
915.06	224.89
915.37	224.89
915.67	224.89
915.97	224.89
916.27	224.85
916.58	224.84
916.88	224.86
917.18	224.87
917.49	224.96
917.79	224.95
918.09	224.97
918.39	224.99
918.70	225.02
919.00	225.04
919.30	225.08
919.60	225.08
919.91	225.07
920.21	225.09
920.51	225.07
920.81	225.05
921.12	225.04
921.42	225.03
921.72	225.01
922.02	225.04
922.32	225.08
922.63	225.07
922.93	225.15
923.23	225.15
923.53	225.15
923.83	225.06
924.13	225.05
924.44	225.05
924.74	225.07
925.04	225.04
925.34	225.04
925.64	225.01
925.94	225.03
926.24	225.08
926.55	225.04
926.85	225.05
927.15	225.07
927.45	225.09
927.75	225.12
928.05	225.14
928.35	225.10
928.65	225.10
928.95	225.14
929.26	225.10
929.56	225.11
929.86	225.12
930.16	225.10
930.46	225.10
930.76	225.09
931.06	225.04
931.36	225.01
931.66	225.03
931.96	225.05
932.26	225.06
932.56	225.05
932.86	225.08
933.16	225.07
933.46	225.04
933.76	225.03
934.06	225.06
934.36	225.04
934.66	225.06
934.96	225.04
935.26	225.05
935.56	225.04
935.86	225.04
936.16	225.03
936.46	225.04
936.76	225.02
937.06	225.04
937.36	225.04
937.66	225.07
937.96	225.06
938.26	225.04
938.56	225.05
938.86	225.02
939.16	225.05
939.46	225.08
939.76	225.12
940.06	225.13
940.35	225.09
940.65	225.08
940.95	225.06
941.25	225.04
941.55	225.02
941.85	224.99
942.15	224.99
942.45	225.03
942.75	225.05
943.04	225.07
943.34	225.06
943.64	225.09
943.94	225.07
944.24	225.06
944.54	225.06
944.84	225.09
945.13	225.09
945.43	225.08
945.73	225.06
946.03	225.05
946.33	225.03
946.62	225.01
946.92	224.98
947.22	225.00
947.52	225.02
947.82	224.99
948.11	225.02
948.41	225.01
948.71	224.95
949.01	224.94
949.31	224.94
949.60	224.92
949.90	224.90
950.20	224.90
950.50	224.90
950.79	224.89
951.09	224.85
951.39	224.83
951.69	224.82
951.98	224.84
952.28	224.84
952.58	224.84
952.87	224.87
953.17	224.91
953.47	224.94
953.76	224.93
954.06	224.95
954.36	224.88
954.66	224.87
954.95	224.91
955.25	224.91
955.55	224.93
955.84	224.95
956.14	224.97
956.44	224.97
956.73	224.94
957.03	224.95
957.32	224.95
957.62	224.98
957.92	224.96
958.21	224.94
958.51	225.03
958.81	225.03
959.10	225.03
959.40	225.04
959.69	225.01
959.99	224.99
960.29	224.99
960.58	225.04
960.88	225.08
961.17	225.06
961.47	225.06
961.76	225.04
962.06	225.05
962.36	225.04
962.65	225.07
962.95	225.09
963.24	225.07
963.54	225.06
963.83	225.06
964.13	225.06
964.42	225.06
964.72	224.99
965.01	224.99
965.31	224.95
965.60	224.93
965.90	225.00
966.19	225.00
966.49	225.00
966.78	224.98
967.08	224.99
967.37	225.02
967.67	225.00
967.96	224.99
968.26	224.95
968.55	224.96
968.85	224.93
969.14	224.96
969.43	224.95
969.73	224.98
970.02	224.94
970.32	224.95
970.61	224.95
970.91	224.93
971.20	224.91
971.49	224.90
971.79	224.91
972.08	224.84
972.38	224.84
972.67	224.85
972.96	224.86
973.26	224.83
973.55	224.84
973.85	224.85
974.14	224.87
974.43	224.91
974.73	224.89
975.02	224.86
975.31	224.83
975.61	224.83
975.90	224.80
976.19	224.80
976.49	224.84
976.78	224.84
977.07	224.81
977.37	224.84
977.66	224.85
977.95	224.85
978.24	224.86
978.54	224.88
978.83	224.84
979.12	224.84
979.42	224.85
979.71	224.83
980.00	224.82
980.29	224.82
980.59	224.76
980.88	224.76
981.17	224.78
981.46	224.80
981.76	224.82
982.05	224.84
982.34	224.88
982.63	224.85
982.93	224.87
983.22	224.89
983.51	224.92
983.80	224.93
984.09	224.94
984.39	224.93
984.68	224.92
984.97	224.96
985.26	224.93
985.55	224.95
985.85	224.94
986.14	224.96
986.43	224.96
986.72	224.96
987.01	224.92
987.30	224.96
987.59	224.94
987.89	224.94
988.18	224.92
988.47	224.90
988.76	224.88
989.05	224.84
989.34	224.84
989.63	224.84
989.92	224.83
990.22	224.82
990.51	224.77
990.80	224.77
991.09	224.75
991.38	224.75
991.67	224.72
991.96	224.70
992.25	224.72
992.54	224.72
992.83	224.75
993.12	224.76
993.41	224.73
993.70	224.77
993.99	224.78
994.28	224.78
994.58	224.80
994.87	224.80
995.16	224.83
995.45	224.81
995.74	224.78
996.03	224.82
996.32	224.83
996.61	224.89
996.90	224.87
997.19	224.88
997.48	224.93
997.77	224.96
998.06	224.96
998.34	224.95
998.63	224.91
998.92	224.89
999.21	224.93
999.50	224.97
999.79	224.91
1000.08	224.89
1000.37	224.87
1000.66	224.85
1000.95	224.86
1001.24	224.85
1001.53	224.87
1001.82	224.88
1002.11	224.85
1002.40	224.84
1002.68	224.88
1002.97	224.98
1003.26	224.99
1003.55	224.92
1003.84	224.89
1004.13	224.94
1004.42	224.92
1004.71	224.94
1004.99	224.97
1005.28	224.96
1005.57	224.94
1005.86	224.96
1006.15	224.98
1006.44	224.97
1006.72	224.97
1007.01	224.96
1007.30	224.95
1007.59	224.93
1007.88	224.90
1008.17	224.92
1008.45	224.89
1008.74	224.82
1009.03	224.76
1009.32	224.73
1009.60	224.75
1009.89	224.76
1010.18	224.71
1010.47	224.71
1010.76	224.71
1011.04	224.69
1011.33	224.73
1011.62	224.71
1011.91	224.70
1012.19	224.69
1012.48	224.69
1012.77	224.68
1013.05	224.71
1013.34	224.69
1013.63	224.69
1013.92	224.69
1014.20	224.66
1014.49	224.67
1014.78	224.71
1015.06	224.65
1015.35	224.67
1015.64	224.66
1015.92	224.65
1016.21	224.67
1016.50	224.66
1016.78	224.66
1017.07	224.62
1017.36	224.56
1017.64	224.52
1017.93	224.53
1018.22	224.53
1018.50	224.55
1018.79	224.55
1019.08	224.51
1019.36	224.54
1019.65	224.53
1019.93	224.54
1020.22	224.54
1020.51	224.59
1020.79	224.57
1021.08	224.42
1021.36	224.71
1021.65	224.65
1021.94	224.50
1022.22	224.85
1022.51	224.41
1022.79	224.65
1023.08	224.49
1023.36	225.73
1023.65	224.55
>>>>>End Processed Spectral Data<<<<<
