SpectraSuite Data File
++++++++++++++++++++++++++++++++++++
Date: Fri Feb 01 15:54:34 EST 2013
User: group
Dark Spectrum Present: No
Reference Spectrum Present: No
Number of Sampled Component Spectra: 1
Spectrometers: USB2E7196
Integration Time (usec): 35000 (USB2E7196)
Spectra Averaged: 100 (USB2E7196)
Boxcar Smoothing: 10 (USB2E7196)
Correct for Electrical Dark: No (USB2E7196)
Strobe/Lamp Enabled: No (USB2E7196)
Correct for Detector Non-linearity: No (USB2E7196)
Correct for Stray Light: No (USB2E7196)
Number of Pixels in Processed Spectrum: 2048
>>>>>Begin Processed Spectral Data<<<<<
339.09	0.00
339.48	215.11
339.86	216.47
340.24	217.83
340.63	218.99
341.01	221.67
341.39	221.26
341.78	222.75
342.16	224.04
342.54	224.30
342.93	212.77
343.31	223.54
343.69	224.03
344.07	224.48
344.46	224.87
344.84	225.20
345.22	225.43
345.60	225.67
345.99	225.86
346.37	225.97
346.75	226.07
347.13	226.15
347.52	226.18
347.90	226.26
348.28	226.27
348.66	226.32
349.05	226.31
349.43	226.39
349.81	226.43
350.19	226.51
350.57	226.59
350.96	226.65
351.34	226.72
351.72	226.82
352.10	226.88
352.48	226.94
352.87	227.04
353.25	227.13
353.63	227.21
354.01	227.27
354.39	227.38
354.77	227.45
355.15	227.55
355.54	227.65
355.92	227.73
356.30	227.85
356.68	228.00
357.06	228.09
357.44	228.12
357.82	228.22
358.20	228.34
358.58	228.45
358.97	228.50
359.35	228.59
359.73	228.70
360.11	228.80
360.49	228.91
360.87	228.96
361.25	229.01
361.63	229.11
362.01	229.17
362.39	229.19
362.77	229.24
363.15	229.29
363.53	229.32
363.91	229.36
364.29	229.39
364.67	229.36
365.05	229.39
365.43	229.41
365.81	229.44
366.19	229.47
366.57	229.51
366.95	229.50
367.33	229.48
367.71	229.43
368.09	229.45
368.47	229.40
368.85	229.39
369.23	229.40
369.61	229.33
369.99	229.32
370.37	229.32
370.75	229.37
371.13	229.30
371.51	229.25
371.89	229.22
372.27	229.17
372.65	229.11
373.03	229.09
373.41	229.05
373.78	228.98
374.16	228.86
374.54	228.76
374.92	228.72
375.30	228.66
375.68	228.60
376.06	228.51
376.44	228.46
376.82	228.42
377.19	228.32
377.57	228.26
377.95	228.16
378.33	228.10
378.71	227.95
379.09	227.92
379.47	227.86
379.84	227.76
380.22	227.67
380.60	227.57
380.98	227.45
381.36	227.37
381.73	227.29
382.11	227.25
382.49	227.19
382.87	227.09
383.25	227.04
383.62	227.08
384.00	227.04
384.38	226.98
384.76	226.92
385.13	226.89
385.51	226.84
385.89	226.78
386.27	226.71
386.64	226.67
387.02	226.59
387.40	226.52
387.78	226.51
388.15	226.49
388.53	226.42
388.91	226.40
389.29	226.38
389.66	226.39
390.04	226.36
390.42	226.36
390.79	226.33
391.17	226.31
391.55	226.18
391.92	226.13
392.30	226.16
392.68	226.13
393.05	226.18
393.43	226.19
393.81	226.22
394.18	226.22
394.56	226.24
394.94	226.29
395.31	226.32
395.69	226.35
396.06	226.37
396.44	226.43
396.82	226.45
397.19	226.54
397.57	226.56
397.95	226.63
398.32	226.62
398.70	226.70
399.07	226.76
399.45	226.83
399.82	226.87
400.20	226.94
400.58	227.04
400.95	227.04
401.33	227.13
401.70	227.27
402.08	227.36
402.45	227.48
402.83	227.61
403.20	227.71
403.58	227.83
403.95	227.99
404.33	228.13
404.71	228.26
405.08	228.45
405.46	228.59
405.83	228.74
406.21	228.91
406.58	229.07
406.96	229.25
407.33	229.46
407.70	229.67
408.08	229.91
408.45	230.12
408.83	230.34
409.20	230.57
409.58	230.72
409.95	231.02
410.33	231.29
410.70	231.52
411.08	231.84
411.45	232.15
411.82	232.46
412.20	232.83
412.57	233.24
412.95	233.50
413.32	233.91
413.69	234.30
414.07	234.76
414.44	235.25
414.82	235.71
415.19	236.26
415.56	236.84
415.94	237.39
416.31	238.06
416.68	238.69
417.06	239.39
417.43	240.10
417.81	240.84
418.18	241.62
418.55	242.46
418.93	243.32
419.30	244.20
419.67	245.11
420.04	246.09
420.42	247.08
420.79	248.28
421.16	249.45
421.54	250.67
421.91	251.88
422.28	253.11
422.66	254.45
423.03	255.75
423.40	257.06
423.77	258.47
424.15	259.85
424.52	261.35
424.89	262.96
425.26	264.51
425.64	265.96
426.01	267.51
426.38	269.14
426.75	270.80
427.13	272.55
427.50	274.38
427.87	276.18
428.24	278.01
428.61	279.73
428.99	281.63
429.36	283.68
429.73	285.73
430.10	287.74
430.47	289.80
430.85	291.89
431.22	294.10
431.59	296.43
431.96	298.69
432.33	301.17
432.70	303.53
433.08	306.36
433.45	308.98
433.82	311.61
434.19	314.50
434.56	317.35
434.93	319.96
435.30	322.51
435.68	325.42
436.05	328.23
436.42	331.02
436.79	333.56
437.16	336.29
437.53	339.12
437.90	341.95
438.27	344.69
438.64	347.47
439.01	350.05
439.38	352.28
439.75	354.42
440.13	356.92
440.50	359.23
440.87	361.03
441.24	362.99
441.61	365.15
441.98	366.63
442.35	368.41
442.72	370.26
443.09	372.13
443.46	373.07
443.83	373.71
444.20	374.23
444.57	375.11
444.94	375.38
445.31	375.68
445.68	376.00
446.05	376.05
446.42	375.67
446.79	375.29
447.16	374.92
447.53	374.64
447.90	373.46
448.27	372.26
448.64	370.71
449.01	369.55
449.37	367.54
449.74	365.64
450.11	363.37
450.48	360.91
450.85	358.35
451.22	356.29
451.59	354.24
451.96	352.29
452.33	349.66
452.70	347.29
453.07	344.46
453.43	341.56
453.80	338.80
454.17	336.17
454.54	333.60
454.91	330.84
455.28	328.13
455.65	325.66
456.02	323.27
456.38	321.11
456.75	318.50
457.12	316.28
457.49	314.08
457.86	311.91
458.23	310.04
458.59	308.00
458.96	305.92
459.33	304.07
459.70	302.21
460.07	300.69
460.43	298.97
460.80	297.38
461.17	295.94
461.54	294.43
461.91	293.01
462.27	291.56
462.64	290.29
463.01	288.94
463.38	287.67
463.74	286.29
464.11	285.14
464.48	284.06
464.85	282.93
465.21	282.06
465.58	281.16
465.95	280.08
466.32	279.19
466.68	278.24
467.05	277.32
467.42	276.45
467.78	275.51
468.15	274.64
468.52	274.00
468.88	273.19
469.25	272.46
469.62	271.85
469.98	271.20
470.35	270.60
470.72	270.00
471.08	269.35
471.45	268.81
471.82	268.27
472.18	267.70
472.55	267.24
472.92	266.73
473.28	266.28
473.65	265.82
474.02	265.37
474.38	265.03
474.75	264.75
475.11	264.37
475.48	264.12
475.85	263.91
476.21	263.67
476.58	263.46
476.94	263.33
477.31	263.14
477.67	262.99
478.04	262.90
478.41	262.85
478.77	262.84
479.14	262.76
479.50	262.76
479.87	262.84
480.23	262.92
480.60	262.98
480.96	263.05
481.33	263.26
481.69	263.44
482.06	263.62
482.42	263.81
482.79	264.12
483.15	264.42
483.52	264.78
483.88	265.12
484.25	265.53
484.61	265.92
484.98	266.39
485.34	266.96
485.71	267.50
486.07	268.10
486.44	268.74
486.80	269.47
487.17	270.21
487.53	271.04
487.90	271.92
488.26	272.86
488.62	273.84
488.99	274.84
489.35	275.88
489.72	277.02
490.08	278.23
490.44	279.46
490.81	280.78
491.17	282.14
491.54	283.57
491.90	285.12
492.26	286.77
492.63	288.48
492.99	290.26
493.36	292.17
493.72	294.24
494.08	296.31
494.45	298.59
494.81	300.94
495.17	303.35
495.54	305.94
495.90	308.67
496.26	311.52
496.63	314.46
496.99	317.59
497.35	320.83
497.72	324.26
498.08	327.77
498.44	331.43
498.80	335.34
499.17	339.42
499.53	343.61
499.89	347.99
500.26	352.54
500.62	357.17
500.98	362.13
501.34	367.20
501.71	372.50
502.07	377.92
502.43	383.55
502.79	389.39
503.16	395.40
503.52	401.63
503.88	408.03
504.24	414.68
504.60	421.57
504.97	428.69
505.33	435.96
505.69	443.64
506.05	451.44
506.41	459.37
506.78	467.50
507.14	475.92
507.50	484.67
507.86	493.69
508.22	503.00
508.59	512.26
508.95	521.87
509.31	531.74
509.67	541.85
510.03	552.15
510.39	562.69
510.75	573.54
511.12	584.48
511.48	595.73
511.84	607.21
512.20	618.73
512.56	630.73
512.92	642.93
513.28	655.33
513.64	667.89
514.00	680.65
514.37	693.62
514.73	706.71
515.09	719.73
515.45	733.07
515.81	746.65
516.17	760.62
516.53	774.71
516.89	788.90
517.25	803.08
517.61	817.52
517.97	831.95
518.33	846.41
518.69	861.24
519.05	876.21
519.41	891.38
519.77	906.89
520.13	922.35
520.49	937.71
520.85	953.13
521.21	968.79
521.57	984.96
521.93	1000.70
522.29	1017.05
522.65	1033.25
523.01	1049.47
523.37	1065.38
523.73	1081.51
524.09	1097.54
524.45	1113.75
524.81	1130.28
525.17	1146.94
525.53	1163.84
525.89	1180.64
526.25	1197.34
526.61	1213.68
526.97	1230.37
527.33	1246.88
527.68	1263.37
528.04	1279.95
528.40	1296.47
528.76	1313.46
529.12	1329.91
529.48	1346.89
529.84	1362.82
530.20	1379.51
530.56	1396.46
530.91	1413.87
531.27	1430.61
531.63	1447.15
531.99	1463.78
532.35	1479.76
532.71	1495.72
533.07	1511.94
533.42	1527.75
533.78	1543.73
534.14	1560.12
534.50	1575.46
534.86	1591.21
535.21	1606.45
535.57	1622.27
535.93	1637.76
536.29	1652.53
536.65	1667.65
537.00	1682.25
537.36	1697.63
537.72	1711.96
538.08	1726.27
538.44	1740.00
538.79	1753.90
539.15	1767.44
539.51	1781.07
539.87	1795.40
540.22	1809.03
540.58	1822.92
540.94	1836.39
541.29	1849.41
541.65	1861.96
542.01	1875.12
542.37	1887.51
542.72	1899.87
543.08	1911.61
543.44	1924.04
543.79	1935.38
544.15	1946.36
544.51	1957.96
544.87	1968.94
545.22	1979.87
545.58	1990.09
545.94	1999.93
546.29	2009.82
546.65	2019.74
547.01	2029.04
547.36	2037.73
547.72	2046.30
548.07	2053.95
548.43	2062.12
548.79	2070.08
549.14	2077.60
549.50	2085.01
549.86	2092.64
550.21	2099.93
550.57	2107.05
550.92	2113.59
551.28	2120.66
551.64	2127.74
551.99	2134.26
552.35	2140.41
552.70	2146.64
553.06	2152.66
553.41	2158.95
553.77	2164.91
554.13	2171.00
554.48	2177.21
554.84	2182.67
555.19	2187.94
555.55	2193.02
555.90	2197.48
556.26	2202.38
556.61	2207.19
556.97	2211.36
557.32	2215.40
557.68	2219.71
558.03	2224.12
558.39	2227.83
558.74	2232.40
559.10	2236.23
559.45	2239.85
559.81	2244.02
560.16	2247.76
560.52	2251.04
560.87	2254.48
561.23	2257.19
561.58	2260.19
561.94	2262.68
562.29	2265.09
562.64	2267.86
563.00	2270.63
563.35	2273.99
563.71	2277.14
564.06	2280.44
564.42	2283.37
564.77	2285.85
565.12	2287.94
565.48	2289.85
565.83	2291.71
566.19	2292.90
566.54	2293.85
566.89	2294.95
567.25	2295.62
567.60	2296.93
567.96	2298.47
568.31	2299.33
568.66	2300.38
569.02	2300.84
569.37	2301.01
569.72	2301.95
570.08	2301.98
570.43	2302.04
570.78	2301.58
571.14	2300.03
571.49	2298.66
571.84	2298.28
572.20	2297.25
572.55	2296.13
572.90	2294.53
573.26	2293.27
573.61	2291.59
573.96	2289.66
574.31	2286.69
574.67	2283.70
575.02	2280.18
575.37	2276.78
575.72	2272.87
576.08	2269.54
576.43	2266.27
576.78	2262.57
577.13	2259.34
577.49	2256.15
577.84	2252.52
578.19	2248.80
578.54	2245.06
578.90	2240.70
579.25	2235.16
579.60	2230.17
579.95	2225.23
580.30	2220.16
580.66	2214.93
581.01	2210.07
581.36	2205.24
581.71	2201.07
582.06	2196.53
582.42	2191.89
582.77	2186.78
583.12	2182.29
583.47	2177.42
583.82	2172.44
584.17	2167.32
584.53	2161.78
584.88	2156.24
585.23	2150.47
585.58	2144.89
585.93	2139.43
586.28	2134.76
586.63	2129.68
586.98	2124.64
587.34	2119.99
587.69	2115.16
588.04	2109.82
588.39	2104.04
588.74	2097.64
589.09	2091.69
589.44	2084.98
589.79	2078.95
590.14	2073.28
590.49	2066.72
590.84	2060.59
591.19	2054.56
591.54	2048.13
591.89	2040.67
592.25	2033.76
592.60	2026.64
592.95	2019.10
593.30	2011.85
593.65	2004.21
594.00	1997.23
594.35	1989.93
594.70	1981.86
595.05	1974.60
595.40	1967.38
595.75	1959.88
596.10	1953.63
596.45	1946.77
596.80	1940.46
597.15	1933.84
597.50	1926.69
597.85	1920.25
598.19	1913.45
598.54	1906.32
598.89	1899.55
599.24	1893.71
599.59	1887.01
599.94	1880.81
600.29	1874.46
600.64	1867.92
600.99	1860.61
601.34	1853.76
601.69	1846.96
602.04	1840.16
602.39	1832.83
602.74	1825.91
603.08	1819.25
603.43	1812.49
603.78	1805.23
604.13	1798.14
604.48	1790.80
604.83	1784.06
605.18	1777.13
605.53	1769.07
605.87	1760.97
606.22	1753.88
606.57	1746.00
606.92	1738.93
607.27	1731.78
607.62	1724.95
607.96	1717.61
608.31	1710.89
608.66	1703.28
609.01	1695.65
609.36	1688.02
609.70	1679.98
610.05	1671.94
610.40	1664.16
610.75	1655.85
611.10	1648.08
611.44	1639.75
611.79	1631.83
612.14	1623.15
612.49	1614.01
612.83	1605.64
613.18	1597.58
613.53	1589.41
613.88	1580.87
614.22	1572.39
614.57	1563.69
614.92	1555.61
615.27	1548.04
615.61	1539.59
615.96	1531.62
616.31	1523.90
616.65	1516.55
617.00	1509.07
617.35	1501.47
617.70	1493.17
618.04	1484.78
618.39	1476.58
618.74	1468.91
619.08	1460.72
619.43	1453.09
619.78	1446.17
620.12	1438.97
620.47	1431.41
620.82	1423.27
621.16	1415.94
621.51	1408.43
621.85	1400.88
622.20	1392.28
622.55	1383.91
622.89	1376.10
623.24	1368.45
623.59	1361.19
623.93	1353.61
624.28	1346.33
624.62	1338.69
624.97	1331.56
625.32	1324.82
625.66	1317.79
626.01	1310.62
626.35	1302.92
626.70	1295.14
627.04	1287.29
627.39	1279.62
627.73	1272.23
628.08	1265.39
628.43	1257.90
628.77	1250.44
629.12	1242.88
629.46	1235.77
629.81	1228.36
630.15	1221.18
630.50	1213.71
630.84	1205.46
631.19	1197.57
631.53	1190.07
631.88	1182.49
632.22	1174.87
632.57	1167.41
632.91	1159.91
633.26	1152.33
633.60	1145.13
633.95	1138.08
634.29	1131.14
634.64	1124.41
634.98	1117.06
635.32	1109.83
635.67	1103.37
636.01	1096.78
636.36	1089.98
636.70	1083.47
637.05	1076.94
637.39	1070.47
637.73	1063.93
638.08	1058.06
638.42	1052.12
638.77	1045.66
639.11	1039.11
639.45	1032.66
639.80	1026.05
640.14	1019.52
640.49	1013.15
640.83	1006.81
641.17	1000.45
641.52	994.06
641.86	987.59
642.20	981.77
642.55	975.43
642.89	968.82
643.23	962.25
643.58	956.41
643.92	950.16
644.26	943.98
644.61	937.96
644.95	931.94
645.29	925.32
645.64	918.53
645.98	912.16
646.32	906.37
646.66	900.35
647.01	894.54
647.35	888.86
647.69	883.05
648.04	877.53
648.38	871.78
648.72	865.82
649.06	859.79
649.41	853.88
649.75	847.96
650.09	842.10
650.43	836.35
650.78	830.19
651.12	824.23
651.46	818.54
651.80	812.79
652.14	807.43
652.49	802.10
652.83	797.01
653.17	791.37
653.51	785.57
653.85	780.20
654.20	774.61
654.54	768.60
654.88	762.84
655.22	756.96
655.56	751.35
655.90	745.91
656.25	740.67
656.59	735.32
656.93	730.20
657.27	725.00
657.61	719.61
657.95	714.57
658.29	709.48
658.64	704.27
658.98	698.96
659.32	693.50
659.66	688.29
660.00	682.84
660.34	677.87
660.68	673.05
661.02	667.98
661.36	663.30
661.70	658.86
662.05	654.48
662.39	650.14
662.73	645.61
663.07	641.26
663.41	636.81
663.75	632.34
664.09	627.85
664.43	623.47
664.77	619.25
665.11	614.98
665.45	610.90
665.79	606.78
666.13	602.62
666.47	598.46
666.81	594.26
667.15	590.18
667.49	586.25
667.83	582.41
668.17	578.46
668.51	574.29
668.85	570.23
669.19	566.36
669.53	562.59
669.87	558.74
670.21	554.95
670.55	551.32
670.89	547.87
671.23	544.38
671.57	540.88
671.91	537.35
672.25	533.81
672.58	530.23
672.92	526.88
673.26	523.76
673.60	520.65
673.94	517.55
674.28	514.67
674.62	511.72
674.96	508.57
675.30	505.66
675.64	502.80
675.97	500.01
676.31	497.15
676.65	494.20
676.99	491.50
677.33	488.64
677.67	485.82
678.01	482.79
678.34	479.78
678.68	476.94
679.02	474.19
679.36	471.46
679.70	468.76
680.04	466.00
680.37	463.09
680.71	460.30
681.05	457.67
681.39	454.95
681.73	452.34
682.06	449.83
682.40	447.30
682.74	444.70
683.08	442.17
683.42	439.62
683.75	437.04
684.09	434.45
684.43	432.00
684.77	429.53
685.10	427.19
685.44	424.93
685.78	422.59
686.12	420.28
686.45	417.98
686.79	415.72
687.13	413.52
687.46	411.36
687.80	409.27
688.14	407.06
688.48	404.94
688.81	402.68
689.15	400.50
689.49	398.32
689.82	396.35
690.16	394.28
690.50	392.34
690.83	390.48
691.17	388.53
691.51	386.64
691.84	384.80
692.18	382.86
692.52	380.88
692.85	378.95
693.19	377.12
693.52	375.34
693.86	373.50
694.20	371.73
694.53	369.92
694.87	368.04
695.21	366.32
695.54	364.52
695.88	362.83
696.21	361.13
696.55	359.51
696.88	357.76
697.22	356.14
697.56	354.52
697.89	352.85
698.23	351.25
698.56	349.64
698.90	348.08
699.23	346.42
699.57	344.87
699.90	343.35
700.24	341.83
700.58	340.27
700.91	338.79
701.25	337.35
701.58	335.96
701.92	334.61
702.25	333.21
702.59	331.86
702.92	330.53
703.26	329.24
703.59	327.96
703.93	326.79
704.26	325.55
704.60	324.23
704.93	322.98
705.26	321.75
705.60	320.60
705.93	319.44
706.27	318.40
706.60	317.31
706.94	316.24
707.27	315.06
707.61	314.01
707.94	312.99
708.27	311.86
708.61	310.82
708.94	309.80
709.28	308.83
709.61	307.83
709.94	306.83
710.28	305.81
710.61	304.83
710.95	303.72
711.28	302.81
711.61	301.84
711.95	300.88
712.28	299.88
712.61	298.87
712.95	297.93
713.28	297.04
713.61	296.18
713.95	295.26
714.28	294.44
714.61	293.55
714.95	292.69
715.28	291.85
715.61	290.95
715.95	290.08
716.28	289.20
716.61	288.35
716.95	287.57
717.28	286.80
717.61	286.02
717.94	285.31
718.28	284.45
718.61	283.71
718.94	282.99
719.27	282.36
719.61	281.73
719.94	281.08
720.27	280.38
720.60	279.69
720.94	279.07
721.27	278.47
721.60	277.87
721.93	277.30
722.27	276.75
722.60	276.21
722.93	275.62
723.26	275.08
723.59	274.54
723.93	273.97
724.26	273.40
724.59	272.87
724.92	272.34
725.25	271.87
725.59	271.35
725.92	270.90
726.25	270.38
726.58	269.88
726.91	269.37
727.24	268.87
727.57	268.41
727.91	267.91
728.24	267.42
728.57	266.99
728.90	266.51
729.23	266.01
729.56	265.60
729.89	265.15
730.22	264.64
730.55	264.21
730.89	263.79
731.22	263.36
731.55	262.92
731.88	262.50
732.21	262.06
732.54	261.63
732.87	261.19
733.20	260.77
733.53	260.36
733.86	260.01
734.19	259.61
734.52	259.24
734.85	258.90
735.18	258.55
735.51	258.20
735.84	257.84
736.17	257.49
736.50	257.08
736.83	256.89
737.16	256.62
737.49	256.28
737.82	255.92
738.15	255.58
738.48	255.24
738.81	254.92
739.14	254.62
739.47	254.30
739.80	254.01
740.13	253.75
740.46	253.45
740.79	253.10
741.12	252.81
741.45	252.49
741.78	252.12
742.11	251.83
742.44	251.50
742.77	251.19
743.10	250.91
743.43	250.63
743.75	250.21
744.08	250.05
744.41	249.76
744.74	249.52
745.07	249.28
745.40	249.04
745.73	248.81
746.06	248.51
746.39	248.26
746.71	247.98
747.04	247.68
747.37	247.42
747.70	247.19
748.03	246.94
748.36	246.72
748.68	246.52
749.01	246.21
749.34	245.98
749.67	245.78
750.00	245.56
750.33	245.40
750.65	245.22
750.98	244.91
751.31	244.67
751.64	244.43
751.97	244.25
752.29	244.06
752.62	243.76
752.95	243.56
753.28	243.35
753.60	243.17
753.93	242.96
754.26	242.78
754.59	242.56
754.91	242.37
755.24	242.14
755.57	241.93
755.90	241.78
756.22	241.56
756.55	241.33
756.88	241.11
757.20	240.88
757.53	240.64
757.86	240.44
758.19	240.31
758.51	240.14
758.84	239.94
759.17	239.75
759.49	239.65
759.82	239.57
760.15	239.39
760.47	239.24
760.80	239.11
761.13	238.95
761.45	238.74
761.78	238.56
762.11	238.44
762.43	238.32
762.76	238.19
763.08	238.09
763.41	237.96
763.74	237.85
764.06	237.67
764.39	237.56
764.71	237.40
765.04	237.27
765.37	237.11
765.69	237.01
766.02	236.85
766.34	236.72
766.67	236.53
767.00	236.44
767.32	236.35
767.65	236.26
767.97	236.17
768.30	236.08
768.62	235.98
768.95	235.85
769.27	235.70
769.60	235.59
769.92	235.46
770.25	235.33
770.57	235.20
770.90	235.10
771.22	234.96
771.55	234.87
771.87	234.77
772.20	234.65
772.52	234.61
772.85	234.64
773.17	234.51
773.50	234.42
773.82	234.32
774.15	234.16
774.47	234.01
774.80	233.88
775.12	233.83
775.45	233.75
775.77	233.67
776.09	233.62
776.42	233.51
776.74	233.44
777.07	233.35
777.39	233.31
777.72	233.23
778.04	233.17
778.36	233.08
778.69	233.01
779.01	232.97
779.33	232.81
779.66	232.61
779.98	232.53
780.31	232.45
780.63	232.41
780.95	232.37
781.28	232.30
781.60	232.26
781.92	232.19
782.25	232.15
782.57	232.05
782.89	231.98
783.22	231.97
783.54	231.89
783.86	231.85
784.19	231.77
784.51	231.75
784.83	231.69
785.16	231.66
785.48	231.59
785.80	231.55
786.12	231.52
786.45	231.48
786.77	231.43
787.09	231.39
787.42	231.32
787.74	231.26
788.06	231.25
788.38	231.21
788.71	231.14
789.03	231.08
789.35	231.08
789.67	231.04
789.99	230.98
790.32	230.94
790.64	230.93
790.96	231.00
791.28	230.96
791.61	230.91
791.93	230.89
792.25	230.85
792.57	230.88
792.89	230.83
793.21	230.81
793.54	230.77
793.86	230.74
794.18	230.70
794.50	230.67
794.82	230.63
795.14	230.61
795.47	230.64
795.79	230.60
796.11	230.57
796.43	230.54
796.75	230.52
797.07	230.50
797.39	230.48
797.71	230.37
798.04	230.31
798.36	230.28
798.68	230.29
799.00	230.27
799.32	230.21
799.64	230.26
799.96	230.24
800.28	230.23
800.60	230.23
800.92	230.21
801.24	230.20
801.56	230.21
801.89	230.20
802.21	230.13
802.53	230.10
802.85	230.06
803.17	230.10
803.49	230.08
803.81	230.04
804.13	230.01
804.45	229.98
804.77	229.99
805.09	229.98
805.41	229.92
805.73	229.90
806.05	229.88
806.37	229.83
806.69	229.79
807.01	229.76
807.33	229.76
807.65	229.74
807.97	229.74
808.28	229.67
808.60	229.62
808.92	229.60
809.24	229.63
809.56	229.62
809.88	229.56
810.20	229.52
810.52	229.57
810.84	229.52
811.16	229.47
811.48	229.39
811.80	229.41
812.12	229.36
812.43	229.35
812.75	229.30
813.07	229.22
813.39	229.20
813.71	229.17
814.03	229.10
814.35	229.04
814.67	228.94
814.98	228.92
815.30	228.90
815.62	228.86
815.94	228.74
816.26	228.80
816.58	228.73
816.89	228.71
817.21	228.64
817.53	228.61
817.85	228.61
818.17	228.59
818.48	228.53
818.80	228.49
819.12	228.47
819.44	228.41
819.76	228.39
820.07	228.36
820.39	228.33
820.71	228.32
821.03	228.30
821.34	228.27
821.66	228.25
821.98	228.22
822.30	228.19
822.61	228.26
822.93	228.15
823.25	228.12
823.57	228.08
823.88	228.06
824.20	228.06
824.52	228.05
824.83	228.04
825.15	228.00
825.47	228.01
825.79	227.98
826.10	227.98
826.42	227.94
826.74	227.93
827.05	227.92
827.37	227.92
827.69	227.90
828.00	227.91
828.32	227.93
828.64	227.93
828.95	227.95
829.27	227.89
829.58	227.89
829.90	227.89
830.22	227.90
830.53	227.90
830.85	227.83
831.17	227.78
831.48	227.79
831.80	227.80
832.11	227.77
832.43	227.74
832.75	227.72
833.06	227.81
833.38	227.78
833.69	227.77
834.01	227.76
834.32	227.77
834.64	227.77
834.96	227.73
835.27	227.71
835.59	227.71
835.90	227.72
836.22	227.69
836.53	227.70
836.85	227.71
837.16	227.77
837.48	227.79
837.79	227.84
838.11	227.82
838.42	227.84
838.74	227.87
839.05	227.87
839.37	227.88
839.68	227.83
840.00	227.82
840.31	227.85
840.63	227.83
840.94	227.80
841.26	227.80
841.57	227.84
841.88	227.84
842.20	227.83
842.51	227.79
842.83	227.80
843.14	227.88
843.46	227.85
843.77	227.81
844.08	227.81
844.40	227.79
844.71	227.79
845.03	227.76
845.34	227.71
845.65	227.70
845.97	227.72
846.28	227.71
846.60	227.74
846.91	227.72
847.22	227.72
847.54	227.76
847.85	227.75
848.16	227.71
848.48	227.70
848.79	227.72
849.10	227.76
849.42	227.76
849.73	227.67
850.04	227.68
850.36	227.64
850.67	227.63
850.98	227.61
851.30	227.59
851.61	227.60
851.92	227.61
852.23	227.67
852.55	227.65
852.86	227.66
853.17	227.63
853.49	227.64
853.80	227.63
854.11	227.63
854.42	227.62
854.74	227.59
855.05	227.61
855.36	227.55
855.67	227.56
855.99	227.56
856.30	227.64
856.61	227.63
856.92	227.62
857.23	227.60
857.55	227.59
857.86	227.58
858.17	227.58
858.48	227.56
858.79	227.51
859.11	227.52
859.42	227.49
859.73	227.47
860.04	227.45
860.35	227.45
860.66	227.39
860.98	227.41
861.29	227.42
861.60	227.39
861.91	227.39
862.22	227.31
862.53	227.28
862.84	227.17
863.16	227.17
863.47	227.19
863.78	227.18
864.09	227.19
864.40	227.16
864.71	227.16
865.02	227.19
865.33	227.16
865.64	227.11
865.95	227.09
866.27	227.15
866.58	227.13
866.89	227.10
867.20	227.09
867.51	227.07
867.82	227.04
868.13	227.08
868.44	227.06
868.75	227.10
869.06	227.10
869.37	227.07
869.68	227.03
869.99	227.02
870.30	227.02
870.61	227.02
870.92	227.00
871.23	226.99
871.54	226.99
871.85	227.00
872.16	227.00
872.47	227.00
872.78	226.93
873.09	226.93
873.40	226.93
873.71	226.96
874.02	226.94
874.33	226.93
874.64	226.85
874.95	226.87
875.26	226.83
875.56	226.80
875.87	226.82
876.18	226.82
876.49	226.92
876.80	226.92
877.11	226.91
877.42	226.95
877.73	226.94
878.04	226.92
878.35	226.92
878.66	226.95
878.96	226.97
879.27	226.99
879.58	227.01
879.89	227.00
880.20	227.04
880.51	227.03
880.82	227.03
881.12	227.08
881.43	227.06
881.74	227.09
882.05	227.11
882.36	227.15
882.67	227.19
882.97	227.09
883.28	227.12
883.59	227.12
883.90	227.12
884.21	227.17
884.51	227.18
884.82	227.17
885.13	227.15
885.44	227.13
885.74	227.16
886.05	227.14
886.36	227.15
886.67	227.11
886.98	227.17
887.28	227.21
887.59	227.21
887.90	227.20
888.20	227.20
888.51	227.26
888.82	227.23
889.13	227.23
889.43	227.30
889.74	227.27
890.05	227.28
890.35	227.29
890.66	227.26
890.97	227.25
891.28	227.25
891.58	227.27
891.89	227.27
892.20	227.25
892.50	227.27
892.81	227.29
893.12	227.29
893.42	227.24
893.73	227.23
894.04	227.25
894.34	227.25
894.65	227.24
894.95	227.19
895.26	227.22
895.57	227.26
895.87	227.18
896.18	227.18
896.48	227.16
896.79	227.12
897.10	227.09
897.40	227.10
897.71	227.14
898.01	227.12
898.32	227.12
898.63	227.11
898.93	227.05
899.24	227.04
899.54	227.03
899.85	227.04
900.15	227.04
900.46	227.02
900.76	227.05
901.07	227.06
901.38	227.06
901.68	227.01
901.99	226.92
902.29	226.90
902.60	226.91
902.90	226.87
903.21	226.89
903.51	226.92
903.82	226.90
904.12	226.86
904.43	226.88
904.73	226.87
905.03	226.88
905.34	226.99
905.64	226.96
905.95	226.95
906.25	226.92
906.56	226.90
906.86	226.90
907.17	226.86
907.47	226.85
907.77	226.82
908.08	226.81
908.38	226.83
908.69	226.87
908.99	226.85
909.30	226.90
909.60	226.88
909.90	226.87
910.21	226.86
910.51	226.86
910.81	226.84
911.12	226.82
911.42	226.80
911.73	226.67
912.03	226.68
912.33	226.69
912.64	226.70
912.94	226.68
913.24	226.68
913.55	226.68
913.85	226.70
914.15	226.73
914.46	226.78
914.76	226.77
915.06	226.74
915.37	226.74
915.67	226.73
915.97	226.74
916.27	226.71
916.58	226.71
916.88	226.71
917.18	226.73
917.49	226.80
917.79	226.85
918.09	226.90
918.39	226.95
918.70	226.96
919.00	226.94
919.30	226.99
919.60	227.01
919.91	227.00
920.21	226.99
920.51	226.96
920.81	226.94
921.12	226.98
921.42	227.02
921.72	227.01
922.02	227.04
922.32	227.07
922.63	227.09
922.93	227.12
923.23	227.14
923.53	227.10
923.83	227.06
924.13	227.05
924.44	227.08
924.74	227.08
925.04	227.11
925.34	227.13
925.64	227.11
925.94	227.08
926.24	227.15
926.55	227.17
926.85	227.18
927.15	227.17
927.45	227.15
927.75	227.13
928.05	227.18
928.35	227.15
928.65	227.15
928.95	227.18
929.26	227.17
929.56	227.20
929.86	227.25
930.16	227.22
930.46	227.21
930.76	227.21
931.06	227.16
931.36	227.14
931.66	227.14
931.96	227.15
932.26	227.18
932.56	227.11
932.86	227.11
933.16	227.12
933.46	227.11
933.76	227.07
934.06	227.09
934.36	227.10
934.66	227.11
934.96	227.06
935.26	227.07
935.56	227.06
935.86	227.02
936.16	226.98
936.46	226.95
936.76	226.97
937.06	226.92
937.36	226.89
937.66	226.89
937.96	226.89
938.26	226.86
938.56	226.81
938.86	226.81
939.16	226.79
939.46	226.78
939.76	226.78
940.06	226.79
940.35	226.76
940.65	226.70
940.95	226.66
941.25	226.64
941.55	226.61
941.85	226.60
942.15	226.61
942.45	226.65
942.75	226.64
943.04	226.61
943.34	226.62
943.64	226.64
943.94	226.61
944.24	226.59
944.54	226.57
944.84	226.60
945.13	226.57
945.43	226.57
945.73	226.55
946.03	226.52
946.33	226.50
946.62	226.47
946.92	226.44
947.22	226.44
947.52	226.42
947.82	226.39
948.11	226.39
948.41	226.36
948.71	226.33
949.01	226.35
949.31	226.34
949.60	226.34
949.90	226.36
950.20	226.36
950.50	226.37
950.79	226.37
951.09	226.37
951.39	226.37
951.69	226.36
951.98	226.39
952.28	226.41
952.58	226.45
952.87	226.46
953.17	226.48
953.47	226.50
953.76	226.53
954.06	226.56
954.36	226.54
954.66	226.55
954.95	226.59
955.25	226.60
955.55	226.63
955.84	226.64
956.14	226.62
956.44	226.63
956.73	226.61
957.03	226.63
957.32	226.64
957.62	226.64
957.92	226.65
958.21	226.66
958.51	226.77
958.81	226.82
959.10	226.86
959.40	226.90
959.69	226.92
959.99	226.94
960.29	226.95
960.58	226.99
960.88	227.01
961.17	227.01
961.47	227.01
961.76	227.00
962.06	227.01
962.36	227.02
962.65	227.06
962.95	227.12
963.24	227.11
963.54	227.12
963.83	227.17
964.13	227.22
964.42	227.20
964.72	227.11
965.01	227.06
965.31	227.05
965.60	227.01
965.90	227.09
966.19	227.09
966.49	227.10
966.78	227.09
967.08	227.11
967.37	227.11
967.67	227.12
967.96	227.15
968.26	227.13
968.55	227.14
968.85	227.11
969.14	227.09
969.43	227.10
969.73	227.07
970.02	227.04
970.32	226.99
970.61	226.99
970.91	226.95
971.20	226.94
971.49	226.95
971.79	226.99
972.08	226.87
972.38	226.87
972.67	226.84
972.96	226.87
973.26	226.82
973.55	226.90
973.85	226.84
974.14	226.86
974.43	226.84
974.73	226.82
975.02	226.80
975.31	226.80
975.61	226.78
975.90	226.76
976.19	226.73
976.49	226.75
976.78	226.76
977.07	226.76
977.37	226.77
977.66	226.74
977.95	226.70
978.24	226.71
978.54	226.69
978.83	226.70
979.12	226.67
979.42	226.66
979.71	226.60
980.00	226.60
980.29	226.56
980.59	226.57
980.88	226.57
981.17	226.60
981.46	226.59
981.76	226.58
982.05	226.67
982.34	226.68
982.63	226.63
982.93	226.63
983.22	226.68
983.51	226.69
983.80	226.70
984.09	226.68
984.39	226.66
984.68	226.69
984.97	226.68
985.26	226.66
985.55	226.68
985.85	226.64
986.14	226.65
986.43	226.67
986.72	226.64
987.01	226.62
987.30	226.62
987.59	226.60
987.89	226.62
988.18	226.55
988.47	226.54
988.76	226.59
989.05	226.59
989.34	226.56
989.63	226.57
989.92	226.59
990.22	226.58
990.51	226.59
990.80	226.55
991.09	226.56
991.38	226.55
991.67	226.54
991.96	226.54
992.25	226.60
992.54	226.59
992.83	226.61
993.12	226.62
993.41	226.63
993.70	226.69
993.99	226.72
994.28	226.75
994.58	226.77
994.87	226.74
995.16	226.75
995.45	226.75
995.74	226.72
996.03	226.74
996.32	226.76
996.61	226.79
996.90	226.82
997.19	226.82
997.48	226.86
997.77	226.87
998.06	226.90
998.34	226.86
998.63	226.84
998.92	226.87
999.21	226.88
999.50	226.84
999.79	226.81
1000.08	226.79
1000.37	226.82
1000.66	226.81
1000.95	226.86
1001.24	226.83
1001.53	226.87
1001.82	226.87
1002.11	226.86
1002.40	226.91
1002.68	226.97
1002.97	227.05
1003.26	227.03
1003.55	227.03
1003.84	227.02
1004.13	227.02
1004.42	227.01
1004.71	227.01
1004.99	227.02
1005.28	227.04
1005.57	227.05
1005.86	227.01
1006.15	227.02
1006.44	226.97
1006.72	227.00
1007.01	226.99
1007.30	227.00
1007.59	226.95
1007.88	226.98
1008.17	226.97
1008.45	226.92
1008.74	226.86
1009.03	226.81
1009.32	226.82
1009.60	226.83
1009.89	226.83
1010.18	226.82
1010.47	226.83
1010.76	226.84
1011.04	226.80
1011.33	226.78
1011.62	226.79
1011.91	226.81
1012.19	226.79
1012.48	226.78
1012.77	226.73
1013.05	226.73
1013.34	226.71
1013.63	226.72
1013.92	226.66
1014.20	226.63
1014.49	226.60
1014.78	226.59
1015.06	226.51
1015.35	226.48
1015.64	226.43
1015.92	226.44
1016.21	226.41
1016.50	226.40
1016.78	226.39
1017.07	226.37
1017.36	226.35
1017.64	226.31
1017.93	226.29
1018.22	226.27
1018.50	226.25
1018.79	226.23
1019.08	226.17
1019.36	226.15
1019.65	226.12
1019.93	226.16
1020.22	226.15
1020.51	226.20
1020.79	226.21
1021.08	226.20
1021.36	226.01
1021.65	225.76
1021.94	225.63
1022.22	225.81
1022.51	226.28
1022.79	226.71
1023.08	225.81
1023.36	227.50
1023.65	226.54
>>>>>End Processed Spectral Data<<<<<
