SpectraSuite Data File
++++++++++++++++++++++++++++++++++++
Date: Fri Feb 01 15:16:11 EST 2013
User: group
Dark Spectrum Present: No
Reference Spectrum Present: No
Number of Sampled Component Spectra: 1
Spectrometers: USB2E7196
Integration Time (usec): 35000 (USB2E7196)
Spectra Averaged: 100 (USB2E7196)
Boxcar Smoothing: 10 (USB2E7196)
Correct for Electrical Dark: No (USB2E7196)
Strobe/Lamp Enabled: No (USB2E7196)
Correct for Detector Non-linearity: No (USB2E7196)
Correct for Stray Light: No (USB2E7196)
Number of Pixels in Processed Spectrum: 2048
>>>>>Begin Processed Spectral Data<<<<<
339.09	0.00
339.48	215.19
339.86	216.74
340.24	218.02
340.63	219.62
341.01	222.10
341.39	221.89
341.78	223.63
342.16	224.95
342.54	225.02
342.93	213.42
343.31	224.22
343.69	224.75
344.07	225.20
344.46	225.63
344.84	225.99
345.22	226.21
345.60	226.47
345.99	226.67
346.37	226.79
346.75	226.88
347.13	226.95
347.52	227.02
347.90	227.09
348.28	227.12
348.66	227.19
349.05	227.21
349.43	227.23
349.81	227.29
350.19	227.33
350.57	227.41
350.96	227.45
351.34	227.50
351.72	227.57
352.10	227.64
352.48	227.69
352.87	227.72
353.25	227.80
353.63	227.85
354.01	227.89
354.39	227.92
354.77	228.03
355.15	228.12
355.54	228.17
355.92	228.21
356.30	228.27
356.68	228.39
357.06	228.46
357.44	228.52
357.82	228.58
358.20	228.67
358.58	228.73
358.97	228.81
359.35	228.90
359.73	229.01
360.11	229.10
360.49	229.17
360.87	229.25
361.25	229.32
361.63	229.43
362.01	229.46
362.39	229.51
362.77	229.54
363.15	229.59
363.53	229.65
363.91	229.69
364.29	229.73
364.67	229.66
365.05	229.68
365.43	229.70
365.81	229.70
366.19	229.73
366.57	229.74
366.95	229.74
367.33	229.70
367.71	229.71
368.09	229.71
368.47	229.70
368.85	229.66
369.23	229.62
369.61	229.54
369.99	229.54
370.37	229.53
370.75	229.50
371.13	229.42
371.51	229.33
371.89	229.29
372.27	229.23
372.65	229.22
373.03	229.15
373.41	229.10
373.78	229.03
374.16	228.92
374.54	228.85
374.92	228.77
375.30	228.70
375.68	228.61
376.06	228.55
376.44	228.47
376.82	228.41
377.19	228.35
377.57	228.26
377.95	228.16
378.33	228.10
378.71	227.99
379.09	227.92
379.47	227.89
379.84	227.78
380.22	227.68
380.60	227.56
380.98	227.46
381.36	227.38
381.73	227.32
382.11	227.28
382.49	227.24
382.87	227.14
383.25	227.09
383.62	227.10
384.00	227.00
384.38	226.95
384.76	226.90
385.13	226.87
385.51	226.85
385.89	226.79
386.27	226.73
386.64	226.68
387.02	226.64
387.40	226.55
387.78	226.53
388.15	226.51
388.53	226.45
388.91	226.43
389.29	226.37
389.66	226.33
390.04	226.27
390.42	226.23
390.79	226.23
391.17	226.18
391.55	226.06
391.92	226.05
392.30	226.05
392.68	226.02
393.05	226.01
393.43	226.00
393.81	226.01
394.18	225.98
394.56	226.02
394.94	226.05
395.31	226.08
395.69	226.13
396.06	226.13
396.44	226.18
396.82	226.19
397.19	226.30
397.57	226.33
397.95	226.41
398.32	226.43
398.70	226.46
399.07	226.57
399.45	226.62
399.82	226.71
400.20	226.77
400.58	226.89
400.95	226.92
401.33	227.03
401.70	227.14
402.08	227.27
402.45	227.36
402.83	227.51
403.20	227.62
403.58	227.72
403.95	227.91
404.33	228.04
404.71	228.21
405.08	228.39
405.46	228.56
405.83	228.71
406.21	228.89
406.58	229.08
406.96	229.25
407.33	229.46
407.70	229.64
408.08	229.93
408.45	230.14
408.83	230.40
409.20	230.62
409.58	230.83
409.95	231.09
410.33	231.36
410.70	231.65
411.08	231.98
411.45	232.33
411.82	232.65
412.20	233.03
412.57	233.47
412.95	233.77
413.32	234.18
413.69	234.62
414.07	235.08
414.44	235.55
414.82	236.05
415.19	236.59
415.56	237.18
415.94	237.72
416.31	238.37
416.68	239.03
417.06	239.75
417.43	240.49
417.81	241.28
418.18	242.05
418.55	242.87
418.93	243.75
419.30	244.61
419.67	245.52
420.04	246.48
420.42	247.49
420.79	248.67
421.16	249.83
421.54	251.03
421.91	252.25
422.28	253.54
422.66	254.88
423.03	256.19
423.40	257.51
423.77	258.91
424.15	260.33
424.52	261.80
424.89	263.39
425.26	264.89
425.64	266.35
426.01	267.96
426.38	269.59
426.75	271.26
427.13	273.00
427.50	274.80
427.87	276.69
428.24	278.48
428.61	280.26
428.99	282.21
429.36	284.32
429.73	286.39
430.10	288.40
430.47	290.44
430.85	292.56
431.22	294.83
431.59	297.21
431.96	299.48
432.33	301.98
432.70	304.36
433.08	307.18
433.45	309.82
433.82	312.41
434.19	315.32
434.56	318.11
434.93	320.77
435.30	323.39
435.68	326.27
436.05	329.10
436.42	331.87
436.79	334.41
437.16	337.10
437.53	339.96
437.90	342.76
438.27	345.50
438.64	348.31
439.01	350.89
439.38	353.14
439.75	355.31
440.13	357.81
440.50	360.16
440.87	362.01
441.24	363.95
441.61	366.11
441.98	367.60
442.35	369.42
442.72	371.28
443.09	373.11
443.46	374.07
443.83	374.69
444.20	375.18
444.57	375.97
444.94	376.24
445.31	376.57
445.68	376.93
446.05	377.02
446.42	376.66
446.79	376.26
447.16	375.83
447.53	375.44
447.90	374.25
448.27	373.08
448.64	371.53
449.01	370.38
449.37	368.40
449.74	366.51
450.11	364.25
450.48	361.73
450.85	359.19
451.22	357.04
451.59	355.01
451.96	353.09
452.33	350.48
452.70	348.12
453.07	345.26
453.43	342.35
453.80	339.57
454.17	336.89
454.54	334.33
454.91	331.56
455.28	328.97
455.65	326.48
456.02	324.06
456.38	321.84
456.75	319.18
457.12	316.96
457.49	314.74
457.86	312.58
458.23	310.76
458.59	308.75
458.96	306.68
459.33	304.81
459.70	302.93
460.07	301.48
460.43	299.78
460.80	298.12
461.17	296.67
461.54	295.18
461.91	293.77
462.27	292.30
462.64	291.07
463.01	289.68
463.38	288.37
463.74	287.01
464.11	285.92
464.48	284.89
464.85	283.78
465.21	282.92
465.58	281.97
465.95	280.85
466.32	279.92
466.68	279.02
467.05	278.16
467.42	277.24
467.78	276.23
468.15	275.34
468.52	274.69
468.88	273.85
469.25	273.06
469.62	272.40
469.98	271.69
470.35	271.03
470.72	270.37
471.08	269.75
471.45	269.18
471.82	268.59
472.18	268.01
472.55	267.55
472.92	267.00
473.28	266.53
473.65	266.10
474.02	265.63
474.38	265.26
474.75	264.87
475.11	264.54
475.48	264.26
475.85	263.99
476.21	263.73
476.58	263.52
476.94	263.37
477.31	263.20
477.67	263.07
478.04	262.93
478.41	262.89
478.77	262.89
479.14	262.81
479.50	262.80
479.87	262.84
480.23	262.90
480.60	262.95
480.96	263.01
481.33	263.17
481.69	263.35
482.06	263.52
482.42	263.76
482.79	264.03
483.15	264.37
483.52	264.76
483.88	265.11
484.25	265.48
484.61	265.86
484.98	266.30
485.34	266.84
485.71	267.44
486.07	268.07
486.44	268.63
486.80	269.30
487.17	269.99
487.53	270.81
487.90	271.64
488.26	272.57
488.62	273.57
488.99	274.53
489.35	275.57
489.72	276.68
490.08	277.88
490.44	279.11
490.81	280.44
491.17	281.76
491.54	283.28
491.90	284.88
492.26	286.55
492.63	288.29
492.99	290.03
493.36	291.90
493.72	293.92
494.08	296.01
494.45	298.27
494.81	300.66
495.17	303.04
495.54	305.58
495.90	308.28
496.26	311.07
496.63	314.06
496.99	317.16
497.35	320.48
497.72	323.91
498.08	327.38
498.44	330.99
498.80	334.93
499.17	338.93
499.53	343.06
499.89	347.44
500.26	351.98
500.62	356.74
500.98	361.73
501.34	366.77
501.71	372.07
502.07	377.53
502.43	383.15
502.79	388.97
503.16	395.03
503.52	401.31
503.88	407.71
504.24	414.35
504.60	421.23
504.97	428.28
505.33	435.52
505.69	443.29
506.05	451.18
506.41	459.07
506.78	467.22
507.14	475.70
507.50	484.44
507.86	493.42
508.22	502.57
508.59	511.80
508.95	521.48
509.31	531.28
509.67	541.39
510.03	551.72
510.39	562.35
510.75	573.17
511.12	584.12
511.48	595.46
511.84	606.86
512.20	618.43
512.56	630.43
512.92	642.65
513.28	655.01
513.64	667.41
514.00	680.10
514.37	693.06
514.73	706.10
515.09	719.09
515.45	732.46
515.81	746.04
516.17	760.08
516.53	774.20
516.89	788.42
517.25	802.69
517.61	817.19
517.97	831.67
518.33	846.19
518.69	861.07
519.05	876.06
519.41	891.34
519.77	906.90
520.13	922.38
520.49	937.76
520.85	953.16
521.21	968.97
521.57	985.25
521.93	1001.06
522.29	1017.51
522.65	1033.82
523.01	1049.99
523.37	1066.11
523.73	1082.30
524.09	1098.46
524.45	1114.90
524.81	1131.56
525.17	1148.37
525.53	1165.36
525.89	1182.22
526.25	1198.99
526.61	1215.39
526.97	1232.18
527.33	1248.72
527.68	1265.37
528.04	1281.91
528.40	1298.66
528.76	1315.76
529.12	1332.54
529.48	1349.49
529.84	1365.56
530.20	1382.29
530.56	1399.39
530.91	1416.83
531.27	1433.55
531.63	1449.94
531.99	1466.50
532.35	1482.39
532.71	1498.24
533.07	1514.47
533.42	1530.35
533.78	1546.43
534.14	1562.73
534.50	1578.00
534.86	1593.96
535.21	1609.23
535.57	1625.28
535.93	1640.85
536.29	1655.73
536.65	1670.78
537.00	1685.68
537.36	1701.04
537.72	1715.59
538.08	1730.03
538.44	1743.88
538.79	1757.97
539.15	1771.97
539.51	1785.81
539.87	1800.27
540.22	1814.16
540.58	1828.15
540.94	1841.74
541.29	1854.75
541.65	1867.58
542.01	1881.06
542.37	1893.41
542.72	1905.90
543.08	1917.79
543.44	1930.22
543.79	1941.49
544.15	1952.52
544.51	1964.02
544.87	1975.04
545.22	1985.80
545.58	1996.12
545.94	2005.97
546.29	2015.82
546.65	2025.52
547.01	2034.74
547.36	2043.65
547.72	2052.08
548.07	2059.77
548.43	2068.01
548.79	2076.06
549.14	2083.66
549.50	2091.06
549.86	2098.83
550.21	2106.15
550.57	2113.30
550.92	2119.93
551.28	2127.04
551.64	2134.17
551.99	2140.84
552.35	2147.03
552.70	2153.41
553.06	2159.42
553.41	2165.83
553.77	2171.93
554.13	2178.05
554.48	2184.24
554.84	2189.49
555.19	2194.85
555.55	2200.06
555.90	2204.41
556.26	2209.24
556.61	2214.01
556.97	2218.09
557.32	2222.21
557.68	2226.35
558.03	2230.58
558.39	2234.29
558.74	2238.87
559.10	2242.64
559.45	2246.12
559.81	2250.52
560.16	2254.14
560.52	2257.28
560.87	2260.73
561.23	2263.28
561.58	2266.20
561.94	2268.66
562.29	2271.11
562.64	2273.71
563.00	2276.35
563.35	2279.81
563.71	2283.00
564.06	2286.24
564.42	2289.18
564.77	2291.58
565.12	2293.74
565.48	2295.56
565.83	2297.31
566.19	2298.52
566.54	2299.53
566.89	2300.68
567.25	2301.10
567.60	2302.50
567.96	2304.16
568.31	2304.81
568.66	2305.81
569.02	2306.25
569.37	2306.49
569.72	2307.28
570.08	2307.38
570.43	2307.22
570.78	2306.45
571.14	2304.75
571.49	2303.16
571.84	2302.77
572.20	2301.37
572.55	2300.27
572.90	2298.67
573.26	2297.26
573.61	2295.53
573.96	2293.55
574.31	2290.48
574.67	2287.30
575.02	2283.60
575.37	2280.13
575.72	2276.18
576.08	2272.86
576.43	2269.52
576.78	2265.91
577.13	2262.54
577.49	2259.46
577.84	2256.07
578.19	2252.36
578.54	2248.61
578.90	2244.27
579.25	2238.68
579.60	2233.81
579.95	2228.80
580.30	2223.78
580.66	2218.47
581.01	2213.44
581.36	2208.49
581.71	2204.21
582.06	2199.71
582.42	2195.17
582.77	2189.88
583.12	2185.26
583.47	2180.36
583.82	2175.13
584.17	2169.64
584.53	2164.23
584.88	2158.25
585.23	2152.21
585.58	2146.66
585.93	2141.21
586.28	2136.35
586.63	2131.05
586.98	2125.88
587.34	2120.92
587.69	2115.74
588.04	2110.34
588.39	2104.64
588.74	2098.07
589.09	2091.83
589.44	2084.98
589.79	2078.74
590.14	2072.99
590.49	2066.33
590.84	2059.90
591.19	2053.85
591.54	2047.31
591.89	2039.73
592.25	2032.91
592.60	2025.73
592.95	2017.89
593.30	2010.40
593.65	2002.77
594.00	1995.72
594.35	1988.53
594.70	1980.59
595.05	1973.31
595.40	1965.98
595.75	1958.39
596.10	1952.11
596.45	1945.14
596.80	1938.88
597.15	1932.25
597.50	1924.95
597.85	1918.57
598.19	1911.86
598.54	1904.81
598.89	1898.22
599.24	1892.29
599.59	1885.53
599.94	1879.26
600.29	1873.03
600.64	1866.37
600.99	1858.91
601.34	1851.96
601.69	1844.86
602.04	1837.83
602.39	1830.42
602.74	1823.58
603.08	1816.81
603.43	1810.08
603.78	1802.91
604.13	1795.72
604.48	1788.42
604.83	1781.72
605.18	1774.63
605.53	1766.50
605.87	1758.33
606.22	1751.05
606.57	1743.14
606.92	1735.98
607.27	1728.71
607.62	1721.79
607.96	1714.43
608.31	1707.68
608.66	1700.06
609.01	1692.40
609.36	1684.73
609.70	1676.80
610.05	1668.56
610.40	1660.83
610.75	1652.37
611.10	1644.68
611.44	1636.21
611.79	1628.14
612.14	1619.42
612.49	1610.33
612.83	1602.11
613.18	1594.09
613.53	1585.92
613.88	1577.38
614.22	1569.01
614.57	1560.46
614.92	1552.39
615.27	1544.94
615.61	1536.62
615.96	1528.68
616.31	1521.12
616.65	1513.86
617.00	1506.29
617.35	1498.77
617.70	1490.35
618.04	1481.88
618.39	1473.61
618.74	1466.09
619.08	1457.80
619.43	1450.25
619.78	1443.18
620.12	1435.93
620.47	1428.36
620.82	1420.18
621.16	1412.75
621.51	1405.08
621.85	1397.41
622.20	1388.84
622.55	1380.46
622.89	1372.69
623.24	1365.05
623.59	1357.73
623.93	1350.22
624.28	1342.96
624.62	1335.45
624.97	1328.22
625.32	1321.53
625.66	1314.63
626.01	1307.33
626.35	1299.84
626.70	1292.01
627.04	1284.30
627.39	1276.59
627.73	1269.18
628.08	1262.28
628.43	1254.95
628.77	1247.63
629.12	1240.14
629.46	1233.02
629.81	1225.67
630.15	1218.41
630.50	1211.06
630.84	1202.85
631.19	1194.99
631.53	1187.55
631.88	1179.96
632.22	1172.49
632.57	1165.17
632.91	1157.57
633.26	1150.26
633.60	1143.02
633.95	1136.05
634.29	1129.13
634.64	1122.48
634.98	1115.13
635.32	1108.12
635.67	1101.59
636.01	1094.97
636.36	1088.14
636.70	1081.73
637.05	1075.13
637.39	1068.77
637.73	1062.24
638.08	1056.46
638.42	1050.48
638.77	1044.07
639.11	1037.57
639.45	1031.15
639.80	1024.52
640.14	1018.07
640.49	1011.57
640.83	1005.20
641.17	998.88
641.52	992.55
641.86	986.09
642.20	980.33
642.55	973.99
642.89	967.47
643.23	960.97
643.58	955.22
643.92	949.01
644.26	942.97
644.61	936.92
644.95	930.87
645.29	924.12
645.64	917.43
645.98	911.06
646.32	905.22
646.66	899.20
647.01	893.33
647.35	887.73
647.69	881.89
648.04	876.47
648.38	870.64
648.72	864.64
649.06	858.71
649.41	852.75
649.75	846.74
650.09	840.82
650.43	835.00
650.78	828.82
651.12	822.87
651.46	817.10
651.80	811.30
652.14	805.87
652.49	800.58
652.83	795.28
653.17	789.66
653.51	783.79
653.85	778.47
654.20	772.91
654.54	766.83
654.88	761.07
655.22	755.17
655.56	749.49
655.90	743.97
656.25	738.62
656.59	733.38
656.93	728.36
657.27	723.21
657.61	717.76
657.95	712.66
658.29	707.50
658.64	702.38
658.98	697.08
659.32	691.64
659.66	686.46
660.00	681.20
660.34	676.18
660.68	671.39
661.02	666.36
661.36	661.63
661.70	657.22
662.05	652.90
662.39	648.59
662.73	644.18
663.07	639.79
663.41	635.34
663.75	630.81
664.09	626.25
664.43	621.95
664.77	617.82
665.11	613.62
665.45	609.57
665.79	605.46
666.13	601.39
666.47	597.33
666.81	593.13
667.15	589.04
667.49	585.20
667.83	581.43
668.17	577.48
668.51	573.38
668.85	569.33
669.19	565.48
669.53	561.62
669.87	557.71
670.21	554.14
670.55	550.55
670.89	547.09
671.23	543.66
671.57	540.05
671.91	536.58
672.25	533.11
672.58	529.60
672.92	526.25
673.26	523.08
673.60	519.95
673.94	516.88
674.28	514.01
674.62	511.09
674.96	508.00
675.30	505.14
675.64	502.27
675.97	499.53
676.31	496.67
676.65	493.77
676.99	491.16
677.33	488.27
677.67	485.47
678.01	482.45
678.34	479.49
678.68	476.68
679.02	473.85
679.36	471.10
679.70	468.43
680.04	465.68
680.37	462.90
680.71	460.21
681.05	457.61
681.39	454.92
681.73	452.34
682.06	449.84
682.40	447.25
682.74	444.76
683.08	442.25
683.42	439.68
683.75	437.19
684.09	434.68
684.43	432.26
684.77	429.81
685.10	427.51
685.44	425.24
685.78	422.97
686.12	420.82
686.45	418.55
686.79	416.25
687.13	414.04
687.46	411.81
687.80	409.63
688.14	407.46
688.48	405.35
688.81	403.04
689.15	400.89
689.49	398.78
689.82	396.71
690.16	394.58
690.50	392.62
690.83	390.67
691.17	388.68
691.51	386.75
691.84	384.87
692.18	382.92
692.52	380.92
692.85	378.98
693.19	377.06
693.52	375.22
693.86	373.42
694.20	371.63
694.53	369.87
694.87	368.01
695.21	366.22
695.54	364.43
695.88	362.71
696.21	360.95
696.55	359.24
696.88	357.54
697.22	355.88
697.56	354.27
697.89	352.64
698.23	351.01
698.56	349.36
698.90	347.73
699.23	346.07
699.57	344.54
699.90	343.00
700.24	341.47
700.58	339.93
700.91	338.42
701.25	336.94
701.58	335.50
701.92	334.12
702.25	332.69
702.59	331.31
702.92	329.97
703.26	328.66
703.59	327.35
703.93	326.12
704.26	324.89
704.60	323.57
704.93	322.30
705.26	321.02
705.60	319.87
705.93	318.73
706.27	317.72
706.60	316.62
706.94	315.55
707.27	314.45
707.61	313.37
707.94	312.34
708.27	311.26
708.61	310.26
708.94	309.25
709.28	308.30
709.61	307.31
709.94	306.37
710.28	305.36
710.61	304.41
710.95	303.38
711.28	302.49
711.61	301.57
711.95	300.65
712.28	299.80
712.61	298.83
712.95	297.97
713.28	297.14
713.61	296.30
713.95	295.43
714.28	294.59
714.61	293.79
714.95	292.94
715.28	292.15
715.61	291.24
715.95	290.39
716.28	289.56
716.61	288.78
716.95	288.00
717.28	287.27
717.61	286.52
717.94	285.83
718.28	285.07
718.61	284.37
718.94	283.67
719.27	282.98
719.61	282.34
719.94	281.65
720.27	280.89
720.60	280.22
720.94	279.61
721.27	279.03
721.60	278.44
721.93	277.82
722.27	277.24
722.60	276.71
722.93	276.17
723.26	275.63
723.59	275.10
723.93	274.62
724.26	274.09
724.59	273.54
724.92	273.01
725.25	272.51
725.59	271.97
725.92	271.47
726.25	270.95
726.58	270.49
726.91	269.99
727.24	269.56
727.57	269.11
727.91	268.61
728.24	268.11
728.57	267.63
728.90	267.24
729.23	266.76
729.56	266.35
729.89	265.92
730.22	265.42
730.55	264.98
730.89	264.48
731.22	264.00
731.55	263.58
731.88	263.14
732.21	262.64
732.54	262.23
732.87	261.76
733.20	261.37
733.53	260.96
733.86	260.58
734.19	260.16
734.52	259.78
734.85	259.44
735.18	259.00
735.51	258.63
735.84	258.18
736.17	257.84
736.50	257.39
736.83	257.13
737.16	256.81
737.49	256.47
737.82	256.09
738.15	255.78
738.48	255.41
738.81	255.09
739.14	254.79
739.47	254.44
739.80	254.15
740.13	253.86
740.46	253.50
740.79	253.14
741.12	252.83
741.45	252.45
741.78	252.10
742.11	251.83
742.44	251.47
742.77	251.22
743.10	250.92
743.43	250.61
743.75	250.18
744.08	250.00
744.41	249.69
744.74	249.45
745.07	249.16
745.40	248.92
745.73	248.67
746.06	248.38
746.39	248.13
746.71	247.86
747.04	247.56
747.37	247.29
747.70	247.08
748.03	246.81
748.36	246.62
748.68	246.39
749.01	246.16
749.34	245.96
749.67	245.71
750.00	245.49
750.33	245.35
750.65	245.14
750.98	244.80
751.31	244.59
751.64	244.39
751.97	244.24
752.29	244.00
752.62	243.76
752.95	243.53
753.28	243.31
753.60	243.10
753.93	242.94
754.26	242.77
754.59	242.54
754.91	242.37
755.24	242.16
755.57	241.99
755.90	241.80
756.22	241.60
756.55	241.42
756.88	241.22
757.20	241.00
757.53	240.84
757.86	240.70
758.19	240.57
758.51	240.39
758.84	240.17
759.17	240.01
759.49	239.88
759.82	239.79
760.15	239.63
760.47	239.51
760.80	239.34
761.13	239.21
761.45	239.08
761.78	238.91
762.11	238.80
762.43	238.63
762.76	238.52
763.08	238.41
763.41	238.25
763.74	238.12
764.06	237.95
764.39	237.82
764.71	237.66
765.04	237.48
765.37	237.36
765.69	237.25
766.02	237.14
766.34	236.97
766.67	236.83
767.00	236.76
767.32	236.73
767.65	236.67
767.97	236.57
768.30	236.47
768.62	236.38
768.95	236.22
769.27	236.14
769.60	236.04
769.92	235.90
770.25	235.81
770.57	235.69
770.90	235.64
771.22	235.52
771.55	235.43
771.87	235.39
772.20	235.24
772.52	235.23
772.85	235.26
773.17	235.21
773.50	235.10
773.82	234.98
774.15	234.79
774.47	234.63
774.80	234.53
775.12	234.43
775.45	234.33
775.77	234.28
776.09	234.18
776.42	234.11
776.74	234.09
777.07	234.00
777.39	233.94
777.72	233.83
778.04	233.76
778.36	233.69
778.69	233.62
779.01	233.58
779.33	233.42
779.66	233.24
779.98	233.12
780.31	233.07
780.63	233.04
780.95	232.97
781.28	232.90
781.60	232.81
781.92	232.78
782.25	232.71
782.57	232.64
782.89	232.56
783.22	232.47
783.54	232.38
783.86	232.34
784.19	232.26
784.51	232.23
784.83	232.15
785.16	232.08
785.48	232.00
785.80	231.92
786.12	231.85
786.45	231.80
786.77	231.78
787.09	231.69
787.42	231.55
787.74	231.50
788.06	231.46
788.38	231.44
788.71	231.34
789.03	231.30
789.35	231.27
789.67	231.24
789.99	231.17
790.32	231.10
790.64	231.05
790.96	231.09
791.28	231.00
791.61	230.98
791.93	230.95
792.25	230.88
792.57	230.94
792.89	230.86
793.21	230.79
793.54	230.74
793.86	230.73
794.18	230.78
794.50	230.73
794.82	230.70
795.14	230.68
795.47	230.71
795.79	230.66
796.11	230.62
796.43	230.57
796.75	230.56
797.07	230.53
797.39	230.52
797.71	230.42
798.04	230.40
798.36	230.35
798.68	230.31
799.00	230.29
799.32	230.22
799.64	230.24
799.96	230.26
800.28	230.25
800.60	230.20
800.92	230.17
801.24	230.17
801.56	230.11
801.89	230.04
802.21	229.98
802.53	229.92
802.85	229.90
803.17	229.92
803.49	229.86
803.81	229.84
804.13	229.80
804.45	229.76
804.77	229.77
805.09	229.76
805.41	229.74
805.73	229.68
806.05	229.62
806.37	229.63
806.69	229.57
807.01	229.56
807.33	229.58
807.65	229.51
807.97	229.54
808.28	229.53
808.60	229.50
808.92	229.49
809.24	229.59
809.56	229.54
809.88	229.51
810.20	229.50
810.52	229.49
810.84	229.46
811.16	229.44
811.48	229.42
811.80	229.42
812.12	229.38
812.43	229.40
812.75	229.39
813.07	229.35
813.39	229.34
813.71	229.30
814.03	229.25
814.35	229.23
814.67	229.14
814.98	229.11
815.30	229.11
815.62	229.09
815.94	228.97
816.26	229.00
816.58	228.92
816.89	228.94
817.21	228.90
817.53	228.89
817.85	228.85
818.17	228.85
818.48	228.82
818.80	228.85
819.12	228.83
819.44	228.81
819.76	228.79
820.07	228.75
820.39	228.72
820.71	228.71
821.03	228.70
821.34	228.68
821.66	228.69
821.98	228.67
822.30	228.61
822.61	228.68
822.93	228.63
823.25	228.65
823.57	228.59
823.88	228.60
824.20	228.58
824.52	228.60
824.83	228.57
825.15	228.52
825.47	228.47
825.79	228.45
826.10	228.41
826.42	228.41
826.74	228.38
827.05	228.41
827.37	228.40
827.69	228.37
828.00	228.36
828.32	228.34
828.64	228.32
828.95	228.39
829.27	228.32
829.58	228.32
829.90	228.31
830.22	228.33
830.53	228.29
830.85	228.29
831.17	228.27
831.48	228.24
831.80	228.23
832.11	228.20
832.43	228.17
832.75	228.17
833.06	228.18
833.38	228.16
833.69	228.09
834.01	228.08
834.32	228.08
834.64	228.05
834.96	228.04
835.27	228.07
835.59	228.02
835.90	227.99
836.22	227.97
836.53	227.93
836.85	227.88
837.16	227.96
837.48	227.93
837.79	227.94
838.11	227.90
838.42	227.93
838.74	227.94
839.05	227.93
839.37	227.91
839.68	227.85
840.00	227.84
840.31	227.88
840.63	227.91
840.94	227.91
841.26	227.90
841.57	227.87
841.88	227.84
842.20	227.81
842.51	227.80
842.83	227.78
843.14	227.85
843.46	227.85
843.77	227.79
844.08	227.81
844.40	227.77
844.71	227.76
845.03	227.74
845.34	227.73
845.65	227.77
845.97	227.75
846.28	227.75
846.60	227.74
846.91	227.72
847.22	227.66
847.54	227.66
847.85	227.69
848.16	227.70
848.48	227.69
848.79	227.70
849.10	227.74
849.42	227.75
849.73	227.69
850.04	227.72
850.36	227.68
850.67	227.68
850.98	227.71
851.30	227.74
851.61	227.75
851.92	227.73
852.23	227.71
852.55	227.76
852.86	227.76
853.17	227.80
853.49	227.79
853.80	227.85
854.11	227.87
854.42	227.89
854.74	227.88
855.05	227.88
855.36	227.85
855.67	227.82
855.99	227.81
856.30	227.92
856.61	227.87
856.92	227.86
857.23	227.83
857.55	227.79
857.86	227.79
858.17	227.76
858.48	227.74
858.79	227.71
859.11	227.72
859.42	227.73
859.73	227.70
860.04	227.72
860.35	227.66
860.66	227.61
860.98	227.59
861.29	227.58
861.60	227.54
861.91	227.56
862.22	227.54
862.53	227.54
862.84	227.41
863.16	227.46
863.47	227.50
863.78	227.50
864.09	227.52
864.40	227.52
864.71	227.53
865.02	227.58
865.33	227.59
865.64	227.54
865.95	227.49
866.27	227.53
866.58	227.51
866.89	227.53
867.20	227.52
867.51	227.51
867.82	227.49
868.13	227.53
868.44	227.52
868.75	227.54
869.06	227.56
869.37	227.59
869.68	227.54
869.99	227.53
870.30	227.54
870.61	227.56
870.92	227.52
871.23	227.53
871.54	227.53
871.85	227.58
872.16	227.57
872.47	227.56
872.78	227.51
873.09	227.53
873.40	227.54
873.71	227.57
874.02	227.57
874.33	227.56
874.64	227.57
874.95	227.59
875.26	227.60
875.56	227.60
875.87	227.57
876.18	227.57
876.49	227.66
876.80	227.66
877.11	227.62
877.42	227.66
877.73	227.67
878.04	227.66
878.35	227.61
878.66	227.64
878.96	227.66
879.27	227.66
879.58	227.67
879.89	227.65
880.20	227.67
880.51	227.65
880.82	227.68
881.12	227.66
881.43	227.64
881.74	227.60
882.05	227.58
882.36	227.58
882.67	227.59
882.97	227.48
883.28	227.49
883.59	227.48
883.90	227.49
884.21	227.50
884.51	227.47
884.82	227.51
885.13	227.49
885.44	227.48
885.74	227.49
886.05	227.46
886.36	227.47
886.67	227.41
886.98	227.45
887.28	227.46
887.59	227.45
887.90	227.46
888.20	227.44
888.51	227.44
888.82	227.42
889.13	227.43
889.43	227.51
889.74	227.46
890.05	227.46
890.35	227.40
890.66	227.36
890.97	227.35
891.28	227.28
891.58	227.28
891.89	227.29
892.20	227.23
892.50	227.22
892.81	227.19
893.12	227.21
893.42	227.15
893.73	227.14
894.04	227.14
894.34	227.14
894.65	227.13
894.95	227.13
895.26	227.13
895.57	227.15
895.87	227.06
896.18	227.05
896.48	227.07
896.79	227.06
897.10	227.09
897.40	227.09
897.71	227.12
898.01	227.12
898.32	227.11
898.63	227.11
898.93	227.08
899.24	227.07
899.54	227.06
899.85	227.08
900.15	227.09
900.46	227.10
900.76	227.13
901.07	227.12
901.38	227.09
901.68	227.11
901.99	227.10
902.29	227.10
902.60	227.10
902.90	227.08
903.21	227.10
903.51	227.07
903.82	227.09
904.12	227.07
904.43	227.06
904.73	227.06
905.03	227.08
905.34	227.20
905.64	227.21
905.95	227.21
906.25	227.21
906.56	227.19
906.86	227.21
907.17	227.16
907.47	227.17
907.77	227.19
908.08	227.17
908.38	227.15
908.69	227.14
908.99	227.16
909.30	227.18
909.60	227.18
909.90	227.22
910.21	227.19
910.51	227.20
910.81	227.22
911.12	227.26
911.42	227.34
911.73	227.23
912.03	227.24
912.33	227.27
912.64	227.26
912.94	227.27
913.24	227.25
913.55	227.26
913.85	227.26
914.15	227.27
914.46	227.30
914.76	227.29
915.06	227.30
915.37	227.29
915.67	227.29
915.97	227.30
916.27	227.23
916.58	227.25
916.88	227.21
917.18	227.21
917.49	227.24
917.79	227.19
918.09	227.19
918.39	227.22
918.70	227.19
919.00	227.22
919.30	227.25
919.60	227.23
919.91	227.25
920.21	227.26
920.51	227.24
920.81	227.21
921.12	227.23
921.42	227.22
921.72	227.21
922.02	227.21
922.32	227.23
922.63	227.25
922.93	227.26
923.23	227.32
923.53	227.31
923.83	227.25
924.13	227.23
924.44	227.26
924.74	227.27
925.04	227.28
925.34	227.27
925.64	227.22
925.94	227.22
926.24	227.22
926.55	227.20
926.85	227.21
927.15	227.19
927.45	227.21
927.75	227.19
928.05	227.21
928.35	227.20
928.65	227.22
928.95	227.24
929.26	227.23
929.56	227.22
929.86	227.21
930.16	227.20
930.46	227.21
930.76	227.17
931.06	227.12
931.36	227.09
931.66	227.08
931.96	227.10
932.26	227.09
932.56	227.08
932.86	227.08
933.16	227.08
933.46	227.09
933.76	227.12
934.06	227.17
934.36	227.18
934.66	227.17
934.96	227.15
935.26	227.18
935.56	227.16
935.86	227.17
936.16	227.18
936.46	227.17
936.76	227.17
937.06	227.18
937.36	227.18
937.66	227.18
937.96	227.20
938.26	227.20
938.56	227.19
938.86	227.19
939.16	227.23
939.46	227.23
939.76	227.23
940.06	227.20
940.35	227.17
940.65	227.14
940.95	227.13
941.25	227.11
941.55	227.07
941.85	227.09
942.15	227.07
942.45	227.10
942.75	227.10
943.04	227.07
943.34	227.10
943.64	227.14
943.94	227.15
944.24	227.16
944.54	227.14
944.84	227.17
945.13	227.16
945.43	227.14
945.73	227.16
946.03	227.14
946.33	227.11
946.62	227.09
946.92	227.09
947.22	227.13
947.52	227.11
947.82	227.12
948.11	227.09
948.41	227.10
948.71	227.05
949.01	227.06
949.31	227.09
949.60	227.07
949.90	227.04
950.20	227.03
950.50	226.98
950.79	226.98
951.09	227.00
951.39	227.03
951.69	227.00
951.98	227.02
952.28	227.02
952.58	227.01
952.87	227.04
953.17	227.04
953.47	226.99
953.76	227.04
954.06	227.03
954.36	227.04
954.66	227.02
954.95	227.03
955.25	227.04
955.55	227.07
955.84	227.07
956.14	227.05
956.44	227.05
956.73	227.08
957.03	227.11
957.32	227.08
957.62	227.04
957.92	227.06
958.21	227.03
958.51	227.13
958.81	227.15
959.10	227.16
959.40	227.17
959.69	227.18
959.99	227.17
960.29	227.16
960.58	227.14
960.88	227.19
961.17	227.18
961.47	227.15
961.76	227.09
962.06	227.11
962.36	227.11
962.65	227.10
962.95	227.05
963.24	227.03
963.54	227.01
963.83	227.04
964.13	227.03
964.42	227.00
964.72	226.93
965.01	226.92
965.31	226.90
965.60	226.85
965.90	226.90
966.19	226.86
966.49	226.85
966.78	226.84
967.08	226.81
967.37	226.78
967.67	226.76
967.96	226.79
968.26	226.76
968.55	226.77
968.85	226.79
969.14	226.81
969.43	226.78
969.73	226.76
970.02	226.75
970.32	226.73
970.61	226.74
970.91	226.72
971.20	226.69
971.49	226.70
971.79	226.72
972.08	226.67
972.38	226.66
972.67	226.66
972.96	226.63
973.26	226.61
973.55	226.65
973.85	226.63
974.14	226.62
974.43	226.63
974.73	226.61
975.02	226.56
975.31	226.54
975.61	226.51
975.90	226.51
976.19	226.48
976.49	226.50
976.78	226.51
977.07	226.49
977.37	226.48
977.66	226.46
977.95	226.46
978.24	226.48
978.54	226.53
978.83	226.54
979.12	226.60
979.42	226.61
979.71	226.62
980.00	226.64
980.29	226.65
980.59	226.63
980.88	226.69
981.17	226.70
981.46	226.72
981.76	226.77
982.05	226.79
982.34	226.84
982.63	226.83
982.93	226.84
983.22	226.90
983.51	226.93
983.80	226.97
984.09	227.01
984.39	227.00
984.68	226.98
984.97	227.01
985.26	226.99
985.55	227.04
985.85	227.01
986.14	227.06
986.43	227.10
986.72	227.11
987.01	227.08
987.30	227.13
987.59	227.17
987.89	227.16
988.18	227.20
988.47	227.18
988.76	227.19
989.05	227.18
989.34	227.16
989.63	227.20
989.92	227.19
990.22	227.15
990.51	227.19
990.80	227.19
991.09	227.17
991.38	227.22
991.67	227.20
991.96	227.20
992.25	227.19
992.54	227.17
992.83	227.19
993.12	227.18
993.41	227.18
993.70	227.20
993.99	227.23
994.28	227.20
994.58	227.22
994.87	227.19
995.16	227.17
995.45	227.15
995.74	227.12
996.03	227.14
996.32	227.17
996.61	227.16
996.90	227.16
997.19	227.15
997.48	227.13
997.77	227.14
998.06	227.16
998.34	227.15
998.63	227.14
998.92	227.14
999.21	227.17
999.50	227.15
999.79	227.12
1000.08	227.10
1000.37	227.11
1000.66	227.08
1000.95	227.09
1001.24	227.12
1001.53	227.16
1001.82	227.14
1002.11	227.10
1002.40	227.11
1002.68	227.08
1002.97	227.13
1003.26	227.11
1003.55	227.10
1003.84	227.08
1004.13	227.10
1004.42	227.05
1004.71	227.01
1004.99	226.97
1005.28	226.94
1005.57	226.92
1005.86	226.91
1006.15	226.91
1006.44	226.86
1006.72	226.88
1007.01	226.88
1007.30	226.86
1007.59	226.83
1007.88	226.81
1008.17	226.81
1008.45	226.77
1008.74	226.78
1009.03	226.72
1009.32	226.73
1009.60	226.68
1009.89	226.65
1010.18	226.59
1010.47	226.61
1010.76	226.62
1011.04	226.60
1011.33	226.61
1011.62	226.63
1011.91	226.62
1012.19	226.61
1012.48	226.62
1012.77	226.62
1013.05	226.67
1013.34	226.68
1013.63	226.67
1013.92	226.70
1014.20	226.71
1014.49	226.71
1014.78	226.74
1015.06	226.68
1015.35	226.69
1015.64	226.73
1015.92	226.73
1016.21	226.78
1016.50	226.75
1016.78	226.80
1017.07	226.83
1017.36	226.81
1017.64	226.79
1017.93	226.80
1018.22	226.81
1018.50	226.80
1018.79	226.84
1019.08	226.78
1019.36	226.81
1019.65	226.81
1019.93	226.81
1020.22	226.82
1020.51	226.88
1020.79	226.87
1021.08	226.91
1021.36	226.47
1021.65	227.53
1021.94	226.90
1022.22	227.17
1022.51	226.69
1022.79	227.22
1023.08	226.98
1023.36	228.18
1023.65	227.16
>>>>>End Processed Spectral Data<<<<<
