SpectraSuite Data File
++++++++++++++++++++++++++++++++++++
Date: Fri Feb 01 16:54:50 EST 2013
User: group
Dark Spectrum Present: No
Reference Spectrum Present: No
Number of Sampled Component Spectra: 1
Spectrometers: USB2E7196
Integration Time (usec): 35000 (USB2E7196)
Spectra Averaged: 100 (USB2E7196)
Boxcar Smoothing: 10 (USB2E7196)
Correct for Electrical Dark: No (USB2E7196)
Strobe/Lamp Enabled: No (USB2E7196)
Correct for Detector Non-linearity: No (USB2E7196)
Correct for Stray Light: No (USB2E7196)
Number of Pixels in Processed Spectrum: 2048
>>>>>Begin Processed Spectral Data<<<<<
339.09	0.00
339.48	213.84
339.86	214.82
340.24	216.53
340.63	217.26
341.01	220.72
341.39	220.44
341.78	222.11
342.16	222.37
342.54	224.13
342.93	211.96
343.31	222.69
343.69	223.21
344.07	223.70
344.46	224.13
344.84	224.52
345.22	224.76
345.60	224.98
345.99	225.16
346.37	225.30
346.75	225.38
347.13	225.39
347.52	225.49
347.90	225.52
348.28	225.53
348.66	225.56
349.05	225.54
349.43	225.57
349.81	225.62
350.19	225.64
350.57	225.69
350.96	225.76
351.34	225.80
351.72	225.90
352.10	225.96
352.48	225.99
352.87	226.07
353.25	226.10
353.63	226.15
354.01	226.22
354.39	226.28
354.77	226.33
355.15	226.49
355.54	226.54
355.92	226.54
356.30	226.64
356.68	226.76
357.06	226.83
357.44	226.88
357.82	226.92
358.20	226.99
358.58	227.06
358.97	227.13
359.35	227.20
359.73	227.24
360.11	227.27
360.49	227.35
360.87	227.40
361.25	227.50
361.63	227.59
362.01	227.62
362.39	227.64
362.77	227.68
363.15	227.66
363.53	227.68
363.91	227.73
364.29	227.75
364.67	227.68
365.05	227.69
365.43	227.71
365.81	227.74
366.19	227.76
366.57	227.79
366.95	227.80
367.33	227.77
367.71	227.74
368.09	227.79
368.47	227.78
368.85	227.72
369.23	227.69
369.61	227.64
369.99	227.65
370.37	227.66
370.75	227.69
371.13	227.65
371.51	227.61
371.89	227.58
372.27	227.55
372.65	227.51
373.03	227.45
373.41	227.37
373.78	227.29
374.16	227.19
374.54	227.13
374.92	227.08
375.30	227.01
375.68	226.95
376.06	226.89
376.44	226.83
376.82	226.78
377.19	226.71
377.57	226.63
377.95	226.52
378.33	226.45
378.71	226.34
379.09	226.29
379.47	226.23
379.84	226.16
380.22	226.08
380.60	226.00
380.98	225.95
381.36	225.92
381.73	225.85
382.11	225.82
382.49	225.73
382.87	225.65
383.25	225.57
383.62	225.65
384.00	225.58
384.38	225.52
384.76	225.47
385.13	225.45
385.51	225.43
385.89	225.40
386.27	225.35
386.64	225.29
387.02	225.25
387.40	225.23
387.78	225.17
388.15	225.13
388.53	225.11
388.91	225.07
389.29	225.06
389.66	225.04
390.04	225.02
390.42	225.05
390.79	225.06
391.17	225.07
391.55	224.95
391.92	224.93
392.30	224.92
392.68	224.93
393.05	224.97
393.43	224.97
393.81	224.97
394.18	224.96
394.56	224.98
394.94	225.01
395.31	225.01
395.69	225.10
396.06	225.16
396.44	225.21
396.82	225.26
397.19	225.31
397.57	225.36
397.95	225.42
398.32	225.42
398.70	225.47
399.07	225.53
399.45	225.57
399.82	225.66
400.20	225.72
400.58	225.78
400.95	225.79
401.33	225.90
401.70	226.01
402.08	226.10
402.45	226.16
402.83	226.30
403.20	226.43
403.58	226.54
403.95	226.65
404.33	226.79
404.71	226.89
405.08	227.06
405.46	227.20
405.83	227.33
406.21	227.51
406.58	227.66
406.96	227.80
407.33	227.98
407.70	228.18
408.08	228.46
408.45	228.67
408.83	228.89
409.20	229.07
409.58	229.23
409.95	229.48
410.33	229.76
410.70	229.97
411.08	230.25
411.45	230.51
411.82	230.78
412.20	231.11
412.57	231.50
412.95	231.79
413.32	232.17
413.69	232.56
414.07	232.96
414.44	233.40
414.82	233.85
415.19	234.36
415.56	234.90
415.94	235.40
416.31	236.01
416.68	236.63
417.06	237.33
417.43	238.02
417.81	238.77
418.18	239.53
418.55	240.36
418.93	241.20
419.30	242.11
419.67	243.03
420.04	243.97
420.42	244.94
420.79	246.10
421.16	247.25
421.54	248.43
421.91	249.62
422.28	250.86
422.66	252.19
423.03	253.54
423.40	254.85
423.77	256.26
424.15	257.67
424.52	259.13
424.89	260.70
425.26	262.22
425.64	263.66
426.01	265.25
426.38	266.92
426.75	268.58
427.13	270.26
427.50	272.06
427.87	273.92
428.24	275.76
428.61	277.51
428.99	279.42
429.36	281.53
429.73	283.57
430.10	285.58
430.47	287.64
430.85	289.70
431.22	291.92
431.59	294.26
431.96	296.52
432.33	298.98
432.70	301.39
433.08	304.21
433.45	306.89
433.82	309.47
434.19	312.35
434.56	315.11
434.93	317.76
435.30	320.35
435.68	323.18
436.05	326.02
436.42	328.76
436.79	331.27
437.16	333.90
437.53	336.70
437.90	339.45
438.27	342.21
438.64	344.97
439.01	347.54
439.38	349.73
439.75	351.87
440.13	354.35
440.50	356.60
440.87	358.41
441.24	360.30
441.61	362.47
441.98	363.89
442.35	365.73
442.72	367.53
443.09	369.37
443.46	370.41
443.83	370.97
444.20	371.49
444.57	372.36
444.94	372.65
445.31	373.05
445.68	373.45
446.05	373.53
446.42	373.24
446.79	372.84
447.16	372.40
447.53	372.09
447.90	370.96
448.27	369.89
448.64	368.33
449.01	367.23
449.37	365.24
449.74	363.42
450.11	361.20
450.48	358.79
450.85	356.27
451.22	354.16
451.59	352.20
451.96	350.27
452.33	347.66
452.70	345.36
453.07	342.52
453.43	339.65
453.80	336.93
454.17	334.27
454.54	331.75
454.91	329.09
455.28	326.42
455.65	323.93
456.02	321.46
456.38	319.39
456.75	316.72
457.12	314.52
457.49	312.30
457.86	310.13
458.23	308.29
458.59	306.24
458.96	304.15
459.33	302.32
459.70	300.48
460.07	299.01
460.43	297.28
460.80	295.69
461.17	294.26
461.54	292.74
461.91	291.32
462.27	289.89
462.64	288.67
463.01	287.37
463.38	286.14
463.74	284.78
464.11	283.58
464.48	282.58
464.85	281.49
465.21	280.62
465.58	279.69
465.95	278.62
466.32	277.73
466.68	276.86
467.05	275.94
467.42	275.05
467.78	274.09
468.15	273.23
468.52	272.57
468.88	271.73
469.25	270.98
469.62	270.37
469.98	269.70
470.35	269.02
470.72	268.40
471.08	267.73
471.45	267.21
471.82	266.70
472.18	266.07
472.55	265.63
472.92	265.12
473.28	264.69
473.65	264.23
474.02	263.80
474.38	263.45
474.75	263.14
475.11	262.77
475.48	262.56
475.85	262.37
476.21	262.17
476.58	261.98
476.94	261.82
477.31	261.65
477.67	261.50
478.04	261.46
478.41	261.42
478.77	261.46
479.14	261.42
479.50	261.45
479.87	261.58
480.23	261.67
480.60	261.73
480.96	261.84
481.33	262.07
481.69	262.26
482.06	262.45
482.42	262.66
482.79	263.01
483.15	263.31
483.52	263.66
483.88	264.03
484.25	264.44
484.61	264.88
484.98	265.32
485.34	265.90
485.71	266.49
486.07	267.09
486.44	267.70
486.80	268.41
487.17	269.09
487.53	269.87
487.90	270.76
488.26	271.74
488.62	272.72
488.99	273.74
489.35	274.80
489.72	275.96
490.08	277.15
490.44	278.37
490.81	279.74
491.17	281.13
491.54	282.56
491.90	284.11
492.26	285.79
492.63	287.56
492.99	289.32
493.36	291.20
493.72	293.27
494.08	295.37
494.45	297.64
494.81	300.06
495.17	302.49
495.54	305.02
495.90	307.69
496.26	310.42
496.63	313.37
496.99	316.48
497.35	319.71
497.72	323.08
498.08	326.62
498.44	330.27
498.80	334.17
499.17	338.24
499.53	342.41
499.89	346.73
500.26	351.19
500.62	355.84
500.98	360.83
501.34	365.84
501.71	371.13
502.07	376.53
502.43	382.12
502.79	387.95
503.16	393.99
503.52	400.19
503.88	406.59
504.24	413.11
504.60	419.94
504.97	427.06
505.33	434.35
505.69	441.98
506.05	449.71
506.41	457.48
506.78	465.55
507.14	473.91
507.50	482.54
507.86	491.48
508.22	500.62
508.59	509.75
508.95	519.22
509.31	528.92
509.67	538.96
510.03	549.14
510.39	559.60
510.75	570.26
511.12	581.05
511.48	592.25
511.84	603.70
512.20	615.11
512.56	626.87
512.92	638.88
513.28	651.04
513.64	663.36
514.00	675.93
514.37	688.72
514.73	701.60
515.09	714.52
515.45	727.68
515.81	741.10
516.17	754.83
516.53	768.77
516.89	782.81
517.25	796.80
517.61	811.01
517.97	825.34
518.33	839.61
518.69	854.21
519.05	868.99
519.41	883.91
519.77	899.23
520.13	914.51
520.49	929.73
520.85	944.94
521.21	960.36
521.57	976.38
521.93	991.85
522.29	1007.90
522.65	1023.88
523.01	1039.78
523.37	1055.55
523.73	1071.53
524.09	1087.39
524.45	1103.32
524.81	1119.60
525.17	1136.11
525.53	1152.57
525.89	1169.26
526.25	1185.81
526.61	1201.97
526.97	1218.40
527.33	1234.57
527.68	1250.93
528.04	1267.14
528.40	1283.49
528.76	1300.33
529.12	1316.70
529.48	1333.32
529.84	1349.06
530.20	1365.39
530.56	1382.12
530.91	1399.34
531.27	1415.83
531.63	1432.01
531.99	1448.43
532.35	1464.09
532.71	1479.78
533.07	1495.78
533.42	1511.27
533.78	1527.08
534.14	1543.11
534.50	1558.30
534.86	1573.92
535.21	1588.76
535.57	1604.32
535.93	1619.51
536.29	1634.07
536.65	1648.70
537.00	1663.19
537.36	1678.33
537.72	1692.61
538.08	1706.70
538.44	1720.04
538.79	1733.71
539.15	1747.04
539.51	1760.49
539.87	1774.64
540.22	1788.07
540.58	1801.60
540.94	1814.64
541.29	1827.29
541.65	1839.63
542.01	1852.60
542.37	1864.62
542.72	1876.72
543.08	1888.35
543.44	1900.58
543.79	1911.68
544.15	1922.59
544.51	1933.89
544.87	1944.77
545.22	1955.44
545.58	1965.60
545.94	1975.30
546.29	1984.94
546.65	1994.87
547.01	2004.06
547.36	2012.66
547.72	2021.08
548.07	2028.85
548.43	2036.93
548.79	2044.77
549.14	2052.27
549.50	2059.39
549.86	2067.01
550.21	2074.30
550.57	2081.50
550.92	2088.15
551.28	2094.97
551.64	2101.89
551.99	2108.51
552.35	2114.64
552.70	2120.74
553.06	2126.75
553.41	2133.12
553.77	2139.10
554.13	2144.98
554.48	2151.16
554.84	2156.95
555.19	2162.15
555.55	2167.30
555.90	2171.76
556.26	2176.72
556.61	2181.40
556.97	2185.90
557.32	2190.02
557.68	2194.28
558.03	2198.44
558.39	2201.92
558.74	2206.63
559.10	2210.49
559.45	2214.20
559.81	2218.37
560.16	2222.31
560.52	2225.51
560.87	2228.97
561.23	2231.74
561.58	2234.75
561.94	2237.10
562.29	2239.19
562.64	2242.11
563.00	2244.80
563.35	2248.40
563.71	2251.56
564.06	2254.77
564.42	2257.69
564.77	2260.40
565.12	2262.90
565.48	2265.15
565.83	2267.15
566.19	2268.66
566.54	2269.74
566.89	2271.08
567.25	2271.95
567.60	2273.14
567.96	2275.13
568.31	2276.14
568.66	2277.42
569.02	2278.33
569.37	2278.96
569.72	2279.95
570.08	2280.25
570.43	2280.40
570.78	2280.17
571.14	2279.00
571.49	2277.91
571.84	2277.62
572.20	2276.65
572.55	2275.69
572.90	2274.02
573.26	2272.79
573.61	2271.17
573.96	2269.73
574.31	2266.82
574.67	2264.16
575.02	2260.83
575.37	2257.57
575.72	2253.99
576.08	2250.60
576.43	2247.14
576.78	2243.75
577.13	2240.72
577.49	2237.51
577.84	2234.27
578.19	2230.54
578.54	2227.04
578.90	2223.05
579.25	2217.75
579.60	2213.17
579.95	2208.15
580.30	2203.47
580.66	2198.65
581.01	2193.96
581.36	2189.20
581.71	2185.24
582.06	2180.74
582.42	2176.57
582.77	2171.54
583.12	2167.14
583.47	2162.85
583.82	2158.23
584.17	2153.20
584.53	2148.01
584.88	2142.75
585.23	2137.28
585.58	2131.95
585.93	2126.55
586.28	2121.76
586.63	2116.89
586.98	2111.78
587.34	2107.42
587.69	2102.60
588.04	2097.59
588.39	2092.07
588.74	2085.75
589.09	2079.74
589.44	2073.20
589.79	2067.12
590.14	2061.48
590.49	2055.03
590.84	2048.67
591.19	2042.76
591.54	2036.36
591.89	2029.21
592.25	2022.62
592.60	2015.46
592.95	2008.12
593.30	2000.96
593.65	1993.56
594.00	1986.52
594.35	1979.52
594.70	1971.55
595.05	1964.70
595.40	1957.46
595.75	1950.09
596.10	1944.12
596.45	1937.60
596.80	1931.58
597.15	1925.34
597.50	1918.52
597.85	1912.08
598.19	1905.53
598.54	1898.63
598.89	1892.11
599.24	1886.21
599.59	1879.73
599.94	1873.67
600.29	1867.51
600.64	1860.99
600.99	1853.90
601.34	1847.22
601.69	1840.37
602.04	1833.59
602.39	1826.19
602.74	1819.42
603.08	1812.80
603.43	1806.07
603.78	1798.71
604.13	1791.59
604.48	1784.31
604.83	1777.60
605.18	1770.96
605.53	1763.22
605.87	1755.19
606.22	1747.95
606.57	1740.14
606.92	1732.76
607.27	1725.66
607.62	1718.80
607.96	1711.71
608.31	1705.24
608.66	1697.68
609.01	1690.08
609.36	1682.72
609.70	1674.80
610.05	1666.82
610.40	1659.27
610.75	1650.99
611.10	1643.40
611.44	1634.89
611.79	1626.98
612.14	1618.37
612.49	1609.13
612.83	1600.85
613.18	1592.82
613.53	1584.83
613.88	1576.26
614.22	1568.03
614.57	1559.30
614.92	1551.23
615.27	1543.75
615.61	1535.37
615.96	1527.43
616.31	1519.76
616.65	1512.32
617.00	1504.85
617.35	1497.21
617.70	1488.93
618.04	1480.54
618.39	1472.37
618.74	1464.92
619.08	1456.53
619.43	1448.81
619.78	1441.93
620.12	1434.72
620.47	1427.25
620.82	1419.15
621.16	1411.72
621.51	1404.11
621.85	1396.48
622.20	1388.02
622.55	1379.62
622.89	1371.74
623.24	1364.07
623.59	1356.67
623.93	1349.19
624.28	1341.89
624.62	1334.46
624.97	1327.22
625.32	1320.37
625.66	1313.39
626.01	1306.33
626.35	1299.02
626.70	1291.38
627.04	1283.71
627.39	1275.88
627.73	1268.50
628.08	1261.56
628.43	1254.45
628.77	1247.14
629.12	1239.76
629.46	1232.65
629.81	1225.24
630.15	1218.02
630.50	1210.68
630.84	1202.61
631.19	1194.58
631.53	1187.13
631.88	1179.45
632.22	1171.82
632.57	1164.51
632.91	1156.99
633.26	1149.61
633.60	1142.25
633.95	1135.00
634.29	1127.95
634.64	1121.33
634.98	1113.95
635.32	1106.81
635.67	1100.10
636.01	1093.45
636.36	1086.72
636.70	1080.20
637.05	1073.68
637.39	1067.18
637.73	1060.73
638.08	1054.91
638.42	1048.93
638.77	1042.49
639.11	1036.06
639.45	1029.78
639.80	1023.16
640.14	1016.78
640.49	1010.22
640.83	1003.93
641.17	997.85
641.52	991.50
641.86	984.89
642.20	979.10
642.55	972.73
642.89	966.36
643.23	959.85
643.58	954.04
643.92	947.89
644.26	941.86
644.61	935.78
644.95	929.79
645.29	923.18
645.64	916.57
645.98	910.31
646.32	904.42
646.66	898.37
647.01	892.60
647.35	886.92
647.69	881.01
648.04	875.41
648.38	869.66
648.72	863.73
649.06	857.79
649.41	851.82
649.75	845.93
650.09	839.96
650.43	834.20
650.78	828.10
651.12	822.12
651.46	816.36
651.80	810.79
652.14	805.43
652.49	800.16
652.83	794.97
653.17	789.40
653.51	783.65
653.85	778.19
654.20	772.63
654.54	766.66
654.88	760.97
655.22	755.10
655.56	749.38
655.90	743.85
656.25	738.65
656.59	733.33
656.93	728.31
657.27	723.21
657.61	717.77
657.95	712.68
658.29	707.65
658.64	702.45
658.98	697.15
659.32	691.69
659.66	686.46
660.00	681.21
660.34	676.18
660.68	671.31
661.02	666.35
661.36	661.69
661.70	657.21
662.05	652.79
662.39	648.54
662.73	644.09
663.07	639.78
663.41	635.41
663.75	631.01
664.09	626.40
664.43	621.98
664.77	617.87
665.11	613.62
665.45	609.49
665.79	605.48
666.13	601.37
666.47	597.26
666.81	593.12
667.15	588.97
667.49	585.11
667.83	581.26
668.17	577.30
668.51	573.18
668.85	569.09
669.19	565.31
669.53	561.48
669.87	557.65
670.21	553.95
670.55	550.22
670.89	546.75
671.23	543.34
671.57	539.81
671.91	536.33
672.25	532.79
672.58	529.30
672.92	525.77
673.26	522.60
673.60	519.42
673.94	516.29
674.28	513.37
674.62	510.36
674.96	507.31
675.30	504.42
675.64	501.52
675.97	498.80
676.31	495.96
676.65	493.03
676.99	490.31
677.33	487.42
677.67	484.68
678.01	481.70
678.34	478.74
678.68	475.88
679.02	473.02
679.36	470.27
679.70	467.51
680.04	464.81
680.37	461.89
680.71	459.12
681.05	456.50
681.39	453.81
681.73	451.15
682.06	448.63
682.40	446.11
682.74	443.55
683.08	440.98
683.42	438.38
683.75	435.88
684.09	433.28
684.43	430.86
684.77	428.37
685.10	426.00
685.44	423.66
685.78	421.36
686.12	419.11
686.45	416.83
686.79	414.53
687.13	412.34
687.46	410.17
687.80	408.05
688.14	405.87
688.48	403.82
688.81	401.61
689.15	399.49
689.49	397.34
689.82	395.25
690.16	393.16
690.50	391.19
690.83	389.29
691.17	387.35
691.51	385.44
691.84	383.59
692.18	381.66
692.52	379.74
692.85	377.81
693.19	375.95
693.52	374.13
693.86	372.31
694.20	370.51
694.53	368.76
694.87	366.90
695.21	365.10
695.54	363.27
695.88	361.52
696.21	359.77
696.55	358.07
696.88	356.41
697.22	354.69
697.56	353.06
697.89	351.40
698.23	349.80
698.56	348.19
698.90	346.62
699.23	344.97
699.57	343.41
699.90	341.88
700.24	340.35
700.58	338.81
700.91	337.38
701.25	335.94
701.58	334.57
701.92	333.21
702.25	331.83
702.59	330.45
702.92	329.16
703.26	327.81
703.59	326.53
703.93	325.37
704.26	324.19
704.60	322.92
704.93	321.66
705.26	320.39
705.60	319.19
705.93	318.01
706.27	316.97
706.60	315.94
706.94	314.85
707.27	313.71
707.61	312.64
707.94	311.58
708.27	310.46
708.61	309.36
708.94	308.31
709.28	307.32
709.61	306.35
709.94	305.38
710.28	304.40
710.61	303.39
710.95	302.29
711.28	301.37
711.61	300.42
711.95	299.46
712.28	298.55
712.61	297.59
712.95	296.63
713.28	295.78
713.61	294.83
713.95	293.93
714.28	293.08
714.61	292.22
714.95	291.35
715.28	290.52
715.61	289.66
715.95	288.83
716.28	287.94
716.61	287.13
716.95	286.31
717.28	285.55
717.61	284.77
717.94	284.07
718.28	283.24
718.61	282.53
718.94	281.84
719.27	281.17
719.61	280.53
719.94	279.89
720.27	279.15
720.60	278.50
720.94	277.90
721.27	277.28
721.60	276.70
721.93	276.13
722.27	275.59
722.60	275.02
722.93	274.46
723.26	273.96
723.59	273.38
723.93	272.83
724.26	272.29
724.59	271.74
724.92	271.20
725.25	270.71
725.59	270.20
725.92	269.65
726.25	269.12
726.58	268.62
726.91	268.11
727.24	267.65
727.57	267.19
727.91	266.66
728.24	266.20
728.57	265.71
728.90	265.26
729.23	264.73
729.56	264.32
729.89	263.89
730.22	263.39
730.55	262.96
730.89	262.51
731.22	262.08
731.55	261.67
731.88	261.24
732.21	260.83
732.54	260.38
732.87	259.98
733.20	259.55
733.53	259.15
733.86	258.80
734.19	258.39
734.52	258.01
734.85	257.70
735.18	257.29
735.51	256.95
735.84	256.59
736.17	256.27
736.50	255.85
736.83	255.57
737.16	255.27
737.49	254.89
737.82	254.57
738.15	254.21
738.48	253.85
738.81	253.50
739.14	253.15
739.47	252.84
739.80	252.51
740.13	252.24
740.46	251.92
740.79	251.59
741.12	251.32
741.45	251.03
741.78	250.67
742.11	250.40
742.44	250.03
742.77	249.73
743.10	249.42
743.43	249.14
743.75	248.79
744.08	248.60
744.41	248.37
744.74	248.11
745.07	247.85
745.40	247.63
745.73	247.42
746.06	247.13
746.39	246.88
746.71	246.60
747.04	246.32
747.37	246.05
747.70	245.81
748.03	245.53
748.36	245.27
748.68	245.05
749.01	244.75
749.34	244.55
749.67	244.32
750.00	244.12
750.33	243.97
750.65	243.74
750.98	243.41
751.31	243.18
751.64	242.96
751.97	242.77
752.29	242.55
752.62	242.29
752.95	242.08
753.28	241.87
753.60	241.70
753.93	241.51
754.26	241.34
754.59	241.09
754.91	240.87
755.24	240.67
755.57	240.50
755.90	240.32
756.22	240.12
756.55	239.92
756.88	239.72
757.20	239.49
757.53	239.32
757.86	239.15
758.19	239.00
758.51	238.81
758.84	238.61
759.17	238.43
759.49	238.30
759.82	238.21
760.15	238.05
760.47	237.91
760.80	237.73
761.13	237.59
761.45	237.47
761.78	237.36
762.11	237.22
762.43	237.07
762.76	236.95
763.08	236.83
763.41	236.69
763.74	236.54
764.06	236.38
764.39	236.20
764.71	236.06
765.04	235.89
765.37	235.76
765.69	235.62
766.02	235.49
766.34	235.34
766.67	235.17
767.00	235.10
767.32	235.04
767.65	235.02
767.97	234.88
768.30	234.74
768.62	234.64
768.95	234.53
769.27	234.40
769.60	234.31
769.92	234.20
770.25	234.10
770.57	234.00
770.90	233.88
771.22	233.81
771.55	233.72
771.87	233.66
772.20	233.57
772.52	233.54
772.85	233.54
773.17	233.45
773.50	233.38
773.82	233.27
774.15	233.09
774.47	232.94
774.80	232.84
775.12	232.75
775.45	232.66
775.77	232.57
776.09	232.48
776.42	232.39
776.74	232.31
777.07	232.23
777.39	232.19
777.72	232.14
778.04	232.06
778.36	231.95
778.69	231.88
779.01	231.80
779.33	231.66
779.66	231.52
779.98	231.43
780.31	231.34
780.63	231.30
780.95	231.28
781.28	231.21
781.60	231.16
781.92	231.12
782.25	231.05
782.57	231.01
782.89	230.95
783.22	230.89
783.54	230.83
783.86	230.78
784.19	230.68
784.51	230.61
784.83	230.55
785.16	230.55
785.48	230.50
785.80	230.44
786.12	230.42
786.45	230.36
786.77	230.35
787.09	230.26
787.42	230.15
787.74	230.12
788.06	230.09
788.38	230.03
788.71	229.95
789.03	229.91
789.35	229.87
789.67	229.82
789.99	229.77
790.32	229.75
790.64	229.72
790.96	229.77
791.28	229.77
791.61	229.70
791.93	229.67
792.25	229.61
792.57	229.66
792.89	229.57
793.21	229.54
793.54	229.49
793.86	229.41
794.18	229.42
794.50	229.35
794.82	229.28
795.14	229.27
795.47	229.28
795.79	229.25
796.11	229.20
796.43	229.18
796.75	229.16
797.07	229.09
797.39	229.04
797.71	228.93
798.04	228.86
798.36	228.84
798.68	228.77
799.00	228.77
799.32	228.69
799.64	228.68
799.96	228.66
800.28	228.62
800.60	228.64
800.92	228.61
801.24	228.56
801.56	228.55
801.89	228.49
802.21	228.46
802.53	228.43
802.85	228.42
803.17	228.42
803.49	228.37
803.81	228.36
804.13	228.33
804.45	228.28
804.77	228.24
805.09	228.23
805.41	228.20
805.73	228.15
806.05	228.08
806.37	228.09
806.69	228.06
807.01	228.06
807.33	228.02
807.65	227.97
807.97	228.03
808.28	228.03
808.60	228.03
808.92	228.03
809.24	228.05
809.56	228.03
809.88	227.95
810.20	227.93
810.52	227.92
810.84	227.87
811.16	227.86
811.48	227.85
811.80	227.86
812.12	227.80
812.43	227.83
812.75	227.82
813.07	227.74
813.39	227.73
813.71	227.68
814.03	227.69
814.35	227.67
814.67	227.57
814.98	227.53
815.30	227.50
815.62	227.44
815.94	227.34
816.26	227.31
816.58	227.28
816.89	227.25
817.21	227.21
817.53	227.21
817.85	227.17
818.17	227.14
818.48	227.05
818.80	227.08
819.12	227.04
819.44	227.00
819.76	226.99
820.07	226.93
820.39	226.91
820.71	226.89
821.03	226.88
821.34	226.86
821.66	226.85
821.98	226.83
822.30	226.80
822.61	226.85
822.93	226.79
823.25	226.79
823.57	226.80
823.88	226.85
824.20	226.83
824.52	226.85
824.83	226.83
825.15	226.83
825.47	226.81
825.79	226.77
826.10	226.74
826.42	226.71
826.74	226.70
827.05	226.69
827.37	226.64
827.69	226.61
828.00	226.63
828.32	226.58
828.64	226.57
828.95	226.61
829.27	226.54
829.58	226.54
829.90	226.54
830.22	226.49
830.53	226.43
830.85	226.40
831.17	226.35
831.48	226.33
831.80	226.33
832.11	226.32
832.43	226.30
832.75	226.34
833.06	226.39
833.38	226.38
833.69	226.36
834.01	226.37
834.32	226.34
834.64	226.31
834.96	226.31
835.27	226.27
835.59	226.24
835.90	226.23
836.22	226.22
836.53	226.18
836.85	226.18
837.16	226.27
837.48	226.27
837.79	226.28
838.11	226.29
838.42	226.27
838.74	226.28
839.05	226.30
839.37	226.29
839.68	226.27
840.00	226.26
840.31	226.27
840.63	226.27
840.94	226.29
841.26	226.30
841.57	226.30
841.88	226.33
842.20	226.30
842.51	226.34
842.83	226.32
843.14	226.43
843.46	226.42
843.77	226.34
844.08	226.36
844.40	226.37
844.71	226.37
845.03	226.37
845.34	226.34
845.65	226.32
845.97	226.30
846.28	226.30
846.60	226.32
846.91	226.31
847.22	226.29
847.54	226.30
847.85	226.29
848.16	226.29
848.48	226.27
848.79	226.31
849.10	226.31
849.42	226.35
849.73	226.24
850.04	226.26
850.36	226.23
850.67	226.21
850.98	226.21
851.30	226.20
851.61	226.16
851.92	226.17
852.23	226.25
852.55	226.26
852.86	226.27
853.17	226.29
853.49	226.33
853.80	226.37
854.11	226.36
854.42	226.40
854.74	226.39
855.05	226.39
855.36	226.33
855.67	226.31
855.99	226.27
856.30	226.35
856.61	226.36
856.92	226.36
857.23	226.34
857.55	226.30
857.86	226.29
858.17	226.32
858.48	226.29
858.79	226.22
859.11	226.22
859.42	226.18
859.73	226.12
860.04	226.07
860.35	226.01
860.66	225.98
860.98	225.94
861.29	225.96
861.60	225.96
861.91	225.95
862.22	225.92
862.53	225.92
862.84	225.84
863.16	225.83
863.47	225.81
863.78	225.81
864.09	225.82
864.40	225.82
864.71	225.80
865.02	225.81
865.33	225.78
865.64	225.72
865.95	225.70
866.27	225.79
866.58	225.79
866.89	225.82
867.20	225.80
867.51	225.74
867.82	225.67
868.13	225.67
868.44	225.65
868.75	225.67
869.06	225.64
869.37	225.63
869.68	225.59
869.99	225.59
870.30	225.58
870.61	225.61
870.92	225.57
871.23	225.55
871.54	225.53
871.85	225.53
872.16	225.54
872.47	225.53
872.78	225.42
873.09	225.42
873.40	225.39
873.71	225.39
874.02	225.42
874.33	225.43
874.64	225.40
874.95	225.45
875.26	225.43
875.56	225.41
875.87	225.43
876.18	225.44
876.49	225.57
876.80	225.55
877.11	225.54
877.42	225.58
877.73	225.59
878.04	225.60
878.35	225.60
878.66	225.58
878.96	225.59
879.27	225.59
879.58	225.54
879.89	225.56
880.20	225.58
880.51	225.58
880.82	225.59
881.12	225.60
881.43	225.57
881.74	225.56
882.05	225.59
882.36	225.59
882.67	225.60
882.97	225.48
883.28	225.49
883.59	225.49
883.90	225.47
884.21	225.51
884.51	225.56
884.82	225.58
885.13	225.62
885.44	225.64
885.74	225.66
886.05	225.65
886.36	225.64
886.67	225.61
886.98	225.66
887.28	225.66
887.59	225.67
887.90	225.68
888.20	225.67
888.51	225.66
888.82	225.64
889.13	225.60
889.43	225.68
889.74	225.69
890.05	225.68
890.35	225.67
890.66	225.64
890.97	225.60
891.28	225.58
891.58	225.57
891.89	225.55
892.20	225.52
892.50	225.53
892.81	225.55
893.12	225.54
893.42	225.47
893.73	225.45
894.04	225.47
894.34	225.47
894.65	225.49
894.95	225.46
895.26	225.46
895.57	225.50
895.87	225.40
896.18	225.41
896.48	225.40
896.79	225.37
897.10	225.38
897.40	225.35
897.71	225.33
898.01	225.32
898.32	225.32
898.63	225.34
898.93	225.37
899.24	225.37
899.54	225.36
899.85	225.36
900.15	225.38
900.46	225.35
900.76	225.35
901.07	225.32
901.38	225.33
901.68	225.35
901.99	225.30
902.29	225.30
902.60	225.27
902.90	225.24
903.21	225.27
903.51	225.26
903.82	225.27
904.12	225.28
904.43	225.27
904.73	225.28
905.03	225.24
905.34	225.31
905.64	225.26
905.95	225.25
906.25	225.26
906.56	225.26
906.86	225.27
907.17	225.29
907.47	225.30
907.77	225.30
908.08	225.30
908.38	225.30
908.69	225.31
908.99	225.32
909.30	225.32
909.60	225.32
909.90	225.35
910.21	225.33
910.51	225.31
910.81	225.29
911.12	225.30
911.42	225.33
911.73	225.22
912.03	225.26
912.33	225.29
912.64	225.28
912.94	225.26
913.24	225.24
913.55	225.21
913.85	225.21
914.15	225.22
914.46	225.21
914.76	225.20
915.06	225.20
915.37	225.19
915.67	225.21
915.97	225.23
916.27	225.20
916.58	225.20
916.88	225.20
917.18	225.23
917.49	225.31
917.79	225.33
918.09	225.38
918.39	225.39
918.70	225.37
919.00	225.37
919.30	225.41
919.60	225.42
919.91	225.39
920.21	225.37
920.51	225.35
920.81	225.38
921.12	225.42
921.42	225.42
921.72	225.41
922.02	225.39
922.32	225.40
922.63	225.39
922.93	225.44
923.23	225.47
923.53	225.46
923.83	225.40
924.13	225.39
924.44	225.38
924.74	225.38
925.04	225.42
925.34	225.43
925.64	225.38
925.94	225.40
926.24	225.48
926.55	225.47
926.85	225.48
927.15	225.46
927.45	225.48
927.75	225.47
928.05	225.49
928.35	225.49
928.65	225.49
928.95	225.50
929.26	225.45
929.56	225.45
929.86	225.45
930.16	225.41
930.46	225.39
930.76	225.40
931.06	225.37
931.36	225.30
931.66	225.31
931.96	225.33
932.26	225.30
932.56	225.24
932.86	225.23
933.16	225.23
933.46	225.20
933.76	225.14
934.06	225.18
934.36	225.22
934.66	225.23
934.96	225.23
935.26	225.22
935.56	225.24
935.86	225.18
936.16	225.16
936.46	225.18
936.76	225.17
937.06	225.14
937.36	225.15
937.66	225.18
937.96	225.16
938.26	225.15
938.56	225.15
938.86	225.17
939.16	225.23
939.46	225.25
939.76	225.29
940.06	225.29
940.35	225.26
940.65	225.20
940.95	225.18
941.25	225.14
941.55	225.10
941.85	225.14
942.15	225.17
942.45	225.19
942.75	225.18
943.04	225.21
943.34	225.19
943.64	225.16
943.94	225.15
944.24	225.15
944.54	225.18
944.84	225.18
945.13	225.14
945.43	225.08
945.73	225.07
946.03	225.03
946.33	225.02
946.62	225.00
946.92	225.02
947.22	225.06
947.52	225.10
947.82	225.16
948.11	225.12
948.41	225.11
948.71	225.11
949.01	225.15
949.31	225.13
949.60	225.17
949.90	225.24
950.20	225.22
950.50	225.23
950.79	225.22
951.09	225.21
951.39	225.26
951.69	225.25
951.98	225.27
952.28	225.32
952.58	225.34
952.87	225.37
953.17	225.37
953.47	225.37
953.76	225.37
954.06	225.32
954.36	225.31
954.66	225.33
954.95	225.37
955.25	225.36
955.55	225.37
955.84	225.34
956.14	225.33
956.44	225.35
956.73	225.34
957.03	225.33
957.32	225.34
957.62	225.32
957.92	225.39
958.21	225.40
958.51	225.50
958.81	225.52
959.10	225.52
959.40	225.53
959.69	225.53
959.99	225.52
960.29	225.54
960.58	225.56
960.88	225.58
961.17	225.55
961.47	225.52
961.76	225.51
962.06	225.54
962.36	225.50
962.65	225.51
962.95	225.54
963.24	225.53
963.54	225.54
963.83	225.54
964.13	225.51
964.42	225.46
964.72	225.36
965.01	225.36
965.31	225.31
965.60	225.30
965.90	225.33
966.19	225.31
966.49	225.28
966.78	225.25
967.08	225.23
967.37	225.22
967.67	225.23
967.96	225.26
968.26	225.24
968.55	225.25
968.85	225.21
969.14	225.22
969.43	225.22
969.73	225.22
970.02	225.23
970.32	225.20
970.61	225.19
970.91	225.16
971.20	225.13
971.49	225.13
971.79	225.16
972.08	225.11
972.38	225.08
972.67	225.12
972.96	225.13
973.26	225.10
973.55	225.14
973.85	225.13
974.14	225.14
974.43	225.12
974.73	225.10
975.02	225.09
975.31	225.06
975.61	225.06
975.90	225.05
976.19	225.03
976.49	225.05
976.78	225.07
977.07	225.07
977.37	225.07
977.66	225.08
977.95	225.07
978.24	225.06
978.54	225.12
978.83	225.11
979.12	225.10
979.42	225.13
979.71	225.09
980.00	225.08
980.29	225.04
980.59	225.03
980.88	225.07
981.17	225.10
981.46	225.09
981.76	225.10
982.05	225.13
982.34	225.14
982.63	225.12
982.93	225.14
983.22	225.16
983.51	225.17
983.80	225.21
984.09	225.21
984.39	225.18
984.68	225.15
984.97	225.16
985.26	225.16
985.55	225.17
985.85	225.16
986.14	225.17
986.43	225.20
986.72	225.22
987.01	225.21
987.30	225.20
987.59	225.20
987.89	225.20
988.18	225.17
988.47	225.20
988.76	225.21
989.05	225.18
989.34	225.15
989.63	225.21
989.92	225.17
990.22	225.17
990.51	225.20
990.80	225.19
991.09	225.21
991.38	225.20
991.67	225.16
991.96	225.16
992.25	225.16
992.54	225.14
992.83	225.14
993.12	225.11
993.41	225.13
993.70	225.18
993.99	225.21
994.28	225.23
994.58	225.24
994.87	225.24
995.16	225.25
995.45	225.22
995.74	225.18
996.03	225.20
996.32	225.23
996.61	225.27
996.90	225.30
997.19	225.27
997.48	225.31
997.77	225.31
998.06	225.33
998.34	225.35
998.63	225.35
998.92	225.39
999.21	225.40
999.50	225.39
999.79	225.34
1000.08	225.35
1000.37	225.30
1000.66	225.28
1000.95	225.30
1001.24	225.32
1001.53	225.32
1001.82	225.30
1002.11	225.30
1002.40	225.25
1002.68	225.24
1002.97	225.29
1003.26	225.29
1003.55	225.25
1003.84	225.26
1004.13	225.27
1004.42	225.27
1004.71	225.24
1004.99	225.18
1005.28	225.19
1005.57	225.19
1005.86	225.19
1006.15	225.15
1006.44	225.15
1006.72	225.14
1007.01	225.13
1007.30	225.11
1007.59	225.14
1007.88	225.15
1008.17	225.15
1008.45	225.15
1008.74	225.10
1009.03	225.05
1009.32	225.02
1009.60	225.00
1009.89	225.00
1010.18	224.97
1010.47	224.94
1010.76	224.97
1011.04	224.98
1011.33	224.98
1011.62	224.96
1011.91	224.97
1012.19	224.98
1012.48	225.00
1012.77	225.04
1013.05	225.10
1013.34	225.10
1013.63	225.09
1013.92	225.09
1014.20	225.08
1014.49	225.08
1014.78	225.09
1015.06	225.08
1015.35	225.11
1015.64	225.15
1015.92	225.17
1016.21	225.16
1016.50	225.18
1016.78	225.18
1017.07	225.20
1017.36	225.19
1017.64	225.19
1017.93	225.20
1018.22	225.20
1018.50	225.20
1018.79	225.18
1019.08	225.12
1019.36	225.12
1019.65	225.13
1019.93	225.18
1020.22	225.23
1020.51	225.30
1020.79	225.30
1021.08	225.02
1021.36	225.11
1021.65	225.29
1021.94	225.22
1022.22	224.87
1022.51	225.52
1022.79	226.08
1023.08	225.80
1023.36	226.70
1023.65	225.08
>>>>>End Processed Spectral Data<<<<<
