SpectraSuite Data File
++++++++++++++++++++++++++++++++++++
Date: Fri Feb 01 15:38:54 EST 2013
User: group
Dark Spectrum Present: No
Reference Spectrum Present: No
Number of Sampled Component Spectra: 1
Spectrometers: USB2E7196
Integration Time (usec): 35000 (USB2E7196)
Spectra Averaged: 100 (USB2E7196)
Boxcar Smoothing: 10 (USB2E7196)
Correct for Electrical Dark: No (USB2E7196)
Strobe/Lamp Enabled: No (USB2E7196)
Correct for Detector Non-linearity: No (USB2E7196)
Correct for Stray Light: No (USB2E7196)
Number of Pixels in Processed Spectrum: 2048
>>>>>Begin Processed Spectral Data<<<<<
339.09	0.00
339.48	215.69
339.86	217.01
340.24	217.66
340.63	219.45
341.01	222.25
341.39	222.13
341.78	223.71
342.16	225.12
342.54	224.63
342.93	213.48
343.31	224.26
343.69	224.79
344.07	225.23
344.46	225.66
344.84	226.02
345.22	226.24
345.60	226.48
345.99	226.67
346.37	226.77
346.75	226.86
347.13	226.93
347.52	227.01
347.90	227.08
348.28	227.10
348.66	227.12
349.05	227.10
349.43	227.18
349.81	227.23
350.19	227.26
350.57	227.35
350.96	227.42
351.34	227.51
351.72	227.56
352.10	227.65
352.48	227.74
352.87	227.81
353.25	227.86
353.63	227.93
354.01	227.96
354.39	228.03
354.77	228.12
355.15	228.20
355.54	228.23
355.92	228.29
356.30	228.36
356.68	228.49
357.06	228.58
357.44	228.57
357.82	228.62
358.20	228.71
358.58	228.75
358.97	228.83
359.35	228.88
359.73	228.96
360.11	228.97
360.49	229.00
360.87	229.02
361.25	229.11
361.63	229.18
362.01	229.23
362.39	229.25
362.77	229.30
363.15	229.33
363.53	229.35
363.91	229.35
364.29	229.36
364.67	229.27
365.05	229.24
365.43	229.27
365.81	229.32
366.19	229.32
366.57	229.32
366.95	229.30
367.33	229.27
367.71	229.25
368.09	229.26
368.47	229.21
368.85	229.19
369.23	229.16
369.61	229.04
369.99	229.03
370.37	229.03
370.75	229.05
371.13	228.98
371.51	228.91
371.89	228.90
372.27	228.85
372.65	228.79
373.03	228.77
373.41	228.74
373.78	228.63
374.16	228.53
374.54	228.44
374.92	228.34
375.30	228.26
375.68	228.18
376.06	228.13
376.44	228.12
376.82	228.04
377.19	227.94
377.57	227.92
377.95	227.81
378.33	227.72
378.71	227.60
379.09	227.53
379.47	227.48
379.84	227.37
380.22	227.31
380.60	227.25
380.98	227.17
381.36	227.07
381.73	226.99
382.11	226.96
382.49	226.90
382.87	226.87
383.25	226.79
383.62	226.83
384.00	226.75
384.38	226.64
384.76	226.62
385.13	226.62
385.51	226.55
385.89	226.47
386.27	226.42
386.64	226.37
387.02	226.31
387.40	226.24
387.78	226.23
388.15	226.19
388.53	226.16
388.91	226.11
389.29	226.09
389.66	226.10
390.04	226.05
390.42	226.04
390.79	226.00
391.17	226.00
391.55	225.89
391.92	225.87
392.30	225.89
392.68	225.87
393.05	225.85
393.43	225.87
393.81	225.91
394.18	225.90
394.56	225.94
394.94	226.00
395.31	226.05
395.69	226.07
396.06	226.13
396.44	226.16
396.82	226.22
397.19	226.32
397.57	226.33
397.95	226.39
398.32	226.43
398.70	226.52
399.07	226.60
399.45	226.68
399.82	226.78
400.20	226.87
400.58	226.97
400.95	227.02
401.33	227.08
401.70	227.25
402.08	227.36
402.45	227.43
402.83	227.54
403.20	227.60
403.58	227.72
403.95	227.84
404.33	228.00
404.71	228.12
405.08	228.26
405.46	228.42
405.83	228.54
406.21	228.72
406.58	228.88
406.96	229.07
407.33	229.23
407.70	229.43
408.08	229.69
408.45	229.87
408.83	230.11
409.20	230.37
409.58	230.56
409.95	230.83
410.33	231.14
410.70	231.38
411.08	231.70
411.45	231.99
411.82	232.29
412.20	232.59
412.57	232.98
412.95	233.30
413.32	233.72
413.69	234.18
414.07	234.60
414.44	235.01
414.82	235.48
415.19	236.05
415.56	236.58
415.94	237.12
416.31	237.77
416.68	238.39
417.06	239.09
417.43	239.77
417.81	240.52
418.18	241.30
418.55	242.16
418.93	243.04
419.30	243.94
419.67	244.88
420.04	245.89
420.42	246.96
420.79	248.14
421.16	249.28
421.54	250.48
421.91	251.72
422.28	253.04
422.66	254.35
423.03	255.67
423.40	257.03
423.77	258.42
424.15	259.85
424.52	261.39
424.89	263.03
425.26	264.60
425.64	266.07
426.01	267.65
426.38	269.30
426.75	270.96
427.13	272.73
427.50	274.57
427.87	276.43
428.24	278.28
428.61	280.05
428.99	282.03
429.36	284.11
429.73	286.18
430.10	288.19
430.47	290.29
430.85	292.40
431.22	294.63
431.59	297.07
431.96	299.33
432.33	301.80
432.70	304.18
433.08	306.95
433.45	309.58
433.82	312.23
434.19	315.14
434.56	318.00
434.93	320.66
435.30	323.27
435.68	326.18
436.05	328.97
436.42	331.73
436.79	334.24
437.16	336.98
437.53	339.78
437.90	342.61
438.27	345.35
438.64	348.22
439.01	350.86
439.38	353.06
439.75	355.19
440.13	357.66
440.50	359.95
440.87	361.80
441.24	363.75
441.61	365.87
441.98	367.33
442.35	369.14
442.72	370.99
443.09	372.77
443.46	373.76
443.83	374.35
444.20	374.90
444.57	375.70
444.94	375.93
445.31	376.30
445.68	376.64
446.05	376.73
446.42	376.30
446.79	375.86
447.16	375.41
447.53	375.09
447.90	373.95
448.27	372.82
448.64	371.25
449.01	370.14
449.37	368.18
449.74	366.28
450.11	363.97
450.48	361.45
450.85	358.95
451.22	356.77
451.59	354.76
451.96	352.79
452.33	350.19
452.70	347.84
453.07	344.94
453.43	342.03
453.80	339.22
454.17	336.55
454.54	333.98
454.91	331.26
455.28	328.60
455.65	326.09
456.02	323.65
456.38	321.47
456.75	318.77
457.12	316.49
457.49	314.31
457.86	312.14
458.23	310.29
458.59	308.25
458.96	306.18
459.33	304.30
459.70	302.44
460.07	300.93
460.43	299.19
460.80	297.60
461.17	296.18
461.54	294.71
461.91	293.29
462.27	291.82
462.64	290.56
463.01	289.23
463.38	287.96
463.74	286.59
464.11	285.45
464.48	284.38
464.85	283.26
465.21	282.36
465.58	281.48
465.95	280.41
466.32	279.49
466.68	278.59
467.05	277.70
467.42	276.82
467.78	275.89
468.15	275.06
468.52	274.41
468.88	273.53
469.25	272.77
469.62	272.15
469.98	271.51
470.35	270.89
470.72	270.27
471.08	269.61
471.45	269.10
471.82	268.55
472.18	267.98
472.55	267.57
472.92	267.07
473.28	266.59
473.65	266.15
474.02	265.71
474.38	265.33
474.75	265.01
475.11	264.68
475.48	264.44
475.85	264.22
476.21	263.99
476.58	263.80
476.94	263.64
477.31	263.49
477.67	263.34
478.04	263.23
478.41	263.19
478.77	263.22
479.14	263.10
479.50	263.12
479.87	263.24
480.23	263.31
480.60	263.40
480.96	263.50
481.33	263.68
481.69	263.89
482.06	264.09
482.42	264.34
482.79	264.61
483.15	264.91
483.52	265.29
483.88	265.64
484.25	266.04
484.61	266.45
484.98	266.90
485.34	267.45
485.71	268.05
486.07	268.67
486.44	269.22
486.80	269.94
487.17	270.64
487.53	271.43
487.90	272.29
488.26	273.21
488.62	274.18
488.99	275.17
489.35	276.19
489.72	277.31
490.08	278.48
490.44	279.68
490.81	281.01
491.17	282.32
491.54	283.76
491.90	285.28
492.26	286.94
492.63	288.67
492.99	290.45
493.36	292.30
493.72	294.28
494.08	296.38
494.45	298.64
494.81	301.01
495.17	303.43
495.54	306.00
495.90	308.67
496.26	311.49
496.63	314.46
496.99	317.58
497.35	320.86
497.72	324.23
498.08	327.74
498.44	331.37
498.80	335.32
499.17	339.40
499.53	343.59
499.89	347.96
500.26	352.44
500.62	357.09
500.98	362.11
501.34	367.19
501.71	372.52
502.07	377.94
502.43	383.58
502.79	389.37
503.16	395.45
503.52	401.76
503.88	408.17
504.24	414.79
504.60	421.70
504.97	428.79
505.33	436.07
505.69	443.79
506.05	451.59
506.41	459.49
506.78	467.59
507.14	476.00
507.50	484.68
507.86	493.67
508.22	502.87
508.59	512.06
508.95	521.66
509.31	531.49
509.67	541.58
510.03	551.89
510.39	562.45
510.75	573.24
511.12	584.14
511.48	595.45
511.84	606.82
512.20	618.29
512.56	630.21
512.92	642.45
513.28	654.76
513.64	667.27
514.00	679.91
514.37	692.88
514.73	705.96
515.09	719.04
515.45	732.42
515.81	745.97
516.17	760.01
516.53	774.09
516.89	788.23
517.25	802.40
517.61	816.85
517.97	831.33
518.33	845.88
518.69	860.71
519.05	875.67
519.41	890.85
519.77	906.42
520.13	921.83
520.49	937.19
520.85	952.68
521.21	968.37
521.57	984.60
521.93	1000.43
522.29	1016.96
522.65	1033.20
523.01	1049.35
523.37	1065.53
523.73	1081.72
524.09	1097.88
524.45	1114.31
524.81	1131.03
525.17	1147.95
525.53	1164.87
525.89	1181.68
526.25	1198.43
526.61	1214.87
526.97	1231.76
527.33	1248.34
527.68	1265.00
528.04	1281.53
528.40	1298.12
528.76	1315.14
529.12	1331.81
529.48	1348.68
529.84	1364.61
530.20	1381.29
530.56	1398.51
530.91	1415.84
531.27	1432.60
531.63	1449.14
531.99	1465.76
532.35	1481.69
532.71	1497.45
533.07	1513.78
533.42	1529.57
533.78	1545.69
534.14	1561.99
534.50	1577.34
534.86	1593.10
535.21	1608.37
535.57	1624.40
535.93	1639.84
536.29	1654.61
536.65	1669.72
537.00	1684.54
537.36	1699.80
537.72	1714.40
538.08	1728.75
538.44	1742.55
538.79	1756.27
539.15	1769.90
539.51	1783.51
539.87	1797.92
540.22	1811.77
540.58	1825.35
540.94	1838.84
541.29	1851.75
541.65	1864.48
542.01	1877.71
542.37	1890.14
542.72	1902.61
543.08	1914.32
543.44	1926.89
543.79	1938.24
544.15	1949.19
544.51	1960.72
544.87	1971.79
545.22	1982.44
545.58	1992.53
545.94	2002.38
546.29	2012.50
546.65	2022.36
547.01	2031.65
547.36	2040.39
547.72	2048.85
548.07	2056.81
548.43	2064.93
548.79	2073.02
549.14	2080.44
549.50	2087.90
549.86	2095.57
550.21	2102.82
550.57	2109.89
550.92	2116.25
551.28	2123.28
551.64	2130.40
551.99	2136.93
552.35	2142.94
552.70	2149.05
553.06	2155.06
553.41	2161.32
553.77	2167.20
554.13	2173.27
554.48	2179.46
554.84	2184.80
555.19	2190.16
555.55	2195.40
555.90	2199.96
556.26	2204.74
556.61	2209.55
556.97	2213.63
557.32	2217.78
557.68	2221.96
558.03	2226.43
558.39	2230.35
558.74	2235.10
559.10	2238.99
559.45	2242.76
559.81	2247.07
560.16	2251.12
560.52	2254.46
560.87	2257.90
561.23	2260.69
561.58	2263.62
561.94	2266.19
562.29	2268.64
562.64	2271.18
563.00	2273.71
563.35	2277.13
563.71	2280.35
564.06	2283.48
564.42	2286.34
564.77	2288.78
565.12	2291.04
565.48	2292.84
565.83	2294.72
566.19	2295.87
566.54	2296.73
566.89	2297.77
567.25	2298.47
567.60	2299.67
567.96	2301.40
568.31	2302.25
568.66	2303.26
569.02	2303.90
569.37	2304.20
569.72	2305.10
570.08	2305.12
570.43	2305.14
570.78	2304.45
571.14	2302.88
571.49	2301.71
571.84	2301.38
572.20	2300.19
572.55	2299.07
572.90	2297.67
573.26	2296.15
573.61	2294.43
573.96	2292.59
574.31	2289.50
574.67	2286.46
575.02	2282.98
575.37	2279.47
575.72	2275.66
576.08	2272.44
576.43	2269.07
576.78	2265.27
577.13	2262.08
577.49	2259.20
577.84	2255.62
578.19	2251.98
578.54	2248.37
578.90	2243.92
579.25	2238.25
579.60	2233.27
579.95	2228.20
580.30	2223.06
580.66	2217.81
581.01	2212.84
581.36	2207.83
581.71	2203.58
582.06	2199.05
582.42	2194.36
582.77	2189.02
583.12	2184.39
583.47	2179.48
583.82	2174.36
584.17	2169.18
584.53	2163.59
584.88	2157.82
585.23	2152.05
585.58	2146.52
585.93	2140.89
586.28	2136.14
586.63	2131.14
586.98	2126.06
587.34	2121.24
587.69	2116.23
588.04	2110.88
588.39	2105.29
588.74	2098.93
589.09	2092.82
589.44	2085.94
589.79	2080.02
590.14	2074.54
590.49	2067.96
590.84	2061.56
591.19	2055.59
591.54	2049.13
591.89	2041.52
592.25	2034.64
592.60	2027.43
592.95	2019.75
593.30	2012.45
593.65	2004.91
594.00	1997.82
594.35	1990.59
594.70	1982.52
595.05	1975.22
595.40	1968.02
595.75	1960.42
596.10	1954.06
596.45	1947.37
596.80	1941.38
597.15	1934.58
597.50	1927.26
597.85	1920.93
598.19	1914.20
598.54	1907.09
598.89	1900.45
599.24	1894.70
599.59	1887.99
599.94	1881.84
600.29	1875.39
600.64	1868.75
600.99	1861.10
601.34	1854.25
601.69	1847.31
602.04	1840.57
602.39	1833.27
602.74	1826.46
603.08	1819.68
603.43	1812.93
603.78	1805.60
604.13	1798.31
604.48	1790.98
604.83	1784.16
605.18	1776.93
605.53	1768.95
605.87	1760.82
606.22	1753.46
606.57	1745.47
606.92	1738.28
607.27	1730.96
607.62	1724.12
607.96	1716.87
608.31	1710.22
608.66	1702.57
609.01	1694.92
609.36	1687.27
609.70	1679.27
610.05	1671.13
610.40	1663.31
610.75	1654.93
611.10	1647.23
611.44	1638.79
611.79	1630.88
612.14	1622.12
612.49	1612.99
612.83	1604.59
613.18	1596.51
613.53	1588.35
613.88	1579.75
614.22	1571.30
614.57	1562.64
614.92	1554.58
615.27	1546.95
615.61	1538.78
615.96	1530.78
616.31	1523.09
616.65	1515.68
617.00	1508.02
617.35	1500.35
617.70	1492.09
618.04	1483.63
618.39	1475.29
618.74	1467.64
619.08	1459.28
619.43	1451.69
619.78	1444.85
620.12	1437.67
620.47	1430.09
620.82	1421.91
621.16	1414.53
621.51	1406.96
621.85	1399.41
622.20	1390.95
622.55	1382.60
622.89	1374.70
623.24	1367.05
623.59	1359.75
623.93	1352.28
624.28	1345.11
624.62	1337.61
624.97	1330.45
625.32	1323.77
625.66	1316.80
626.01	1309.64
626.35	1302.20
626.70	1294.58
627.04	1286.82
627.39	1279.09
627.73	1271.70
628.08	1264.82
628.43	1257.54
628.77	1250.10
629.12	1242.57
629.46	1235.31
629.81	1227.87
630.15	1220.57
630.50	1213.29
630.84	1205.08
631.19	1197.17
631.53	1189.68
631.88	1182.17
632.22	1174.54
632.57	1167.22
632.91	1159.71
633.26	1152.23
633.60	1144.85
633.95	1137.68
634.29	1130.69
634.64	1123.94
634.98	1116.61
635.32	1109.54
635.67	1102.97
636.01	1096.41
636.36	1089.52
636.70	1083.16
637.05	1076.71
637.39	1070.27
637.73	1063.65
638.08	1057.80
638.42	1051.84
638.77	1045.43
639.11	1038.80
639.45	1032.37
639.80	1025.67
640.14	1019.27
640.49	1012.70
640.83	1006.41
641.17	1000.19
641.52	993.80
641.86	987.32
642.20	981.51
642.55	975.20
642.89	968.68
643.23	962.18
643.58	956.53
643.92	950.22
644.26	944.09
644.61	938.06
644.95	932.03
645.29	925.33
645.64	918.59
645.98	912.25
646.32	906.36
646.66	900.46
647.01	894.67
647.35	888.95
647.69	883.29
648.04	877.73
648.38	871.91
648.72	865.89
649.06	860.00
649.41	854.10
649.75	848.04
650.09	842.15
650.43	836.32
650.78	830.13
651.12	824.22
651.46	818.52
651.80	812.77
652.14	807.36
652.49	802.08
652.83	796.83
653.17	791.04
653.51	785.32
653.85	779.91
654.20	774.31
654.54	768.33
654.88	762.48
655.22	756.69
655.56	751.06
655.90	745.66
656.25	740.37
656.59	734.97
656.93	729.88
657.27	724.68
657.61	719.23
657.95	714.13
658.29	709.04
658.64	703.83
658.98	698.46
659.32	693.07
659.66	687.88
660.00	682.59
660.34	677.68
660.68	672.77
661.02	667.73
661.36	662.97
661.70	658.47
662.05	654.16
662.39	649.78
662.73	645.29
663.07	640.85
663.41	636.38
663.75	631.82
664.09	627.31
664.43	622.93
664.77	618.79
665.11	614.49
665.45	610.35
665.79	606.18
666.13	602.16
666.47	598.01
666.81	593.77
667.15	589.67
667.49	585.77
667.83	582.03
668.17	578.10
668.51	574.00
668.85	570.00
669.19	566.18
669.53	562.30
669.87	558.39
670.21	554.77
670.55	551.09
670.89	547.73
671.23	544.30
671.57	540.81
671.91	537.33
672.25	533.88
672.58	530.35
672.92	526.98
673.26	523.81
673.60	520.72
673.94	517.69
674.28	514.79
674.62	511.89
674.96	508.77
675.30	505.89
675.64	502.97
675.97	500.21
676.31	497.27
676.65	494.37
676.99	491.71
677.33	488.79
677.67	486.02
678.01	482.99
678.34	480.00
678.68	477.12
679.02	474.24
679.36	471.48
679.70	468.83
680.04	466.09
680.37	463.19
680.71	460.37
681.05	457.74
681.39	455.04
681.73	452.39
682.06	449.88
682.40	447.33
682.74	444.81
683.08	442.26
683.42	439.78
683.75	437.31
684.09	434.78
684.43	432.33
684.77	429.89
685.10	427.54
685.44	425.22
685.78	422.96
686.12	420.78
686.45	418.53
686.79	416.22
687.13	414.02
687.46	411.87
687.80	409.77
688.14	407.55
688.48	405.49
688.81	403.23
689.15	401.08
689.49	398.94
689.82	396.90
690.16	394.81
690.50	392.80
690.83	390.83
691.17	388.82
691.51	386.90
691.84	385.06
692.18	383.15
692.52	381.20
692.85	379.30
693.19	377.38
693.52	375.54
693.86	373.73
694.20	371.93
694.53	370.15
694.87	368.26
695.21	366.51
695.54	364.70
695.88	362.98
696.21	361.26
696.55	359.59
696.88	357.86
697.22	356.19
697.56	354.56
697.89	352.97
698.23	351.39
698.56	349.75
698.90	348.13
699.23	346.47
699.57	344.92
699.90	343.36
700.24	341.83
700.58	340.24
700.91	338.70
701.25	337.24
701.58	335.91
701.92	334.56
702.25	333.14
702.59	331.74
702.92	330.38
703.26	329.04
703.59	327.72
703.93	326.56
704.26	325.32
704.60	324.01
704.93	322.66
705.26	321.38
705.60	320.23
705.93	319.05
706.27	318.01
706.60	316.96
706.94	315.84
707.27	314.70
707.61	313.65
707.94	312.63
708.27	311.52
708.61	310.40
708.94	309.40
709.28	308.42
709.61	307.47
709.94	306.53
710.28	305.51
710.61	304.55
710.95	303.45
711.28	302.52
711.61	301.61
711.95	300.72
712.28	299.75
712.61	298.79
712.95	297.86
713.28	296.97
713.61	296.07
713.95	295.20
714.28	294.34
714.61	293.50
714.95	292.70
715.28	291.84
715.61	290.95
715.95	290.10
716.28	289.27
716.61	288.43
716.95	287.64
717.28	286.90
717.61	286.13
717.94	285.42
718.28	284.63
718.61	283.87
718.94	283.21
719.27	282.59
719.61	281.91
719.94	281.30
720.27	280.60
720.60	279.94
720.94	279.31
721.27	278.73
721.60	278.14
721.93	277.48
722.27	276.96
722.60	276.46
722.93	275.90
723.26	275.35
723.59	274.81
723.93	274.25
724.26	273.70
724.59	273.17
724.92	272.64
725.25	272.18
725.59	271.68
725.92	271.15
726.25	270.64
726.58	270.16
726.91	269.63
727.24	269.17
727.57	268.72
727.91	268.22
728.24	267.78
728.57	267.31
728.90	266.88
729.23	266.39
729.56	265.95
729.89	265.47
730.22	264.99
730.55	264.55
730.89	264.10
731.22	263.68
731.55	263.24
731.88	262.83
732.21	262.41
732.54	261.98
732.87	261.57
733.20	261.20
733.53	260.80
733.86	260.43
734.19	260.05
734.52	259.66
734.85	259.38
735.18	258.95
735.51	258.63
735.84	258.24
736.17	257.88
736.50	257.47
736.83	257.29
737.16	256.96
737.49	256.63
737.82	256.26
738.15	255.92
738.48	255.59
738.81	255.26
739.14	254.93
739.47	254.63
739.80	254.33
740.13	253.99
740.46	253.65
740.79	253.33
741.12	253.01
741.45	252.69
741.78	252.33
742.11	252.08
742.44	251.70
742.77	251.44
743.10	251.15
743.43	250.85
743.75	250.42
744.08	250.26
744.41	249.96
744.74	249.70
745.07	249.42
745.40	249.16
745.73	248.90
746.06	248.59
746.39	248.31
746.71	248.03
747.04	247.73
747.37	247.50
747.70	247.24
748.03	246.97
748.36	246.76
748.68	246.53
749.01	246.25
749.34	246.02
749.67	245.79
750.00	245.53
750.33	245.34
750.65	245.14
750.98	244.79
751.31	244.55
751.64	244.37
751.97	244.22
752.29	244.01
752.62	243.76
752.95	243.56
753.28	243.37
753.60	243.18
753.93	243.01
754.26	242.80
754.59	242.57
754.91	242.36
755.24	242.13
755.57	241.94
755.90	241.74
756.22	241.55
756.55	241.36
756.88	241.19
757.20	240.98
757.53	240.74
757.86	240.56
758.19	240.42
758.51	240.24
758.84	240.05
759.17	239.88
759.49	239.71
759.82	239.60
760.15	239.43
760.47	239.27
760.80	239.09
761.13	238.94
761.45	238.82
761.78	238.68
762.11	238.55
762.43	238.39
762.76	238.26
763.08	238.15
763.41	238.02
763.74	237.90
764.06	237.77
764.39	237.65
764.71	237.55
765.04	237.39
765.37	237.27
765.69	237.12
766.02	236.99
766.34	236.85
766.67	236.68
767.00	236.61
767.32	236.55
767.65	236.51
767.97	236.41
768.30	236.30
768.62	236.20
768.95	236.07
769.27	235.96
769.60	235.83
769.92	235.69
770.25	235.58
770.57	235.44
770.90	235.35
771.22	235.24
771.55	235.14
771.87	235.07
772.20	234.94
772.52	234.92
772.85	234.93
773.17	234.86
773.50	234.78
773.82	234.63
774.15	234.47
774.47	234.34
774.80	234.27
775.12	234.17
775.45	234.11
775.77	234.02
776.09	233.98
776.42	233.92
776.74	233.91
777.07	233.82
777.39	233.78
777.72	233.70
778.04	233.68
778.36	233.58
778.69	233.51
779.01	233.42
779.33	233.28
779.66	233.11
779.98	233.05
780.31	232.98
780.63	232.97
780.95	232.93
781.28	232.83
781.60	232.78
781.92	232.72
782.25	232.62
782.57	232.58
782.89	232.48
783.22	232.46
783.54	232.34
783.86	232.30
784.19	232.22
784.51	232.17
784.83	232.10
785.16	232.03
785.48	231.98
785.80	231.95
786.12	231.89
786.45	231.85
786.77	231.78
787.09	231.75
787.42	231.65
787.74	231.59
788.06	231.55
788.38	231.49
788.71	231.41
789.03	231.38
789.35	231.35
789.67	231.27
789.99	231.22
790.32	231.19
790.64	231.14
790.96	231.21
791.28	231.13
791.61	231.12
791.93	231.07
792.25	231.02
792.57	231.05
792.89	230.99
793.21	230.94
793.54	230.92
793.86	230.84
794.18	230.85
794.50	230.80
794.82	230.75
795.14	230.74
795.47	230.74
795.79	230.70
796.11	230.62
796.43	230.60
796.75	230.56
797.07	230.53
797.39	230.49
797.71	230.37
798.04	230.34
798.36	230.23
798.68	230.22
799.00	230.19
799.32	230.11
799.64	230.11
799.96	230.10
800.28	230.05
800.60	230.03
800.92	230.00
801.24	229.95
801.56	229.97
801.89	229.94
802.21	229.91
802.53	229.89
802.85	229.89
803.17	229.91
803.49	229.85
803.81	229.81
804.13	229.78
804.45	229.75
804.77	229.74
805.09	229.75
805.41	229.71
805.73	229.69
806.05	229.64
806.37	229.60
806.69	229.56
807.01	229.55
807.33	229.52
807.65	229.48
807.97	229.51
808.28	229.48
808.60	229.45
808.92	229.42
809.24	229.44
809.56	229.42
809.88	229.38
810.20	229.40
810.52	229.42
810.84	229.38
811.16	229.35
811.48	229.33
811.80	229.33
812.12	229.31
812.43	229.30
812.75	229.29
813.07	229.27
813.39	229.26
813.71	229.22
814.03	229.20
814.35	229.16
814.67	229.11
814.98	229.07
815.30	229.05
815.62	229.00
815.94	228.95
816.26	228.99
816.58	228.96
816.89	228.92
817.21	228.85
817.53	228.85
817.85	228.83
818.17	228.80
818.48	228.78
818.80	228.80
819.12	228.76
819.44	228.74
819.76	228.70
820.07	228.69
820.39	228.67
820.71	228.69
821.03	228.69
821.34	228.68
821.66	228.67
821.98	228.65
822.30	228.65
822.61	228.67
822.93	228.61
823.25	228.58
823.57	228.57
823.88	228.58
824.20	228.57
824.52	228.57
824.83	228.57
825.15	228.54
825.47	228.53
825.79	228.51
826.10	228.50
826.42	228.49
826.74	228.49
827.05	228.47
827.37	228.45
827.69	228.46
828.00	228.41
828.32	228.39
828.64	228.40
828.95	228.43
829.27	228.39
829.58	228.37
829.90	228.41
830.22	228.40
830.53	228.37
830.85	228.33
831.17	228.30
831.48	228.28
831.80	228.25
832.11	228.21
832.43	228.19
832.75	228.17
833.06	228.23
833.38	228.18
833.69	228.17
834.01	228.15
834.32	228.12
834.64	228.14
834.96	228.11
835.27	228.09
835.59	228.06
835.90	228.01
836.22	227.98
836.53	227.88
836.85	227.88
837.16	227.98
837.48	227.98
837.79	228.00
838.11	228.02
838.42	228.00
838.74	228.02
839.05	228.03
839.37	228.01
839.68	227.94
840.00	227.94
840.31	227.96
840.63	227.96
840.94	227.95
841.26	227.91
841.57	227.89
841.88	227.90
842.20	227.83
842.51	227.86
842.83	227.86
843.14	227.97
843.46	227.98
843.77	227.89
844.08	227.86
844.40	227.85
844.71	227.81
845.03	227.82
845.34	227.80
845.65	227.80
845.97	227.81
846.28	227.78
846.60	227.77
846.91	227.76
847.22	227.73
847.54	227.73
847.85	227.77
848.16	227.78
848.48	227.75
848.79	227.80
849.10	227.78
849.42	227.77
849.73	227.65
850.04	227.60
850.36	227.60
850.67	227.62
850.98	227.60
851.30	227.59
851.61	227.57
851.92	227.58
852.23	227.57
852.55	227.57
852.86	227.63
853.17	227.63
853.49	227.63
853.80	227.66
854.11	227.68
854.42	227.65
854.74	227.64
855.05	227.65
855.36	227.62
855.67	227.63
855.99	227.63
856.30	227.74
856.61	227.75
856.92	227.72
857.23	227.71
857.55	227.68
857.86	227.68
858.17	227.73
858.48	227.70
858.79	227.71
859.11	227.70
859.42	227.68
859.73	227.65
860.04	227.66
860.35	227.61
860.66	227.57
860.98	227.59
861.29	227.64
861.60	227.59
861.91	227.61
862.22	227.61
862.53	227.59
862.84	227.49
863.16	227.52
863.47	227.52
863.78	227.56
864.09	227.57
864.40	227.58
864.71	227.59
865.02	227.63
865.33	227.58
865.64	227.61
865.95	227.60
866.27	227.67
866.58	227.63
866.89	227.68
867.20	227.66
867.51	227.66
867.82	227.64
868.13	227.70
868.44	227.70
868.75	227.70
869.06	227.73
869.37	227.75
869.68	227.72
869.99	227.76
870.30	227.76
870.61	227.78
870.92	227.78
871.23	227.73
871.54	227.73
871.85	227.77
872.16	227.76
872.47	227.73
872.78	227.66
873.09	227.70
873.40	227.68
873.71	227.69
874.02	227.69
874.33	227.67
874.64	227.62
874.95	227.61
875.26	227.59
875.56	227.60
875.87	227.58
876.18	227.56
876.49	227.60
876.80	227.55
877.11	227.51
877.42	227.48
877.73	227.47
878.04	227.42
878.35	227.43
878.66	227.42
878.96	227.46
879.27	227.49
879.58	227.45
879.89	227.41
880.20	227.44
880.51	227.41
880.82	227.42
881.12	227.43
881.43	227.45
881.74	227.43
882.05	227.38
882.36	227.37
882.67	227.36
882.97	227.26
883.28	227.24
883.59	227.25
883.90	227.28
884.21	227.30
884.51	227.31
884.82	227.27
885.13	227.28
885.44	227.24
885.74	227.22
886.05	227.22
886.36	227.25
886.67	227.20
886.98	227.23
887.28	227.23
887.59	227.20
887.90	227.15
888.20	227.16
888.51	227.17
888.82	227.13
889.13	227.15
889.43	227.23
889.74	227.24
890.05	227.23
890.35	227.22
890.66	227.21
890.97	227.20
891.28	227.20
891.58	227.21
891.89	227.21
892.20	227.21
892.50	227.19
892.81	227.19
893.12	227.20
893.42	227.18
893.73	227.18
894.04	227.20
894.34	227.20
894.65	227.20
894.95	227.21
895.26	227.23
895.57	227.27
895.87	227.17
896.18	227.20
896.48	227.20
896.79	227.19
897.10	227.18
897.40	227.19
897.71	227.20
898.01	227.19
898.32	227.19
898.63	227.19
898.93	227.24
899.24	227.22
899.54	227.19
899.85	227.18
900.15	227.16
900.46	227.15
900.76	227.17
901.07	227.15
901.38	227.14
901.68	227.17
901.99	227.13
902.29	227.15
902.60	227.11
902.90	227.12
903.21	227.11
903.51	227.12
903.82	227.14
904.12	227.13
904.43	227.11
904.73	227.10
905.03	227.10
905.34	227.18
905.64	227.17
905.95	227.17
906.25	227.16
906.56	227.17
906.86	227.18
907.17	227.16
907.47	227.19
907.77	227.16
908.08	227.12
908.38	227.13
908.69	227.15
908.99	227.18
909.30	227.21
909.60	227.23
909.90	227.21
910.21	227.17
910.51	227.15
910.81	227.17
911.12	227.19
911.42	227.14
911.73	226.99
912.03	226.98
912.33	227.01
912.64	226.98
912.94	226.97
913.24	226.96
913.55	226.95
913.85	226.93
914.15	226.98
914.46	227.00
914.76	226.97
915.06	226.91
915.37	226.88
915.67	226.83
915.97	226.82
916.27	226.78
916.58	226.77
916.88	226.76
917.18	226.75
917.49	226.79
917.79	226.81
918.09	226.83
918.39	226.86
918.70	226.82
919.00	226.84
919.30	226.89
919.60	226.87
919.91	226.85
920.21	226.86
920.51	226.82
920.81	226.82
921.12	226.86
921.42	226.89
921.72	226.90
922.02	226.92
922.32	226.90
922.63	226.98
922.93	227.04
923.23	227.04
923.53	227.03
923.83	226.94
924.13	226.96
924.44	226.99
924.74	227.00
925.04	227.05
925.34	227.05
925.64	226.99
925.94	226.97
926.24	227.03
926.55	227.02
926.85	227.04
927.15	227.06
927.45	227.02
927.75	227.01
928.05	227.01
928.35	226.98
928.65	227.00
928.95	226.94
929.26	226.90
929.56	226.91
929.86	226.92
930.16	226.95
930.46	226.92
930.76	226.91
931.06	226.87
931.36	226.85
931.66	226.89
931.96	226.90
932.26	226.90
932.56	226.86
932.86	226.83
933.16	226.84
933.46	226.80
933.76	226.81
934.06	226.87
934.36	226.91
934.66	226.93
934.96	226.92
935.26	226.95
935.56	226.96
935.86	226.96
936.16	226.94
936.46	226.95
936.76	226.99
937.06	227.00
937.36	227.02
937.66	227.03
937.96	227.05
938.26	227.04
938.56	227.05
938.86	227.06
939.16	227.09
939.46	227.12
939.76	227.15
940.06	227.13
940.35	227.06
940.65	227.05
940.95	227.07
941.25	227.09
941.55	227.09
941.85	227.08
942.15	227.12
942.45	227.18
942.75	227.18
943.04	227.15
943.34	227.15
943.64	227.16
943.94	227.16
944.24	227.14
944.54	227.14
944.84	227.16
945.13	227.15
945.43	227.17
945.73	227.16
946.03	227.16
946.33	227.14
946.62	227.17
946.92	227.14
947.22	227.14
947.52	227.12
947.82	227.13
948.11	227.13
948.41	227.09
948.71	227.02
949.01	227.01
949.31	227.01
949.60	227.01
949.90	227.00
950.20	226.95
950.50	226.91
950.79	226.90
951.09	226.89
951.39	226.91
951.69	226.88
951.98	226.91
952.28	226.89
952.58	226.88
952.87	226.89
953.17	226.89
953.47	226.89
953.76	226.90
954.06	226.87
954.36	226.82
954.66	226.82
954.95	226.85
955.25	226.85
955.55	226.87
955.84	226.83
956.14	226.84
956.44	226.84
956.73	226.88
957.03	226.88
957.32	226.91
957.62	226.88
957.92	226.90
958.21	226.87
958.51	226.96
958.81	227.00
959.10	226.99
959.40	227.02
959.69	227.01
959.99	227.01
960.29	227.01
960.58	227.03
960.88	227.08
961.17	227.07
961.47	227.06
961.76	227.03
962.06	227.05
962.36	227.03
962.65	227.03
962.95	227.00
963.24	227.00
963.54	226.97
963.83	227.00
964.13	226.98
964.42	226.96
964.72	226.88
965.01	226.89
965.31	226.89
965.60	226.86
965.90	226.93
966.19	226.90
966.49	226.88
966.78	226.91
967.08	226.88
967.37	226.87
967.67	226.90
967.96	226.94
968.26	226.92
968.55	226.96
968.85	227.01
969.14	227.00
969.43	227.02
969.73	226.99
970.02	226.99
970.32	227.00
970.61	227.01
970.91	227.00
971.20	226.99
971.49	226.94
971.79	226.91
972.08	226.83
972.38	226.84
972.67	226.85
972.96	226.86
973.26	226.85
973.55	226.91
973.85	226.88
974.14	226.86
974.43	226.90
974.73	226.87
975.02	226.85
975.31	226.91
975.61	226.88
975.90	226.93
976.19	226.93
976.49	226.93
976.78	226.93
977.07	227.00
977.37	226.99
977.66	227.05
977.95	227.07
978.24	227.11
978.54	227.13
978.83	227.14
979.12	227.11
979.42	227.10
979.71	227.11
980.00	227.14
980.29	227.14
980.59	227.14
980.88	227.17
981.17	227.16
981.46	227.14
981.76	227.16
982.05	227.16
982.34	227.16
982.63	227.15
982.93	227.15
983.22	227.13
983.51	227.14
983.80	227.12
984.09	227.15
984.39	227.13
984.68	227.12
984.97	227.14
985.26	227.14
985.55	227.17
985.85	227.12
986.14	227.12
986.43	227.15
986.72	227.12
987.01	227.05
987.30	227.05
987.59	227.05
987.89	227.05
988.18	227.02
988.47	227.01
988.76	227.00
989.05	226.96
989.34	226.93
989.63	226.97
989.92	226.97
990.22	226.94
990.51	226.91
990.80	226.90
991.09	226.89
991.38	226.90
991.67	226.87
991.96	226.84
992.25	226.83
992.54	226.77
992.83	226.76
993.12	226.78
993.41	226.76
993.70	226.78
993.99	226.78
994.28	226.77
994.58	226.75
994.87	226.74
995.16	226.75
995.45	226.73
995.74	226.67
996.03	226.67
996.32	226.68
996.61	226.69
996.90	226.68
997.19	226.66
997.48	226.66
997.77	226.65
998.06	226.67
998.34	226.65
998.63	226.64
998.92	226.66
999.21	226.64
999.50	226.67
999.79	226.64
1000.08	226.65
1000.37	226.64
1000.66	226.61
1000.95	226.64
1001.24	226.62
1001.53	226.63
1001.82	226.62
1002.11	226.58
1002.40	226.59
1002.68	226.60
1002.97	226.69
1003.26	226.69
1003.55	226.65
1003.84	226.64
1004.13	226.65
1004.42	226.65
1004.71	226.62
1004.99	226.59
1005.28	226.60
1005.57	226.57
1005.86	226.55
1006.15	226.51
1006.44	226.53
1006.72	226.59
1007.01	226.57
1007.30	226.60
1007.59	226.58
1007.88	226.59
1008.17	226.59
1008.45	226.55
1008.74	226.51
1009.03	226.49
1009.32	226.48
1009.60	226.47
1009.89	226.47
1010.18	226.46
1010.47	226.47
1010.76	226.50
1011.04	226.53
1011.33	226.57
1011.62	226.58
1011.91	226.60
1012.19	226.59
1012.48	226.60
1012.77	226.61
1013.05	226.65
1013.34	226.63
1013.63	226.65
1013.92	226.63
1014.20	226.65
1014.49	226.68
1014.78	226.73
1015.06	226.69
1015.35	226.72
1015.64	226.78
1015.92	226.83
1016.21	226.85
1016.50	226.85
1016.78	226.92
1017.07	226.94
1017.36	226.91
1017.64	226.92
1017.93	226.92
1018.22	226.95
1018.50	226.93
1018.79	226.92
1019.08	226.90
1019.36	226.91
1019.65	226.91
1019.93	226.97
1020.22	226.98
1020.51	227.01
1020.79	226.99
1021.08	226.70
1021.36	226.78
1021.65	226.66
1021.94	227.04
1022.22	226.50
1022.51	226.68
1022.79	227.60
1023.08	226.82
1023.36	227.57
1023.65	226.83
>>>>>End Processed Spectral Data<<<<<
