SpectraSuite Data File
++++++++++++++++++++++++++++++++++++
Date: Fri Feb 01 17:56:29 EST 2013
User: group
Dark Spectrum Present: No
Reference Spectrum Present: No
Number of Sampled Component Spectra: 1
Spectrometers: USB2E7196
Integration Time (usec): 35000 (USB2E7196)
Spectra Averaged: 100 (USB2E7196)
Boxcar Smoothing: 10 (USB2E7196)
Correct for Electrical Dark: No (USB2E7196)
Strobe/Lamp Enabled: No (USB2E7196)
Correct for Detector Non-linearity: No (USB2E7196)
Correct for Stray Light: No (USB2E7196)
Number of Pixels in Processed Spectrum: 2048
>>>>>Begin Processed Spectral Data<<<<<
339.09	0.00
339.48	212.93
339.86	214.19
340.24	215.34
340.63	217.37
341.01	219.60
341.39	218.92
341.78	220.99
342.16	221.96
342.54	222.83
342.93	211.15
343.31	221.85
343.69	222.38
344.07	222.84
344.46	223.28
344.84	223.66
345.22	223.92
345.60	224.20
345.99	224.41
346.37	224.54
346.75	224.62
347.13	224.69
347.52	224.75
347.90	224.83
348.28	224.86
348.66	224.96
349.05	224.93
349.43	225.01
349.81	225.06
350.19	225.11
350.57	225.15
350.96	225.25
351.34	225.32
351.72	225.39
352.10	225.51
352.48	225.58
352.87	225.61
353.25	225.67
353.63	225.73
354.01	225.76
354.39	225.83
354.77	225.94
355.15	226.04
355.54	226.11
355.92	226.12
356.30	226.20
356.68	226.32
357.06	226.42
357.44	226.45
357.82	226.51
358.20	226.55
358.58	226.63
358.97	226.70
359.35	226.76
359.73	226.84
360.11	226.86
360.49	226.94
360.87	226.99
361.25	227.03
361.63	227.12
362.01	227.17
362.39	227.24
362.77	227.27
363.15	227.32
363.53	227.33
363.91	227.37
364.29	227.39
364.67	227.30
365.05	227.31
365.43	227.32
365.81	227.33
366.19	227.38
366.57	227.39
366.95	227.37
367.33	227.38
367.71	227.36
368.09	227.38
368.47	227.35
368.85	227.33
369.23	227.32
369.61	227.25
369.99	227.28
370.37	227.21
370.75	227.24
371.13	227.19
371.51	227.13
371.89	227.10
372.27	227.07
372.65	227.03
373.03	227.00
373.41	226.96
373.78	226.93
374.16	226.82
374.54	226.76
374.92	226.68
375.30	226.60
375.68	226.56
376.06	226.53
376.44	226.49
376.82	226.45
377.19	226.40
377.57	226.36
377.95	226.26
378.33	226.24
378.71	226.11
379.09	226.04
379.47	226.00
379.84	225.95
380.22	225.91
380.60	225.86
380.98	225.81
381.36	225.74
381.73	225.65
382.11	225.62
382.49	225.57
382.87	225.53
383.25	225.47
383.62	225.52
384.00	225.42
384.38	225.36
384.76	225.34
385.13	225.34
385.51	225.31
385.89	225.26
386.27	225.22
386.64	225.21
387.02	225.17
387.40	225.18
387.78	225.11
388.15	225.03
388.53	224.97
388.91	224.94
389.29	224.93
389.66	224.93
390.04	224.93
390.42	224.92
390.79	224.92
391.17	224.94
391.55	224.81
391.92	224.79
392.30	224.78
392.68	224.77
393.05	224.73
393.43	224.73
393.81	224.73
394.18	224.73
394.56	224.71
394.94	224.75
395.31	224.71
395.69	224.78
396.06	224.85
396.44	224.85
396.82	224.86
397.19	224.93
397.57	224.98
397.95	225.04
398.32	225.05
398.70	225.13
399.07	225.17
399.45	225.24
399.82	225.34
400.20	225.39
400.58	225.46
400.95	225.53
401.33	225.61
401.70	225.77
402.08	225.85
402.45	225.94
402.83	226.04
403.20	226.14
403.58	226.26
403.95	226.40
404.33	226.59
404.71	226.71
405.08	226.89
405.46	227.02
405.83	227.17
406.21	227.33
406.58	227.48
406.96	227.67
407.33	227.84
407.70	228.04
408.08	228.36
408.45	228.62
408.83	228.89
409.20	229.15
409.58	229.37
409.95	229.67
410.33	230.02
410.70	230.34
411.08	230.71
411.45	231.09
411.82	231.45
412.20	231.89
412.57	232.43
412.95	232.82
413.32	233.36
413.69	233.89
414.07	234.47
414.44	235.09
414.82	235.72
415.19	236.45
415.56	237.22
415.94	237.92
416.31	238.72
416.68	239.55
417.06	240.50
417.43	241.42
417.81	242.45
418.18	243.48
418.55	244.62
418.93	245.79
419.30	246.95
419.67	248.20
420.04	249.46
420.42	250.76
420.79	252.34
421.16	253.87
421.54	255.44
421.91	257.05
422.28	258.73
422.66	260.53
423.03	262.23
423.40	263.99
423.77	265.91
424.15	267.83
424.52	269.81
424.89	271.96
425.26	274.06
425.64	275.97
426.01	278.11
426.38	280.32
426.75	282.58
427.13	284.90
427.50	287.35
427.87	289.89
428.24	292.39
428.61	294.74
428.99	297.33
429.36	300.16
429.73	302.96
430.10	305.66
430.47	308.40
430.85	311.27
431.22	314.29
431.59	317.41
431.96	320.42
432.33	323.70
432.70	326.89
433.08	330.59
433.45	334.13
433.82	337.59
434.19	341.44
434.56	345.15
434.93	348.72
435.30	352.25
435.68	356.09
436.05	359.89
436.42	363.59
436.79	367.01
437.16	370.62
437.53	374.39
437.90	378.15
438.27	381.79
438.64	385.57
439.01	388.97
439.38	391.99
439.75	394.89
440.13	398.28
440.50	401.41
440.87	403.95
441.24	406.60
441.61	409.51
441.98	411.52
442.35	413.99
442.72	416.40
443.09	418.80
443.46	420.17
443.83	421.02
444.20	421.73
444.57	422.86
444.94	423.27
445.31	423.72
445.68	424.17
446.05	424.31
446.42	423.91
446.79	423.38
447.16	422.85
447.53	422.47
447.90	420.94
448.27	419.41
448.64	417.29
449.01	415.78
449.37	413.15
449.74	410.59
450.11	407.58
450.48	404.32
450.85	400.95
451.22	398.07
451.59	395.28
451.96	392.68
452.33	389.19
452.70	386.02
453.07	382.27
453.43	378.44
453.80	374.74
454.17	371.13
454.54	367.73
454.91	364.06
455.28	360.47
455.65	357.16
456.02	353.82
456.38	350.93
456.75	347.32
457.12	344.31
457.49	341.35
457.86	338.44
458.23	335.93
458.59	333.22
458.96	330.39
459.33	327.93
459.70	325.45
460.07	323.40
460.43	321.10
460.80	318.87
461.17	316.92
461.54	314.89
461.91	312.90
462.27	310.96
462.64	309.26
463.01	307.43
463.38	305.64
463.74	303.85
464.11	302.27
464.48	300.86
464.85	299.36
465.21	298.15
465.58	296.90
465.95	295.41
466.32	294.12
466.68	292.88
467.05	291.65
467.42	290.43
467.78	289.15
468.15	287.97
468.52	287.05
468.88	285.88
469.25	284.83
469.62	284.00
469.98	283.05
470.35	282.18
470.72	281.33
471.08	280.45
471.45	279.69
471.82	278.96
472.18	278.16
472.55	277.53
472.92	276.83
473.28	276.21
473.65	275.59
474.02	275.01
474.38	274.51
474.75	274.07
475.11	273.57
475.48	273.18
475.85	272.83
476.21	272.47
476.58	272.21
476.94	271.97
477.31	271.72
477.67	271.49
478.04	271.30
478.41	271.17
478.77	271.10
479.14	270.95
479.50	270.86
479.87	270.86
480.23	270.93
480.60	270.92
480.96	270.93
481.33	271.05
481.69	271.20
482.06	271.31
482.42	271.48
482.79	271.68
483.15	272.00
483.52	272.37
483.88	272.66
484.25	273.00
484.61	273.37
484.98	273.77
485.34	274.31
485.71	274.92
486.07	275.51
486.44	276.07
486.80	276.78
487.17	277.50
487.53	278.34
487.90	279.17
488.26	280.12
488.62	281.12
488.99	282.16
489.35	283.24
489.72	284.41
490.08	285.62
490.44	286.90
490.81	288.24
491.17	289.62
491.54	291.22
491.90	292.80
492.26	294.53
492.63	296.34
492.99	298.20
493.36	300.14
493.72	302.30
494.08	304.57
494.45	306.96
494.81	309.46
495.17	312.04
495.54	314.73
495.90	317.52
496.26	320.49
496.63	323.63
496.99	326.89
497.35	330.37
497.72	333.96
498.08	337.66
498.44	341.52
498.80	345.66
499.17	349.89
499.53	354.33
499.89	359.00
500.26	363.79
500.62	368.73
500.98	374.00
501.34	379.32
501.71	384.87
502.07	390.66
502.43	396.59
502.79	402.73
503.16	409.12
503.52	415.84
503.88	422.59
504.24	429.60
504.60	436.93
504.97	444.45
505.33	452.24
505.69	460.43
506.05	468.71
506.41	477.05
506.78	485.76
507.14	494.76
507.50	503.98
507.86	513.58
508.22	523.30
508.59	533.07
508.95	543.34
509.31	553.88
509.67	564.67
510.03	575.62
510.39	586.89
510.75	598.43
511.12	610.10
511.48	622.19
511.84	634.48
512.20	646.77
512.56	659.52
512.92	672.54
513.28	685.80
513.64	699.27
514.00	712.92
514.37	726.77
514.73	740.78
515.09	754.83
515.45	769.08
515.81	783.72
516.17	798.72
516.53	814.06
516.89	829.27
517.25	844.54
517.61	860.09
517.97	875.77
518.33	891.35
518.69	907.35
519.05	923.59
519.41	940.08
519.77	956.95
520.13	973.69
520.49	990.44
520.85	1007.12
521.21	1024.05
521.57	1041.64
521.93	1058.82
522.29	1076.69
522.65	1094.44
523.01	1112.23
523.37	1129.91
523.73	1147.67
524.09	1165.19
524.45	1183.08
524.81	1201.33
525.17	1219.78
525.53	1238.26
525.89	1256.90
526.25	1275.35
526.61	1293.47
526.97	1311.88
527.33	1330.00
527.68	1348.40
528.04	1366.56
528.40	1384.91
528.76	1403.83
529.12	1422.24
529.48	1441.05
529.84	1458.82
530.20	1477.30
530.56	1496.14
530.91	1515.37
531.27	1534.04
531.63	1552.28
531.99	1570.85
532.35	1588.75
532.71	1606.66
533.07	1624.94
533.42	1642.83
533.78	1661.08
534.14	1679.27
534.50	1696.66
534.86	1714.65
535.21	1731.90
535.57	1750.00
535.93	1767.67
536.29	1784.52
536.65	1801.66
537.00	1818.41
537.36	1835.93
537.72	1852.53
538.08	1869.10
538.44	1885.05
538.79	1901.06
539.15	1916.80
539.51	1932.62
539.87	1949.13
540.22	1964.88
540.58	1980.73
540.94	1996.22
541.29	2011.07
541.65	2025.99
542.01	2041.28
542.37	2055.81
542.72	2070.37
543.08	2084.37
543.44	2098.91
543.79	2112.38
544.15	2125.61
544.51	2139.41
544.87	2152.45
545.22	2165.43
545.58	2177.84
545.94	2189.61
546.29	2201.57
546.65	2213.65
547.01	2225.04
547.36	2235.80
547.72	2246.43
548.07	2256.51
548.43	2266.39
548.79	2276.43
549.14	2286.06
549.50	2295.24
549.86	2304.75
550.21	2314.08
550.57	2323.13
550.92	2331.54
551.28	2340.45
551.64	2349.50
551.99	2357.95
552.35	2366.10
552.70	2374.05
553.06	2381.86
553.41	2390.23
553.77	2398.13
554.13	2406.03
554.48	2414.16
554.84	2421.46
555.19	2428.38
555.55	2435.29
555.90	2441.56
556.26	2448.38
556.61	2454.59
556.97	2460.73
557.32	2466.51
557.68	2472.22
558.03	2478.06
558.39	2483.28
558.74	2489.64
559.10	2495.04
559.45	2500.21
559.81	2505.78
560.16	2511.15
560.52	2515.84
560.87	2520.54
561.23	2524.44
561.58	2528.59
561.94	2532.26
562.29	2535.81
562.64	2540.01
563.00	2543.67
563.35	2548.61
563.71	2552.80
564.06	2557.36
564.42	2561.54
564.77	2565.44
565.12	2569.06
565.48	2572.23
565.83	2575.41
566.19	2577.93
566.54	2579.66
566.89	2581.92
567.25	2583.80
567.60	2586.02
567.96	2588.78
568.31	2590.50
568.66	2592.82
569.02	2594.50
569.37	2595.75
569.72	2597.66
570.08	2598.61
570.43	2599.47
570.78	2599.72
571.14	2598.78
571.49	2597.92
571.84	2598.30
572.20	2597.68
572.55	2596.96
572.90	2595.57
573.26	2594.64
573.61	2593.12
573.96	2591.93
574.31	2589.19
574.67	2586.40
575.02	2582.96
575.37	2579.62
575.72	2576.23
576.08	2572.80
576.43	2569.48
576.78	2565.96
577.13	2562.66
577.49	2559.47
577.84	2556.16
578.19	2552.46
578.54	2549.05
578.90	2544.91
579.25	2538.99
579.60	2533.89
579.95	2528.79
580.30	2523.72
580.66	2518.23
581.01	2513.04
581.36	2507.79
581.71	2503.44
582.06	2498.67
582.42	2494.02
582.77	2488.51
583.12	2483.54
583.47	2478.66
583.82	2473.59
584.17	2467.91
584.53	2462.09
584.88	2456.06
585.23	2449.78
585.58	2443.57
585.93	2437.43
586.28	2432.13
586.63	2426.65
586.98	2421.11
587.34	2415.93
587.69	2410.56
588.04	2404.88
588.39	2398.69
588.74	2391.53
589.09	2384.64
589.44	2377.02
589.79	2370.15
590.14	2363.86
590.49	2356.46
590.84	2349.20
591.19	2342.25
591.54	2335.09
591.89	2327.09
592.25	2319.59
592.60	2311.46
592.95	2303.23
593.30	2295.08
593.65	2286.52
594.00	2278.45
594.35	2270.11
594.70	2261.02
595.05	2252.91
595.40	2244.70
595.75	2236.10
596.10	2229.15
596.45	2221.63
596.80	2214.74
597.15	2207.44
597.50	2199.55
597.85	2192.28
598.19	2184.61
598.54	2176.75
598.89	2168.99
599.24	2161.94
599.59	2154.30
599.94	2147.08
600.29	2139.73
600.64	2132.08
600.99	2123.62
601.34	2115.91
601.69	2107.96
602.04	2100.10
602.39	2091.70
602.74	2083.73
603.08	2076.08
603.43	2068.23
603.78	2059.57
604.13	2051.23
604.48	2042.89
604.83	2034.81
605.18	2026.77
605.53	2017.76
605.87	2008.32
606.22	1999.90
606.57	1990.68
606.92	1981.93
607.27	1973.84
607.62	1965.75
607.96	1957.30
608.31	1949.66
608.66	1940.84
609.01	1932.04
609.36	1923.20
609.70	1913.71
610.05	1904.39
610.40	1895.23
610.75	1885.53
611.10	1876.71
611.44	1866.82
611.79	1857.28
612.14	1847.05
612.49	1836.31
612.83	1826.52
613.18	1816.97
613.53	1807.65
613.88	1797.82
614.22	1788.25
614.57	1777.93
614.92	1768.56
615.27	1759.77
615.61	1750.08
615.96	1740.59
616.31	1731.54
616.65	1722.93
617.00	1714.32
617.35	1705.24
617.70	1695.69
618.04	1685.77
618.39	1676.06
618.74	1667.22
619.08	1657.62
619.43	1648.78
619.78	1640.57
620.12	1632.08
620.47	1623.28
620.82	1613.49
621.16	1604.54
621.51	1595.54
621.85	1586.57
622.20	1576.61
622.55	1566.64
622.89	1557.42
623.24	1548.41
623.59	1539.76
623.93	1530.88
624.28	1522.21
624.62	1513.44
624.97	1504.89
625.32	1496.86
625.66	1488.57
626.01	1480.21
626.35	1471.48
626.70	1462.39
627.04	1453.44
627.39	1444.25
627.73	1435.54
628.08	1427.46
628.43	1419.18
628.77	1410.62
629.12	1401.86
629.46	1393.42
629.81	1384.61
630.15	1376.01
630.50	1367.43
630.84	1357.96
631.19	1348.66
631.53	1339.83
631.88	1330.94
632.22	1322.11
632.57	1313.52
632.91	1304.73
633.26	1295.99
633.60	1287.31
633.95	1278.93
634.29	1270.62
634.64	1262.78
634.98	1254.38
635.32	1246.04
635.67	1238.19
636.01	1230.41
636.36	1222.55
636.70	1214.79
637.05	1207.34
637.39	1199.80
637.73	1192.27
638.08	1185.26
638.42	1178.32
638.77	1170.82
639.11	1163.29
639.45	1155.82
639.80	1148.22
640.14	1140.84
640.49	1133.21
640.83	1125.83
641.17	1118.67
641.52	1111.29
641.86	1103.77
642.20	1096.83
642.55	1089.44
642.89	1081.93
643.23	1074.21
643.58	1067.53
643.92	1060.50
644.26	1053.51
644.61	1046.48
644.95	1039.33
645.29	1031.82
645.64	1023.98
645.98	1016.60
646.32	1009.65
646.66	1002.61
647.01	995.82
647.35	989.21
647.69	982.37
648.04	976.04
648.38	969.34
648.72	962.53
649.06	955.65
649.41	948.85
649.75	942.08
650.09	935.20
650.43	928.61
650.78	921.47
651.12	914.57
651.46	907.90
651.80	901.35
652.14	895.17
652.49	888.98
652.83	882.98
653.17	876.59
653.51	870.13
653.85	863.89
654.20	857.45
654.54	850.52
654.88	843.97
655.22	837.16
655.56	830.54
655.90	824.20
656.25	818.10
656.59	811.82
656.93	805.87
657.27	799.94
657.61	793.73
657.95	787.80
658.29	781.93
658.64	775.80
658.98	769.62
659.32	763.32
659.66	757.25
660.00	751.21
660.34	745.44
660.68	739.69
661.02	733.93
661.36	728.45
661.70	723.27
662.05	718.22
662.39	713.23
662.73	708.11
663.07	703.07
663.41	697.94
663.75	692.84
664.09	687.60
664.43	682.52
664.77	677.81
665.11	672.92
665.45	668.15
665.79	663.50
666.13	658.77
666.47	654.17
666.81	649.41
667.15	644.62
667.49	640.09
667.83	635.63
668.17	631.13
668.51	626.46
668.85	621.80
669.19	617.39
669.53	613.02
669.87	608.51
670.21	604.14
670.55	599.96
670.89	596.00
671.23	592.03
671.57	587.97
671.91	583.78
672.25	579.75
672.58	575.66
672.92	571.65
673.26	568.04
673.60	564.30
673.94	560.75
674.28	557.40
674.62	554.04
674.96	550.58
675.30	547.24
675.64	543.86
675.97	540.61
676.31	537.27
676.65	533.85
676.99	530.77
677.33	527.53
677.67	524.27
678.01	520.81
678.34	517.44
678.68	514.16
679.02	511.01
679.36	507.84
679.70	504.77
680.04	501.68
680.37	498.40
680.71	495.18
681.05	492.18
681.39	489.03
681.73	485.99
682.06	483.09
682.40	480.14
682.74	477.23
683.08	474.33
683.42	471.37
683.75	468.61
684.09	465.63
684.43	462.79
684.77	460.01
685.10	457.28
685.44	454.57
685.78	451.90
686.12	449.26
686.45	446.57
686.79	443.92
687.13	441.37
687.46	438.83
687.80	436.36
688.14	433.73
688.48	431.39
688.81	428.83
689.15	426.32
689.49	423.81
689.82	421.41
690.16	419.01
690.50	416.81
690.83	414.49
691.17	412.26
691.51	410.09
691.84	407.94
692.18	405.74
692.52	403.53
692.85	401.29
693.19	399.13
693.52	397.00
693.86	394.85
694.20	392.77
694.53	390.71
694.87	388.62
695.21	386.54
695.54	384.40
695.88	382.37
696.21	380.39
696.55	378.44
696.88	376.46
697.22	374.50
697.56	372.53
697.89	370.62
698.23	368.76
698.56	366.86
698.90	364.97
699.23	363.08
699.57	361.25
699.90	359.50
700.24	357.70
700.58	355.96
700.91	354.29
701.25	352.61
701.58	350.98
701.92	349.39
702.25	347.80
702.59	346.22
702.92	344.67
703.26	343.11
703.59	341.64
703.93	340.29
704.26	338.90
704.60	337.43
704.93	335.96
705.26	334.47
705.60	333.08
705.93	331.76
706.27	330.53
706.60	329.29
706.94	327.99
707.27	326.65
707.61	325.38
707.94	324.17
708.27	322.91
708.61	321.69
708.94	320.53
709.28	319.44
709.61	318.33
709.94	317.23
710.28	316.04
710.61	314.91
710.95	313.67
711.28	312.60
711.61	311.48
711.95	310.40
712.28	309.34
712.61	308.21
712.95	307.13
713.28	306.08
713.61	305.05
713.95	304.07
714.28	303.15
714.61	302.20
714.95	301.21
715.28	300.23
715.61	299.17
715.95	298.15
716.28	297.13
716.61	296.17
716.95	295.21
717.28	294.34
717.61	293.43
717.94	292.57
718.28	291.60
718.61	290.74
718.94	289.91
719.27	289.12
719.61	288.38
719.94	287.58
720.27	286.79
720.60	285.99
720.94	285.25
721.27	284.50
721.60	283.83
721.93	283.12
722.27	282.45
722.60	281.83
722.93	281.19
723.26	280.58
723.59	279.94
723.93	279.32
724.26	278.69
724.59	278.06
724.92	277.42
725.25	276.87
725.59	276.28
725.92	275.72
726.25	275.15
726.58	274.58
726.91	274.02
727.24	273.45
727.57	272.88
727.91	272.31
728.24	271.78
728.57	271.18
728.90	270.67
729.23	270.11
729.56	269.64
729.89	269.06
730.22	268.47
730.55	267.92
730.89	267.39
731.22	266.88
731.55	266.35
731.88	265.89
732.21	265.38
732.54	264.89
732.87	264.41
733.20	263.93
733.53	263.47
733.86	263.06
734.19	262.60
734.52	262.21
734.85	261.81
735.18	261.30
735.51	260.87
735.84	260.45
736.17	260.08
736.50	259.57
736.83	259.30
737.16	258.91
737.49	258.56
737.82	258.15
738.15	257.78
738.48	257.43
738.81	257.03
739.14	256.66
739.47	256.30
739.80	255.91
740.13	255.57
740.46	255.20
740.79	254.83
741.12	254.50
741.45	254.14
741.78	253.75
742.11	253.46
742.44	253.11
742.77	252.76
743.10	252.36
743.43	252.04
743.75	251.63
744.08	251.47
744.41	251.12
744.74	250.79
745.07	250.44
745.40	250.17
745.73	249.90
746.06	249.59
746.39	249.29
746.71	249.01
747.04	248.68
747.37	248.40
747.70	248.13
748.03	247.84
748.36	247.57
748.68	247.29
749.01	246.98
749.34	246.75
749.67	246.49
750.00	246.23
750.33	246.03
750.65	245.75
750.98	245.35
751.31	245.10
751.64	244.86
751.97	244.70
752.29	244.41
752.62	244.12
752.95	243.89
753.28	243.64
753.60	243.41
753.93	243.20
754.26	242.97
754.59	242.69
754.91	242.48
755.24	242.21
755.57	241.99
755.90	241.79
756.22	241.57
756.55	241.33
756.88	241.09
757.20	240.84
757.53	240.66
757.86	240.48
758.19	240.28
758.51	240.09
758.84	239.82
759.17	239.65
759.49	239.48
759.82	239.31
760.15	239.15
760.47	238.99
760.80	238.75
761.13	238.60
761.45	238.42
761.78	238.23
762.11	238.12
762.43	237.94
762.76	237.75
763.08	237.60
763.41	237.46
763.74	237.33
764.06	237.17
764.39	236.96
764.71	236.82
765.04	236.65
765.37	236.52
765.69	236.40
766.02	236.24
766.34	236.08
766.67	235.92
767.00	235.77
767.32	235.66
767.65	235.65
767.97	235.49
768.30	235.38
768.62	235.23
768.95	235.07
769.27	234.97
769.60	234.87
769.92	234.73
770.25	234.56
770.57	234.43
770.90	234.28
771.22	234.17
771.55	234.04
771.87	233.98
772.20	233.83
772.52	233.80
772.85	233.81
773.17	233.70
773.50	233.62
773.82	233.52
774.15	233.40
774.47	233.23
774.80	233.13
775.12	233.01
775.45	232.93
775.77	232.85
776.09	232.79
776.42	232.75
776.74	232.68
777.07	232.63
777.39	232.55
777.72	232.49
778.04	232.44
778.36	232.38
778.69	232.29
779.01	232.27
779.33	232.10
779.66	231.91
779.98	231.82
780.31	231.73
780.63	231.70
780.95	231.63
781.28	231.52
781.60	231.45
781.92	231.37
782.25	231.33
782.57	231.25
782.89	231.15
783.22	231.05
783.54	230.96
783.86	230.92
784.19	230.83
784.51	230.82
784.83	230.71
785.16	230.66
785.48	230.58
785.80	230.47
786.12	230.42
786.45	230.36
786.77	230.32
787.09	230.26
787.42	230.16
787.74	230.10
788.06	230.06
788.38	230.03
788.71	229.99
789.03	229.93
789.35	229.90
789.67	229.83
789.99	229.78
790.32	229.73
790.64	229.65
790.96	229.69
791.28	229.59
791.61	229.55
791.93	229.50
792.25	229.47
792.57	229.51
792.89	229.44
793.21	229.39
793.54	229.33
793.86	229.28
794.18	229.25
794.50	229.20
794.82	229.16
795.14	229.12
795.47	229.07
795.79	229.03
796.11	228.94
796.43	228.90
796.75	228.85
797.07	228.80
797.39	228.76
797.71	228.62
798.04	228.59
798.36	228.59
798.68	228.56
799.00	228.51
799.32	228.42
799.64	228.40
799.96	228.36
800.28	228.35
800.60	228.31
800.92	228.28
801.24	228.24
801.56	228.22
801.89	228.19
802.21	228.18
802.53	228.10
802.85	228.13
803.17	228.15
803.49	228.09
803.81	228.06
804.13	228.02
804.45	228.01
804.77	227.97
805.09	227.90
805.41	227.85
805.73	227.80
806.05	227.74
806.37	227.71
806.69	227.66
807.01	227.60
807.33	227.59
807.65	227.51
807.97	227.50
808.28	227.43
808.60	227.40
808.92	227.37
809.24	227.40
809.56	227.35
809.88	227.30
810.20	227.31
810.52	227.29
810.84	227.26
811.16	227.22
811.48	227.21
811.80	227.24
812.12	227.22
812.43	227.25
812.75	227.23
813.07	227.21
813.39	227.23
813.71	227.21
814.03	227.15
814.35	227.14
814.67	227.11
814.98	227.10
815.30	227.05
815.62	227.00
815.94	226.90
816.26	226.93
816.58	226.89
816.89	226.88
817.21	226.84
817.53	226.81
817.85	226.81
818.17	226.79
818.48	226.74
818.80	226.73
819.12	226.66
819.44	226.63
819.76	226.57
820.07	226.54
820.39	226.54
820.71	226.55
821.03	226.53
821.34	226.50
821.66	226.52
821.98	226.53
822.30	226.52
822.61	226.63
822.93	226.56
823.25	226.55
823.57	226.50
823.88	226.53
824.20	226.50
824.52	226.51
824.83	226.49
825.15	226.47
825.47	226.44
825.79	226.43
826.10	226.37
826.42	226.37
826.74	226.36
827.05	226.34
827.37	226.33
827.69	226.32
828.00	226.30
828.32	226.25
828.64	226.21
828.95	226.23
829.27	226.15
829.58	226.11
829.90	226.10
830.22	226.09
830.53	226.03
830.85	226.05
831.17	226.00
831.48	225.97
831.80	225.96
832.11	225.96
832.43	225.92
832.75	225.93
833.06	225.97
833.38	225.95
833.69	225.93
834.01	225.90
834.32	225.90
834.64	225.88
834.96	225.86
835.27	225.84
835.59	225.81
835.90	225.80
836.22	225.79
836.53	225.77
836.85	225.76
837.16	225.86
837.48	225.86
837.79	225.88
838.11	225.85
838.42	225.85
838.74	225.84
839.05	225.83
839.37	225.83
839.68	225.75
840.00	225.72
840.31	225.70
840.63	225.69
840.94	225.67
841.26	225.65
841.57	225.65
841.88	225.66
842.20	225.65
842.51	225.59
842.83	225.58
843.14	225.64
843.46	225.60
843.77	225.54
844.08	225.49
844.40	225.47
844.71	225.45
845.03	225.42
845.34	225.40
845.65	225.42
845.97	225.42
846.28	225.43
846.60	225.41
846.91	225.40
847.22	225.41
847.54	225.43
847.85	225.45
848.16	225.45
848.48	225.44
848.79	225.47
849.10	225.51
849.42	225.53
849.73	225.43
850.04	225.46
850.36	225.40
850.67	225.38
850.98	225.40
851.30	225.43
851.61	225.43
851.92	225.45
852.23	225.46
852.55	225.44
852.86	225.46
853.17	225.49
853.49	225.54
853.80	225.52
854.11	225.51
854.42	225.50
854.74	225.49
855.05	225.45
855.36	225.39
855.67	225.41
855.99	225.38
856.30	225.50
856.61	225.52
856.92	225.55
857.23	225.58
857.55	225.57
857.86	225.54
858.17	225.56
858.48	225.53
858.79	225.52
859.11	225.56
859.42	225.52
859.73	225.56
860.04	225.53
860.35	225.54
860.66	225.50
860.98	225.52
861.29	225.54
861.60	225.58
861.91	225.58
862.22	225.54
862.53	225.53
862.84	225.42
863.16	225.41
863.47	225.37
863.78	225.36
864.09	225.37
864.40	225.37
864.71	225.36
865.02	225.38
865.33	225.35
865.64	225.31
865.95	225.33
866.27	225.35
866.58	225.31
866.89	225.28
867.20	225.30
867.51	225.26
867.82	225.22
868.13	225.21
868.44	225.20
868.75	225.19
869.06	225.19
869.37	225.18
869.68	225.13
869.99	225.15
870.30	225.12
870.61	225.09
870.92	225.06
871.23	225.07
871.54	225.09
871.85	225.11
872.16	225.13
872.47	225.11
872.78	225.05
873.09	225.04
873.40	225.04
873.71	225.02
874.02	225.01
874.33	225.00
874.64	224.96
874.95	224.97
875.26	224.95
875.56	224.96
875.87	224.94
876.18	224.97
876.49	225.08
876.80	225.05
877.11	225.02
877.42	225.02
877.73	224.98
878.04	224.92
878.35	224.92
878.66	224.87
878.96	224.85
879.27	224.86
879.58	224.87
879.89	224.83
880.20	224.85
880.51	224.85
880.82	224.86
881.12	224.86
881.43	224.84
881.74	224.82
882.05	224.79
882.36	224.77
882.67	224.77
882.97	224.66
883.28	224.67
883.59	224.70
883.90	224.71
884.21	224.71
884.51	224.74
884.82	224.71
885.13	224.73
885.44	224.72
885.74	224.70
886.05	224.71
886.36	224.72
886.67	224.71
886.98	224.78
887.28	224.76
887.59	224.73
887.90	224.75
888.20	224.73
888.51	224.76
888.82	224.76
889.13	224.77
889.43	224.83
889.74	224.83
890.05	224.83
890.35	224.83
890.66	224.83
890.97	224.81
891.28	224.83
891.58	224.81
891.89	224.84
892.20	224.81
892.50	224.82
892.81	224.85
893.12	224.85
893.42	224.78
893.73	224.82
894.04	224.86
894.34	224.87
894.65	224.90
894.95	224.91
895.26	224.91
895.57	224.94
895.87	224.86
896.18	224.89
896.48	224.89
896.79	224.91
897.10	224.93
897.40	224.94
897.71	224.94
898.01	224.97
898.32	224.98
898.63	224.97
898.93	224.99
899.24	225.00
899.54	224.99
899.85	225.03
900.15	225.04
900.46	225.04
900.76	225.04
901.07	225.02
901.38	225.01
901.68	225.02
901.99	224.99
902.29	225.02
902.60	224.99
902.90	224.99
903.21	224.97
903.51	225.00
903.82	224.99
904.12	225.02
904.43	225.02
904.73	225.03
905.03	225.05
905.34	225.14
905.64	225.12
905.95	225.14
906.25	225.10
906.56	225.08
906.86	225.09
907.17	225.08
907.47	225.14
907.77	225.13
908.08	225.14
908.38	225.16
908.69	225.18
908.99	225.21
909.30	225.19
909.60	225.17
909.90	225.14
910.21	225.12
910.51	225.08
910.81	225.07
911.12	225.06
911.42	225.07
911.73	224.95
912.03	224.97
912.33	224.98
912.64	224.96
912.94	224.93
913.24	224.91
913.55	224.92
913.85	224.89
914.15	224.91
914.46	224.93
914.76	224.90
915.06	224.86
915.37	224.81
915.67	224.85
915.97	224.88
916.27	224.86
916.58	224.86
916.88	224.90
917.18	224.90
917.49	224.97
917.79	224.95
918.09	224.96
918.39	224.94
918.70	224.91
919.00	224.89
919.30	224.94
919.60	224.91
919.91	224.88
920.21	224.87
920.51	224.83
920.81	224.78
921.12	224.76
921.42	224.77
921.72	224.77
922.02	224.72
922.32	224.74
922.63	224.74
922.93	224.75
923.23	224.72
923.53	224.70
923.83	224.62
924.13	224.61
924.44	224.60
924.74	224.63
925.04	224.62
925.34	224.64
925.64	224.61
925.94	224.65
926.24	224.72
926.55	224.72
926.85	224.70
927.15	224.72
927.45	224.73
927.75	224.75
928.05	224.74
928.35	224.75
928.65	224.72
928.95	224.72
929.26	224.70
929.56	224.70
929.86	224.72
930.16	224.69
930.46	224.71
930.76	224.68
931.06	224.65
931.36	224.64
931.66	224.69
931.96	224.69
932.26	224.68
932.56	224.62
932.86	224.60
933.16	224.62
933.46	224.61
933.76	224.61
934.06	224.61
934.36	224.67
934.66	224.67
934.96	224.67
935.26	224.68
935.56	224.69
935.86	224.69
936.16	224.68
936.46	224.69
936.76	224.67
937.06	224.71
937.36	224.72
937.66	224.74
937.96	224.69
938.26	224.67
938.56	224.68
938.86	224.69
939.16	224.74
939.46	224.77
939.76	224.77
940.06	224.79
940.35	224.75
940.65	224.72
940.95	224.73
941.25	224.72
941.55	224.69
941.85	224.68
942.15	224.72
942.45	224.75
942.75	224.74
943.04	224.78
943.34	224.82
943.64	224.78
943.94	224.78
944.24	224.79
944.54	224.79
944.84	224.77
945.13	224.74
945.43	224.73
945.73	224.74
946.03	224.75
946.33	224.73
946.62	224.73
946.92	224.74
947.22	224.74
947.52	224.73
947.82	224.74
948.11	224.74
948.41	224.68
948.71	224.63
949.01	224.67
949.31	224.63
949.60	224.60
949.90	224.63
950.20	224.62
950.50	224.64
950.79	224.64
951.09	224.65
951.39	224.65
951.69	224.66
951.98	224.64
952.28	224.63
952.58	224.61
952.87	224.59
953.17	224.57
953.47	224.55
953.76	224.54
954.06	224.54
954.36	224.52
954.66	224.55
954.95	224.60
955.25	224.57
955.55	224.57
955.84	224.53
956.14	224.53
956.44	224.51
956.73	224.48
957.03	224.51
957.32	224.47
957.62	224.48
957.92	224.45
958.21	224.45
958.51	224.54
958.81	224.60
959.10	224.62
959.40	224.66
959.69	224.68
959.99	224.69
960.29	224.65
960.58	224.63
960.88	224.64
961.17	224.61
961.47	224.61
961.76	224.59
962.06	224.62
962.36	224.58
962.65	224.56
962.95	224.57
963.24	224.54
963.54	224.54
963.83	224.53
964.13	224.57
964.42	224.53
964.72	224.47
965.01	224.44
965.31	224.43
965.60	224.42
965.90	224.49
966.19	224.48
966.49	224.51
966.78	224.56
967.08	224.55
967.37	224.59
967.67	224.60
967.96	224.65
968.26	224.67
968.55	224.70
968.85	224.72
969.14	224.73
969.43	224.72
969.73	224.73
970.02	224.74
970.32	224.71
970.61	224.73
970.91	224.68
971.20	224.65
971.49	224.64
971.79	224.64
972.08	224.58
972.38	224.60
972.67	224.62
972.96	224.58
973.26	224.58
973.55	224.64
973.85	224.61
974.14	224.58
974.43	224.57
974.73	224.58
975.02	224.60
975.31	224.60
975.61	224.62
975.90	224.61
976.19	224.60
976.49	224.63
976.78	224.63
977.07	224.66
977.37	224.66
977.66	224.68
977.95	224.63
978.24	224.62
978.54	224.61
978.83	224.59
979.12	224.58
979.42	224.57
979.71	224.51
980.00	224.55
980.29	224.56
980.59	224.56
980.88	224.56
981.17	224.52
981.46	224.54
981.76	224.56
982.05	224.59
982.34	224.61
982.63	224.60
982.93	224.59
983.22	224.62
983.51	224.65
983.80	224.66
984.09	224.71
984.39	224.71
984.68	224.71
984.97	224.72
985.26	224.71
985.55	224.73
985.85	224.73
986.14	224.73
986.43	224.73
986.72	224.72
987.01	224.68
987.30	224.69
987.59	224.67
987.89	224.63
988.18	224.59
988.47	224.59
988.76	224.58
989.05	224.60
989.34	224.57
989.63	224.58
989.92	224.54
990.22	224.52
990.51	224.53
990.80	224.53
991.09	224.56
991.38	224.59
991.67	224.56
991.96	224.53
992.25	224.55
992.54	224.53
992.83	224.53
993.12	224.54
993.41	224.57
993.70	224.63
993.99	224.69
994.28	224.69
994.58	224.70
994.87	224.70
995.16	224.66
995.45	224.67
995.74	224.66
996.03	224.67
996.32	224.72
996.61	224.74
996.90	224.72
997.19	224.68
997.48	224.68
997.77	224.66
998.06	224.68
998.34	224.65
998.63	224.65
998.92	224.64
999.21	224.64
999.50	224.63
999.79	224.57
1000.08	224.54
1000.37	224.54
1000.66	224.51
1000.95	224.54
1001.24	224.54
1001.53	224.55
1001.82	224.54
1002.11	224.52
1002.40	224.48
1002.68	224.49
1002.97	224.58
1003.26	224.55
1003.55	224.56
1003.84	224.58
1004.13	224.59
1004.42	224.58
1004.71	224.57
1004.99	224.57
1005.28	224.59
1005.57	224.56
1005.86	224.54
1006.15	224.51
1006.44	224.51
1006.72	224.55
1007.01	224.51
1007.30	224.50
1007.59	224.46
1007.88	224.44
1008.17	224.46
1008.45	224.41
1008.74	224.37
1009.03	224.31
1009.32	224.34
1009.60	224.33
1009.89	224.30
1010.18	224.25
1010.47	224.26
1010.76	224.25
1011.04	224.25
1011.33	224.24
1011.62	224.26
1011.91	224.29
1012.19	224.32
1012.48	224.31
1012.77	224.28
1013.05	224.33
1013.34	224.37
1013.63	224.38
1013.92	224.41
1014.20	224.42
1014.49	224.44
1014.78	224.46
1015.06	224.42
1015.35	224.39
1015.64	224.42
1015.92	224.41
1016.21	224.44
1016.50	224.43
1016.78	224.42
1017.07	224.41
1017.36	224.40
1017.64	224.37
1017.93	224.35
1018.22	224.33
1018.50	224.34
1018.79	224.35
1019.08	224.31
1019.36	224.30
1019.65	224.28
1019.93	224.30
1020.22	224.28
1020.51	224.35
1020.79	224.33
1021.08	224.08
1021.36	224.54
1021.65	224.45
1021.94	224.39
1022.22	224.35
1022.51	224.29
1022.79	224.95
1023.08	224.30
1023.36	225.72
1023.65	224.10
>>>>>End Processed Spectral Data<<<<<
