SpectraSuite Data File
++++++++++++++++++++++++++++++++++++
Date: Fri Feb 01 15:39:19 EST 2013
User: group
Dark Spectrum Present: No
Reference Spectrum Present: No
Number of Sampled Component Spectra: 1
Spectrometers: USB2E7196
Integration Time (usec): 35000 (USB2E7196)
Spectra Averaged: 100 (USB2E7196)
Boxcar Smoothing: 10 (USB2E7196)
Correct for Electrical Dark: No (USB2E7196)
Strobe/Lamp Enabled: No (USB2E7196)
Correct for Detector Non-linearity: No (USB2E7196)
Correct for Stray Light: No (USB2E7196)
Number of Pixels in Processed Spectrum: 2048
>>>>>Begin Processed Spectral Data<<<<<
339.09	0.00
339.48	214.51
339.86	215.90
340.24	217.91
340.63	219.28
341.01	221.96
341.39	221.70
341.78	223.56
342.16	224.54
342.54	225.23
342.93	213.26
343.31	224.04
343.69	224.59
344.07	225.08
344.46	225.49
344.84	225.89
345.22	226.13
345.60	226.41
345.99	226.57
346.37	226.71
346.75	226.82
347.13	226.90
347.52	226.98
347.90	227.08
348.28	227.16
348.66	227.17
349.05	227.16
349.43	227.23
349.81	227.29
350.19	227.34
350.57	227.44
350.96	227.51
351.34	227.59
351.72	227.70
352.10	227.80
352.48	227.89
352.87	227.91
353.25	227.98
353.63	228.03
354.01	228.11
354.39	228.18
354.77	228.24
355.15	228.35
355.54	228.40
355.92	228.43
356.30	228.48
356.68	228.59
357.06	228.69
357.44	228.74
357.82	228.78
358.20	228.87
358.58	228.93
358.97	228.96
359.35	229.03
359.73	229.11
360.11	229.16
360.49	229.22
360.87	229.29
361.25	229.32
361.63	229.38
362.01	229.41
362.39	229.42
362.77	229.45
363.15	229.44
363.53	229.45
363.91	229.48
364.29	229.52
364.67	229.43
365.05	229.41
365.43	229.41
365.81	229.43
366.19	229.44
366.57	229.46
366.95	229.50
367.33	229.46
367.71	229.46
368.09	229.44
368.47	229.39
368.85	229.35
369.23	229.36
369.61	229.31
369.99	229.31
370.37	229.28
370.75	229.27
371.13	229.24
371.51	229.19
371.89	229.13
372.27	229.04
372.65	229.01
373.03	228.98
373.41	228.93
373.78	228.86
374.16	228.76
374.54	228.64
374.92	228.55
375.30	228.47
375.68	228.35
376.06	228.27
376.44	228.17
376.82	228.12
377.19	228.04
377.57	227.95
377.95	227.85
378.33	227.79
378.71	227.68
379.09	227.60
379.47	227.52
379.84	227.44
380.22	227.35
380.60	227.26
380.98	227.15
381.36	227.05
381.73	226.96
382.11	226.88
382.49	226.84
382.87	226.74
383.25	226.66
383.62	226.69
384.00	226.62
384.38	226.61
384.76	226.56
385.13	226.55
385.51	226.51
385.89	226.47
386.27	226.39
386.64	226.35
387.02	226.33
387.40	226.30
387.78	226.28
388.15	226.28
388.53	226.24
388.91	226.23
389.29	226.23
389.66	226.25
390.04	226.21
390.42	226.20
390.79	226.22
391.17	226.21
391.55	226.15
391.92	226.16
392.30	226.19
392.68	226.16
393.05	226.15
393.43	226.16
393.81	226.19
394.18	226.23
394.56	226.24
394.94	226.29
395.31	226.31
395.69	226.38
396.06	226.43
396.44	226.49
396.82	226.53
397.19	226.63
397.57	226.66
397.95	226.77
398.32	226.81
398.70	226.89
399.07	226.97
399.45	227.03
399.82	227.09
400.20	227.16
400.58	227.26
400.95	227.29
401.33	227.42
401.70	227.55
402.08	227.66
402.45	227.75
402.83	227.87
403.20	227.97
403.58	228.10
403.95	228.26
404.33	228.40
404.71	228.52
405.08	228.67
405.46	228.80
405.83	228.92
406.21	229.09
406.58	229.29
406.96	229.45
407.33	229.62
407.70	229.83
408.08	230.07
408.45	230.28
408.83	230.55
409.20	230.74
409.58	230.94
409.95	231.18
410.33	231.47
410.70	231.72
411.08	232.03
411.45	232.32
411.82	232.58
412.20	232.92
412.57	233.32
412.95	233.61
413.32	234.02
413.69	234.44
414.07	234.87
414.44	235.30
414.82	235.82
415.19	236.36
415.56	236.91
415.94	237.42
416.31	238.04
416.68	238.64
417.06	239.33
417.43	240.00
417.81	240.75
418.18	241.50
418.55	242.32
418.93	243.19
419.30	244.05
419.67	244.98
420.04	245.94
420.42	246.93
420.79	248.09
421.16	249.25
421.54	250.42
421.91	251.61
422.28	252.82
422.66	254.14
423.03	255.41
423.40	256.71
423.77	258.19
424.15	259.63
424.52	261.13
424.89	262.75
425.26	264.31
425.64	265.80
426.01	267.41
426.38	269.02
426.75	270.72
427.13	272.46
427.50	274.27
427.87	276.13
428.24	277.98
428.61	279.75
428.99	281.65
429.36	283.77
429.73	285.85
430.10	287.94
430.47	290.02
430.85	292.20
431.22	294.47
431.59	296.78
431.96	299.04
432.33	301.55
432.70	303.91
433.08	306.72
433.45	309.37
433.82	311.97
434.19	314.91
434.56	317.70
434.93	320.40
435.30	323.02
435.68	325.93
436.05	328.79
436.42	331.58
436.79	334.12
437.16	336.87
437.53	339.74
437.90	342.53
438.27	345.26
438.64	348.09
439.01	350.66
439.38	352.90
439.75	355.07
440.13	357.55
440.50	359.90
440.87	361.74
441.24	363.68
441.61	365.82
441.98	367.36
442.35	369.16
442.72	371.00
443.09	372.80
443.46	373.79
443.83	374.40
444.20	374.93
444.57	375.87
444.94	376.11
445.31	376.43
445.68	376.76
446.05	376.84
446.42	376.40
446.79	376.05
447.16	375.64
447.53	375.32
447.90	374.17
448.27	373.04
448.64	371.47
449.01	370.32
449.37	368.38
449.74	366.44
450.11	364.21
450.48	361.72
450.85	359.22
451.22	357.09
451.59	355.05
451.96	353.13
452.33	350.49
452.70	348.14
453.07	345.32
453.43	342.42
453.80	339.65
454.17	337.00
454.54	334.37
454.91	331.64
455.28	328.97
455.65	326.46
456.02	324.01
456.38	321.84
456.75	319.18
457.12	316.89
457.49	314.66
457.86	312.47
458.23	310.62
458.59	308.57
458.96	306.48
459.33	304.60
459.70	302.68
460.07	301.15
460.43	299.43
460.80	297.78
461.17	296.34
461.54	294.85
461.91	293.43
462.27	292.05
462.64	290.81
463.01	289.45
463.38	288.16
463.74	286.78
464.11	285.67
464.48	284.60
464.85	283.52
465.21	282.65
465.58	281.74
465.95	280.61
466.32	279.74
466.68	278.82
467.05	277.93
467.42	277.07
467.78	276.12
468.15	275.24
468.52	274.60
468.88	273.75
469.25	272.98
469.62	272.35
469.98	271.61
470.35	270.96
470.72	270.34
471.08	269.67
471.45	269.12
471.82	268.51
472.18	267.95
472.55	267.49
472.92	266.96
473.28	266.48
473.65	266.04
474.02	265.56
474.38	265.18
474.75	264.88
475.11	264.55
475.48	264.29
475.85	264.07
476.21	263.80
476.58	263.63
476.94	263.48
477.31	263.32
477.67	263.21
478.04	263.10
478.41	263.07
478.77	263.12
479.14	263.05
479.50	263.06
479.87	263.07
480.23	263.17
480.60	263.24
480.96	263.34
481.33	263.55
481.69	263.78
482.06	263.96
482.42	264.11
482.79	264.37
483.15	264.68
483.52	265.07
483.88	265.46
484.25	265.85
484.61	266.26
484.98	266.71
485.34	267.26
485.71	267.86
486.07	268.44
486.44	268.99
486.80	269.71
487.17	270.45
487.53	271.32
487.90	272.17
488.26	273.14
488.62	274.15
488.99	275.09
489.35	276.08
489.72	277.20
490.08	278.41
490.44	279.62
490.81	280.96
491.17	282.30
491.54	283.75
491.90	285.29
492.26	286.92
492.63	288.69
492.99	290.42
493.36	292.29
493.72	294.36
494.08	296.47
494.45	298.72
494.81	301.07
495.17	303.48
495.54	306.03
495.90	308.66
496.26	311.48
496.63	314.50
496.99	317.61
497.35	320.88
497.72	324.30
498.08	327.85
498.44	331.46
498.80	335.37
499.17	339.39
499.53	343.51
499.89	347.86
500.26	352.32
500.62	357.07
500.98	362.04
501.34	367.13
501.71	372.46
502.07	377.93
502.43	383.52
502.79	389.30
503.16	395.42
503.52	401.67
503.88	408.04
504.24	414.64
504.60	421.54
504.97	428.70
505.33	436.02
505.69	443.75
506.05	451.57
506.41	459.49
506.78	467.68
507.14	476.19
507.50	484.92
507.86	493.94
508.22	503.07
508.59	512.29
508.95	521.88
509.31	531.67
509.67	541.74
510.03	552.01
510.39	562.66
510.75	573.47
511.12	584.47
511.48	595.82
511.84	607.30
512.20	618.85
512.56	630.75
512.92	642.91
513.28	655.15
513.64	667.65
514.00	680.25
514.37	693.12
514.73	706.07
515.09	719.17
515.45	732.48
515.81	746.18
516.17	760.19
516.53	774.31
516.89	788.56
517.25	802.73
517.61	817.22
517.97	831.60
518.33	845.90
518.69	860.67
519.05	875.71
519.41	890.95
519.77	906.53
520.13	921.92
520.49	937.31
520.85	952.89
521.21	968.63
521.57	984.95
521.93	1000.77
522.29	1017.27
522.65	1033.50
523.01	1049.78
523.37	1065.75
523.73	1082.01
524.09	1098.11
524.45	1114.38
524.81	1131.13
525.17	1148.02
525.53	1165.05
525.89	1182.03
526.25	1198.87
526.61	1215.15
526.97	1231.88
527.33	1248.38
527.68	1265.04
528.04	1281.55
528.40	1298.16
528.76	1315.23
529.12	1331.96
529.48	1348.90
529.84	1364.97
530.20	1381.52
530.56	1398.56
530.91	1416.00
531.27	1432.70
531.63	1449.18
531.99	1465.84
532.35	1481.80
532.71	1497.67
533.07	1513.86
533.42	1529.92
533.78	1545.98
534.14	1562.29
534.50	1577.62
534.86	1593.51
535.21	1608.80
535.57	1624.87
535.93	1640.46
536.29	1655.21
536.65	1670.14
537.00	1684.98
537.36	1700.32
537.72	1715.02
538.08	1729.34
538.44	1743.16
538.79	1757.10
539.15	1770.77
539.51	1784.52
539.87	1798.78
540.22	1812.44
540.58	1826.20
540.94	1839.42
541.29	1852.47
541.65	1865.19
542.01	1878.35
542.37	1890.66
542.72	1903.05
543.08	1914.81
543.44	1926.97
543.79	1938.26
544.15	1949.17
544.51	1960.69
544.87	1971.58
545.22	1982.38
545.58	1992.63
545.94	2002.38
546.29	2012.16
546.65	2022.04
547.01	2031.19
547.36	2039.94
547.72	2048.53
548.07	2056.47
548.43	2064.57
548.79	2072.61
549.14	2080.12
549.50	2087.57
549.86	2095.34
550.21	2102.67
550.57	2109.91
550.92	2116.56
551.28	2123.60
551.64	2130.89
551.99	2137.43
552.35	2143.63
552.70	2149.66
553.06	2155.74
553.41	2162.15
553.77	2168.31
554.13	2174.38
554.48	2180.64
554.84	2186.08
555.19	2191.35
555.55	2196.41
555.90	2201.01
556.26	2205.67
556.61	2210.32
556.97	2214.49
557.32	2218.56
557.68	2222.67
558.03	2226.89
558.39	2230.76
558.74	2235.30
559.10	2238.95
559.45	2242.62
559.81	2247.01
560.16	2250.93
560.52	2254.22
560.87	2257.45
561.23	2260.11
561.58	2263.10
561.94	2265.55
562.29	2268.03
562.64	2270.58
563.00	2273.16
563.35	2276.65
563.71	2279.78
564.06	2283.09
564.42	2286.00
564.77	2288.52
565.12	2290.75
565.48	2292.56
565.83	2294.25
566.19	2295.63
566.54	2296.62
566.89	2297.72
567.25	2298.13
567.60	2299.55
567.96	2301.06
568.31	2302.04
568.66	2302.99
569.02	2303.35
569.37	2303.65
569.72	2304.38
570.08	2304.63
570.43	2304.83
570.78	2304.21
571.14	2302.87
571.49	2301.48
571.84	2301.17
572.20	2299.95
572.55	2298.95
572.90	2297.46
573.26	2296.04
573.61	2294.30
573.96	2292.54
574.31	2289.61
574.67	2286.54
575.02	2282.80
575.37	2279.48
575.72	2275.55
576.08	2272.25
576.43	2269.00
576.78	2265.29
577.13	2262.09
577.49	2258.99
577.84	2255.31
578.19	2251.58
578.54	2247.76
578.90	2243.47
579.25	2237.78
579.60	2232.83
579.95	2227.81
580.30	2222.65
580.66	2217.67
581.01	2212.69
581.36	2207.76
581.71	2203.43
582.06	2198.97
582.42	2194.43
582.77	2189.07
583.12	2184.56
583.47	2179.73
583.82	2174.66
584.17	2169.34
584.53	2163.75
584.88	2157.95
585.23	2152.12
585.58	2146.61
585.93	2141.12
586.28	2136.37
586.63	2131.33
586.98	2126.17
587.34	2121.35
587.69	2116.51
588.04	2110.96
588.39	2105.19
588.74	2098.73
589.09	2092.51
589.44	2085.70
589.79	2079.71
590.14	2074.23
590.49	2067.73
590.84	2061.49
591.19	2055.46
591.54	2049.00
591.89	2041.50
592.25	2034.83
592.60	2027.59
592.95	2019.87
593.30	2012.38
593.65	2004.85
594.00	1997.83
594.35	1990.52
594.70	1982.47
595.05	1975.12
595.40	1967.86
595.75	1960.48
596.10	1954.14
596.45	1947.36
596.80	1941.11
597.15	1934.42
597.50	1927.09
597.85	1920.54
598.19	1913.64
598.54	1906.52
598.89	1899.83
599.24	1893.94
599.59	1887.15
599.94	1881.01
600.29	1874.66
600.64	1868.19
600.99	1860.63
601.34	1853.61
601.69	1846.68
602.04	1839.76
602.39	1832.46
602.74	1825.62
603.08	1818.86
603.43	1812.13
603.78	1804.88
604.13	1797.61
604.48	1790.13
604.83	1783.29
605.18	1776.02
605.53	1768.10
605.87	1760.00
606.22	1752.86
606.57	1744.94
606.92	1737.63
607.27	1730.34
607.62	1723.36
607.96	1715.99
608.31	1709.33
608.66	1701.87
609.01	1694.23
609.36	1686.55
609.70	1678.52
610.05	1670.43
610.40	1662.69
610.75	1654.28
611.10	1646.54
611.44	1638.12
611.79	1630.23
612.14	1621.51
612.49	1612.60
612.83	1604.19
613.18	1596.17
613.53	1587.91
613.88	1579.45
614.22	1571.12
614.57	1562.54
614.92	1554.51
615.27	1547.02
615.61	1538.72
615.96	1530.65
616.31	1523.03
616.65	1515.81
617.00	1508.18
617.35	1500.63
617.70	1492.17
618.04	1483.75
618.39	1475.59
618.74	1468.16
619.08	1459.88
619.43	1452.37
619.78	1445.47
620.12	1438.24
620.47	1430.66
620.82	1422.67
621.16	1415.27
621.51	1407.65
621.85	1400.14
622.20	1391.64
622.55	1383.25
622.89	1375.43
623.24	1367.81
623.59	1360.49
623.93	1352.97
624.28	1345.76
624.62	1338.17
624.97	1331.13
625.32	1324.41
625.66	1317.40
626.01	1310.12
626.35	1302.65
626.70	1294.80
627.04	1287.07
627.39	1279.34
627.73	1271.95
628.08	1264.90
628.43	1257.59
628.77	1250.21
629.12	1242.52
629.46	1235.34
629.81	1227.92
630.15	1220.63
630.50	1213.18
630.84	1204.88
631.19	1196.95
631.53	1189.36
631.88	1181.69
632.22	1174.09
632.57	1166.72
632.91	1159.17
633.26	1151.78
633.60	1144.44
633.95	1137.42
634.29	1130.34
634.64	1123.70
634.98	1116.41
635.32	1109.24
635.67	1102.66
636.01	1096.04
636.36	1089.21
636.70	1082.84
637.05	1076.19
637.39	1069.74
637.73	1063.21
638.08	1057.45
638.42	1051.47
638.77	1045.15
639.11	1038.55
639.45	1032.16
639.80	1025.49
640.14	1019.05
640.49	1012.48
640.83	1006.18
641.17	999.96
641.52	993.61
641.86	987.17
642.20	981.25
642.55	975.08
642.89	968.47
643.23	961.89
643.58	956.15
643.92	949.90
644.26	943.89
644.61	937.89
644.95	931.93
645.29	925.32
645.64	918.55
645.98	912.19
646.32	906.44
646.66	900.34
647.01	894.54
647.35	888.82
647.69	883.02
648.04	877.51
648.38	871.68
648.72	865.72
649.06	859.67
649.41	853.77
649.75	847.76
650.09	841.94
650.43	836.20
650.78	830.00
651.12	824.02
651.46	818.30
651.80	812.57
652.14	807.16
652.49	801.74
652.83	796.61
653.17	790.86
653.51	785.14
653.85	779.83
654.20	774.20
654.54	768.19
654.88	762.48
655.22	756.56
655.56	750.92
655.90	745.49
656.25	740.23
656.59	734.99
656.93	729.90
657.27	724.72
657.61	719.25
657.95	714.21
658.29	709.13
658.64	703.88
658.98	698.56
659.32	693.07
659.66	687.95
660.00	682.67
660.34	677.74
660.68	672.82
661.02	667.79
661.36	663.10
661.70	658.67
662.05	654.32
662.39	650.08
662.73	645.59
663.07	641.18
663.41	636.71
663.75	632.18
664.09	627.66
664.43	623.32
664.77	619.21
665.11	614.95
665.45	610.82
665.79	606.72
666.13	602.59
666.47	598.49
666.81	594.29
667.15	590.11
667.49	586.34
667.83	582.52
668.17	578.56
668.51	574.48
668.85	570.47
669.19	566.62
669.53	562.71
669.87	558.81
670.21	555.13
670.55	551.57
670.89	548.12
671.23	544.62
671.57	541.12
671.91	537.55
672.25	534.05
672.58	530.50
672.92	527.16
673.26	524.01
673.60	520.90
673.94	517.74
674.28	514.82
674.62	511.80
674.96	508.70
675.30	505.75
675.64	502.84
675.97	500.02
676.31	497.12
676.65	494.18
676.99	491.50
677.33	488.63
677.67	485.77
678.01	482.68
678.34	479.71
678.68	476.81
679.02	474.05
679.36	471.31
679.70	468.60
680.04	465.82
680.37	462.92
680.71	460.11
681.05	457.53
681.39	454.86
681.73	452.24
682.06	449.72
682.40	447.14
682.74	444.60
683.08	442.10
683.42	439.55
683.75	437.07
684.09	434.49
684.43	432.05
684.77	429.56
685.10	427.30
685.44	424.97
685.78	422.69
686.12	420.49
686.45	418.21
686.79	415.98
687.13	413.82
687.46	411.63
687.80	409.49
688.14	407.29
688.48	405.22
688.81	402.93
689.15	400.76
689.49	398.66
689.82	396.58
690.16	394.49
690.50	392.55
690.83	390.61
691.17	388.67
691.51	386.72
691.84	384.89
692.18	382.87
692.52	380.97
692.85	379.07
693.19	377.16
693.52	375.35
693.86	373.53
694.20	371.71
694.53	369.95
694.87	368.08
695.21	366.26
695.54	364.43
695.88	362.73
696.21	361.03
696.55	359.32
696.88	357.61
697.22	355.96
697.56	354.33
697.89	352.65
698.23	351.07
698.56	349.47
698.90	347.87
699.23	346.27
699.57	344.65
699.90	343.05
700.24	341.52
700.58	339.98
700.91	338.50
701.25	337.08
701.58	335.73
701.92	334.41
702.25	333.05
702.59	331.68
702.92	330.35
703.26	329.02
703.59	327.77
703.93	326.63
704.26	325.37
704.60	324.04
704.93	322.79
705.26	321.50
705.60	320.31
705.93	319.14
706.27	318.09
706.60	317.04
706.94	315.98
707.27	314.84
707.61	313.75
707.94	312.70
708.27	311.62
708.61	310.49
708.94	309.49
709.28	308.53
709.61	307.59
709.94	306.64
710.28	305.59
710.61	304.61
710.95	303.55
711.28	302.65
711.61	301.72
711.95	300.82
712.28	299.92
712.61	298.90
712.95	297.95
713.28	297.08
713.61	296.21
713.95	295.31
714.28	294.47
714.61	293.63
714.95	292.77
715.28	291.94
715.61	291.12
715.95	290.26
716.28	289.38
716.61	288.54
716.95	287.74
717.28	287.06
717.61	286.30
717.94	285.53
718.28	284.73
718.61	284.00
718.94	283.30
719.27	282.59
719.61	282.02
719.94	281.39
720.27	280.71
720.60	280.03
720.94	279.41
721.27	278.86
721.60	278.30
721.93	277.70
722.27	277.12
722.60	276.55
722.93	275.98
723.26	275.47
723.59	274.90
723.93	274.36
724.26	273.78
724.59	273.26
724.92	272.74
725.25	272.25
725.59	271.74
725.92	271.22
726.25	270.73
726.58	270.21
726.91	269.70
727.24	269.21
727.57	268.73
727.91	268.25
728.24	267.77
728.57	267.24
728.90	266.79
729.23	266.31
729.56	265.89
729.89	265.43
730.22	264.93
730.55	264.52
730.89	264.07
731.22	263.62
731.55	263.17
731.88	262.73
732.21	262.28
732.54	261.87
732.87	261.45
733.20	261.06
733.53	260.72
733.86	260.34
734.19	259.95
734.52	259.58
734.85	259.25
735.18	258.78
735.51	258.44
735.84	258.10
736.17	257.75
736.50	257.32
736.83	257.09
737.16	256.75
737.49	256.40
737.82	256.05
738.15	255.73
738.48	255.38
738.81	255.08
739.14	254.75
739.47	254.39
739.80	254.10
740.13	253.80
740.46	253.42
740.79	253.10
741.12	252.79
741.45	252.48
741.78	252.13
742.11	251.86
742.44	251.54
742.77	251.22
743.10	250.89
743.43	250.60
743.75	250.23
744.08	250.10
744.41	249.80
744.74	249.51
745.07	249.22
745.40	248.98
745.73	248.70
746.06	248.45
746.39	248.21
746.71	247.90
747.04	247.60
747.37	247.34
747.70	247.09
748.03	246.84
748.36	246.64
748.68	246.40
749.01	246.15
749.34	245.90
749.67	245.68
750.00	245.51
750.33	245.31
750.65	245.09
750.98	244.72
751.31	244.55
751.64	244.36
751.97	244.22
752.29	243.99
752.62	243.78
752.95	243.55
753.28	243.34
753.60	243.17
753.93	243.04
754.26	242.84
754.59	242.63
754.91	242.43
755.24	242.19
755.57	242.01
755.90	241.87
756.22	241.70
756.55	241.50
756.88	241.29
757.20	241.11
757.53	240.93
757.86	240.75
758.19	240.57
758.51	240.42
758.84	240.18
759.17	240.00
759.49	239.83
759.82	239.73
760.15	239.59
760.47	239.42
760.80	239.24
761.13	239.13
761.45	238.98
761.78	238.82
762.11	238.72
762.43	238.56
762.76	238.41
763.08	238.28
763.41	238.18
763.74	238.05
764.06	237.87
764.39	237.70
764.71	237.57
765.04	237.42
765.37	237.27
765.69	237.15
766.02	237.01
766.34	236.88
766.67	236.72
767.00	236.60
767.32	236.55
767.65	236.49
767.97	236.38
768.30	236.27
768.62	236.16
768.95	236.03
769.27	235.94
769.60	235.85
769.92	235.69
770.25	235.55
770.57	235.42
770.90	235.33
771.22	235.23
771.55	235.14
771.87	235.06
772.20	234.95
772.52	234.95
772.85	234.97
773.17	234.86
773.50	234.76
773.82	234.67
774.15	234.50
774.47	234.36
774.80	234.23
775.12	234.14
775.45	234.07
775.77	233.98
776.09	233.91
776.42	233.80
776.74	233.78
777.07	233.72
777.39	233.64
777.72	233.57
778.04	233.52
778.36	233.47
778.69	233.42
779.01	233.39
779.33	233.26
779.66	233.11
779.98	233.07
780.31	233.01
780.63	232.95
780.95	232.95
781.28	232.86
781.60	232.82
781.92	232.78
782.25	232.73
782.57	232.66
782.89	232.60
783.22	232.54
783.54	232.47
783.86	232.41
784.19	232.34
784.51	232.32
784.83	232.28
785.16	232.20
785.48	232.14
785.80	232.10
786.12	232.06
786.45	231.99
786.77	231.95
787.09	231.89
787.42	231.81
787.74	231.74
788.06	231.73
788.38	231.66
788.71	231.61
789.03	231.57
789.35	231.56
789.67	231.51
789.99	231.48
790.32	231.40
790.64	231.37
790.96	231.42
791.28	231.37
791.61	231.33
791.93	231.30
792.25	231.25
792.57	231.25
792.89	231.18
793.21	231.13
793.54	231.06
793.86	231.02
794.18	231.02
794.50	230.99
794.82	230.94
795.14	230.97
795.47	230.93
795.79	230.88
796.11	230.84
796.43	230.80
796.75	230.78
797.07	230.76
797.39	230.73
797.71	230.63
798.04	230.58
798.36	230.53
798.68	230.49
799.00	230.47
799.32	230.40
799.64	230.40
799.96	230.42
800.28	230.44
800.60	230.42
800.92	230.39
801.24	230.32
801.56	230.29
801.89	230.21
802.21	230.19
802.53	230.16
802.85	230.15
803.17	230.16
803.49	230.11
803.81	230.08
804.13	230.07
804.45	230.02
804.77	229.97
805.09	229.95
805.41	229.90
805.73	229.85
806.05	229.83
806.37	229.78
806.69	229.74
807.01	229.72
807.33	229.67
807.65	229.62
807.97	229.67
808.28	229.64
808.60	229.61
808.92	229.58
809.24	229.60
809.56	229.53
809.88	229.44
810.20	229.40
810.52	229.41
810.84	229.32
811.16	229.29
811.48	229.27
811.80	229.24
812.12	229.23
812.43	229.23
812.75	229.17
813.07	229.13
813.39	229.09
813.71	229.00
814.03	229.00
814.35	228.96
814.67	228.90
814.98	228.87
815.30	228.87
815.62	228.81
815.94	228.73
816.26	228.77
816.58	228.76
816.89	228.75
817.21	228.69
817.53	228.71
817.85	228.71
818.17	228.69
818.48	228.68
818.80	228.68
819.12	228.62
819.44	228.59
819.76	228.58
820.07	228.58
820.39	228.57
820.71	228.55
821.03	228.53
821.34	228.52
821.66	228.49
821.98	228.45
822.30	228.44
822.61	228.50
822.93	228.43
823.25	228.42
823.57	228.40
823.88	228.39
824.20	228.38
824.52	228.36
824.83	228.34
825.15	228.29
825.47	228.25
825.79	228.26
826.10	228.27
826.42	228.25
826.74	228.23
827.05	228.22
827.37	228.20
827.69	228.19
828.00	228.16
828.32	228.16
828.64	228.14
828.95	228.20
829.27	228.13
829.58	228.12
829.90	228.12
830.22	228.12
830.53	228.09
830.85	228.07
831.17	228.03
831.48	228.05
831.80	228.06
832.11	228.05
832.43	228.03
832.75	228.00
833.06	228.06
833.38	228.03
833.69	228.00
834.01	228.01
834.32	228.04
834.64	228.05
834.96	228.05
835.27	228.03
835.59	227.96
835.90	227.93
836.22	227.91
836.53	227.87
836.85	227.84
837.16	227.94
837.48	227.94
837.79	228.01
838.11	228.00
838.42	227.98
838.74	228.01
839.05	228.03
839.37	228.00
839.68	227.96
840.00	227.96
840.31	227.97
840.63	227.97
840.94	227.92
841.26	227.90
841.57	227.89
841.88	227.91
842.20	227.90
842.51	227.93
842.83	227.93
843.14	228.00
843.46	228.03
843.77	227.99
844.08	227.95
844.40	227.89
844.71	227.90
845.03	227.91
845.34	227.88
845.65	227.85
845.97	227.87
846.28	227.82
846.60	227.83
846.91	227.81
847.22	227.81
847.54	227.85
847.85	227.87
848.16	227.86
848.48	227.84
848.79	227.89
849.10	227.88
849.42	227.86
849.73	227.77
850.04	227.73
850.36	227.67
850.67	227.69
850.98	227.69
851.30	227.65
851.61	227.63
851.92	227.65
852.23	227.67
852.55	227.63
852.86	227.66
853.17	227.65
853.49	227.69
853.80	227.69
854.11	227.65
854.42	227.67
854.74	227.65
855.05	227.64
855.36	227.61
855.67	227.60
855.99	227.62
856.30	227.75
856.61	227.74
856.92	227.78
857.23	227.75
857.55	227.75
857.86	227.73
858.17	227.70
858.48	227.66
858.79	227.62
859.11	227.66
859.42	227.65
859.73	227.62
860.04	227.60
860.35	227.55
860.66	227.54
860.98	227.50
861.29	227.49
861.60	227.49
861.91	227.48
862.22	227.45
862.53	227.41
862.84	227.27
863.16	227.30
863.47	227.26
863.78	227.27
864.09	227.24
864.40	227.28
864.71	227.32
865.02	227.34
865.33	227.33
865.64	227.29
865.95	227.27
866.27	227.35
866.58	227.33
866.89	227.36
867.20	227.36
867.51	227.33
867.82	227.38
868.13	227.37
868.44	227.37
868.75	227.39
869.06	227.43
869.37	227.48
869.68	227.44
869.99	227.46
870.30	227.48
870.61	227.52
870.92	227.45
871.23	227.43
871.54	227.44
871.85	227.49
872.16	227.51
872.47	227.51
872.78	227.45
873.09	227.46
873.40	227.48
873.71	227.50
874.02	227.55
874.33	227.52
874.64	227.56
874.95	227.58
875.26	227.59
875.56	227.59
875.87	227.60
876.18	227.63
876.49	227.74
876.80	227.71
877.11	227.70
877.42	227.75
877.73	227.77
878.04	227.77
878.35	227.77
878.66	227.78
878.96	227.81
879.27	227.80
879.58	227.80
879.89	227.78
880.20	227.81
880.51	227.78
880.82	227.80
881.12	227.78
881.43	227.75
881.74	227.74
882.05	227.75
882.36	227.74
882.67	227.76
882.97	227.66
883.28	227.67
883.59	227.66
883.90	227.70
884.21	227.74
884.51	227.74
884.82	227.71
885.13	227.71
885.44	227.69
885.74	227.73
886.05	227.71
886.36	227.70
886.67	227.65
886.98	227.71
887.28	227.71
887.59	227.67
887.90	227.69
888.20	227.68
888.51	227.66
888.82	227.63
889.13	227.63
889.43	227.68
889.74	227.67
890.05	227.63
890.35	227.59
890.66	227.54
890.97	227.49
891.28	227.49
891.58	227.47
891.89	227.41
892.20	227.37
892.50	227.34
892.81	227.34
893.12	227.34
893.42	227.28
893.73	227.24
894.04	227.26
894.34	227.24
894.65	227.21
894.95	227.19
895.26	227.20
895.57	227.20
895.87	227.11
896.18	227.13
896.48	227.16
896.79	227.14
897.10	227.15
897.40	227.17
897.71	227.16
898.01	227.16
898.32	227.23
898.63	227.18
898.93	227.20
899.24	227.18
899.54	227.14
899.85	227.13
900.15	227.12
900.46	227.08
900.76	227.07
901.07	227.08
901.38	227.08
901.68	227.07
901.99	226.99
902.29	226.98
902.60	226.96
902.90	226.93
903.21	226.90
903.51	226.86
903.82	226.87
904.12	226.89
904.43	226.90
904.73	226.87
905.03	226.88
905.34	226.96
905.64	226.96
905.95	226.98
906.25	226.96
906.56	226.97
906.86	226.99
907.17	226.98
907.47	226.99
907.77	226.98
908.08	226.94
908.38	226.97
908.69	226.97
908.99	226.99
909.30	227.01
909.60	227.01
909.90	227.04
910.21	227.05
910.51	227.05
910.81	227.04
911.12	227.06
911.42	227.07
911.73	226.98
912.03	226.99
912.33	227.00
912.64	227.02
912.94	227.01
913.24	226.98
913.55	226.98
913.85	226.97
914.15	227.02
914.46	227.08
914.76	227.11
915.06	227.08
915.37	227.08
915.67	227.08
915.97	227.08
916.27	227.03
916.58	226.98
916.88	227.00
917.18	226.97
917.49	227.01
917.79	227.03
918.09	227.07
918.39	227.08
918.70	227.06
919.00	227.06
919.30	227.11
919.60	227.11
919.91	227.10
920.21	227.14
920.51	227.11
920.81	227.05
921.12	227.06
921.42	227.07
921.72	227.08
922.02	227.08
922.32	227.11
922.63	227.19
922.93	227.29
923.23	227.26
923.53	227.28
923.83	227.23
924.13	227.23
924.44	227.23
924.74	227.25
925.04	227.28
925.34	227.27
925.64	227.26
925.94	227.25
926.24	227.30
926.55	227.26
926.85	227.28
927.15	227.29
927.45	227.27
927.75	227.26
928.05	227.22
928.35	227.22
928.65	227.26
928.95	227.24
929.26	227.15
929.56	227.18
929.86	227.16
930.16	227.16
930.46	227.12
930.76	227.14
931.06	227.10
931.36	227.09
931.66	227.13
931.96	227.12
932.26	227.16
932.56	227.12
932.86	227.12
933.16	227.11
933.46	227.11
933.76	227.08
934.06	227.16
934.36	227.20
934.66	227.20
934.96	227.14
935.26	227.11
935.56	227.14
935.86	227.08
936.16	227.08
936.46	227.07
936.76	227.05
937.06	227.01
937.36	227.01
937.66	227.02
937.96	226.99
938.26	226.96
938.56	226.94
938.86	226.92
939.16	226.96
939.46	226.96
939.76	226.97
940.06	226.97
940.35	226.90
940.65	226.86
940.95	226.87
941.25	226.85
941.55	226.84
941.85	226.81
942.15	226.89
942.45	226.92
942.75	226.92
943.04	226.96
943.34	226.97
943.64	226.95
943.94	226.93
944.24	226.93
944.54	226.91
944.84	226.88
945.13	226.89
945.43	226.84
945.73	226.83
946.03	226.83
946.33	226.83
946.62	226.83
946.92	226.80
947.22	226.80
947.52	226.83
947.82	226.82
948.11	226.85
948.41	226.80
948.71	226.76
949.01	226.74
949.31	226.74
949.60	226.73
949.90	226.77
950.20	226.74
950.50	226.76
950.79	226.79
951.09	226.86
951.39	226.84
951.69	226.83
951.98	226.83
952.28	226.84
952.58	226.83
952.87	226.84
953.17	226.85
953.47	226.85
953.76	226.86
954.06	226.90
954.36	226.87
954.66	226.88
954.95	226.90
955.25	226.93
955.55	226.93
955.84	226.92
956.14	226.93
956.44	226.94
956.73	226.92
957.03	226.92
957.32	226.91
957.62	226.90
957.92	226.94
958.21	226.93
958.51	227.05
958.81	227.07
959.10	227.07
959.40	227.12
959.69	227.13
959.99	227.09
960.29	227.02
960.58	227.02
960.88	227.04
961.17	227.04
961.47	227.05
961.76	227.02
962.06	227.04
962.36	227.00
962.65	227.00
962.95	227.01
963.24	226.97
963.54	226.95
963.83	226.96
964.13	226.95
964.42	226.91
964.72	226.83
965.01	226.82
965.31	226.81
965.60	226.78
965.90	226.82
966.19	226.82
966.49	226.87
966.78	226.91
967.08	226.89
967.37	226.88
967.67	226.88
967.96	226.91
968.26	226.89
968.55	226.91
968.85	226.88
969.14	226.88
969.43	226.91
969.73	226.91
970.02	226.89
970.32	226.88
970.61	226.90
970.91	226.90
971.20	226.88
971.49	226.87
971.79	226.87
972.08	226.84
972.38	226.87
972.67	226.86
972.96	226.86
973.26	226.82
973.55	226.84
973.85	226.85
974.14	226.82
974.43	226.84
974.73	226.83
975.02	226.82
975.31	226.85
975.61	226.85
975.90	226.83
976.19	226.82
976.49	226.84
976.78	226.87
977.07	226.82
977.37	226.79
977.66	226.82
977.95	226.80
978.24	226.76
978.54	226.78
978.83	226.75
979.12	226.74
979.42	226.76
979.71	226.73
980.00	226.69
980.29	226.71
980.59	226.67
980.88	226.69
981.17	226.71
981.46	226.69
981.76	226.69
982.05	226.73
982.34	226.75
982.63	226.75
982.93	226.77
983.22	226.78
983.51	226.83
983.80	226.81
984.09	226.83
984.39	226.87
984.68	226.82
984.97	226.87
985.26	226.85
985.55	226.88
985.85	226.87
986.14	226.89
986.43	226.90
986.72	226.93
987.01	226.89
987.30	226.89
987.59	226.86
987.89	226.86
988.18	226.81
988.47	226.80
988.76	226.78
989.05	226.77
989.34	226.79
989.63	226.78
989.92	226.80
990.22	226.80
990.51	226.75
990.80	226.75
991.09	226.76
991.38	226.81
991.67	226.82
991.96	226.79
992.25	226.79
992.54	226.79
992.83	226.78
993.12	226.81
993.41	226.84
993.70	226.89
993.99	226.93
994.28	226.97
994.58	226.99
994.87	226.99
995.16	226.95
995.45	226.93
995.74	226.93
996.03	226.92
996.32	226.92
996.61	226.96
996.90	226.96
997.19	226.96
997.48	226.90
997.77	226.86
998.06	226.91
998.34	226.90
998.63	226.86
998.92	226.85
999.21	226.83
999.50	226.82
999.79	226.79
1000.08	226.75
1000.37	226.78
1000.66	226.77
1000.95	226.78
1001.24	226.81
1001.53	226.84
1001.82	226.83
1002.11	226.80
1002.40	226.81
1002.68	226.85
1002.97	226.92
1003.26	226.89
1003.55	226.87
1003.84	226.87
1004.13	226.88
1004.42	226.88
1004.71	226.93
1004.99	226.92
1005.28	226.93
1005.57	226.92
1005.86	226.89
1006.15	226.88
1006.44	226.85
1006.72	226.84
1007.01	226.86
1007.30	226.82
1007.59	226.81
1007.88	226.80
1008.17	226.84
1008.45	226.81
1008.74	226.78
1009.03	226.71
1009.32	226.68
1009.60	226.70
1009.89	226.69
1010.18	226.65
1010.47	226.64
1010.76	226.60
1011.04	226.60
1011.33	226.63
1011.62	226.62
1011.91	226.63
1012.19	226.63
1012.48	226.63
1012.77	226.64
1013.05	226.66
1013.34	226.67
1013.63	226.66
1013.92	226.69
1014.20	226.65
1014.49	226.65
1014.78	226.63
1015.06	226.62
1015.35	226.64
1015.64	226.63
1015.92	226.66
1016.21	226.66
1016.50	226.66
1016.78	226.68
1017.07	226.71
1017.36	226.67
1017.64	226.64
1017.93	226.66
1018.22	226.67
1018.50	226.67
1018.79	226.65
1019.08	226.61
1019.36	226.63
1019.65	226.62
1019.93	226.61
1020.22	226.63
1020.51	226.71
1020.79	226.73
1021.08	227.03
1021.36	226.58
1021.65	226.23
1021.94	226.94
1022.22	227.00
1022.51	226.39
1022.79	227.06
1023.08	226.69
1023.36	228.16
1023.65	226.86
>>>>>End Processed Spectral Data<<<<<
