SpectraSuite Data File
++++++++++++++++++++++++++++++++++++
Date: Fri Feb 01 15:46:06 EST 2013
User: group
Dark Spectrum Present: No
Reference Spectrum Present: No
Number of Sampled Component Spectra: 1
Spectrometers: USB2E7196
Integration Time (usec): 35000 (USB2E7196)
Spectra Averaged: 100 (USB2E7196)
Boxcar Smoothing: 10 (USB2E7196)
Correct for Electrical Dark: No (USB2E7196)
Strobe/Lamp Enabled: No (USB2E7196)
Correct for Detector Non-linearity: No (USB2E7196)
Correct for Stray Light: No (USB2E7196)
Number of Pixels in Processed Spectrum: 2048
>>>>>Begin Processed Spectral Data<<<<<
339.09	0.00
339.48	214.44
339.86	216.36
340.24	217.33
340.63	218.78
341.01	221.73
341.39	221.59
341.78	222.94
342.16	224.00
342.54	224.77
342.93	213.09
343.31	223.86
343.69	224.43
344.07	224.88
344.46	225.32
344.84	225.71
345.22	225.96
345.60	226.20
345.99	226.38
346.37	226.52
346.75	226.64
347.13	226.74
347.52	226.77
347.90	226.83
348.28	226.88
348.66	226.92
349.05	226.90
349.43	226.92
349.81	226.95
350.19	227.02
350.57	227.10
350.96	227.16
351.34	227.24
351.72	227.33
352.10	227.42
352.48	227.48
352.87	227.50
353.25	227.57
353.63	227.63
354.01	227.71
354.39	227.76
354.77	227.82
355.15	227.89
355.54	227.94
355.92	227.95
356.30	228.03
356.68	228.15
357.06	228.25
357.44	228.35
357.82	228.40
358.20	228.42
358.58	228.47
358.97	228.51
359.35	228.59
359.73	228.62
360.11	228.69
360.49	228.74
360.87	228.80
361.25	228.83
361.63	228.94
362.01	228.97
362.39	229.05
362.77	229.09
363.15	229.13
363.53	229.18
363.91	229.22
364.29	229.24
364.67	229.16
365.05	229.16
365.43	229.18
365.81	229.23
366.19	229.28
366.57	229.32
366.95	229.35
367.33	229.31
367.71	229.34
368.09	229.33
368.47	229.31
368.85	229.29
369.23	229.32
369.61	229.25
369.99	229.27
370.37	229.25
370.75	229.24
371.13	229.16
371.51	229.14
371.89	229.12
372.27	229.06
372.65	229.03
373.03	228.98
373.41	228.90
373.78	228.81
374.16	228.71
374.54	228.61
374.92	228.54
375.30	228.47
375.68	228.38
376.06	228.34
376.44	228.27
376.82	228.24
377.19	228.15
377.57	228.07
377.95	227.96
378.33	227.86
378.71	227.75
379.09	227.69
379.47	227.62
379.84	227.52
380.22	227.44
380.60	227.35
380.98	227.30
381.36	227.19
381.73	227.12
382.11	227.07
382.49	227.03
382.87	226.95
383.25	226.92
383.62	226.96
384.00	226.87
384.38	226.81
384.76	226.75
385.13	226.72
385.51	226.67
385.89	226.63
386.27	226.59
386.64	226.59
387.02	226.55
387.40	226.51
387.78	226.47
388.15	226.44
388.53	226.40
388.91	226.37
389.29	226.41
389.66	226.37
390.04	226.31
390.42	226.30
390.79	226.29
391.17	226.27
391.55	226.15
391.92	226.15
392.30	226.17
392.68	226.18
393.05	226.15
393.43	226.20
393.81	226.21
394.18	226.22
394.56	226.22
394.94	226.28
395.31	226.32
395.69	226.38
396.06	226.45
396.44	226.51
396.82	226.53
397.19	226.59
397.57	226.66
397.95	226.77
398.32	226.80
398.70	226.88
399.07	226.95
399.45	227.01
399.82	227.08
400.20	227.16
400.58	227.22
400.95	227.29
401.33	227.37
401.70	227.49
402.08	227.59
402.45	227.70
402.83	227.81
403.20	227.90
403.58	227.99
403.95	228.13
404.33	228.27
404.71	228.43
405.08	228.59
405.46	228.74
405.83	228.88
406.21	229.03
406.58	229.19
406.96	229.36
407.33	229.57
407.70	229.77
408.08	229.99
408.45	230.20
408.83	230.44
409.20	230.65
409.58	230.85
409.95	231.08
410.33	231.32
410.70	231.55
411.08	231.84
411.45	232.15
411.82	232.41
412.20	232.80
412.57	233.23
412.95	233.53
413.32	233.93
413.69	234.35
414.07	234.78
414.44	235.23
414.82	235.72
415.19	236.22
415.56	236.79
415.94	237.37
416.31	238.04
416.68	238.65
417.06	239.32
417.43	240.02
417.81	240.80
418.18	241.58
418.55	242.43
418.93	243.29
419.30	244.19
419.67	245.14
420.04	246.07
420.42	247.02
420.79	248.18
421.16	249.32
421.54	250.51
421.91	251.73
422.28	253.00
422.66	254.32
423.03	255.67
423.40	256.96
423.77	258.38
424.15	259.77
424.52	261.26
424.89	262.93
425.26	264.47
425.64	265.93
426.01	267.49
426.38	269.16
426.75	270.87
427.13	272.57
427.50	274.35
427.87	276.23
428.24	278.13
428.61	279.91
428.99	281.83
429.36	283.91
429.73	285.96
430.10	288.01
430.47	290.07
430.85	292.17
431.22	294.44
431.59	296.82
431.96	299.06
432.33	301.57
432.70	303.90
433.08	306.72
433.45	309.33
433.82	312.00
434.19	314.91
434.56	317.71
434.93	320.38
435.30	323.04
435.68	325.93
436.05	328.73
436.42	331.54
436.79	334.03
437.16	336.75
437.53	339.61
437.90	342.40
438.27	345.17
438.64	347.96
439.01	350.53
439.38	352.74
439.75	354.96
440.13	357.44
440.50	359.83
440.87	361.67
441.24	363.63
441.61	365.74
441.98	367.16
442.35	368.93
442.72	370.79
443.09	372.59
443.46	373.58
443.83	374.16
444.20	374.66
444.57	375.53
444.94	375.79
445.31	376.13
445.68	376.46
446.05	376.49
446.42	376.10
446.79	375.67
447.16	375.21
447.53	374.85
447.90	373.69
448.27	372.48
448.64	370.85
449.01	369.68
449.37	367.69
449.74	365.82
450.11	363.60
450.48	361.08
450.85	358.50
451.22	356.31
451.59	354.28
451.96	352.29
452.33	349.67
452.70	347.32
453.07	344.44
453.43	341.51
453.80	338.75
454.17	336.07
454.54	333.53
454.91	330.81
455.28	328.15
455.65	325.62
456.02	323.17
456.38	321.05
456.75	318.40
457.12	316.16
457.49	313.93
457.86	311.77
458.23	309.94
458.59	307.89
458.96	305.84
459.33	303.99
459.70	302.14
460.07	300.64
460.43	298.94
460.80	297.30
461.17	295.90
461.54	294.43
461.91	293.00
462.27	291.56
462.64	290.30
463.01	288.93
463.38	287.67
463.74	286.27
464.11	285.10
464.48	284.08
464.85	283.00
465.21	282.12
465.58	281.20
465.95	280.11
466.32	279.24
466.68	278.30
467.05	277.41
467.42	276.54
467.78	275.62
468.15	274.73
468.52	274.08
468.88	273.21
469.25	272.43
469.62	271.82
469.98	271.17
470.35	270.56
470.72	269.97
471.08	269.33
471.45	268.81
471.82	268.28
472.18	267.66
472.55	267.25
472.92	266.71
473.28	266.21
473.65	265.77
474.02	265.33
474.38	265.01
474.75	264.67
475.11	264.34
475.48	264.09
475.85	263.87
476.21	263.67
476.58	263.46
476.94	263.35
477.31	263.19
477.67	263.01
478.04	262.91
478.41	262.81
478.77	262.86
479.14	262.81
479.50	262.84
479.87	262.94
480.23	262.99
480.60	263.12
480.96	263.27
481.33	263.49
481.69	263.70
482.06	263.89
482.42	264.12
482.79	264.34
483.15	264.70
483.52	265.11
483.88	265.44
484.25	265.83
484.61	266.23
484.98	266.66
485.34	267.25
485.71	267.84
486.07	268.46
486.44	269.01
486.80	269.73
487.17	270.47
487.53	271.28
487.90	272.18
488.26	273.09
488.62	274.06
488.99	275.03
489.35	276.04
489.72	277.17
490.08	278.37
490.44	279.64
490.81	280.97
491.17	282.32
491.54	283.85
491.90	285.38
492.26	287.04
492.63	288.81
492.99	290.59
493.36	292.49
493.72	294.57
494.08	296.67
494.45	298.92
494.81	301.32
495.17	303.71
495.54	306.24
495.90	308.93
496.26	311.70
496.63	314.65
496.99	317.81
497.35	321.04
497.72	324.49
498.08	327.97
498.44	331.58
498.80	335.48
499.17	339.47
499.53	343.65
499.89	347.99
500.26	352.51
500.62	357.20
500.98	362.16
501.34	367.19
501.71	372.55
502.07	377.94
502.43	383.50
502.79	389.41
503.16	395.45
503.52	401.74
503.88	408.19
504.24	414.85
504.60	421.72
504.97	428.85
505.33	436.19
505.69	443.98
506.05	451.77
506.41	459.67
506.78	467.91
507.14	476.39
507.50	485.15
507.86	494.15
508.22	503.32
508.59	512.54
508.95	522.18
509.31	531.98
509.67	542.14
510.03	552.41
510.39	562.94
510.75	573.77
511.12	584.73
511.48	596.04
511.84	607.45
512.20	618.95
512.56	630.89
512.92	643.01
513.28	655.28
513.64	667.82
514.00	680.51
514.37	693.48
514.73	706.50
515.09	719.51
515.45	732.78
515.81	746.41
516.17	760.36
516.53	774.43
516.89	788.62
517.25	802.91
517.61	817.34
517.97	831.85
518.33	846.29
518.69	861.02
519.05	876.00
519.41	891.25
519.77	906.81
520.13	922.34
520.49	937.76
520.85	953.17
521.21	968.91
521.57	985.16
521.93	1000.90
522.29	1017.34
522.65	1033.63
523.01	1049.94
523.37	1065.87
523.73	1082.12
524.09	1098.15
524.45	1114.43
524.81	1130.94
525.17	1147.77
525.53	1164.64
525.89	1181.56
526.25	1198.45
526.61	1214.92
526.97	1231.72
527.33	1248.18
527.68	1264.74
528.04	1281.24
528.40	1297.85
528.76	1314.89
529.12	1331.48
529.48	1348.39
529.84	1364.45
530.20	1381.13
530.56	1398.22
530.91	1415.61
531.27	1432.32
531.63	1448.91
531.99	1465.50
532.35	1481.50
532.71	1497.39
533.07	1513.64
533.42	1529.51
533.78	1545.54
534.14	1561.68
534.50	1577.04
534.86	1592.84
535.21	1608.03
535.57	1623.99
535.93	1639.58
536.29	1654.39
536.65	1669.35
537.00	1684.13
537.36	1699.31
537.72	1713.80
538.08	1728.12
538.44	1741.97
538.79	1755.93
539.15	1769.67
539.51	1783.37
539.87	1797.78
540.22	1811.55
540.58	1825.32
540.94	1838.74
541.29	1851.70
541.65	1864.49
542.01	1877.58
542.37	1890.01
542.72	1902.37
543.08	1914.01
543.44	1926.28
543.79	1937.41
544.15	1948.51
544.51	1959.92
544.87	1971.03
545.22	1981.87
545.58	1992.03
545.94	2001.81
546.29	2011.57
546.65	2021.32
547.01	2030.59
547.36	2039.29
547.72	2047.73
548.07	2055.60
548.43	2063.66
548.79	2071.67
549.14	2079.11
549.50	2086.52
549.86	2094.27
550.21	2101.68
550.57	2108.89
550.92	2115.56
551.28	2122.66
551.64	2129.65
551.99	2136.37
552.35	2142.39
552.70	2148.37
553.06	2154.43
553.41	2160.88
553.77	2167.04
554.13	2173.07
554.48	2179.39
554.84	2184.79
555.19	2190.14
555.55	2195.23
555.90	2199.77
556.26	2204.61
556.61	2209.46
556.97	2213.64
557.32	2217.71
557.68	2221.80
558.03	2226.14
558.39	2229.80
558.74	2234.45
559.10	2238.44
559.45	2242.08
559.81	2246.56
560.16	2250.56
560.52	2253.79
560.87	2257.21
561.23	2259.83
561.58	2262.94
561.94	2265.25
562.29	2267.58
562.64	2270.18
563.00	2272.75
563.35	2276.21
563.71	2279.33
564.06	2282.50
564.42	2285.49
564.77	2287.94
565.12	2290.16
565.48	2291.95
565.83	2293.81
566.19	2295.12
566.54	2296.07
566.89	2297.08
567.25	2297.37
567.60	2298.52
567.96	2300.05
568.31	2300.91
568.66	2302.04
569.02	2302.45
569.37	2302.77
569.72	2303.72
570.08	2303.80
570.43	2303.93
570.78	2303.31
571.14	2301.76
571.49	2300.29
571.84	2299.82
572.20	2298.70
572.55	2297.73
572.90	2296.21
573.26	2294.72
573.61	2292.98
573.96	2291.12
574.31	2288.19
574.67	2285.35
575.02	2281.82
575.37	2278.50
575.72	2274.57
576.08	2271.13
576.43	2268.00
576.78	2264.36
577.13	2261.24
577.49	2258.14
577.84	2254.61
578.19	2250.95
578.54	2247.21
578.90	2243.10
579.25	2237.57
579.60	2232.58
579.95	2227.61
580.30	2222.59
580.66	2217.57
581.01	2212.55
581.36	2207.56
581.71	2203.27
582.06	2198.82
582.42	2194.31
582.77	2189.10
583.12	2184.45
583.47	2179.67
583.82	2174.44
584.17	2169.18
584.53	2163.44
584.88	2157.85
585.23	2152.11
585.58	2146.54
585.93	2141.14
586.28	2136.34
586.63	2131.31
586.98	2126.15
587.34	2121.29
587.69	2116.48
588.04	2111.16
588.39	2105.60
588.74	2099.28
589.09	2093.07
589.44	2086.22
589.79	2080.26
590.14	2074.62
590.49	2068.09
590.84	2061.71
591.19	2055.74
591.54	2049.26
591.89	2041.91
592.25	2035.10
592.60	2027.72
592.95	2020.06
593.30	2012.70
593.65	2005.11
594.00	1998.07
594.35	1990.93
594.70	1982.85
595.05	1975.53
595.40	1968.30
595.75	1960.71
596.10	1954.34
596.45	1947.70
596.80	1941.50
597.15	1934.83
597.50	1927.61
597.85	1921.23
598.19	1914.47
598.54	1907.28
598.89	1900.56
599.24	1894.77
599.59	1888.09
599.94	1882.11
600.29	1875.76
600.64	1869.26
600.99	1861.68
601.34	1854.73
601.69	1847.82
602.04	1840.97
602.39	1833.56
602.74	1826.57
603.08	1819.77
603.43	1813.04
603.78	1805.61
604.13	1798.27
604.48	1790.87
604.83	1784.04
605.18	1776.91
605.53	1768.90
605.87	1760.95
606.22	1753.72
606.57	1745.59
606.92	1738.17
607.27	1730.83
607.62	1723.92
607.96	1716.42
608.31	1709.78
608.66	1702.24
609.01	1694.62
609.36	1687.08
609.70	1679.16
610.05	1671.01
610.40	1663.30
610.75	1655.00
611.10	1647.42
611.44	1639.14
611.79	1631.18
612.14	1622.63
612.49	1613.60
612.83	1605.25
613.18	1597.00
613.53	1588.92
613.88	1580.49
614.22	1572.16
614.57	1563.66
614.92	1555.55
615.27	1548.11
615.61	1539.92
615.96	1531.94
616.31	1524.18
616.65	1516.83
617.00	1509.20
617.35	1501.73
617.70	1493.34
618.04	1484.85
618.39	1476.61
618.74	1469.01
619.08	1460.75
619.43	1453.04
619.78	1446.03
620.12	1438.95
620.47	1431.53
620.82	1423.46
621.16	1416.08
621.51	1408.55
621.85	1400.80
622.20	1392.43
622.55	1384.08
622.89	1376.12
623.24	1368.42
623.59	1361.16
623.93	1353.64
624.28	1346.41
624.62	1338.88
624.97	1331.81
625.32	1325.13
625.66	1318.08
626.01	1310.91
626.35	1303.46
626.70	1295.76
627.04	1288.08
627.39	1280.31
627.73	1272.94
628.08	1265.97
628.43	1258.63
628.77	1251.25
629.12	1243.84
629.46	1236.55
629.81	1229.20
630.15	1222.04
630.50	1214.61
630.84	1206.33
631.19	1198.42
631.53	1190.83
631.88	1183.18
632.22	1175.54
632.57	1168.08
632.91	1160.52
633.26	1153.09
633.60	1145.77
633.95	1138.65
634.29	1131.66
634.64	1124.94
634.98	1117.55
635.32	1110.29
635.67	1103.70
636.01	1097.06
636.36	1090.09
636.70	1083.62
637.05	1076.98
637.39	1070.50
637.73	1063.99
638.08	1058.16
638.42	1052.16
638.77	1045.85
639.11	1039.23
639.45	1032.91
639.80	1026.21
640.14	1019.85
640.49	1013.31
640.83	1006.90
641.17	1000.62
641.52	994.13
641.86	987.72
642.20	981.83
642.55	975.60
642.89	969.00
643.23	962.45
643.58	956.68
643.92	950.49
644.26	944.36
644.61	938.27
644.95	932.23
645.29	925.58
645.64	918.78
645.98	912.30
646.32	906.43
646.66	900.31
647.01	894.59
647.35	888.84
647.69	882.95
648.04	877.48
648.38	871.66
648.72	865.75
649.06	859.69
649.41	853.83
649.75	847.80
650.09	841.95
650.43	836.17
650.78	830.04
651.12	824.06
651.46	818.36
651.80	812.58
652.14	807.24
652.49	801.87
652.83	796.73
653.17	791.14
653.51	785.43
653.85	780.01
654.20	774.35
654.54	768.31
654.88	762.62
655.22	756.73
655.56	751.06
655.90	745.61
656.25	740.31
656.59	734.92
656.93	729.90
657.27	724.74
657.61	719.30
657.95	714.17
658.29	709.11
658.64	703.94
658.98	698.72
659.32	693.21
659.66	688.04
660.00	682.74
660.34	677.79
660.68	672.92
661.02	667.98
661.36	663.27
661.70	658.78
662.05	654.43
662.39	650.02
662.73	645.63
663.07	641.21
663.41	636.82
663.75	632.33
664.09	627.78
664.43	623.36
664.77	619.24
665.11	615.07
665.45	610.96
665.79	606.80
666.13	602.69
666.47	598.62
666.81	594.40
667.15	590.30
667.49	586.42
667.83	582.57
668.17	578.59
668.51	574.49
668.85	570.48
669.19	566.68
669.53	562.86
669.87	558.93
670.21	555.26
670.55	551.58
670.89	548.20
671.23	544.73
671.57	541.25
671.91	537.70
672.25	534.12
672.58	530.58
672.92	527.14
673.26	523.92
673.60	520.76
673.94	517.64
674.28	514.72
674.62	511.73
674.96	508.68
675.30	505.75
675.64	502.81
675.97	500.04
676.31	497.12
676.65	494.21
676.99	491.50
677.33	488.60
677.67	485.80
678.01	482.77
678.34	479.77
678.68	476.93
679.02	474.08
679.36	471.35
679.70	468.62
680.04	465.93
680.37	462.99
680.71	460.17
681.05	457.63
681.39	454.89
681.73	452.27
682.06	449.75
682.40	447.23
682.74	444.75
683.08	442.20
683.42	439.65
683.75	437.14
684.09	434.61
684.43	432.19
684.77	429.69
685.10	427.29
685.44	425.01
685.78	422.70
686.12	420.53
686.45	418.25
686.79	415.99
687.13	413.78
687.46	411.70
687.80	409.58
688.14	407.29
688.48	405.19
688.81	402.93
689.15	400.79
689.49	398.59
689.82	396.53
690.16	394.49
690.50	392.54
690.83	390.65
691.17	388.65
691.51	386.76
691.84	384.93
692.18	383.06
692.52	381.08
692.85	379.16
693.19	377.20
693.52	375.36
693.86	373.57
694.20	371.81
694.53	370.02
694.87	368.15
695.21	366.37
695.54	364.62
695.88	362.91
696.21	361.13
696.55	359.50
696.88	357.86
697.22	356.19
697.56	354.60
697.89	352.89
698.23	351.29
698.56	349.64
698.90	348.06
699.23	346.38
699.57	344.83
699.90	343.31
700.24	341.76
700.58	340.24
700.91	338.74
701.25	337.32
701.58	335.94
701.92	334.59
702.25	333.26
702.59	331.86
702.92	330.52
703.26	329.25
703.59	328.00
703.93	326.77
704.26	325.52
704.60	324.19
704.93	322.93
705.26	321.71
705.60	320.58
705.93	319.39
706.27	318.36
706.60	317.31
706.94	316.21
707.27	315.13
707.61	314.10
707.94	313.08
708.27	311.94
708.61	310.87
708.94	309.92
709.28	308.94
709.61	308.03
709.94	307.11
710.28	306.06
710.61	305.03
710.95	303.95
711.28	303.04
711.61	302.04
711.95	301.12
712.28	300.13
712.61	299.09
712.95	298.15
713.28	297.29
713.61	296.40
713.95	295.51
714.28	294.69
714.61	293.79
714.95	292.90
715.28	292.05
715.61	291.15
715.95	290.24
716.28	289.40
716.61	288.52
716.95	287.68
717.28	286.94
717.61	286.16
717.94	285.42
718.28	284.56
718.61	283.87
718.94	283.19
719.27	282.55
719.61	281.94
719.94	281.30
720.27	280.55
720.60	279.84
720.94	279.20
721.27	278.59
721.60	278.02
721.93	277.42
722.27	276.85
722.60	276.32
722.93	275.77
723.26	275.18
723.59	274.62
723.93	274.07
724.26	273.56
724.59	273.05
724.92	272.56
725.25	272.11
725.59	271.57
725.92	271.07
726.25	270.59
726.58	270.08
726.91	269.57
727.24	269.12
727.57	268.70
727.91	268.21
728.24	267.70
728.57	267.22
728.90	266.76
729.23	266.29
729.56	265.88
729.89	265.39
730.22	264.89
730.55	264.41
730.89	263.98
731.22	263.52
731.55	263.04
731.88	262.56
732.21	262.13
732.54	261.72
732.87	261.25
733.20	260.83
733.53	260.48
733.86	260.12
734.19	259.73
734.52	259.33
734.85	259.01
735.18	258.60
735.51	258.25
735.84	257.91
736.17	257.56
736.50	257.14
736.83	256.91
737.16	256.58
737.49	256.27
737.82	255.90
738.15	255.56
738.48	255.25
738.81	254.97
739.14	254.65
739.47	254.36
739.80	254.10
740.13	253.78
740.46	253.46
740.79	253.13
741.12	252.79
741.45	252.52
741.78	252.21
742.11	251.92
742.44	251.59
742.77	251.29
743.10	250.93
743.43	250.64
743.75	250.26
744.08	250.13
744.41	249.84
744.74	249.60
745.07	249.30
745.40	249.05
745.73	248.81
746.06	248.49
746.39	248.20
746.71	247.91
747.04	247.67
747.37	247.37
747.70	247.11
748.03	246.88
748.36	246.63
748.68	246.37
749.01	246.13
749.34	245.90
749.67	245.67
750.00	245.49
750.33	245.30
750.65	245.07
750.98	244.72
751.31	244.51
751.64	244.30
751.97	244.17
752.29	243.95
752.62	243.70
752.95	243.51
753.28	243.30
753.60	243.10
753.93	242.91
754.26	242.73
754.59	242.50
754.91	242.27
755.24	242.06
755.57	241.89
755.90	241.70
756.22	241.50
756.55	241.30
756.88	241.13
757.20	240.88
757.53	240.70
757.86	240.53
758.19	240.37
758.51	240.19
758.84	239.94
759.17	239.76
759.49	239.60
759.82	239.51
760.15	239.33
760.47	239.21
760.80	239.04
761.13	238.91
761.45	238.76
761.78	238.63
762.11	238.46
762.43	238.27
762.76	238.17
763.08	238.05
763.41	237.90
763.74	237.73
764.06	237.62
764.39	237.46
764.71	237.31
765.04	237.15
765.37	237.02
765.69	236.88
766.02	236.75
766.34	236.61
766.67	236.42
767.00	236.33
767.32	236.23
767.65	236.17
767.97	236.04
768.30	235.92
768.62	235.79
768.95	235.67
769.27	235.55
769.60	235.43
769.92	235.32
770.25	235.15
770.57	235.06
770.90	234.99
771.22	234.91
771.55	234.82
771.87	234.76
772.20	234.68
772.52	234.69
772.85	234.74
773.17	234.67
773.50	234.58
773.82	234.48
774.15	234.36
774.47	234.22
774.80	234.15
775.12	234.10
775.45	234.03
775.77	234.00
776.09	233.94
776.42	233.86
776.74	233.79
777.07	233.77
777.39	233.68
777.72	233.57
778.04	233.51
778.36	233.47
778.69	233.38
779.01	233.33
779.33	233.17
779.66	233.01
779.98	232.95
780.31	232.91
780.63	232.92
780.95	232.86
781.28	232.78
781.60	232.69
781.92	232.62
782.25	232.58
782.57	232.48
782.89	232.42
783.22	232.35
783.54	232.29
783.86	232.24
784.19	232.19
784.51	232.20
784.83	232.13
785.16	232.05
785.48	232.00
785.80	231.93
786.12	231.89
786.45	231.80
786.77	231.75
787.09	231.69
787.42	231.58
787.74	231.53
788.06	231.48
788.38	231.43
788.71	231.41
789.03	231.35
789.35	231.35
789.67	231.31
789.99	231.27
790.32	231.22
790.64	231.23
790.96	231.24
791.28	231.15
791.61	231.10
791.93	231.06
792.25	231.02
792.57	231.03
792.89	230.96
793.21	230.93
793.54	230.87
793.86	230.84
794.18	230.79
794.50	230.76
794.82	230.75
795.14	230.70
795.47	230.66
795.79	230.65
796.11	230.58
796.43	230.52
796.75	230.50
797.07	230.48
797.39	230.41
797.71	230.33
798.04	230.31
798.36	230.28
798.68	230.23
799.00	230.19
799.32	230.15
799.64	230.15
799.96	230.14
800.28	230.13
800.60	230.06
800.92	230.03
801.24	229.98
801.56	229.95
801.89	229.92
802.21	229.87
802.53	229.82
802.85	229.82
803.17	229.85
803.49	229.79
803.81	229.77
804.13	229.71
804.45	229.68
804.77	229.67
805.09	229.67
805.41	229.65
805.73	229.62
806.05	229.52
806.37	229.51
806.69	229.44
807.01	229.45
807.33	229.45
807.65	229.41
807.97	229.44
808.28	229.39
808.60	229.36
808.92	229.34
809.24	229.38
809.56	229.35
809.88	229.27
810.20	229.27
810.52	229.27
810.84	229.26
811.16	229.22
811.48	229.21
811.80	229.20
812.12	229.15
812.43	229.14
812.75	229.15
813.07	229.12
813.39	229.15
813.71	229.10
814.03	229.06
814.35	229.06
814.67	229.01
814.98	229.02
815.30	228.99
815.62	228.95
815.94	228.89
816.26	228.91
816.58	228.86
816.89	228.84
817.21	228.80
817.53	228.76
817.85	228.75
818.17	228.71
818.48	228.67
818.80	228.69
819.12	228.70
819.44	228.65
819.76	228.60
820.07	228.59
820.39	228.59
820.71	228.59
821.03	228.56
821.34	228.56
821.66	228.55
821.98	228.54
822.30	228.53
822.61	228.59
822.93	228.52
823.25	228.54
823.57	228.49
823.88	228.49
824.20	228.50
824.52	228.50
824.83	228.50
825.15	228.47
825.47	228.47
825.79	228.45
826.10	228.45
826.42	228.43
826.74	228.39
827.05	228.35
827.37	228.33
827.69	228.33
828.00	228.31
828.32	228.30
828.64	228.29
828.95	228.33
829.27	228.26
829.58	228.25
829.90	228.27
830.22	228.32
830.53	228.26
830.85	228.25
831.17	228.25
831.48	228.18
831.80	228.17
832.11	228.16
832.43	228.15
832.75	228.14
833.06	228.21
833.38	228.16
833.69	228.13
834.01	228.10
834.32	228.12
834.64	228.07
834.96	228.05
835.27	228.05
835.59	228.02
835.90	227.99
836.22	227.97
836.53	227.90
836.85	227.86
837.16	227.95
837.48	227.91
837.79	227.92
838.11	227.96
838.42	227.97
838.74	227.95
839.05	227.90
839.37	227.88
839.68	227.80
840.00	227.78
840.31	227.77
840.63	227.77
840.94	227.73
841.26	227.72
841.57	227.72
841.88	227.69
842.20	227.64
842.51	227.62
842.83	227.60
843.14	227.65
843.46	227.67
843.77	227.62
844.08	227.61
844.40	227.56
844.71	227.54
845.03	227.50
845.34	227.48
845.65	227.49
845.97	227.47
846.28	227.47
846.60	227.50
846.91	227.50
847.22	227.47
847.54	227.47
847.85	227.46
848.16	227.43
848.48	227.42
848.79	227.44
849.10	227.44
849.42	227.44
849.73	227.38
850.04	227.37
850.36	227.30
850.67	227.34
850.98	227.33
851.30	227.32
851.61	227.32
851.92	227.34
852.23	227.33
852.55	227.37
852.86	227.38
853.17	227.40
853.49	227.43
853.80	227.46
854.11	227.46
854.42	227.49
854.74	227.47
855.05	227.46
855.36	227.42
855.67	227.39
855.99	227.37
856.30	227.48
856.61	227.45
856.92	227.45
857.23	227.45
857.55	227.45
857.86	227.46
858.17	227.47
858.48	227.46
858.79	227.44
859.11	227.41
859.42	227.39
859.73	227.35
860.04	227.32
860.35	227.29
860.66	227.26
860.98	227.27
861.29	227.29
861.60	227.30
861.91	227.33
862.22	227.34
862.53	227.35
862.84	227.24
863.16	227.27
863.47	227.27
863.78	227.25
864.09	227.27
864.40	227.28
864.71	227.29
865.02	227.32
865.33	227.30
865.64	227.29
865.95	227.30
866.27	227.38
866.58	227.40
866.89	227.42
867.20	227.41
867.51	227.38
867.82	227.32
868.13	227.34
868.44	227.30
868.75	227.36
869.06	227.40
869.37	227.44
869.68	227.40
869.99	227.37
870.30	227.40
870.61	227.37
870.92	227.34
871.23	227.30
871.54	227.29
871.85	227.32
872.16	227.33
872.47	227.34
872.78	227.26
873.09	227.29
873.40	227.28
873.71	227.31
874.02	227.32
874.33	227.37
874.64	227.34
874.95	227.35
875.26	227.29
875.56	227.24
875.87	227.22
876.18	227.23
876.49	227.35
876.80	227.32
877.11	227.30
877.42	227.32
877.73	227.36
878.04	227.35
878.35	227.39
878.66	227.37
878.96	227.33
879.27	227.37
879.58	227.34
879.89	227.34
880.20	227.37
880.51	227.37
880.82	227.37
881.12	227.38
881.43	227.38
881.74	227.39
882.05	227.38
882.36	227.40
882.67	227.41
882.97	227.33
883.28	227.30
883.59	227.32
883.90	227.31
884.21	227.27
884.51	227.23
884.82	227.17
885.13	227.16
885.44	227.18
885.74	227.11
886.05	227.11
886.36	227.11
886.67	227.05
886.98	227.07
887.28	227.06
887.59	227.05
887.90	227.03
888.20	227.02
888.51	227.05
888.82	227.04
889.13	227.03
889.43	227.09
889.74	227.09
890.05	227.08
890.35	227.06
890.66	227.09
890.97	227.09
891.28	227.09
891.58	227.10
891.89	227.11
892.20	227.12
892.50	227.08
892.81	227.05
893.12	227.05
893.42	227.01
893.73	227.02
894.04	226.99
894.34	227.01
894.65	226.99
894.95	226.99
895.26	226.99
895.57	227.03
895.87	226.93
896.18	226.97
896.48	226.96
896.79	226.98
897.10	226.99
897.40	227.00
897.71	226.99
898.01	226.98
898.32	226.99
898.63	227.00
898.93	227.03
899.24	227.06
899.54	227.09
899.85	227.10
900.15	227.10
900.46	227.11
900.76	227.09
901.07	227.10
901.38	227.05
901.68	227.07
901.99	227.03
902.29	227.04
902.60	227.05
902.90	227.06
903.21	227.05
903.51	227.03
903.82	227.06
904.12	227.06
904.43	227.08
904.73	227.08
905.03	227.09
905.34	227.15
905.64	227.13
905.95	227.12
906.25	227.11
906.56	227.11
906.86	227.11
907.17	227.13
907.47	227.14
907.77	227.15
908.08	227.11
908.38	227.10
908.69	227.12
908.99	227.11
909.30	227.08
909.60	227.05
909.90	227.05
910.21	227.01
910.51	226.99
910.81	226.97
911.12	226.95
911.42	226.94
911.73	226.84
912.03	226.81
912.33	226.82
912.64	226.79
912.94	226.75
913.24	226.72
913.55	226.67
913.85	226.67
914.15	226.65
914.46	226.64
914.76	226.63
915.06	226.62
915.37	226.60
915.67	226.63
915.97	226.65
916.27	226.61
916.58	226.61
916.88	226.62
917.18	226.59
917.49	226.66
917.79	226.67
918.09	226.68
918.39	226.73
918.70	226.70
919.00	226.73
919.30	226.80
919.60	226.81
919.91	226.80
920.21	226.81
920.51	226.83
920.81	226.83
921.12	226.83
921.42	226.80
921.72	226.80
922.02	226.76
922.32	226.76
922.63	226.78
922.93	226.83
923.23	226.82
923.53	226.82
923.83	226.76
924.13	226.74
924.44	226.72
924.74	226.70
925.04	226.75
925.34	226.73
925.64	226.67
925.94	226.68
926.24	226.77
926.55	226.74
926.85	226.71
927.15	226.71
927.45	226.73
927.75	226.75
928.05	226.77
928.35	226.79
928.65	226.79
928.95	226.78
929.26	226.70
929.56	226.72
929.86	226.69
930.16	226.66
930.46	226.70
930.76	226.73
931.06	226.71
931.36	226.71
931.66	226.73
931.96	226.76
932.26	226.78
932.56	226.73
932.86	226.75
933.16	226.79
933.46	226.78
933.76	226.77
934.06	226.84
934.36	226.87
934.66	226.86
934.96	226.88
935.26	226.91
935.56	227.00
935.86	227.00
936.16	227.02
936.46	227.05
936.76	227.00
937.06	226.98
937.36	227.01
937.66	227.02
937.96	227.02
938.26	227.02
938.56	227.00
938.86	227.03
939.16	227.05
939.46	227.06
939.76	227.07
940.06	227.09
940.35	227.03
940.65	226.98
940.95	226.98
941.25	226.94
941.55	226.90
941.85	226.89
942.15	226.90
942.45	226.92
942.75	226.93
943.04	226.94
943.34	226.95
943.64	226.89
943.94	226.82
944.24	226.80
944.54	226.80
944.84	226.79
945.13	226.76
945.43	226.74
945.73	226.72
946.03	226.70
946.33	226.69
946.62	226.67
946.92	226.66
947.22	226.67
947.52	226.71
947.82	226.73
948.11	226.74
948.41	226.70
948.71	226.67
949.01	226.66
949.31	226.66
949.60	226.66
949.90	226.70
950.20	226.74
950.50	226.74
950.79	226.74
951.09	226.77
951.39	226.73
951.69	226.70
951.98	226.71
952.28	226.72
952.58	226.70
952.87	226.71
953.17	226.72
953.47	226.72
953.76	226.69
954.06	226.67
954.36	226.60
954.66	226.61
954.95	226.66
955.25	226.67
955.55	226.68
955.84	226.65
956.14	226.64
956.44	226.65
956.73	226.65
957.03	226.60
957.32	226.59
957.62	226.62
957.92	226.65
958.21	226.66
958.51	226.79
958.81	226.80
959.10	226.79
959.40	226.80
959.69	226.78
959.99	226.80
960.29	226.80
960.58	226.80
960.88	226.83
961.17	226.79
961.47	226.81
961.76	226.79
962.06	226.83
962.36	226.81
962.65	226.82
962.95	226.82
963.24	226.82
963.54	226.85
963.83	226.86
964.13	226.85
964.42	226.84
964.72	226.72
965.01	226.73
965.31	226.72
965.60	226.68
965.90	226.77
966.19	226.75
966.49	226.75
966.78	226.75
967.08	226.73
967.37	226.77
967.67	226.74
967.96	226.78
968.26	226.79
968.55	226.83
968.85	226.82
969.14	226.80
969.43	226.82
969.73	226.79
970.02	226.79
970.32	226.79
970.61	226.79
970.91	226.80
971.20	226.78
971.49	226.80
971.79	226.84
972.08	226.76
972.38	226.79
972.67	226.80
972.96	226.84
973.26	226.84
973.55	226.85
973.85	226.84
974.14	226.85
974.43	226.86
974.73	226.83
975.02	226.82
975.31	226.83
975.61	226.85
975.90	226.85
976.19	226.85
976.49	226.85
976.78	226.86
977.07	226.85
977.37	226.89
977.66	226.90
977.95	226.90
978.24	226.92
978.54	226.90
978.83	226.88
979.12	226.88
979.42	226.86
979.71	226.83
980.00	226.87
980.29	226.86
980.59	226.80
980.88	226.81
981.17	226.83
981.46	226.84
981.76	226.83
982.05	226.90
982.34	226.89
982.63	226.91
982.93	226.89
983.22	226.93
983.51	226.93
983.80	226.96
984.09	226.97
984.39	226.96
984.68	226.95
984.97	226.99
985.26	227.01
985.55	227.04
985.85	227.02
986.14	226.99
986.43	226.98
986.72	227.02
987.01	226.97
987.30	226.95
987.59	226.92
987.89	226.94
988.18	226.86
988.47	226.84
988.76	226.83
989.05	226.80
989.34	226.75
989.63	226.75
989.92	226.66
990.22	226.61
990.51	226.60
990.80	226.59
991.09	226.57
991.38	226.53
991.67	226.53
991.96	226.53
992.25	226.51
992.54	226.50
992.83	226.47
993.12	226.47
993.41	226.53
993.70	226.55
993.99	226.53
994.28	226.55
994.58	226.56
994.87	226.57
995.16	226.58
995.45	226.57
995.74	226.53
996.03	226.57
996.32	226.60
996.61	226.62
996.90	226.63
997.19	226.61
997.48	226.64
997.77	226.61
998.06	226.61
998.34	226.62
998.63	226.63
998.92	226.63
999.21	226.66
999.50	226.59
999.79	226.57
1000.08	226.56
1000.37	226.56
1000.66	226.55
1000.95	226.56
1001.24	226.56
1001.53	226.58
1001.82	226.61
1002.11	226.58
1002.40	226.59
1002.68	226.59
1002.97	226.66
1003.26	226.65
1003.55	226.60
1003.84	226.60
1004.13	226.64
1004.42	226.64
1004.71	226.65
1004.99	226.67
1005.28	226.66
1005.57	226.69
1005.86	226.68
1006.15	226.68
1006.44	226.65
1006.72	226.67
1007.01	226.66
1007.30	226.70
1007.59	226.67
1007.88	226.67
1008.17	226.69
1008.45	226.68
1008.74	226.66
1009.03	226.61
1009.32	226.61
1009.60	226.63
1009.89	226.64
1010.18	226.61
1010.47	226.61
1010.76	226.60
1011.04	226.57
1011.33	226.61
1011.62	226.62
1011.91	226.66
1012.19	226.68
1012.48	226.68
1012.77	226.71
1013.05	226.76
1013.34	226.75
1013.63	226.78
1013.92	226.81
1014.20	226.81
1014.49	226.81
1014.78	226.82
1015.06	226.79
1015.35	226.82
1015.64	226.85
1015.92	226.85
1016.21	226.86
1016.50	226.89
1016.78	226.90
1017.07	226.94
1017.36	226.92
1017.64	226.91
1017.93	226.90
1018.22	226.89
1018.50	226.90
1018.79	226.88
1019.08	226.85
1019.36	226.83
1019.65	226.82
1019.93	226.85
1020.22	226.87
1020.51	226.95
1020.79	226.94
1021.08	226.56
1021.36	226.72
1021.65	226.69
1021.94	227.29
1022.22	226.62
1022.51	226.60
1022.79	227.79
1023.08	227.19
1023.36	228.33
1023.65	226.49
>>>>>End Processed Spectral Data<<<<<
