SpectraSuite Data File
++++++++++++++++++++++++++++++++++++
Date: Fri Feb 01 17:17:44 EST 2013
User: group
Dark Spectrum Present: No
Reference Spectrum Present: No
Number of Sampled Component Spectra: 1
Spectrometers: USB2E7196
Integration Time (usec): 35000 (USB2E7196)
Spectra Averaged: 100 (USB2E7196)
Boxcar Smoothing: 10 (USB2E7196)
Correct for Electrical Dark: No (USB2E7196)
Strobe/Lamp Enabled: No (USB2E7196)
Correct for Detector Non-linearity: No (USB2E7196)
Correct for Stray Light: No (USB2E7196)
Number of Pixels in Processed Spectrum: 2048
>>>>>Begin Processed Spectral Data<<<<<
339.09	0.00
339.48	213.20
339.86	213.97
340.24	216.17
340.63	217.03
341.01	220.19
341.39	220.53
341.78	221.35
342.16	222.31
342.54	223.39
342.93	211.51
343.31	222.21
343.69	222.74
344.07	223.26
344.46	223.69
344.84	224.06
345.22	224.28
345.60	224.52
345.99	224.72
346.37	224.87
346.75	224.97
347.13	225.05
347.52	225.11
347.90	225.18
348.28	225.23
348.66	225.29
349.05	225.27
349.43	225.37
349.81	225.46
350.19	225.52
350.57	225.59
350.96	225.62
351.34	225.71
351.72	225.82
352.10	225.90
352.48	225.96
352.87	226.08
353.25	226.18
353.63	226.22
354.01	226.26
354.39	226.35
354.77	226.44
355.15	226.56
355.54	226.63
355.92	226.64
356.30	226.69
356.68	226.85
357.06	226.93
357.44	226.95
357.82	226.99
358.20	227.08
358.58	227.13
358.97	227.18
359.35	227.24
359.73	227.30
360.11	227.36
360.49	227.40
360.87	227.41
361.25	227.44
361.63	227.54
362.01	227.59
362.39	227.61
362.77	227.61
363.15	227.61
363.53	227.63
363.91	227.69
364.29	227.70
364.67	227.61
365.05	227.62
365.43	227.63
365.81	227.60
366.19	227.60
366.57	227.63
366.95	227.62
367.33	227.59
367.71	227.56
368.09	227.52
368.47	227.50
368.85	227.48
369.23	227.48
369.61	227.40
369.99	227.39
370.37	227.35
370.75	227.34
371.13	227.30
371.51	227.24
371.89	227.18
372.27	227.13
372.65	227.08
373.03	227.04
373.41	226.96
373.78	226.89
374.16	226.80
374.54	226.70
374.92	226.64
375.30	226.58
375.68	226.51
376.06	226.47
376.44	226.43
376.82	226.37
377.19	226.29
377.57	226.24
377.95	226.13
378.33	226.09
378.71	226.01
379.09	225.95
379.47	225.91
379.84	225.81
380.22	225.75
380.60	225.67
380.98	225.62
381.36	225.58
381.73	225.53
382.11	225.51
382.49	225.45
382.87	225.37
383.25	225.32
383.62	225.39
384.00	225.29
384.38	225.23
384.76	225.22
385.13	225.20
385.51	225.16
385.89	225.13
386.27	225.04
386.64	225.00
387.02	224.94
387.40	224.90
387.78	224.93
388.15	224.89
388.53	224.85
388.91	224.79
389.29	224.79
389.66	224.78
390.04	224.75
390.42	224.76
390.79	224.79
391.17	224.78
391.55	224.65
391.92	224.65
392.30	224.66
392.68	224.64
393.05	224.62
393.43	224.62
393.81	224.62
394.18	224.65
394.56	224.64
394.94	224.68
395.31	224.73
395.69	224.72
396.06	224.74
396.44	224.78
396.82	224.83
397.19	224.89
397.57	224.93
397.95	224.97
398.32	225.01
398.70	225.03
399.07	225.07
399.45	225.13
399.82	225.22
400.20	225.24
400.58	225.33
400.95	225.35
401.33	225.43
401.70	225.56
402.08	225.64
402.45	225.72
402.83	225.84
403.20	225.90
403.58	226.02
403.95	226.13
404.33	226.24
404.71	226.38
405.08	226.55
405.46	226.64
405.83	226.75
406.21	226.88
406.58	227.06
406.96	227.22
407.33	227.38
407.70	227.58
408.08	227.85
408.45	228.00
408.83	228.23
409.20	228.41
409.58	228.58
409.95	228.87
410.33	229.11
410.70	229.36
411.08	229.65
411.45	229.94
411.82	230.23
412.20	230.59
412.57	230.95
412.95	231.23
413.32	231.67
413.69	232.07
414.07	232.50
414.44	232.95
414.82	233.43
415.19	233.97
415.56	234.49
415.94	235.04
416.31	235.70
416.68	236.32
417.06	237.07
417.43	237.78
417.81	238.52
418.18	239.32
418.55	240.18
418.93	241.05
419.30	241.99
419.67	242.97
420.04	243.95
420.42	244.98
420.79	246.21
421.16	247.37
421.54	248.59
421.91	249.84
422.28	251.14
422.66	252.56
423.03	253.93
423.40	255.31
423.77	256.80
424.15	258.28
424.52	259.86
424.89	261.51
425.26	263.12
425.64	264.60
426.01	266.29
426.38	267.99
426.75	269.72
427.13	271.46
427.50	273.34
427.87	275.27
428.24	277.16
428.61	278.98
428.99	281.00
429.36	283.18
429.73	285.32
430.10	287.44
430.47	289.54
430.85	291.78
431.22	294.07
431.59	296.54
431.96	298.89
432.33	301.41
432.70	303.89
433.08	306.79
433.45	309.53
433.82	312.20
434.19	315.16
434.56	318.10
434.93	320.86
435.30	323.54
435.68	326.56
436.05	329.52
436.42	332.34
436.79	334.97
437.16	337.76
437.53	340.71
437.90	343.56
438.27	346.37
438.64	349.17
439.01	351.86
439.38	354.13
439.75	356.33
440.13	358.92
440.50	361.30
440.87	363.21
441.24	365.22
441.61	367.46
441.98	368.97
442.35	370.79
442.72	372.74
443.09	374.63
443.46	375.66
443.83	376.30
444.20	376.89
444.57	377.76
444.94	378.04
445.31	378.41
445.68	378.77
446.05	378.90
446.42	378.56
446.79	378.16
447.16	377.76
447.53	377.47
447.90	376.28
448.27	375.14
448.64	373.50
449.01	372.36
449.37	370.38
449.74	368.51
450.11	366.21
450.48	363.63
450.85	361.05
451.22	358.86
451.59	356.75
451.96	354.76
452.33	352.04
452.70	349.66
453.07	346.73
453.43	343.78
453.80	340.94
454.17	338.22
454.54	335.62
454.91	332.77
455.28	330.02
455.65	327.50
456.02	324.91
456.38	322.74
456.75	319.98
457.12	317.63
457.49	315.34
457.86	313.14
458.23	311.28
458.59	309.18
458.96	307.03
459.33	305.11
459.70	303.18
460.07	301.66
460.43	299.89
460.80	298.27
461.17	296.80
461.54	295.22
461.91	293.75
462.27	292.25
462.64	290.99
463.01	289.58
463.38	288.25
463.74	286.88
464.11	285.69
464.48	284.62
464.85	283.51
465.21	282.61
465.58	281.63
465.95	280.48
466.32	279.52
466.68	278.58
467.05	277.65
467.42	276.73
467.78	275.77
468.15	274.86
468.52	274.15
468.88	273.28
469.25	272.50
469.62	271.83
469.98	271.13
470.35	270.49
470.72	269.87
471.08	269.17
471.45	268.59
471.82	268.03
472.18	267.41
472.55	266.92
472.92	266.36
473.28	265.89
473.65	265.43
474.02	265.00
474.38	264.64
474.75	264.33
475.11	263.99
475.48	263.72
475.85	263.51
476.21	263.27
476.58	263.05
476.94	262.89
477.31	262.74
477.67	262.60
478.04	262.44
478.41	262.39
478.77	262.43
479.14	262.40
479.50	262.37
479.87	262.49
480.23	262.59
480.60	262.66
480.96	262.74
481.33	262.93
481.69	263.15
482.06	263.34
482.42	263.53
482.79	263.79
483.15	264.13
483.52	264.52
483.88	264.85
484.25	265.23
484.61	265.67
484.98	266.12
485.34	266.64
485.71	267.26
486.07	267.91
486.44	268.49
486.80	269.18
487.17	269.97
487.53	270.77
487.90	271.60
488.26	272.55
488.62	273.53
488.99	274.49
489.35	275.53
489.72	276.64
490.08	277.85
490.44	279.10
490.81	280.41
491.17	281.69
491.54	283.22
491.90	284.74
492.26	286.37
492.63	288.08
492.99	289.88
493.36	291.74
493.72	293.75
494.08	295.85
494.45	298.10
494.81	300.46
495.17	302.90
495.54	305.49
495.90	308.18
496.26	310.99
496.63	313.96
496.99	317.03
497.35	320.29
497.72	323.69
498.08	327.17
498.44	330.81
498.80	334.73
499.17	338.74
499.53	342.93
499.89	347.27
500.26	351.72
500.62	356.36
500.98	361.29
501.34	366.36
501.71	371.62
502.07	377.03
502.43	382.50
502.79	388.18
503.16	394.16
503.52	400.34
503.88	406.70
504.24	413.27
504.60	420.12
504.97	427.18
505.33	434.36
505.69	442.06
506.05	449.81
506.41	457.57
506.78	465.68
507.14	474.01
507.50	482.64
507.86	491.57
508.22	500.72
508.59	509.83
508.95	519.27
509.31	529.00
509.67	538.97
510.03	549.12
510.39	559.62
510.75	570.24
511.12	581.06
511.48	592.23
511.84	603.58
512.20	614.88
512.56	626.64
512.92	638.61
513.28	650.72
513.64	662.94
514.00	675.44
514.37	688.12
514.73	700.93
515.09	713.67
515.45	726.71
515.81	739.98
516.17	753.68
516.53	767.52
516.89	781.38
517.25	795.26
517.61	809.47
517.97	823.58
518.33	837.71
518.69	852.11
519.05	866.69
519.41	881.51
519.77	896.72
520.13	911.71
520.49	926.90
520.85	941.82
521.21	957.13
521.57	973.13
521.93	988.52
522.29	1004.51
522.65	1020.55
523.01	1036.42
523.37	1052.13
523.73	1067.93
524.09	1083.64
524.45	1099.60
524.81	1115.94
525.17	1132.35
525.53	1148.91
525.89	1165.53
526.25	1181.99
526.61	1198.06
526.97	1214.47
527.33	1230.56
527.68	1246.93
528.04	1263.08
528.40	1279.36
528.76	1296.11
529.12	1312.32
529.48	1328.86
529.84	1344.63
530.20	1360.86
530.56	1377.39
530.91	1394.46
531.27	1410.92
531.63	1427.17
531.99	1443.43
532.35	1459.10
532.71	1474.73
533.07	1490.68
533.42	1506.23
533.78	1522.14
534.14	1538.13
534.50	1553.25
534.86	1568.83
535.21	1583.84
535.57	1599.32
535.93	1614.57
536.29	1629.05
536.65	1643.75
537.00	1658.27
537.36	1673.37
537.72	1687.60
538.08	1701.99
538.44	1715.55
538.79	1729.30
539.15	1742.59
539.51	1756.18
539.87	1770.32
540.22	1783.73
540.58	1797.31
540.94	1810.49
541.29	1823.12
541.65	1835.70
542.01	1848.76
542.37	1861.04
542.72	1873.28
543.08	1885.12
543.44	1897.60
543.79	1909.05
544.15	1920.15
544.51	1931.59
544.87	1942.52
545.22	1953.53
545.58	1963.83
545.94	1973.65
546.29	1983.46
546.65	1993.57
547.01	2002.89
547.36	2011.65
547.72	2020.35
548.07	2028.48
548.43	2036.76
548.79	2044.65
549.14	2052.39
549.50	2059.69
549.86	2067.42
550.21	2074.87
550.57	2082.15
550.92	2088.92
551.28	2096.05
551.64	2103.32
551.99	2110.22
552.35	2116.53
552.70	2122.63
553.06	2128.72
553.41	2135.21
553.77	2141.44
554.13	2147.58
554.48	2153.84
554.84	2159.70
555.19	2165.02
555.55	2170.43
555.90	2175.14
556.26	2180.62
556.61	2185.53
556.97	2190.32
557.32	2194.69
557.68	2199.08
558.03	2203.59
558.39	2207.27
558.74	2211.95
559.10	2215.91
559.45	2219.60
559.81	2224.07
560.16	2228.22
560.52	2231.60
560.87	2235.32
561.23	2238.12
561.58	2241.24
561.94	2244.12
562.29	2246.56
562.64	2249.91
563.00	2252.66
563.35	2256.44
563.71	2259.80
564.06	2263.23
564.42	2266.33
564.77	2269.37
565.12	2272.13
565.48	2274.47
565.83	2276.85
566.19	2278.74
566.54	2279.92
566.89	2281.60
567.25	2282.65
567.60	2284.25
567.96	2286.46
568.31	2287.58
568.66	2289.12
569.02	2290.12
569.37	2290.78
569.72	2292.11
570.08	2292.45
570.43	2292.71
570.78	2292.56
571.14	2291.30
571.49	2290.23
571.84	2289.96
572.20	2289.01
572.55	2288.16
572.90	2286.70
573.26	2285.73
573.61	2284.18
573.96	2282.98
574.31	2280.24
574.67	2277.56
575.02	2274.25
575.37	2271.13
575.72	2267.85
576.08	2264.70
576.43	2261.53
576.78	2258.21
577.13	2255.10
577.49	2252.13
577.84	2249.15
578.19	2245.46
578.54	2242.25
578.90	2238.55
579.25	2233.41
579.60	2228.99
579.95	2224.23
580.30	2219.64
580.66	2214.67
581.01	2209.94
581.36	2205.13
581.71	2201.26
582.06	2197.09
582.42	2192.98
582.77	2188.01
583.12	2183.56
583.47	2179.38
583.82	2174.89
584.17	2169.87
584.53	2164.78
584.88	2159.46
585.23	2153.90
585.58	2148.65
585.93	2143.38
586.28	2138.65
586.63	2133.89
586.98	2128.84
587.34	2124.36
587.69	2119.55
588.04	2114.65
588.39	2109.27
588.74	2103.11
589.09	2097.21
589.44	2090.70
589.79	2084.69
590.14	2079.12
590.49	2072.76
590.84	2066.33
591.19	2060.47
591.54	2054.07
591.89	2046.98
592.25	2040.45
592.60	2033.30
592.95	2026.14
593.30	2018.90
593.65	2011.33
594.00	2004.52
594.35	1997.35
594.70	1989.41
595.05	1982.58
595.40	1975.28
595.75	1967.86
596.10	1961.73
596.45	1955.13
596.80	1949.02
597.15	1942.70
597.50	1935.94
597.85	1929.57
598.19	1923.17
598.54	1916.27
598.89	1909.85
599.24	1904.02
599.59	1897.63
599.94	1891.58
600.29	1885.31
600.64	1878.74
600.99	1871.61
601.34	1864.81
601.69	1857.85
602.04	1851.07
602.39	1843.68
602.74	1837.03
603.08	1830.37
603.43	1823.65
603.78	1816.36
604.13	1809.24
604.48	1802.16
604.83	1795.27
605.18	1788.53
605.53	1780.58
605.87	1772.57
606.22	1765.39
606.57	1757.33
606.92	1749.61
607.27	1742.52
607.62	1735.67
607.96	1728.58
608.31	1722.03
608.66	1714.54
609.01	1707.16
609.36	1699.63
609.70	1691.61
610.05	1683.58
610.40	1675.99
610.75	1667.71
611.10	1660.02
611.44	1651.41
611.79	1643.06
612.14	1634.37
612.49	1625.01
612.83	1616.54
613.18	1608.24
613.53	1600.06
613.88	1591.62
614.22	1583.50
614.57	1574.59
614.92	1566.36
615.27	1558.74
615.61	1550.40
615.96	1542.17
616.31	1534.41
616.65	1527.01
617.00	1519.37
617.35	1511.55
617.70	1503.18
618.04	1494.66
618.39	1486.33
618.74	1478.73
619.08	1470.46
619.43	1462.80
619.78	1455.87
620.12	1448.72
620.47	1441.13
620.82	1432.81
621.16	1425.10
621.51	1417.27
621.85	1409.69
622.20	1401.18
622.55	1392.62
622.89	1384.48
623.24	1376.75
623.59	1369.21
623.93	1361.57
624.28	1354.24
624.62	1346.64
624.97	1339.31
625.32	1332.27
625.66	1325.18
626.01	1318.05
626.35	1310.65
626.70	1302.80
627.04	1295.03
627.39	1287.02
627.73	1279.56
628.08	1272.61
628.43	1265.44
628.77	1258.16
629.12	1250.63
629.46	1243.39
629.81	1235.91
630.15	1228.55
630.50	1221.17
630.84	1212.93
631.19	1204.95
631.53	1197.34
631.88	1189.63
632.22	1181.99
632.57	1174.74
632.91	1167.10
633.26	1159.56
633.60	1151.95
633.95	1144.68
634.29	1137.43
634.64	1130.71
634.98	1123.29
635.32	1116.01
635.67	1109.18
636.01	1102.40
636.36	1095.46
636.70	1088.83
637.05	1082.12
637.39	1075.70
637.73	1069.20
638.08	1063.22
638.42	1057.09
638.77	1050.54
639.11	1043.97
639.45	1037.57
639.80	1030.82
640.14	1024.52
640.49	1017.99
640.83	1011.71
641.17	1005.53
641.52	999.22
641.86	992.64
642.20	986.77
642.55	980.34
642.89	973.95
643.23	967.25
643.58	961.40
643.92	955.24
644.26	949.28
644.61	943.20
644.95	937.04
645.29	930.52
645.64	923.84
645.98	917.56
646.32	911.59
646.66	905.43
647.01	899.63
647.35	893.77
647.69	887.82
648.04	882.25
648.38	876.46
648.72	870.45
649.06	864.44
649.41	858.44
649.75	852.55
650.09	846.45
650.43	840.72
650.78	834.57
651.12	828.46
651.46	822.64
651.80	816.95
652.14	811.58
652.49	806.17
652.83	800.85
653.17	795.21
653.51	789.64
653.85	784.16
654.20	778.53
654.54	772.53
654.88	766.74
655.22	760.86
655.56	755.06
655.90	749.55
656.25	744.35
656.59	738.96
656.93	733.88
657.27	728.84
657.61	723.44
657.95	718.34
658.29	713.32
658.64	708.01
658.98	702.59
659.32	697.02
659.66	691.79
660.00	686.58
660.34	681.54
660.68	676.48
661.02	671.45
661.36	666.67
661.70	662.14
662.05	657.75
662.39	653.35
662.73	648.90
663.07	644.46
663.41	640.02
663.75	635.60
664.09	630.94
664.43	626.45
664.77	622.28
665.11	617.97
665.45	613.75
665.79	609.67
666.13	605.51
666.47	601.34
666.81	597.13
667.15	592.99
667.49	589.02
667.83	585.14
668.17	581.21
668.51	577.09
668.85	572.99
669.19	569.11
669.53	565.29
669.87	561.44
670.21	557.71
670.55	553.98
670.89	550.47
671.23	547.03
671.57	543.51
671.91	539.98
672.25	536.45
672.58	532.94
672.92	529.50
673.26	526.33
673.60	523.24
673.94	520.12
674.28	517.14
674.62	514.22
674.96	511.14
675.30	508.18
675.64	505.28
675.97	502.48
676.31	499.61
676.65	496.63
676.99	493.87
677.33	490.96
677.67	488.17
678.01	485.15
678.34	482.17
678.68	479.27
679.02	476.44
679.36	473.62
679.70	470.79
680.04	468.05
680.37	465.20
680.71	462.33
681.05	459.66
681.39	456.93
681.73	454.20
682.06	451.61
682.40	449.06
682.74	446.46
683.08	443.89
683.42	441.25
683.75	438.73
684.09	436.12
684.43	433.70
684.77	431.22
685.10	428.82
685.44	426.53
685.78	424.16
686.12	421.78
686.45	419.46
686.79	417.22
687.13	414.96
687.46	412.75
687.80	410.52
688.14	408.29
688.48	406.15
688.81	403.93
689.15	401.79
689.49	399.59
689.82	397.50
690.16	395.35
690.50	393.37
690.83	391.42
691.17	389.38
691.51	387.38
691.84	385.46
692.18	383.54
692.52	381.53
692.85	379.56
693.19	377.77
693.52	375.93
693.86	374.09
694.20	372.30
694.53	370.46
694.87	368.61
695.21	366.78
695.54	364.92
695.88	363.18
696.21	361.41
696.55	359.71
696.88	358.03
697.22	356.35
697.56	354.68
697.89	353.01
698.23	351.42
698.56	349.81
698.90	348.22
699.23	346.55
699.57	344.96
699.90	343.45
700.24	341.86
700.58	340.37
700.91	338.86
701.25	337.38
701.58	336.03
701.92	334.69
702.25	333.35
702.59	332.00
702.92	330.65
703.26	329.35
703.59	328.09
703.93	326.86
704.26	325.60
704.60	324.31
704.93	322.99
705.26	321.76
705.60	320.55
705.93	319.37
706.27	318.31
706.60	317.22
706.94	316.11
707.27	314.97
707.61	313.82
707.94	312.81
708.27	311.74
708.61	310.62
708.94	309.56
709.28	308.55
709.61	307.56
709.94	306.58
710.28	305.52
710.61	304.49
710.95	303.40
711.28	302.48
711.61	301.54
711.95	300.65
712.28	299.65
712.61	298.69
712.95	297.72
713.28	296.82
713.61	295.91
713.95	294.99
714.28	294.10
714.61	293.26
714.95	292.36
715.28	291.46
715.61	290.57
715.95	289.71
716.28	288.82
716.61	287.99
716.95	287.13
717.28	286.38
717.61	285.57
717.94	284.84
718.28	284.02
718.61	283.24
718.94	282.51
719.27	281.84
719.61	281.14
719.94	280.50
720.27	279.75
720.60	279.06
720.94	278.44
721.27	277.85
721.60	277.26
721.93	276.67
722.27	276.10
722.60	275.53
722.93	274.95
723.26	274.39
723.59	273.83
723.93	273.31
724.26	272.74
724.59	272.18
724.92	271.64
725.25	271.17
725.59	270.67
725.92	270.14
726.25	269.61
726.58	269.16
726.91	268.65
727.24	268.18
727.57	267.73
727.91	267.24
728.24	266.75
728.57	266.23
728.90	265.74
729.23	265.25
729.56	264.80
729.89	264.31
730.22	263.82
730.55	263.32
730.89	262.86
731.22	262.41
731.55	261.99
731.88	261.54
732.21	261.05
732.54	260.60
732.87	260.22
733.20	259.80
733.53	259.39
733.86	258.99
734.19	258.61
734.52	258.19
734.85	257.85
735.18	257.43
735.51	257.07
735.84	256.69
736.17	256.37
736.50	255.99
736.83	255.76
737.16	255.41
737.49	255.06
737.82	254.68
738.15	254.32
738.48	253.94
738.81	253.59
739.14	253.29
739.47	253.00
739.80	252.65
740.13	252.35
740.46	252.07
740.79	251.72
741.12	251.41
741.45	251.09
741.78	250.75
742.11	250.52
742.44	250.19
742.77	249.92
743.10	249.61
743.43	249.25
743.75	248.89
744.08	248.76
744.41	248.51
744.74	248.26
745.07	248.00
745.40	247.80
745.73	247.59
746.06	247.31
746.39	247.03
746.71	246.74
747.04	246.46
747.37	246.16
747.70	245.93
748.03	245.67
748.36	245.46
748.68	245.22
749.01	244.91
749.34	244.68
749.67	244.42
750.00	244.21
750.33	244.05
750.65	243.80
750.98	243.45
751.31	243.21
751.64	242.99
751.97	242.82
752.29	242.56
752.62	242.31
752.95	242.07
753.28	241.85
753.60	241.64
753.93	241.45
754.26	241.25
754.59	241.01
754.91	240.78
755.24	240.56
755.57	240.34
755.90	240.16
756.22	239.98
756.55	239.78
756.88	239.54
757.20	239.31
757.53	239.12
757.86	238.95
758.19	238.78
758.51	238.61
758.84	238.41
759.17	238.24
759.49	238.07
759.82	237.97
760.15	237.79
760.47	237.66
760.80	237.49
761.13	237.35
761.45	237.22
761.78	237.06
762.11	236.92
762.43	236.74
762.76	236.59
763.08	236.43
763.41	236.31
763.74	236.19
764.06	236.06
764.39	235.89
764.71	235.74
765.04	235.61
765.37	235.48
765.69	235.34
766.02	235.24
766.34	235.11
766.67	234.97
767.00	234.87
767.32	234.83
767.65	234.78
767.97	234.65
768.30	234.51
768.62	234.44
768.95	234.32
769.27	234.26
769.60	234.17
769.92	234.07
770.25	233.95
770.57	233.85
770.90	233.76
771.22	233.67
771.55	233.59
771.87	233.51
772.20	233.41
772.52	233.45
772.85	233.48
773.17	233.39
773.50	233.31
773.82	233.23
774.15	233.09
774.47	232.93
774.80	232.85
775.12	232.81
775.45	232.71
775.77	232.65
776.09	232.59
776.42	232.49
776.74	232.45
777.07	232.38
777.39	232.29
777.72	232.20
778.04	232.15
778.36	232.07
778.69	231.97
779.01	231.92
779.33	231.76
779.66	231.54
779.98	231.47
780.31	231.38
780.63	231.38
780.95	231.31
781.28	231.26
781.60	231.16
781.92	231.07
782.25	231.01
782.57	230.94
782.89	230.84
783.22	230.77
783.54	230.70
783.86	230.67
784.19	230.60
784.51	230.57
784.83	230.48
785.16	230.43
785.48	230.38
785.80	230.31
786.12	230.20
786.45	230.17
786.77	230.14
787.09	230.11
787.42	229.97
787.74	229.95
788.06	229.89
788.38	229.85
788.71	229.82
789.03	229.78
789.35	229.76
789.67	229.72
789.99	229.71
790.32	229.63
790.64	229.57
790.96	229.60
791.28	229.50
791.61	229.48
791.93	229.46
792.25	229.43
792.57	229.44
792.89	229.43
793.21	229.37
793.54	229.29
793.86	229.22
794.18	229.21
794.50	229.12
794.82	229.10
795.14	229.08
795.47	229.00
795.79	228.93
796.11	228.85
796.43	228.78
796.75	228.74
797.07	228.72
797.39	228.67
797.71	228.62
798.04	228.57
798.36	228.54
798.68	228.50
799.00	228.49
799.32	228.43
799.64	228.39
799.96	228.34
800.28	228.31
800.60	228.31
800.92	228.30
801.24	228.28
801.56	228.22
801.89	228.17
802.21	228.19
802.53	228.16
802.85	228.16
803.17	228.22
803.49	228.16
803.81	228.11
804.13	228.04
804.45	227.99
804.77	227.99
805.09	227.95
805.41	227.87
805.73	227.80
806.05	227.73
806.37	227.68
806.69	227.65
807.01	227.61
807.33	227.56
807.65	227.50
807.97	227.53
808.28	227.51
808.60	227.51
808.92	227.45
809.24	227.47
809.56	227.43
809.88	227.38
810.20	227.37
810.52	227.36
810.84	227.35
811.16	227.30
811.48	227.29
811.80	227.28
812.12	227.27
812.43	227.27
812.75	227.25
813.07	227.25
813.39	227.26
813.71	227.24
814.03	227.19
814.35	227.14
814.67	227.06
814.98	227.05
815.30	227.01
815.62	226.97
815.94	226.91
816.26	226.95
816.58	226.89
816.89	226.85
817.21	226.84
817.53	226.83
817.85	226.81
818.17	226.78
818.48	226.76
818.80	226.77
819.12	226.72
819.44	226.71
819.76	226.65
820.07	226.64
820.39	226.65
820.71	226.65
821.03	226.63
821.34	226.61
821.66	226.58
821.98	226.58
822.30	226.55
822.61	226.57
822.93	226.46
823.25	226.44
823.57	226.42
823.88	226.42
824.20	226.40
824.52	226.39
824.83	226.37
825.15	226.32
825.47	226.29
825.79	226.29
826.10	226.27
826.42	226.29
826.74	226.26
827.05	226.22
827.37	226.22
827.69	226.23
828.00	226.17
828.32	226.16
828.64	226.11
828.95	226.18
829.27	226.16
829.58	226.17
829.90	226.18
830.22	226.20
830.53	226.17
830.85	226.14
831.17	226.13
831.48	226.12
831.80	226.15
832.11	226.16
832.43	226.12
832.75	226.09
833.06	226.13
833.38	226.09
833.69	226.08
834.01	226.08
834.32	226.07
834.64	226.10
834.96	226.10
835.27	226.09
835.59	226.03
835.90	225.98
836.22	225.94
836.53	225.90
836.85	225.89
837.16	225.97
837.48	225.95
837.79	225.98
838.11	226.01
838.42	225.99
838.74	225.97
839.05	225.97
839.37	226.00
839.68	225.92
840.00	225.93
840.31	225.94
840.63	225.92
840.94	225.88
841.26	225.85
841.57	225.84
841.88	225.86
842.20	225.83
842.51	225.82
842.83	225.85
843.14	225.93
843.46	225.91
843.77	225.85
844.08	225.84
844.40	225.80
844.71	225.77
845.03	225.77
845.34	225.76
845.65	225.74
845.97	225.70
846.28	225.73
846.60	225.75
846.91	225.70
847.22	225.71
847.54	225.76
847.85	225.79
848.16	225.77
848.48	225.75
848.79	225.80
849.10	225.84
849.42	225.83
849.73	225.74
850.04	225.74
850.36	225.70
850.67	225.74
850.98	225.74
851.30	225.73
851.61	225.73
851.92	225.72
852.23	225.74
852.55	225.77
852.86	225.75
853.17	225.77
853.49	225.79
853.80	225.79
854.11	225.79
854.42	225.78
854.74	225.78
855.05	225.77
855.36	225.72
855.67	225.72
855.99	225.73
856.30	225.87
856.61	225.87
856.92	225.88
857.23	225.86
857.55	225.84
857.86	225.83
858.17	225.80
858.48	225.78
858.79	225.79
859.11	225.81
859.42	225.82
859.73	225.77
860.04	225.77
860.35	225.72
860.66	225.69
860.98	225.69
861.29	225.73
861.60	225.71
861.91	225.76
862.22	225.75
862.53	225.72
862.84	225.59
863.16	225.58
863.47	225.55
863.78	225.53
864.09	225.56
864.40	225.57
864.71	225.57
865.02	225.59
865.33	225.55
865.64	225.49
865.95	225.48
866.27	225.54
866.58	225.54
866.89	225.55
867.20	225.54
867.51	225.49
867.82	225.41
868.13	225.45
868.44	225.41
868.75	225.44
869.06	225.43
869.37	225.42
869.68	225.40
869.99	225.40
870.30	225.43
870.61	225.43
870.92	225.41
871.23	225.43
871.54	225.42
871.85	225.46
872.16	225.46
872.47	225.44
872.78	225.39
873.09	225.38
873.40	225.36
873.71	225.37
874.02	225.39
874.33	225.41
874.64	225.36
874.95	225.38
875.26	225.30
875.56	225.31
875.87	225.30
876.18	225.32
876.49	225.43
876.80	225.38
877.11	225.36
877.42	225.39
877.73	225.34
878.04	225.34
878.35	225.32
878.66	225.33
878.96	225.34
879.27	225.36
879.58	225.34
879.89	225.36
880.20	225.39
880.51	225.38
880.82	225.40
881.12	225.40
881.43	225.36
881.74	225.39
882.05	225.39
882.36	225.39
882.67	225.35
882.97	225.24
883.28	225.24
883.59	225.23
883.90	225.18
884.21	225.23
884.51	225.25
884.82	225.24
885.13	225.22
885.44	225.21
885.74	225.17
886.05	225.19
886.36	225.20
886.67	225.17
886.98	225.22
887.28	225.20
887.59	225.21
887.90	225.22
888.20	225.21
888.51	225.22
888.82	225.23
889.13	225.25
889.43	225.35
889.74	225.34
890.05	225.35
890.35	225.35
890.66	225.33
890.97	225.32
891.28	225.33
891.58	225.34
891.89	225.32
892.20	225.32
892.50	225.29
892.81	225.28
893.12	225.28
893.42	225.23
893.73	225.25
894.04	225.24
894.34	225.24
894.65	225.23
894.95	225.22
895.26	225.20
895.57	225.30
895.87	225.20
896.18	225.22
896.48	225.25
896.79	225.26
897.10	225.24
897.40	225.23
897.71	225.21
898.01	225.21
898.32	225.22
898.63	225.23
898.93	225.23
899.24	225.24
899.54	225.22
899.85	225.21
900.15	225.20
900.46	225.23
900.76	225.25
901.07	225.24
901.38	225.24
901.68	225.26
901.99	225.18
902.29	225.19
902.60	225.22
902.90	225.20
903.21	225.19
903.51	225.20
903.82	225.24
904.12	225.26
904.43	225.26
904.73	225.27
905.03	225.26
905.34	225.36
905.64	225.32
905.95	225.31
906.25	225.28
906.56	225.27
906.86	225.24
907.17	225.21
907.47	225.18
907.77	225.15
908.08	225.12
908.38	225.10
908.69	225.10
908.99	225.09
909.30	225.05
909.60	225.03
909.90	225.00
910.21	224.96
910.51	224.91
910.81	224.88
911.12	224.83
911.42	224.85
911.73	224.72
912.03	224.72
912.33	224.75
912.64	224.75
912.94	224.73
913.24	224.73
913.55	224.72
913.85	224.76
914.15	224.77
914.46	224.76
914.76	224.75
915.06	224.73
915.37	224.68
915.67	224.68
915.97	224.71
916.27	224.68
916.58	224.67
916.88	224.69
917.18	224.69
917.49	224.78
917.79	224.76
918.09	224.79
918.39	224.83
918.70	224.83
919.00	224.84
919.30	224.90
919.60	224.88
919.91	224.88
920.21	224.86
920.51	224.86
920.81	224.87
921.12	224.88
921.42	224.88
921.72	224.89
922.02	224.93
922.32	224.90
922.63	224.91
922.93	224.98
923.23	225.00
923.53	224.99
923.83	224.91
924.13	224.94
924.44	224.95
924.74	224.96
925.04	225.00
925.34	224.97
925.64	224.93
925.94	224.94
926.24	224.97
926.55	224.95
926.85	224.94
927.15	224.94
927.45	224.94
927.75	224.95
928.05	224.95
928.35	224.92
928.65	224.95
928.95	224.95
929.26	224.88
929.56	224.87
929.86	224.87
930.16	224.86
930.46	224.84
930.76	224.82
931.06	224.77
931.36	224.75
931.66	224.76
931.96	224.78
932.26	224.79
932.56	224.79
932.86	224.83
933.16	224.85
933.46	224.85
933.76	224.85
934.06	224.87
934.36	224.92
934.66	224.94
934.96	224.95
935.26	224.97
935.56	225.00
935.86	225.01
936.16	225.02
936.46	225.03
936.76	225.04
937.06	225.04
937.36	225.06
937.66	225.07
937.96	225.07
938.26	225.04
938.56	225.05
938.86	225.07
939.16	225.10
939.46	225.09
939.76	225.10
940.06	225.09
940.35	225.07
940.65	225.00
940.95	225.00
941.25	224.99
941.55	225.01
941.85	225.00
942.15	225.02
942.45	225.07
942.75	225.05
943.04	225.05
943.34	225.07
943.64	225.06
943.94	225.03
944.24	225.05
944.54	225.09
944.84	225.07
945.13	225.04
945.43	225.04
945.73	225.08
946.03	225.07
946.33	225.11
946.62	225.10
946.92	225.12
947.22	225.16
947.52	225.15
947.82	225.14
948.11	225.14
948.41	225.16
948.71	225.14
949.01	225.18
949.31	225.18
949.60	225.17
949.90	225.19
950.20	225.21
950.50	225.20
950.79	225.18
951.09	225.19
951.39	225.17
951.69	225.18
951.98	225.18
952.28	225.17
952.58	225.14
952.87	225.13
953.17	225.18
953.47	225.17
953.76	225.15
954.06	225.14
954.36	225.12
954.66	225.07
954.95	225.08
955.25	225.09
955.55	225.11
955.84	225.09
956.14	225.06
956.44	225.05
956.73	225.05
957.03	225.05
957.32	225.03
957.62	225.03
957.92	225.02
958.21	225.03
958.51	225.13
958.81	225.16
959.10	225.18
959.40	225.19
959.69	225.16
959.99	225.17
960.29	225.17
960.58	225.14
960.88	225.19
961.17	225.16
961.47	225.13
961.76	225.09
962.06	225.12
962.36	225.14
962.65	225.14
962.95	225.14
963.24	225.16
963.54	225.17
963.83	225.16
964.13	225.17
964.42	225.12
964.72	225.09
965.01	225.05
965.31	225.04
965.60	225.01
965.90	225.10
966.19	225.09
966.49	225.08
966.78	225.10
967.08	225.06
967.37	225.07
967.67	225.06
967.96	225.06
968.26	225.06
968.55	225.05
968.85	225.05
969.14	225.02
969.43	225.01
969.73	225.02
970.02	225.03
970.32	225.00
970.61	224.99
970.91	224.92
971.20	224.96
971.49	224.93
971.79	224.91
972.08	224.83
972.38	224.84
972.67	224.84
972.96	224.85
973.26	224.85
973.55	224.89
973.85	224.87
974.14	224.85
974.43	224.83
974.73	224.81
975.02	224.81
975.31	224.87
975.61	224.85
975.90	224.86
976.19	224.82
976.49	224.83
976.78	224.85
977.07	224.85
977.37	224.80
977.66	224.84
977.95	224.81
978.24	224.82
978.54	224.81
978.83	224.81
979.12	224.87
979.42	224.87
979.71	224.85
980.00	224.87
980.29	224.91
980.59	224.91
980.88	224.94
981.17	224.98
981.46	224.95
981.76	224.95
982.05	224.96
982.34	224.96
982.63	224.96
982.93	224.97
983.22	224.99
983.51	225.02
983.80	225.01
984.09	225.01
984.39	224.99
984.68	225.00
984.97	225.00
985.26	224.94
985.55	224.93
985.85	224.88
986.14	224.88
986.43	224.86
986.72	224.84
987.01	224.81
987.30	224.75
987.59	224.74
987.89	224.73
988.18	224.70
988.47	224.71
988.76	224.68
989.05	224.69
989.34	224.66
989.63	224.66
989.92	224.65
990.22	224.66
990.51	224.66
990.80	224.64
991.09	224.65
991.38	224.68
991.67	224.67
991.96	224.68
992.25	224.68
992.54	224.67
992.83	224.69
993.12	224.69
993.41	224.73
993.70	224.75
993.99	224.79
994.28	224.81
994.58	224.84
994.87	224.85
995.16	224.82
995.45	224.85
995.74	224.82
996.03	224.84
996.32	224.86
996.61	224.89
996.90	224.89
997.19	224.86
997.48	224.86
997.77	224.87
998.06	224.88
998.34	224.93
998.63	224.93
998.92	224.93
999.21	224.94
999.50	224.96
999.79	224.95
1000.08	224.93
1000.37	224.93
1000.66	224.91
1000.95	224.93
1001.24	224.96
1001.53	224.98
1001.82	225.00
1002.11	225.00
1002.40	224.98
1002.68	225.03
1002.97	225.09
1003.26	225.14
1003.55	225.13
1003.84	225.15
1004.13	225.20
1004.42	225.16
1004.71	225.19
1004.99	225.16
1005.28	225.23
1005.57	225.23
1005.86	225.22
1006.15	225.22
1006.44	225.23
1006.72	225.23
1007.01	225.22
1007.30	225.22
1007.59	225.20
1007.88	225.21
1008.17	225.21
1008.45	225.22
1008.74	225.17
1009.03	225.13
1009.32	225.13
1009.60	225.11
1009.89	225.09
1010.18	225.05
1010.47	225.04
1010.76	225.01
1011.04	225.03
1011.33	225.04
1011.62	225.04
1011.91	225.06
1012.19	225.06
1012.48	225.07
1012.77	225.10
1013.05	225.15
1013.34	225.13
1013.63	225.13
1013.92	225.11
1014.20	225.10
1014.49	225.13
1014.78	225.14
1015.06	225.12
1015.35	225.08
1015.64	225.10
1015.92	225.15
1016.21	225.15
1016.50	225.17
1016.78	225.17
1017.07	225.18
1017.36	225.13
1017.64	225.13
1017.93	225.13
1018.22	225.13
1018.50	225.10
1018.79	225.10
1019.08	225.03
1019.36	225.07
1019.65	225.07
1019.93	225.08
1020.22	225.14
1020.51	225.14
1020.79	225.11
1021.08	225.01
1021.36	224.64
1021.65	225.34
1021.94	224.70
1022.22	225.39
1022.51	225.12
1022.79	224.95
1023.08	226.11
1023.36	225.95
1023.65	224.25
>>>>>End Processed Spectral Data<<<<<
