SpectraSuite Data File
++++++++++++++++++++++++++++++++++++
Date: Fri Feb 01 16:20:34 EST 2013
User: group
Dark Spectrum Present: No
Reference Spectrum Present: No
Number of Sampled Component Spectra: 1
Spectrometers: USB2E7196
Integration Time (usec): 35000 (USB2E7196)
Spectra Averaged: 100 (USB2E7196)
Boxcar Smoothing: 10 (USB2E7196)
Correct for Electrical Dark: No (USB2E7196)
Strobe/Lamp Enabled: No (USB2E7196)
Correct for Detector Non-linearity: No (USB2E7196)
Correct for Stray Light: No (USB2E7196)
Number of Pixels in Processed Spectrum: 2048
>>>>>Begin Processed Spectral Data<<<<<
339.09	0.00
339.48	214.01
339.86	215.62
340.24	216.75
340.63	218.28
341.01	221.25
341.39	221.04
341.78	222.32
342.16	223.71
342.54	223.78
342.93	212.62
343.31	223.37
343.69	223.92
344.07	224.38
344.46	224.85
344.84	225.26
345.22	225.49
345.60	225.75
345.99	225.96
346.37	226.09
346.75	226.19
347.13	226.23
347.52	226.32
347.90	226.39
348.28	226.39
348.66	226.41
349.05	226.37
349.43	226.39
349.81	226.39
350.19	226.44
350.57	226.47
350.96	226.55
351.34	226.63
351.72	226.71
352.10	226.81
352.48	226.81
352.87	226.83
353.25	226.91
353.63	226.98
354.01	227.03
354.39	227.12
354.77	227.20
355.15	227.30
355.54	227.36
355.92	227.39
356.30	227.47
356.68	227.62
357.06	227.70
357.44	227.73
357.82	227.81
358.20	227.86
358.58	227.90
358.97	227.93
359.35	227.99
359.73	228.07
360.11	228.12
360.49	228.18
360.87	228.24
361.25	228.26
361.63	228.30
362.01	228.32
362.39	228.35
362.77	228.38
363.15	228.39
363.53	228.38
363.91	228.42
364.29	228.43
364.67	228.33
365.05	228.34
365.43	228.34
365.81	228.35
366.19	228.37
366.57	228.45
366.95	228.45
367.33	228.41
367.71	228.41
368.09	228.40
368.47	228.37
368.85	228.34
369.23	228.33
369.61	228.27
369.99	228.28
370.37	228.25
370.75	228.25
371.13	228.16
371.51	228.13
371.89	228.05
372.27	228.03
372.65	227.99
373.03	227.95
373.41	227.88
373.78	227.82
374.16	227.75
374.54	227.65
374.92	227.58
375.30	227.53
375.68	227.41
376.06	227.36
376.44	227.29
376.82	227.23
377.19	227.16
377.57	227.07
377.95	226.99
378.33	226.91
378.71	226.79
379.09	226.75
379.47	226.71
379.84	226.61
380.22	226.50
380.60	226.43
380.98	226.37
381.36	226.31
381.73	226.23
382.11	226.19
382.49	226.15
382.87	226.06
383.25	226.04
383.62	226.10
384.00	226.01
384.38	226.00
384.76	226.00
385.13	225.99
385.51	225.98
385.89	225.90
386.27	225.85
386.64	225.85
387.02	225.85
387.40	225.80
387.78	225.81
388.15	225.83
388.53	225.78
388.91	225.74
389.29	225.72
389.66	225.73
390.04	225.69
390.42	225.67
390.79	225.69
391.17	225.63
391.55	225.51
391.92	225.53
392.30	225.53
392.68	225.51
393.05	225.50
393.43	225.50
393.81	225.51
394.18	225.53
394.56	225.53
394.94	225.53
395.31	225.55
395.69	225.59
396.06	225.61
396.44	225.66
396.82	225.67
397.19	225.76
397.57	225.78
397.95	225.82
398.32	225.84
398.70	225.89
399.07	225.97
399.45	226.02
399.82	226.06
400.20	226.06
400.58	226.11
400.95	226.14
401.33	226.24
401.70	226.40
402.08	226.47
402.45	226.56
402.83	226.69
403.20	226.78
403.58	226.87
403.95	226.97
404.33	227.08
404.71	227.22
405.08	227.36
405.46	227.48
405.83	227.63
406.21	227.76
406.58	227.92
406.96	228.08
407.33	228.24
407.70	228.44
408.08	228.73
408.45	228.93
408.83	229.17
409.20	229.36
409.58	229.55
409.95	229.81
410.33	230.07
410.70	230.27
411.08	230.58
411.45	230.87
411.82	231.18
412.20	231.54
412.57	231.96
412.95	232.28
413.32	232.67
413.69	233.09
414.07	233.52
414.44	234.00
414.82	234.50
415.19	235.07
415.56	235.61
415.94	236.16
416.31	236.79
416.68	237.42
417.06	238.13
417.43	238.77
417.81	239.54
418.18	240.30
418.55	241.16
418.93	242.03
419.30	242.94
419.67	243.86
420.04	244.83
420.42	245.81
420.79	247.00
421.16	248.16
421.54	249.36
421.91	250.59
422.28	251.85
422.66	253.16
423.03	254.46
423.40	255.82
423.77	257.23
424.15	258.68
424.52	260.15
424.89	261.77
425.26	263.33
425.64	264.78
426.01	266.38
426.38	268.07
426.75	269.74
427.13	271.47
427.50	273.27
427.87	275.13
428.24	277.03
428.61	278.74
428.99	280.69
429.36	282.80
429.73	284.85
430.10	286.85
430.47	288.94
430.85	291.03
431.22	293.21
431.59	295.59
431.96	297.81
432.33	300.33
432.70	302.72
433.08	305.49
433.45	308.12
433.82	310.68
434.19	313.54
434.56	316.30
434.93	318.91
435.30	321.55
435.68	324.43
436.05	327.23
436.42	330.01
436.79	332.51
437.16	335.19
437.53	338.04
437.90	340.82
438.27	343.55
438.64	346.40
439.01	349.00
439.38	351.25
439.75	353.38
440.13	355.86
440.50	358.14
440.87	359.99
441.24	361.90
441.61	364.08
441.98	365.57
442.35	367.34
442.72	369.27
443.09	371.09
443.46	372.09
443.83	372.67
444.20	373.19
444.57	374.03
444.94	374.27
445.31	374.53
445.68	374.91
446.05	374.97
446.42	374.56
446.79	374.13
447.16	373.66
447.53	373.35
447.90	372.16
448.27	371.02
448.64	369.42
449.01	368.36
449.37	366.39
449.74	364.52
450.11	362.34
450.48	359.81
450.85	357.23
451.22	355.07
451.59	353.05
451.96	351.06
452.33	348.48
452.70	346.16
453.07	343.40
453.43	340.51
453.80	337.73
454.17	335.04
454.54	332.53
454.91	329.83
455.28	327.18
455.65	324.72
456.02	322.28
456.38	320.18
456.75	317.47
457.12	315.23
457.49	312.97
457.86	310.81
458.23	308.94
458.59	306.90
458.96	304.83
459.33	302.98
459.70	301.15
460.07	299.69
460.43	297.96
460.80	296.35
461.17	294.89
461.54	293.41
461.91	292.02
462.27	290.59
462.64	289.32
463.01	287.96
463.38	286.70
463.74	285.35
464.11	284.19
464.48	283.19
464.85	282.08
465.21	281.23
465.58	280.35
465.95	279.30
466.32	278.42
466.68	277.55
467.05	276.70
467.42	275.79
467.78	274.82
468.15	273.96
468.52	273.28
468.88	272.46
469.25	271.70
469.62	271.07
469.98	270.40
470.35	269.77
470.72	269.18
471.08	268.52
471.45	267.98
471.82	267.45
472.18	266.86
472.55	266.48
472.92	265.97
473.28	265.47
473.65	265.05
474.02	264.63
474.38	264.27
474.75	263.95
475.11	263.64
475.48	263.39
475.85	263.16
476.21	262.97
476.58	262.78
476.94	262.66
477.31	262.51
477.67	262.38
478.04	262.30
478.41	262.29
478.77	262.32
479.14	262.27
479.50	262.28
479.87	262.37
480.23	262.42
480.60	262.49
480.96	262.58
481.33	262.81
481.69	263.01
482.06	263.22
482.42	263.41
482.79	263.67
483.15	264.02
483.52	264.43
483.88	264.78
484.25	265.16
484.61	265.60
484.98	266.07
485.34	266.64
485.71	267.25
486.07	267.83
486.44	268.42
486.80	269.14
487.17	269.92
487.53	270.75
487.90	271.59
488.26	272.54
488.62	273.52
488.99	274.49
489.35	275.51
489.72	276.63
490.08	277.87
490.44	279.11
490.81	280.43
491.17	281.76
491.54	283.23
491.90	284.79
492.26	286.45
492.63	288.18
492.99	289.94
493.36	291.82
493.72	293.88
494.08	296.00
494.45	298.26
494.81	300.61
495.17	302.99
495.54	305.56
495.90	308.27
496.26	311.13
496.63	314.07
496.99	317.18
497.35	320.44
497.72	323.82
498.08	327.34
498.44	331.07
498.80	334.99
499.17	339.03
499.53	343.19
499.89	347.54
500.26	352.07
500.62	356.77
500.98	361.75
501.34	366.81
501.71	372.16
502.07	377.59
502.43	383.18
502.79	389.02
503.16	395.14
503.52	401.41
503.88	407.82
504.24	414.47
504.60	421.38
504.97	428.47
505.33	435.81
505.69	443.52
506.05	451.21
506.41	459.10
506.78	467.29
507.14	475.78
507.50	484.52
507.86	493.54
508.22	502.72
508.59	511.92
508.95	521.61
509.31	531.35
509.67	541.46
510.03	551.71
510.39	562.31
510.75	573.08
511.12	584.04
511.48	595.29
511.84	606.79
512.20	618.38
512.56	630.35
512.92	642.54
513.28	654.97
513.64	667.48
514.00	680.27
514.37	693.21
514.73	706.17
515.09	719.14
515.45	732.43
515.81	745.97
516.17	759.97
516.53	773.95
516.89	788.15
517.25	802.32
517.61	816.76
517.97	831.14
518.33	845.56
518.69	860.25
519.05	875.19
519.41	890.28
519.77	905.71
520.13	921.12
520.49	936.39
520.85	951.66
521.21	967.39
521.57	983.53
521.93	999.17
522.29	1015.59
522.65	1031.83
523.01	1048.03
523.37	1064.10
523.73	1080.19
524.09	1096.31
524.45	1112.56
524.81	1129.06
525.17	1145.90
525.53	1162.76
525.89	1179.62
526.25	1196.42
526.61	1212.81
526.97	1229.46
527.33	1245.83
527.68	1262.33
528.04	1278.77
528.40	1295.38
528.76	1312.35
529.12	1328.80
529.48	1345.71
529.84	1361.67
530.20	1378.28
530.56	1395.20
530.91	1412.52
531.27	1429.17
531.63	1445.58
531.99	1462.08
532.35	1478.02
532.71	1493.78
533.07	1509.97
533.42	1525.78
533.78	1541.79
534.14	1558.01
534.50	1573.34
534.86	1589.21
535.21	1604.32
535.57	1620.22
535.93	1635.67
536.29	1650.42
536.65	1665.51
537.00	1680.20
537.36	1695.27
537.72	1709.66
538.08	1724.06
538.44	1737.81
538.79	1751.77
539.15	1765.34
539.51	1779.03
539.87	1793.29
540.22	1807.00
540.58	1820.59
540.94	1833.85
541.29	1846.67
541.65	1859.20
542.01	1872.31
542.37	1884.48
542.72	1896.90
543.08	1908.62
543.44	1920.89
543.79	1932.05
544.15	1942.90
544.51	1954.47
544.87	1965.56
545.22	1976.41
545.58	1986.42
545.94	1996.03
546.29	2005.70
546.65	2015.44
547.01	2024.64
547.36	2033.30
547.72	2041.78
548.07	2049.70
548.43	2057.90
548.79	2065.86
549.14	2073.46
549.50	2080.68
549.86	2088.33
550.21	2095.64
550.57	2102.83
550.92	2109.32
551.28	2116.21
551.64	2123.31
551.99	2129.76
552.35	2135.90
552.70	2141.98
553.06	2148.01
553.41	2154.33
553.77	2160.25
554.13	2166.29
554.48	2172.36
554.84	2177.79
555.19	2182.93
555.55	2188.13
555.90	2192.52
556.26	2197.49
556.61	2202.23
556.97	2206.56
557.32	2210.73
557.68	2214.78
558.03	2219.06
558.39	2222.90
558.74	2227.62
559.10	2231.49
559.45	2235.19
559.81	2239.50
560.16	2243.41
560.52	2246.67
560.87	2250.10
561.23	2252.93
561.58	2256.05
561.94	2258.79
562.29	2261.14
562.64	2263.82
563.00	2266.31
563.35	2269.86
563.71	2272.77
564.06	2276.04
564.42	2279.09
564.77	2281.71
565.12	2284.15
565.48	2285.94
565.83	2287.73
566.19	2289.10
566.54	2289.94
566.89	2290.92
567.25	2291.52
567.60	2292.79
567.96	2294.56
568.31	2295.49
568.66	2296.72
569.02	2297.23
569.37	2297.38
569.72	2298.29
570.08	2298.61
570.43	2298.71
570.78	2298.28
571.14	2296.83
571.49	2295.37
571.84	2295.06
572.20	2293.92
572.55	2292.79
572.90	2291.40
573.26	2289.96
573.61	2288.23
573.96	2286.56
574.31	2283.78
574.67	2280.90
575.02	2277.32
575.37	2274.00
575.72	2270.28
576.08	2266.81
576.43	2263.49
576.78	2259.99
577.13	2256.96
577.49	2253.86
577.84	2250.38
578.19	2246.67
578.54	2243.17
578.90	2239.04
579.25	2233.51
579.60	2228.52
579.95	2223.57
580.30	2218.62
580.66	2213.62
581.01	2208.98
581.36	2204.09
581.71	2199.99
582.06	2195.43
582.42	2191.08
582.77	2185.83
583.12	2181.26
583.47	2176.60
583.82	2171.72
584.17	2166.61
584.53	2161.16
584.88	2155.47
585.23	2149.85
585.58	2144.33
585.93	2139.01
586.28	2134.34
586.63	2129.33
586.98	2124.47
587.34	2119.97
587.69	2115.13
588.04	2109.94
588.39	2104.14
588.74	2097.76
589.09	2091.65
589.44	2084.98
589.79	2079.06
590.14	2073.42
590.49	2066.87
590.84	2060.58
591.19	2054.51
591.54	2048.01
591.89	2040.71
592.25	2033.97
592.60	2026.79
592.95	2019.22
593.30	2011.69
593.65	2004.17
594.00	1997.18
594.35	1989.88
594.70	1981.71
595.05	1974.43
595.40	1967.23
595.75	1959.72
596.10	1953.55
596.45	1946.81
596.80	1940.79
597.15	1934.12
597.50	1927.06
597.85	1920.71
598.19	1913.98
598.54	1906.81
598.89	1900.25
599.24	1894.28
599.59	1887.73
599.94	1881.53
600.29	1875.15
600.64	1868.73
600.99	1861.34
601.34	1854.44
601.69	1847.56
602.04	1840.63
602.39	1833.19
602.74	1826.35
603.08	1819.75
603.43	1812.98
603.78	1805.74
604.13	1798.31
604.48	1790.92
604.83	1784.10
605.18	1777.16
605.53	1769.25
605.87	1761.44
606.22	1754.24
606.57	1746.33
606.92	1739.07
607.27	1731.74
607.62	1725.03
607.96	1717.83
608.31	1711.09
608.66	1703.66
609.01	1696.14
609.36	1688.63
609.70	1680.78
610.05	1672.72
610.40	1664.91
610.75	1656.57
611.10	1648.85
611.44	1640.60
611.79	1632.73
612.14	1624.05
612.49	1614.80
612.83	1606.49
613.18	1598.40
613.53	1590.25
613.88	1581.76
614.22	1573.40
614.57	1564.93
614.92	1556.83
615.27	1549.27
615.61	1540.96
615.96	1532.77
616.31	1525.27
616.65	1518.01
617.00	1510.40
617.35	1502.76
617.70	1494.42
618.04	1486.00
618.39	1477.81
618.74	1470.10
619.08	1461.71
619.43	1454.17
619.78	1447.41
620.12	1440.16
620.47	1432.60
620.82	1424.32
621.16	1416.87
621.51	1409.30
621.85	1401.66
622.20	1393.05
622.55	1384.64
622.89	1376.85
623.24	1369.23
623.59	1361.58
623.93	1353.98
624.28	1346.83
624.62	1339.21
624.97	1332.02
625.32	1325.23
625.66	1318.20
626.01	1311.16
626.35	1303.75
626.70	1295.91
627.04	1288.10
627.39	1280.36
627.73	1272.91
628.08	1266.07
628.43	1258.83
628.77	1251.37
629.12	1243.82
629.46	1236.70
629.81	1229.20
630.15	1221.95
630.50	1214.54
630.84	1206.39
631.19	1198.49
631.53	1190.95
631.88	1183.37
632.22	1175.70
632.57	1168.45
632.91	1160.85
633.26	1153.40
633.60	1146.04
633.95	1138.92
634.29	1131.89
634.64	1125.24
634.98	1117.90
635.32	1110.73
635.67	1104.08
636.01	1097.47
636.36	1090.69
636.70	1084.25
637.05	1077.64
637.39	1071.18
637.73	1064.60
638.08	1058.67
638.42	1052.65
638.77	1046.12
639.11	1039.50
639.45	1033.27
639.80	1026.51
640.14	1020.16
640.49	1013.57
640.83	1007.21
641.17	1001.04
641.52	994.68
641.86	988.12
642.20	982.20
642.55	975.88
642.89	969.37
643.23	962.82
643.58	957.02
643.92	950.77
644.26	944.72
644.61	938.70
644.95	932.68
645.29	926.17
645.64	919.46
645.98	913.10
646.32	907.38
646.66	901.25
647.01	895.48
647.35	889.66
647.69	883.84
648.04	878.33
648.38	872.58
648.72	866.56
649.06	860.57
649.41	854.72
649.75	848.72
650.09	842.87
650.43	837.08
650.78	830.94
651.12	824.99
651.46	819.32
651.80	813.59
652.14	808.20
652.49	802.82
652.83	797.62
653.17	791.93
653.51	786.19
653.85	780.80
654.20	775.19
654.54	769.19
654.88	763.44
655.22	757.53
655.56	751.85
655.90	746.50
656.25	741.20
656.59	735.85
656.93	730.81
657.27	725.55
657.61	720.14
657.95	715.01
658.29	709.85
658.64	704.61
658.98	699.24
659.32	693.82
659.66	688.57
660.00	683.25
660.34	678.34
660.68	673.43
661.02	668.41
661.36	663.63
661.70	659.20
662.05	654.81
662.39	650.54
662.73	646.00
663.07	641.53
663.41	637.13
663.75	632.68
664.09	628.06
664.43	623.67
664.77	619.58
665.11	615.34
665.45	611.25
665.79	607.09
666.13	602.98
666.47	598.86
666.81	594.71
667.15	590.60
667.49	586.70
667.83	582.89
668.17	578.97
668.51	574.91
668.85	570.88
669.19	567.04
669.53	563.14
669.87	559.24
670.21	555.53
670.55	551.86
670.89	548.36
671.23	544.94
671.57	541.40
671.91	537.86
672.25	534.34
672.58	530.77
672.92	527.41
673.26	524.24
673.60	521.03
673.94	517.94
674.28	515.04
674.62	512.09
674.96	508.94
675.30	505.93
675.64	503.01
675.97	500.16
676.31	497.28
676.65	494.34
676.99	491.64
677.33	488.80
677.67	485.95
678.01	482.94
678.34	479.96
678.68	477.11
679.02	474.25
679.36	471.45
679.70	468.73
680.04	465.89
680.37	462.99
680.71	460.25
681.05	457.58
681.39	454.83
681.73	452.16
682.06	449.59
682.40	447.09
682.74	444.58
683.08	442.00
683.42	439.40
683.75	436.94
684.09	434.36
684.43	431.86
684.77	429.38
685.10	427.01
685.44	424.67
685.78	422.33
686.12	420.05
686.45	417.77
686.79	415.46
687.13	413.25
687.46	411.11
687.80	408.91
688.14	406.67
688.48	404.56
688.81	402.29
689.15	400.13
689.49	397.96
689.82	395.84
690.16	393.79
690.50	391.77
690.83	389.78
691.17	387.82
691.51	385.90
691.84	384.03
692.18	382.11
692.52	380.12
692.85	378.19
693.19	376.31
693.52	374.48
693.86	372.67
694.20	370.92
694.53	369.10
694.87	367.28
695.21	365.53
695.54	363.73
695.88	362.02
696.21	360.34
696.55	358.68
696.88	356.95
697.22	355.31
697.56	353.73
697.89	352.05
698.23	350.44
698.56	348.80
698.90	347.22
699.23	345.56
699.57	344.02
699.90	342.52
700.24	341.00
700.58	339.48
700.91	337.96
701.25	336.51
701.58	335.11
701.92	333.74
702.25	332.32
702.59	330.96
702.92	329.63
703.26	328.32
703.59	327.01
703.93	325.89
704.26	324.69
704.60	323.38
704.93	322.15
705.26	320.90
705.60	319.77
705.93	318.63
706.27	317.57
706.60	316.55
706.94	315.43
707.27	314.29
707.61	313.23
707.94	312.27
708.27	311.16
708.61	310.12
708.94	309.13
709.28	308.16
709.61	307.19
709.94	306.27
710.28	305.25
710.61	304.30
710.95	303.18
711.28	302.23
711.61	301.33
711.95	300.44
712.28	299.51
712.61	298.52
712.95	297.61
713.28	296.73
713.61	295.80
713.95	294.93
714.28	294.12
714.61	293.25
714.95	292.41
715.28	291.61
715.61	290.72
715.95	289.87
716.28	289.02
716.61	288.22
716.95	287.39
717.28	286.65
717.61	285.86
717.94	285.15
718.28	284.33
718.61	283.58
718.94	282.83
719.27	282.13
719.61	281.48
719.94	280.77
720.27	280.03
720.60	279.41
720.94	278.76
721.27	278.15
721.60	277.51
721.93	276.88
722.27	276.29
722.60	275.76
722.93	275.18
723.26	274.64
723.59	274.09
723.93	273.52
724.26	272.93
724.59	272.34
724.92	271.78
725.25	271.28
725.59	270.74
725.92	270.22
726.25	269.74
726.58	269.20
726.91	268.72
727.24	268.28
727.57	267.75
727.91	267.28
728.24	266.80
728.57	266.38
728.90	265.93
729.23	265.45
729.56	264.99
729.89	264.53
730.22	264.06
730.55	263.53
730.89	263.07
731.22	262.63
731.55	262.21
731.88	261.80
732.21	261.37
732.54	260.96
732.87	260.56
733.20	260.18
733.53	259.83
733.86	259.46
734.19	259.06
734.52	258.70
734.85	258.38
735.18	257.96
735.51	257.56
735.84	257.17
736.17	256.82
736.50	256.43
736.83	256.18
737.16	255.79
737.49	255.47
737.82	255.13
738.15	254.82
738.48	254.48
738.81	254.16
739.14	253.86
739.47	253.56
739.80	253.24
740.13	252.93
740.46	252.56
740.79	252.21
741.12	251.90
741.45	251.58
741.78	251.20
742.11	250.94
742.44	250.63
742.77	250.34
743.10	250.04
743.43	249.71
743.75	249.35
744.08	249.23
744.41	248.98
744.74	248.71
745.07	248.45
745.40	248.23
745.73	247.99
746.06	247.68
746.39	247.43
746.71	247.16
747.04	246.91
747.37	246.68
747.70	246.44
748.03	246.25
748.36	246.05
748.68	245.85
749.01	245.56
749.34	245.36
749.67	245.13
750.00	244.92
750.33	244.79
750.65	244.60
750.98	244.25
751.31	244.02
751.64	243.81
751.97	243.65
752.29	243.45
752.62	243.22
752.95	243.02
753.28	242.80
753.60	242.62
753.93	242.40
754.26	242.23
754.59	242.02
754.91	241.79
755.24	241.57
755.57	241.35
755.90	241.19
756.22	240.97
756.55	240.77
756.88	240.57
757.20	240.31
757.53	240.09
757.86	239.97
758.19	239.83
758.51	239.67
758.84	239.44
759.17	239.24
759.49	239.09
759.82	238.99
760.15	238.84
760.47	238.66
760.80	238.49
761.13	238.35
761.45	238.19
761.78	238.04
762.11	237.87
762.43	237.73
762.76	237.58
763.08	237.44
763.41	237.31
763.74	237.18
764.06	237.03
764.39	236.89
764.71	236.69
765.04	236.54
765.37	236.43
765.69	236.30
766.02	236.18
766.34	236.03
766.67	235.87
767.00	235.76
767.32	235.68
767.65	235.63
767.97	235.49
768.30	235.38
768.62	235.27
768.95	235.15
769.27	235.03
769.60	234.95
769.92	234.82
770.25	234.68
770.57	234.57
770.90	234.49
771.22	234.36
771.55	234.30
771.87	234.18
772.20	234.08
772.52	234.06
772.85	234.07
773.17	233.98
773.50	233.86
773.82	233.74
774.15	233.58
774.47	233.42
774.80	233.35
775.12	233.24
775.45	233.15
775.77	233.06
776.09	232.99
776.42	232.90
776.74	232.84
777.07	232.77
777.39	232.67
777.72	232.58
778.04	232.55
778.36	232.48
778.69	232.41
779.01	232.34
779.33	232.21
779.66	232.03
779.98	231.97
780.31	231.90
780.63	231.90
780.95	231.91
781.28	231.86
781.60	231.80
781.92	231.78
782.25	231.73
782.57	231.72
782.89	231.65
783.22	231.59
783.54	231.54
783.86	231.52
784.19	231.50
784.51	231.50
784.83	231.43
785.16	231.35
785.48	231.31
785.80	231.23
786.12	231.16
786.45	231.15
786.77	231.09
787.09	231.05
787.42	230.96
787.74	230.90
788.06	230.85
788.38	230.82
788.71	230.76
789.03	230.68
789.35	230.65
789.67	230.61
789.99	230.60
790.32	230.53
790.64	230.50
790.96	230.50
791.28	230.41
791.61	230.37
791.93	230.36
792.25	230.34
792.57	230.36
792.89	230.32
793.21	230.28
793.54	230.25
793.86	230.18
794.18	230.15
794.50	230.11
794.82	230.07
795.14	230.00
795.47	229.99
795.79	229.98
796.11	229.91
796.43	229.86
796.75	229.79
797.07	229.76
797.39	229.72
797.71	229.63
798.04	229.60
798.36	229.59
798.68	229.56
799.00	229.51
799.32	229.42
799.64	229.42
799.96	229.36
800.28	229.33
800.60	229.32
800.92	229.26
801.24	229.18
801.56	229.15
801.89	229.09
802.21	229.04
802.53	228.97
802.85	228.94
803.17	228.94
803.49	228.86
803.81	228.82
804.13	228.77
804.45	228.73
804.77	228.71
805.09	228.63
805.41	228.57
805.73	228.50
806.05	228.47
806.37	228.38
806.69	228.34
807.01	228.27
807.33	228.23
807.65	228.18
807.97	228.19
808.28	228.14
808.60	228.12
808.92	228.06
809.24	228.12
809.56	228.09
809.88	228.05
810.20	228.06
810.52	228.06
810.84	228.02
811.16	227.98
811.48	227.95
811.80	227.96
812.12	227.96
812.43	227.97
812.75	227.94
813.07	227.96
813.39	227.96
813.71	227.95
814.03	227.93
814.35	227.91
814.67	227.83
814.98	227.80
815.30	227.77
815.62	227.73
815.94	227.61
816.26	227.61
816.58	227.56
816.89	227.54
817.21	227.50
817.53	227.50
817.85	227.47
818.17	227.44
818.48	227.41
818.80	227.40
819.12	227.36
819.44	227.36
819.76	227.32
820.07	227.29
820.39	227.29
820.71	227.30
821.03	227.29
821.34	227.31
821.66	227.35
821.98	227.36
822.30	227.35
822.61	227.41
822.93	227.36
823.25	227.38
823.57	227.39
823.88	227.43
824.20	227.44
824.52	227.45
824.83	227.46
825.15	227.45
825.47	227.42
825.79	227.43
826.10	227.42
826.42	227.38
826.74	227.39
827.05	227.38
827.37	227.36
827.69	227.37
828.00	227.37
828.32	227.35
828.64	227.36
828.95	227.43
829.27	227.39
829.58	227.41
829.90	227.43
830.22	227.41
830.53	227.39
830.85	227.36
831.17	227.36
831.48	227.34
831.80	227.36
832.11	227.37
832.43	227.33
832.75	227.35
833.06	227.42
833.38	227.37
833.69	227.37
834.01	227.37
834.32	227.38
834.64	227.37
834.96	227.36
835.27	227.34
835.59	227.30
835.90	227.30
836.22	227.31
836.53	227.27
836.85	227.28
837.16	227.36
837.48	227.35
837.79	227.38
838.11	227.40
838.42	227.37
838.74	227.39
839.05	227.38
839.37	227.35
839.68	227.30
840.00	227.31
840.31	227.32
840.63	227.32
840.94	227.30
841.26	227.28
841.57	227.31
841.88	227.32
842.20	227.30
842.51	227.30
842.83	227.29
843.14	227.38
843.46	227.34
843.77	227.29
844.08	227.27
844.40	227.24
844.71	227.21
845.03	227.22
845.34	227.16
845.65	227.17
845.97	227.18
846.28	227.21
846.60	227.20
846.91	227.20
847.22	227.19
847.54	227.19
847.85	227.20
848.16	227.18
848.48	227.15
848.79	227.17
849.10	227.14
849.42	227.15
849.73	227.04
850.04	227.04
850.36	226.96
850.67	226.96
850.98	226.93
851.30	226.92
851.61	226.87
851.92	226.91
852.23	226.90
852.55	226.89
852.86	226.83
853.17	226.84
853.49	226.80
853.80	226.80
854.11	226.80
854.42	226.80
854.74	226.76
855.05	226.73
855.36	226.68
855.67	226.70
855.99	226.70
856.30	226.79
856.61	226.79
856.92	226.82
857.23	226.80
857.55	226.78
857.86	226.77
858.17	226.79
858.48	226.74
858.79	226.74
859.11	226.73
859.42	226.72
859.73	226.69
860.04	226.70
860.35	226.65
860.66	226.58
860.98	226.55
861.29	226.54
861.60	226.53
861.91	226.53
862.22	226.49
862.53	226.46
862.84	226.34
863.16	226.35
863.47	226.32
863.78	226.31
864.09	226.31
864.40	226.32
864.71	226.33
865.02	226.37
865.33	226.36
865.64	226.36
865.95	226.36
866.27	226.43
866.58	226.39
866.89	226.40
867.20	226.43
867.51	226.41
867.82	226.43
868.13	226.51
868.44	226.47
868.75	226.49
869.06	226.49
869.37	226.49
869.68	226.43
869.99	226.44
870.30	226.43
870.61	226.44
870.92	226.41
871.23	226.38
871.54	226.37
871.85	226.38
872.16	226.39
872.47	226.40
872.78	226.34
873.09	226.37
873.40	226.39
873.71	226.41
874.02	226.42
874.33	226.40
874.64	226.36
874.95	226.41
875.26	226.41
875.56	226.41
875.87	226.44
876.18	226.43
876.49	226.57
876.80	226.59
877.11	226.59
877.42	226.59
877.73	226.61
878.04	226.58
878.35	226.58
878.66	226.56
878.96	226.59
879.27	226.58
879.58	226.57
879.89	226.58
880.20	226.57
880.51	226.56
880.82	226.56
881.12	226.56
881.43	226.55
881.74	226.52
882.05	226.50
882.36	226.49
882.67	226.51
882.97	226.40
883.28	226.38
883.59	226.37
883.90	226.38
884.21	226.38
884.51	226.35
884.82	226.31
885.13	226.32
885.44	226.29
885.74	226.25
886.05	226.23
886.36	226.21
886.67	226.17
886.98	226.21
887.28	226.20
887.59	226.14
887.90	226.11
888.20	226.09
888.51	226.09
888.82	226.04
889.13	226.06
889.43	226.12
889.74	226.10
890.05	226.10
890.35	226.07
890.66	226.04
890.97	226.05
891.28	226.05
891.58	226.04
891.89	226.04
892.20	226.05
892.50	226.02
892.81	225.99
893.12	225.98
893.42	225.90
893.73	225.92
894.04	225.93
894.34	225.96
894.65	225.95
894.95	225.94
895.26	226.02
895.57	226.02
895.87	225.91
896.18	225.93
896.48	225.94
896.79	225.92
897.10	225.93
897.40	225.92
897.71	225.93
898.01	225.91
898.32	225.89
898.63	225.87
898.93	225.94
899.24	225.96
899.54	225.96
899.85	225.99
900.15	226.00
900.46	226.01
900.76	225.99
901.07	226.03
901.38	226.03
901.68	226.00
901.99	225.98
902.29	226.02
902.60	226.01
902.90	226.01
903.21	226.05
903.51	226.06
903.82	226.10
904.12	226.10
904.43	226.11
904.73	226.16
905.03	226.21
905.34	226.28
905.64	226.25
905.95	226.28
906.25	226.29
906.56	226.28
906.86	226.29
907.17	226.31
907.47	226.28
907.77	226.28
908.08	226.27
908.38	226.30
908.69	226.28
908.99	226.34
909.30	226.38
909.60	226.39
909.90	226.42
910.21	226.43
910.51	226.42
910.81	226.42
911.12	226.43
911.42	226.44
911.73	226.37
912.03	226.41
912.33	226.43
912.64	226.43
912.94	226.42
913.24	226.44
913.55	226.43
913.85	226.46
914.15	226.47
914.46	226.50
914.76	226.48
915.06	226.50
915.37	226.45
915.67	226.43
915.97	226.41
916.27	226.35
916.58	226.35
916.88	226.36
917.18	226.35
917.49	226.40
917.79	226.36
918.09	226.35
918.39	226.37
918.70	226.35
919.00	226.36
919.30	226.41
919.60	226.36
919.91	226.35
920.21	226.33
920.51	226.31
920.81	226.27
921.12	226.27
921.42	226.28
921.72	226.28
922.02	226.27
922.32	226.26
922.63	226.26
922.93	226.27
923.23	226.25
923.53	226.27
923.83	226.20
924.13	226.25
924.44	226.21
924.74	226.20
925.04	226.19
925.34	226.17
925.64	226.12
925.94	226.13
926.24	226.15
926.55	226.13
926.85	226.15
927.15	226.19
927.45	226.16
927.75	226.15
928.05	226.13
928.35	226.10
928.65	226.13
928.95	226.15
929.26	226.12
929.56	226.13
929.86	226.11
930.16	226.06
930.46	226.03
930.76	226.04
931.06	226.00
931.36	225.97
931.66	225.97
931.96	225.97
932.26	225.93
932.56	225.93
932.86	225.95
933.16	225.92
933.46	225.89
933.76	225.87
934.06	225.86
934.36	225.91
934.66	225.89
934.96	225.86
935.26	225.88
935.56	225.86
935.86	225.84
936.16	225.83
936.46	225.86
936.76	225.86
937.06	225.84
937.36	225.85
937.66	225.89
937.96	225.90
938.26	225.89
938.56	225.92
938.86	225.91
939.16	225.92
939.46	225.96
939.76	225.95
940.06	225.99
940.35	225.98
940.65	225.93
940.95	225.99
941.25	225.99
941.55	225.96
941.85	225.97
942.15	225.99
942.45	226.03
942.75	226.02
943.04	226.04
943.34	226.08
943.64	226.09
943.94	226.08
944.24	226.09
944.54	226.11
944.84	226.13
945.13	226.10
945.43	226.10
945.73	226.08
946.03	226.12
946.33	226.13
946.62	226.13
946.92	226.11
947.22	226.09
947.52	226.12
947.82	226.14
948.11	226.15
948.41	226.15
948.71	226.14
949.01	226.14
949.31	226.13
949.60	226.13
949.90	226.14
950.20	226.14
950.50	226.14
950.79	226.12
951.09	226.11
951.39	226.14
951.69	226.14
951.98	226.16
952.28	226.16
952.58	226.13
952.87	226.13
953.17	226.16
953.47	226.17
953.76	226.14
954.06	226.13
954.36	226.10
954.66	226.08
954.95	226.08
955.25	226.09
955.55	226.09
955.84	226.05
956.14	226.04
956.44	226.04
956.73	226.02
957.03	226.04
957.32	226.07
957.62	226.03
957.92	226.03
958.21	226.01
958.51	226.07
958.81	226.09
959.10	226.08
959.40	226.09
959.69	226.06
959.99	226.07
960.29	226.05
960.58	226.04
960.88	226.10
961.17	226.09
961.47	226.07
961.76	226.02
962.06	226.03
962.36	225.99
962.65	225.98
962.95	225.95
963.24	225.92
963.54	225.87
963.83	225.87
964.13	225.87
964.42	225.81
964.72	225.74
965.01	225.70
965.31	225.69
965.60	225.68
965.90	225.75
966.19	225.74
966.49	225.76
966.78	225.73
967.08	225.68
967.37	225.66
967.67	225.63
967.96	225.69
968.26	225.73
968.55	225.75
968.85	225.78
969.14	225.78
969.43	225.80
969.73	225.83
970.02	225.84
970.32	225.82
970.61	225.87
970.91	225.84
971.20	225.83
971.49	225.82
971.79	225.79
972.08	225.72
972.38	225.71
972.67	225.69
972.96	225.72
973.26	225.71
973.55	225.73
973.85	225.74
974.14	225.70
974.43	225.66
974.73	225.65
975.02	225.63
975.31	225.66
975.61	225.66
975.90	225.65
976.19	225.65
976.49	225.66
976.78	225.65
977.07	225.70
977.37	225.73
977.66	225.77
977.95	225.78
978.24	225.82
978.54	225.85
978.83	225.89
979.12	225.95
979.42	225.99
979.71	226.00
980.00	226.04
980.29	226.09
980.59	226.11
980.88	226.15
981.17	226.17
981.46	226.16
981.76	226.20
982.05	226.22
982.34	226.22
982.63	226.26
982.93	226.27
983.22	226.30
983.51	226.31
983.80	226.32
984.09	226.36
984.39	226.34
984.68	226.34
984.97	226.32
985.26	226.27
985.55	226.28
985.85	226.26
986.14	226.25
986.43	226.25
986.72	226.23
987.01	226.21
987.30	226.21
987.59	226.21
987.89	226.19
988.18	226.19
988.47	226.21
988.76	226.16
989.05	226.15
989.34	226.13
989.63	226.17
989.92	226.15
990.22	226.14
990.51	226.16
990.80	226.16
991.09	226.17
991.38	226.21
991.67	226.19
991.96	226.18
992.25	226.21
992.54	226.20
992.83	226.21
993.12	226.18
993.41	226.16
993.70	226.21
993.99	226.23
994.28	226.21
994.58	226.20
994.87	226.21
995.16	226.21
995.45	226.18
995.74	226.11
996.03	226.13
996.32	226.14
996.61	226.11
996.90	226.07
997.19	226.10
997.48	226.09
997.77	226.04
998.06	226.03
998.34	225.99
998.63	225.95
998.92	225.95
999.21	225.98
999.50	225.99
999.79	225.95
1000.08	225.95
1000.37	225.95
1000.66	225.93
1000.95	225.92
1001.24	225.89
1001.53	225.90
1001.82	225.90
1002.11	225.87
1002.40	225.86
1002.68	225.87
1002.97	225.93
1003.26	225.89
1003.55	225.82
1003.84	225.84
1004.13	225.87
1004.42	225.85
1004.71	225.85
1004.99	225.84
1005.28	225.84
1005.57	225.85
1005.86	225.80
1006.15	225.74
1006.44	225.72
1006.72	225.73
1007.01	225.73
1007.30	225.75
1007.59	225.74
1007.88	225.72
1008.17	225.73
1008.45	225.72
1008.74	225.70
1009.03	225.67
1009.32	225.68
1009.60	225.69
1009.89	225.69
1010.18	225.64
1010.47	225.66
1010.76	225.65
1011.04	225.64
1011.33	225.65
1011.62	225.62
1011.91	225.66
1012.19	225.72
1012.48	225.74
1012.77	225.72
1013.05	225.79
1013.34	225.79
1013.63	225.80
1013.92	225.83
1014.20	225.80
1014.49	225.81
1014.78	225.84
1015.06	225.80
1015.35	225.80
1015.64	225.84
1015.92	225.88
1016.21	225.90
1016.50	225.92
1016.78	225.97
1017.07	225.99
1017.36	226.01
1017.64	226.03
1017.93	226.04
1018.22	226.00
1018.50	226.02
1018.79	226.08
1019.08	226.01
1019.36	226.03
1019.65	226.01
1019.93	226.05
1020.22	226.07
1020.51	226.10
1020.79	226.09
1021.08	225.63
1021.36	226.01
1021.65	226.59
1021.94	225.84
1022.22	226.35
1022.51	225.40
1022.79	226.73
1023.08	225.78
1023.36	227.05
1023.65	225.80
>>>>>End Processed Spectral Data<<<<<
