SpectraSuite Data File
++++++++++++++++++++++++++++++++++++
Date: Fri Feb 01 16:14:06 EST 2013
User: group
Dark Spectrum Present: No
Reference Spectrum Present: No
Number of Sampled Component Spectra: 1
Spectrometers: USB2E7196
Integration Time (usec): 35000 (USB2E7196)
Spectra Averaged: 100 (USB2E7196)
Boxcar Smoothing: 10 (USB2E7196)
Correct for Electrical Dark: No (USB2E7196)
Strobe/Lamp Enabled: No (USB2E7196)
Correct for Detector Non-linearity: No (USB2E7196)
Correct for Stray Light: No (USB2E7196)
Number of Pixels in Processed Spectrum: 2048
>>>>>Begin Processed Spectral Data<<<<<
339.09	0.00
339.48	214.15
339.86	215.64
340.24	216.84
340.63	218.54
341.01	221.11
341.39	220.63
341.78	222.63
342.16	224.14
342.54	224.55
342.93	212.53
343.31	223.26
343.69	223.79
344.07	224.25
344.46	224.70
344.84	225.08
345.22	225.33
345.60	225.58
345.99	225.77
346.37	225.84
346.75	225.89
347.13	225.94
347.52	225.97
347.90	226.01
348.28	226.03
348.66	226.06
349.05	226.03
349.43	226.02
349.81	226.11
350.19	226.18
350.57	226.25
350.96	226.27
351.34	226.40
351.72	226.49
352.10	226.55
352.48	226.59
352.87	226.60
353.25	226.65
353.63	226.71
354.01	226.75
354.39	226.86
354.77	226.97
355.15	227.08
355.54	227.13
355.92	227.20
356.30	227.26
356.68	227.41
357.06	227.47
357.44	227.54
357.82	227.56
358.20	227.63
358.58	227.70
358.97	227.80
359.35	227.83
359.73	227.91
360.11	228.00
360.49	228.06
360.87	228.14
361.25	228.22
361.63	228.31
362.01	228.38
362.39	228.41
362.77	228.44
363.15	228.48
363.53	228.55
363.91	228.59
364.29	228.63
364.67	228.56
365.05	228.60
365.43	228.61
365.81	228.67
366.19	228.74
366.57	228.75
366.95	228.80
367.33	228.80
367.71	228.81
368.09	228.85
368.47	228.87
368.85	228.84
369.23	228.86
369.61	228.83
369.99	228.85
370.37	228.83
370.75	228.90
371.13	228.84
371.51	228.79
371.89	228.74
372.27	228.69
372.65	228.69
373.03	228.62
373.41	228.61
373.78	228.56
374.16	228.45
374.54	228.39
374.92	228.30
375.30	228.23
375.68	228.17
376.06	228.09
376.44	227.98
376.82	227.94
377.19	227.84
377.57	227.77
377.95	227.67
378.33	227.60
378.71	227.45
379.09	227.41
379.47	227.37
379.84	227.31
380.22	227.24
380.60	227.16
380.98	227.10
381.36	227.04
381.73	226.96
382.11	226.92
382.49	226.84
382.87	226.77
383.25	226.71
383.62	226.74
384.00	226.66
384.38	226.65
384.76	226.60
385.13	226.63
385.51	226.59
385.89	226.52
386.27	226.48
386.64	226.47
387.02	226.43
387.40	226.36
387.78	226.28
388.15	226.24
388.53	226.14
388.91	226.12
389.29	226.06
389.66	226.04
390.04	225.96
390.42	225.97
390.79	225.96
391.17	225.92
391.55	225.78
391.92	225.77
392.30	225.73
392.68	225.69
393.05	225.63
393.43	225.61
393.81	225.62
394.18	225.60
394.56	225.59
394.94	225.61
395.31	225.62
395.69	225.69
396.06	225.74
396.44	225.78
396.82	225.78
397.19	225.82
397.57	225.83
397.95	225.92
398.32	225.90
398.70	225.94
399.07	226.01
399.45	226.07
399.82	226.09
400.20	226.16
400.58	226.23
400.95	226.26
401.33	226.32
401.70	226.45
402.08	226.52
402.45	226.58
402.83	226.67
403.20	226.77
403.58	226.85
403.95	226.98
404.33	227.10
404.71	227.24
405.08	227.43
405.46	227.58
405.83	227.73
406.21	227.92
406.58	228.08
406.96	228.24
407.33	228.42
407.70	228.64
408.08	228.92
408.45	229.15
408.83	229.40
409.20	229.63
409.58	229.85
409.95	230.11
410.33	230.39
410.70	230.66
411.08	230.95
411.45	231.27
411.82	231.60
412.20	231.99
412.57	232.45
412.95	232.76
413.32	233.16
413.69	233.56
414.07	233.99
414.44	234.47
414.82	234.94
415.19	235.52
415.56	236.09
415.94	236.63
416.31	237.29
416.68	237.93
417.06	238.64
417.43	239.29
417.81	240.09
418.18	240.89
418.55	241.74
418.93	242.65
419.30	243.53
419.67	244.45
420.04	245.41
420.42	246.38
420.79	247.56
421.16	248.71
421.54	249.90
421.91	251.10
422.28	252.37
422.66	253.74
423.03	255.04
423.40	256.35
423.77	257.75
424.15	259.16
424.52	260.61
424.89	262.25
425.26	263.81
425.64	265.23
426.01	266.84
426.38	268.49
426.75	270.16
427.13	271.91
427.50	273.72
427.87	275.60
428.24	277.47
428.61	279.23
428.99	281.16
429.36	283.23
429.73	285.34
430.10	287.34
430.47	289.38
430.85	291.48
431.22	293.68
431.59	296.06
431.96	298.28
432.33	300.79
432.70	303.09
433.08	305.90
433.45	308.55
433.82	311.13
434.19	314.01
434.56	316.80
434.93	319.44
435.30	322.04
435.68	324.92
436.05	327.72
436.42	330.51
436.79	333.02
437.16	335.66
437.53	338.44
437.90	341.24
438.27	343.97
438.64	346.80
439.01	349.44
439.38	351.62
439.75	353.78
440.13	356.22
440.50	358.58
440.87	360.37
441.24	362.28
441.61	364.35
441.98	365.83
442.35	367.61
442.72	369.42
443.09	371.21
443.46	372.13
443.83	372.69
444.20	373.19
444.57	374.02
444.94	374.33
445.31	374.67
445.68	374.96
446.05	374.99
446.42	374.57
446.79	374.08
447.16	373.61
447.53	373.27
447.90	372.10
448.27	370.94
448.64	369.40
449.01	368.25
449.37	366.31
449.74	364.41
450.11	362.18
450.48	359.72
450.85	357.19
451.22	355.06
451.59	353.07
451.96	351.12
452.33	348.51
452.70	346.18
453.07	343.34
453.43	340.51
453.80	337.77
454.17	335.14
454.54	332.60
454.91	329.93
455.28	327.29
455.65	324.84
456.02	322.40
456.38	320.20
456.75	317.54
457.12	315.33
457.49	313.08
457.86	310.93
458.23	309.07
458.59	307.02
458.96	304.95
459.33	303.09
459.70	301.22
460.07	299.75
460.43	298.06
460.80	296.44
461.17	294.96
461.54	293.49
461.91	292.05
462.27	290.66
462.64	289.40
463.01	288.05
463.38	286.79
463.74	285.42
464.11	284.30
464.48	283.30
464.85	282.21
465.21	281.36
465.58	280.43
465.95	279.33
466.32	278.45
466.68	277.56
467.05	276.70
467.42	275.83
467.78	274.92
468.15	274.04
468.52	273.41
468.88	272.57
469.25	271.80
469.62	271.21
469.98	270.56
470.35	269.96
470.72	269.37
471.08	268.69
471.45	268.16
471.82	267.62
472.18	267.01
472.55	266.61
472.92	266.10
473.28	265.65
473.65	265.25
474.02	264.80
474.38	264.46
474.75	264.13
475.11	263.83
475.48	263.57
475.85	263.33
476.21	263.13
476.58	262.97
476.94	262.87
477.31	262.70
477.67	262.57
478.04	262.49
478.41	262.46
478.77	262.48
479.14	262.41
479.50	262.46
479.87	262.55
480.23	262.61
480.60	262.70
480.96	262.79
481.33	263.01
481.69	263.22
482.06	263.40
482.42	263.61
482.79	263.82
483.15	264.12
483.52	264.51
483.88	264.86
484.25	265.27
484.61	265.67
484.98	266.11
485.34	266.68
485.71	267.24
486.07	267.82
486.44	268.44
486.80	269.18
487.17	269.90
487.53	270.74
487.90	271.58
488.26	272.52
488.62	273.49
488.99	274.44
489.35	275.50
489.72	276.63
490.08	277.86
490.44	279.14
490.81	280.48
491.17	281.84
491.54	283.29
491.90	284.82
492.26	286.49
492.63	288.22
492.99	289.98
493.36	291.87
493.72	293.92
494.08	296.04
494.45	298.29
494.81	300.68
495.17	303.08
495.54	305.66
495.90	308.33
496.26	311.15
496.63	314.12
496.99	317.21
497.35	320.50
497.72	323.89
498.08	327.38
498.44	331.03
498.80	334.95
499.17	339.03
499.53	343.22
499.89	347.60
500.26	352.12
500.62	356.84
500.98	361.83
501.34	366.93
501.71	372.29
502.07	377.72
502.43	383.31
502.79	389.17
503.16	395.28
503.52	401.61
503.88	408.01
504.24	414.67
504.60	421.61
504.97	428.75
505.33	436.08
505.69	443.86
506.05	451.67
506.41	459.57
506.78	467.70
507.14	476.06
507.50	484.84
507.86	493.83
508.22	503.04
508.59	512.23
508.95	521.79
509.31	531.53
509.67	541.63
510.03	551.95
510.39	562.52
510.75	573.23
511.12	584.10
511.48	595.44
511.84	606.85
512.20	618.32
512.56	630.25
512.92	642.46
513.28	654.79
513.64	667.27
514.00	679.97
514.37	692.92
514.73	706.00
515.09	718.93
515.45	732.22
515.81	745.76
516.17	759.74
516.53	773.88
516.89	788.00
517.25	802.21
517.61	816.65
517.97	831.07
518.33	845.54
518.69	860.33
519.05	875.26
519.41	890.42
519.77	905.92
520.13	921.32
520.49	936.64
520.85	952.03
521.21	967.67
521.57	983.80
521.93	999.54
522.29	1015.84
522.65	1032.08
523.01	1048.25
523.37	1064.29
523.73	1080.38
524.09	1096.38
524.45	1112.69
524.81	1129.29
525.17	1145.89
525.53	1162.61
525.89	1179.42
526.25	1196.23
526.61	1212.60
526.97	1229.36
527.33	1245.95
527.68	1262.39
528.04	1278.83
528.40	1295.17
528.76	1312.23
529.12	1328.82
529.48	1345.68
529.84	1361.63
530.20	1378.14
530.56	1395.12
530.91	1412.36
531.27	1429.13
531.63	1445.58
531.99	1462.16
532.35	1478.02
532.71	1493.93
533.07	1510.37
533.42	1526.25
533.78	1542.22
534.14	1558.41
534.50	1573.55
534.86	1589.19
535.21	1604.40
535.57	1620.15
535.93	1635.74
536.29	1650.40
536.65	1665.42
537.00	1680.08
537.36	1695.40
537.72	1709.86
538.08	1724.25
538.44	1737.90
538.79	1751.68
539.15	1765.22
539.51	1778.80
539.87	1793.17
540.22	1806.83
540.58	1820.32
540.94	1833.47
541.29	1846.13
541.65	1858.73
542.01	1871.85
542.37	1884.21
542.72	1896.57
543.08	1908.40
543.44	1920.71
543.79	1931.97
544.15	1942.81
544.51	1954.30
544.87	1965.19
545.22	1975.99
545.58	1986.24
545.94	1996.07
546.29	2005.79
546.65	2015.75
547.01	2025.04
547.36	2033.65
547.72	2042.09
548.07	2050.06
548.43	2058.15
548.79	2066.27
549.14	2073.70
549.50	2080.97
549.86	2088.64
550.21	2095.93
550.57	2103.08
550.92	2109.59
551.28	2116.61
551.64	2123.56
551.99	2129.93
552.35	2136.00
552.70	2142.10
553.06	2147.99
553.41	2154.30
553.77	2160.30
554.13	2166.19
554.48	2172.32
554.84	2177.75
555.19	2182.91
555.55	2187.94
555.90	2192.47
556.26	2197.32
556.61	2202.12
556.97	2206.71
557.32	2210.69
557.68	2214.82
558.03	2219.00
558.39	2222.72
558.74	2227.31
559.10	2231.17
559.45	2234.90
559.81	2239.20
560.16	2242.99
560.52	2246.17
560.87	2249.56
561.23	2252.21
561.58	2255.25
561.94	2257.63
562.29	2259.85
562.64	2262.75
563.00	2265.33
563.35	2268.95
563.71	2272.05
564.06	2275.05
564.42	2277.84
564.77	2280.43
565.12	2282.94
565.48	2284.95
565.83	2286.89
566.19	2288.36
566.54	2289.45
566.89	2290.75
567.25	2291.46
567.60	2292.86
567.96	2294.69
568.31	2295.57
568.66	2296.82
569.02	2297.28
569.37	2297.78
569.72	2298.92
570.08	2299.19
570.43	2299.20
570.78	2298.62
571.14	2297.14
571.49	2295.87
571.84	2295.61
572.20	2294.43
572.55	2293.24
572.90	2291.56
573.26	2290.18
573.61	2288.27
573.96	2286.49
574.31	2283.48
574.67	2280.55
575.02	2276.89
575.37	2273.40
575.72	2269.75
576.08	2266.38
576.43	2262.93
576.78	2259.19
577.13	2255.87
577.49	2252.65
577.84	2249.25
578.19	2245.43
578.54	2241.94
578.90	2237.98
579.25	2232.36
579.60	2227.48
579.95	2222.48
580.30	2217.52
580.66	2212.43
581.01	2207.56
581.36	2202.67
581.71	2198.50
582.06	2194.14
582.42	2189.76
582.77	2184.65
583.12	2180.13
583.47	2175.66
583.82	2170.93
584.17	2165.97
584.53	2160.52
584.88	2154.87
585.23	2149.17
585.58	2143.68
585.93	2138.16
586.28	2133.33
586.63	2128.31
586.98	2123.19
587.34	2118.48
587.69	2113.70
588.04	2108.39
588.39	2102.78
588.74	2096.36
589.09	2090.34
589.44	2083.60
589.79	2077.45
590.14	2071.73
590.49	2065.08
590.84	2058.48
591.19	2052.40
591.54	2045.81
591.89	2038.56
592.25	2031.81
592.60	2024.73
592.95	2017.25
593.30	2010.02
593.65	2002.23
594.00	1995.13
594.35	1987.98
594.70	1979.82
595.05	1972.76
595.40	1965.59
595.75	1957.98
596.10	1951.92
596.45	1945.20
596.80	1938.96
597.15	1932.49
597.50	1925.57
597.85	1919.04
598.19	1912.44
598.54	1905.59
598.89	1898.97
599.24	1893.01
599.59	1886.44
599.94	1880.20
600.29	1873.95
600.64	1867.25
600.99	1860.04
601.34	1853.39
601.69	1846.38
602.04	1839.62
602.39	1832.09
602.74	1825.20
603.08	1818.61
603.43	1811.78
603.78	1804.43
604.13	1797.18
604.48	1789.92
604.83	1783.06
605.18	1776.35
605.53	1768.44
605.87	1760.33
606.22	1753.05
606.57	1745.17
606.92	1737.70
607.27	1730.56
607.62	1723.77
607.96	1716.53
608.31	1710.02
608.66	1702.37
609.01	1694.87
609.36	1687.51
609.70	1679.71
610.05	1671.74
610.40	1664.19
610.75	1655.99
611.10	1648.40
611.44	1639.97
611.79	1632.05
612.14	1623.34
612.49	1614.09
612.83	1605.66
613.18	1597.52
613.53	1589.47
613.88	1580.92
614.22	1572.76
614.57	1564.09
614.92	1556.05
615.27	1548.62
615.61	1540.27
615.96	1532.20
616.31	1524.59
616.65	1517.10
617.00	1509.47
617.35	1501.70
617.70	1493.27
618.04	1484.74
618.39	1476.42
618.74	1468.78
619.08	1460.42
619.43	1452.85
619.78	1445.98
620.12	1438.82
620.47	1431.38
620.82	1423.13
621.16	1415.75
621.51	1408.02
621.85	1400.37
622.20	1391.80
622.55	1383.45
622.89	1375.56
623.24	1367.95
623.59	1360.51
623.93	1352.87
624.28	1345.52
624.62	1338.14
624.97	1331.01
625.32	1324.18
625.66	1317.18
626.01	1310.18
626.35	1302.88
626.70	1295.18
627.04	1287.34
627.39	1279.60
627.73	1272.21
628.08	1265.36
628.43	1258.09
628.77	1250.81
629.12	1243.28
629.46	1236.09
629.81	1228.58
630.15	1221.33
630.50	1213.92
630.84	1205.79
631.19	1197.98
631.53	1190.48
631.88	1182.83
632.22	1175.17
632.57	1167.84
632.91	1160.31
633.26	1152.86
633.60	1145.30
633.95	1138.04
634.29	1131.03
634.64	1124.30
634.98	1116.85
635.32	1109.64
635.67	1102.95
636.01	1096.26
636.36	1089.53
636.70	1082.91
637.05	1076.30
637.39	1069.89
637.73	1063.32
638.08	1057.46
638.42	1051.41
638.77	1045.02
639.11	1038.45
639.45	1032.07
639.80	1025.44
640.14	1019.10
640.49	1012.63
640.83	1006.43
641.17	1000.30
641.52	994.02
641.86	987.57
642.20	981.74
642.55	975.36
642.89	968.94
643.23	962.40
643.58	956.65
643.92	950.56
644.26	944.62
644.61	938.56
644.95	932.59
645.29	926.08
645.64	919.44
645.98	913.10
646.32	907.27
646.66	901.22
647.01	895.45
647.35	889.70
647.69	883.77
648.04	878.21
648.38	872.39
648.72	866.37
649.06	860.29
649.41	854.34
649.75	848.44
650.09	842.44
650.43	836.62
650.78	830.39
651.12	824.38
651.46	818.60
651.80	812.90
652.14	807.49
652.49	802.05
652.83	796.81
653.17	791.21
653.51	785.55
653.85	780.15
654.20	774.45
654.54	768.42
654.88	762.61
655.22	756.65
655.56	750.91
655.90	745.45
656.25	740.30
656.59	734.94
656.93	729.90
657.27	724.81
657.61	719.40
657.95	714.31
658.29	709.27
658.64	703.94
658.98	698.62
659.32	693.18
659.66	687.95
660.00	682.68
660.34	677.65
660.68	672.75
661.02	667.68
661.36	663.08
661.70	658.62
662.05	654.32
662.39	650.01
662.73	645.59
663.07	641.19
663.41	636.69
663.75	632.25
664.09	627.68
664.43	623.23
664.77	619.14
665.11	614.93
665.45	610.82
665.79	606.81
666.13	602.63
666.47	598.51
666.81	594.36
667.15	590.21
667.49	586.27
667.83	582.35
668.17	578.42
668.51	574.24
668.85	570.21
669.19	566.34
669.53	562.53
669.87	558.68
670.21	554.99
670.55	551.32
670.89	547.91
671.23	544.48
671.57	540.94
671.91	537.38
672.25	533.85
672.58	530.33
672.92	526.92
673.26	523.79
673.60	520.64
673.94	517.51
674.28	514.58
674.62	511.64
674.96	508.49
675.30	505.58
675.64	502.66
675.97	499.89
676.31	497.03
676.65	494.12
676.99	491.36
677.33	488.45
677.67	485.69
678.01	482.61
678.34	479.63
678.68	476.77
679.02	473.97
679.36	471.21
679.70	468.43
680.04	465.70
680.37	462.86
680.71	460.10
681.05	457.49
681.39	454.77
681.73	452.11
682.06	449.63
682.40	447.14
682.74	444.64
683.08	442.04
683.42	439.44
683.75	436.94
684.09	434.37
684.43	431.95
684.77	429.47
685.10	427.17
685.44	424.89
685.78	422.60
686.12	420.35
686.45	418.03
686.79	415.73
687.13	413.50
687.46	411.29
687.80	409.06
688.14	406.80
688.48	404.75
688.81	402.55
689.15	400.38
689.49	398.20
689.82	396.09
690.16	394.03
690.50	392.07
690.83	390.13
691.17	388.13
691.51	386.24
691.84	384.38
692.18	382.45
692.52	380.45
692.85	378.50
693.19	376.59
693.52	374.79
693.86	372.98
694.20	371.18
694.53	369.35
694.87	367.50
695.21	365.73
695.54	363.90
695.88	362.13
696.21	360.39
696.55	358.71
696.88	357.05
697.22	355.35
697.56	353.66
697.89	351.95
698.23	350.38
698.56	348.72
698.90	347.16
699.23	345.53
699.57	343.95
699.90	342.43
700.24	340.91
700.58	339.35
700.91	337.85
701.25	336.40
701.58	335.10
701.92	333.76
702.25	332.39
702.59	331.01
702.92	329.71
703.26	328.44
703.59	327.17
703.93	325.96
704.26	324.74
704.60	323.50
704.93	322.29
705.26	321.04
705.60	319.87
705.93	318.66
706.27	317.63
706.60	316.59
706.94	315.51
707.27	314.39
707.61	313.31
707.94	312.26
708.27	311.21
708.61	310.11
708.94	309.10
709.28	308.12
709.61	307.19
709.94	306.24
710.28	305.23
710.61	304.22
710.95	303.12
711.28	302.21
711.61	301.27
711.95	300.38
712.28	299.43
712.61	298.47
712.95	297.55
713.28	296.64
713.61	295.71
713.95	294.83
714.28	293.99
714.61	293.14
714.95	292.31
715.28	291.45
715.61	290.60
715.95	289.74
716.28	288.87
716.61	288.06
716.95	287.23
717.28	286.48
717.61	285.72
717.94	284.99
718.28	284.19
718.61	283.46
718.94	282.74
719.27	282.11
719.61	281.50
719.94	280.86
720.27	280.13
720.60	279.49
720.94	278.84
721.27	278.28
721.60	277.69
721.93	277.07
722.27	276.50
722.60	275.92
722.93	275.43
723.26	274.93
723.59	274.34
723.93	273.82
724.26	273.25
724.59	272.69
724.92	272.21
725.25	271.69
725.59	271.18
725.92	270.66
726.25	270.15
726.58	269.65
726.91	269.14
727.24	268.69
727.57	268.20
727.91	267.74
728.24	267.25
728.57	266.78
728.90	266.36
729.23	265.90
729.56	265.48
729.89	264.97
730.22	264.47
730.55	264.02
730.89	263.55
731.22	263.10
731.55	262.69
731.88	262.25
732.21	261.81
732.54	261.36
732.87	260.90
733.20	260.51
733.53	260.09
733.86	259.71
734.19	259.31
734.52	258.96
734.85	258.66
735.18	258.20
735.51	257.80
735.84	257.42
736.17	257.05
736.50	256.64
736.83	256.38
737.16	256.04
737.49	255.69
737.82	255.38
738.15	255.04
738.48	254.71
738.81	254.38
739.14	254.08
739.47	253.79
739.80	253.49
740.13	253.18
740.46	252.87
740.79	252.51
741.12	252.18
741.45	251.84
741.78	251.47
742.11	251.23
742.44	250.92
742.77	250.60
743.10	250.29
743.43	250.00
743.75	249.61
744.08	249.46
744.41	249.15
744.74	248.86
745.07	248.60
745.40	248.32
745.73	248.07
746.06	247.76
746.39	247.49
746.71	247.21
747.04	246.91
747.37	246.64
747.70	246.42
748.03	246.17
748.36	245.94
748.68	245.70
749.01	245.43
749.34	245.24
749.67	245.05
750.00	244.83
750.33	244.67
750.65	244.49
750.98	244.15
751.31	243.95
751.64	243.73
751.97	243.56
752.29	243.34
752.62	243.07
752.95	242.88
753.28	242.68
753.60	242.45
753.93	242.27
754.26	242.06
754.59	241.83
754.91	241.63
755.24	241.42
755.57	241.21
755.90	241.04
756.22	240.84
756.55	240.61
756.88	240.45
757.20	240.23
757.53	240.03
757.86	239.88
758.19	239.73
758.51	239.58
758.84	239.34
759.17	239.20
759.49	239.06
759.82	238.93
760.15	238.76
760.47	238.66
760.80	238.49
761.13	238.39
761.45	238.28
761.78	238.12
762.11	238.00
762.43	237.87
762.76	237.73
763.08	237.61
763.41	237.50
763.74	237.37
764.06	237.19
764.39	237.07
764.71	236.93
765.04	236.79
765.37	236.67
765.69	236.56
766.02	236.44
766.34	236.29
766.67	236.18
767.00	236.09
767.32	236.02
767.65	235.98
767.97	235.85
768.30	235.73
768.62	235.64
768.95	235.50
769.27	235.37
769.60	235.28
769.92	235.15
770.25	235.00
770.57	234.90
770.90	234.81
771.22	234.69
771.55	234.59
771.87	234.46
772.20	234.36
772.52	234.32
772.85	234.34
773.17	234.28
773.50	234.16
773.82	234.03
774.15	233.90
774.47	233.75
774.80	233.65
775.12	233.56
775.45	233.45
775.77	233.41
776.09	233.35
776.42	233.25
776.74	233.20
777.07	233.13
777.39	233.04
777.72	232.96
778.04	232.91
778.36	232.83
778.69	232.80
779.01	232.72
779.33	232.56
779.66	232.36
779.98	232.27
780.31	232.23
780.63	232.22
780.95	232.14
781.28	232.06
781.60	231.99
781.92	231.92
782.25	231.87
782.57	231.78
782.89	231.73
783.22	231.66
783.54	231.58
783.86	231.56
784.19	231.45
784.51	231.44
784.83	231.34
785.16	231.27
785.48	231.18
785.80	231.15
786.12	231.12
786.45	231.07
786.77	231.04
787.09	230.97
787.42	230.90
787.74	230.84
788.06	230.79
788.38	230.72
788.71	230.68
789.03	230.63
789.35	230.60
789.67	230.55
789.99	230.52
790.32	230.47
790.64	230.45
790.96	230.51
791.28	230.46
791.61	230.39
791.93	230.36
792.25	230.35
792.57	230.34
792.89	230.30
793.21	230.28
793.54	230.22
793.86	230.18
794.18	230.16
794.50	230.13
794.82	230.13
795.14	230.16
795.47	230.14
795.79	230.14
796.11	230.11
796.43	230.10
796.75	230.09
797.07	230.11
797.39	230.04
797.71	229.98
798.04	229.94
798.36	229.96
798.68	229.96
799.00	229.94
799.32	229.90
799.64	229.88
799.96	229.85
800.28	229.86
800.60	229.85
800.92	229.83
801.24	229.81
801.56	229.77
801.89	229.70
802.21	229.65
802.53	229.59
802.85	229.57
803.17	229.56
803.49	229.47
803.81	229.41
804.13	229.40
804.45	229.31
804.77	229.29
805.09	229.28
805.41	229.22
805.73	229.17
806.05	229.10
806.37	229.06
806.69	229.03
807.01	229.00
807.33	228.99
807.65	228.89
807.97	228.88
808.28	228.86
808.60	228.84
808.92	228.80
809.24	228.86
809.56	228.83
809.88	228.73
810.20	228.73
810.52	228.74
810.84	228.66
811.16	228.63
811.48	228.57
811.80	228.56
812.12	228.53
812.43	228.51
812.75	228.47
813.07	228.48
813.39	228.46
813.71	228.41
814.03	228.35
814.35	228.37
814.67	228.33
814.98	228.30
815.30	228.27
815.62	228.24
815.94	228.12
816.26	228.11
816.58	228.11
816.89	228.11
817.21	228.03
817.53	228.08
817.85	228.06
818.17	228.05
818.48	227.97
818.80	227.98
819.12	227.96
819.44	227.92
819.76	227.85
820.07	227.81
820.39	227.81
820.71	227.81
821.03	227.78
821.34	227.75
821.66	227.77
821.98	227.76
822.30	227.75
822.61	227.81
822.93	227.77
823.25	227.75
823.57	227.73
823.88	227.74
824.20	227.71
824.52	227.71
824.83	227.71
825.15	227.71
825.47	227.69
825.79	227.66
826.10	227.63
826.42	227.62
826.74	227.65
827.05	227.60
827.37	227.57
827.69	227.56
828.00	227.57
828.32	227.54
828.64	227.53
828.95	227.56
829.27	227.54
829.58	227.53
829.90	227.53
830.22	227.50
830.53	227.48
830.85	227.45
831.17	227.41
831.48	227.40
831.80	227.39
832.11	227.36
832.43	227.38
832.75	227.40
833.06	227.46
833.38	227.42
833.69	227.45
834.01	227.48
834.32	227.48
834.64	227.44
834.96	227.42
835.27	227.43
835.59	227.38
835.90	227.34
836.22	227.34
836.53	227.30
836.85	227.29
837.16	227.37
837.48	227.38
837.79	227.41
838.11	227.42
838.42	227.43
838.74	227.42
839.05	227.41
839.37	227.38
839.68	227.32
840.00	227.28
840.31	227.27
840.63	227.23
840.94	227.19
841.26	227.16
841.57	227.17
841.88	227.12
842.20	227.12
842.51	227.09
842.83	227.05
843.14	227.13
843.46	227.12
843.77	227.05
844.08	227.03
844.40	226.99
844.71	226.94
845.03	226.91
845.34	226.94
845.65	226.91
845.97	226.96
846.28	226.96
846.60	226.95
846.91	226.92
847.22	226.88
847.54	226.89
847.85	226.88
848.16	226.85
848.48	226.82
848.79	226.82
849.10	226.83
849.42	226.86
849.73	226.79
850.04	226.77
850.36	226.72
850.67	226.74
850.98	226.73
851.30	226.73
851.61	226.70
851.92	226.69
852.23	226.72
852.55	226.68
852.86	226.68
853.17	226.67
853.49	226.72
853.80	226.75
854.11	226.75
854.42	226.77
854.74	226.77
855.05	226.78
855.36	226.74
855.67	226.73
855.99	226.70
856.30	226.79
856.61	226.79
856.92	226.77
857.23	226.74
857.55	226.72
857.86	226.72
858.17	226.77
858.48	226.74
858.79	226.69
859.11	226.70
859.42	226.67
859.73	226.71
860.04	226.66
860.35	226.65
860.66	226.61
860.98	226.60
861.29	226.60
861.60	226.63
861.91	226.63
862.22	226.63
862.53	226.62
862.84	226.52
863.16	226.55
863.47	226.54
863.78	226.55
864.09	226.55
864.40	226.55
864.71	226.54
865.02	226.56
865.33	226.56
865.64	226.56
865.95	226.54
866.27	226.57
866.58	226.56
866.89	226.56
867.20	226.57
867.51	226.55
867.82	226.57
868.13	226.56
868.44	226.57
868.75	226.57
869.06	226.58
869.37	226.60
869.68	226.56
869.99	226.58
870.30	226.61
870.61	226.64
870.92	226.62
871.23	226.63
871.54	226.63
871.85	226.64
872.16	226.67
872.47	226.70
872.78	226.66
873.09	226.70
873.40	226.67
873.71	226.69
874.02	226.70
874.33	226.68
874.64	226.68
874.95	226.71
875.26	226.72
875.56	226.72
875.87	226.70
876.18	226.71
876.49	226.83
876.80	226.82
877.11	226.79
877.42	226.81
877.73	226.81
878.04	226.79
878.35	226.79
878.66	226.77
878.96	226.75
879.27	226.75
879.58	226.76
879.89	226.79
880.20	226.84
880.51	226.84
880.82	226.86
881.12	226.88
881.43	226.83
881.74	226.84
882.05	226.83
882.36	226.85
882.67	226.87
882.97	226.79
883.28	226.75
883.59	226.76
883.90	226.82
884.21	226.81
884.51	226.80
884.82	226.83
885.13	226.80
885.44	226.82
885.74	226.81
886.05	226.77
886.36	226.75
886.67	226.69
886.98	226.72
887.28	226.73
887.59	226.74
887.90	226.74
888.20	226.70
888.51	226.75
888.82	226.74
889.13	226.73
889.43	226.79
889.74	226.81
890.05	226.81
890.35	226.73
890.66	226.74
890.97	226.72
891.28	226.68
891.58	226.72
891.89	226.72
892.20	226.72
892.50	226.71
892.81	226.69
893.12	226.71
893.42	226.66
893.73	226.64
894.04	226.65
894.34	226.67
894.65	226.70
894.95	226.65
895.26	226.62
895.57	226.62
895.87	226.50
896.18	226.53
896.48	226.53
896.79	226.58
897.10	226.58
897.40	226.62
897.71	226.63
898.01	226.59
898.32	226.57
898.63	226.57
898.93	226.57
899.24	226.58
899.54	226.56
899.85	226.54
900.15	226.52
900.46	226.50
900.76	226.51
901.07	226.49
901.38	226.48
901.68	226.51
901.99	226.49
902.29	226.51
902.60	226.50
902.90	226.48
903.21	226.45
903.51	226.43
903.82	226.46
904.12	226.44
904.43	226.43
904.73	226.45
905.03	226.44
905.34	226.55
905.64	226.55
905.95	226.55
906.25	226.57
906.56	226.58
906.86	226.57
907.17	226.55
907.47	226.57
907.77	226.57
908.08	226.57
908.38	226.56
908.69	226.58
908.99	226.58
909.30	226.57
909.60	226.56
909.90	226.59
910.21	226.54
910.51	226.52
910.81	226.55
911.12	226.54
911.42	226.55
911.73	226.49
912.03	226.50
912.33	226.51
912.64	226.49
912.94	226.47
913.24	226.45
913.55	226.42
913.85	226.43
914.15	226.42
914.46	226.44
914.76	226.43
915.06	226.43
915.37	226.41
915.67	226.42
915.97	226.43
916.27	226.38
916.58	226.38
916.88	226.42
917.18	226.38
917.49	226.42
917.79	226.41
918.09	226.37
918.39	226.37
918.70	226.37
919.00	226.39
919.30	226.45
919.60	226.47
919.91	226.48
920.21	226.44
920.51	226.44
920.81	226.42
921.12	226.45
921.42	226.43
921.72	226.44
922.02	226.42
922.32	226.46
922.63	226.48
922.93	226.52
923.23	226.51
923.53	226.52
923.83	226.47
924.13	226.52
924.44	226.52
924.74	226.53
925.04	226.55
925.34	226.53
925.64	226.49
925.94	226.46
926.24	226.50
926.55	226.53
926.85	226.53
927.15	226.56
927.45	226.54
927.75	226.55
928.05	226.54
928.35	226.55
928.65	226.56
928.95	226.60
929.26	226.56
929.56	226.57
929.86	226.58
930.16	226.53
930.46	226.49
930.76	226.50
931.06	226.47
931.36	226.46
931.66	226.48
931.96	226.48
932.26	226.47
932.56	226.43
932.86	226.42
933.16	226.44
933.46	226.41
933.76	226.38
934.06	226.37
934.36	226.41
934.66	226.45
934.96	226.39
935.26	226.37
935.56	226.40
935.86	226.38
936.16	226.38
936.46	226.40
936.76	226.45
937.06	226.43
937.36	226.44
937.66	226.42
937.96	226.43
938.26	226.42
938.56	226.43
938.86	226.44
939.16	226.46
939.46	226.48
939.76	226.49
940.06	226.49
940.35	226.48
940.65	226.43
940.95	226.41
941.25	226.39
941.55	226.40
941.85	226.39
942.15	226.42
942.45	226.48
942.75	226.49
943.04	226.45
943.34	226.50
943.64	226.48
943.94	226.51
944.24	226.50
944.54	226.52
944.84	226.51
945.13	226.50
945.43	226.48
945.73	226.47
946.03	226.46
946.33	226.45
946.62	226.47
946.92	226.48
947.22	226.52
947.52	226.57
947.82	226.57
948.11	226.53
948.41	226.51
948.71	226.45
949.01	226.46
949.31	226.44
949.60	226.43
949.90	226.48
950.20	226.46
950.50	226.47
950.79	226.46
951.09	226.48
951.39	226.48
951.69	226.51
951.98	226.52
952.28	226.52
952.58	226.55
952.87	226.55
953.17	226.57
953.47	226.55
953.76	226.53
954.06	226.54
954.36	226.55
954.66	226.54
954.95	226.56
955.25	226.54
955.55	226.57
955.84	226.56
956.14	226.53
956.44	226.56
956.73	226.54
957.03	226.56
957.32	226.56
957.62	226.55
957.92	226.51
958.21	226.47
958.51	226.57
958.81	226.60
959.10	226.59
959.40	226.55
959.69	226.54
959.99	226.54
960.29	226.53
960.58	226.52
960.88	226.55
961.17	226.53
961.47	226.54
961.76	226.53
962.06	226.54
962.36	226.52
962.65	226.50
962.95	226.49
963.24	226.47
963.54	226.45
963.83	226.43
964.13	226.46
964.42	226.47
964.72	226.42
965.01	226.38
965.31	226.35
965.60	226.37
965.90	226.39
966.19	226.38
966.49	226.36
966.78	226.37
967.08	226.35
967.37	226.33
967.67	226.34
967.96	226.34
968.26	226.29
968.55	226.29
968.85	226.26
969.14	226.26
969.43	226.28
969.73	226.29
970.02	226.26
970.32	226.24
970.61	226.24
970.91	226.18
971.20	226.16
971.49	226.19
971.79	226.19
972.08	226.15
972.38	226.14
972.67	226.17
972.96	226.17
973.26	226.11
973.55	226.16
973.85	226.15
974.14	226.11
974.43	226.13
974.73	226.10
975.02	226.10
975.31	226.10
975.61	226.06
975.90	226.05
976.19	226.09
976.49	226.12
976.78	226.11
977.07	226.10
977.37	226.14
977.66	226.09
977.95	226.06
978.24	226.07
978.54	226.08
978.83	226.03
979.12	226.02
979.42	226.02
979.71	225.98
980.00	225.96
980.29	225.99
980.59	225.99
980.88	226.01
981.17	226.01
981.46	225.99
981.76	226.03
982.05	226.07
982.34	226.03
982.63	226.01
982.93	226.02
983.22	226.07
983.51	226.04
983.80	226.09
984.09	226.15
984.39	226.14
984.68	226.10
984.97	226.11
985.26	226.11
985.55	226.17
985.85	226.16
986.14	226.17
986.43	226.18
986.72	226.16
987.01	226.14
987.30	226.15
987.59	226.15
987.89	226.12
988.18	226.10
988.47	226.09
988.76	226.07
989.05	226.01
989.34	225.96
989.63	225.98
989.92	225.97
990.22	225.93
990.51	225.93
990.80	226.00
991.09	226.03
991.38	226.06
991.67	226.04
991.96	226.04
992.25	226.05
992.54	226.05
992.83	226.09
993.12	226.11
993.41	226.12
993.70	226.19
993.99	226.23
994.28	226.23
994.58	226.27
994.87	226.30
995.16	226.33
995.45	226.37
995.74	226.35
996.03	226.38
996.32	226.36
996.61	226.38
996.90	226.36
997.19	226.35
997.48	226.31
997.77	226.30
998.06	226.34
998.34	226.33
998.63	226.34
998.92	226.31
999.21	226.32
999.50	226.32
999.79	226.29
1000.08	226.28
1000.37	226.28
1000.66	226.27
1000.95	226.31
1001.24	226.30
1001.53	226.32
1001.82	226.31
1002.11	226.27
1002.40	226.28
1002.68	226.28
1002.97	226.35
1003.26	226.32
1003.55	226.31
1003.84	226.32
1004.13	226.34
1004.42	226.34
1004.71	226.30
1004.99	226.29
1005.28	226.32
1005.57	226.31
1005.86	226.28
1006.15	226.28
1006.44	226.26
1006.72	226.28
1007.01	226.24
1007.30	226.24
1007.59	226.21
1007.88	226.21
1008.17	226.22
1008.45	226.20
1008.74	226.15
1009.03	226.10
1009.32	226.09
1009.60	226.06
1009.89	226.06
1010.18	226.00
1010.47	225.98
1010.76	226.03
1011.04	226.03
1011.33	226.02
1011.62	226.04
1011.91	226.06
1012.19	226.05
1012.48	226.04
1012.77	226.06
1013.05	226.07
1013.34	226.08
1013.63	226.05
1013.92	226.06
1014.20	226.07
1014.49	226.06
1014.78	226.10
1015.06	226.08
1015.35	226.09
1015.64	226.14
1015.92	226.14
1016.21	226.11
1016.50	226.10
1016.78	226.10
1017.07	226.12
1017.36	226.08
1017.64	226.06
1017.93	226.04
1018.22	226.01
1018.50	226.03
1018.79	226.00
1019.08	225.95
1019.36	225.95
1019.65	225.94
1019.93	225.96
1020.22	225.97
1020.51	226.04
1020.79	226.02
1021.08	225.33
1021.36	226.36
1021.65	226.08
1021.94	225.91
1022.22	225.86
1022.51	225.66
1022.79	226.32
1023.08	226.29
1023.36	227.22
1023.65	225.86
>>>>>End Processed Spectral Data<<<<<
