SpectraSuite Data File
++++++++++++++++++++++++++++++++++++
Date: Fri Feb 01 17:56:59 EST 2013
User: group
Dark Spectrum Present: No
Reference Spectrum Present: No
Number of Sampled Component Spectra: 1
Spectrometers: USB2E7196
Integration Time (usec): 35000 (USB2E7196)
Spectra Averaged: 100 (USB2E7196)
Boxcar Smoothing: 10 (USB2E7196)
Correct for Electrical Dark: No (USB2E7196)
Strobe/Lamp Enabled: No (USB2E7196)
Correct for Detector Non-linearity: No (USB2E7196)
Correct for Stray Light: No (USB2E7196)
Number of Pixels in Processed Spectrum: 2048
>>>>>Begin Processed Spectral Data<<<<<
339.09	0.00
339.48	212.27
339.86	213.56
340.24	215.20
340.63	217.49
341.01	219.54
341.39	220.25
341.78	221.17
342.16	221.74
342.54	222.82
342.93	210.99
343.31	221.67
343.69	222.24
344.07	222.72
344.46	223.16
344.84	223.52
345.22	223.79
345.60	224.01
345.99	224.21
346.37	224.36
346.75	224.48
347.13	224.55
347.52	224.59
347.90	224.64
348.28	224.66
348.66	224.79
349.05	224.80
349.43	224.85
349.81	224.90
350.19	224.96
350.57	225.04
350.96	225.16
351.34	225.25
351.72	225.31
352.10	225.41
352.48	225.46
352.87	225.50
353.25	225.54
353.63	225.61
354.01	225.65
354.39	225.72
354.77	225.76
355.15	225.87
355.54	225.95
355.92	225.99
356.30	226.08
356.68	226.17
357.06	226.26
357.44	226.31
357.82	226.39
358.20	226.45
358.58	226.51
358.97	226.56
359.35	226.62
359.73	226.71
360.11	226.75
360.49	226.83
360.87	226.88
361.25	226.94
361.63	227.03
362.01	227.07
362.39	227.09
362.77	227.17
363.15	227.22
363.53	227.22
363.91	227.26
364.29	227.30
364.67	227.20
365.05	227.18
365.43	227.22
365.81	227.21
366.19	227.29
366.57	227.31
366.95	227.31
367.33	227.27
367.71	227.25
368.09	227.26
368.47	227.26
368.85	227.28
369.23	227.28
369.61	227.20
369.99	227.18
370.37	227.18
370.75	227.18
371.13	227.09
371.51	227.01
371.89	227.01
372.27	226.98
372.65	226.98
373.03	226.94
373.41	226.89
373.78	226.83
374.16	226.70
374.54	226.61
374.92	226.56
375.30	226.50
375.68	226.46
376.06	226.40
376.44	226.34
376.82	226.27
377.19	226.19
377.57	226.13
377.95	226.05
378.33	225.98
378.71	225.88
379.09	225.85
379.47	225.83
379.84	225.72
380.22	225.63
380.60	225.55
380.98	225.45
381.36	225.38
381.73	225.33
382.11	225.30
382.49	225.26
382.87	225.20
383.25	225.18
383.62	225.25
384.00	225.19
384.38	225.13
384.76	225.09
385.13	225.09
385.51	225.03
385.89	225.02
386.27	224.98
386.64	224.90
387.02	224.84
387.40	224.79
387.78	224.76
388.15	224.72
388.53	224.67
388.91	224.66
389.29	224.63
389.66	224.63
390.04	224.59
390.42	224.60
390.79	224.56
391.17	224.52
391.55	224.38
391.92	224.39
392.30	224.37
392.68	224.31
393.05	224.30
393.43	224.31
393.81	224.27
394.18	224.25
394.56	224.33
394.94	224.37
395.31	224.39
395.69	224.42
396.06	224.45
396.44	224.49
396.82	224.53
397.19	224.61
397.57	224.60
397.95	224.68
398.32	224.69
398.70	224.72
399.07	224.79
399.45	224.81
399.82	224.85
400.20	224.93
400.58	225.01
400.95	225.06
401.33	225.16
401.70	225.32
402.08	225.43
402.45	225.48
402.83	225.60
403.20	225.73
403.58	225.84
403.95	226.01
404.33	226.18
404.71	226.32
405.08	226.53
405.46	226.71
405.83	226.88
406.21	227.05
406.58	227.27
406.96	227.44
407.33	227.66
407.70	227.90
408.08	228.20
408.45	228.49
408.83	228.75
409.20	229.02
409.58	229.28
409.95	229.61
410.33	229.95
410.70	230.27
411.08	230.64
411.45	231.00
411.82	231.39
412.20	231.82
412.57	232.33
412.95	232.69
413.32	233.24
413.69	233.77
414.07	234.33
414.44	234.95
414.82	235.60
415.19	236.36
415.56	237.06
415.94	237.79
416.31	238.63
416.68	239.49
417.06	240.43
417.43	241.33
417.81	242.32
418.18	243.39
418.55	244.47
418.93	245.66
419.30	246.88
419.67	248.14
420.04	249.41
420.42	250.73
420.79	252.32
421.16	253.84
421.54	255.40
421.91	257.05
422.28	258.76
422.66	260.55
423.03	262.28
423.40	264.10
423.77	266.03
424.15	267.91
424.52	269.89
424.89	272.05
425.26	274.12
425.64	276.07
426.01	278.18
426.38	280.46
426.75	282.70
427.13	285.05
427.50	287.47
427.87	289.97
428.24	292.49
428.61	294.87
428.99	297.50
429.36	300.36
429.73	303.13
430.10	305.80
430.47	308.55
430.85	311.41
431.22	314.39
431.59	317.52
431.96	320.57
432.33	323.89
432.70	327.06
433.08	330.82
433.45	334.38
433.82	337.88
434.19	341.70
434.56	345.42
434.93	348.95
435.30	352.45
435.68	356.39
436.05	360.21
436.42	363.95
436.79	367.28
437.16	370.89
437.53	374.70
437.90	378.49
438.27	382.20
438.64	385.99
439.01	389.54
439.38	392.57
439.75	395.48
440.13	398.78
440.50	401.91
440.87	404.42
441.24	407.01
441.61	409.92
441.98	411.96
442.35	414.42
442.72	416.89
443.09	419.30
443.46	420.59
443.83	421.36
444.20	422.02
444.57	423.18
444.94	423.57
445.31	423.99
445.68	424.38
446.05	424.51
446.42	423.98
446.79	423.35
447.16	422.76
447.53	422.33
447.90	420.88
448.27	419.40
448.64	417.28
449.01	415.79
449.37	413.15
449.74	410.58
450.11	407.54
450.48	404.27
450.85	400.91
451.22	398.06
451.59	395.32
451.96	392.72
452.33	389.21
452.70	386.04
453.07	382.25
453.43	378.44
453.80	374.72
454.17	371.17
454.54	367.79
454.91	364.13
455.28	360.54
455.65	357.13
456.02	353.76
456.38	350.84
456.75	347.26
457.12	344.24
457.49	341.25
457.86	338.33
458.23	335.78
458.59	333.04
458.96	330.24
459.33	327.78
459.70	325.28
460.07	323.26
460.43	320.95
460.80	318.72
461.17	316.75
461.54	314.71
461.91	312.73
462.27	310.77
462.64	309.06
463.01	307.21
463.38	305.45
463.74	303.68
464.11	302.12
464.48	300.71
464.85	299.23
465.21	298.01
465.58	296.78
465.95	295.33
466.32	294.00
466.68	292.77
467.05	291.57
467.42	290.34
467.78	289.08
468.15	287.90
468.52	287.02
468.88	285.86
469.25	284.81
469.62	283.98
469.98	283.05
470.35	282.20
470.72	281.38
471.08	280.53
471.45	279.74
471.82	279.01
472.18	278.19
472.55	277.58
472.92	276.87
473.28	276.22
473.65	275.60
474.02	275.02
474.38	274.47
474.75	273.99
475.11	273.51
475.48	273.10
475.85	272.76
476.21	272.36
476.58	272.08
476.94	271.85
477.31	271.55
477.67	271.30
478.04	271.09
478.41	270.96
478.77	270.90
479.14	270.77
479.50	270.74
479.87	270.76
480.23	270.75
480.60	270.76
480.96	270.77
481.33	270.91
481.69	271.12
482.06	271.28
482.42	271.43
482.79	271.64
483.15	271.97
483.52	272.33
483.88	272.67
484.25	273.02
484.61	273.43
484.98	273.83
485.34	274.38
485.71	274.98
486.07	275.58
486.44	276.13
486.80	276.82
487.17	277.52
487.53	278.36
487.90	279.26
488.26	280.22
488.62	281.26
488.99	282.28
489.35	283.37
489.72	284.61
490.08	285.87
490.44	287.15
490.81	288.48
491.17	289.86
491.54	291.46
491.90	293.06
492.26	294.74
492.63	296.59
492.99	298.47
493.36	300.42
493.72	302.57
494.08	304.77
494.45	307.13
494.81	309.62
495.17	312.13
495.54	314.79
495.90	317.60
496.26	320.57
496.63	323.69
496.99	326.95
497.35	330.30
497.72	333.92
498.08	337.64
498.44	341.54
498.80	345.66
499.17	349.90
499.53	354.31
499.89	358.96
500.26	363.72
500.62	368.63
500.98	373.90
501.34	379.28
501.71	384.90
502.07	390.68
502.43	396.59
502.79	402.79
503.16	409.27
503.52	415.97
503.88	422.77
504.24	429.78
504.60	437.09
504.97	444.70
505.33	452.47
505.69	460.70
506.05	468.96
506.41	477.38
506.78	486.00
507.14	495.04
507.50	504.29
507.86	513.93
508.22	523.76
508.59	533.60
508.95	543.80
509.31	554.25
509.67	565.04
510.03	576.10
510.39	587.38
510.75	598.81
511.12	610.48
511.48	622.58
511.84	634.94
512.20	647.32
512.56	660.01
512.92	672.97
513.28	686.27
513.64	699.71
514.00	713.36
514.37	727.31
514.73	741.24
515.09	755.28
515.45	769.51
515.81	784.10
516.17	799.12
516.53	814.39
516.89	829.75
517.25	845.04
517.61	860.54
517.97	876.16
518.33	891.83
518.69	907.87
519.05	923.94
519.41	940.34
519.77	957.12
520.13	973.93
520.49	990.70
520.85	1007.38
521.21	1024.42
521.57	1042.09
521.93	1059.28
522.29	1077.08
522.65	1094.81
523.01	1112.52
523.37	1130.11
523.73	1147.86
524.09	1165.45
524.45	1183.27
524.81	1201.52
525.17	1219.95
525.53	1238.51
525.89	1257.13
526.25	1275.60
526.61	1293.69
526.97	1312.04
527.33	1330.28
527.68	1348.60
528.04	1366.68
528.40	1384.95
528.76	1403.78
529.12	1422.12
529.48	1440.88
529.84	1458.79
530.20	1477.25
530.56	1496.16
530.91	1515.47
531.27	1534.11
531.63	1552.57
531.99	1571.11
532.35	1589.05
532.71	1606.95
533.07	1625.16
533.42	1643.08
533.78	1661.22
534.14	1679.59
534.50	1697.06
534.86	1714.96
535.21	1732.31
535.57	1750.42
535.93	1768.02
536.29	1784.94
536.65	1802.09
537.00	1818.79
537.36	1836.24
537.72	1852.83
538.08	1869.42
538.44	1885.35
538.79	1901.41
539.15	1917.05
539.51	1932.98
539.87	1949.46
540.22	1965.27
540.58	1981.27
540.94	1996.57
541.29	2011.46
541.65	2026.36
542.01	2041.74
542.37	2056.24
542.72	2070.64
543.08	2084.66
543.44	2099.35
543.79	2112.76
544.15	2125.93
544.51	2139.85
544.87	2153.02
545.22	2166.10
545.58	2178.54
545.94	2190.34
546.29	2202.21
546.65	2214.20
547.01	2225.55
547.36	2236.40
547.72	2247.01
548.07	2256.91
548.43	2267.10
548.79	2277.18
549.14	2286.80
549.50	2295.93
549.86	2305.60
550.21	2315.09
550.57	2324.24
550.92	2332.79
551.28	2341.77
551.64	2350.74
551.99	2359.13
552.35	2367.20
552.70	2375.26
553.06	2382.98
553.41	2391.35
553.77	2399.43
554.13	2407.45
554.48	2415.55
554.84	2422.92
555.19	2429.88
555.55	2436.89
555.90	2443.27
556.26	2449.99
556.61	2456.21
556.97	2462.53
557.32	2468.36
557.68	2474.10
558.03	2480.11
558.39	2485.15
558.74	2491.44
559.10	2496.97
559.45	2502.21
559.81	2508.00
560.16	2513.38
560.52	2518.17
560.87	2522.86
561.23	2526.74
561.58	2530.87
561.94	2534.52
562.29	2538.02
562.64	2542.15
563.00	2545.82
563.35	2550.63
563.71	2554.94
564.06	2559.48
564.42	2563.46
564.77	2567.26
565.12	2570.82
565.48	2573.79
565.83	2577.11
566.19	2579.64
566.54	2581.37
566.89	2583.60
567.25	2585.23
567.60	2587.53
567.96	2590.32
568.31	2592.20
568.66	2594.33
569.02	2595.96
569.37	2597.10
569.72	2598.91
570.08	2599.82
570.43	2600.66
570.78	2600.83
571.14	2599.98
571.49	2599.24
571.84	2599.54
572.20	2599.00
572.55	2598.48
572.90	2597.33
573.26	2596.37
573.61	2594.91
573.96	2593.83
574.31	2590.88
574.67	2588.15
575.02	2584.67
575.37	2581.29
575.72	2577.73
576.08	2574.33
576.43	2570.88
576.78	2567.46
577.13	2564.29
577.49	2561.24
577.84	2557.84
578.19	2554.06
578.54	2550.65
578.90	2546.47
579.25	2540.59
579.60	2535.33
579.95	2530.01
580.30	2524.76
580.66	2519.27
581.01	2514.03
581.36	2508.82
581.71	2504.63
582.06	2499.98
582.42	2495.12
582.77	2489.55
583.12	2484.51
583.47	2479.66
583.82	2474.40
584.17	2468.74
584.53	2462.86
584.88	2456.74
585.23	2450.48
585.58	2444.45
585.93	2438.19
586.28	2432.95
586.63	2427.44
586.98	2421.84
587.34	2416.68
587.69	2411.33
588.04	2405.56
588.39	2399.39
588.74	2392.15
589.09	2385.36
589.44	2377.68
589.79	2371.00
590.14	2364.70
590.49	2357.45
590.84	2350.25
591.19	2343.71
591.54	2336.33
591.89	2328.23
592.25	2320.79
592.60	2312.70
592.95	2304.24
593.30	2295.98
593.65	2287.39
594.00	2279.52
594.35	2271.31
594.70	2262.05
595.05	2254.04
595.40	2245.75
595.75	2237.13
596.10	2230.17
596.45	2222.46
596.80	2215.52
597.15	2208.04
597.50	2200.31
597.85	2192.89
598.19	2185.26
598.54	2177.26
598.89	2169.80
599.24	2162.90
599.59	2155.24
599.94	2148.05
600.29	2140.64
600.64	2133.07
600.99	2124.54
601.34	2116.66
601.69	2108.61
602.04	2100.88
602.39	2092.22
602.74	2084.28
603.08	2076.57
603.43	2068.63
603.78	2060.14
604.13	2051.77
604.48	2043.35
604.83	2035.16
605.18	2027.17
605.53	2018.05
605.87	2008.67
606.22	2000.12
606.57	1990.72
606.92	1981.97
607.27	1973.70
607.62	1965.81
607.96	1957.30
608.31	1949.65
608.66	1940.81
609.01	1932.05
609.36	1923.30
609.70	1914.04
610.05	1904.75
610.40	1895.72
610.75	1886.17
611.10	1877.27
611.44	1867.45
611.79	1858.08
612.14	1847.89
612.49	1837.13
612.83	1827.30
613.18	1817.75
613.53	1808.30
613.88	1798.48
614.22	1788.94
614.57	1778.83
614.92	1769.42
615.27	1760.76
615.61	1750.98
615.96	1741.60
616.31	1732.60
616.65	1723.77
617.00	1714.95
617.35	1705.94
617.70	1696.27
618.04	1686.15
618.39	1676.47
618.74	1667.56
619.08	1657.82
619.43	1648.93
619.78	1640.75
620.12	1632.26
620.47	1623.36
620.82	1613.80
621.16	1604.98
621.51	1595.94
621.85	1586.98
622.20	1577.00
622.55	1566.99
622.89	1557.68
623.24	1548.60
623.59	1539.81
623.93	1531.03
624.28	1522.58
624.62	1513.72
624.97	1505.23
625.32	1497.29
625.66	1489.04
626.01	1480.61
626.35	1472.02
626.70	1463.00
627.04	1453.90
627.39	1444.69
627.73	1435.95
628.08	1427.83
628.43	1419.46
628.77	1410.88
629.12	1401.94
629.46	1393.49
629.81	1384.74
630.15	1376.24
630.50	1367.68
630.84	1358.17
631.19	1348.91
631.53	1340.03
631.88	1331.20
632.22	1322.26
632.57	1313.58
632.91	1304.74
633.26	1296.06
633.60	1287.32
633.95	1278.88
634.29	1270.71
634.64	1262.99
634.98	1254.53
635.32	1246.21
635.67	1238.35
636.01	1230.55
636.36	1222.79
636.70	1215.14
637.05	1207.57
637.39	1200.05
637.73	1192.44
638.08	1185.56
638.42	1178.51
638.77	1170.98
639.11	1163.32
639.45	1155.89
639.80	1148.22
640.14	1140.81
640.49	1133.27
640.83	1125.93
641.17	1118.69
641.52	1111.31
641.86	1103.71
642.20	1096.89
642.55	1089.43
642.89	1082.00
643.23	1074.33
643.58	1067.51
643.92	1060.40
644.26	1053.40
644.61	1046.39
644.95	1039.44
645.29	1031.90
645.64	1024.06
645.98	1016.58
646.32	1009.70
646.66	1002.74
647.01	996.10
647.35	989.42
647.69	982.59
648.04	976.12
648.38	969.45
648.72	962.57
649.06	955.61
649.41	948.74
649.75	941.93
650.09	935.07
650.43	928.45
650.78	921.31
651.12	914.44
651.46	907.84
651.80	901.28
652.14	894.96
652.49	888.76
652.83	882.86
653.17	876.44
653.51	869.86
653.85	863.63
654.20	857.04
654.54	850.17
654.88	843.51
655.22	836.67
655.56	830.09
655.90	823.82
656.25	817.87
656.59	811.67
656.93	805.76
657.27	799.77
657.61	793.44
657.95	787.59
658.29	781.64
658.64	775.52
658.98	769.38
659.32	763.11
659.66	757.11
660.00	751.02
660.34	745.29
660.68	739.68
661.02	733.87
661.36	728.52
661.70	723.34
662.05	718.41
662.39	713.55
662.73	708.42
663.07	703.39
663.41	698.17
663.75	693.02
664.09	687.73
664.43	682.70
664.77	678.04
665.11	673.19
665.45	668.42
665.79	663.73
666.13	659.01
666.47	654.25
666.81	649.45
667.15	644.66
667.49	640.19
667.83	635.69
668.17	631.22
668.51	626.51
668.85	621.86
669.19	617.36
669.53	612.87
669.87	608.45
670.21	604.13
670.55	599.95
670.89	596.02
671.23	592.12
671.57	588.03
671.91	583.92
672.25	579.84
672.58	575.78
672.92	571.81
673.26	568.06
673.60	564.46
673.94	560.88
674.28	557.56
674.62	554.10
674.96	550.61
675.30	547.28
675.64	543.91
675.97	540.65
676.31	537.39
676.65	534.06
676.99	530.92
677.33	527.56
677.67	524.37
678.01	520.86
678.34	517.50
678.68	514.16
679.02	510.96
679.36	507.80
679.70	504.70
680.04	501.64
680.37	498.36
680.71	495.14
681.05	492.10
681.39	488.92
681.73	485.88
682.06	482.98
682.40	479.99
682.74	477.09
683.08	474.10
683.42	471.09
683.75	468.19
684.09	465.28
684.43	462.47
684.77	459.60
685.10	456.92
685.44	454.20
685.78	451.60
686.12	448.95
686.45	446.32
686.79	443.66
687.13	441.08
687.46	438.61
687.80	436.08
688.14	433.49
688.48	431.09
688.81	428.54
689.15	426.03
689.49	423.54
689.82	421.13
690.16	418.76
690.50	416.44
690.83	414.21
691.17	411.86
691.51	409.65
691.84	407.48
692.18	405.27
692.52	402.99
692.85	400.75
693.19	398.59
693.52	396.42
693.86	394.30
694.20	392.19
694.53	390.09
694.87	388.04
695.21	386.01
695.54	383.90
695.88	381.86
696.21	379.83
696.55	377.94
696.88	375.96
697.22	374.08
697.56	372.24
697.89	370.32
698.23	368.51
698.56	366.68
698.90	364.88
699.23	362.96
699.57	361.18
699.90	359.38
700.24	357.65
700.58	355.94
700.91	354.24
701.25	352.62
701.58	351.01
701.92	349.41
702.25	347.88
702.59	346.36
702.92	344.85
703.26	343.37
703.59	341.88
703.93	340.50
704.26	339.09
704.60	337.59
704.93	336.15
705.26	334.70
705.60	333.33
705.93	331.97
706.27	330.74
706.60	329.50
706.94	328.26
707.27	326.92
707.61	325.66
707.94	324.44
708.27	323.14
708.61	321.93
708.94	320.73
709.28	319.53
709.61	318.41
709.94	317.33
710.28	316.13
710.61	314.95
710.95	313.73
711.28	312.67
711.61	311.58
711.95	310.49
712.28	309.40
712.61	308.29
712.95	307.18
713.28	306.20
713.61	305.20
713.95	304.16
714.28	303.20
714.61	302.21
714.95	301.24
715.28	300.28
715.61	299.29
715.95	298.26
716.28	297.28
716.61	296.25
716.95	295.26
717.28	294.42
717.61	293.54
717.94	292.71
718.28	291.75
718.61	290.89
718.94	290.06
719.27	289.31
719.61	288.52
719.94	287.78
720.27	286.93
720.60	286.14
720.94	285.44
721.27	284.76
721.60	284.10
721.93	283.38
722.27	282.72
722.60	282.03
722.93	281.42
723.26	280.80
723.59	280.20
723.93	279.56
724.26	278.90
724.59	278.25
724.92	277.60
725.25	277.02
725.59	276.41
725.92	275.83
726.25	275.19
726.58	274.61
726.91	274.01
727.24	273.45
727.57	272.88
727.91	272.26
728.24	271.70
728.57	271.08
728.90	270.55
729.23	270.00
729.56	269.50
729.89	268.92
730.22	268.38
730.55	267.82
730.89	267.27
731.22	266.78
731.55	266.26
731.88	265.75
732.21	265.21
732.54	264.70
732.87	264.20
733.20	263.76
733.53	263.34
733.86	262.92
734.19	262.47
734.52	262.04
734.85	261.66
735.18	261.16
735.51	260.74
735.84	260.32
736.17	259.90
736.50	259.45
736.83	259.19
737.16	258.76
737.49	258.40
737.82	258.04
738.15	257.64
738.48	257.24
738.81	256.91
739.14	256.57
739.47	256.18
739.80	255.82
740.13	255.50
740.46	255.13
740.79	254.76
741.12	254.39
741.45	254.06
741.78	253.65
742.11	253.35
742.44	253.00
742.77	252.65
743.10	252.31
743.43	251.97
743.75	251.52
744.08	251.37
744.41	251.07
744.74	250.78
745.07	250.47
745.40	250.22
745.73	249.92
746.06	249.60
746.39	249.35
746.71	249.05
747.04	248.71
747.37	248.40
747.70	248.13
748.03	247.90
748.36	247.61
748.68	247.35
749.01	247.05
749.34	246.81
749.67	246.60
750.00	246.33
750.33	246.15
750.65	245.93
750.98	245.52
751.31	245.23
751.64	244.97
751.97	244.78
752.29	244.52
752.62	244.27
752.95	244.05
753.28	243.80
753.60	243.59
753.93	243.40
754.26	243.18
754.59	242.91
754.91	242.64
755.24	242.44
755.57	242.23
755.90	242.06
756.22	241.83
756.55	241.59
756.88	241.36
757.20	241.08
757.53	240.86
757.86	240.67
758.19	240.51
758.51	240.33
758.84	240.06
759.17	239.84
759.49	239.65
759.82	239.46
760.15	239.26
760.47	239.07
760.80	238.86
761.13	238.67
761.45	238.52
761.78	238.33
762.11	238.16
762.43	237.99
762.76	237.78
763.08	237.63
763.41	237.45
763.74	237.30
764.06	237.16
764.39	236.99
764.71	236.84
765.04	236.67
765.37	236.48
765.69	236.33
766.02	236.17
766.34	235.99
766.67	235.83
767.00	235.72
767.32	235.62
767.65	235.55
767.97	235.43
768.30	235.26
768.62	235.11
768.95	234.96
769.27	234.83
769.60	234.70
769.92	234.57
770.25	234.43
770.57	234.29
770.90	234.19
771.22	234.04
771.55	233.91
771.87	233.80
772.20	233.64
772.52	233.62
772.85	233.64
773.17	233.55
773.50	233.44
773.82	233.32
774.15	233.14
774.47	232.97
774.80	232.83
775.12	232.76
775.45	232.70
775.77	232.61
776.09	232.50
776.42	232.40
776.74	232.34
777.07	232.27
777.39	232.20
777.72	232.09
778.04	232.05
778.36	231.97
778.69	231.95
779.01	231.90
779.33	231.76
779.66	231.57
779.98	231.51
780.31	231.44
780.63	231.43
780.95	231.40
781.28	231.32
781.60	231.30
781.92	231.23
782.25	231.15
782.57	231.06
782.89	231.00
783.22	230.96
783.54	230.89
783.86	230.83
784.19	230.74
784.51	230.71
784.83	230.62
785.16	230.56
785.48	230.48
785.80	230.44
786.12	230.39
786.45	230.35
786.77	230.32
787.09	230.29
787.42	230.23
787.74	230.15
788.06	230.14
788.38	230.05
788.71	229.99
789.03	229.96
789.35	229.95
789.67	229.90
789.99	229.85
790.32	229.78
790.64	229.73
790.96	229.81
791.28	229.75
791.61	229.68
791.93	229.66
792.25	229.59
792.57	229.60
792.89	229.55
793.21	229.49
793.54	229.44
793.86	229.37
794.18	229.32
794.50	229.27
794.82	229.21
795.14	229.20
795.47	229.21
795.79	229.15
796.11	229.08
796.43	229.01
796.75	228.97
797.07	228.93
797.39	228.89
797.71	228.76
798.04	228.69
798.36	228.67
798.68	228.62
799.00	228.61
799.32	228.55
799.64	228.50
799.96	228.47
800.28	228.44
800.60	228.39
800.92	228.34
801.24	228.31
801.56	228.30
801.89	228.26
802.21	228.19
802.53	228.15
802.85	228.14
803.17	228.16
803.49	228.07
803.81	228.02
804.13	227.96
804.45	227.90
804.77	227.90
805.09	227.85
805.41	227.78
805.73	227.72
806.05	227.65
806.37	227.58
806.69	227.55
807.01	227.48
807.33	227.45
807.65	227.38
807.97	227.39
808.28	227.33
808.60	227.30
808.92	227.25
809.24	227.24
809.56	227.19
809.88	227.14
810.20	227.13
810.52	227.11
810.84	227.10
811.16	227.07
811.48	227.01
811.80	227.05
812.12	227.02
812.43	227.00
812.75	226.97
813.07	226.95
813.39	226.92
813.71	226.86
814.03	226.80
814.35	226.79
814.67	226.72
814.98	226.65
815.30	226.64
815.62	226.60
815.94	226.52
816.26	226.55
816.58	226.51
816.89	226.46
817.21	226.41
817.53	226.42
817.85	226.42
818.17	226.42
818.48	226.34
818.80	226.35
819.12	226.28
819.44	226.22
819.76	226.19
820.07	226.16
820.39	226.15
820.71	226.18
821.03	226.10
821.34	226.08
821.66	226.09
821.98	226.05
822.30	226.01
822.61	226.03
822.93	225.98
823.25	225.98
823.57	226.01
823.88	226.05
824.20	226.02
824.52	226.02
824.83	226.01
825.15	225.98
825.47	225.96
825.79	225.99
826.10	226.00
826.42	226.00
826.74	226.01
827.05	226.01
827.37	225.95
827.69	225.98
828.00	225.98
828.32	225.96
828.64	225.97
828.95	226.01
829.27	226.02
829.58	226.00
829.90	225.99
830.22	225.97
830.53	225.93
830.85	225.89
831.17	225.84
831.48	225.81
831.80	225.81
832.11	225.81
832.43	225.80
832.75	225.82
833.06	225.87
833.38	225.84
833.69	225.84
834.01	225.88
834.32	225.89
834.64	225.88
834.96	225.92
835.27	225.95
835.59	225.94
835.90	225.88
836.22	225.85
836.53	225.83
836.85	225.81
837.16	225.88
837.48	225.88
837.79	225.93
838.11	225.95
838.42	225.93
838.74	225.88
839.05	225.86
839.37	225.84
839.68	225.79
840.00	225.78
840.31	225.77
840.63	225.73
840.94	225.69
841.26	225.66
841.57	225.60
841.88	225.56
842.20	225.53
842.51	225.54
842.83	225.52
843.14	225.62
843.46	225.59
843.77	225.53
844.08	225.51
844.40	225.46
844.71	225.43
845.03	225.40
845.34	225.42
845.65	225.41
845.97	225.38
846.28	225.38
846.60	225.35
846.91	225.32
847.22	225.32
847.54	225.32
847.85	225.34
848.16	225.31
848.48	225.28
848.79	225.32
849.10	225.32
849.42	225.35
849.73	225.22
850.04	225.20
850.36	225.17
850.67	225.18
850.98	225.17
851.30	225.16
851.61	225.15
851.92	225.14
852.23	225.16
852.55	225.13
852.86	225.11
853.17	225.13
853.49	225.13
853.80	225.10
854.11	225.11
854.42	225.10
854.74	225.14
855.05	225.11
855.36	225.07
855.67	225.07
855.99	225.07
856.30	225.20
856.61	225.24
856.92	225.21
857.23	225.19
857.55	225.19
857.86	225.18
858.17	225.23
858.48	225.17
858.79	225.17
859.11	225.20
859.42	225.17
859.73	225.12
860.04	225.11
860.35	225.10
860.66	225.06
860.98	225.05
861.29	225.02
861.60	225.03
861.91	225.05
862.22	225.05
862.53	225.00
862.84	224.90
863.16	224.92
863.47	224.92
863.78	224.93
864.09	224.91
864.40	224.93
864.71	224.93
865.02	224.95
865.33	224.93
865.64	224.94
865.95	224.92
866.27	225.03
866.58	225.05
866.89	225.06
867.20	225.07
867.51	225.07
867.82	225.06
868.13	225.07
868.44	225.02
868.75	224.99
869.06	225.00
869.37	224.97
869.68	224.93
869.99	224.95
870.30	224.96
870.61	224.99
870.92	224.94
871.23	224.92
871.54	224.96
871.85	225.00
872.16	225.01
872.47	225.03
872.78	224.97
873.09	224.96
873.40	224.98
873.71	224.99
874.02	224.99
874.33	225.01
874.64	224.98
874.95	225.04
875.26	225.03
875.56	225.05
875.87	225.07
876.18	225.07
876.49	225.16
876.80	225.16
877.11	225.13
877.42	225.17
877.73	225.15
878.04	225.13
878.35	225.11
878.66	225.12
878.96	225.11
879.27	225.12
879.58	225.12
879.89	225.10
880.20	225.13
880.51	225.12
880.82	225.11
881.12	225.14
881.43	225.07
881.74	225.06
882.05	225.08
882.36	225.09
882.67	225.08
882.97	224.98
883.28	224.98
883.59	224.96
883.90	224.98
884.21	224.98
884.51	224.96
884.82	224.94
885.13	224.92
885.44	224.92
885.74	224.92
886.05	224.92
886.36	224.91
886.67	224.87
886.98	224.89
887.28	224.90
887.59	224.90
887.90	224.92
888.20	224.93
888.51	224.90
888.82	224.89
889.13	224.88
889.43	224.94
889.74	224.88
890.05	224.88
890.35	224.86
890.66	224.88
890.97	224.87
891.28	224.84
891.58	224.86
891.89	224.84
892.20	224.80
892.50	224.77
892.81	224.76
893.12	224.77
893.42	224.72
893.73	224.72
894.04	224.70
894.34	224.74
894.65	224.74
894.95	224.74
895.26	224.72
895.57	224.78
895.87	224.67
896.18	224.73
896.48	224.76
896.79	224.74
897.10	224.74
897.40	224.71
897.71	224.72
898.01	224.70
898.32	224.72
898.63	224.71
898.93	224.75
899.24	224.78
899.54	224.78
899.85	224.78
900.15	224.80
900.46	224.79
900.76	224.76
901.07	224.75
901.38	224.77
901.68	224.80
901.99	224.75
902.29	224.77
902.60	224.75
902.90	224.75
903.21	224.74
903.51	224.74
903.82	224.81
904.12	224.82
904.43	224.83
904.73	224.83
905.03	224.86
905.34	224.94
905.64	224.91
905.95	224.90
906.25	224.93
906.56	224.90
906.86	224.91
907.17	224.91
907.47	224.90
907.77	224.88
908.08	224.84
908.38	224.83
908.69	224.83
908.99	224.85
909.30	224.86
909.60	224.86
909.90	224.88
910.21	224.82
910.51	224.84
910.81	224.85
911.12	224.88
911.42	224.89
911.73	224.77
912.03	224.77
912.33	224.78
912.64	224.75
912.94	224.75
913.24	224.73
913.55	224.71
913.85	224.73
914.15	224.78
914.46	224.79
914.76	224.79
915.06	224.79
915.37	224.78
915.67	224.75
915.97	224.74
916.27	224.71
916.58	224.77
916.88	224.73
917.18	224.71
917.49	224.76
917.79	224.76
918.09	224.79
918.39	224.84
918.70	224.81
919.00	224.84
919.30	224.86
919.60	224.88
919.91	224.87
920.21	224.87
920.51	224.82
920.81	224.82
921.12	224.83
921.42	224.83
921.72	224.82
922.02	224.83
922.32	224.86
922.63	224.85
922.93	224.87
923.23	224.88
923.53	224.88
923.83	224.84
924.13	224.83
924.44	224.82
924.74	224.83
925.04	224.83
925.34	224.84
925.64	224.83
925.94	224.81
926.24	224.87
926.55	224.85
926.85	224.87
927.15	224.90
927.45	224.91
927.75	224.92
928.05	224.93
928.35	224.91
928.65	224.96
928.95	224.93
929.26	224.87
929.56	224.87
929.86	224.86
930.16	224.81
930.46	224.85
930.76	224.83
931.06	224.76
931.36	224.75
931.66	224.73
931.96	224.73
932.26	224.71
932.56	224.69
932.86	224.69
933.16	224.67
933.46	224.64
933.76	224.59
934.06	224.59
934.36	224.64
934.66	224.65
934.96	224.59
935.26	224.62
935.56	224.65
935.86	224.64
936.16	224.62
936.46	224.61
936.76	224.58
937.06	224.58
937.36	224.57
937.66	224.58
937.96	224.60
938.26	224.55
938.56	224.58
938.86	224.55
939.16	224.58
939.46	224.59
939.76	224.60
940.06	224.63
940.35	224.60
940.65	224.56
940.95	224.56
941.25	224.56
941.55	224.54
941.85	224.53
942.15	224.52
942.45	224.54
942.75	224.55
943.04	224.53
943.34	224.52
943.64	224.53
943.94	224.50
944.24	224.48
944.54	224.51
944.84	224.47
945.13	224.48
945.43	224.44
945.73	224.42
946.03	224.37
946.33	224.37
946.62	224.38
946.92	224.35
947.22	224.38
947.52	224.38
947.82	224.39
948.11	224.39
948.41	224.40
948.71	224.40
949.01	224.41
949.31	224.40
949.60	224.40
949.90	224.41
950.20	224.43
950.50	224.45
950.79	224.42
951.09	224.45
951.39	224.43
951.69	224.45
951.98	224.47
952.28	224.50
952.58	224.48
952.87	224.45
953.17	224.45
953.47	224.39
953.76	224.40
954.06	224.36
954.36	224.34
954.66	224.36
954.95	224.35
955.25	224.38
955.55	224.42
955.84	224.43
956.14	224.44
956.44	224.45
956.73	224.40
957.03	224.42
957.32	224.44
957.62	224.42
957.92	224.41
958.21	224.39
958.51	224.51
958.81	224.51
959.10	224.51
959.40	224.53
959.69	224.56
959.99	224.57
960.29	224.58
960.58	224.57
960.88	224.60
961.17	224.60
961.47	224.55
961.76	224.52
962.06	224.51
962.36	224.48
962.65	224.46
962.95	224.47
963.24	224.45
963.54	224.44
963.83	224.47
964.13	224.46
964.42	224.44
964.72	224.38
965.01	224.38
965.31	224.41
965.60	224.39
965.90	224.46
966.19	224.45
966.49	224.48
966.78	224.47
967.08	224.44
967.37	224.44
967.67	224.45
967.96	224.48
968.26	224.51
968.55	224.53
968.85	224.54
969.14	224.54
969.43	224.56
969.73	224.55
970.02	224.56
970.32	224.56
970.61	224.56
970.91	224.51
971.20	224.52
971.49	224.49
971.79	224.53
972.08	224.44
972.38	224.43
972.67	224.44
972.96	224.47
973.26	224.44
973.55	224.46
973.85	224.47
974.14	224.45
974.43	224.44
974.73	224.45
975.02	224.45
975.31	224.45
975.61	224.45
975.90	224.45
976.19	224.42
976.49	224.44
976.78	224.47
977.07	224.48
977.37	224.49
977.66	224.52
977.95	224.51
978.24	224.53
978.54	224.55
978.83	224.52
979.12	224.49
979.42	224.50
979.71	224.49
980.00	224.49
980.29	224.49
980.59	224.47
980.88	224.49
981.17	224.49
981.46	224.48
981.76	224.47
982.05	224.50
982.34	224.51
982.63	224.48
982.93	224.48
983.22	224.53
983.51	224.54
983.80	224.54
984.09	224.52
984.39	224.50
984.68	224.51
984.97	224.52
985.26	224.55
985.55	224.57
985.85	224.55
986.14	224.55
986.43	224.57
986.72	224.57
987.01	224.53
987.30	224.51
987.59	224.52
987.89	224.54
988.18	224.50
988.47	224.50
988.76	224.53
989.05	224.52
989.34	224.50
989.63	224.51
989.92	224.49
990.22	224.49
990.51	224.51
990.80	224.49
991.09	224.52
991.38	224.51
991.67	224.49
991.96	224.51
992.25	224.53
992.54	224.52
992.83	224.53
993.12	224.53
993.41	224.55
993.70	224.59
993.99	224.61
994.28	224.64
994.58	224.65
994.87	224.62
995.16	224.60
995.45	224.58
995.74	224.52
996.03	224.52
996.32	224.56
996.61	224.56
996.90	224.54
997.19	224.53
997.48	224.55
997.77	224.56
998.06	224.55
998.34	224.55
998.63	224.53
998.92	224.55
999.21	224.58
999.50	224.57
999.79	224.53
1000.08	224.52
1000.37	224.51
1000.66	224.48
1000.95	224.51
1001.24	224.54
1001.53	224.57
1001.82	224.59
1002.11	224.59
1002.40	224.60
1002.68	224.63
1002.97	224.73
1003.26	224.71
1003.55	224.69
1003.84	224.70
1004.13	224.74
1004.42	224.71
1004.71	224.71
1004.99	224.68
1005.28	224.67
1005.57	224.70
1005.86	224.70
1006.15	224.72
1006.44	224.69
1006.72	224.73
1007.01	224.70
1007.30	224.68
1007.59	224.68
1007.88	224.67
1008.17	224.65
1008.45	224.60
1008.74	224.58
1009.03	224.54
1009.32	224.53
1009.60	224.52
1009.89	224.53
1010.18	224.45
1010.47	224.47
1010.76	224.50
1011.04	224.48
1011.33	224.49
1011.62	224.45
1011.91	224.46
1012.19	224.44
1012.48	224.46
1012.77	224.42
1013.05	224.45
1013.34	224.47
1013.63	224.47
1013.92	224.47
1014.20	224.48
1014.49	224.48
1014.78	224.45
1015.06	224.38
1015.35	224.36
1015.64	224.36
1015.92	224.39
1016.21	224.39
1016.50	224.39
1016.78	224.37
1017.07	224.37
1017.36	224.35
1017.64	224.37
1017.93	224.36
1018.22	224.36
1018.50	224.34
1018.79	224.37
1019.08	224.38
1019.36	224.35
1019.65	224.35
1019.93	224.41
1020.22	224.44
1020.51	224.52
1020.79	224.53
1021.08	224.45
1021.36	223.97
1021.65	224.60
1021.94	225.00
1022.22	224.26
1022.51	224.77
1022.79	225.56
1023.08	224.82
1023.36	225.83
1023.65	224.14
>>>>>End Processed Spectral Data<<<<<
