SpectraSuite Data File
++++++++++++++++++++++++++++++++++++
Date: Fri Feb 01 16:31:07 EST 2013
User: group
Dark Spectrum Present: No
Reference Spectrum Present: No
Number of Sampled Component Spectra: 1
Spectrometers: USB2E7196
Integration Time (usec): 35000 (USB2E7196)
Spectra Averaged: 100 (USB2E7196)
Boxcar Smoothing: 10 (USB2E7196)
Correct for Electrical Dark: No (USB2E7196)
Strobe/Lamp Enabled: No (USB2E7196)
Correct for Detector Non-linearity: No (USB2E7196)
Correct for Stray Light: No (USB2E7196)
Number of Pixels in Processed Spectrum: 2048
>>>>>Begin Processed Spectral Data<<<<<
339.09	0.00
339.48	214.15
339.86	215.13
340.24	217.09
340.63	217.92
341.01	221.19
341.39	220.32
341.78	223.05
342.16	223.20
342.54	223.83
342.93	212.36
343.31	223.09
343.69	223.60
344.07	224.08
344.46	224.46
344.84	224.85
345.22	225.06
345.60	225.34
345.99	225.48
346.37	225.61
346.75	225.71
347.13	225.79
347.52	225.87
347.90	225.95
348.28	226.00
348.66	226.05
349.05	226.01
349.43	226.04
349.81	226.09
350.19	226.14
350.57	226.20
350.96	226.27
351.34	226.37
351.72	226.50
352.10	226.58
352.48	226.68
352.87	226.71
353.25	226.80
353.63	226.86
354.01	226.94
354.39	227.05
354.77	227.13
355.15	227.23
355.54	227.27
355.92	227.32
356.30	227.36
356.68	227.51
357.06	227.59
357.44	227.66
357.82	227.71
358.20	227.77
358.58	227.82
358.97	227.90
359.35	227.96
359.73	228.05
360.11	228.13
360.49	228.21
360.87	228.28
361.25	228.35
361.63	228.43
362.01	228.48
362.39	228.48
362.77	228.52
363.15	228.54
363.53	228.57
363.91	228.60
364.29	228.67
364.67	228.63
365.05	228.66
365.43	228.70
365.81	228.75
366.19	228.82
366.57	228.89
366.95	228.87
367.33	228.82
367.71	228.81
368.09	228.81
368.47	228.78
368.85	228.78
369.23	228.75
369.61	228.71
369.99	228.74
370.37	228.73
370.75	228.75
371.13	228.71
371.51	228.70
371.89	228.68
372.27	228.61
372.65	228.55
373.03	228.53
373.41	228.44
373.78	228.35
374.16	228.25
374.54	228.15
374.92	228.08
375.30	228.02
375.68	227.91
376.06	227.86
376.44	227.79
376.82	227.70
377.19	227.65
377.57	227.56
377.95	227.42
378.33	227.36
378.71	227.26
379.09	227.21
379.47	227.14
379.84	227.05
380.22	226.99
380.60	226.91
380.98	226.80
381.36	226.76
381.73	226.69
382.11	226.67
382.49	226.63
382.87	226.59
383.25	226.53
383.62	226.60
384.00	226.48
384.38	226.42
384.76	226.41
385.13	226.37
385.51	226.33
385.89	226.29
386.27	226.23
386.64	226.17
387.02	226.11
387.40	226.04
387.78	225.99
388.15	225.96
388.53	225.93
388.91	225.87
389.29	225.83
389.66	225.81
390.04	225.75
390.42	225.72
390.79	225.69
391.17	225.68
391.55	225.55
391.92	225.56
392.30	225.56
392.68	225.53
393.05	225.54
393.43	225.56
393.81	225.55
394.18	225.48
394.56	225.49
394.94	225.50
395.31	225.51
395.69	225.56
396.06	225.58
396.44	225.64
396.82	225.68
397.19	225.78
397.57	225.80
397.95	225.84
398.32	225.86
398.70	225.90
399.07	225.98
399.45	226.02
399.82	226.08
400.20	226.12
400.58	226.20
400.95	226.24
401.33	226.31
401.70	226.46
402.08	226.59
402.45	226.66
402.83	226.77
403.20	226.88
403.58	226.96
403.95	227.07
404.33	227.16
404.71	227.29
405.08	227.45
405.46	227.57
405.83	227.71
406.21	227.86
406.58	228.04
406.96	228.18
407.33	228.36
407.70	228.57
408.08	228.86
408.45	229.06
408.83	229.26
409.20	229.48
409.58	229.66
409.95	229.90
410.33	230.20
410.70	230.44
411.08	230.73
411.45	231.05
411.82	231.36
412.20	231.71
412.57	232.14
412.95	232.45
413.32	232.86
413.69	233.23
414.07	233.67
414.44	234.09
414.82	234.54
415.19	235.11
415.56	235.63
415.94	236.16
416.31	236.79
416.68	237.41
417.06	238.14
417.43	238.84
417.81	239.62
418.18	240.39
418.55	241.26
418.93	242.17
419.30	243.08
419.67	244.01
420.04	244.97
420.42	245.96
420.79	247.12
421.16	248.31
421.54	249.52
421.91	250.73
422.28	252.02
422.66	253.36
423.03	254.66
423.40	256.04
423.77	257.44
424.15	258.88
424.52	260.42
424.89	262.01
425.26	263.54
425.64	265.01
426.01	266.61
426.38	268.26
426.75	269.89
427.13	271.60
427.50	273.40
427.87	275.26
428.24	277.11
428.61	278.83
428.99	280.72
429.36	282.80
429.73	284.84
430.10	286.87
430.47	288.96
430.85	291.06
431.22	293.27
431.59	295.67
431.96	297.88
432.33	300.36
432.70	302.71
433.08	305.49
433.45	308.10
433.82	310.68
434.19	313.52
434.56	316.33
434.93	318.96
435.30	321.57
435.68	324.42
436.05	327.20
436.42	329.95
436.79	332.47
437.16	335.16
437.53	337.96
437.90	340.74
438.27	343.42
438.64	346.20
439.01	348.73
439.38	350.93
439.75	353.07
440.13	355.51
440.50	357.84
440.87	359.68
441.24	361.58
441.61	363.71
441.98	365.20
442.35	366.95
442.72	368.80
443.09	370.61
443.46	371.62
443.83	372.18
444.20	372.68
444.57	373.51
444.94	373.82
445.31	374.19
445.68	374.52
446.05	374.62
446.42	374.25
446.79	373.83
447.16	373.34
447.53	373.02
447.90	371.87
448.27	370.65
448.64	369.08
449.01	367.97
449.37	366.01
449.74	364.13
450.11	361.92
450.48	359.47
450.85	356.90
451.22	354.80
451.59	352.79
451.96	350.88
452.33	348.27
452.70	345.89
453.07	343.04
453.43	340.16
453.80	337.39
454.17	334.74
454.54	332.21
454.91	329.50
455.28	326.88
455.65	324.40
456.02	322.00
456.38	319.85
456.75	317.21
457.12	314.96
457.49	312.72
457.86	310.56
458.23	308.72
458.59	306.73
458.96	304.67
459.33	302.84
459.70	300.99
460.07	299.49
460.43	297.82
460.80	296.23
461.17	294.80
461.54	293.35
461.91	291.93
462.27	290.54
462.64	289.35
463.01	288.00
463.38	286.71
463.74	285.37
464.11	284.25
464.48	283.27
464.85	282.22
465.21	281.40
465.58	280.52
465.95	279.41
466.32	278.52
466.68	277.60
467.05	276.71
467.42	275.83
467.78	274.93
468.15	274.06
468.52	273.44
468.88	272.61
469.25	271.84
469.62	271.25
469.98	270.60
470.35	269.96
470.72	269.36
471.08	268.71
471.45	268.18
471.82	267.65
472.18	267.05
472.55	266.57
472.92	266.03
473.28	265.57
473.65	265.14
474.02	264.69
474.38	264.34
474.75	264.05
475.11	263.72
475.48	263.47
475.85	263.23
476.21	262.99
476.58	262.83
476.94	262.72
477.31	262.55
477.67	262.41
478.04	262.33
478.41	262.29
478.77	262.35
479.14	262.32
479.50	262.32
479.87	262.38
480.23	262.47
480.60	262.57
480.96	262.64
481.33	262.90
481.69	263.10
482.06	263.26
482.42	263.49
482.79	263.77
483.15	264.10
483.52	264.49
483.88	264.85
484.25	265.20
484.61	265.60
484.98	266.03
485.34	266.57
485.71	267.13
486.07	267.72
486.44	268.28
486.80	269.00
487.17	269.72
487.53	270.55
487.90	271.41
488.26	272.34
488.62	273.33
488.99	274.23
489.35	275.29
489.72	276.46
490.08	277.63
490.44	278.83
490.81	280.17
491.17	281.49
491.54	282.93
491.90	284.49
492.26	286.11
492.63	287.84
492.99	289.67
493.36	291.58
493.72	293.64
494.08	295.76
494.45	297.96
494.81	300.33
495.17	302.75
495.54	305.35
495.90	308.04
496.26	310.82
496.63	313.80
496.99	316.89
497.35	320.13
497.72	323.53
498.08	327.05
498.44	330.71
498.80	334.65
499.17	338.70
499.53	342.91
499.89	347.34
500.26	351.90
500.62	356.56
500.98	361.52
501.34	366.54
501.71	371.83
502.07	377.31
502.43	382.98
502.79	388.79
503.16	394.81
503.52	401.09
503.88	407.51
504.24	414.12
504.60	421.04
504.97	428.17
505.33	435.57
505.69	443.30
506.05	451.02
506.41	458.97
506.78	467.15
507.14	475.64
507.50	484.43
507.86	493.43
508.22	502.67
508.59	511.93
508.95	521.51
509.31	531.36
509.67	541.48
510.03	551.73
510.39	562.32
510.75	573.17
511.12	584.11
511.48	595.47
511.84	607.03
512.20	618.57
512.56	630.53
512.92	642.68
513.28	655.05
513.64	667.56
514.00	680.22
514.37	693.16
514.73	706.16
515.09	719.12
515.45	732.37
515.81	745.86
516.17	759.78
516.53	773.96
516.89	788.03
517.25	802.24
517.61	816.67
517.97	831.11
518.33	845.49
518.69	860.18
519.05	875.11
519.41	890.14
519.77	905.64
520.13	921.10
520.49	936.36
520.85	951.81
521.21	967.56
521.57	983.71
521.93	999.39
522.29	1015.73
522.65	1031.86
523.01	1048.07
523.37	1064.15
523.73	1080.29
524.09	1096.35
524.45	1112.69
524.81	1129.14
525.17	1145.86
525.53	1162.82
525.89	1179.68
526.25	1196.57
526.61	1212.84
526.97	1229.55
527.33	1245.91
527.68	1262.24
528.04	1278.66
528.40	1294.99
528.76	1311.91
529.12	1328.39
529.48	1345.21
529.84	1361.06
530.20	1377.62
530.56	1394.57
530.91	1411.77
531.27	1428.39
531.63	1444.77
531.99	1461.18
532.35	1477.08
532.71	1492.87
533.07	1508.88
533.42	1524.59
533.78	1540.41
534.14	1556.62
534.50	1571.87
534.86	1587.54
535.21	1602.70
535.57	1618.53
535.93	1633.98
536.29	1648.60
536.65	1663.56
537.00	1678.16
537.36	1693.51
537.72	1707.86
538.08	1722.13
538.44	1735.83
538.79	1749.53
539.15	1763.07
539.51	1776.60
539.87	1790.90
540.22	1804.56
540.58	1818.16
540.94	1831.36
541.29	1844.24
541.65	1856.77
542.01	1869.88
542.37	1882.10
542.72	1894.52
543.08	1906.23
543.44	1918.45
543.79	1929.65
544.15	1940.53
544.51	1952.20
544.87	1963.04
545.22	1973.72
545.58	1983.85
545.94	1993.55
546.29	2003.46
546.65	2013.19
547.01	2022.57
547.36	2031.05
547.72	2039.36
548.07	2047.15
548.43	2055.24
548.79	2063.15
549.14	2070.58
549.50	2077.81
549.86	2085.42
550.21	2092.56
550.57	2099.60
550.92	2106.19
551.28	2113.10
551.64	2120.16
551.99	2126.45
552.35	2132.53
552.70	2138.83
553.06	2144.79
553.41	2151.05
553.77	2157.03
554.13	2163.14
554.48	2169.33
554.84	2174.90
555.19	2180.10
555.55	2185.24
555.90	2189.75
556.26	2194.56
556.61	2199.25
556.97	2203.66
557.32	2207.83
557.68	2212.05
558.03	2216.38
558.39	2220.03
558.74	2224.97
559.10	2228.91
559.45	2232.70
559.81	2237.01
560.16	2240.76
560.52	2243.94
560.87	2247.39
561.23	2250.22
561.58	2253.18
561.94	2255.58
562.29	2257.94
562.64	2260.72
563.00	2263.45
563.35	2266.93
563.71	2270.21
564.06	2273.59
564.42	2276.41
564.77	2279.05
565.12	2281.35
565.48	2283.33
565.83	2285.27
566.19	2286.32
566.54	2287.23
566.89	2288.31
567.25	2288.86
567.60	2290.17
567.96	2291.94
568.31	2292.95
568.66	2294.01
569.02	2294.45
569.37	2294.84
569.72	2295.72
570.08	2295.92
570.43	2295.99
570.78	2295.60
571.14	2294.00
571.49	2292.74
571.84	2292.36
572.20	2291.21
572.55	2290.19
572.90	2288.78
573.26	2287.52
573.61	2285.90
573.96	2284.23
574.31	2281.42
574.67	2278.58
575.02	2274.98
575.37	2271.72
575.72	2267.87
576.08	2264.55
576.43	2261.27
576.78	2257.72
577.13	2254.77
577.49	2251.77
577.84	2248.24
578.19	2244.55
578.54	2241.06
578.90	2236.83
579.25	2231.49
579.60	2226.66
579.95	2221.77
580.30	2216.69
580.66	2211.56
581.01	2206.73
581.36	2201.86
581.71	2197.72
582.06	2193.28
582.42	2188.99
582.77	2183.80
583.12	2179.32
583.47	2174.62
583.82	2169.76
584.17	2164.58
584.53	2159.00
584.88	2153.52
585.23	2147.82
585.58	2142.43
585.93	2136.93
586.28	2132.27
586.63	2127.27
586.98	2122.29
587.34	2117.51
587.69	2112.60
588.04	2107.29
588.39	2101.66
588.74	2095.23
589.09	2089.14
589.44	2082.43
589.79	2076.56
590.14	2071.05
590.49	2064.52
590.84	2058.28
591.19	2052.43
591.54	2045.96
591.89	2038.63
592.25	2031.78
592.60	2024.62
592.95	2017.10
593.30	2009.82
593.65	2002.22
594.00	1995.22
594.35	1987.90
594.70	1980.04
595.05	1973.00
595.40	1965.93
595.75	1958.61
596.10	1952.49
596.45	1945.88
596.80	1939.89
597.15	1933.12
597.50	1925.94
597.85	1919.58
598.19	1912.86
598.54	1905.67
598.89	1899.11
599.24	1893.33
599.59	1886.65
599.94	1880.56
600.29	1874.17
600.64	1867.64
600.99	1860.38
601.34	1853.49
601.69	1846.59
602.04	1839.70
602.39	1832.42
602.74	1825.54
603.08	1818.79
603.43	1812.08
603.78	1804.56
604.13	1797.28
604.48	1790.13
604.83	1783.30
605.18	1776.35
605.53	1768.48
605.87	1760.55
606.22	1753.33
606.57	1745.43
606.92	1738.25
607.27	1731.14
607.62	1724.34
607.96	1717.16
608.31	1710.47
608.66	1702.88
609.01	1695.49
609.36	1687.97
609.70	1680.02
610.05	1672.05
610.40	1664.34
610.75	1656.07
611.10	1648.54
611.44	1640.15
611.79	1632.12
612.14	1623.58
612.49	1614.36
612.83	1605.93
613.18	1597.87
613.53	1589.73
613.88	1581.24
614.22	1572.92
614.57	1564.30
614.92	1556.30
615.27	1548.79
615.61	1540.46
615.96	1532.44
616.31	1524.72
616.65	1517.46
617.00	1509.82
617.35	1502.12
617.70	1493.83
618.04	1485.35
618.39	1477.14
618.74	1469.48
619.08	1461.21
619.43	1453.56
619.78	1446.65
620.12	1439.49
620.47	1431.95
620.82	1423.82
621.16	1416.28
621.51	1408.71
621.85	1401.10
622.20	1392.52
622.55	1384.04
622.89	1376.23
623.24	1368.63
623.59	1361.26
623.93	1353.58
624.28	1346.34
624.62	1338.77
624.97	1331.52
625.32	1324.64
625.66	1317.66
626.01	1310.58
626.35	1303.05
626.70	1295.29
627.04	1287.71
627.39	1279.92
627.73	1272.48
628.08	1265.54
628.43	1258.26
628.77	1250.82
629.12	1243.17
629.46	1235.99
629.81	1228.62
630.15	1221.30
630.50	1213.87
630.84	1205.72
631.19	1197.82
631.53	1190.28
631.88	1182.76
632.22	1175.08
632.57	1167.84
632.91	1160.33
633.26	1152.80
633.60	1145.51
633.95	1138.32
634.29	1131.21
634.64	1124.51
634.98	1117.21
635.32	1110.05
635.67	1103.41
636.01	1096.77
636.36	1089.96
636.70	1083.41
637.05	1076.82
637.39	1070.35
637.73	1063.84
638.08	1057.79
638.42	1051.79
638.77	1045.34
639.11	1038.80
639.45	1032.42
639.80	1025.74
640.14	1019.22
640.49	1012.73
640.83	1006.30
641.17	1000.14
641.52	993.74
641.86	987.32
642.20	981.38
642.55	975.05
642.89	968.65
643.23	962.09
643.58	956.34
643.92	950.16
644.26	944.12
644.61	938.19
644.95	932.19
645.29	925.71
645.64	919.02
645.98	912.66
646.32	906.81
646.66	900.78
647.01	894.95
647.35	889.23
647.69	883.38
648.04	877.91
648.38	872.08
648.72	866.13
649.06	860.06
649.41	854.26
649.75	848.29
650.09	842.31
650.43	836.49
650.78	830.31
651.12	824.35
651.46	818.61
651.80	812.83
652.14	807.39
652.49	802.01
652.83	796.83
653.17	791.13
653.51	785.41
653.85	779.99
654.20	774.40
654.54	768.44
654.88	762.70
655.22	756.81
655.56	751.11
655.90	745.62
656.25	740.43
656.59	735.05
656.93	729.98
657.27	724.82
657.61	719.37
657.95	714.35
658.29	709.30
658.64	704.12
658.98	698.79
659.32	693.40
659.66	688.16
660.00	682.84
660.34	677.98
660.68	673.08
661.02	668.17
661.36	663.43
661.70	658.94
662.05	654.58
662.39	650.28
662.73	645.85
663.07	641.51
663.41	636.99
663.75	632.43
664.09	627.91
664.43	623.54
664.77	619.55
665.11	615.31
665.45	611.12
665.79	606.98
666.13	602.88
666.47	598.72
666.81	594.55
667.15	590.48
667.49	586.54
667.83	582.67
668.17	578.72
668.51	574.61
668.85	570.51
669.19	566.68
669.53	562.85
669.87	558.95
670.21	555.26
670.55	551.63
670.89	548.25
671.23	544.81
671.57	541.28
671.91	537.64
672.25	534.08
672.58	530.58
672.92	527.13
673.26	523.95
673.60	520.77
673.94	517.68
674.28	514.71
674.62	511.76
674.96	508.69
675.30	505.72
675.64	502.81
675.97	500.07
676.31	497.14
676.65	494.22
676.99	491.54
677.33	488.69
677.67	485.89
678.01	482.87
678.34	479.88
678.68	477.02
679.02	474.27
679.36	471.50
679.70	468.78
680.04	466.06
680.37	463.18
680.71	460.38
681.05	457.75
681.39	455.01
681.73	452.40
682.06	449.86
682.40	447.29
682.74	444.78
683.08	442.24
683.42	439.63
683.75	437.10
684.09	434.48
684.43	431.98
684.77	429.45
685.10	427.06
685.44	424.72
685.78	422.42
686.12	420.17
686.45	417.91
686.79	415.59
687.13	413.37
687.46	411.21
687.80	409.12
688.14	406.88
688.48	404.86
688.81	402.54
689.15	400.36
689.49	398.18
689.82	396.12
690.16	394.03
690.50	392.11
690.83	390.15
691.17	388.23
691.51	386.30
691.84	384.50
692.18	382.60
692.52	380.61
692.85	378.62
693.19	376.69
693.52	374.79
693.86	373.01
694.20	371.24
694.53	369.43
694.87	367.54
695.21	365.77
695.54	363.94
695.88	362.26
696.21	360.51
696.55	358.88
696.88	357.17
697.22	355.50
697.56	353.88
697.89	352.26
698.23	350.63
698.56	349.02
698.90	347.42
699.23	345.75
699.57	344.26
699.90	342.77
700.24	341.24
700.58	339.76
700.91	338.27
701.25	336.83
701.58	335.49
701.92	334.13
702.25	332.80
702.59	331.43
702.92	330.11
703.26	328.83
703.59	327.55
703.93	326.38
704.26	325.13
704.60	323.82
704.93	322.53
705.26	321.28
705.60	320.10
705.93	318.97
706.27	317.92
706.60	316.85
706.94	315.79
707.27	314.64
707.61	313.58
707.94	312.56
708.27	311.43
708.61	310.31
708.94	309.35
709.28	308.35
709.61	307.40
709.94	306.43
710.28	305.46
710.61	304.48
710.95	303.41
711.28	302.48
711.61	301.54
711.95	300.64
712.28	299.71
712.61	298.71
712.95	297.78
713.28	296.90
713.61	296.01
713.95	295.11
714.28	294.25
714.61	293.39
714.95	292.51
715.28	291.66
715.61	290.77
715.95	289.85
716.28	288.95
716.61	288.12
716.95	287.26
717.28	286.47
717.61	285.67
717.94	284.91
718.28	284.14
718.61	283.43
718.94	282.72
719.27	282.03
719.61	281.35
719.94	280.66
720.27	279.96
720.60	279.24
720.94	278.58
721.27	277.99
721.60	277.40
721.93	276.78
722.27	276.22
722.60	275.67
722.93	275.13
723.26	274.60
723.59	274.03
723.93	273.49
724.26	272.90
724.59	272.36
724.92	271.87
725.25	271.37
725.59	270.86
725.92	270.31
726.25	269.79
726.58	269.30
726.91	268.82
727.24	268.31
727.57	267.85
727.91	267.37
728.24	266.90
728.57	266.43
728.90	265.98
729.23	265.49
729.56	265.06
729.89	264.59
730.22	264.09
730.55	263.61
730.89	263.20
731.22	262.76
731.55	262.32
731.88	261.89
732.21	261.44
732.54	260.99
732.87	260.62
733.20	260.25
733.53	259.90
733.86	259.52
734.19	259.12
734.52	258.69
734.85	258.36
735.18	257.95
735.51	257.58
735.84	257.21
736.17	256.86
736.50	256.43
736.83	256.23
737.16	255.90
737.49	255.57
737.82	255.20
738.15	254.88
738.48	254.54
738.81	254.23
739.14	253.94
739.47	253.59
739.80	253.28
740.13	252.99
740.46	252.63
740.79	252.30
741.12	252.03
741.45	251.77
741.78	251.44
742.11	251.16
742.44	250.82
742.77	250.53
743.10	250.23
743.43	249.95
743.75	249.56
744.08	249.42
744.41	249.18
744.74	248.93
745.07	248.65
745.40	248.46
745.73	248.21
746.06	247.96
746.39	247.73
746.71	247.46
747.04	247.15
747.37	246.90
747.70	246.66
748.03	246.40
748.36	246.20
748.68	245.96
749.01	245.74
749.34	245.56
749.67	245.34
750.00	245.10
750.33	244.96
750.65	244.71
750.98	244.38
751.31	244.15
751.64	243.95
751.97	243.78
752.29	243.53
752.62	243.26
752.95	243.01
753.28	242.79
753.60	242.55
753.93	242.38
754.26	242.18
754.59	241.96
754.91	241.79
755.24	241.57
755.57	241.36
755.90	241.15
756.22	240.94
756.55	240.73
756.88	240.55
757.20	240.32
757.53	240.11
757.86	239.93
758.19	239.78
758.51	239.59
758.84	239.36
759.17	239.18
759.49	239.04
759.82	238.90
760.15	238.78
760.47	238.63
760.80	238.43
761.13	238.32
761.45	238.15
761.78	237.95
762.11	237.77
762.43	237.61
762.76	237.45
763.08	237.31
763.41	237.19
763.74	237.05
764.06	236.90
764.39	236.79
764.71	236.64
765.04	236.46
765.37	236.32
765.69	236.20
766.02	236.07
766.34	235.93
766.67	235.78
767.00	235.64
767.32	235.56
767.65	235.52
767.97	235.35
768.30	235.28
768.62	235.18
768.95	235.06
769.27	234.92
769.60	234.82
769.92	234.70
770.25	234.58
770.57	234.47
770.90	234.34
771.22	234.19
771.55	234.12
771.87	234.02
772.20	233.92
772.52	233.94
772.85	233.96
773.17	233.83
773.50	233.75
773.82	233.61
774.15	233.45
774.47	233.30
774.80	233.21
775.12	233.09
775.45	233.05
775.77	233.00
776.09	232.95
776.42	232.85
776.74	232.78
777.07	232.68
777.39	232.62
777.72	232.56
778.04	232.55
778.36	232.46
778.69	232.41
779.01	232.33
779.33	232.14
779.66	231.97
779.98	231.90
780.31	231.84
780.63	231.84
780.95	231.85
781.28	231.83
781.60	231.77
781.92	231.71
782.25	231.60
782.57	231.54
782.89	231.49
783.22	231.46
783.54	231.40
783.86	231.34
784.19	231.25
784.51	231.20
784.83	231.13
785.16	231.08
785.48	231.04
785.80	230.99
786.12	230.98
786.45	230.96
786.77	230.96
787.09	230.92
787.42	230.84
787.74	230.81
788.06	230.77
788.38	230.73
788.71	230.69
789.03	230.66
789.35	230.65
789.67	230.62
789.99	230.62
790.32	230.57
790.64	230.57
790.96	230.61
791.28	230.58
791.61	230.54
791.93	230.51
792.25	230.45
792.57	230.51
792.89	230.45
793.21	230.41
793.54	230.37
793.86	230.32
794.18	230.30
794.50	230.23
794.82	230.19
795.14	230.15
795.47	230.14
795.79	230.09
796.11	230.03
796.43	229.99
796.75	229.96
797.07	229.95
797.39	229.93
797.71	229.86
798.04	229.80
798.36	229.78
798.68	229.76
799.00	229.75
799.32	229.68
799.64	229.64
799.96	229.62
800.28	229.61
800.60	229.58
800.92	229.58
801.24	229.53
801.56	229.53
801.89	229.50
802.21	229.48
802.53	229.48
802.85	229.47
803.17	229.48
803.49	229.40
803.81	229.36
804.13	229.28
804.45	229.26
804.77	229.25
805.09	229.23
805.41	229.15
805.73	229.12
806.05	229.04
806.37	229.05
806.69	228.98
807.01	228.94
807.33	228.93
807.65	228.85
807.97	228.89
808.28	228.87
808.60	228.82
808.92	228.74
809.24	228.75
809.56	228.71
809.88	228.68
810.20	228.65
810.52	228.64
810.84	228.61
811.16	228.56
811.48	228.51
811.80	228.50
812.12	228.51
812.43	228.47
812.75	228.48
813.07	228.43
813.39	228.42
813.71	228.38
814.03	228.32
814.35	228.29
814.67	228.19
814.98	228.15
815.30	228.13
815.62	228.11
815.94	228.03
816.26	228.07
816.58	227.97
816.89	227.96
817.21	227.91
817.53	227.89
817.85	227.88
818.17	227.87
818.48	227.82
818.80	227.79
819.12	227.78
819.44	227.76
819.76	227.69
820.07	227.67
820.39	227.64
820.71	227.61
821.03	227.62
821.34	227.61
821.66	227.62
821.98	227.62
822.30	227.60
822.61	227.64
822.93	227.54
823.25	227.57
823.57	227.55
823.88	227.55
824.20	227.55
824.52	227.52
824.83	227.48
825.15	227.45
825.47	227.46
825.79	227.46
826.10	227.42
826.42	227.45
826.74	227.43
827.05	227.43
827.37	227.42
827.69	227.40
828.00	227.40
828.32	227.39
828.64	227.36
828.95	227.40
829.27	227.39
829.58	227.39
829.90	227.39
830.22	227.38
830.53	227.38
830.85	227.35
831.17	227.31
831.48	227.35
831.80	227.36
832.11	227.35
832.43	227.31
832.75	227.32
833.06	227.35
833.38	227.32
833.69	227.28
834.01	227.29
834.32	227.27
834.64	227.26
834.96	227.24
835.27	227.25
835.59	227.20
835.90	227.15
836.22	227.14
836.53	227.09
836.85	227.11
837.16	227.22
837.48	227.22
837.79	227.26
838.11	227.28
838.42	227.28
838.74	227.23
839.05	227.22
839.37	227.22
839.68	227.15
840.00	227.14
840.31	227.20
840.63	227.19
840.94	227.20
841.26	227.19
841.57	227.17
841.88	227.16
842.20	227.14
842.51	227.12
842.83	227.12
843.14	227.24
843.46	227.16
843.77	227.06
844.08	227.02
844.40	226.97
844.71	226.94
845.03	226.93
845.34	226.94
845.65	226.95
845.97	226.93
846.28	226.93
846.60	226.94
846.91	226.91
847.22	226.90
847.54	226.88
847.85	226.87
848.16	226.83
848.48	226.82
848.79	226.86
849.10	226.87
849.42	226.85
849.73	226.73
850.04	226.74
850.36	226.69
850.67	226.73
850.98	226.72
851.30	226.67
851.61	226.67
851.92	226.64
852.23	226.62
852.55	226.62
852.86	226.62
853.17	226.60
853.49	226.60
853.80	226.60
854.11	226.59
854.42	226.59
854.74	226.56
855.05	226.54
855.36	226.49
855.67	226.47
855.99	226.48
856.30	226.57
856.61	226.57
856.92	226.56
857.23	226.57
857.55	226.59
857.86	226.63
858.17	226.62
858.48	226.59
858.79	226.59
859.11	226.60
859.42	226.57
859.73	226.53
860.04	226.54
860.35	226.48
860.66	226.45
860.98	226.42
861.29	226.46
861.60	226.44
861.91	226.47
862.22	226.46
862.53	226.43
862.84	226.32
863.16	226.35
863.47	226.37
863.78	226.31
864.09	226.31
864.40	226.27
864.71	226.26
865.02	226.32
865.33	226.32
865.64	226.30
865.95	226.32
866.27	226.41
866.58	226.39
866.89	226.44
867.20	226.46
867.51	226.49
867.82	226.50
868.13	226.57
868.44	226.54
868.75	226.58
869.06	226.59
869.37	226.61
869.68	226.56
869.99	226.55
870.30	226.60
870.61	226.63
870.92	226.62
871.23	226.62
871.54	226.62
871.85	226.65
872.16	226.67
872.47	226.67
872.78	226.61
873.09	226.62
873.40	226.61
873.71	226.63
874.02	226.63
874.33	226.61
874.64	226.56
874.95	226.60
875.26	226.57
875.56	226.58
875.87	226.59
876.18	226.58
876.49	226.69
876.80	226.69
877.11	226.66
877.42	226.68
877.73	226.65
878.04	226.64
878.35	226.65
878.66	226.64
878.96	226.62
879.27	226.62
879.58	226.62
879.89	226.61
880.20	226.59
880.51	226.56
880.82	226.58
881.12	226.60
881.43	226.56
881.74	226.54
882.05	226.55
882.36	226.55
882.67	226.59
882.97	226.45
883.28	226.48
883.59	226.48
883.90	226.49
884.21	226.53
884.51	226.52
884.82	226.45
885.13	226.44
885.44	226.46
885.74	226.46
886.05	226.46
886.36	226.47
886.67	226.43
886.98	226.52
887.28	226.52
887.59	226.51
887.90	226.52
888.20	226.51
888.51	226.48
888.82	226.44
889.13	226.43
889.43	226.52
889.74	226.48
890.05	226.43
890.35	226.40
890.66	226.38
890.97	226.32
891.28	226.33
891.58	226.34
891.89	226.31
892.20	226.30
892.50	226.28
892.81	226.25
893.12	226.26
893.42	226.17
893.73	226.17
894.04	226.13
894.34	226.16
894.65	226.15
894.95	226.14
895.26	226.17
895.57	226.17
895.87	226.08
896.18	226.08
896.48	226.10
896.79	226.12
897.10	226.11
897.40	226.14
897.71	226.15
898.01	226.13
898.32	226.14
898.63	226.09
898.93	226.07
899.24	226.10
899.54	226.08
899.85	226.09
900.15	226.07
900.46	226.08
900.76	226.06
901.07	226.08
901.38	226.08
901.68	226.07
901.99	226.05
902.29	226.07
902.60	226.02
902.90	226.00
903.21	226.00
903.51	226.02
903.82	226.06
904.12	226.06
904.43	226.08
904.73	226.07
905.03	226.11
905.34	226.20
905.64	226.17
905.95	226.19
906.25	226.18
906.56	226.19
906.86	226.17
907.17	226.17
907.47	226.15
907.77	226.13
908.08	226.12
908.38	226.12
908.69	226.07
908.99	226.15
909.30	226.15
909.60	226.15
909.90	226.15
910.21	226.13
910.51	226.12
910.81	226.13
911.12	226.13
911.42	226.12
911.73	226.03
912.03	226.05
912.33	226.04
912.64	226.04
912.94	226.03
913.24	226.00
913.55	225.99
913.85	226.02
914.15	226.05
914.46	226.06
914.76	226.02
915.06	226.08
915.37	226.05
915.67	226.04
915.97	226.01
916.27	225.99
916.58	225.97
916.88	225.96
917.18	225.93
917.49	226.00
917.79	226.02
918.09	226.04
918.39	226.02
918.70	226.01
919.00	226.02
919.30	226.04
919.60	226.07
919.91	226.05
920.21	226.02
920.51	226.00
920.81	225.98
921.12	226.00
921.42	225.95
921.72	225.93
922.02	225.95
922.32	225.98
922.63	226.00
922.93	226.03
923.23	226.02
923.53	226.02
923.83	225.97
924.13	225.93
924.44	225.90
924.74	225.91
925.04	225.94
925.34	225.92
925.64	225.89
925.94	225.90
926.24	225.95
926.55	225.92
926.85	225.90
927.15	225.94
927.45	225.94
927.75	225.96
928.05	225.97
928.35	225.93
928.65	225.94
928.95	225.93
929.26	225.92
929.56	225.94
929.86	225.96
930.16	225.95
930.46	225.92
930.76	225.97
931.06	225.97
931.36	225.97
931.66	225.98
931.96	225.99
932.26	225.99
932.56	225.95
932.86	225.98
933.16	226.01
933.46	225.98
933.76	225.96
934.06	225.94
934.36	226.02
934.66	226.05
934.96	226.02
935.26	226.01
935.56	226.03
935.86	226.01
936.16	226.00
936.46	226.00
936.76	226.05
937.06	226.04
937.36	226.03
937.66	226.03
937.96	226.01
938.26	225.99
938.56	225.99
938.86	225.98
939.16	225.99
939.46	226.02
939.76	226.04
940.06	226.06
940.35	226.07
940.65	226.00
940.95	226.02
941.25	225.98
941.55	225.94
941.85	225.92
942.15	225.93
942.45	226.02
942.75	225.99
943.04	225.99
943.34	225.97
943.64	225.93
943.94	225.91
944.24	225.93
944.54	225.99
944.84	225.98
945.13	225.99
945.43	225.99
945.73	225.97
946.03	225.95
946.33	225.95
946.62	225.90
946.92	225.89
947.22	225.89
947.52	225.92
947.82	225.95
948.11	225.91
948.41	225.92
948.71	225.85
949.01	225.88
949.31	225.87
949.60	225.90
949.90	225.94
950.20	225.92
950.50	225.90
950.79	225.88
951.09	225.91
951.39	225.88
951.69	225.87
951.98	225.90
952.28	225.88
952.58	225.89
952.87	225.91
953.17	225.92
953.47	225.91
953.76	225.91
954.06	225.92
954.36	225.95
954.66	225.95
954.95	225.96
955.25	225.98
955.55	225.99
955.84	225.98
956.14	225.97
956.44	225.97
956.73	225.98
957.03	226.00
957.32	226.01
957.62	226.03
957.92	226.10
958.21	226.08
958.51	226.22
958.81	226.24
959.10	226.24
959.40	226.29
959.69	226.31
959.99	226.30
960.29	226.34
960.58	226.33
960.88	226.35
961.17	226.36
961.47	226.37
961.76	226.34
962.06	226.36
962.36	226.39
962.65	226.37
962.95	226.38
963.24	226.35
963.54	226.33
963.83	226.36
964.13	226.31
964.42	226.26
964.72	226.22
965.01	226.20
965.31	226.22
965.60	226.17
965.90	226.22
966.19	226.22
966.49	226.21
966.78	226.21
967.08	226.21
967.37	226.17
967.67	226.15
967.96	226.20
968.26	226.16
968.55	226.15
968.85	226.20
969.14	226.22
969.43	226.19
969.73	226.21
970.02	226.20
970.32	226.18
970.61	226.18
970.91	226.13
971.20	226.11
971.49	226.07
971.79	226.08
972.08	226.00
972.38	226.01
972.67	225.96
972.96	226.01
973.26	225.99
973.55	226.00
973.85	226.00
974.14	225.94
974.43	225.98
974.73	225.92
975.02	225.89
975.31	225.85
975.61	225.88
975.90	225.85
976.19	225.83
976.49	225.86
976.78	225.89
977.07	225.90
977.37	225.91
977.66	225.90
977.95	225.88
978.24	225.91
978.54	225.93
978.83	225.92
979.12	225.86
979.42	225.83
979.71	225.83
980.00	225.80
980.29	225.83
980.59	225.76
980.88	225.83
981.17	225.85
981.46	225.85
981.76	225.85
982.05	225.86
982.34	225.85
982.63	225.85
982.93	225.84
983.22	225.84
983.51	225.87
983.80	225.92
984.09	225.95
984.39	225.93
984.68	225.90
984.97	225.91
985.26	225.94
985.55	225.98
985.85	225.95
986.14	226.01
986.43	226.00
986.72	226.06
987.01	226.02
987.30	226.04
987.59	226.03
987.89	226.06
988.18	226.05
988.47	226.05
988.76	226.03
989.05	226.02
989.34	226.01
989.63	226.00
989.92	225.99
990.22	225.98
990.51	225.96
990.80	225.98
991.09	226.02
991.38	225.99
991.67	225.98
991.96	225.99
992.25	226.00
992.54	226.00
992.83	226.00
993.12	225.98
993.41	225.95
993.70	226.01
993.99	226.01
994.28	226.01
994.58	226.06
994.87	226.05
995.16	226.06
995.45	226.04
995.74	226.01
996.03	226.00
996.32	226.01
996.61	226.03
996.90	226.00
997.19	226.00
997.48	226.05
997.77	226.00
998.06	226.02
998.34	225.98
998.63	225.95
998.92	225.96
999.21	225.97
999.50	225.99
999.79	225.94
1000.08	225.91
1000.37	225.93
1000.66	225.90
1000.95	225.91
1001.24	225.88
1001.53	225.90
1001.82	225.90
1002.11	225.85
1002.40	225.85
1002.68	225.89
1002.97	225.95
1003.26	225.93
1003.55	225.89
1003.84	225.91
1004.13	225.95
1004.42	225.96
1004.71	225.98
1004.99	225.96
1005.28	226.00
1005.57	225.98
1005.86	225.95
1006.15	225.96
1006.44	225.92
1006.72	225.95
1007.01	225.94
1007.30	225.96
1007.59	225.95
1007.88	225.98
1008.17	226.01
1008.45	225.99
1008.74	225.95
1009.03	225.92
1009.32	225.96
1009.60	225.93
1009.89	225.94
1010.18	225.89
1010.47	225.85
1010.76	225.84
1011.04	225.86
1011.33	225.83
1011.62	225.86
1011.91	225.89
1012.19	225.87
1012.48	225.85
1012.77	225.82
1013.05	225.88
1013.34	225.86
1013.63	225.84
1013.92	225.82
1014.20	225.80
1014.49	225.79
1014.78	225.78
1015.06	225.77
1015.35	225.75
1015.64	225.79
1015.92	225.79
1016.21	225.80
1016.50	225.84
1016.78	225.83
1017.07	225.85
1017.36	225.83
1017.64	225.78
1017.93	225.79
1018.22	225.77
1018.50	225.80
1018.79	225.82
1019.08	225.74
1019.36	225.79
1019.65	225.78
1019.93	225.80
1020.22	225.84
1020.51	225.88
1020.79	225.88
1021.08	225.28
1021.36	225.84
1021.65	226.13
1021.94	225.40
1022.22	226.37
1022.51	225.45
1022.79	226.14
1023.08	225.99
1023.36	226.53
1023.65	225.50
>>>>>End Processed Spectral Data<<<<<
