SpectraSuite Data File
++++++++++++++++++++++++++++++++++++
Date: Fri Feb 01 17:54:50 EST 2013
User: group
Dark Spectrum Present: No
Reference Spectrum Present: No
Number of Sampled Component Spectra: 1
Spectrometers: USB2E7196
Integration Time (usec): 35000 (USB2E7196)
Spectra Averaged: 100 (USB2E7196)
Boxcar Smoothing: 10 (USB2E7196)
Correct for Electrical Dark: No (USB2E7196)
Strobe/Lamp Enabled: No (USB2E7196)
Correct for Detector Non-linearity: No (USB2E7196)
Correct for Stray Light: No (USB2E7196)
Number of Pixels in Processed Spectrum: 2048
>>>>>Begin Processed Spectral Data<<<<<
339.09	0.00
339.48	212.65
339.86	214.31
340.24	215.68
340.63	216.75
341.01	219.68
341.39	219.81
341.78	221.41
342.16	221.86
342.54	222.81
342.93	211.23
343.31	221.89
343.69	222.39
344.07	222.85
344.46	223.29
344.84	223.73
345.22	223.97
345.60	224.19
345.99	224.33
346.37	224.47
346.75	224.54
347.13	224.58
347.52	224.61
347.90	224.67
348.28	224.69
348.66	224.75
349.05	224.71
349.43	224.74
349.81	224.75
350.19	224.76
350.57	224.81
350.96	224.89
351.34	224.96
351.72	225.06
352.10	225.14
352.48	225.19
352.87	225.19
353.25	225.25
353.63	225.33
354.01	225.38
354.39	225.45
354.77	225.54
355.15	225.66
355.54	225.74
355.92	225.81
356.30	225.87
356.68	225.97
357.06	226.07
357.44	226.12
357.82	226.19
358.20	226.27
358.58	226.33
358.97	226.38
359.35	226.47
359.73	226.57
360.11	226.60
360.49	226.66
360.87	226.73
361.25	226.79
361.63	226.85
362.01	226.92
362.39	226.95
362.77	226.99
363.15	227.03
363.53	227.05
363.91	227.08
364.29	227.08
364.67	227.01
365.05	227.07
365.43	227.12
365.81	227.16
366.19	227.24
366.57	227.26
366.95	227.29
367.33	227.28
367.71	227.26
368.09	227.32
368.47	227.32
368.85	227.28
369.23	227.30
369.61	227.27
369.99	227.30
370.37	227.30
370.75	227.33
371.13	227.30
371.51	227.26
371.89	227.24
372.27	227.26
372.65	227.24
373.03	227.15
373.41	227.12
373.78	227.04
374.16	226.91
374.54	226.85
374.92	226.79
375.30	226.73
375.68	226.67
376.06	226.60
376.44	226.51
376.82	226.46
377.19	226.39
377.57	226.32
377.95	226.19
378.33	226.14
378.71	226.02
379.09	225.95
379.47	225.92
379.84	225.85
380.22	225.75
380.60	225.70
380.98	225.65
381.36	225.56
381.73	225.51
382.11	225.49
382.49	225.43
382.87	225.36
383.25	225.34
383.62	225.41
384.00	225.33
384.38	225.33
384.76	225.32
385.13	225.28
385.51	225.26
385.89	225.23
386.27	225.18
386.64	225.16
387.02	225.10
387.40	225.05
387.78	225.00
388.15	224.96
388.53	224.93
388.91	224.91
389.29	224.89
389.66	224.87
390.04	224.81
390.42	224.81
390.79	224.80
391.17	224.77
391.55	224.65
391.92	224.69
392.30	224.65
392.68	224.60
393.05	224.57
393.43	224.59
393.81	224.61
394.18	224.59
394.56	224.61
394.94	224.65
395.31	224.65
395.69	224.70
396.06	224.76
396.44	224.78
396.82	224.80
397.19	224.84
397.57	224.87
397.95	224.96
398.32	224.95
398.70	225.00
399.07	225.04
399.45	225.09
399.82	225.11
400.20	225.17
400.58	225.23
400.95	225.30
401.33	225.39
401.70	225.55
402.08	225.65
402.45	225.72
402.83	225.85
403.20	225.99
403.58	226.11
403.95	226.22
404.33	226.38
404.71	226.50
405.08	226.69
405.46	226.85
405.83	227.02
406.21	227.19
406.58	227.38
406.96	227.57
407.33	227.78
407.70	228.02
408.08	228.32
408.45	228.61
408.83	228.87
409.20	229.10
409.58	229.34
409.95	229.68
410.33	230.04
410.70	230.33
411.08	230.67
411.45	231.04
411.82	231.42
412.20	231.85
412.57	232.39
412.95	232.80
413.32	233.30
413.69	233.79
414.07	234.39
414.44	234.99
414.82	235.62
415.19	236.29
415.56	237.01
415.94	237.76
416.31	238.57
416.68	239.40
417.06	240.34
417.43	241.22
417.81	242.21
418.18	243.20
418.55	244.29
418.93	245.47
419.30	246.66
419.67	247.91
420.04	249.16
420.42	250.48
420.79	252.05
421.16	253.59
421.54	255.16
421.91	256.76
422.28	258.44
422.66	260.17
423.03	261.91
423.40	263.66
423.77	265.52
424.15	267.46
424.52	269.46
424.89	271.59
425.26	273.65
425.64	275.61
426.01	277.77
426.38	280.01
426.75	282.22
427.13	284.54
427.50	286.92
427.87	289.46
428.24	291.95
428.61	294.28
428.99	296.88
429.36	299.70
429.73	302.47
430.10	305.15
430.47	307.89
430.85	310.73
431.22	313.73
431.59	316.86
431.96	319.84
432.33	323.11
432.70	326.30
433.08	330.04
433.45	333.53
433.82	336.99
434.19	340.83
434.56	344.55
434.93	348.04
435.30	351.58
435.68	355.38
436.05	359.11
436.42	362.79
436.79	366.13
437.16	369.74
437.53	373.50
437.90	377.28
438.27	380.93
438.64	384.72
439.01	388.16
439.38	391.17
439.75	394.06
440.13	397.40
440.50	400.52
440.87	402.97
441.24	405.56
441.61	408.50
441.98	410.49
442.35	412.95
442.72	415.43
443.09	417.83
443.46	419.19
443.83	420.04
444.20	420.77
444.57	421.91
444.94	422.31
445.31	422.79
445.68	423.25
446.05	423.46
446.42	422.99
446.79	422.47
447.16	421.96
447.53	421.55
447.90	420.04
448.27	418.56
448.64	416.53
449.01	415.05
449.37	412.43
449.74	409.90
450.11	406.89
450.48	403.66
450.85	400.29
451.22	397.45
451.59	394.74
451.96	392.18
452.33	388.72
452.70	385.61
453.07	381.87
453.43	378.02
453.80	374.26
454.17	370.69
454.54	367.30
454.91	363.63
455.28	360.09
455.65	356.80
456.02	353.44
456.38	350.54
456.75	346.96
457.12	343.91
457.49	340.97
457.86	338.07
458.23	335.55
458.59	332.82
458.96	330.01
459.33	327.52
459.70	325.01
460.07	322.93
460.43	320.61
460.80	318.43
461.17	316.49
461.54	314.50
461.91	312.54
462.27	310.57
462.64	308.90
463.01	307.06
463.38	305.28
463.74	303.47
464.11	301.87
464.48	300.48
464.85	298.98
465.21	297.77
465.58	296.50
465.95	295.04
466.32	293.80
466.68	292.61
467.05	291.41
467.42	290.19
467.78	288.94
468.15	287.72
468.52	286.79
468.88	285.63
469.25	284.60
469.62	283.74
469.98	282.81
470.35	281.94
470.72	281.09
471.08	280.20
471.45	279.47
471.82	278.74
472.18	277.93
472.55	277.31
472.92	276.60
473.28	275.96
473.65	275.35
474.02	274.73
474.38	274.18
474.75	273.72
475.11	273.22
475.48	272.87
475.85	272.53
476.21	272.12
476.58	271.81
476.94	271.56
477.31	271.29
477.67	271.02
478.04	270.81
478.41	270.66
478.77	270.62
479.14	270.44
479.50	270.39
479.87	270.39
480.23	270.40
480.60	270.41
480.96	270.46
481.33	270.59
481.69	270.75
482.06	270.90
482.42	271.05
482.79	271.28
483.15	271.55
483.52	271.92
483.88	272.28
484.25	272.67
484.61	273.06
484.98	273.49
485.34	274.08
485.71	274.63
486.07	275.25
486.44	275.80
486.80	276.51
487.17	277.20
487.53	278.04
487.90	278.94
488.26	279.90
488.62	280.88
488.99	281.90
489.35	283.00
489.72	284.15
490.08	285.38
490.44	286.65
490.81	288.00
491.17	289.40
491.54	290.93
491.90	292.54
492.26	294.27
492.63	296.09
492.99	297.94
493.36	299.97
493.72	302.09
494.08	304.35
494.45	306.76
494.81	309.27
495.17	311.80
495.54	314.51
495.90	317.36
496.26	320.35
496.63	323.47
496.99	326.73
497.35	330.17
497.72	333.78
498.08	337.51
498.44	341.43
498.80	345.58
499.17	349.83
499.53	354.20
499.89	358.88
500.26	363.65
500.62	368.57
500.98	373.81
501.34	379.19
501.71	384.83
502.07	390.57
502.43	396.54
502.79	402.70
503.16	409.16
503.52	415.75
503.88	422.51
504.24	429.57
504.60	436.83
504.97	444.35
505.33	452.10
505.69	460.29
506.05	468.53
506.41	476.88
506.78	485.55
507.14	494.52
507.50	503.75
507.86	513.34
508.22	523.08
508.59	532.86
508.95	542.97
509.31	553.41
509.67	564.18
510.03	575.08
510.39	586.38
510.75	597.83
511.12	609.51
511.48	621.58
511.84	633.81
512.20	646.17
512.56	658.90
512.92	671.93
513.28	685.22
513.64	698.54
514.00	712.28
514.37	726.19
514.73	740.17
515.09	754.13
515.45	768.36
515.81	782.99
516.17	797.96
516.53	813.19
516.89	828.45
517.25	843.70
517.61	859.34
517.97	874.89
518.33	890.39
518.69	906.37
519.05	922.48
519.41	938.83
519.77	955.53
520.13	972.32
520.49	988.97
520.85	1005.62
521.21	1022.57
521.57	1040.12
521.93	1057.16
522.29	1075.06
522.65	1092.75
523.01	1110.41
523.37	1127.95
523.73	1145.70
524.09	1163.33
524.45	1181.14
524.81	1199.23
525.17	1217.48
525.53	1236.02
525.89	1254.65
526.25	1273.14
526.61	1291.15
526.97	1309.65
527.33	1327.90
527.68	1346.15
528.04	1364.35
528.40	1382.58
528.76	1401.53
529.12	1419.74
529.48	1438.60
529.84	1456.24
530.20	1474.63
530.56	1493.46
530.91	1512.76
531.27	1531.30
531.63	1549.66
531.99	1568.24
532.35	1586.23
532.71	1604.12
533.07	1622.34
533.42	1640.21
533.78	1658.26
534.14	1676.63
534.50	1693.91
534.86	1711.78
535.21	1729.03
535.57	1746.91
535.93	1764.48
536.29	1781.18
536.65	1798.38
537.00	1815.07
537.36	1832.64
537.72	1849.25
538.08	1865.81
538.44	1881.57
538.79	1897.58
539.15	1913.17
539.51	1928.76
539.87	1945.26
540.22	1960.99
540.58	1976.83
540.94	1992.11
541.29	2006.98
541.65	2021.68
542.01	2037.07
542.37	2051.48
542.72	2065.97
543.08	2080.08
543.44	2094.71
543.79	2108.17
544.15	2121.30
544.51	2135.00
544.87	2147.98
545.22	2160.98
545.58	2173.20
545.94	2185.07
546.29	2197.07
546.65	2209.19
547.01	2220.74
547.36	2231.39
547.72	2242.06
548.07	2252.14
548.43	2262.18
548.79	2271.96
549.14	2281.59
549.50	2290.66
549.86	2300.14
550.21	2309.30
550.57	2318.32
550.92	2326.85
551.28	2335.75
551.64	2344.72
551.99	2353.16
552.35	2361.15
552.70	2369.19
553.06	2377.08
553.41	2385.22
553.77	2392.89
554.13	2400.61
554.48	2408.51
554.84	2415.87
555.19	2422.67
555.55	2429.41
555.90	2435.66
556.26	2442.69
556.61	2448.95
556.97	2455.15
557.32	2461.06
557.68	2466.85
558.03	2472.61
558.39	2477.62
558.74	2483.72
559.10	2489.12
559.45	2494.11
559.81	2499.77
560.16	2505.00
560.52	2509.80
560.87	2514.52
561.23	2518.55
561.58	2522.72
561.94	2526.60
562.29	2530.01
562.64	2534.24
563.00	2538.03
563.35	2542.97
563.71	2547.33
564.06	2551.75
564.42	2555.89
564.77	2559.68
565.12	2563.26
565.48	2566.42
565.83	2569.51
566.19	2572.19
566.54	2574.01
566.89	2576.39
567.25	2578.14
567.60	2580.30
567.96	2583.04
568.31	2584.91
568.66	2587.05
569.02	2588.66
569.37	2589.73
569.72	2591.67
570.08	2592.48
570.43	2593.16
570.78	2593.39
571.14	2592.21
571.49	2591.48
571.84	2591.52
572.20	2590.86
572.55	2590.36
572.90	2589.18
573.26	2588.23
573.61	2586.69
573.96	2585.50
574.31	2582.88
574.67	2580.09
575.02	2576.58
575.37	2573.24
575.72	2569.75
576.08	2566.43
576.43	2562.89
576.78	2559.52
577.13	2556.25
577.49	2553.04
577.84	2549.84
578.19	2545.85
578.54	2542.48
578.90	2538.47
579.25	2532.75
579.60	2527.71
579.95	2522.43
580.30	2517.23
580.66	2511.95
581.01	2506.76
581.36	2501.40
581.71	2497.06
582.06	2492.64
582.42	2488.14
582.77	2482.56
583.12	2477.58
583.47	2472.72
583.82	2467.72
584.17	2461.93
584.53	2456.10
584.88	2450.19
585.23	2443.88
585.58	2437.85
585.93	2431.76
586.28	2426.15
586.63	2420.73
586.98	2415.04
587.34	2409.77
587.69	2404.31
588.04	2398.65
588.39	2392.45
588.74	2385.26
589.09	2378.15
589.44	2370.49
589.79	2363.60
590.14	2357.33
590.49	2349.92
590.84	2342.72
591.19	2335.99
591.54	2328.82
591.89	2320.80
592.25	2313.45
592.60	2305.46
592.95	2297.16
593.30	2288.84
593.65	2280.38
594.00	2272.34
594.35	2264.13
594.70	2255.11
595.05	2247.16
595.40	2238.62
595.75	2230.15
596.10	2223.25
596.45	2215.81
596.80	2208.86
597.15	2201.47
597.50	2193.54
597.85	2186.20
598.19	2178.71
598.54	2170.82
598.89	2163.21
599.24	2156.27
599.59	2148.64
599.94	2141.30
600.29	2133.98
600.64	2126.44
600.99	2118.02
601.34	2110.28
601.69	2102.33
602.04	2094.57
602.39	2085.96
602.74	2078.19
603.08	2070.46
603.43	2062.64
603.78	2054.10
604.13	2045.68
604.48	2037.59
604.83	2029.63
605.18	2021.91
605.53	2012.68
605.87	2003.38
606.22	1994.89
606.57	1985.64
606.92	1976.92
607.27	1968.79
607.62	1960.88
607.96	1952.62
608.31	1945.17
608.66	1936.35
609.01	1927.60
609.36	1918.80
609.70	1909.69
610.05	1900.44
610.40	1891.60
610.75	1882.03
611.10	1873.35
611.44	1863.54
611.79	1853.93
612.14	1843.87
612.49	1833.02
612.83	1823.09
613.18	1813.47
613.53	1804.17
613.88	1794.37
614.22	1784.70
614.57	1774.47
614.92	1765.03
615.27	1756.22
615.61	1746.41
615.96	1736.99
616.31	1728.11
616.65	1719.39
617.00	1710.45
617.35	1701.38
617.70	1691.69
618.04	1681.71
618.39	1671.95
618.74	1663.19
619.08	1653.54
619.43	1644.56
619.78	1636.35
620.12	1628.13
620.47	1619.28
620.82	1609.55
621.16	1600.60
621.51	1591.67
621.85	1582.80
622.20	1572.88
622.55	1563.02
622.89	1553.77
623.24	1544.68
623.59	1535.84
623.93	1527.13
624.28	1518.70
624.62	1510.01
624.97	1501.53
625.32	1493.49
625.66	1485.19
626.01	1476.69
626.35	1468.06
626.70	1459.04
627.04	1450.18
627.39	1440.96
627.73	1432.35
628.08	1424.25
628.43	1416.03
628.77	1407.55
629.12	1398.68
629.46	1390.35
629.81	1381.47
630.15	1373.06
630.50	1364.53
630.84	1355.08
631.19	1345.72
631.53	1336.82
631.88	1327.83
632.22	1318.93
632.57	1310.38
632.91	1301.60
633.26	1292.90
633.60	1284.17
633.95	1275.72
634.29	1267.37
634.64	1259.57
634.98	1251.07
635.32	1242.84
635.67	1234.95
636.01	1227.11
636.36	1219.37
636.70	1211.66
637.05	1204.09
637.39	1196.51
637.73	1189.07
638.08	1182.16
638.42	1175.27
638.77	1167.83
639.11	1160.36
639.45	1152.84
639.80	1145.13
640.14	1137.71
640.49	1130.30
640.83	1123.05
641.17	1115.96
641.52	1108.62
641.86	1101.18
642.20	1094.39
642.55	1087.00
642.89	1079.56
643.23	1071.91
643.58	1065.17
643.92	1058.04
644.26	1051.14
644.61	1044.08
644.95	1037.06
645.29	1029.53
645.64	1021.73
645.98	1014.38
646.32	1007.46
646.66	1000.60
647.01	993.86
647.35	987.38
647.69	980.50
648.04	974.01
648.38	967.30
648.72	960.47
649.06	953.53
649.41	946.58
649.75	939.72
650.09	932.95
650.43	926.29
650.78	919.15
651.12	912.27
651.46	905.64
651.80	899.09
652.14	892.86
652.49	886.71
652.83	880.70
653.17	874.34
653.51	867.84
653.85	861.58
654.20	855.19
654.54	848.22
654.88	841.62
655.22	834.87
655.56	828.27
655.90	821.98
656.25	815.90
656.59	809.81
656.93	804.02
657.27	798.15
657.61	791.96
657.95	786.14
658.29	780.34
658.64	774.21
658.98	768.06
659.32	761.76
659.66	755.81
660.00	749.76
660.34	743.99
660.68	738.29
661.02	732.48
661.36	727.14
661.70	722.00
662.05	716.98
662.39	712.04
662.73	706.96
663.07	701.90
663.41	696.85
663.75	691.82
664.09	686.54
664.43	681.34
664.77	676.60
665.11	671.67
665.45	666.88
665.79	662.34
666.13	657.72
666.47	653.03
666.81	648.31
667.15	643.60
667.49	639.08
667.83	634.65
668.17	630.20
668.51	625.50
668.85	620.82
669.19	616.32
669.53	611.92
669.87	607.47
670.21	603.17
670.55	598.96
670.89	594.92
671.23	591.01
671.57	587.00
671.91	582.98
672.25	578.94
672.58	574.94
672.92	571.01
673.26	567.27
673.60	563.65
673.94	560.04
674.28	556.69
674.62	553.30
674.96	549.76
675.30	546.45
675.64	543.10
675.97	539.84
676.31	536.62
676.65	533.25
676.99	530.15
677.33	526.90
677.67	523.69
678.01	520.25
678.34	516.85
678.68	513.55
679.02	510.31
679.36	507.21
679.70	504.06
680.04	500.89
680.37	497.65
680.71	494.41
681.05	491.38
681.39	488.21
681.73	485.19
682.06	482.36
682.40	479.43
682.74	476.53
683.08	473.63
683.42	470.62
683.75	467.76
684.09	464.78
684.43	461.95
684.77	459.10
685.10	456.40
685.44	453.73
685.78	451.09
686.12	448.48
686.45	445.82
686.79	443.16
687.13	440.65
687.46	438.14
687.80	435.67
688.14	433.06
688.48	430.73
688.81	428.13
689.15	425.62
689.49	423.11
689.82	420.69
690.16	418.27
690.50	416.00
690.83	413.79
691.17	411.50
691.51	409.29
691.84	407.20
692.18	405.06
692.52	402.85
692.85	400.61
693.19	398.47
693.52	396.31
693.86	394.30
694.20	392.18
694.53	390.12
694.87	387.98
695.21	385.93
695.54	383.75
695.88	381.77
696.21	379.80
696.55	377.85
696.88	375.90
697.22	374.00
697.56	372.16
697.89	370.26
698.23	368.47
698.56	366.61
698.90	364.77
699.23	362.82
699.57	361.00
699.90	359.20
700.24	357.39
700.58	355.65
700.91	353.93
701.25	352.29
701.58	350.70
701.92	349.18
702.25	347.62
702.59	346.11
702.92	344.59
703.26	343.08
703.59	341.65
703.93	340.29
704.26	338.89
704.60	337.39
704.93	335.91
705.26	334.46
705.60	333.09
705.93	331.76
706.27	330.55
706.60	329.32
706.94	328.08
707.27	326.80
707.61	325.55
707.94	324.28
708.27	322.99
708.61	321.72
708.94	320.49
709.28	319.31
709.61	318.19
709.94	317.07
710.28	315.87
710.61	314.70
710.95	313.43
711.28	312.35
711.61	311.26
711.95	310.19
712.28	309.11
712.61	307.99
712.95	306.86
713.28	305.80
713.61	304.73
713.95	303.68
714.28	302.71
714.61	301.72
714.95	300.76
715.28	299.77
715.61	298.76
715.95	297.79
716.28	296.78
716.61	295.77
716.95	294.82
717.28	293.99
717.61	293.10
717.94	292.28
718.28	291.31
718.61	290.45
718.94	289.66
719.27	288.88
719.61	288.11
719.94	287.35
720.27	286.52
720.60	285.77
720.94	285.05
721.27	284.37
721.60	283.68
721.93	283.02
722.27	282.41
722.60	281.78
722.93	281.11
723.26	280.50
723.59	279.90
723.93	279.29
724.26	278.62
724.59	277.93
724.92	277.28
725.25	276.74
725.59	276.13
725.92	275.49
726.25	274.89
726.58	274.34
726.91	273.75
727.24	273.23
727.57	272.65
727.91	272.11
728.24	271.56
728.57	271.00
728.90	270.44
729.23	269.87
729.56	269.37
729.89	268.81
730.22	268.23
730.55	267.68
730.89	267.17
731.22	266.64
731.55	266.17
731.88	265.70
732.21	265.24
732.54	264.76
732.87	264.33
733.20	263.86
733.53	263.41
733.86	263.01
734.19	262.57
734.52	262.13
734.85	261.72
735.18	261.27
735.51	260.88
735.84	260.46
736.17	260.01
736.50	259.58
736.83	259.34
737.16	259.00
737.49	258.62
737.82	258.21
738.15	257.86
738.48	257.47
738.81	257.10
739.14	256.73
739.47	256.40
739.80	256.01
740.13	255.68
740.46	255.29
740.79	254.90
741.12	254.53
741.45	254.21
741.78	253.82
742.11	253.48
742.44	253.12
742.77	252.77
743.10	252.44
743.43	252.08
743.75	251.67
744.08	251.45
744.41	251.13
744.74	250.84
745.07	250.51
745.40	250.24
745.73	250.01
746.06	249.69
746.39	249.37
746.71	249.06
747.04	248.74
747.37	248.47
747.70	248.19
748.03	247.91
748.36	247.62
748.68	247.38
749.01	247.07
749.34	246.78
749.67	246.53
750.00	246.27
750.33	246.09
750.65	245.81
750.98	245.43
751.31	245.18
751.64	244.92
751.97	244.70
752.29	244.43
752.62	244.10
752.95	243.85
753.28	243.58
753.60	243.34
753.93	243.11
754.26	242.87
754.59	242.59
754.91	242.33
755.24	242.12
755.57	241.88
755.90	241.69
756.22	241.48
756.55	241.24
756.88	241.04
757.20	240.74
757.53	240.53
757.86	240.34
758.19	240.15
758.51	239.99
758.84	239.76
759.17	239.57
759.49	239.40
759.82	239.25
760.15	239.09
760.47	238.95
760.80	238.78
761.13	238.63
761.45	238.49
761.78	238.34
762.11	238.16
762.43	238.02
762.76	237.82
763.08	237.69
763.41	237.53
763.74	237.38
764.06	237.25
764.39	237.11
764.71	236.88
765.04	236.73
765.37	236.53
765.69	236.38
766.02	236.22
766.34	236.05
766.67	235.86
767.00	235.74
767.32	235.65
767.65	235.54
767.97	235.37
768.30	235.21
768.62	235.09
768.95	234.97
769.27	234.79
769.60	234.71
769.92	234.55
770.25	234.41
770.57	234.25
770.90	234.13
771.22	233.99
771.55	233.94
771.87	233.86
772.20	233.76
772.52	233.75
772.85	233.75
773.17	233.66
773.50	233.56
773.82	233.44
774.15	233.27
774.47	233.10
774.80	232.98
775.12	232.90
775.45	232.82
775.77	232.74
776.09	232.70
776.42	232.59
776.74	232.52
777.07	232.42
777.39	232.39
777.72	232.29
778.04	232.22
778.36	232.16
778.69	232.07
779.01	232.01
779.33	231.82
779.66	231.67
779.98	231.58
780.31	231.53
780.63	231.50
780.95	231.46
781.28	231.41
781.60	231.37
781.92	231.31
782.25	231.21
782.57	231.14
782.89	231.07
783.22	231.00
783.54	230.92
783.86	230.89
784.19	230.80
784.51	230.78
784.83	230.69
785.16	230.63
785.48	230.59
785.80	230.55
786.12	230.53
786.45	230.45
786.77	230.38
787.09	230.31
787.42	230.22
787.74	230.15
788.06	230.11
788.38	230.03
788.71	229.96
789.03	229.94
789.35	229.92
789.67	229.85
789.99	229.81
790.32	229.75
790.64	229.69
790.96	229.68
791.28	229.60
791.61	229.55
791.93	229.50
792.25	229.38
792.57	229.40
792.89	229.31
793.21	229.29
793.54	229.22
793.86	229.14
794.18	229.08
794.50	229.02
794.82	228.94
795.14	228.92
795.47	228.91
795.79	228.81
796.11	228.69
796.43	228.63
796.75	228.56
797.07	228.53
797.39	228.50
797.71	228.39
798.04	228.36
798.36	228.31
798.68	228.24
799.00	228.23
799.32	228.09
799.64	228.09
799.96	228.04
800.28	228.03
800.60	228.02
800.92	227.97
801.24	227.89
801.56	227.89
801.89	227.84
802.21	227.80
802.53	227.77
802.85	227.78
803.17	227.78
803.49	227.73
803.81	227.70
804.13	227.65
804.45	227.61
804.77	227.56
805.09	227.53
805.41	227.50
805.73	227.42
806.05	227.38
806.37	227.35
806.69	227.32
807.01	227.30
807.33	227.28
807.65	227.26
807.97	227.33
808.28	227.30
808.60	227.30
808.92	227.20
809.24	227.21
809.56	227.18
809.88	227.16
810.20	227.15
810.52	227.13
810.84	227.08
811.16	227.08
811.48	227.06
811.80	227.11
812.12	227.08
812.43	227.12
812.75	227.11
813.07	227.06
813.39	227.09
813.71	227.04
814.03	227.00
814.35	226.97
814.67	226.92
814.98	226.90
815.30	226.86
815.62	226.88
815.94	226.83
816.26	226.83
816.58	226.77
816.89	226.75
817.21	226.71
817.53	226.71
817.85	226.74
818.17	226.74
818.48	226.67
818.80	226.68
819.12	226.67
819.44	226.63
819.76	226.62
820.07	226.55
820.39	226.54
820.71	226.56
821.03	226.57
821.34	226.55
821.66	226.52
821.98	226.52
822.30	226.52
822.61	226.56
822.93	226.51
823.25	226.53
823.57	226.54
823.88	226.54
824.20	226.52
824.52	226.47
824.83	226.46
825.15	226.45
825.47	226.43
825.79	226.39
826.10	226.39
826.42	226.38
826.74	226.39
827.05	226.41
827.37	226.38
827.69	226.33
828.00	226.29
828.32	226.28
828.64	226.23
828.95	226.25
829.27	226.19
829.58	226.18
829.90	226.17
830.22	226.13
830.53	226.08
830.85	226.06
831.17	225.99
831.48	225.94
831.80	225.91
832.11	225.90
832.43	225.88
832.75	225.88
833.06	225.92
833.38	225.87
833.69	225.84
834.01	225.86
834.32	225.82
834.64	225.80
834.96	225.77
835.27	225.75
835.59	225.73
835.90	225.68
836.22	225.66
836.53	225.63
836.85	225.61
837.16	225.73
837.48	225.71
837.79	225.74
838.11	225.73
838.42	225.73
838.74	225.72
839.05	225.66
839.37	225.61
839.68	225.52
840.00	225.52
840.31	225.52
840.63	225.49
840.94	225.49
841.26	225.45
841.57	225.45
841.88	225.44
842.20	225.39
842.51	225.39
842.83	225.40
843.14	225.48
843.46	225.49
843.77	225.44
844.08	225.43
844.40	225.41
844.71	225.41
845.03	225.40
845.34	225.40
845.65	225.41
845.97	225.41
846.28	225.41
846.60	225.40
846.91	225.36
847.22	225.36
847.54	225.36
847.85	225.39
848.16	225.42
848.48	225.43
848.79	225.48
849.10	225.48
849.42	225.48
849.73	225.38
850.04	225.37
850.36	225.27
850.67	225.30
850.98	225.30
851.30	225.33
851.61	225.31
851.92	225.31
852.23	225.36
852.55	225.37
852.86	225.36
853.17	225.38
853.49	225.42
853.80	225.42
854.11	225.44
854.42	225.46
854.74	225.44
855.05	225.43
855.36	225.41
855.67	225.44
855.99	225.43
856.30	225.55
856.61	225.55
856.92	225.59
857.23	225.59
857.55	225.55
857.86	225.52
858.17	225.55
858.48	225.50
858.79	225.48
859.11	225.47
859.42	225.48
859.73	225.46
860.04	225.42
860.35	225.38
860.66	225.34
860.98	225.32
861.29	225.31
861.60	225.30
861.91	225.30
862.22	225.26
862.53	225.25
862.84	225.11
863.16	225.15
863.47	225.12
863.78	225.12
864.09	225.14
864.40	225.16
864.71	225.17
865.02	225.20
865.33	225.21
865.64	225.18
865.95	225.17
866.27	225.23
866.58	225.24
866.89	225.26
867.20	225.26
867.51	225.24
867.82	225.25
868.13	225.27
868.44	225.25
868.75	225.24
869.06	225.25
869.37	225.25
869.68	225.19
869.99	225.21
870.30	225.19
870.61	225.18
870.92	225.13
871.23	225.10
871.54	225.08
871.85	225.07
872.16	225.09
872.47	225.07
872.78	224.99
873.09	224.98
873.40	224.94
873.71	224.95
874.02	224.95
874.33	224.91
874.64	224.88
874.95	224.87
875.26	224.85
875.56	224.82
875.87	224.82
876.18	224.79
876.49	224.87
876.80	224.89
877.11	224.88
877.42	224.87
877.73	224.86
878.04	224.86
878.35	224.87
878.66	224.84
878.96	224.84
879.27	224.85
879.58	224.87
879.89	224.87
880.20	224.87
880.51	224.88
880.82	224.89
881.12	224.92
881.43	224.90
881.74	224.88
882.05	224.89
882.36	224.87
882.67	224.88
882.97	224.79
883.28	224.76
883.59	224.75
883.90	224.79
884.21	224.81
884.51	224.82
884.82	224.76
885.13	224.78
885.44	224.78
885.74	224.76
886.05	224.73
886.36	224.75
886.67	224.75
886.98	224.79
887.28	224.79
887.59	224.77
887.90	224.79
888.20	224.83
888.51	224.84
888.82	224.86
889.13	224.90
889.43	224.98
889.74	224.99
890.05	224.98
890.35	224.97
890.66	224.94
890.97	224.91
891.28	224.95
891.58	224.97
891.89	224.99
892.20	224.99
892.50	224.99
892.81	224.99
893.12	224.95
893.42	224.91
893.73	224.91
894.04	224.91
894.34	224.89
894.65	224.88
894.95	224.85
895.26	224.88
895.57	224.91
895.87	224.86
896.18	224.88
896.48	224.91
896.79	224.93
897.10	224.93
897.40	224.95
897.71	224.96
898.01	224.92
898.32	224.95
898.63	224.94
898.93	224.97
899.24	224.97
899.54	225.02
899.85	225.02
900.15	225.03
900.46	225.07
900.76	225.11
901.07	225.12
901.38	225.13
901.68	225.14
901.99	225.08
902.29	225.08
902.60	225.05
902.90	225.03
903.21	225.01
903.51	225.02
903.82	225.06
904.12	225.03
904.43	225.06
904.73	225.04
905.03	225.04
905.34	225.12
905.64	225.08
905.95	225.07
906.25	225.05
906.56	225.07
906.86	225.03
907.17	225.04
907.47	225.03
907.77	225.01
908.08	224.97
908.38	224.99
908.69	224.96
908.99	224.98
909.30	225.00
909.60	224.97
909.90	224.94
910.21	224.90
910.51	224.92
910.81	224.92
911.12	224.93
911.42	224.93
911.73	224.82
912.03	224.86
912.33	224.85
912.64	224.85
912.94	224.81
913.24	224.81
913.55	224.77
913.85	224.75
914.15	224.78
914.46	224.77
914.76	224.74
915.06	224.78
915.37	224.74
915.67	224.71
915.97	224.72
916.27	224.70
916.58	224.71
916.88	224.69
917.18	224.65
917.49	224.68
917.79	224.70
918.09	224.70
918.39	224.74
918.70	224.73
919.00	224.74
919.30	224.77
919.60	224.75
919.91	224.77
920.21	224.78
920.51	224.76
920.81	224.76
921.12	224.78
921.42	224.73
921.72	224.76
922.02	224.76
922.32	224.79
922.63	224.80
922.93	224.81
923.23	224.87
923.53	224.86
923.83	224.80
924.13	224.80
924.44	224.78
924.74	224.75
925.04	224.75
925.34	224.74
925.64	224.72
925.94	224.72
926.24	224.77
926.55	224.74
926.85	224.72
927.15	224.73
927.45	224.71
927.75	224.72
928.05	224.71
928.35	224.70
928.65	224.74
928.95	224.75
929.26	224.72
929.56	224.71
929.86	224.73
930.16	224.73
930.46	224.73
930.76	224.72
931.06	224.70
931.36	224.67
931.66	224.68
931.96	224.70
932.26	224.73
932.56	224.66
932.86	224.68
933.16	224.71
933.46	224.72
933.76	224.72
934.06	224.76
934.36	224.81
934.66	224.81
934.96	224.77
935.26	224.79
935.56	224.80
935.86	224.78
936.16	224.78
936.46	224.80
936.76	224.80
937.06	224.83
937.36	224.82
937.66	224.86
937.96	224.86
938.26	224.82
938.56	224.84
938.86	224.89
939.16	224.89
939.46	224.90
939.76	224.91
940.06	224.93
940.35	224.90
940.65	224.85
940.95	224.89
941.25	224.86
941.55	224.84
941.85	224.84
942.15	224.86
942.45	224.88
942.75	224.86
943.04	224.87
943.34	224.86
943.64	224.87
943.94	224.83
944.24	224.83
944.54	224.83
944.84	224.82
945.13	224.78
945.43	224.77
945.73	224.75
946.03	224.71
946.33	224.67
946.62	224.65
946.92	224.61
947.22	224.60
947.52	224.60
947.82	224.61
948.11	224.59
948.41	224.54
948.71	224.47
949.01	224.45
949.31	224.45
949.60	224.43
949.90	224.47
950.20	224.48
950.50	224.46
950.79	224.45
951.09	224.47
951.39	224.43
951.69	224.43
951.98	224.45
952.28	224.44
952.58	224.42
952.87	224.41
953.17	224.43
953.47	224.41
953.76	224.39
954.06	224.36
954.36	224.35
954.66	224.36
954.95	224.42
955.25	224.42
955.55	224.40
955.84	224.39
956.14	224.39
956.44	224.38
956.73	224.35
957.03	224.35
957.32	224.32
957.62	224.33
957.92	224.34
958.21	224.31
958.51	224.41
958.81	224.44
959.10	224.47
959.40	224.49
959.69	224.50
959.99	224.51
960.29	224.49
960.58	224.49
960.88	224.54
961.17	224.49
961.47	224.49
961.76	224.47
962.06	224.51
962.36	224.50
962.65	224.50
962.95	224.54
963.24	224.53
963.54	224.52
963.83	224.50
964.13	224.47
964.42	224.44
964.72	224.38
965.01	224.39
965.31	224.38
965.60	224.34
965.90	224.39
966.19	224.38
966.49	224.39
966.78	224.39
967.08	224.37
967.37	224.41
967.67	224.44
967.96	224.45
968.26	224.42
968.55	224.41
968.85	224.40
969.14	224.38
969.43	224.38
969.73	224.39
970.02	224.41
970.32	224.40
970.61	224.41
970.91	224.36
971.20	224.36
971.49	224.33
971.79	224.37
972.08	224.32
972.38	224.34
972.67	224.36
972.96	224.40
973.26	224.37
973.55	224.39
973.85	224.36
974.14	224.38
974.43	224.43
974.73	224.42
975.02	224.45
975.31	224.46
975.61	224.49
975.90	224.49
976.19	224.49
976.49	224.51
976.78	224.50
977.07	224.52
977.37	224.53
977.66	224.55
977.95	224.55
978.24	224.58
978.54	224.60
978.83	224.59
979.12	224.56
979.42	224.59
979.71	224.60
980.00	224.59
980.29	224.62
980.59	224.58
980.88	224.60
981.17	224.57
981.46	224.58
981.76	224.58
982.05	224.59
982.34	224.62
982.63	224.67
982.93	224.69
983.22	224.74
983.51	224.75
983.80	224.74
984.09	224.74
984.39	224.71
984.68	224.70
984.97	224.68
985.26	224.64
985.55	224.63
985.85	224.57
986.14	224.59
986.43	224.57
986.72	224.57
987.01	224.53
987.30	224.55
987.59	224.54
987.89	224.51
988.18	224.49
988.47	224.46
988.76	224.40
989.05	224.37
989.34	224.36
989.63	224.38
989.92	224.37
990.22	224.37
990.51	224.36
990.80	224.35
991.09	224.37
991.38	224.42
991.67	224.41
991.96	224.40
992.25	224.42
992.54	224.40
992.83	224.38
993.12	224.38
993.41	224.42
993.70	224.45
993.99	224.47
994.28	224.49
994.58	224.49
994.87	224.50
995.16	224.52
995.45	224.50
995.74	224.47
996.03	224.50
996.32	224.51
996.61	224.51
996.90	224.49
997.19	224.49
997.48	224.45
997.77	224.44
998.06	224.46
998.34	224.43
998.63	224.43
998.92	224.44
999.21	224.45
999.50	224.41
999.79	224.38
1000.08	224.39
1000.37	224.42
1000.66	224.39
1000.95	224.40
1001.24	224.42
1001.53	224.42
1001.82	224.40
1002.11	224.37
1002.40	224.37
1002.68	224.39
1002.97	224.47
1003.26	224.46
1003.55	224.44
1003.84	224.45
1004.13	224.49
1004.42	224.47
1004.71	224.44
1004.99	224.47
1005.28	224.50
1005.57	224.48
1005.86	224.44
1006.15	224.41
1006.44	224.38
1006.72	224.43
1007.01	224.42
1007.30	224.43
1007.59	224.43
1007.88	224.43
1008.17	224.47
1008.45	224.44
1008.74	224.45
1009.03	224.41
1009.32	224.41
1009.60	224.45
1009.89	224.44
1010.18	224.42
1010.47	224.45
1010.76	224.47
1011.04	224.49
1011.33	224.53
1011.62	224.55
1011.91	224.60
1012.19	224.65
1012.48	224.68
1012.77	224.66
1013.05	224.71
1013.34	224.70
1013.63	224.69
1013.92	224.72
1014.20	224.70
1014.49	224.70
1014.78	224.70
1015.06	224.64
1015.35	224.64
1015.64	224.64
1015.92	224.69
1016.21	224.67
1016.50	224.69
1016.78	224.73
1017.07	224.71
1017.36	224.68
1017.64	224.66
1017.93	224.65
1018.22	224.64
1018.50	224.61
1018.79	224.63
1019.08	224.54
1019.36	224.54
1019.65	224.55
1019.93	224.55
1020.22	224.55
1020.51	224.63
1020.79	224.62
1021.08	224.65
1021.36	224.20
1021.65	225.19
1021.94	223.92
1022.22	224.50
1022.51	224.48
1022.79	224.87
1023.08	224.31
1023.36	226.13
1023.65	224.30
>>>>>End Processed Spectral Data<<<<<
