SpectraSuite Data File
++++++++++++++++++++++++++++++++++++
Date: Fri Feb 01 17:45:54 EST 2013
User: group
Dark Spectrum Present: No
Reference Spectrum Present: No
Number of Sampled Component Spectra: 1
Spectrometers: USB2E7196
Integration Time (usec): 35000 (USB2E7196)
Spectra Averaged: 100 (USB2E7196)
Boxcar Smoothing: 10 (USB2E7196)
Correct for Electrical Dark: No (USB2E7196)
Strobe/Lamp Enabled: No (USB2E7196)
Correct for Detector Non-linearity: No (USB2E7196)
Correct for Stray Light: No (USB2E7196)
Number of Pixels in Processed Spectrum: 2048
>>>>>Begin Processed Spectral Data<<<<<
339.09	0.00
339.48	212.82
339.86	214.15
340.24	215.65
340.63	216.93
341.01	219.60
341.39	218.99
341.78	221.20
342.16	222.10
342.54	222.75
342.93	211.03
343.31	221.68
343.69	222.20
344.07	222.65
344.46	223.03
344.84	223.42
345.22	223.67
345.60	223.94
345.99	224.12
346.37	224.25
346.75	224.34
347.13	224.38
347.52	224.44
347.90	224.54
348.28	224.59
348.66	224.64
349.05	224.63
349.43	224.67
349.81	224.73
350.19	224.82
350.57	224.87
350.96	224.93
351.34	225.00
351.72	225.07
352.10	225.22
352.48	225.30
352.87	225.33
353.25	225.38
353.63	225.45
354.01	225.52
354.39	225.59
354.77	225.65
355.15	225.77
355.54	225.82
355.92	225.85
356.30	225.86
356.68	226.01
357.06	226.10
357.44	226.15
357.82	226.20
358.20	226.24
358.58	226.34
358.97	226.41
359.35	226.52
359.73	226.61
360.11	226.63
360.49	226.68
360.87	226.76
361.25	226.80
361.63	226.89
362.01	226.94
362.39	226.95
362.77	227.00
363.15	227.04
363.53	227.08
363.91	227.11
364.29	227.18
364.67	227.09
365.05	227.10
365.43	227.14
365.81	227.17
366.19	227.23
366.57	227.28
366.95	227.27
367.33	227.22
367.71	227.23
368.09	227.24
368.47	227.25
368.85	227.23
369.23	227.25
369.61	227.17
369.99	227.18
370.37	227.21
370.75	227.24
371.13	227.20
371.51	227.15
371.89	227.15
372.27	227.11
372.65	227.08
373.03	227.03
373.41	226.96
373.78	226.91
374.16	226.82
374.54	226.71
374.92	226.67
375.30	226.64
375.68	226.57
376.06	226.53
376.44	226.46
376.82	226.38
377.19	226.33
377.57	226.32
377.95	226.20
378.33	226.13
378.71	226.02
379.09	225.97
379.47	225.91
379.84	225.84
380.22	225.76
380.60	225.68
380.98	225.63
381.36	225.56
381.73	225.48
382.11	225.43
382.49	225.39
382.87	225.32
383.25	225.29
383.62	225.37
384.00	225.26
384.38	225.23
384.76	225.22
385.13	225.18
385.51	225.12
385.89	225.08
386.27	225.02
386.64	224.99
387.02	224.92
387.40	224.89
387.78	224.84
388.15	224.83
388.53	224.83
388.91	224.78
389.29	224.78
389.66	224.78
390.04	224.75
390.42	224.74
390.79	224.72
391.17	224.67
391.55	224.51
391.92	224.53
392.30	224.53
392.68	224.50
393.05	224.48
393.43	224.50
393.81	224.51
394.18	224.52
394.56	224.50
394.94	224.56
395.31	224.55
395.69	224.61
396.06	224.64
396.44	224.65
396.82	224.66
397.19	224.72
397.57	224.75
397.95	224.82
398.32	224.84
398.70	224.88
399.07	224.96
399.45	225.03
399.82	225.10
400.20	225.19
400.58	225.29
400.95	225.32
401.33	225.41
401.70	225.54
402.08	225.65
402.45	225.77
402.83	225.88
403.20	226.01
403.58	226.11
403.95	226.23
404.33	226.38
404.71	226.53
405.08	226.74
405.46	226.89
405.83	227.04
406.21	227.21
406.58	227.40
406.96	227.59
407.33	227.80
407.70	228.01
408.08	228.27
408.45	228.48
408.83	228.76
409.20	228.97
409.58	229.20
409.95	229.49
410.33	229.76
410.70	230.07
411.08	230.43
411.45	230.76
411.82	231.14
412.20	231.54
412.57	232.04
412.95	232.38
413.32	232.86
413.69	233.37
414.07	233.91
414.44	234.49
414.82	235.07
415.19	235.74
415.56	236.43
415.94	237.10
416.31	237.94
416.68	238.72
417.06	239.59
417.43	240.45
417.81	241.39
418.18	242.42
418.55	243.46
418.93	244.57
419.30	245.70
419.67	246.89
420.04	248.11
420.42	249.37
420.79	250.85
421.16	252.30
421.54	253.75
421.91	255.29
422.28	256.87
422.66	258.56
423.03	260.17
423.40	261.85
423.77	263.64
424.15	265.41
424.52	267.31
424.89	269.38
425.26	271.34
425.64	273.19
426.01	275.16
426.38	277.25
426.75	279.37
427.13	281.59
427.50	283.86
427.87	286.19
428.24	288.55
428.61	290.76
428.99	293.22
429.36	295.92
429.73	298.50
430.10	301.05
430.47	303.65
430.85	306.39
431.22	309.23
431.59	312.23
431.96	315.07
432.33	318.22
432.70	321.20
433.08	324.75
433.45	328.06
433.82	331.37
434.19	335.02
434.56	338.54
434.93	341.87
435.30	345.20
435.68	348.84
436.05	352.44
436.42	356.00
436.79	359.19
437.16	362.54
437.53	366.15
437.90	369.73
438.27	373.21
438.64	376.75
439.01	380.04
439.38	382.84
439.75	385.55
440.13	388.72
440.50	391.64
440.87	393.98
441.24	396.48
441.61	399.23
441.98	401.11
442.35	403.41
442.72	405.77
443.09	408.06
443.46	409.36
443.83	410.11
444.20	410.71
444.57	411.81
444.94	412.26
445.31	412.65
445.68	413.06
446.05	413.18
446.42	412.73
446.79	412.20
447.16	411.66
447.53	411.32
447.90	409.85
448.27	408.45
448.64	406.45
449.01	405.04
449.37	402.52
449.74	400.15
450.11	397.31
450.48	394.22
450.85	390.99
451.22	388.28
451.59	385.72
451.96	383.29
452.33	380.00
452.70	377.03
453.07	373.49
453.43	369.85
453.80	366.34
454.17	362.98
454.54	359.73
454.91	356.29
455.28	352.86
455.65	349.72
456.02	346.56
456.38	343.82
456.75	340.41
457.12	337.56
457.49	334.72
457.86	331.93
458.23	329.55
458.59	326.96
458.96	324.35
459.33	322.00
459.70	319.65
460.07	317.73
460.43	315.49
460.80	313.39
461.17	311.60
461.54	309.67
461.91	307.79
462.27	305.94
462.64	304.36
463.01	302.64
463.38	300.96
463.74	299.26
464.11	297.78
464.48	296.46
464.85	295.06
465.21	293.95
465.58	292.80
465.95	291.41
466.32	290.28
466.68	289.11
467.05	287.95
467.42	286.79
467.78	285.54
468.15	284.43
468.52	283.62
468.88	282.51
469.25	281.54
469.62	280.74
469.98	279.90
470.35	279.08
470.72	278.35
471.08	277.55
471.45	276.83
471.82	276.13
472.18	275.35
472.55	274.77
472.92	274.11
473.28	273.52
473.65	272.95
474.02	272.33
474.38	271.86
474.75	271.43
475.11	271.01
475.48	270.69
475.85	270.39
476.21	270.08
476.58	269.82
476.94	269.59
477.31	269.36
477.67	269.11
478.04	268.98
478.41	268.87
478.77	268.87
479.14	268.77
479.50	268.73
479.87	268.78
480.23	268.82
480.60	268.91
480.96	268.93
481.33	269.12
481.69	269.31
482.06	269.45
482.42	269.62
482.79	269.85
483.15	270.18
483.52	270.54
483.88	270.86
484.25	271.22
484.61	271.65
484.98	272.11
485.34	272.69
485.71	273.26
486.07	273.85
486.44	274.37
486.80	275.08
487.17	275.82
487.53	276.71
487.90	277.59
488.26	278.47
488.62	279.51
488.99	280.49
489.35	281.53
489.72	282.69
490.08	283.92
490.44	285.15
490.81	286.49
491.17	287.89
491.54	289.39
491.90	290.99
492.26	292.69
492.63	294.44
492.99	296.25
493.36	298.21
493.72	300.32
494.08	302.49
494.45	304.83
494.81	307.29
495.17	309.71
495.54	312.35
495.90	315.12
496.26	317.99
496.63	321.02
496.99	324.21
497.35	327.60
497.72	331.08
498.08	334.78
498.44	338.62
498.80	342.64
499.17	346.83
499.53	351.17
499.89	355.69
500.26	360.36
500.62	365.17
500.98	370.30
501.34	375.54
501.71	381.10
502.07	386.70
502.43	392.54
502.79	398.66
503.16	404.94
503.52	411.46
503.88	418.13
504.24	425.04
504.60	432.22
504.97	439.69
505.33	447.37
505.69	455.34
506.05	463.43
506.41	471.66
506.78	480.16
507.14	488.94
507.50	498.00
507.86	507.42
508.22	517.01
508.59	526.61
508.95	536.57
509.31	546.78
509.67	557.37
510.03	568.13
510.39	579.12
510.75	590.45
511.12	601.86
511.48	613.64
511.84	625.66
512.20	637.75
512.56	650.24
512.92	662.97
513.28	675.96
513.64	689.01
514.00	702.35
514.37	715.99
514.73	729.71
515.09	743.37
515.45	757.41
515.81	771.75
516.17	786.50
516.53	801.46
516.89	816.47
517.25	831.40
517.61	846.60
517.97	861.83
518.33	877.07
518.69	892.68
519.05	908.56
519.41	924.56
519.77	941.01
520.13	957.41
520.49	973.70
520.85	989.98
521.21	1006.61
521.57	1023.86
521.93	1040.50
522.29	1057.92
522.65	1075.34
523.01	1092.49
523.37	1109.62
523.73	1126.86
524.09	1143.99
524.45	1161.37
524.81	1179.11
525.17	1196.91
525.53	1215.09
525.89	1233.05
526.25	1251.15
526.61	1268.67
526.97	1286.71
527.33	1304.47
527.68	1322.18
528.04	1340.00
528.40	1357.75
528.76	1376.18
529.12	1394.05
529.48	1412.43
529.84	1429.61
530.20	1447.52
530.56	1465.90
530.91	1484.63
531.27	1502.80
531.63	1520.68
531.99	1538.60
532.35	1555.95
532.71	1573.51
533.07	1591.11
533.42	1608.57
533.78	1626.11
534.14	1643.87
534.50	1660.69
534.86	1677.87
535.21	1694.64
535.57	1712.00
535.93	1729.16
536.29	1745.41
536.65	1762.00
537.00	1778.05
537.36	1795.18
537.72	1811.18
538.08	1827.29
538.44	1842.72
538.79	1858.18
539.15	1873.27
539.51	1888.56
539.87	1904.48
540.22	1919.64
540.58	1935.00
540.94	1949.80
541.29	1964.14
541.65	1978.40
542.01	1993.15
542.37	2007.27
542.72	2021.22
543.08	2034.77
543.44	2048.84
543.79	2061.74
544.15	2074.25
544.51	2087.56
544.87	2099.99
545.22	2112.50
545.58	2124.20
545.94	2135.47
546.29	2147.04
546.65	2158.56
547.01	2169.65
547.36	2180.08
547.72	2190.20
548.07	2199.81
548.43	2209.63
548.79	2219.03
549.14	2228.31
549.50	2237.19
549.86	2246.18
550.21	2254.91
550.57	2263.43
550.92	2271.45
551.28	2280.09
551.64	2288.80
551.99	2296.84
552.35	2304.59
552.70	2312.10
553.06	2319.55
553.41	2327.34
553.77	2334.52
554.13	2342.02
554.48	2349.41
554.84	2356.37
555.19	2362.92
555.55	2369.39
555.90	2375.24
556.26	2381.78
556.61	2387.54
556.97	2393.35
557.32	2399.06
557.68	2404.63
558.03	2410.26
558.39	2415.11
558.74	2420.96
559.10	2426.07
559.45	2430.95
559.81	2436.33
560.16	2441.39
560.52	2445.96
560.87	2450.49
561.23	2454.27
561.58	2458.30
561.94	2461.90
562.29	2465.05
562.64	2469.13
563.00	2472.61
563.35	2477.28
563.71	2481.44
564.06	2485.74
564.42	2489.51
564.77	2493.00
565.12	2496.44
565.48	2499.30
565.83	2502.32
566.19	2504.81
566.54	2506.45
566.89	2508.52
567.25	2509.98
567.60	2512.09
567.96	2514.70
568.31	2516.46
568.66	2518.52
569.02	2520.02
569.37	2521.18
569.72	2523.04
570.08	2523.67
570.43	2524.40
570.78	2524.50
571.14	2523.40
571.49	2522.64
571.84	2522.78
572.20	2522.12
572.55	2521.46
572.90	2520.24
573.26	2519.32
573.61	2517.54
573.96	2516.44
574.31	2513.86
574.67	2511.13
575.02	2507.74
575.37	2504.42
575.72	2500.91
576.08	2497.45
576.43	2494.02
576.78	2490.58
577.13	2487.38
577.49	2484.27
577.84	2481.05
578.19	2477.25
578.54	2473.78
578.90	2469.90
579.25	2464.25
579.60	2459.23
579.95	2454.16
580.30	2449.06
580.66	2443.71
581.01	2438.65
581.36	2433.34
581.71	2429.09
582.06	2424.70
582.42	2420.22
582.77	2414.88
583.12	2410.06
583.47	2405.52
583.82	2400.58
584.17	2395.04
584.53	2389.34
584.88	2383.59
585.23	2377.49
585.58	2371.60
585.93	2365.90
586.28	2360.42
586.63	2355.32
586.98	2349.95
587.34	2344.88
587.69	2339.61
588.04	2334.06
588.39	2328.30
588.74	2321.32
589.09	2314.63
589.44	2307.29
589.79	2300.44
590.14	2294.18
590.49	2287.02
590.84	2279.94
591.19	2273.41
591.54	2266.37
591.89	2258.56
592.25	2251.30
592.60	2243.57
592.95	2235.60
593.30	2227.47
593.65	2219.21
594.00	2211.37
594.35	2203.40
594.70	2194.54
595.05	2186.93
595.40	2178.84
595.75	2170.45
596.10	2163.92
596.45	2156.64
596.80	2149.79
597.15	2142.85
597.50	2135.37
597.85	2128.16
598.19	2120.98
598.54	2113.25
598.89	2106.02
599.24	2099.21
599.59	2092.04
599.94	2084.98
600.29	2077.85
600.64	2070.51
600.99	2062.46
601.34	2054.82
601.69	2047.02
602.04	2039.47
602.39	2031.08
602.74	2023.52
603.08	2016.03
603.43	2008.30
603.78	2000.09
604.13	1992.06
604.48	1984.01
604.83	1976.28
605.18	1968.90
605.53	1960.12
605.87	1951.08
606.22	1942.82
606.57	1933.97
606.92	1925.30
607.27	1917.44
607.62	1909.72
607.96	1901.72
608.31	1894.42
608.66	1886.06
609.01	1877.63
609.36	1869.24
609.70	1860.31
610.05	1851.24
610.40	1842.65
610.75	1833.49
611.10	1824.97
611.44	1815.41
611.79	1806.29
612.14	1796.44
612.49	1785.98
612.83	1776.27
613.18	1767.09
613.53	1757.83
613.88	1748.45
614.22	1739.23
614.57	1729.21
614.92	1720.18
615.27	1711.79
615.61	1702.41
615.96	1693.28
616.31	1684.64
616.65	1676.23
617.00	1667.71
617.35	1659.13
617.70	1649.73
618.04	1640.08
618.39	1630.41
618.74	1621.95
619.08	1612.54
619.43	1603.93
619.78	1595.88
620.12	1587.88
620.47	1579.39
620.82	1570.10
621.16	1561.46
621.51	1552.74
621.85	1544.10
622.20	1534.38
622.55	1524.65
622.89	1515.65
623.24	1506.95
623.59	1498.47
623.93	1489.84
624.28	1481.50
624.62	1472.84
624.97	1464.61
625.32	1456.73
625.66	1448.83
626.01	1440.69
626.35	1432.42
626.70	1423.54
627.04	1414.98
627.39	1406.18
627.73	1397.75
628.08	1390.15
628.43	1382.02
628.77	1373.86
629.12	1365.40
629.46	1357.15
629.81	1348.69
630.15	1340.34
630.50	1331.93
630.84	1322.73
631.19	1313.72
631.53	1305.27
631.88	1296.74
632.22	1288.16
632.57	1279.84
632.91	1271.35
633.26	1262.97
633.60	1254.37
633.95	1246.32
634.29	1238.17
634.64	1230.51
634.98	1222.19
635.32	1214.00
635.67	1206.46
636.01	1198.86
636.36	1191.27
636.70	1184.01
637.05	1176.67
637.39	1169.46
637.73	1162.01
638.08	1155.33
638.42	1148.55
638.77	1141.27
639.11	1134.01
639.45	1126.86
639.80	1119.43
640.14	1112.28
640.49	1104.91
640.83	1097.94
641.17	1091.05
641.52	1084.08
641.86	1076.78
642.20	1070.27
642.55	1063.12
642.89	1055.86
643.23	1048.48
643.58	1041.92
643.92	1034.97
644.26	1028.23
644.61	1021.38
644.95	1014.79
645.29	1007.52
645.64	1000.03
645.98	992.93
646.32	986.12
646.66	979.29
647.01	972.78
647.35	966.34
647.69	959.72
648.04	953.42
648.38	946.90
648.72	940.16
649.06	933.49
649.41	926.79
649.75	920.23
650.09	913.50
650.43	907.00
650.78	900.10
651.12	893.43
651.46	886.97
651.80	880.69
652.14	874.55
652.49	868.56
652.83	862.81
653.17	856.61
653.51	850.36
653.85	844.29
654.20	838.08
654.54	831.38
654.88	825.05
655.22	818.50
655.56	812.17
655.90	805.95
656.25	800.07
656.59	794.16
656.93	788.35
657.27	782.61
657.61	776.55
657.95	770.80
658.29	765.11
658.64	759.24
658.98	753.24
659.32	747.11
659.66	741.27
660.00	735.42
660.34	729.82
660.68	724.32
661.02	718.70
661.36	713.49
661.70	708.50
662.05	703.58
662.39	698.76
662.73	693.72
663.07	688.94
663.41	683.98
663.75	678.96
664.09	673.89
664.43	669.03
664.77	664.47
665.11	659.85
665.45	655.22
665.79	650.69
666.13	646.10
666.47	641.64
666.81	637.03
667.15	632.32
667.49	627.91
667.83	623.59
668.17	619.26
668.51	614.69
668.85	610.13
669.19	605.80
669.53	601.61
669.87	597.33
670.21	593.18
670.55	589.16
670.89	585.32
671.23	581.53
671.57	577.63
671.91	573.67
672.25	569.70
672.58	565.76
672.92	561.93
673.26	558.39
673.60	554.80
673.94	551.32
674.28	548.08
674.62	544.80
674.96	541.38
675.30	538.11
675.64	534.90
675.97	531.79
676.31	528.60
676.65	525.28
676.99	522.20
677.33	518.99
677.67	515.76
678.01	512.37
678.34	509.07
678.68	505.79
679.02	502.69
679.36	499.62
679.70	496.60
680.04	493.50
680.37	490.30
680.71	487.18
681.05	484.24
681.39	481.23
681.73	478.25
682.06	475.45
682.40	472.59
682.74	469.70
683.08	466.85
683.42	463.94
683.75	461.15
684.09	458.29
684.43	455.50
684.77	452.70
685.10	450.03
685.44	447.36
685.78	444.80
686.12	442.25
686.45	439.64
686.79	437.10
687.13	434.64
687.46	432.15
687.80	429.71
688.14	427.20
688.48	424.88
688.81	422.40
689.15	419.96
689.49	417.53
689.82	415.21
690.16	412.87
690.50	410.70
690.83	408.53
691.17	406.31
691.51	404.18
691.84	402.15
692.18	400.05
692.52	397.89
692.85	395.70
693.19	393.58
693.52	391.51
693.86	389.41
694.20	387.36
694.53	385.41
694.87	383.35
695.21	381.35
695.54	379.25
695.88	377.32
696.21	375.38
696.55	373.51
696.88	371.60
697.22	369.72
697.56	367.87
697.89	365.98
698.23	364.20
698.56	362.40
698.90	360.63
699.23	358.78
699.57	357.05
699.90	355.37
700.24	353.66
700.58	351.99
700.91	350.38
701.25	348.80
701.58	347.28
701.92	345.81
702.25	344.29
702.59	342.86
702.92	341.40
703.26	339.93
703.59	338.52
703.93	337.23
704.26	335.90
704.60	334.45
704.93	333.06
705.26	331.66
705.60	330.36
705.93	329.08
706.27	327.97
706.60	326.79
706.94	325.56
707.27	324.31
707.61	323.09
707.94	321.90
708.27	320.66
708.61	319.45
708.94	318.27
709.28	317.14
709.61	316.03
709.94	314.91
710.28	313.78
710.61	312.66
710.95	311.45
711.28	310.42
711.61	309.38
711.95	308.35
712.28	307.36
712.61	306.27
712.95	305.19
713.28	304.15
713.61	303.15
713.95	302.15
714.28	301.21
714.61	300.25
714.95	299.30
715.28	298.33
715.61	297.30
715.95	296.37
716.28	295.43
716.61	294.46
716.95	293.52
717.28	292.67
717.61	291.80
717.94	290.99
718.28	290.06
718.61	289.22
718.94	288.40
719.27	287.62
719.61	286.86
719.94	286.08
720.27	285.29
720.60	284.53
720.94	283.81
721.27	283.12
721.60	282.46
721.93	281.76
722.27	281.14
722.60	280.59
722.93	279.88
723.26	279.27
723.59	278.66
723.93	278.08
724.26	277.42
724.59	276.75
724.92	276.13
725.25	275.58
725.59	274.96
725.92	274.39
726.25	273.81
726.58	273.23
726.91	272.67
727.24	272.12
727.57	271.56
727.91	270.97
728.24	270.43
728.57	269.90
728.90	269.39
729.23	268.83
729.56	268.29
729.89	267.77
730.22	267.18
730.55	266.65
730.89	266.12
731.22	265.64
731.55	265.15
731.88	264.64
732.21	264.12
732.54	263.67
732.87	263.18
733.20	262.71
733.53	262.28
733.86	261.86
734.19	261.42
734.52	261.00
734.85	260.63
735.18	260.19
735.51	259.74
735.84	259.27
736.17	258.90
736.50	258.43
736.83	258.16
737.16	257.85
737.49	257.46
737.82	257.04
738.15	256.66
738.48	256.30
738.81	255.94
739.14	255.59
739.47	255.24
739.80	254.89
740.13	254.55
740.46	254.16
740.79	253.83
741.12	253.46
741.45	253.15
741.78	252.77
742.11	252.46
742.44	252.11
742.77	251.82
743.10	251.48
743.43	251.19
743.75	250.78
744.08	250.59
744.41	250.29
744.74	250.01
745.07	249.71
745.40	249.43
745.73	249.17
746.06	248.87
746.39	248.59
746.71	248.32
747.04	248.01
747.37	247.75
747.70	247.46
748.03	247.21
748.36	246.92
748.68	246.69
749.01	246.42
749.34	246.17
749.67	245.95
750.00	245.67
750.33	245.49
750.65	245.23
750.98	244.89
751.31	244.64
751.64	244.41
751.97	244.23
752.29	244.02
752.62	243.73
752.95	243.50
753.28	243.26
753.60	242.99
753.93	242.79
754.26	242.58
754.59	242.32
754.91	242.07
755.24	241.84
755.57	241.60
755.90	241.40
756.22	241.17
756.55	240.94
756.88	240.73
757.20	240.46
757.53	240.23
757.86	240.02
758.19	239.84
758.51	239.66
758.84	239.42
759.17	239.20
759.49	239.05
759.82	238.87
760.15	238.72
760.47	238.59
760.80	238.39
761.13	238.25
761.45	238.10
761.78	237.98
762.11	237.83
762.43	237.67
762.76	237.49
763.08	237.36
763.41	237.19
763.74	237.02
764.06	236.91
764.39	236.79
764.71	236.63
765.04	236.47
765.37	236.33
765.69	236.16
766.02	236.01
766.34	235.86
766.67	235.69
767.00	235.52
767.32	235.41
767.65	235.35
767.97	235.20
768.30	235.05
768.62	234.87
768.95	234.71
769.27	234.60
769.60	234.46
769.92	234.34
770.25	234.20
770.57	234.09
770.90	233.93
771.22	233.80
771.55	233.67
771.87	233.56
772.20	233.45
772.52	233.42
772.85	233.41
773.17	233.27
773.50	233.17
773.82	233.08
774.15	232.96
774.47	232.77
774.80	232.65
775.12	232.56
775.45	232.44
775.77	232.40
776.09	232.29
776.42	232.20
776.74	232.12
777.07	232.02
777.39	231.94
777.72	231.85
778.04	231.77
778.36	231.67
778.69	231.57
779.01	231.47
779.33	231.32
779.66	231.15
779.98	231.10
780.31	231.01
780.63	230.97
780.95	230.88
781.28	230.81
781.60	230.74
781.92	230.67
782.25	230.62
782.57	230.53
782.89	230.44
783.22	230.38
783.54	230.30
783.86	230.27
784.19	230.17
784.51	230.15
784.83	230.10
785.16	230.04
785.48	229.97
785.80	229.94
786.12	229.92
786.45	229.89
786.77	229.84
787.09	229.81
787.42	229.74
787.74	229.68
788.06	229.61
788.38	229.58
788.71	229.55
789.03	229.53
789.35	229.55
789.67	229.51
789.99	229.48
790.32	229.43
790.64	229.38
790.96	229.47
791.28	229.40
791.61	229.34
791.93	229.34
792.25	229.32
792.57	229.33
792.89	229.26
793.21	229.24
793.54	229.23
793.86	229.20
794.18	229.17
794.50	229.15
794.82	229.14
795.14	229.09
795.47	229.07
795.79	229.02
796.11	228.94
796.43	228.94
796.75	228.93
797.07	228.91
797.39	228.92
797.71	228.81
798.04	228.78
798.36	228.76
798.68	228.74
799.00	228.71
799.32	228.63
799.64	228.62
799.96	228.57
800.28	228.54
800.60	228.48
800.92	228.47
801.24	228.41
801.56	228.41
801.89	228.39
802.21	228.36
802.53	228.33
802.85	228.31
803.17	228.31
803.49	228.24
803.81	228.22
804.13	228.16
804.45	228.10
804.77	228.06
805.09	228.03
805.41	227.98
805.73	227.97
806.05	227.93
806.37	227.89
806.69	227.85
807.01	227.81
807.33	227.80
807.65	227.73
807.97	227.77
808.28	227.71
808.60	227.67
808.92	227.64
809.24	227.71
809.56	227.67
809.88	227.59
810.20	227.54
810.52	227.51
810.84	227.47
811.16	227.43
811.48	227.39
811.80	227.38
812.12	227.31
812.43	227.30
812.75	227.27
813.07	227.24
813.39	227.19
813.71	227.14
814.03	227.10
814.35	227.06
814.67	226.98
814.98	226.94
815.30	226.89
815.62	226.83
815.94	226.70
816.26	226.69
816.58	226.62
816.89	226.62
817.21	226.58
817.53	226.54
817.85	226.53
818.17	226.50
818.48	226.43
818.80	226.45
819.12	226.37
819.44	226.32
819.76	226.26
820.07	226.27
820.39	226.27
820.71	226.24
821.03	226.24
821.34	226.21
821.66	226.19
821.98	226.18
822.30	226.14
822.61	226.18
822.93	226.14
823.25	226.11
823.57	226.08
823.88	226.12
824.20	226.09
824.52	226.08
824.83	226.07
825.15	226.07
825.47	226.02
825.79	226.01
826.10	225.99
826.42	226.01
826.74	225.99
827.05	225.96
827.37	225.95
827.69	225.93
828.00	225.94
828.32	225.91
828.64	225.89
828.95	225.95
829.27	225.89
829.58	225.87
829.90	225.93
830.22	225.94
830.53	225.88
830.85	225.90
831.17	225.90
831.48	225.88
831.80	225.89
832.11	225.93
832.43	225.95
832.75	225.98
833.06	226.04
833.38	225.98
833.69	225.98
834.01	226.00
834.32	225.98
834.64	225.96
834.96	225.99
835.27	226.01
835.59	225.97
835.90	225.96
836.22	225.95
836.53	225.92
836.85	225.89
837.16	225.98
837.48	225.98
837.79	226.01
838.11	226.02
838.42	226.00
838.74	225.99
839.05	226.00
839.37	226.00
839.68	225.90
840.00	225.91
840.31	225.89
840.63	225.86
840.94	225.85
841.26	225.84
841.57	225.82
841.88	225.79
842.20	225.77
842.51	225.77
842.83	225.80
843.14	225.83
843.46	225.83
843.77	225.76
844.08	225.76
844.40	225.74
844.71	225.73
845.03	225.75
845.34	225.69
845.65	225.65
845.97	225.61
846.28	225.63
846.60	225.63
846.91	225.62
847.22	225.61
847.54	225.62
847.85	225.63
848.16	225.61
848.48	225.60
848.79	225.63
849.10	225.64
849.42	225.64
849.73	225.56
850.04	225.55
850.36	225.50
850.67	225.47
850.98	225.43
851.30	225.43
851.61	225.36
851.92	225.37
852.23	225.39
852.55	225.37
852.86	225.33
853.17	225.34
853.49	225.33
853.80	225.36
854.11	225.34
854.42	225.33
854.74	225.31
855.05	225.29
855.36	225.26
855.67	225.22
855.99	225.16
856.30	225.25
856.61	225.25
856.92	225.23
857.23	225.18
857.55	225.18
857.86	225.14
858.17	225.18
858.48	225.14
858.79	225.12
859.11	225.12
859.42	225.14
859.73	225.11
860.04	225.12
860.35	225.06
860.66	225.02
860.98	224.99
861.29	224.98
861.60	224.97
861.91	224.94
862.22	224.93
862.53	224.95
862.84	224.81
863.16	224.82
863.47	224.81
863.78	224.80
864.09	224.83
864.40	224.82
864.71	224.84
865.02	224.85
865.33	224.83
865.64	224.81
865.95	224.79
866.27	224.83
866.58	224.79
866.89	224.78
867.20	224.78
867.51	224.78
867.82	224.79
868.13	224.83
868.44	224.85
868.75	224.90
869.06	224.87
869.37	224.91
869.68	224.86
869.99	224.87
870.30	224.89
870.61	224.90
870.92	224.91
871.23	224.86
871.54	224.87
871.85	224.89
872.16	224.92
872.47	224.92
872.78	224.88
873.09	224.89
873.40	224.93
873.71	224.95
874.02	224.97
874.33	224.98
874.64	224.95
874.95	224.95
875.26	224.90
875.56	224.93
875.87	224.94
876.18	224.98
876.49	225.10
876.80	225.14
877.11	225.11
877.42	225.12
877.73	225.15
878.04	225.16
878.35	225.16
878.66	225.15
878.96	225.15
879.27	225.13
879.58	225.12
879.89	225.13
880.20	225.13
880.51	225.12
880.82	225.13
881.12	225.16
881.43	225.15
881.74	225.15
882.05	225.14
882.36	225.11
882.67	225.10
882.97	225.00
883.28	224.96
883.59	224.92
883.90	224.92
884.21	224.94
884.51	224.92
884.82	224.92
885.13	224.92
885.44	224.92
885.74	224.93
886.05	224.91
886.36	224.86
886.67	224.83
886.98	224.89
887.28	224.90
887.59	224.83
887.90	224.83
888.20	224.82
888.51	224.82
888.82	224.84
889.13	224.83
889.43	224.90
889.74	224.86
890.05	224.89
890.35	224.89
890.66	224.84
890.97	224.85
891.28	224.81
891.58	224.79
891.89	224.77
892.20	224.76
892.50	224.78
892.81	224.77
893.12	224.75
893.42	224.67
893.73	224.65
894.04	224.68
894.34	224.68
894.65	224.67
894.95	224.63
895.26	224.62
895.57	224.65
895.87	224.56
896.18	224.59
896.48	224.58
896.79	224.53
897.10	224.52
897.40	224.50
897.71	224.53
898.01	224.53
898.32	224.52
898.63	224.54
898.93	224.54
899.24	224.54
899.54	224.56
899.85	224.54
900.15	224.53
900.46	224.49
900.76	224.50
901.07	224.49
901.38	224.49
901.68	224.48
901.99	224.44
902.29	224.45
902.60	224.47
902.90	224.45
903.21	224.46
903.51	224.48
903.82	224.49
904.12	224.51
904.43	224.52
904.73	224.55
905.03	224.55
905.34	224.63
905.64	224.65
905.95	224.63
906.25	224.65
906.56	224.66
906.86	224.72
907.17	224.72
907.47	224.72
907.77	224.74
908.08	224.74
908.38	224.75
908.69	224.78
908.99	224.78
909.30	224.80
909.60	224.83
909.90	224.85
910.21	224.83
910.51	224.81
910.81	224.80
911.12	224.78
911.42	224.79
911.73	224.70
912.03	224.71
912.33	224.77
912.64	224.78
912.94	224.79
913.24	224.71
913.55	224.72
913.85	224.75
914.15	224.78
914.46	224.80
914.76	224.82
915.06	224.77
915.37	224.75
915.67	224.76
915.97	224.73
916.27	224.72
916.58	224.73
916.88	224.73
917.18	224.76
917.49	224.86
917.79	224.84
918.09	224.88
918.39	224.93
918.70	224.90
919.00	224.89
919.30	224.96
919.60	224.97
919.91	224.96
920.21	224.95
920.51	224.93
920.81	224.94
921.12	224.97
921.42	224.99
921.72	225.02
922.02	225.02
922.32	225.05
922.63	225.05
922.93	225.09
923.23	225.11
923.53	225.09
923.83	225.00
924.13	225.02
924.44	225.03
924.74	225.01
925.04	225.03
925.34	225.03
925.64	224.94
925.94	224.96
926.24	225.00
926.55	224.97
926.85	224.98
927.15	225.01
927.45	224.96
927.75	224.95
928.05	224.93
928.35	224.91
928.65	224.93
928.95	224.94
929.26	224.92
929.56	224.94
929.86	224.95
930.16	224.96
930.46	224.95
930.76	224.93
931.06	224.86
931.36	224.85
931.66	224.88
931.96	224.91
932.26	224.91
932.56	224.87
932.86	224.91
933.16	224.91
933.46	224.85
933.76	224.83
934.06	224.86
934.36	224.89
934.66	224.83
934.96	224.80
935.26	224.76
935.56	224.76
935.86	224.71
936.16	224.67
936.46	224.64
936.76	224.63
937.06	224.61
937.36	224.65
937.66	224.59
937.96	224.58
938.26	224.55
938.56	224.55
938.86	224.53
939.16	224.53
939.46	224.50
939.76	224.52
940.06	224.53
940.35	224.50
940.65	224.44
940.95	224.51
941.25	224.48
941.55	224.49
941.85	224.46
942.15	224.51
942.45	224.51
942.75	224.52
943.04	224.51
943.34	224.54
943.64	224.53
943.94	224.53
944.24	224.51
944.54	224.49
944.84	224.47
945.13	224.46
945.43	224.43
945.73	224.41
946.03	224.39
946.33	224.38
946.62	224.37
946.92	224.38
947.22	224.32
947.52	224.32
947.82	224.33
948.11	224.35
948.41	224.32
948.71	224.30
949.01	224.28
949.31	224.31
949.60	224.29
949.90	224.30
950.20	224.31
950.50	224.33
950.79	224.36
951.09	224.38
951.39	224.38
951.69	224.37
951.98	224.42
952.28	224.42
952.58	224.40
952.87	224.38
953.17	224.41
953.47	224.45
953.76	224.48
954.06	224.46
954.36	224.40
954.66	224.40
954.95	224.42
955.25	224.43
955.55	224.44
955.84	224.42
956.14	224.46
956.44	224.46
956.73	224.44
957.03	224.44
957.32	224.44
957.62	224.43
957.92	224.46
958.21	224.44
958.51	224.53
958.81	224.58
959.10	224.60
959.40	224.59
959.69	224.59
959.99	224.62
960.29	224.58
960.58	224.62
960.88	224.63
961.17	224.64
961.47	224.65
961.76	224.63
962.06	224.63
962.36	224.59
962.65	224.61
962.95	224.59
963.24	224.60
963.54	224.59
963.83	224.62
964.13	224.59
964.42	224.58
964.72	224.49
965.01	224.47
965.31	224.46
965.60	224.44
965.90	224.49
966.19	224.46
966.49	224.46
966.78	224.43
967.08	224.46
967.37	224.46
967.67	224.43
967.96	224.46
968.26	224.48
968.55	224.48
968.85	224.46
969.14	224.47
969.43	224.45
969.73	224.44
970.02	224.42
970.32	224.43
970.61	224.44
970.91	224.42
971.20	224.39
971.49	224.37
971.79	224.40
972.08	224.32
972.38	224.31
972.67	224.35
972.96	224.38
973.26	224.36
973.55	224.39
973.85	224.38
974.14	224.34
974.43	224.34
974.73	224.32
975.02	224.30
975.31	224.29
975.61	224.28
975.90	224.28
976.19	224.27
976.49	224.31
976.78	224.30
977.07	224.32
977.37	224.37
977.66	224.42
977.95	224.41
978.24	224.43
978.54	224.44
978.83	224.43
979.12	224.44
979.42	224.43
979.71	224.39
980.00	224.40
980.29	224.41
980.59	224.40
980.88	224.45
981.17	224.46
981.46	224.49
981.76	224.50
982.05	224.54
982.34	224.57
982.63	224.56
982.93	224.52
983.22	224.56
983.51	224.56
983.80	224.56
984.09	224.56
984.39	224.57
984.68	224.58
984.97	224.57
985.26	224.57
985.55	224.57
985.85	224.55
986.14	224.57
986.43	224.60
986.72	224.60
987.01	224.56
987.30	224.57
987.59	224.57
987.89	224.56
988.18	224.53
988.47	224.53
988.76	224.53
989.05	224.52
989.34	224.50
989.63	224.51
989.92	224.47
990.22	224.45
990.51	224.43
990.80	224.41
991.09	224.42
991.38	224.40
991.67	224.37
991.96	224.39
992.25	224.40
992.54	224.35
992.83	224.35
993.12	224.31
993.41	224.28
993.70	224.30
993.99	224.33
994.28	224.32
994.58	224.34
994.87	224.30
995.16	224.35
995.45	224.31
995.74	224.27
996.03	224.28
996.32	224.27
996.61	224.29
996.90	224.29
997.19	224.29
997.48	224.33
997.77	224.33
998.06	224.35
998.34	224.31
998.63	224.33
998.92	224.32
999.21	224.35
999.50	224.38
999.79	224.36
1000.08	224.34
1000.37	224.36
1000.66	224.30
1000.95	224.34
1001.24	224.35
1001.53	224.37
1001.82	224.36
1002.11	224.36
1002.40	224.39
1002.68	224.40
1002.97	224.48
1003.26	224.45
1003.55	224.42
1003.84	224.41
1004.13	224.41
1004.42	224.43
1004.71	224.41
1004.99	224.42
1005.28	224.47
1005.57	224.47
1005.86	224.45
1006.15	224.43
1006.44	224.42
1006.72	224.45
1007.01	224.44
1007.30	224.39
1007.59	224.39
1007.88	224.42
1008.17	224.43
1008.45	224.40
1008.74	224.37
1009.03	224.33
1009.32	224.35
1009.60	224.32
1009.89	224.29
1010.18	224.26
1010.47	224.24
1010.76	224.26
1011.04	224.24
1011.33	224.25
1011.62	224.27
1011.91	224.27
1012.19	224.30
1012.48	224.29
1012.77	224.27
1013.05	224.32
1013.34	224.34
1013.63	224.34
1013.92	224.33
1014.20	224.28
1014.49	224.29
1014.78	224.30
1015.06	224.27
1015.35	224.25
1015.64	224.29
1015.92	224.32
1016.21	224.33
1016.50	224.33
1016.78	224.34
1017.07	224.36
1017.36	224.32
1017.64	224.28
1017.93	224.28
1018.22	224.26
1018.50	224.26
1018.79	224.28
1019.08	224.21
1019.36	224.20
1019.65	224.19
1019.93	224.20
1020.22	224.25
1020.51	224.31
1020.79	224.31
1021.08	224.07
1021.36	223.98
1021.65	224.60
1021.94	223.90
1022.22	223.92
1022.51	224.35
1022.79	224.39
1023.08	224.92
1023.36	225.48
1023.65	224.48
>>>>>End Processed Spectral Data<<<<<
