SpectraSuite Data File
++++++++++++++++++++++++++++++++++++
Date: Fri Feb 01 15:15:57 EST 2013
User: group
Dark Spectrum Present: No
Reference Spectrum Present: No
Number of Sampled Component Spectra: 1
Spectrometers: USB2E7196
Integration Time (usec): 35000 (USB2E7196)
Spectra Averaged: 100 (USB2E7196)
Boxcar Smoothing: 10 (USB2E7196)
Correct for Electrical Dark: No (USB2E7196)
Strobe/Lamp Enabled: No (USB2E7196)
Correct for Detector Non-linearity: No (USB2E7196)
Correct for Stray Light: No (USB2E7196)
Number of Pixels in Processed Spectrum: 2048
>>>>>Begin Processed Spectral Data<<<<<
339.09	0.00
339.48	215.11
339.86	216.86
340.24	217.56
340.63	219.47
341.01	222.48
341.39	221.82
341.78	223.12
342.16	224.80
342.54	225.28
342.93	213.45
343.31	224.21
343.69	224.74
344.07	225.18
344.46	225.65
344.84	226.03
345.22	226.25
345.60	226.50
345.99	226.70
346.37	226.81
346.75	226.89
347.13	226.97
347.52	227.05
347.90	227.13
348.28	227.16
348.66	227.21
349.05	227.19
349.43	227.25
349.81	227.29
350.19	227.31
350.57	227.37
350.96	227.46
351.34	227.58
351.72	227.68
352.10	227.77
352.48	227.80
352.87	227.85
353.25	227.94
353.63	228.02
354.01	228.05
354.39	228.11
354.77	228.22
355.15	228.29
355.54	228.30
355.92	228.30
356.30	228.37
356.68	228.49
357.06	228.58
357.44	228.62
357.82	228.67
358.20	228.74
358.58	228.81
358.97	228.86
359.35	228.90
359.73	228.95
360.11	229.00
360.49	229.06
360.87	229.08
361.25	229.12
361.63	229.18
362.01	229.21
362.39	229.23
362.77	229.23
363.15	229.26
363.53	229.31
363.91	229.33
364.29	229.36
364.67	229.30
365.05	229.31
365.43	229.29
365.81	229.30
366.19	229.36
366.57	229.40
366.95	229.40
367.33	229.36
367.71	229.36
368.09	229.39
368.47	229.36
368.85	229.30
369.23	229.30
369.61	229.24
369.99	229.30
370.37	229.30
370.75	229.31
371.13	229.25
371.51	229.19
371.89	229.17
372.27	229.13
372.65	229.05
373.03	228.98
373.41	228.95
373.78	228.90
374.16	228.76
374.54	228.67
374.92	228.58
375.30	228.53
375.68	228.44
376.06	228.39
376.44	228.31
376.82	228.29
377.19	228.20
377.57	228.12
377.95	227.97
378.33	227.89
378.71	227.77
379.09	227.70
379.47	227.66
379.84	227.56
380.22	227.49
380.60	227.41
380.98	227.34
381.36	227.28
381.73	227.21
382.11	227.18
382.49	227.09
382.87	227.02
383.25	226.96
383.62	227.00
384.00	226.88
384.38	226.83
384.76	226.80
385.13	226.80
385.51	226.74
385.89	226.69
386.27	226.62
386.64	226.58
387.02	226.53
387.40	226.45
387.78	226.45
388.15	226.41
388.53	226.38
388.91	226.35
389.29	226.31
389.66	226.31
390.04	226.29
390.42	226.27
390.79	226.25
391.17	226.27
391.55	226.18
391.92	226.17
392.30	226.20
392.68	226.18
393.05	226.15
393.43	226.20
393.81	226.21
394.18	226.26
394.56	226.30
394.94	226.32
395.31	226.35
395.69	226.39
396.06	226.46
396.44	226.51
396.82	226.60
397.19	226.68
397.57	226.71
397.95	226.77
398.32	226.81
398.70	226.92
399.07	226.99
399.45	227.06
399.82	227.13
400.20	227.21
400.58	227.30
400.95	227.38
401.33	227.47
401.70	227.62
402.08	227.70
402.45	227.80
402.83	227.95
403.20	228.04
403.58	228.15
403.95	228.26
404.33	228.40
404.71	228.50
405.08	228.68
405.46	228.78
405.83	228.93
406.21	229.09
406.58	229.24
406.96	229.40
407.33	229.55
407.70	229.77
408.08	230.01
408.45	230.24
408.83	230.47
409.20	230.68
409.58	230.87
409.95	231.17
410.33	231.46
410.70	231.71
411.08	232.05
411.45	232.35
411.82	232.67
412.20	233.03
412.57	233.43
412.95	233.71
413.32	234.14
413.69	234.56
414.07	235.01
414.44	235.47
414.82	235.94
415.19	236.49
415.56	237.02
415.94	237.56
416.31	238.17
416.68	238.77
417.06	239.49
417.43	240.19
417.81	240.95
418.18	241.70
418.55	242.55
418.93	243.40
419.30	244.31
419.67	245.25
420.04	246.21
420.42	247.24
420.79	248.44
421.16	249.61
421.54	250.80
421.91	252.02
422.28	253.26
422.66	254.61
423.03	255.90
423.40	257.24
423.77	258.64
424.15	260.08
424.52	261.60
424.89	263.20
425.26	264.75
425.64	266.18
426.01	267.79
426.38	269.44
426.75	271.13
427.13	272.86
427.50	274.63
427.87	276.50
428.24	278.34
428.61	280.06
428.99	281.98
429.36	284.04
429.73	286.09
430.10	288.10
430.47	290.15
430.85	292.30
431.22	294.60
431.59	297.00
431.96	299.23
432.33	301.69
432.70	304.10
433.08	306.93
433.45	309.59
433.82	312.20
434.19	315.08
434.56	317.90
434.93	320.52
435.30	323.19
435.68	326.10
436.05	328.91
436.42	331.77
436.79	334.31
437.16	337.04
437.53	339.90
437.90	342.75
438.27	345.50
438.64	348.35
439.01	350.91
439.38	353.17
439.75	355.34
440.13	357.84
440.50	360.20
440.87	362.05
441.24	363.99
441.61	366.14
441.98	367.67
442.35	369.47
442.72	371.36
443.09	373.16
443.46	374.16
443.83	374.75
444.20	375.25
444.57	376.10
444.94	376.38
445.31	376.74
445.68	377.08
446.05	377.15
446.42	376.73
446.79	376.35
447.16	375.91
447.53	375.57
447.90	374.45
448.27	373.27
448.64	371.71
449.01	370.56
449.37	368.61
449.74	366.67
450.11	364.43
450.48	361.91
450.85	359.38
451.22	357.22
451.59	355.16
451.96	353.18
452.33	350.55
452.70	348.22
453.07	345.36
453.43	342.40
453.80	339.64
454.17	336.97
454.54	334.37
454.91	331.62
455.28	328.95
455.65	326.46
456.02	323.99
456.38	321.79
456.75	319.15
457.12	316.85
457.49	314.62
457.86	312.40
458.23	310.60
458.59	308.54
458.96	306.42
459.33	304.58
459.70	302.75
460.07	301.25
460.43	299.51
460.80	297.87
461.17	296.50
461.54	295.00
461.91	293.57
462.27	292.17
462.64	290.90
463.01	289.57
463.38	288.24
463.74	286.86
464.11	285.71
464.48	284.68
464.85	283.56
465.21	282.71
465.58	281.81
465.95	280.70
466.32	279.80
466.68	278.89
467.05	278.01
467.42	277.11
467.78	276.18
468.15	275.34
468.52	274.69
468.88	273.82
469.25	273.03
469.62	272.41
469.98	271.69
470.35	271.05
470.72	270.44
471.08	269.77
471.45	269.23
471.82	268.67
472.18	268.02
472.55	267.59
472.92	267.08
473.28	266.59
473.65	266.13
474.02	265.69
474.38	265.34
474.75	265.01
475.11	264.67
475.48	264.40
475.85	264.13
476.21	263.88
476.58	263.68
476.94	263.51
477.31	263.35
477.67	263.22
478.04	263.11
478.41	263.04
478.77	263.08
479.14	263.01
479.50	263.02
479.87	263.13
480.23	263.21
480.60	263.24
480.96	263.32
481.33	263.52
481.69	263.70
482.06	263.89
482.42	264.08
482.79	264.30
483.15	264.61
483.52	264.97
483.88	265.32
484.25	265.70
484.61	266.14
484.98	266.53
485.34	267.08
485.71	267.65
486.07	268.26
486.44	268.81
486.80	269.49
487.17	270.20
487.53	270.98
487.90	271.82
488.26	272.75
488.62	273.76
488.99	274.72
489.35	275.74
489.72	276.87
490.08	278.06
490.44	279.30
490.81	280.62
491.17	281.99
491.54	283.45
491.90	284.96
492.26	286.61
492.63	288.37
492.99	290.13
493.36	292.00
493.72	294.04
494.08	296.16
494.45	298.41
494.81	300.73
495.17	303.14
495.54	305.67
495.90	308.33
496.26	311.08
496.63	314.02
496.99	317.12
497.35	320.35
497.72	323.74
498.08	327.22
498.44	330.90
498.80	334.81
499.17	338.83
499.53	342.97
499.89	347.35
500.26	351.83
500.62	356.48
500.98	361.44
501.34	366.48
501.71	371.80
502.07	377.25
502.43	382.89
502.79	388.71
503.16	394.80
503.52	401.03
503.88	407.50
504.24	414.11
504.60	420.98
504.97	428.09
505.33	435.43
505.69	443.17
506.05	450.93
506.41	458.81
506.78	467.00
507.14	475.50
507.50	484.18
507.86	493.26
508.22	502.49
508.59	511.74
508.95	521.26
509.31	531.05
509.67	541.21
510.03	551.50
510.39	562.08
510.75	572.94
511.12	583.91
511.48	595.24
511.84	606.75
512.20	618.37
512.56	630.36
512.92	642.55
513.28	654.89
513.64	667.35
514.00	680.06
514.37	692.97
514.73	705.98
515.09	719.02
515.45	732.36
515.81	745.93
516.17	759.98
516.53	774.16
516.89	788.29
517.25	802.39
517.61	816.90
517.97	831.43
518.33	845.86
518.69	860.67
519.05	875.58
519.41	890.77
519.77	906.28
520.13	921.82
520.49	937.32
520.85	952.73
521.21	968.60
521.57	984.98
521.93	1000.83
522.29	1017.30
522.65	1033.64
523.01	1049.76
523.37	1065.81
523.73	1082.04
524.09	1098.16
524.45	1114.64
524.81	1131.44
525.17	1148.29
525.53	1165.20
525.89	1182.17
526.25	1199.08
526.61	1215.60
526.97	1232.36
527.33	1248.82
527.68	1265.45
528.04	1281.88
528.40	1298.66
528.76	1315.66
529.12	1332.17
529.48	1349.11
529.84	1365.23
530.20	1381.97
530.56	1399.21
530.91	1416.79
531.27	1433.44
531.63	1450.18
531.99	1466.81
532.35	1482.71
532.71	1498.62
533.07	1514.92
533.42	1530.81
533.78	1546.98
534.14	1563.38
534.50	1578.78
534.86	1594.81
535.21	1609.99
535.57	1626.07
535.93	1641.55
536.29	1656.38
536.65	1671.65
537.00	1686.58
537.36	1701.89
537.72	1716.54
538.08	1730.94
538.44	1744.73
538.79	1758.86
539.15	1772.57
539.51	1786.32
539.87	1800.79
540.22	1814.61
540.58	1828.47
540.94	1841.89
541.29	1854.96
541.65	1867.74
542.01	1881.14
542.37	1893.37
542.72	1905.88
543.08	1917.69
543.44	1930.21
543.79	1941.56
544.15	1952.57
544.51	1964.13
544.87	1975.26
545.22	1986.04
545.58	1996.33
545.94	2006.25
546.29	2016.08
546.65	2025.85
547.01	2035.23
547.36	2044.05
547.72	2052.58
548.07	2060.47
548.43	2068.73
548.79	2076.62
549.14	2084.08
549.50	2091.48
549.86	2099.42
550.21	2106.80
550.57	2113.93
550.92	2120.59
551.28	2127.73
551.64	2134.78
551.99	2141.27
552.35	2147.34
552.70	2153.51
553.06	2159.44
553.41	2165.76
553.77	2171.83
554.13	2177.98
554.48	2184.07
554.84	2189.48
555.19	2194.80
555.55	2199.81
555.90	2204.25
556.26	2209.11
556.61	2213.95
556.97	2217.91
557.32	2221.97
557.68	2226.03
558.03	2230.44
558.39	2234.00
558.74	2238.54
559.10	2242.40
559.45	2246.14
559.81	2250.53
560.16	2254.41
560.52	2257.60
560.87	2261.05
561.23	2263.65
561.58	2266.42
561.94	2268.85
562.29	2271.27
562.64	2273.90
563.00	2276.63
563.35	2280.24
563.71	2283.32
564.06	2286.42
564.42	2289.47
564.77	2291.87
565.12	2294.01
565.48	2295.85
565.83	2297.63
566.19	2298.88
566.54	2299.80
566.89	2300.77
567.25	2301.31
567.60	2302.57
567.96	2304.15
568.31	2304.83
568.66	2305.93
569.02	2306.52
569.37	2306.82
569.72	2307.56
570.08	2307.66
570.43	2307.62
570.78	2306.64
571.14	2305.08
571.49	2303.68
571.84	2303.34
572.20	2302.07
572.55	2300.97
572.90	2299.37
573.26	2297.92
573.61	2296.20
573.96	2294.22
574.31	2291.27
574.67	2288.06
575.02	2284.30
575.37	2280.83
575.72	2276.85
576.08	2273.37
576.43	2269.95
576.78	2266.22
577.13	2263.05
577.49	2259.82
577.84	2256.13
578.19	2252.49
578.54	2248.62
578.90	2244.17
579.25	2238.56
579.60	2233.55
579.95	2228.48
580.30	2223.31
580.66	2218.11
581.01	2213.13
581.36	2208.13
581.71	2203.75
582.06	2199.19
582.42	2194.48
582.77	2189.24
583.12	2184.63
583.47	2179.74
583.82	2174.65
584.17	2169.36
584.53	2163.56
584.88	2157.87
585.23	2152.03
585.58	2146.49
585.93	2140.96
586.28	2136.18
586.63	2130.98
586.98	2125.78
587.34	2120.91
587.69	2115.92
588.04	2110.54
588.39	2104.63
588.74	2098.16
589.09	2091.96
589.44	2084.96
589.79	2078.96
590.14	2073.30
590.49	2066.52
590.84	2060.13
591.19	2054.04
591.54	2047.40
591.89	2039.97
592.25	2033.01
592.60	2025.82
592.95	2018.09
593.30	2010.69
593.65	2003.07
594.00	1996.01
594.35	1988.74
594.70	1980.85
595.05	1973.49
595.40	1966.14
595.75	1958.72
596.10	1952.35
596.45	1945.43
596.80	1939.33
597.15	1932.63
597.50	1925.40
597.85	1919.12
598.19	1912.41
598.54	1905.19
598.89	1898.59
599.24	1892.70
599.59	1885.75
599.94	1879.48
600.29	1873.14
600.64	1866.64
600.99	1859.05
601.34	1851.99
601.69	1845.02
602.04	1838.03
602.39	1830.55
602.74	1823.61
603.08	1816.73
603.43	1810.00
603.78	1802.83
604.13	1795.49
604.48	1788.14
604.83	1781.23
605.18	1774.13
605.53	1766.08
605.87	1758.16
606.22	1750.92
606.57	1742.93
606.92	1735.84
607.27	1728.59
607.62	1721.59
607.96	1714.12
608.31	1707.38
608.66	1699.69
609.01	1692.01
609.36	1684.33
609.70	1676.40
610.05	1668.33
610.40	1660.64
610.75	1652.35
611.10	1644.68
611.44	1636.44
611.79	1628.44
612.14	1619.77
612.49	1610.62
612.83	1602.26
613.18	1594.11
613.53	1585.83
613.88	1577.32
614.22	1568.96
614.57	1560.37
614.92	1552.35
615.27	1544.88
615.61	1536.62
615.96	1528.67
616.31	1521.19
616.65	1513.88
617.00	1506.28
617.35	1498.70
617.70	1490.31
618.04	1481.64
618.39	1473.28
618.74	1465.62
619.08	1457.34
619.43	1449.82
619.78	1442.98
620.12	1435.72
620.47	1428.24
620.82	1420.19
621.16	1412.83
621.51	1405.35
621.85	1397.71
622.20	1389.14
622.55	1380.92
622.89	1373.11
623.24	1365.64
623.59	1358.20
623.93	1350.82
624.28	1343.60
624.62	1336.06
624.97	1328.88
625.32	1322.17
625.66	1315.24
626.01	1307.96
626.35	1300.52
626.70	1292.73
627.04	1284.91
627.39	1277.26
627.73	1269.76
628.08	1262.88
628.43	1255.51
628.77	1248.04
629.12	1240.51
629.46	1233.37
629.81	1225.93
630.15	1218.76
630.50	1211.28
630.84	1203.06
631.19	1195.08
631.53	1187.61
631.88	1180.02
632.22	1172.38
632.57	1165.16
632.91	1157.54
633.26	1150.28
633.60	1142.93
633.95	1136.03
634.29	1129.07
634.64	1122.32
634.98	1115.01
635.32	1107.87
635.67	1101.31
636.01	1094.66
636.36	1087.89
636.70	1081.43
637.05	1074.85
637.39	1068.42
637.73	1061.92
638.08	1056.12
638.42	1050.10
638.77	1043.66
639.11	1037.09
639.45	1030.84
639.80	1024.24
640.14	1017.84
640.49	1011.36
640.83	1005.10
641.17	998.68
641.52	992.31
641.86	986.00
642.20	980.20
642.55	973.90
642.89	967.38
643.23	960.99
643.58	955.25
643.92	949.01
644.26	942.84
644.61	936.88
644.95	930.85
645.29	924.18
645.64	917.41
645.98	911.13
646.32	905.38
646.66	899.42
647.01	893.60
647.35	887.97
647.69	882.09
648.04	876.57
648.38	870.88
648.72	864.93
649.06	858.78
649.41	852.90
649.75	846.90
650.09	840.96
650.43	835.06
650.78	828.93
651.12	823.05
651.46	817.39
651.80	811.60
652.14	806.21
652.49	800.95
652.83	795.83
653.17	790.17
653.51	784.36
653.85	778.96
654.20	773.26
654.54	767.25
654.88	761.55
655.22	755.67
655.56	749.86
655.90	744.41
656.25	739.18
656.59	733.82
656.93	728.81
657.27	723.70
657.61	718.36
657.95	713.28
658.29	708.17
658.64	702.94
658.98	697.64
659.32	692.22
659.66	687.01
660.00	681.68
660.34	676.72
660.68	671.88
661.02	666.79
661.36	662.11
661.70	657.66
662.05	653.23
662.39	648.92
662.73	644.55
663.07	640.14
663.41	635.68
663.75	631.17
664.09	626.56
664.43	622.18
664.77	618.00
665.11	613.70
665.45	609.64
665.79	605.63
666.13	601.47
666.47	597.34
666.81	593.19
667.15	589.12
667.49	585.28
667.83	581.46
668.17	577.55
668.51	573.50
668.85	569.42
669.19	565.60
669.53	561.71
669.87	557.85
670.21	554.21
670.55	550.63
670.89	547.24
671.23	543.80
671.57	540.27
671.91	536.80
672.25	533.33
672.58	529.73
672.92	526.29
673.26	523.12
673.60	520.06
673.94	516.98
674.28	514.06
674.62	511.10
674.96	508.02
675.30	505.08
675.64	502.16
675.97	499.48
676.31	496.70
676.65	493.79
676.99	491.10
677.33	488.22
677.67	485.38
678.01	482.35
678.34	479.41
678.68	476.60
679.02	473.75
679.36	471.02
679.70	468.35
680.04	465.58
680.37	462.74
680.71	459.87
681.05	457.21
681.39	454.55
681.73	451.86
682.06	449.33
682.40	446.82
682.74	444.37
683.08	441.81
683.42	439.21
683.75	436.75
684.09	434.22
684.43	431.76
684.77	429.30
685.10	426.99
685.44	424.72
685.78	422.41
686.12	420.23
686.45	417.92
686.79	415.66
687.13	413.50
687.46	411.37
687.80	409.28
688.14	407.13
688.48	405.06
688.81	402.86
689.15	400.72
689.49	398.55
689.82	396.45
690.16	394.35
690.50	392.36
690.83	390.42
691.17	388.45
691.51	386.58
691.84	384.76
692.18	382.81
692.52	380.78
692.85	378.88
693.19	376.98
693.52	375.17
693.86	373.34
694.20	371.54
694.53	369.74
694.87	367.90
695.21	366.12
695.54	364.28
695.88	362.52
696.21	360.78
696.55	359.13
696.88	357.46
697.22	355.85
697.56	354.25
697.89	352.53
698.23	350.92
698.56	349.28
698.90	347.67
699.23	346.01
699.57	344.47
699.90	342.93
700.24	341.37
700.58	339.84
700.91	338.35
701.25	336.92
701.58	335.58
701.92	334.20
702.25	332.80
702.59	331.44
702.92	330.15
703.26	328.86
703.59	327.58
703.93	326.35
704.26	325.08
704.60	323.77
704.93	322.55
705.26	321.25
705.60	320.10
705.93	318.94
706.27	317.91
706.60	316.85
706.94	315.74
707.27	314.58
707.61	313.52
707.94	312.46
708.27	311.36
708.61	310.24
708.94	309.26
709.28	308.29
709.61	307.37
709.94	306.39
710.28	305.36
710.61	304.40
710.95	303.34
711.28	302.46
711.61	301.57
711.95	300.69
712.28	299.77
712.61	298.81
712.95	297.87
713.28	297.02
713.61	296.16
713.95	295.33
714.28	294.52
714.61	293.69
714.95	292.90
715.28	292.07
715.61	291.23
715.95	290.36
716.28	289.48
716.61	288.65
716.95	287.86
717.28	287.15
717.61	286.40
717.94	285.71
718.28	284.86
718.61	284.09
718.94	283.39
719.27	282.74
719.61	282.08
719.94	281.46
720.27	280.71
720.60	280.05
720.94	279.42
721.27	278.81
721.60	278.23
721.93	277.61
722.27	277.06
722.60	276.55
722.93	275.99
723.26	275.51
723.59	274.93
723.93	274.41
724.26	273.86
724.59	273.31
724.92	272.80
725.25	272.32
725.59	271.80
725.92	271.31
726.25	270.82
726.58	270.35
726.91	269.87
727.24	269.43
727.57	268.98
727.91	268.49
728.24	268.07
728.57	267.57
728.90	267.14
729.23	266.64
729.56	266.12
729.89	265.65
730.22	265.12
730.55	264.70
730.89	264.24
731.22	263.80
731.55	263.33
731.88	262.90
732.21	262.47
732.54	262.04
732.87	261.59
733.20	261.22
733.53	260.85
733.86	260.44
734.19	260.04
734.52	259.70
734.85	259.38
735.18	258.93
735.51	258.59
735.84	258.22
736.17	257.88
736.50	257.48
736.83	257.25
737.16	256.96
737.49	256.62
737.82	256.27
738.15	255.93
738.48	255.62
738.81	255.28
739.14	254.91
739.47	254.61
739.80	254.28
740.13	253.95
740.46	253.59
740.79	253.26
741.12	252.96
741.45	252.60
741.78	252.24
742.11	251.96
742.44	251.61
742.77	251.30
743.10	251.00
743.43	250.75
743.75	250.37
744.08	250.21
744.41	249.91
744.74	249.61
745.07	249.33
745.40	249.06
745.73	248.82
746.06	248.59
746.39	248.29
746.71	248.01
747.04	247.72
747.37	247.45
747.70	247.22
748.03	246.91
748.36	246.72
748.68	246.47
749.01	246.24
749.34	245.96
749.67	245.73
750.00	245.50
750.33	245.32
750.65	245.10
750.98	244.74
751.31	244.52
751.64	244.30
751.97	244.12
752.29	243.85
752.62	243.60
752.95	243.42
753.28	243.19
753.60	243.01
753.93	242.83
754.26	242.68
754.59	242.44
754.91	242.24
755.24	242.01
755.57	241.86
755.90	241.66
756.22	241.52
756.55	241.32
756.88	241.14
757.20	240.92
757.53	240.70
757.86	240.58
758.19	240.47
758.51	240.34
758.84	240.13
759.17	240.03
759.49	239.89
759.82	239.74
760.15	239.61
760.47	239.49
760.80	239.31
761.13	239.17
761.45	239.01
761.78	238.92
762.11	238.77
762.43	238.61
762.76	238.46
763.08	238.35
763.41	238.25
763.74	238.15
764.06	238.03
764.39	237.95
764.71	237.78
765.04	237.62
765.37	237.49
765.69	237.40
766.02	237.25
766.34	237.12
766.67	236.95
767.00	236.85
767.32	236.78
767.65	236.75
767.97	236.65
768.30	236.55
768.62	236.45
768.95	236.34
769.27	236.25
769.60	236.21
769.92	236.07
770.25	235.92
770.57	235.81
770.90	235.71
771.22	235.55
771.55	235.45
771.87	235.34
772.20	235.22
772.52	235.17
772.85	235.17
773.17	235.07
773.50	235.01
773.82	234.90
774.15	234.75
774.47	234.57
774.80	234.46
775.12	234.38
775.45	234.25
775.77	234.18
776.09	234.07
776.42	233.95
776.74	233.92
777.07	233.85
777.39	233.75
777.72	233.67
778.04	233.63
778.36	233.57
778.69	233.51
779.01	233.45
779.33	233.30
779.66	233.13
779.98	233.03
780.31	232.93
780.63	232.91
780.95	232.85
781.28	232.80
781.60	232.73
781.92	232.65
782.25	232.61
782.57	232.56
782.89	232.48
783.22	232.40
783.54	232.30
783.86	232.23
784.19	232.18
784.51	232.15
784.83	232.05
785.16	232.00
785.48	231.92
785.80	231.88
786.12	231.88
786.45	231.84
786.77	231.80
787.09	231.74
787.42	231.66
787.74	231.61
788.06	231.56
788.38	231.50
788.71	231.46
789.03	231.40
789.35	231.35
789.67	231.30
789.99	231.30
790.32	231.27
790.64	231.25
790.96	231.27
791.28	231.20
791.61	231.17
791.93	231.12
792.25	231.07
792.57	231.09
792.89	231.00
793.21	230.95
793.54	230.94
793.86	230.89
794.18	230.86
794.50	230.84
794.82	230.79
795.14	230.78
795.47	230.75
795.79	230.73
796.11	230.70
796.43	230.66
796.75	230.60
797.07	230.55
797.39	230.51
797.71	230.40
798.04	230.37
798.36	230.34
798.68	230.31
799.00	230.31
799.32	230.22
799.64	230.23
799.96	230.22
800.28	230.22
800.60	230.23
800.92	230.23
801.24	230.20
801.56	230.22
801.89	230.19
802.21	230.19
802.53	230.15
802.85	230.17
803.17	230.21
803.49	230.19
803.81	230.17
804.13	230.14
804.45	230.14
804.77	230.15
805.09	230.14
805.41	230.11
805.73	230.06
806.05	229.99
806.37	229.96
806.69	229.93
807.01	229.87
807.33	229.86
807.65	229.79
807.97	229.82
808.28	229.75
808.60	229.73
808.92	229.68
809.24	229.71
809.56	229.63
809.88	229.60
810.20	229.59
810.52	229.56
810.84	229.55
811.16	229.48
811.48	229.42
811.80	229.43
812.12	229.41
812.43	229.42
812.75	229.42
813.07	229.42
813.39	229.39
813.71	229.36
814.03	229.32
814.35	229.29
814.67	229.24
814.98	229.23
815.30	229.21
815.62	229.20
815.94	229.11
816.26	229.14
816.58	229.11
816.89	229.08
817.21	229.04
817.53	228.98
817.85	228.97
818.17	228.94
818.48	228.86
818.80	228.86
819.12	228.80
819.44	228.77
819.76	228.71
820.07	228.73
820.39	228.74
820.71	228.71
821.03	228.68
821.34	228.60
821.66	228.61
821.98	228.58
822.30	228.54
822.61	228.62
822.93	228.52
823.25	228.47
823.57	228.44
823.88	228.44
824.20	228.44
824.52	228.46
824.83	228.42
825.15	228.42
825.47	228.37
825.79	228.39
826.10	228.34
826.42	228.31
826.74	228.29
827.05	228.24
827.37	228.21
827.69	228.22
828.00	228.24
828.32	228.21
828.64	228.18
828.95	228.21
829.27	228.14
829.58	228.14
829.90	228.14
830.22	228.12
830.53	228.07
830.85	228.05
831.17	227.99
831.48	227.99
831.80	227.98
832.11	227.97
832.43	227.92
832.75	227.95
833.06	228.01
833.38	227.95
833.69	227.96
834.01	227.96
834.32	227.91
834.64	227.90
834.96	227.91
835.27	227.89
835.59	227.87
835.90	227.84
836.22	227.86
836.53	227.85
836.85	227.86
837.16	227.96
837.48	227.96
837.79	228.00
838.11	227.99
838.42	227.97
838.74	228.01
839.05	228.05
839.37	228.02
839.68	227.98
840.00	228.01
840.31	228.00
840.63	228.06
840.94	228.07
841.26	228.05
841.57	228.05
841.88	228.09
842.20	228.10
842.51	228.11
842.83	228.10
843.14	228.16
843.46	228.15
843.77	228.12
844.08	228.14
844.40	228.12
844.71	228.13
845.03	228.13
845.34	228.12
845.65	228.10
845.97	228.11
846.28	228.08
846.60	228.08
846.91	228.04
847.22	227.99
847.54	228.01
847.85	228.03
848.16	227.99
848.48	227.98
848.79	227.97
849.10	227.95
849.42	227.99
849.73	227.91
850.04	227.91
850.36	227.89
850.67	227.89
850.98	227.87
851.30	227.88
851.61	227.87
851.92	227.90
852.23	227.95
852.55	227.93
852.86	227.97
853.17	227.95
853.49	227.99
853.80	228.02
854.11	227.99
854.42	227.97
854.74	227.96
855.05	227.97
855.36	227.94
855.67	227.91
855.99	227.86
856.30	227.94
856.61	227.91
856.92	227.87
857.23	227.86
857.55	227.85
857.86	227.79
858.17	227.81
858.48	227.75
858.79	227.68
859.11	227.69
859.42	227.67
859.73	227.63
860.04	227.61
860.35	227.53
860.66	227.52
860.98	227.51
861.29	227.52
861.60	227.46
861.91	227.44
862.22	227.44
862.53	227.41
862.84	227.32
863.16	227.33
863.47	227.31
863.78	227.30
864.09	227.29
864.40	227.33
864.71	227.31
865.02	227.33
865.33	227.29
865.64	227.28
865.95	227.26
866.27	227.33
866.58	227.30
866.89	227.31
867.20	227.29
867.51	227.27
867.82	227.26
868.13	227.29
868.44	227.26
868.75	227.28
869.06	227.28
869.37	227.30
869.68	227.29
869.99	227.31
870.30	227.31
870.61	227.32
870.92	227.30
871.23	227.28
871.54	227.31
871.85	227.38
872.16	227.39
872.47	227.40
872.78	227.34
873.09	227.36
873.40	227.39
873.71	227.41
874.02	227.46
874.33	227.48
874.64	227.47
874.95	227.53
875.26	227.49
875.56	227.50
875.87	227.50
876.18	227.49
876.49	227.61
876.80	227.62
877.11	227.60
877.42	227.62
877.73	227.64
878.04	227.61
878.35	227.61
878.66	227.65
878.96	227.65
879.27	227.67
879.58	227.71
879.89	227.69
880.20	227.74
880.51	227.74
880.82	227.73
881.12	227.76
881.43	227.73
881.74	227.77
882.05	227.77
882.36	227.80
882.67	227.81
882.97	227.68
883.28	227.72
883.59	227.73
883.90	227.77
884.21	227.78
884.51	227.79
884.82	227.77
885.13	227.78
885.44	227.79
885.74	227.78
886.05	227.75
886.36	227.78
886.67	227.73
886.98	227.77
887.28	227.78
887.59	227.76
887.90	227.77
888.20	227.75
888.51	227.80
888.82	227.76
889.13	227.76
889.43	227.84
889.74	227.83
890.05	227.82
890.35	227.77
890.66	227.75
890.97	227.68
891.28	227.67
891.58	227.61
891.89	227.57
892.20	227.56
892.50	227.53
892.81	227.49
893.12	227.49
893.42	227.41
893.73	227.40
894.04	227.40
894.34	227.38
894.65	227.35
894.95	227.27
895.26	227.25
895.57	227.30
895.87	227.18
896.18	227.15
896.48	227.15
896.79	227.14
897.10	227.11
897.40	227.14
897.71	227.13
898.01	227.13
898.32	227.16
898.63	227.12
898.93	227.12
899.24	227.13
899.54	227.08
899.85	227.07
900.15	227.04
900.46	227.01
900.76	227.00
901.07	226.99
901.38	227.00
901.68	227.02
901.99	226.94
902.29	226.95
902.60	226.92
902.90	226.86
903.21	226.84
903.51	226.82
903.82	226.81
904.12	226.80
904.43	226.80
904.73	226.77
905.03	226.75
905.34	226.83
905.64	226.84
905.95	226.84
906.25	226.84
906.56	226.87
906.86	226.86
907.17	226.89
907.47	226.91
907.77	226.94
908.08	226.95
908.38	226.97
908.69	226.99
908.99	227.03
909.30	227.05
909.60	227.08
909.90	227.12
910.21	227.15
910.51	227.15
910.81	227.16
911.12	227.17
911.42	227.21
911.73	227.14
912.03	227.13
912.33	227.16
912.64	227.19
912.94	227.18
913.24	227.21
913.55	227.20
913.85	227.19
914.15	227.20
914.46	227.22
914.76	227.22
915.06	227.23
915.37	227.22
915.67	227.24
915.97	227.26
916.27	227.26
916.58	227.25
916.88	227.26
917.18	227.26
917.49	227.35
917.79	227.35
918.09	227.37
918.39	227.40
918.70	227.41
919.00	227.41
919.30	227.47
919.60	227.46
919.91	227.44
920.21	227.45
920.51	227.45
920.81	227.42
921.12	227.43
921.42	227.41
921.72	227.44
922.02	227.47
922.32	227.50
922.63	227.49
922.93	227.51
923.23	227.52
923.53	227.51
923.83	227.43
924.13	227.45
924.44	227.43
924.74	227.47
925.04	227.47
925.34	227.47
925.64	227.39
925.94	227.38
926.24	227.44
926.55	227.41
926.85	227.39
927.15	227.40
927.45	227.38
927.75	227.38
928.05	227.38
928.35	227.33
928.65	227.31
928.95	227.34
929.26	227.29
929.56	227.30
929.86	227.32
930.16	227.30
930.46	227.26
930.76	227.27
931.06	227.20
931.36	227.16
931.66	227.16
931.96	227.17
932.26	227.17
932.56	227.11
932.86	227.11
933.16	227.12
933.46	227.11
933.76	227.09
934.06	227.09
934.36	227.09
934.66	227.08
934.96	227.02
935.26	226.97
935.56	227.00
935.86	226.95
936.16	226.89
936.46	226.89
936.76	226.86
937.06	226.85
937.36	226.84
937.66	226.82
937.96	226.82
938.26	226.79
938.56	226.78
938.86	226.76
939.16	226.77
939.46	226.77
939.76	226.77
940.06	226.75
940.35	226.72
940.65	226.66
940.95	226.65
941.25	226.64
941.55	226.63
941.85	226.60
942.15	226.60
942.45	226.63
942.75	226.61
943.04	226.64
943.34	226.64
943.64	226.66
943.94	226.69
944.24	226.65
944.54	226.66
944.84	226.63
945.13	226.64
945.43	226.65
945.73	226.64
946.03	226.62
946.33	226.61
946.62	226.61
946.92	226.62
947.22	226.67
947.52	226.68
947.82	226.70
948.11	226.71
948.41	226.74
948.71	226.74
949.01	226.76
949.31	226.77
949.60	226.77
949.90	226.77
950.20	226.78
950.50	226.80
950.79	226.81
951.09	226.84
951.39	226.81
951.69	226.82
951.98	226.85
952.28	226.86
952.58	226.88
952.87	226.89
953.17	226.95
953.47	226.92
953.76	226.93
954.06	226.95
954.36	226.98
954.66	226.96
954.95	227.00
955.25	227.01
955.55	227.01
955.84	226.99
956.14	227.01
956.44	227.04
956.73	227.04
957.03	227.03
957.32	227.04
957.62	227.09
957.92	227.11
958.21	227.08
958.51	227.19
958.81	227.23
959.10	227.24
959.40	227.26
959.69	227.31
959.99	227.32
960.29	227.29
960.58	227.27
960.88	227.28
961.17	227.26
961.47	227.26
961.76	227.25
962.06	227.28
962.36	227.27
962.65	227.26
962.95	227.25
963.24	227.26
963.54	227.28
963.83	227.26
964.13	227.27
964.42	227.23
964.72	227.14
965.01	227.13
965.31	227.12
965.60	227.09
965.90	227.11
966.19	227.08
966.49	227.10
966.78	227.10
967.08	227.11
967.37	227.08
967.67	227.07
967.96	227.08
968.26	227.06
968.55	227.06
968.85	227.01
969.14	227.00
969.43	227.01
969.73	227.02
970.02	227.03
970.32	227.01
970.61	227.02
970.91	226.98
971.20	226.95
971.49	226.92
971.79	226.90
972.08	226.85
972.38	226.87
972.67	226.86
972.96	226.85
973.26	226.85
973.55	226.87
973.85	226.86
974.14	226.88
974.43	226.89
974.73	226.87
975.02	226.87
975.31	226.89
975.61	226.87
975.90	226.85
976.19	226.82
976.49	226.79
976.78	226.82
977.07	226.84
977.37	226.86
977.66	226.87
977.95	226.89
978.24	226.87
978.54	226.90
978.83	226.89
979.12	226.91
979.42	226.92
979.71	226.92
980.00	226.96
980.29	226.92
980.59	226.92
980.88	226.96
981.17	226.97
981.46	226.96
981.76	226.95
982.05	226.96
982.34	226.98
982.63	226.99
982.93	226.96
983.22	227.00
983.51	226.98
983.80	227.01
984.09	226.99
984.39	227.01
984.68	226.98
984.97	226.98
985.26	226.94
985.55	226.94
985.85	226.93
986.14	226.91
986.43	226.94
986.72	226.92
987.01	226.89
987.30	226.89
987.59	226.91
987.89	226.95
988.18	226.95
988.47	226.94
988.76	226.93
989.05	226.94
989.34	226.92
989.63	226.96
989.92	226.91
990.22	226.93
990.51	226.88
990.80	226.87
991.09	226.87
991.38	226.91
991.67	226.89
991.96	226.90
992.25	226.90
992.54	226.84
992.83	226.87
993.12	226.89
993.41	226.87
993.70	226.91
993.99	226.90
994.28	226.89
994.58	226.90
994.87	226.91
995.16	226.90
995.45	226.90
995.74	226.87
996.03	226.92
996.32	226.93
996.61	226.99
996.90	227.00
997.19	226.97
997.48	226.95
997.77	226.94
998.06	226.91
998.34	226.91
998.63	226.94
998.92	226.93
999.21	226.92
999.50	226.94
999.79	226.89
1000.08	226.85
1000.37	226.87
1000.66	226.86
1000.95	226.88
1001.24	226.90
1001.53	226.93
1001.82	226.89
1002.11	226.85
1002.40	226.86
1002.68	226.87
1002.97	226.95
1003.26	226.98
1003.55	227.00
1003.84	227.03
1004.13	227.08
1004.42	227.08
1004.71	227.08
1004.99	227.08
1005.28	227.07
1005.57	227.06
1005.86	227.02
1006.15	227.03
1006.44	227.02
1006.72	227.01
1007.01	227.01
1007.30	226.98
1007.59	226.97
1007.88	227.00
1008.17	227.00
1008.45	226.99
1008.74	226.99
1009.03	226.92
1009.32	226.87
1009.60	226.85
1009.89	226.83
1010.18	226.79
1010.47	226.79
1010.76	226.78
1011.04	226.79
1011.33	226.81
1011.62	226.83
1011.91	226.88
1012.19	226.90
1012.48	226.91
1012.77	226.94
1013.05	226.95
1013.34	226.99
1013.63	226.95
1013.92	226.98
1014.20	227.00
1014.49	226.99
1014.78	226.97
1015.06	226.96
1015.35	227.03
1015.64	227.04
1015.92	227.05
1016.21	227.09
1016.50	227.09
1016.78	227.13
1017.07	227.13
1017.36	227.11
1017.64	227.10
1017.93	227.11
1018.22	227.11
1018.50	227.12
1018.79	227.09
1019.08	227.06
1019.36	227.06
1019.65	227.09
1019.93	227.11
1020.22	227.12
1020.51	227.16
1020.79	227.17
1021.08	227.13
1021.36	226.93
1021.65	226.72
1021.94	227.15
1022.22	227.06
1022.51	227.09
1022.79	227.34
1023.08	227.45
1023.36	227.91
1023.65	227.14
>>>>>End Processed Spectral Data<<<<<
