SpectraSuite Data File
++++++++++++++++++++++++++++++++++++
Date: Fri Feb 01 16:32:37 EST 2013
User: group
Dark Spectrum Present: No
Reference Spectrum Present: No
Number of Sampled Component Spectra: 1
Spectrometers: USB2E7196
Integration Time (usec): 35000 (USB2E7196)
Spectra Averaged: 100 (USB2E7196)
Boxcar Smoothing: 10 (USB2E7196)
Correct for Electrical Dark: No (USB2E7196)
Strobe/Lamp Enabled: No (USB2E7196)
Correct for Detector Non-linearity: No (USB2E7196)
Correct for Stray Light: No (USB2E7196)
Number of Pixels in Processed Spectrum: 2048
>>>>>Begin Processed Spectral Data<<<<<
339.09	0.00
339.48	213.82
339.86	215.40
340.24	217.13
340.63	218.12
341.01	220.97
341.39	220.56
341.78	222.36
342.16	224.02
342.54	223.99
342.93	212.42
343.31	223.15
343.69	223.71
344.07	224.17
344.46	224.58
344.84	224.96
345.22	225.19
345.60	225.46
345.99	225.64
346.37	225.74
346.75	225.85
347.13	225.91
347.52	225.96
347.90	226.04
348.28	226.10
348.66	226.12
349.05	226.12
349.43	226.16
349.81	226.19
350.19	226.27
350.57	226.33
350.96	226.40
351.34	226.51
351.72	226.58
352.10	226.67
352.48	226.74
352.87	226.80
353.25	226.88
353.63	226.95
354.01	227.01
354.39	227.11
354.77	227.18
355.15	227.29
355.54	227.34
355.92	227.39
356.30	227.44
356.68	227.59
357.06	227.68
357.44	227.70
357.82	227.78
358.20	227.82
358.58	227.88
358.97	227.93
359.35	227.95
359.73	228.04
360.11	228.09
360.49	228.16
360.87	228.23
361.25	228.28
361.63	228.38
362.01	228.44
362.39	228.47
362.77	228.49
363.15	228.49
363.53	228.52
363.91	228.55
364.29	228.57
364.67	228.46
365.05	228.48
365.43	228.53
365.81	228.51
366.19	228.54
366.57	228.56
366.95	228.54
367.33	228.51
367.71	228.50
368.09	228.52
368.47	228.49
368.85	228.46
369.23	228.43
369.61	228.35
369.99	228.34
370.37	228.31
370.75	228.33
371.13	228.28
371.51	228.21
371.89	228.17
372.27	228.16
372.65	228.15
373.03	228.08
373.41	228.04
373.78	228.00
374.16	227.91
374.54	227.82
374.92	227.78
375.30	227.73
375.68	227.63
376.06	227.58
376.44	227.47
376.82	227.43
377.19	227.38
377.57	227.31
377.95	227.20
378.33	227.12
378.71	227.01
379.09	227.00
379.47	226.95
379.84	226.86
380.22	226.76
380.60	226.69
380.98	226.64
381.36	226.57
381.73	226.53
382.11	226.51
382.49	226.45
382.87	226.38
383.25	226.35
383.62	226.43
384.00	226.34
384.38	226.33
384.76	226.28
385.13	226.26
385.51	226.20
385.89	226.15
386.27	226.10
386.64	226.07
387.02	226.00
387.40	225.96
387.78	225.95
388.15	225.93
388.53	225.88
388.91	225.86
389.29	225.79
389.66	225.74
390.04	225.69
390.42	225.69
390.79	225.68
391.17	225.65
391.55	225.50
391.92	225.48
392.30	225.47
392.68	225.41
393.05	225.41
393.43	225.42
393.81	225.45
394.18	225.45
394.56	225.48
394.94	225.49
395.31	225.52
395.69	225.58
396.06	225.61
396.44	225.64
396.82	225.65
397.19	225.74
397.57	225.76
397.95	225.81
398.32	225.83
398.70	225.90
399.07	225.97
399.45	226.04
399.82	226.10
400.20	226.17
400.58	226.27
400.95	226.32
401.33	226.42
401.70	226.56
402.08	226.68
402.45	226.78
402.83	226.92
403.20	227.02
403.58	227.10
403.95	227.25
404.33	227.39
404.71	227.51
405.08	227.68
405.46	227.81
405.83	227.96
406.21	228.13
406.58	228.26
406.96	228.40
407.33	228.58
407.70	228.78
408.08	229.04
408.45	229.23
408.83	229.46
409.20	229.65
409.58	229.80
409.95	230.06
410.33	230.28
410.70	230.50
411.08	230.79
411.45	231.10
411.82	231.38
412.20	231.74
412.57	232.16
412.95	232.43
413.32	232.86
413.69	233.23
414.07	233.68
414.44	234.13
414.82	234.61
415.19	235.14
415.56	235.72
415.94	236.26
416.31	236.91
416.68	237.52
417.06	238.24
417.43	238.93
417.81	239.65
418.18	240.45
418.55	241.29
418.93	242.14
419.30	243.02
419.67	243.94
420.04	244.93
420.42	245.91
420.79	247.08
421.16	248.19
421.54	249.38
421.91	250.56
422.28	251.83
422.66	253.14
423.03	254.45
423.40	255.79
423.77	257.18
424.15	258.60
424.52	260.11
424.89	261.73
425.26	263.26
425.64	264.72
426.01	266.31
426.38	267.95
426.75	269.61
427.13	271.35
427.50	273.15
427.87	274.98
428.24	276.83
428.61	278.59
428.99	280.55
429.36	282.61
429.73	284.67
430.10	286.64
430.47	288.69
430.85	290.78
431.22	292.95
431.59	295.29
431.96	297.52
432.33	299.92
432.70	302.24
433.08	305.01
433.45	307.63
433.82	310.21
434.19	313.05
434.56	315.85
434.93	318.44
435.30	321.06
435.68	323.90
436.05	326.72
436.42	329.48
436.79	331.96
437.16	334.66
437.53	337.50
437.90	340.32
438.27	343.01
438.64	345.81
439.01	348.37
439.38	350.59
439.75	352.72
440.13	355.20
440.50	357.53
440.87	359.36
441.24	361.33
441.61	363.47
441.98	364.97
442.35	366.77
442.72	368.64
443.09	370.44
443.46	371.42
443.83	371.98
444.20	372.49
444.57	373.33
444.94	373.63
445.31	373.95
445.68	374.32
446.05	374.44
446.42	374.09
446.79	373.74
447.16	373.35
447.53	373.05
447.90	371.93
448.27	370.77
448.64	369.22
449.01	368.04
449.37	366.07
449.74	364.16
450.11	361.94
450.48	359.47
450.85	356.93
451.22	354.84
451.59	352.85
451.96	350.92
452.33	348.32
452.70	346.00
453.07	343.20
453.43	340.30
453.80	337.53
454.17	334.88
454.54	332.30
454.91	329.57
455.28	326.90
455.65	324.46
456.02	322.04
456.38	319.91
456.75	317.31
457.12	315.07
457.49	312.84
457.86	310.70
458.23	308.85
458.59	306.83
458.96	304.73
459.33	302.88
459.70	301.01
460.07	299.53
460.43	297.79
460.80	296.16
461.17	294.72
461.54	293.26
461.91	291.86
462.27	290.41
462.64	289.16
463.01	287.85
463.38	286.53
463.74	285.15
464.11	283.97
464.48	282.95
464.85	281.87
465.21	281.04
465.58	280.12
465.95	279.04
466.32	278.13
466.68	277.27
467.05	276.40
467.42	275.52
467.78	274.58
468.15	273.72
468.52	273.07
468.88	272.22
469.25	271.47
469.62	270.82
469.98	270.18
470.35	269.55
470.72	268.92
471.08	268.28
471.45	267.76
471.82	267.24
472.18	266.64
472.55	266.22
472.92	265.72
473.28	265.28
473.65	264.79
474.02	264.36
474.38	264.00
474.75	263.67
475.11	263.32
475.48	263.12
475.85	262.93
476.21	262.68
476.58	262.52
476.94	262.38
477.31	262.20
477.67	262.03
478.04	261.94
478.41	261.89
478.77	261.93
479.14	261.86
479.50	261.88
479.87	261.96
480.23	262.03
480.60	262.07
480.96	262.15
481.33	262.39
481.69	262.58
482.06	262.75
482.42	262.96
482.79	263.24
483.15	263.50
483.52	263.87
483.88	264.22
484.25	264.62
484.61	265.02
484.98	265.51
485.34	266.10
485.71	266.68
486.07	267.28
486.44	267.84
486.80	268.54
487.17	269.28
487.53	270.05
487.90	270.88
488.26	271.81
488.62	272.78
488.99	273.76
489.35	274.82
489.72	275.96
490.08	277.17
490.44	278.41
490.81	279.75
491.17	281.12
491.54	282.61
491.90	284.13
492.26	285.79
492.63	287.50
492.99	289.27
493.36	291.19
493.72	293.26
494.08	295.39
494.45	297.68
494.81	300.04
495.17	302.51
495.54	305.11
495.90	307.82
496.26	310.69
496.63	313.71
496.99	316.85
497.35	320.11
497.72	323.54
498.08	327.06
498.44	330.78
498.80	334.72
499.17	338.80
499.53	343.04
499.89	347.40
500.26	351.94
500.62	356.67
500.98	361.61
501.34	366.70
501.71	372.06
502.07	377.52
502.43	383.15
502.79	389.00
503.16	395.14
503.52	401.39
503.88	407.79
504.24	414.42
504.60	421.29
504.97	428.47
505.33	435.82
505.69	443.63
506.05	451.40
506.41	459.31
506.78	467.46
507.14	475.85
507.50	484.56
507.86	493.59
508.22	502.75
508.59	511.94
508.95	521.57
509.31	531.34
509.67	541.47
510.03	551.71
510.39	562.27
510.75	573.03
511.12	583.96
511.48	595.24
511.84	606.65
512.20	618.13
512.56	630.01
512.92	642.11
513.28	654.41
513.64	666.98
514.00	679.61
514.37	692.58
514.73	705.65
515.09	718.74
515.45	731.96
515.81	745.53
516.17	759.50
516.53	773.55
516.89	787.74
517.25	801.77
517.61	816.21
517.97	830.63
518.33	844.99
518.69	859.83
519.05	874.81
519.41	889.96
519.77	905.48
520.13	920.87
520.49	936.17
520.85	951.38
521.21	966.95
521.57	983.16
521.93	998.80
522.29	1015.16
522.65	1031.35
523.01	1047.53
523.37	1063.55
523.73	1079.73
524.09	1095.78
524.45	1111.89
524.81	1128.51
525.17	1145.16
525.53	1162.03
525.89	1178.87
526.25	1195.44
526.61	1211.75
526.97	1228.38
527.33	1244.83
527.68	1261.33
528.04	1277.76
528.40	1294.27
528.76	1311.17
529.12	1327.63
529.48	1344.41
529.84	1360.20
530.20	1376.71
530.56	1393.68
530.91	1410.97
531.27	1427.67
531.63	1444.08
531.99	1460.58
532.35	1476.40
532.71	1492.23
533.07	1508.36
533.42	1524.24
533.78	1540.27
534.14	1556.48
534.50	1571.64
534.86	1587.24
535.21	1602.39
535.57	1618.20
535.93	1633.67
536.29	1648.34
536.65	1663.36
537.00	1678.03
537.36	1693.29
537.72	1707.63
538.08	1721.86
538.44	1735.41
538.79	1748.95
539.15	1762.30
539.51	1775.94
539.87	1790.13
540.22	1803.73
540.58	1817.27
540.94	1830.20
541.29	1842.86
541.65	1855.32
542.01	1868.40
542.37	1880.72
542.72	1892.95
543.08	1904.49
543.44	1916.74
543.79	1927.93
544.15	1938.79
544.51	1950.33
544.87	1961.15
545.22	1971.84
545.58	1982.10
545.94	1991.74
546.29	2001.63
546.65	2011.67
547.01	2020.91
547.36	2029.53
547.72	2037.96
548.07	2045.76
548.43	2054.01
548.79	2062.12
549.14	2069.61
549.50	2076.97
549.86	2084.63
550.21	2091.87
550.57	2099.19
550.92	2105.83
551.28	2112.92
551.64	2119.97
551.99	2126.32
552.35	2132.62
552.70	2138.82
553.06	2144.72
553.41	2151.08
553.77	2157.12
554.13	2162.97
554.48	2169.25
554.84	2174.76
555.19	2180.01
555.55	2185.44
555.90	2190.02
556.26	2194.95
556.61	2199.74
556.97	2204.05
557.32	2208.10
557.68	2212.33
558.03	2216.54
558.39	2220.17
558.74	2224.86
559.10	2228.64
559.45	2232.40
559.81	2236.57
560.16	2240.38
560.52	2243.60
560.87	2247.05
561.23	2249.76
561.58	2252.76
561.94	2255.10
562.29	2257.41
562.64	2260.04
563.00	2262.37
563.35	2265.68
563.71	2268.70
564.06	2271.86
564.42	2274.73
564.77	2277.23
565.12	2279.49
565.48	2281.50
565.83	2283.33
566.19	2284.44
566.54	2285.40
566.89	2286.56
567.25	2287.24
567.60	2288.69
567.96	2290.40
568.31	2291.32
568.66	2292.56
569.02	2293.20
569.37	2293.61
569.72	2294.69
570.08	2295.00
570.43	2295.15
570.78	2294.71
571.14	2293.14
571.49	2291.97
571.84	2291.75
572.20	2290.79
572.55	2289.88
572.90	2288.34
573.26	2287.11
573.61	2285.54
573.96	2283.84
574.31	2280.93
574.67	2277.95
575.02	2274.23
575.37	2270.82
575.72	2267.12
576.08	2263.70
576.43	2260.38
576.78	2256.68
577.13	2253.53
577.49	2250.48
577.84	2247.03
578.19	2243.45
578.54	2240.15
578.90	2235.92
579.25	2230.40
579.60	2225.45
579.95	2220.37
580.30	2215.46
580.66	2210.30
581.01	2205.39
581.36	2200.59
581.71	2196.45
582.06	2191.94
582.42	2187.63
582.77	2182.60
583.12	2178.08
583.47	2173.40
583.82	2168.63
584.17	2163.47
584.53	2157.96
584.88	2152.32
585.23	2146.65
585.58	2141.19
585.93	2135.65
586.28	2131.05
586.63	2125.96
586.98	2121.03
587.34	2116.36
587.69	2111.58
588.04	2106.43
588.39	2100.86
588.74	2094.52
589.09	2088.48
589.44	2081.91
589.79	2075.97
590.14	2070.47
590.49	2063.94
590.84	2057.72
591.19	2051.65
591.54	2045.34
591.89	2038.13
592.25	2031.45
592.60	2024.26
592.95	2016.83
593.30	2009.65
593.65	2002.07
594.00	1995.19
594.35	1987.95
594.70	1980.05
595.05	1972.93
595.40	1965.66
595.75	1958.28
596.10	1952.06
596.45	1945.54
596.80	1939.36
597.15	1932.87
597.50	1925.85
597.85	1919.59
598.19	1912.94
598.54	1905.96
598.89	1899.32
599.24	1893.45
599.59	1886.79
599.94	1880.64
600.29	1874.30
600.64	1867.66
600.99	1860.23
601.34	1853.43
601.69	1846.58
602.04	1839.81
602.39	1832.46
602.74	1825.73
603.08	1818.96
603.43	1812.25
603.78	1804.86
604.13	1797.79
604.48	1790.41
604.83	1783.38
605.18	1776.40
605.53	1768.44
605.87	1760.47
606.22	1753.23
606.57	1745.10
606.92	1737.81
607.27	1730.54
607.62	1723.52
607.96	1716.13
608.31	1709.38
608.66	1701.71
609.01	1694.00
609.36	1686.46
609.70	1678.41
610.05	1670.38
610.40	1662.65
610.75	1654.29
611.10	1646.58
611.44	1638.09
611.79	1630.16
612.14	1621.55
612.49	1612.32
612.83	1603.96
613.18	1595.82
613.53	1587.80
613.88	1579.37
614.22	1571.10
614.57	1562.54
614.92	1554.63
615.27	1547.28
615.61	1539.11
615.96	1531.15
616.31	1523.68
616.65	1516.28
617.00	1508.66
617.35	1500.94
617.70	1492.73
618.04	1484.25
618.39	1476.02
618.74	1468.37
619.08	1459.94
619.43	1452.29
619.78	1445.38
620.12	1438.13
620.47	1430.60
620.82	1422.47
621.16	1415.25
621.51	1407.69
621.85	1400.22
622.20	1391.76
622.55	1383.33
622.89	1375.38
623.24	1367.77
623.59	1360.34
623.93	1352.81
624.28	1345.60
624.62	1338.06
624.97	1330.87
625.32	1324.24
625.66	1317.27
626.01	1310.10
626.35	1302.72
626.70	1295.04
627.04	1287.32
627.39	1279.58
627.73	1272.12
628.08	1265.17
628.43	1257.83
628.77	1250.40
629.12	1242.81
629.46	1235.59
629.81	1228.07
630.15	1220.92
630.50	1213.57
630.84	1205.31
631.19	1197.48
631.53	1190.07
631.88	1182.62
632.22	1174.95
632.57	1167.48
632.91	1159.86
633.26	1152.56
633.60	1145.18
633.95	1138.02
634.29	1131.01
634.64	1124.42
634.98	1117.16
635.32	1110.00
635.67	1103.23
636.01	1096.69
636.36	1089.92
636.70	1083.48
637.05	1076.98
637.39	1070.47
637.73	1063.92
638.08	1058.09
638.42	1052.04
638.77	1045.47
639.11	1038.90
639.45	1032.46
639.80	1025.97
640.14	1019.68
640.49	1013.15
640.83	1006.90
641.17	1000.69
641.52	994.38
641.86	987.90
642.20	982.05
642.55	975.70
642.89	969.35
643.23	962.72
643.58	956.87
643.92	950.57
644.26	944.53
644.61	938.55
644.95	932.50
645.29	925.92
645.64	919.20
645.98	912.93
646.32	907.00
646.66	901.06
647.01	895.16
647.35	889.34
647.69	883.44
648.04	877.90
648.38	872.11
648.72	866.08
649.06	859.96
649.41	853.99
649.75	848.08
650.09	842.08
650.43	836.40
650.78	830.20
651.12	824.23
651.46	818.48
651.80	812.69
652.14	807.30
652.49	801.94
652.83	796.76
653.17	791.08
653.51	785.38
653.85	779.96
654.20	774.32
654.54	768.27
654.88	762.54
655.22	756.63
655.56	750.93
655.90	745.45
656.25	740.20
656.59	734.85
656.93	729.75
657.27	724.60
657.61	719.15
657.95	714.15
658.29	709.11
658.64	703.93
658.98	698.67
659.32	693.19
659.66	687.91
660.00	682.55
660.34	677.60
660.68	672.66
661.02	667.61
661.36	662.93
661.70	658.47
662.05	654.13
662.39	649.80
662.73	645.38
663.07	641.03
663.41	636.66
663.75	632.17
664.09	627.63
664.43	623.26
664.77	619.15
665.11	614.89
665.45	610.72
665.79	606.60
666.13	602.48
666.47	598.50
666.81	594.42
667.15	590.36
667.49	586.45
667.83	582.68
668.17	578.77
668.51	574.69
668.85	570.68
669.19	566.83
669.53	563.00
669.87	559.07
670.21	555.35
670.55	551.64
670.89	548.17
671.23	544.67
671.57	541.09
671.91	537.47
672.25	533.94
672.58	530.43
672.92	527.04
673.26	523.84
673.60	520.57
673.94	517.41
674.28	514.45
674.62	511.41
674.96	508.24
675.30	505.36
675.64	502.44
675.97	499.67
676.31	496.78
676.65	493.88
676.99	491.21
677.33	488.30
677.67	485.50
678.01	482.48
678.34	479.52
678.68	476.73
679.02	473.94
679.36	471.20
679.70	468.46
680.04	465.67
680.37	462.80
680.71	460.01
681.05	457.39
681.39	454.65
681.73	452.08
682.06	449.54
682.40	446.94
682.74	444.35
683.08	441.77
683.42	439.22
683.75	436.63
684.09	434.08
684.43	431.62
684.77	429.19
685.10	426.83
685.44	424.53
685.78	422.24
686.12	419.96
686.45	417.65
686.79	415.33
687.13	413.14
687.46	410.97
687.80	408.83
688.14	406.60
688.48	404.61
688.81	402.35
689.15	400.18
689.49	398.00
689.82	395.92
690.16	393.85
690.50	391.85
690.83	389.98
691.17	387.94
691.51	386.05
691.84	384.18
692.18	382.21
692.52	380.20
692.85	378.27
693.19	376.39
693.52	374.57
693.86	372.76
694.20	370.98
694.53	369.21
694.87	367.37
695.21	365.62
695.54	363.72
695.88	361.96
696.21	360.30
696.55	358.68
696.88	357.03
697.22	355.37
697.56	353.74
697.89	352.06
698.23	350.48
698.56	348.87
698.90	347.30
699.23	345.73
699.57	344.22
699.90	342.66
700.24	341.15
700.58	339.61
700.91	338.10
701.25	336.64
701.58	335.23
701.92	333.89
702.25	332.48
702.59	331.12
702.92	329.82
703.26	328.47
703.59	327.16
703.93	325.97
704.26	324.76
704.60	323.48
704.93	322.21
705.26	320.98
705.60	319.78
705.93	318.56
706.27	317.47
706.60	316.39
706.94	315.30
707.27	314.14
707.61	313.10
707.94	312.10
708.27	310.98
708.61	309.90
708.94	308.87
709.28	307.94
709.61	306.98
709.94	306.02
710.28	305.01
710.61	304.04
710.95	302.94
711.28	301.99
711.61	301.05
711.95	300.11
712.28	299.19
712.61	298.21
712.95	297.31
713.28	296.43
713.61	295.54
713.95	294.65
714.28	293.81
714.61	292.97
714.95	292.12
715.28	291.28
715.61	290.38
715.95	289.50
716.28	288.61
716.61	287.76
716.95	286.96
717.28	286.20
717.61	285.41
717.94	284.66
718.28	283.85
718.61	283.10
718.94	282.41
719.27	281.73
719.61	281.10
719.94	280.41
720.27	279.70
720.60	279.06
720.94	278.42
721.27	277.80
721.60	277.16
721.93	276.53
722.27	276.00
722.60	275.49
722.93	274.92
723.26	274.36
723.59	273.82
723.93	273.27
724.26	272.69
724.59	272.16
724.92	271.65
725.25	271.17
725.59	270.63
725.92	270.12
726.25	269.59
726.58	269.08
726.91	268.61
727.24	268.16
727.57	267.62
727.91	267.14
728.24	266.69
728.57	266.19
728.90	265.73
729.23	265.23
729.56	264.76
729.89	264.27
730.22	263.80
730.55	263.35
730.89	262.90
731.22	262.48
731.55	262.04
731.88	261.60
732.21	261.14
732.54	260.75
732.87	260.31
733.20	259.93
733.53	259.54
733.86	259.14
734.19	258.77
734.52	258.43
734.85	258.10
735.18	257.68
735.51	257.35
735.84	256.97
736.17	256.60
736.50	256.24
736.83	256.01
737.16	255.71
737.49	255.39
737.82	255.01
738.15	254.67
738.48	254.33
738.81	254.02
739.14	253.72
739.47	253.39
739.80	253.10
740.13	252.80
740.46	252.47
740.79	252.15
741.12	251.85
741.45	251.56
741.78	251.21
742.11	250.95
742.44	250.62
742.77	250.34
743.10	250.03
743.43	249.72
743.75	249.35
744.08	249.20
744.41	248.90
744.74	248.66
745.07	248.36
745.40	248.15
745.73	247.92
746.06	247.66
746.39	247.40
746.71	247.14
747.04	246.85
747.37	246.61
747.70	246.37
748.03	246.08
748.36	245.82
748.68	245.60
749.01	245.35
749.34	245.16
749.67	244.96
750.00	244.77
750.33	244.61
750.65	244.40
750.98	244.02
751.31	243.82
751.64	243.60
751.97	243.45
752.29	243.19
752.62	242.93
752.95	242.72
753.28	242.52
753.60	242.31
753.93	242.14
754.26	241.96
754.59	241.75
754.91	241.53
755.24	241.35
755.57	241.17
755.90	241.00
756.22	240.79
756.55	240.60
756.88	240.39
757.20	240.17
757.53	239.99
757.86	239.82
758.19	239.68
758.51	239.51
758.84	239.33
759.17	239.20
759.49	239.02
759.82	238.90
760.15	238.72
760.47	238.56
760.80	238.39
761.13	238.23
761.45	238.10
761.78	237.96
762.11	237.81
762.43	237.66
762.76	237.49
763.08	237.35
763.41	237.18
763.74	237.04
764.06	236.87
764.39	236.73
764.71	236.59
765.04	236.42
765.37	236.24
765.69	236.09
766.02	235.91
766.34	235.79
766.67	235.60
767.00	235.51
767.32	235.43
767.65	235.36
767.97	235.20
768.30	235.03
768.62	234.91
768.95	234.78
769.27	234.67
769.60	234.58
769.92	234.43
770.25	234.31
770.57	234.20
770.90	234.13
771.22	234.02
771.55	233.92
771.87	233.83
772.20	233.77
772.52	233.72
772.85	233.78
773.17	233.68
773.50	233.59
773.82	233.51
774.15	233.36
774.47	233.20
774.80	233.13
775.12	233.08
775.45	232.99
775.77	232.90
776.09	232.81
776.42	232.71
776.74	232.68
777.07	232.64
777.39	232.54
777.72	232.45
778.04	232.39
778.36	232.30
778.69	232.23
779.01	232.17
779.33	232.06
779.66	231.88
779.98	231.83
780.31	231.78
780.63	231.76
780.95	231.74
781.28	231.72
781.60	231.66
781.92	231.57
782.25	231.53
782.57	231.50
782.89	231.46
783.22	231.43
783.54	231.34
783.86	231.27
784.19	231.23
784.51	231.22
784.83	231.19
785.16	231.16
785.48	231.13
785.80	231.10
786.12	231.04
786.45	230.96
786.77	230.94
787.09	230.92
787.42	230.83
787.74	230.79
788.06	230.76
788.38	230.72
788.71	230.68
789.03	230.67
789.35	230.65
789.67	230.59
789.99	230.54
790.32	230.51
790.64	230.47
790.96	230.50
791.28	230.42
791.61	230.36
791.93	230.31
792.25	230.28
792.57	230.29
792.89	230.23
793.21	230.20
793.54	230.14
793.86	230.06
794.18	230.03
794.50	229.97
794.82	229.91
795.14	229.86
795.47	229.85
795.79	229.80
796.11	229.70
796.43	229.67
796.75	229.64
797.07	229.62
797.39	229.59
797.71	229.50
798.04	229.47
798.36	229.42
798.68	229.39
799.00	229.31
799.32	229.22
799.64	229.24
799.96	229.22
800.28	229.18
800.60	229.13
800.92	229.08
801.24	229.03
801.56	229.01
801.89	228.98
802.21	228.95
802.53	228.87
802.85	228.89
803.17	228.88
803.49	228.80
803.81	228.73
804.13	228.69
804.45	228.63
804.77	228.61
805.09	228.58
805.41	228.55
805.73	228.53
806.05	228.46
806.37	228.40
806.69	228.36
807.01	228.31
807.33	228.31
807.65	228.23
807.97	228.19
808.28	228.16
808.60	228.14
808.92	228.12
809.24	228.16
809.56	228.12
809.88	228.06
810.20	228.06
810.52	228.08
810.84	228.03
811.16	228.04
811.48	227.99
811.80	228.02
812.12	227.98
812.43	227.96
812.75	227.96
813.07	227.91
813.39	227.91
813.71	227.90
814.03	227.88
814.35	227.89
814.67	227.86
814.98	227.83
815.30	227.81
815.62	227.74
815.94	227.64
816.26	227.65
816.58	227.62
816.89	227.59
817.21	227.53
817.53	227.51
817.85	227.49
818.17	227.49
818.48	227.43
818.80	227.47
819.12	227.45
819.44	227.44
819.76	227.47
820.07	227.44
820.39	227.46
820.71	227.45
821.03	227.45
821.34	227.44
821.66	227.43
821.98	227.44
822.30	227.45
822.61	227.53
822.93	227.50
823.25	227.52
823.57	227.52
823.88	227.52
824.20	227.53
824.52	227.52
824.83	227.53
825.15	227.49
825.47	227.45
825.79	227.46
826.10	227.43
826.42	227.39
826.74	227.40
827.05	227.35
827.37	227.33
827.69	227.34
828.00	227.32
828.32	227.37
828.64	227.32
828.95	227.37
829.27	227.31
829.58	227.28
829.90	227.28
830.22	227.27
830.53	227.26
830.85	227.25
831.17	227.18
831.48	227.17
831.80	227.18
832.11	227.17
832.43	227.14
832.75	227.12
833.06	227.18
833.38	227.14
833.69	227.13
834.01	227.13
834.32	227.11
834.64	227.10
834.96	227.08
835.27	227.09
835.59	227.03
835.90	227.03
836.22	227.04
836.53	227.00
836.85	227.00
837.16	227.08
837.48	227.09
837.79	227.15
838.11	227.12
838.42	227.14
838.74	227.14
839.05	227.13
839.37	227.13
839.68	227.05
840.00	227.04
840.31	227.05
840.63	227.01
840.94	226.99
841.26	226.98
841.57	226.94
841.88	226.92
842.20	226.90
842.51	226.87
842.83	226.84
843.14	226.91
843.46	226.88
843.77	226.83
844.08	226.78
844.40	226.73
844.71	226.70
845.03	226.67
845.34	226.62
845.65	226.57
845.97	226.55
846.28	226.51
846.60	226.49
846.91	226.50
847.22	226.52
847.54	226.51
847.85	226.52
848.16	226.53
848.48	226.51
848.79	226.54
849.10	226.55
849.42	226.56
849.73	226.46
850.04	226.44
850.36	226.39
850.67	226.41
850.98	226.41
851.30	226.42
851.61	226.41
851.92	226.44
852.23	226.49
852.55	226.49
852.86	226.51
853.17	226.52
853.49	226.47
853.80	226.46
854.11	226.49
854.42	226.48
854.74	226.43
855.05	226.43
855.36	226.36
855.67	226.35
855.99	226.35
856.30	226.49
856.61	226.47
856.92	226.49
857.23	226.49
857.55	226.47
857.86	226.44
858.17	226.46
858.48	226.44
858.79	226.43
859.11	226.46
859.42	226.49
859.73	226.50
860.04	226.54
860.35	226.51
860.66	226.45
860.98	226.46
861.29	226.47
861.60	226.50
861.91	226.53
862.22	226.51
862.53	226.50
862.84	226.36
863.16	226.39
863.47	226.36
863.78	226.35
864.09	226.39
864.40	226.42
864.71	226.40
865.02	226.41
865.33	226.41
865.64	226.39
865.95	226.38
866.27	226.45
866.58	226.44
866.89	226.49
867.20	226.49
867.51	226.47
867.82	226.49
868.13	226.49
868.44	226.49
868.75	226.52
869.06	226.51
869.37	226.53
869.68	226.50
869.99	226.54
870.30	226.57
870.61	226.56
870.92	226.56
871.23	226.57
871.54	226.58
871.85	226.56
872.16	226.57
872.47	226.56
872.78	226.49
873.09	226.46
873.40	226.44
873.71	226.46
874.02	226.50
874.33	226.48
874.64	226.45
874.95	226.47
875.26	226.45
875.56	226.47
875.87	226.46
876.18	226.49
876.49	226.55
876.80	226.53
877.11	226.49
877.42	226.49
877.73	226.50
878.04	226.49
878.35	226.50
878.66	226.50
878.96	226.48
879.27	226.45
879.58	226.48
879.89	226.43
880.20	226.47
880.51	226.43
880.82	226.43
881.12	226.46
881.43	226.43
881.74	226.41
882.05	226.40
882.36	226.41
882.67	226.36
882.97	226.26
883.28	226.24
883.59	226.27
883.90	226.23
884.21	226.22
884.51	226.20
884.82	226.18
885.13	226.18
885.44	226.18
885.74	226.19
886.05	226.19
886.36	226.22
886.67	226.14
886.98	226.20
887.28	226.20
887.59	226.17
887.90	226.17
888.20	226.18
888.51	226.17
888.82	226.14
889.13	226.14
889.43	226.20
889.74	226.18
890.05	226.14
890.35	226.14
890.66	226.11
890.97	226.12
891.28	226.12
891.58	226.08
891.89	226.09
892.20	226.07
892.50	226.03
892.81	225.99
893.12	226.04
893.42	225.94
893.73	225.92
894.04	225.94
894.34	225.94
894.65	225.93
894.95	225.93
895.26	225.93
895.57	225.98
895.87	225.93
896.18	225.97
896.48	225.97
896.79	225.99
897.10	226.01
897.40	226.00
897.71	226.01
898.01	226.03
898.32	226.02
898.63	226.04
898.93	226.07
899.24	226.08
899.54	226.02
899.85	226.04
900.15	226.06
900.46	226.06
900.76	226.05
901.07	226.04
901.38	226.02
901.68	226.05
901.99	226.01
902.29	225.97
902.60	225.98
902.90	225.98
903.21	226.00
903.51	226.02
903.82	226.06
904.12	226.06
904.43	226.09
904.73	226.10
905.03	226.10
905.34	226.20
905.64	226.22
905.95	226.27
906.25	226.27
906.56	226.26
906.86	226.25
907.17	226.27
907.47	226.29
907.77	226.32
908.08	226.28
908.38	226.29
908.69	226.32
908.99	226.33
909.30	226.34
909.60	226.32
909.90	226.31
910.21	226.27
910.51	226.26
910.81	226.22
911.12	226.23
911.42	226.22
911.73	226.14
912.03	226.16
912.33	226.17
912.64	226.19
912.94	226.16
913.24	226.14
913.55	226.14
913.85	226.14
914.15	226.14
914.46	226.16
914.76	226.17
915.06	226.17
915.37	226.14
915.67	226.17
915.97	226.17
916.27	226.13
916.58	226.12
916.88	226.10
917.18	226.09
917.49	226.14
917.79	226.12
918.09	226.11
918.39	226.14
918.70	226.13
919.00	226.14
919.30	226.18
919.60	226.15
919.91	226.10
920.21	226.12
920.51	226.09
920.81	226.09
921.12	226.08
921.42	226.10
921.72	226.07
922.02	226.04
922.32	226.05
922.63	226.05
922.93	226.09
923.23	226.11
923.53	226.08
923.83	226.02
924.13	226.03
924.44	226.01
924.74	225.98
925.04	225.97
925.34	225.94
925.64	225.94
925.94	225.98
926.24	226.04
926.55	226.00
926.85	226.00
927.15	225.95
927.45	225.93
927.75	225.88
928.05	225.87
928.35	225.85
928.65	225.87
928.95	225.86
929.26	225.82
929.56	225.82
929.86	225.83
930.16	225.80
930.46	225.81
930.76	225.80
931.06	225.71
931.36	225.72
931.66	225.74
931.96	225.72
932.26	225.73
932.56	225.71
932.86	225.71
933.16	225.74
933.46	225.76
933.76	225.75
934.06	225.82
934.36	225.88
934.66	225.89
934.96	225.87
935.26	225.87
935.56	225.87
935.86	225.90
936.16	225.91
936.46	225.91
936.76	225.88
937.06	225.90
937.36	225.94
937.66	225.93
937.96	225.95
938.26	225.92
938.56	225.90
938.86	225.90
939.16	225.94
939.46	225.95
939.76	225.98
940.06	225.97
940.35	225.95
940.65	225.91
940.95	225.94
941.25	225.92
941.55	225.93
941.85	225.96
942.15	225.96
942.45	225.98
942.75	225.98
943.04	226.00
943.34	226.03
943.64	226.05
943.94	226.04
944.24	226.01
944.54	226.04
944.84	226.04
945.13	226.00
945.43	225.99
945.73	225.96
946.03	225.97
946.33	226.01
946.62	226.01
946.92	226.00
947.22	225.99
947.52	226.02
947.82	226.05
948.11	226.03
948.41	226.05
948.71	226.06
949.01	226.07
949.31	226.09
949.60	226.09
949.90	226.11
950.20	226.10
950.50	226.11
950.79	226.14
951.09	226.15
951.39	226.19
951.69	226.18
951.98	226.19
952.28	226.16
952.58	226.14
952.87	226.13
953.17	226.16
953.47	226.16
953.76	226.14
954.06	226.12
954.36	226.13
954.66	226.12
954.95	226.12
955.25	226.12
955.55	226.11
955.84	226.09
956.14	226.08
956.44	226.09
956.73	226.07
957.03	226.07
957.32	226.08
957.62	226.06
957.92	226.10
958.21	226.10
958.51	226.21
958.81	226.21
959.10	226.20
959.40	226.20
959.69	226.19
959.99	226.19
960.29	226.20
960.58	226.15
960.88	226.17
961.17	226.13
961.47	226.17
961.76	226.14
962.06	226.11
962.36	226.09
962.65	226.08
962.95	226.10
963.24	226.08
963.54	226.07
963.83	226.07
964.13	226.04
964.42	226.03
964.72	225.94
965.01	225.93
965.31	225.94
965.60	225.94
965.90	226.01
966.19	225.99
966.49	225.98
966.78	225.98
967.08	225.96
967.37	225.96
967.67	225.91
967.96	225.91
968.26	225.93
968.55	225.96
968.85	225.94
969.14	225.93
969.43	225.93
969.73	225.95
970.02	225.94
970.32	225.94
970.61	225.95
970.91	225.95
971.20	225.96
971.49	225.93
971.79	225.93
972.08	225.86
972.38	225.86
972.67	225.84
972.96	225.89
973.26	225.85
973.55	225.85
973.85	225.84
974.14	225.83
974.43	225.84
974.73	225.82
975.02	225.82
975.31	225.82
975.61	225.79
975.90	225.78
976.19	225.76
976.49	225.75
976.78	225.75
977.07	225.74
977.37	225.72
977.66	225.74
977.95	225.72
978.24	225.73
978.54	225.74
978.83	225.73
979.12	225.70
979.42	225.73
979.71	225.74
980.00	225.75
980.29	225.80
980.59	225.80
980.88	225.79
981.17	225.78
981.46	225.76
981.76	225.80
982.05	225.81
982.34	225.81
982.63	225.83
982.93	225.84
983.22	225.83
983.51	225.88
983.80	225.92
984.09	225.96
984.39	225.96
984.68	226.01
984.97	226.03
985.26	226.02
985.55	226.07
985.85	226.06
986.14	226.09
986.43	226.10
986.72	226.08
987.01	226.11
987.30	226.10
987.59	226.12
987.89	226.14
988.18	226.09
988.47	226.11
988.76	226.07
989.05	226.06
989.34	226.06
989.63	226.04
989.92	226.01
990.22	225.98
990.51	225.99
990.80	225.97
991.09	225.97
991.38	225.96
991.67	225.90
991.96	225.90
992.25	225.92
992.54	225.88
992.83	225.88
993.12	225.88
993.41	225.89
993.70	225.92
993.99	225.89
994.28	225.92
994.58	225.92
994.87	225.92
995.16	225.91
995.45	225.89
995.74	225.90
996.03	225.92
996.32	225.90
996.61	225.91
996.90	225.90
997.19	225.90
997.48	225.95
997.77	225.95
998.06	225.97
998.34	225.93
998.63	225.93
998.92	225.91
999.21	225.89
999.50	225.92
999.79	225.89
1000.08	225.91
1000.37	225.93
1000.66	225.91
1000.95	225.92
1001.24	225.93
1001.53	225.95
1001.82	225.87
1002.11	225.84
1002.40	225.86
1002.68	225.85
1002.97	225.92
1003.26	225.92
1003.55	225.91
1003.84	225.90
1004.13	225.89
1004.42	225.87
1004.71	225.89
1004.99	225.91
1005.28	225.93
1005.57	225.89
1005.86	225.90
1006.15	225.89
1006.44	225.87
1006.72	225.86
1007.01	225.85
1007.30	225.86
1007.59	225.88
1007.88	225.89
1008.17	225.91
1008.45	225.92
1008.74	225.90
1009.03	225.87
1009.32	225.83
1009.60	225.79
1009.89	225.80
1010.18	225.78
1010.47	225.78
1010.76	225.74
1011.04	225.71
1011.33	225.70
1011.62	225.74
1011.91	225.73
1012.19	225.75
1012.48	225.73
1012.77	225.75
1013.05	225.80
1013.34	225.79
1013.63	225.75
1013.92	225.76
1014.20	225.69
1014.49	225.69
1014.78	225.69
1015.06	225.64
1015.35	225.66
1015.64	225.68
1015.92	225.70
1016.21	225.71
1016.50	225.70
1016.78	225.75
1017.07	225.80
1017.36	225.80
1017.64	225.75
1017.93	225.77
1018.22	225.77
1018.50	225.78
1018.79	225.79
1019.08	225.75
1019.36	225.77
1019.65	225.79
1019.93	225.83
1020.22	225.91
1020.51	225.96
1020.79	225.97
1021.08	225.98
1021.36	225.98
1021.65	225.97
1021.94	225.68
1022.22	226.53
1022.51	225.54
1022.79	226.49
1023.08	226.18
1023.36	227.31
1023.65	225.80
>>>>>End Processed Spectral Data<<<<<
