SpectraSuite Data File
++++++++++++++++++++++++++++++++++++
Date: Fri Feb 01 15:40:32 EST 2013
User: group
Dark Spectrum Present: No
Reference Spectrum Present: No
Number of Sampled Component Spectra: 1
Spectrometers: USB2E7196
Integration Time (usec): 35000 (USB2E7196)
Spectra Averaged: 100 (USB2E7196)
Boxcar Smoothing: 10 (USB2E7196)
Correct for Electrical Dark: No (USB2E7196)
Strobe/Lamp Enabled: No (USB2E7196)
Correct for Detector Non-linearity: No (USB2E7196)
Correct for Stray Light: No (USB2E7196)
Number of Pixels in Processed Spectrum: 2048
>>>>>Begin Processed Spectral Data<<<<<
339.09	0.00
339.48	215.25
339.86	216.20
340.24	217.52
340.63	219.07
341.01	222.20
341.39	221.55
341.78	223.50
342.16	224.23
342.54	224.42
342.93	213.24
343.31	224.01
343.69	224.53
344.07	225.00
344.46	225.44
344.84	225.81
345.22	226.05
345.60	226.33
345.99	226.49
346.37	226.64
346.75	226.73
347.13	226.81
347.52	226.84
347.90	226.93
348.28	226.93
348.66	226.95
349.05	226.93
349.43	226.97
349.81	227.00
350.19	227.06
350.57	227.11
350.96	227.19
351.34	227.28
351.72	227.38
352.10	227.45
352.48	227.51
352.87	227.56
353.25	227.60
353.63	227.65
354.01	227.71
354.39	227.77
354.77	227.86
355.15	227.95
355.54	228.04
355.92	228.08
356.30	228.14
356.68	228.30
357.06	228.37
357.44	228.39
357.82	228.47
358.20	228.53
358.58	228.57
358.97	228.63
359.35	228.72
359.73	228.80
360.11	228.89
360.49	228.92
360.87	228.98
361.25	229.04
361.63	229.11
362.01	229.17
362.39	229.20
362.77	229.25
363.15	229.26
363.53	229.30
363.91	229.32
364.29	229.38
364.67	229.30
365.05	229.29
365.43	229.33
365.81	229.35
366.19	229.42
366.57	229.45
366.95	229.41
367.33	229.36
367.71	229.33
368.09	229.31
368.47	229.32
368.85	229.30
369.23	229.29
369.61	229.22
369.99	229.22
370.37	229.20
370.75	229.22
371.13	229.18
371.51	229.11
371.89	229.05
372.27	229.00
372.65	228.98
373.03	228.95
373.41	228.89
373.78	228.83
374.16	228.69
374.54	228.62
374.92	228.58
375.30	228.55
375.68	228.47
376.06	228.42
376.44	228.38
376.82	228.33
377.19	228.27
377.57	228.19
377.95	228.10
378.33	228.05
378.71	227.92
379.09	227.87
379.47	227.80
379.84	227.74
380.22	227.64
380.60	227.54
380.98	227.46
381.36	227.38
381.73	227.30
382.11	227.26
382.49	227.16
382.87	227.10
383.25	227.02
383.62	227.07
384.00	226.97
384.38	226.87
384.76	226.79
385.13	226.76
385.51	226.73
385.89	226.65
386.27	226.58
386.64	226.55
387.02	226.50
387.40	226.42
387.78	226.40
388.15	226.39
388.53	226.31
388.91	226.28
389.29	226.23
389.66	226.24
390.04	226.21
390.42	226.20
390.79	226.15
391.17	226.13
391.55	225.97
391.92	225.98
392.30	226.01
392.68	226.01
393.05	225.98
393.43	225.99
393.81	225.97
394.18	225.95
394.56	225.95
394.94	225.93
395.31	225.98
395.69	226.05
396.06	226.08
396.44	226.16
396.82	226.19
397.19	226.30
397.57	226.29
397.95	226.34
398.32	226.39
398.70	226.45
399.07	226.52
399.45	226.61
399.82	226.67
400.20	226.71
400.58	226.79
400.95	226.84
401.33	226.93
401.70	227.10
402.08	227.21
402.45	227.32
402.83	227.45
403.20	227.56
403.58	227.64
403.95	227.77
404.33	227.90
404.71	228.02
405.08	228.20
405.46	228.37
405.83	228.52
406.21	228.68
406.58	228.84
406.96	229.03
407.33	229.26
407.70	229.45
408.08	229.74
408.45	229.94
408.83	230.18
409.20	230.40
409.58	230.60
409.95	230.86
410.33	231.15
410.70	231.43
411.08	231.74
411.45	232.07
411.82	232.38
412.20	232.78
412.57	233.20
412.95	233.50
413.32	233.92
413.69	234.36
414.07	234.78
414.44	235.27
414.82	235.73
415.19	236.26
415.56	236.83
415.94	237.38
416.31	238.04
416.68	238.69
417.06	239.44
417.43	240.15
417.81	240.93
418.18	241.71
418.55	242.58
418.93	243.46
419.30	244.37
419.67	245.31
420.04	246.28
420.42	247.28
420.79	248.49
421.16	249.64
421.54	250.79
421.91	252.03
422.28	253.29
422.66	254.62
423.03	255.95
423.40	257.30
423.77	258.70
424.15	260.11
424.52	261.58
424.89	263.18
425.26	264.73
425.64	266.19
426.01	267.79
426.38	269.45
426.75	271.09
427.13	272.77
427.50	274.62
427.87	276.47
428.24	278.37
428.61	280.08
428.99	282.01
429.36	284.16
429.73	286.24
430.10	288.27
430.47	290.35
430.85	292.44
431.22	294.68
431.59	297.07
431.96	299.30
432.33	301.81
432.70	304.18
433.08	307.00
433.45	309.65
433.82	312.28
434.19	315.15
434.56	317.96
434.93	320.64
435.30	323.23
435.68	326.15
436.05	328.91
436.42	331.72
436.79	334.23
437.16	336.89
437.53	339.67
437.90	342.43
438.27	345.14
438.64	348.00
439.01	350.59
439.38	352.83
439.75	355.02
440.13	357.54
440.50	359.90
440.87	361.68
441.24	363.61
441.61	365.74
441.98	367.23
442.35	369.03
442.72	370.96
443.09	372.73
443.46	373.69
443.83	374.32
444.20	374.80
444.57	375.65
444.94	375.90
445.31	376.27
445.68	376.63
446.05	376.74
446.42	376.32
446.79	375.86
447.16	375.42
447.53	375.09
447.90	373.89
448.27	372.67
448.64	371.14
449.01	369.97
449.37	367.99
449.74	366.09
450.11	363.85
450.48	361.36
450.85	358.82
451.22	356.70
451.59	354.69
451.96	352.72
452.33	350.15
452.70	347.83
453.07	344.99
453.43	342.10
453.80	339.30
454.17	336.64
454.54	334.13
454.91	331.42
455.28	328.77
455.65	326.28
456.02	323.81
456.38	321.63
456.75	318.98
457.12	316.78
457.49	314.56
457.86	312.41
458.23	310.50
458.59	308.51
458.96	306.40
459.33	304.51
459.70	302.67
460.07	301.17
460.43	299.42
460.80	297.84
461.17	296.43
461.54	294.95
461.91	293.53
462.27	292.05
462.64	290.76
463.01	289.40
463.38	288.12
463.74	286.80
464.11	285.64
464.48	284.59
464.85	283.44
465.21	282.54
465.58	281.60
465.95	280.49
466.32	279.58
466.68	278.70
467.05	277.82
467.42	276.94
467.78	276.01
468.15	275.15
468.52	274.50
468.88	273.67
469.25	272.92
469.62	272.30
469.98	271.68
470.35	271.07
470.72	270.48
471.08	269.84
471.45	269.29
471.82	268.80
472.18	268.22
472.55	267.81
472.92	267.29
473.28	266.84
473.65	266.42
474.02	265.98
474.38	265.64
474.75	265.36
475.11	265.03
475.48	264.75
475.85	264.54
476.21	264.27
476.58	264.08
476.94	263.91
477.31	263.73
477.67	263.56
478.04	263.43
478.41	263.34
478.77	263.37
479.14	263.30
479.50	263.29
479.87	263.39
480.23	263.46
480.60	263.54
480.96	263.64
481.33	263.82
481.69	264.01
482.06	264.19
482.42	264.38
482.79	264.62
483.15	264.94
483.52	265.34
483.88	265.69
484.25	266.04
484.61	266.47
484.98	266.94
485.34	267.49
485.71	268.11
486.07	268.72
486.44	269.29
486.80	269.95
487.17	270.68
487.53	271.49
487.90	272.33
488.26	273.27
488.62	274.25
488.99	275.24
489.35	276.28
489.72	277.38
490.08	278.59
490.44	279.81
490.81	281.17
491.17	282.47
491.54	283.92
491.90	285.49
492.26	287.14
492.63	288.88
492.99	290.61
493.36	292.49
493.72	294.53
494.08	296.61
494.45	298.87
494.81	301.22
495.17	303.64
495.54	306.18
495.90	308.85
496.26	311.63
496.63	314.58
496.99	317.64
497.35	320.84
497.72	324.18
498.08	327.72
498.44	331.30
498.80	335.25
499.17	339.27
499.53	343.43
499.89	347.76
500.26	352.27
500.62	356.96
500.98	361.93
501.34	367.02
501.71	372.35
502.07	377.79
502.43	383.37
502.79	389.16
503.16	395.24
503.52	401.48
503.88	407.91
504.24	414.52
504.60	421.39
504.97	428.54
505.33	435.93
505.69	443.60
506.05	451.43
506.41	459.28
506.78	467.45
507.14	475.88
507.50	484.55
507.86	493.58
508.22	502.75
508.59	511.96
508.95	521.55
509.31	531.39
509.67	541.48
510.03	551.79
510.39	562.33
510.75	573.17
511.12	584.14
511.48	595.41
511.84	606.94
512.20	618.47
512.56	630.40
512.92	642.56
513.28	654.85
513.64	667.36
514.00	680.18
514.37	693.11
514.73	706.18
515.09	719.26
515.45	732.52
515.81	746.13
516.17	760.14
516.53	774.30
516.89	788.42
517.25	802.67
517.61	817.16
517.97	831.67
518.33	846.08
518.69	860.84
519.05	875.90
519.41	891.08
519.77	906.72
520.13	922.22
520.49	937.62
520.85	953.22
521.21	968.92
521.57	985.17
521.93	1000.97
522.29	1017.36
522.65	1033.70
523.01	1049.93
523.37	1066.02
523.73	1082.14
524.09	1098.20
524.45	1114.65
524.81	1131.23
525.17	1148.12
525.53	1164.95
525.89	1181.81
526.25	1198.62
526.61	1215.02
526.97	1231.70
527.33	1248.11
527.68	1264.75
528.04	1281.29
528.40	1297.78
528.76	1314.75
529.12	1331.30
529.48	1348.16
529.84	1364.27
530.20	1380.88
530.56	1397.89
530.91	1415.36
531.27	1432.16
531.63	1448.61
531.99	1465.19
532.35	1481.35
532.71	1497.09
533.07	1513.42
533.42	1529.36
533.78	1545.54
534.14	1561.77
534.50	1577.23
534.86	1593.05
535.21	1608.15
535.57	1624.10
535.93	1639.70
536.29	1654.54
536.65	1669.67
537.00	1684.54
537.36	1699.86
537.72	1714.41
538.08	1728.77
538.44	1742.49
538.79	1756.34
539.15	1770.09
539.51	1783.78
539.87	1798.00
540.22	1811.84
540.58	1825.60
540.94	1838.97
541.29	1851.81
541.65	1864.52
542.01	1877.66
542.37	1889.88
542.72	1902.40
543.08	1914.13
543.44	1926.52
543.79	1937.82
544.15	1948.72
544.51	1960.20
544.87	1971.15
545.22	1981.98
545.58	1992.31
545.94	2002.09
546.29	2012.07
546.65	2021.94
547.01	2031.20
547.36	2039.94
547.72	2048.35
548.07	2056.34
548.43	2064.48
548.79	2072.60
549.14	2080.16
549.50	2087.55
549.86	2095.47
550.21	2102.79
550.57	2109.93
550.92	2116.38
551.28	2123.44
551.64	2130.57
551.99	2137.07
552.35	2143.19
552.70	2149.37
553.06	2155.31
553.41	2161.56
553.77	2167.44
554.13	2173.46
554.48	2179.52
554.84	2184.84
555.19	2190.30
555.55	2195.48
555.90	2199.98
556.26	2204.81
556.61	2209.57
556.97	2213.75
557.32	2217.76
557.68	2221.92
558.03	2226.43
558.39	2230.24
558.74	2234.79
559.10	2238.62
559.45	2242.35
559.81	2246.67
560.16	2250.47
560.52	2253.83
560.87	2257.34
561.23	2260.05
561.58	2263.12
561.94	2265.69
562.29	2268.26
562.64	2270.80
563.00	2273.32
563.35	2276.80
563.71	2279.85
564.06	2282.93
564.42	2285.89
564.77	2288.46
565.12	2290.75
565.48	2292.42
565.83	2294.25
566.19	2295.64
566.54	2296.57
566.89	2297.69
567.25	2298.21
567.60	2299.48
567.96	2300.96
568.31	2301.74
568.66	2302.84
569.02	2303.36
569.37	2303.71
569.72	2304.53
570.08	2304.60
570.43	2304.48
570.78	2303.81
571.14	2302.35
571.49	2301.13
571.84	2300.72
572.20	2299.50
572.55	2298.36
572.90	2296.89
573.26	2295.53
573.61	2293.64
573.96	2291.89
574.31	2288.95
574.67	2286.00
575.02	2282.33
575.37	2279.00
575.72	2275.14
576.08	2271.83
576.43	2268.33
576.78	2264.55
577.13	2261.32
577.49	2258.30
577.84	2254.83
578.19	2251.09
578.54	2247.46
578.90	2242.98
579.25	2237.46
579.60	2232.49
579.95	2227.46
580.30	2222.32
580.66	2217.08
581.01	2212.20
581.36	2207.13
581.71	2202.80
582.06	2198.29
582.42	2193.70
582.77	2188.46
583.12	2183.93
583.47	2179.04
583.82	2173.99
584.17	2168.73
584.53	2163.03
584.88	2157.29
585.23	2151.38
585.58	2145.86
585.93	2140.28
586.28	2135.65
586.63	2130.50
586.98	2125.41
587.34	2120.80
587.69	2115.99
588.04	2110.59
588.39	2104.84
588.74	2098.48
589.09	2092.32
589.44	2085.54
589.79	2079.61
590.14	2073.94
590.49	2067.38
590.84	2061.06
591.19	2054.98
591.54	2048.50
591.89	2041.23
592.25	2034.41
592.60	2027.24
592.95	2019.64
593.30	2012.27
593.65	2004.63
594.00	1997.60
594.35	1990.33
594.70	1981.99
595.05	1974.62
595.40	1967.46
595.75	1959.96
596.10	1953.52
596.45	1946.71
596.80	1940.37
597.15	1933.62
597.50	1926.46
597.85	1919.94
598.19	1913.29
598.54	1906.19
598.89	1899.51
599.24	1893.62
599.59	1886.84
599.94	1880.68
600.29	1874.37
600.64	1867.70
600.99	1860.25
601.34	1853.35
601.69	1846.32
602.04	1839.49
602.39	1832.21
602.74	1825.18
603.08	1818.49
603.43	1811.89
603.78	1804.58
604.13	1797.42
604.48	1790.11
604.83	1783.25
605.18	1776.14
605.53	1768.07
605.87	1760.07
606.22	1752.85
606.57	1744.89
606.92	1737.55
607.27	1730.38
607.62	1723.39
607.96	1716.05
608.31	1709.24
608.66	1701.63
609.01	1694.21
609.36	1686.79
609.70	1678.74
610.05	1670.72
610.40	1662.98
610.75	1654.61
611.10	1646.89
611.44	1638.50
611.79	1630.54
612.14	1621.80
612.49	1612.73
612.83	1604.36
613.18	1596.36
613.53	1588.31
613.88	1579.65
614.22	1571.44
614.57	1562.81
614.92	1554.73
615.27	1547.16
615.61	1538.98
615.96	1531.05
616.31	1523.29
616.65	1515.80
617.00	1508.18
617.35	1500.68
617.70	1492.32
618.04	1483.82
618.39	1475.68
618.74	1468.12
619.08	1459.82
619.43	1452.37
619.78	1445.56
620.12	1438.37
620.47	1430.82
620.82	1422.74
621.16	1415.49
621.51	1407.94
621.85	1400.30
622.20	1391.81
622.55	1383.61
622.89	1375.73
623.24	1368.09
623.59	1360.78
623.93	1353.28
624.28	1346.14
624.62	1338.49
624.97	1331.33
625.32	1324.60
625.66	1317.59
626.01	1310.35
626.35	1302.89
626.70	1295.03
627.04	1287.28
627.39	1279.48
627.73	1271.96
628.08	1264.99
628.43	1257.52
628.77	1249.94
629.12	1242.38
629.46	1235.13
629.81	1227.65
630.15	1220.37
630.50	1212.81
630.84	1204.54
631.19	1196.64
631.53	1189.05
631.88	1181.54
632.22	1173.97
632.57	1166.68
632.91	1159.11
633.26	1151.70
633.60	1144.37
633.95	1137.36
634.29	1130.19
634.64	1123.55
634.98	1116.32
635.32	1109.10
635.67	1102.71
636.01	1096.19
636.36	1089.34
636.70	1082.97
637.05	1076.41
637.39	1070.00
637.73	1063.51
638.08	1057.69
638.42	1051.73
638.77	1045.22
639.11	1038.58
639.45	1032.17
639.80	1025.55
640.14	1019.10
640.49	1012.60
640.83	1006.32
641.17	1000.02
641.52	993.77
641.86	987.38
642.20	981.41
642.55	975.11
642.89	968.53
643.23	962.00
643.58	956.27
643.92	950.02
644.26	944.03
644.61	938.01
644.95	931.99
645.29	925.33
645.64	918.55
645.98	912.34
646.32	906.52
646.66	900.53
647.01	894.75
647.35	889.03
647.69	883.16
648.04	877.57
648.38	871.78
648.72	865.78
649.06	859.74
649.41	853.88
649.75	847.91
650.09	841.96
650.43	836.19
650.78	830.03
651.12	824.14
651.46	818.30
651.80	812.60
652.14	807.31
652.49	801.94
652.83	796.76
653.17	791.02
653.51	785.29
653.85	779.90
654.20	774.17
654.54	768.22
654.88	762.56
655.22	756.70
655.56	751.01
655.90	745.56
656.25	740.29
656.59	734.97
656.93	729.89
657.27	724.67
657.61	719.29
657.95	714.20
658.29	709.11
658.64	703.91
658.98	698.64
659.32	693.09
659.66	687.92
660.00	682.58
660.34	677.68
660.68	672.77
661.02	667.66
661.36	662.95
661.70	658.47
662.05	654.11
662.39	649.74
662.73	645.35
663.07	641.02
663.41	636.54
663.75	631.99
664.09	627.44
664.43	623.12
664.77	618.99
665.11	614.79
665.45	610.65
665.79	606.54
666.13	602.37
666.47	598.34
666.81	594.15
667.15	590.10
667.49	586.16
667.83	582.38
668.17	578.49
668.51	574.44
668.85	570.43
669.19	566.57
669.53	562.70
669.87	558.81
670.21	555.02
670.55	551.38
670.89	548.00
671.23	544.58
671.57	541.04
671.91	537.48
672.25	533.95
672.58	530.44
672.92	527.03
673.26	523.86
673.60	520.78
673.94	517.68
674.28	514.72
674.62	511.80
674.96	508.64
675.30	505.65
675.64	502.70
675.97	499.91
676.31	497.03
676.65	494.11
676.99	491.37
677.33	488.52
677.67	485.72
678.01	482.65
678.34	479.63
678.68	476.75
679.02	473.92
679.36	471.14
679.70	468.43
680.04	465.67
680.37	462.77
680.71	459.94
681.05	457.31
681.39	454.59
681.73	451.89
682.06	449.38
682.40	446.89
682.74	444.35
683.08	441.84
683.42	439.23
683.75	436.77
684.09	434.22
684.43	431.78
684.77	429.30
685.10	426.96
685.44	424.68
685.78	422.44
686.12	420.20
686.45	417.94
686.79	415.61
687.13	413.43
687.46	411.26
687.80	409.14
688.14	407.00
688.48	404.96
688.81	402.79
689.15	400.68
689.49	398.56
689.82	396.53
690.16	394.41
690.50	392.48
690.83	390.58
691.17	388.65
691.51	386.72
691.84	384.88
692.18	382.98
692.52	381.02
692.85	379.10
693.19	377.22
693.52	375.43
693.86	373.68
694.20	371.93
694.53	370.16
694.87	368.30
695.21	366.51
695.54	364.71
695.88	363.01
696.21	361.31
696.55	359.62
696.88	357.89
697.22	356.26
697.56	354.71
697.89	353.02
698.23	351.44
698.56	349.86
698.90	348.33
699.23	346.70
699.57	345.14
699.90	343.61
700.24	342.14
700.58	340.61
700.91	339.12
701.25	337.67
701.58	336.29
701.92	334.94
702.25	333.58
702.59	332.20
702.92	330.84
703.26	329.51
703.59	328.23
703.93	327.08
704.26	325.88
704.60	324.52
704.93	323.23
705.26	321.98
705.60	320.83
705.93	319.66
706.27	318.61
706.60	317.55
706.94	316.48
707.27	315.31
707.61	314.19
707.94	313.18
708.27	312.10
708.61	311.03
708.94	310.01
709.28	309.01
709.61	308.02
709.94	307.09
710.28	306.11
710.61	305.16
710.95	304.08
711.28	303.12
711.61	302.21
711.95	301.29
712.28	300.31
712.61	299.30
712.95	298.34
713.28	297.48
713.61	296.57
713.95	295.65
714.28	294.77
714.61	293.96
714.95	293.08
715.28	292.22
715.61	291.36
715.95	290.50
716.28	289.65
716.61	288.81
716.95	287.96
717.28	287.20
717.61	286.40
717.94	285.66
718.28	284.84
718.61	284.06
718.94	283.37
719.27	282.69
719.61	282.04
719.94	281.37
720.27	280.64
720.60	280.02
720.94	279.39
721.27	278.81
721.60	278.18
721.93	277.57
722.27	276.99
722.60	276.43
722.93	275.83
723.26	275.28
723.59	274.74
723.93	274.18
724.26	273.63
724.59	273.05
724.92	272.55
725.25	272.11
725.59	271.59
725.92	271.11
726.25	270.61
726.58	270.09
726.91	269.60
727.24	269.10
727.57	268.60
727.91	268.08
728.24	267.60
728.57	267.10
728.90	266.70
729.23	266.23
729.56	265.78
729.89	265.28
730.22	264.81
730.55	264.34
730.89	263.88
731.22	263.41
731.55	263.01
731.88	262.60
732.21	262.14
732.54	261.74
732.87	261.33
733.20	260.98
733.53	260.60
733.86	260.23
734.19	259.84
734.52	259.47
734.85	259.22
735.18	258.79
735.51	258.48
735.84	258.09
736.17	257.75
736.50	257.35
736.83	257.18
737.16	256.88
737.49	256.55
737.82	256.24
738.15	255.90
738.48	255.60
738.81	255.23
739.14	254.92
739.47	254.63
739.80	254.28
740.13	253.94
740.46	253.62
740.79	253.32
741.12	253.06
741.45	252.73
741.78	252.37
742.11	252.07
742.44	251.73
742.77	251.47
743.10	251.19
743.43	250.92
743.75	250.53
744.08	250.36
744.41	250.12
744.74	249.84
745.07	249.58
745.40	249.29
745.73	249.07
746.06	248.79
746.39	248.52
746.71	248.26
747.04	248.02
747.37	247.78
747.70	247.52
748.03	247.24
748.36	247.02
748.68	246.78
749.01	246.57
749.34	246.35
749.67	246.10
750.00	245.86
750.33	245.67
750.65	245.43
750.98	245.10
751.31	244.84
751.64	244.66
751.97	244.48
752.29	244.26
752.62	244.00
752.95	243.83
753.28	243.59
753.60	243.35
753.93	243.15
754.26	242.90
754.59	242.68
754.91	242.46
755.24	242.25
755.57	242.02
755.90	241.81
756.22	241.59
756.55	241.38
756.88	241.15
757.20	240.91
757.53	240.71
757.86	240.50
758.19	240.34
758.51	240.12
758.84	239.88
759.17	239.71
759.49	239.55
759.82	239.37
760.15	239.21
760.47	239.05
760.80	238.88
761.13	238.77
761.45	238.57
761.78	238.45
762.11	238.29
762.43	238.13
762.76	237.95
763.08	237.84
763.41	237.70
763.74	237.59
764.06	237.43
764.39	237.28
764.71	237.16
765.04	237.00
765.37	236.86
765.69	236.76
766.02	236.64
766.34	236.49
766.67	236.33
767.00	236.23
767.32	236.18
767.65	236.12
767.97	235.99
768.30	235.92
768.62	235.79
768.95	235.68
769.27	235.59
769.60	235.56
769.92	235.42
770.25	235.30
770.57	235.17
770.90	235.11
771.22	235.03
771.55	234.95
771.87	234.88
772.20	234.81
772.52	234.77
772.85	234.81
773.17	234.72
773.50	234.67
773.82	234.58
774.15	234.45
774.47	234.32
774.80	234.26
775.12	234.15
775.45	234.06
775.77	233.98
776.09	233.90
776.42	233.82
776.74	233.79
777.07	233.72
777.39	233.67
777.72	233.63
778.04	233.56
778.36	233.52
778.69	233.45
779.01	233.39
779.33	233.28
779.66	233.12
779.98	233.05
780.31	233.00
780.63	232.99
780.95	232.98
781.28	232.93
781.60	232.88
781.92	232.84
782.25	232.80
782.57	232.80
782.89	232.75
783.22	232.66
783.54	232.62
783.86	232.58
784.19	232.51
784.51	232.48
784.83	232.45
785.16	232.39
785.48	232.37
785.80	232.35
786.12	232.33
786.45	232.30
786.77	232.31
787.09	232.27
787.42	232.16
787.74	232.13
788.06	232.10
788.38	232.02
788.71	231.98
789.03	231.93
789.35	231.87
789.67	231.84
789.99	231.80
790.32	231.74
790.64	231.73
790.96	231.78
791.28	231.67
791.61	231.59
791.93	231.55
792.25	231.46
792.57	231.46
792.89	231.37
793.21	231.31
793.54	231.23
793.86	231.15
794.18	231.13
794.50	231.03
794.82	230.97
795.14	230.96
795.47	230.94
795.79	230.91
796.11	230.86
796.43	230.80
796.75	230.79
797.07	230.73
797.39	230.67
797.71	230.55
798.04	230.55
798.36	230.51
798.68	230.44
799.00	230.42
799.32	230.28
799.64	230.24
799.96	230.20
800.28	230.18
800.60	230.13
800.92	230.11
801.24	230.11
801.56	230.05
801.89	229.95
802.21	229.86
802.53	229.80
802.85	229.79
803.17	229.79
803.49	229.71
803.81	229.65
804.13	229.60
804.45	229.55
804.77	229.47
805.09	229.45
805.41	229.41
805.73	229.33
806.05	229.30
806.37	229.24
806.69	229.17
807.01	229.09
807.33	229.06
807.65	228.98
807.97	228.95
808.28	228.93
808.60	228.96
808.92	228.93
809.24	228.94
809.56	228.89
809.88	228.82
810.20	228.80
810.52	228.79
810.84	228.72
811.16	228.68
811.48	228.67
811.80	228.67
812.12	228.65
812.43	228.70
812.75	228.70
813.07	228.71
813.39	228.72
813.71	228.71
814.03	228.67
814.35	228.65
814.67	228.59
814.98	228.57
815.30	228.50
815.62	228.49
815.94	228.39
816.26	228.36
816.58	228.36
816.89	228.36
817.21	228.35
817.53	228.40
817.85	228.39
818.17	228.40
818.48	228.36
818.80	228.38
819.12	228.37
819.44	228.34
819.76	228.33
820.07	228.31
820.39	228.29
820.71	228.33
821.03	228.34
821.34	228.34
821.66	228.35
821.98	228.38
822.30	228.40
822.61	228.49
822.93	228.49
823.25	228.49
823.57	228.47
823.88	228.51
824.20	228.45
824.52	228.49
824.83	228.49
825.15	228.47
825.47	228.49
825.79	228.48
826.10	228.50
826.42	228.46
826.74	228.48
827.05	228.50
827.37	228.51
827.69	228.51
828.00	228.52
828.32	228.53
828.64	228.51
828.95	228.54
829.27	228.50
829.58	228.50
829.90	228.50
830.22	228.53
830.53	228.49
830.85	228.51
831.17	228.48
831.48	228.44
831.80	228.46
832.11	228.42
832.43	228.40
832.75	228.38
833.06	228.47
833.38	228.42
833.69	228.41
834.01	228.39
834.32	228.36
834.64	228.33
834.96	228.33
835.27	228.32
835.59	228.28
835.90	228.24
836.22	228.22
836.53	228.18
836.85	228.11
837.16	228.18
837.48	228.16
837.79	228.14
838.11	228.16
838.42	228.15
838.74	228.15
839.05	228.14
839.37	228.11
839.68	228.03
840.00	228.04
840.31	228.04
840.63	228.03
840.94	228.00
841.26	227.98
841.57	227.96
841.88	227.96
842.20	227.91
842.51	227.90
842.83	227.88
843.14	227.96
843.46	227.97
843.77	227.91
844.08	227.89
844.40	227.86
844.71	227.81
845.03	227.78
845.34	227.76
845.65	227.73
845.97	227.70
846.28	227.69
846.60	227.67
846.91	227.58
847.22	227.56
847.54	227.55
847.85	227.54
848.16	227.52
848.48	227.49
848.79	227.55
849.10	227.53
849.42	227.56
849.73	227.47
850.04	227.42
850.36	227.40
850.67	227.39
850.98	227.39
851.30	227.40
851.61	227.35
851.92	227.34
852.23	227.35
852.55	227.36
852.86	227.34
853.17	227.36
853.49	227.40
853.80	227.41
854.11	227.42
854.42	227.44
854.74	227.41
855.05	227.39
855.36	227.31
855.67	227.33
855.99	227.30
856.30	227.40
856.61	227.39
856.92	227.37
857.23	227.38
857.55	227.37
857.86	227.38
858.17	227.42
858.48	227.44
858.79	227.41
859.11	227.42
859.42	227.43
859.73	227.44
860.04	227.46
860.35	227.44
860.66	227.41
860.98	227.43
861.29	227.45
861.60	227.49
861.91	227.55
862.22	227.53
862.53	227.54
862.84	227.43
863.16	227.50
863.47	227.48
863.78	227.50
864.09	227.52
864.40	227.51
864.71	227.52
865.02	227.53
865.33	227.52
865.64	227.48
865.95	227.47
866.27	227.52
866.58	227.49
866.89	227.51
867.20	227.52
867.51	227.49
867.82	227.48
868.13	227.50
868.44	227.49
868.75	227.51
869.06	227.48
869.37	227.49
869.68	227.41
869.99	227.47
870.30	227.47
870.61	227.48
870.92	227.49
871.23	227.50
871.54	227.47
871.85	227.52
872.16	227.52
872.47	227.52
872.78	227.44
873.09	227.46
873.40	227.43
873.71	227.43
874.02	227.42
874.33	227.41
874.64	227.35
874.95	227.35
875.26	227.33
875.56	227.36
875.87	227.35
876.18	227.37
876.49	227.42
876.80	227.38
877.11	227.35
877.42	227.32
877.73	227.27
878.04	227.26
878.35	227.23
878.66	227.26
878.96	227.26
879.27	227.29
879.58	227.27
879.89	227.29
880.20	227.36
880.51	227.36
880.82	227.36
881.12	227.37
881.43	227.37
881.74	227.33
882.05	227.30
882.36	227.31
882.67	227.34
882.97	227.25
883.28	227.25
883.59	227.23
883.90	227.22
884.21	227.25
884.51	227.23
884.82	227.21
885.13	227.21
885.44	227.24
885.74	227.23
886.05	227.22
886.36	227.19
886.67	227.15
886.98	227.20
887.28	227.20
887.59	227.20
887.90	227.19
888.20	227.17
888.51	227.19
888.82	227.14
889.13	227.11
889.43	227.19
889.74	227.15
890.05	227.14
890.35	227.16
890.66	227.13
890.97	227.15
891.28	227.14
891.58	227.13
891.89	227.08
892.20	227.03
892.50	227.01
892.81	227.02
893.12	226.97
893.42	226.92
893.73	226.93
894.04	226.91
894.34	226.92
894.65	226.92
894.95	226.90
895.26	226.93
895.57	226.99
895.87	226.89
896.18	226.94
896.48	226.97
896.79	226.98
897.10	226.99
897.40	226.97
897.71	226.98
898.01	226.95
898.32	226.98
898.63	227.01
898.93	227.03
899.24	227.02
899.54	227.05
899.85	227.07
900.15	227.06
900.46	227.07
900.76	227.09
901.07	227.12
901.38	227.14
901.68	227.14
901.99	227.09
902.29	227.12
902.60	227.12
902.90	227.11
903.21	227.13
903.51	227.15
903.82	227.19
904.12	227.21
904.43	227.21
904.73	227.23
905.03	227.21
905.34	227.32
905.64	227.32
905.95	227.34
906.25	227.35
906.56	227.39
906.86	227.40
907.17	227.38
907.47	227.40
907.77	227.41
908.08	227.40
908.38	227.43
908.69	227.43
908.99	227.45
909.30	227.48
909.60	227.44
909.90	227.42
910.21	227.40
910.51	227.38
910.81	227.41
911.12	227.40
911.42	227.46
911.73	227.34
912.03	227.31
912.33	227.31
912.64	227.30
912.94	227.28
913.24	227.23
913.55	227.20
913.85	227.19
914.15	227.19
914.46	227.23
914.76	227.20
915.06	227.21
915.37	227.17
915.67	227.14
915.97	227.13
916.27	227.12
916.58	227.13
916.88	227.14
917.18	227.12
917.49	227.16
917.79	227.12
918.09	227.11
918.39	227.17
918.70	227.14
919.00	227.10
919.30	227.15
919.60	227.15
919.91	227.15
920.21	227.14
920.51	227.12
920.81	227.06
921.12	227.08
921.42	227.03
921.72	227.01
922.02	227.00
922.32	227.02
922.63	227.00
922.93	227.03
923.23	227.01
923.53	227.00
923.83	226.94
924.13	226.93
924.44	226.94
924.74	226.94
925.04	226.97
925.34	226.98
925.64	226.91
925.94	226.88
926.24	226.92
926.55	226.91
926.85	226.88
927.15	226.88
927.45	226.84
927.75	226.84
928.05	226.84
928.35	226.84
928.65	226.84
928.95	226.84
929.26	226.77
929.56	226.78
929.86	226.77
930.16	226.75
930.46	226.74
930.76	226.74
931.06	226.68
931.36	226.63
931.66	226.66
931.96	226.66
932.26	226.71
932.56	226.68
932.86	226.68
933.16	226.72
933.46	226.72
933.76	226.72
934.06	226.75
934.36	226.79
934.66	226.82
934.96	226.83
935.26	226.86
935.56	226.90
935.86	226.87
936.16	226.87
936.46	226.87
936.76	226.89
937.06	226.91
937.36	226.96
937.66	227.00
937.96	226.98
938.26	226.99
938.56	227.00
938.86	227.03
939.16	227.08
939.46	227.05
939.76	227.08
940.06	227.10
940.35	227.11
940.65	227.10
940.95	227.10
941.25	227.09
941.55	227.09
941.85	227.10
942.15	227.16
942.45	227.24
942.75	227.25
943.04	227.28
943.34	227.30
943.64	227.27
943.94	227.25
944.24	227.23
944.54	227.25
944.84	227.26
945.13	227.22
945.43	227.23
945.73	227.27
946.03	227.25
946.33	227.25
946.62	227.24
946.92	227.21
947.22	227.23
947.52	227.24
947.82	227.25
948.11	227.24
948.41	227.23
948.71	227.17
949.01	227.17
949.31	227.13
949.60	227.16
949.90	227.20
950.20	227.21
950.50	227.21
950.79	227.18
951.09	227.18
951.39	227.21
951.69	227.16
951.98	227.18
952.28	227.23
952.58	227.21
952.87	227.23
953.17	227.25
953.47	227.22
953.76	227.22
954.06	227.21
954.36	227.18
954.66	227.17
954.95	227.23
955.25	227.23
955.55	227.28
955.84	227.20
956.14	227.13
956.44	227.15
956.73	227.15
957.03	227.17
957.32	227.13
957.62	227.07
957.92	227.07
958.21	227.01
958.51	227.10
958.81	227.11
959.10	227.07
959.40	227.07
959.69	227.06
959.99	227.03
960.29	226.99
960.58	227.00
960.88	226.99
961.17	226.94
961.47	226.93
961.76	226.88
962.06	226.91
962.36	226.90
962.65	226.85
962.95	226.86
963.24	226.79
963.54	226.78
963.83	226.79
964.13	226.76
964.42	226.71
964.72	226.61
965.01	226.58
965.31	226.56
965.60	226.56
965.90	226.62
966.19	226.60
966.49	226.62
966.78	226.61
967.08	226.58
967.37	226.56
967.67	226.54
967.96	226.55
968.26	226.50
968.55	226.53
968.85	226.53
969.14	226.52
969.43	226.55
969.73	226.57
970.02	226.54
970.32	226.52
970.61	226.54
970.91	226.49
971.20	226.49
971.49	226.49
971.79	226.49
972.08	226.43
972.38	226.43
972.67	226.41
972.96	226.41
973.26	226.42
973.55	226.43
973.85	226.42
974.14	226.43
974.43	226.47
974.73	226.45
975.02	226.47
975.31	226.48
975.61	226.50
975.90	226.50
976.19	226.53
976.49	226.61
976.78	226.66
977.07	226.68
977.37	226.70
977.66	226.73
977.95	226.75
978.24	226.73
978.54	226.78
978.83	226.79
979.12	226.80
979.42	226.82
979.71	226.86
980.00	226.90
980.29	226.93
980.59	226.94
980.88	227.00
981.17	227.01
981.46	227.01
981.76	227.01
982.05	227.04
982.34	227.06
982.63	227.09
982.93	227.09
983.22	227.16
983.51	227.16
983.80	227.16
984.09	227.17
984.39	227.19
984.68	227.15
984.97	227.15
985.26	227.13
985.55	227.14
985.85	227.13
986.14	227.14
986.43	227.16
986.72	227.18
987.01	227.18
987.30	227.19
987.59	227.22
987.89	227.24
988.18	227.23
988.47	227.23
988.76	227.22
989.05	227.18
989.34	227.13
989.63	227.17
989.92	227.19
990.22	227.14
990.51	227.18
990.80	227.19
991.09	227.22
991.38	227.24
991.67	227.25
991.96	227.22
992.25	227.23
992.54	227.18
992.83	227.14
993.12	227.07
993.41	227.07
993.70	227.08
993.99	227.05
994.28	227.03
994.58	227.05
994.87	227.01
995.16	227.01
995.45	227.00
995.74	226.92
996.03	226.91
996.32	226.93
996.61	226.93
996.90	226.91
997.19	226.86
997.48	226.87
997.77	226.82
998.06	226.78
998.34	226.75
998.63	226.70
998.92	226.66
999.21	226.67
999.50	226.63
999.79	226.56
1000.08	226.55
1000.37	226.54
1000.66	226.49
1000.95	226.48
1001.24	226.46
1001.53	226.48
1001.82	226.50
1002.11	226.48
1002.40	226.48
1002.68	226.48
1002.97	226.54
1003.26	226.53
1003.55	226.53
1003.84	226.54
1004.13	226.62
1004.42	226.61
1004.71	226.65
1004.99	226.71
1005.28	226.76
1005.57	226.73
1005.86	226.78
1006.15	226.76
1006.44	226.75
1006.72	226.74
1007.01	226.77
1007.30	226.79
1007.59	226.77
1007.88	226.76
1008.17	226.76
1008.45	226.75
1008.74	226.72
1009.03	226.68
1009.32	226.70
1009.60	226.67
1009.89	226.69
1010.18	226.62
1010.47	226.63
1010.76	226.66
1011.04	226.62
1011.33	226.63
1011.62	226.67
1011.91	226.66
1012.19	226.70
1012.48	226.71
1012.77	226.75
1013.05	226.78
1013.34	226.78
1013.63	226.83
1013.92	226.82
1014.20	226.85
1014.49	226.87
1014.78	226.88
1015.06	226.86
1015.35	226.91
1015.64	226.94
1015.92	226.96
1016.21	226.99
1016.50	226.98
1016.78	226.96
1017.07	227.02
1017.36	227.00
1017.64	227.01
1017.93	227.08
1018.22	227.09
1018.50	227.10
1018.79	227.09
1019.08	227.09
1019.36	227.12
1019.65	227.06
1019.93	227.12
1020.22	227.13
1020.51	227.19
1020.79	227.23
1021.08	226.98
1021.36	227.05
1021.65	226.98
1021.94	227.48
1022.22	227.50
1022.51	226.30
1022.79	227.60
1023.08	227.30
1023.36	228.36
1023.65	227.70
>>>>>End Processed Spectral Data<<<<<
