SpectraSuite Data File
++++++++++++++++++++++++++++++++++++
Date: Fri Feb 01 16:19:39 EST 2013
User: group
Dark Spectrum Present: No
Reference Spectrum Present: No
Number of Sampled Component Spectra: 1
Spectrometers: USB2E7196
Integration Time (usec): 35000 (USB2E7196)
Spectra Averaged: 100 (USB2E7196)
Boxcar Smoothing: 10 (USB2E7196)
Correct for Electrical Dark: No (USB2E7196)
Strobe/Lamp Enabled: No (USB2E7196)
Correct for Detector Non-linearity: No (USB2E7196)
Correct for Stray Light: No (USB2E7196)
Number of Pixels in Processed Spectrum: 2048
>>>>>Begin Processed Spectral Data<<<<<
339.09	0.00
339.48	214.41
339.86	215.38
340.24	216.97
340.63	218.39
341.01	220.87
341.39	220.88
341.78	222.22
342.16	223.42
342.54	223.61
342.93	212.40
343.31	223.15
343.69	223.66
344.07	224.15
344.46	224.56
344.84	224.91
345.22	225.14
345.60	225.38
345.99	225.56
346.37	225.70
346.75	225.80
347.13	225.84
347.52	225.89
347.90	225.93
348.28	225.93
348.66	225.97
349.05	225.99
349.43	226.01
349.81	226.06
350.19	226.10
350.57	226.17
350.96	226.29
351.34	226.35
351.72	226.46
352.10	226.55
352.48	226.60
352.87	226.68
353.25	226.73
353.63	226.82
354.01	226.88
354.39	226.95
354.77	227.05
355.15	227.16
355.54	227.22
355.92	227.28
356.30	227.40
356.68	227.54
357.06	227.59
357.44	227.66
357.82	227.72
358.20	227.81
358.58	227.83
358.97	227.85
359.35	227.93
359.73	228.00
360.11	228.02
360.49	228.12
360.87	228.17
361.25	228.26
361.63	228.34
362.01	228.38
362.39	228.38
362.77	228.40
363.15	228.41
363.53	228.44
363.91	228.47
364.29	228.45
364.67	228.34
365.05	228.37
365.43	228.41
365.81	228.42
366.19	228.44
366.57	228.51
366.95	228.50
367.33	228.50
367.71	228.48
368.09	228.51
368.47	228.48
368.85	228.43
369.23	228.42
369.61	228.35
369.99	228.35
370.37	228.37
370.75	228.41
371.13	228.35
371.51	228.30
371.89	228.28
372.27	228.27
372.65	228.24
373.03	228.20
373.41	228.12
373.78	228.04
374.16	227.93
374.54	227.85
374.92	227.78
375.30	227.70
375.68	227.63
376.06	227.57
376.44	227.48
376.82	227.41
377.19	227.36
377.57	227.28
377.95	227.21
378.33	227.13
378.71	226.98
379.09	226.96
379.47	226.90
379.84	226.81
380.22	226.72
380.60	226.66
380.98	226.57
381.36	226.53
381.73	226.48
382.11	226.43
382.49	226.37
382.87	226.31
383.25	226.26
383.62	226.29
384.00	226.21
384.38	226.17
384.76	226.14
385.13	226.12
385.51	226.06
385.89	225.97
386.27	225.95
386.64	225.90
387.02	225.81
387.40	225.74
387.78	225.69
388.15	225.65
388.53	225.62
388.91	225.59
389.29	225.53
389.66	225.51
390.04	225.49
390.42	225.47
390.79	225.45
391.17	225.42
391.55	225.33
391.92	225.31
392.30	225.32
392.68	225.32
393.05	225.31
393.43	225.31
393.81	225.32
394.18	225.29
394.56	225.32
394.94	225.39
395.31	225.40
395.69	225.48
396.06	225.54
396.44	225.53
396.82	225.58
397.19	225.66
397.57	225.69
397.95	225.75
398.32	225.76
398.70	225.82
399.07	225.92
399.45	225.98
399.82	226.05
400.20	226.09
400.58	226.15
400.95	226.18
401.33	226.27
401.70	226.43
402.08	226.57
402.45	226.67
402.83	226.75
403.20	226.88
403.58	226.98
403.95	227.12
404.33	227.26
404.71	227.40
405.08	227.59
405.46	227.72
405.83	227.85
406.21	227.99
406.58	228.17
406.96	228.31
407.33	228.49
407.70	228.68
408.08	228.97
408.45	229.19
408.83	229.41
409.20	229.64
409.58	229.82
409.95	230.05
410.33	230.31
410.70	230.56
411.08	230.85
411.45	231.13
411.82	231.44
412.20	231.78
412.57	232.18
412.95	232.45
413.32	232.86
413.69	233.28
414.07	233.74
414.44	234.20
414.82	234.67
415.19	235.21
415.56	235.74
415.94	236.26
416.31	236.89
416.68	237.53
417.06	238.25
417.43	238.95
417.81	239.72
418.18	240.49
418.55	241.32
418.93	242.21
419.30	243.12
419.67	244.06
420.04	245.04
420.42	246.03
420.79	247.22
421.16	248.38
421.54	249.53
421.91	250.76
422.28	252.03
422.66	253.36
423.03	254.66
423.40	256.01
423.77	257.43
424.15	258.89
424.52	260.40
424.89	261.98
425.26	263.52
425.64	264.93
426.01	266.51
426.38	268.18
426.75	269.86
427.13	271.56
427.50	273.35
427.87	275.22
428.24	277.08
428.61	278.82
428.99	280.74
429.36	282.86
429.73	284.89
430.10	286.88
430.47	288.92
430.85	291.00
431.22	293.24
431.59	295.61
431.96	297.83
432.33	300.30
432.70	302.71
433.08	305.49
433.45	308.17
433.82	310.77
434.19	313.66
434.56	316.46
434.93	319.11
435.30	321.71
435.68	324.55
436.05	327.39
436.42	330.16
436.79	332.68
437.16	335.38
437.53	338.23
437.90	341.06
438.27	343.83
438.64	346.69
439.01	349.29
439.38	351.53
439.75	353.67
440.13	356.10
440.50	358.40
440.87	360.26
441.24	362.15
441.61	364.33
441.98	365.81
442.35	367.58
442.72	369.46
443.09	371.25
443.46	372.23
443.83	372.75
444.20	373.25
444.57	374.06
444.94	374.33
445.31	374.68
445.68	375.02
446.05	375.10
446.42	374.66
446.79	374.24
447.16	373.79
447.53	373.49
447.90	372.34
448.27	371.17
448.64	369.59
449.01	368.47
449.37	366.53
449.74	364.65
450.11	362.40
450.48	359.92
450.85	357.41
451.22	355.33
451.59	353.36
451.96	351.48
452.33	348.92
452.70	346.60
453.07	343.78
453.43	340.87
453.80	338.15
454.17	335.52
454.54	333.02
454.91	330.30
455.28	327.61
455.65	325.19
456.02	322.77
456.38	320.64
456.75	317.98
457.12	315.71
457.49	313.47
457.86	311.36
458.23	309.52
458.59	307.49
458.96	305.43
459.33	303.60
459.70	301.72
460.07	300.23
460.43	298.48
460.80	296.85
461.17	295.45
461.54	293.90
461.91	292.48
462.27	291.00
462.64	289.76
463.01	288.40
463.38	287.11
463.74	285.75
464.11	284.63
464.48	283.64
464.85	282.53
465.21	281.70
465.58	280.75
465.95	279.65
466.32	278.77
466.68	277.82
467.05	276.92
467.42	276.05
467.78	275.11
468.15	274.28
468.52	273.61
468.88	272.74
469.25	271.99
469.62	271.39
469.98	270.73
470.35	270.09
470.72	269.52
471.08	268.86
471.45	268.30
471.82	267.70
472.18	267.12
472.55	266.70
472.92	266.17
473.28	265.74
473.65	265.29
474.02	264.87
474.38	264.54
474.75	264.21
475.11	263.88
475.48	263.61
475.85	263.39
476.21	263.17
476.58	263.01
476.94	262.89
477.31	262.69
477.67	262.56
478.04	262.45
478.41	262.37
478.77	262.44
479.14	262.42
479.50	262.45
479.87	262.47
480.23	262.53
480.60	262.60
480.96	262.68
481.33	262.87
481.69	263.07
482.06	263.26
482.42	263.45
482.79	263.67
483.15	263.96
483.52	264.34
483.88	264.69
484.25	265.05
484.61	265.47
484.98	265.96
485.34	266.51
485.71	267.12
486.07	267.78
486.44	268.31
486.80	268.98
487.17	269.71
487.53	270.53
487.90	271.38
488.26	272.32
488.62	273.31
488.99	274.32
489.35	275.33
489.72	276.42
490.08	277.65
490.44	278.91
490.81	280.27
491.17	281.59
491.54	283.04
491.90	284.55
492.26	286.20
492.63	287.95
492.99	289.69
493.36	291.54
493.72	293.53
494.08	295.67
494.45	297.93
494.81	300.29
495.17	302.75
495.54	305.34
495.90	308.02
496.26	310.84
496.63	313.76
496.99	316.92
497.35	320.20
497.72	323.60
498.08	327.11
498.44	330.79
498.80	334.73
499.17	338.79
499.53	342.97
499.89	347.40
500.26	351.90
500.62	356.61
500.98	361.61
501.34	366.71
501.71	372.02
502.07	377.47
502.43	383.09
502.79	388.93
503.16	395.03
503.52	401.31
503.88	407.75
504.24	414.41
504.60	421.30
504.97	428.51
505.33	435.85
505.69	443.59
506.05	451.43
506.41	459.34
506.78	467.54
507.14	476.06
507.50	484.78
507.86	493.79
508.22	502.97
508.59	512.25
508.95	521.83
509.31	531.69
509.67	541.87
510.03	552.16
510.39	562.71
510.75	573.45
511.12	584.47
511.48	595.79
511.84	607.20
512.20	618.71
512.56	630.63
512.92	642.84
513.28	655.15
513.64	667.64
514.00	680.35
514.37	693.28
514.73	706.31
515.09	719.31
515.45	732.64
515.81	746.27
516.17	760.26
516.53	774.40
516.89	788.56
517.25	802.77
517.61	817.23
517.97	831.70
518.33	846.13
518.69	860.85
519.05	875.70
519.41	890.95
519.77	906.46
520.13	921.90
520.49	937.22
520.85	952.55
521.21	968.26
521.57	984.45
521.93	1000.06
522.29	1016.46
522.65	1032.72
523.01	1048.93
523.37	1064.93
523.73	1081.01
524.09	1097.00
524.45	1113.31
524.81	1129.86
525.17	1146.55
525.53	1163.37
525.89	1180.21
526.25	1196.98
526.61	1213.37
526.97	1230.00
527.33	1246.43
527.68	1262.85
528.04	1279.25
528.40	1295.74
528.76	1312.73
529.12	1329.29
529.48	1346.28
529.84	1362.19
530.20	1378.69
530.56	1395.58
530.91	1412.79
531.27	1429.37
531.63	1445.92
531.99	1462.39
532.35	1478.19
532.71	1494.03
533.07	1510.28
533.42	1526.19
533.78	1542.12
534.14	1558.34
534.50	1573.65
534.86	1589.45
535.21	1604.64
535.57	1620.55
535.93	1636.12
536.29	1650.82
536.65	1665.73
537.00	1680.39
537.36	1695.56
537.72	1710.12
538.08	1724.51
538.44	1738.33
538.79	1752.23
539.15	1765.67
539.51	1779.41
539.87	1793.79
540.22	1807.46
540.58	1821.16
540.94	1834.35
541.29	1847.28
541.65	1859.97
542.01	1873.17
542.37	1885.37
542.72	1897.82
543.08	1909.43
543.44	1921.77
543.79	1932.83
544.15	1943.89
544.51	1955.28
544.87	1966.26
545.22	1976.88
545.58	1986.96
545.94	1996.61
546.29	2006.41
546.65	2016.34
547.01	2025.41
547.36	2033.96
547.72	2042.52
548.07	2050.24
548.43	2058.28
548.79	2066.20
549.14	2073.66
549.50	2080.89
549.86	2088.59
550.21	2095.85
550.57	2103.08
550.92	2109.48
551.28	2116.53
551.64	2123.55
551.99	2130.15
552.35	2136.27
552.70	2142.46
553.06	2148.52
553.41	2154.94
553.77	2161.03
554.13	2167.07
554.48	2173.26
554.84	2178.87
555.19	2184.22
555.55	2189.48
555.90	2193.94
556.26	2198.85
556.61	2203.56
556.97	2207.88
557.32	2211.89
557.68	2216.01
558.03	2220.28
558.39	2223.99
558.74	2228.68
559.10	2232.47
559.45	2236.17
559.81	2240.58
560.16	2244.39
560.52	2247.71
560.87	2251.15
561.23	2253.79
561.58	2256.78
561.94	2259.36
562.29	2261.75
562.64	2264.28
563.00	2266.85
563.35	2270.45
563.71	2273.54
564.06	2276.77
564.42	2279.78
564.77	2282.52
565.12	2284.82
565.48	2286.85
565.83	2288.96
566.19	2290.29
566.54	2291.20
566.89	2292.40
567.25	2292.88
567.60	2294.17
567.96	2295.97
568.31	2296.82
568.66	2297.91
569.02	2298.50
569.37	2298.69
569.72	2299.53
570.08	2299.82
570.43	2299.93
570.78	2299.48
571.14	2297.98
571.49	2296.66
571.84	2296.30
572.20	2295.18
572.55	2294.05
572.90	2292.41
573.26	2290.91
573.61	2289.20
573.96	2287.57
574.31	2284.58
574.67	2281.68
575.02	2278.20
575.37	2274.56
575.72	2270.79
576.08	2267.59
576.43	2264.38
576.78	2260.81
577.13	2257.68
577.49	2254.54
577.84	2250.92
578.19	2247.26
578.54	2243.68
578.90	2239.42
579.25	2233.75
579.60	2228.85
579.95	2223.99
580.30	2218.94
580.66	2213.79
581.01	2209.02
581.36	2204.14
581.71	2200.03
582.06	2195.53
582.42	2191.16
582.77	2186.23
583.12	2181.72
583.47	2176.96
583.82	2172.05
584.17	2166.93
584.53	2161.40
584.88	2155.90
585.23	2150.18
585.58	2144.74
585.93	2139.40
586.28	2134.71
586.63	2129.88
586.98	2124.81
587.34	2120.16
587.69	2115.54
588.04	2110.38
588.39	2104.57
588.74	2098.22
589.09	2092.08
589.44	2085.37
589.79	2079.26
590.14	2073.73
590.49	2067.12
590.84	2060.76
591.19	2054.69
591.54	2048.32
591.89	2041.02
592.25	2034.20
592.60	2027.16
592.95	2019.49
593.30	2012.20
593.65	2004.67
594.00	1997.54
594.35	1990.39
594.70	1982.40
595.05	1975.14
595.40	1967.93
595.75	1960.67
596.10	1954.53
596.45	1947.90
596.80	1941.86
597.15	1935.47
597.50	1928.28
597.85	1921.92
598.19	1915.20
598.54	1907.97
598.89	1901.27
599.24	1895.52
599.59	1888.91
599.94	1882.71
600.29	1876.47
600.64	1869.94
600.99	1862.65
601.34	1855.92
601.69	1849.00
602.04	1842.09
602.39	1834.76
602.74	1827.92
603.08	1821.02
603.43	1814.27
603.78	1806.92
604.13	1799.66
604.48	1792.20
604.83	1785.24
605.18	1778.34
605.53	1770.57
605.87	1762.66
606.22	1755.55
606.57	1747.53
606.92	1740.25
607.27	1733.00
607.62	1726.15
607.96	1718.76
608.31	1712.19
608.66	1704.56
609.01	1697.01
609.36	1689.48
609.70	1681.47
610.05	1673.51
610.40	1665.92
610.75	1657.45
611.10	1649.85
611.44	1641.49
611.79	1633.56
612.14	1624.89
612.49	1615.76
612.83	1607.35
613.18	1599.23
613.53	1591.08
613.88	1582.55
614.22	1574.21
614.57	1565.80
614.92	1557.71
615.27	1550.09
615.61	1541.71
615.96	1533.70
616.31	1526.06
616.65	1518.58
617.00	1510.97
617.35	1503.15
617.70	1494.72
618.04	1486.29
618.39	1478.00
618.74	1470.37
619.08	1461.96
619.43	1454.43
619.78	1447.43
620.12	1440.24
620.47	1432.77
620.82	1424.62
621.16	1417.21
621.51	1409.53
621.85	1401.81
622.20	1393.22
622.55	1384.93
622.89	1377.10
623.24	1369.48
623.59	1361.98
623.93	1354.42
624.28	1347.27
624.62	1339.68
624.97	1332.58
625.32	1325.83
625.66	1318.89
626.01	1311.73
626.35	1304.24
626.70	1296.45
627.04	1288.73
627.39	1280.94
627.73	1273.40
628.08	1266.44
628.43	1259.03
628.77	1251.63
629.12	1244.00
629.46	1236.93
629.81	1229.54
630.15	1222.23
630.50	1214.67
630.84	1206.52
631.19	1198.71
631.53	1191.12
631.88	1183.64
632.22	1175.97
632.57	1168.70
632.91	1161.01
633.26	1153.64
633.60	1146.37
633.95	1139.28
634.29	1132.25
634.64	1125.56
634.98	1118.26
635.32	1111.07
635.67	1104.50
636.01	1097.88
636.36	1091.03
636.70	1084.46
637.05	1077.89
637.39	1071.39
637.73	1064.93
638.08	1058.96
638.42	1052.88
638.77	1046.48
639.11	1039.90
639.45	1033.49
639.80	1026.75
640.14	1020.47
640.49	1013.87
640.83	1007.53
641.17	1001.24
641.52	994.84
641.86	988.30
642.20	982.43
642.55	976.11
642.89	969.68
643.23	963.07
643.58	957.27
643.92	951.05
644.26	944.92
644.61	938.85
644.95	932.82
645.29	926.21
645.64	919.51
645.98	913.16
646.32	907.38
646.66	901.33
647.01	895.47
647.35	889.64
647.69	883.82
648.04	878.36
648.38	872.61
648.72	866.59
649.06	860.56
649.41	854.72
649.75	848.79
650.09	842.81
650.43	837.09
650.78	830.99
651.12	825.02
651.46	819.27
651.80	813.51
652.14	808.13
652.49	802.77
652.83	797.59
653.17	791.90
653.51	786.10
653.85	780.74
654.20	775.18
654.54	769.14
654.88	763.33
655.22	757.35
655.56	751.62
655.90	746.20
656.25	740.97
656.59	735.55
656.93	730.43
657.27	725.23
657.61	719.76
657.95	714.69
658.29	709.63
658.64	704.36
658.98	699.05
659.32	693.56
659.66	688.34
660.00	683.03
660.34	678.06
660.68	673.11
661.02	668.14
661.36	663.44
661.70	659.02
662.05	654.67
662.39	650.37
662.73	645.87
663.07	641.49
663.41	637.02
663.75	632.52
664.09	627.89
664.43	623.58
664.77	619.44
665.11	615.13
665.45	610.99
665.79	606.88
666.13	602.75
666.47	598.63
666.81	594.45
667.15	590.34
667.49	586.42
667.83	582.66
668.17	578.66
668.51	574.49
668.85	570.44
669.19	566.63
669.53	562.74
669.87	558.88
670.21	555.13
670.55	551.45
670.89	548.05
671.23	544.63
671.57	541.06
671.91	537.58
672.25	534.10
672.58	530.55
672.92	527.15
673.26	523.99
673.60	520.87
673.94	517.76
674.28	514.83
674.62	511.96
674.96	508.86
675.30	506.01
675.64	503.14
675.97	500.34
676.31	497.41
676.65	494.49
676.99	491.81
677.33	488.93
677.67	486.12
678.01	483.08
678.34	480.07
678.68	477.21
679.02	474.35
679.36	471.58
679.70	468.83
680.04	466.09
680.37	463.22
680.71	460.42
681.05	457.81
681.39	455.07
681.73	452.40
682.06	449.85
682.40	447.20
682.74	444.62
683.08	442.08
683.42	439.47
683.75	436.98
684.09	434.40
684.43	431.96
684.77	429.50
685.10	427.11
685.44	424.86
685.78	422.58
686.12	420.34
686.45	417.99
686.79	415.68
687.13	413.47
687.46	411.30
687.80	409.15
688.14	406.97
688.48	404.86
688.81	402.52
689.15	400.31
689.49	398.15
689.82	396.06
690.16	393.97
690.50	392.02
690.83	390.04
691.17	388.06
691.51	386.12
691.84	384.30
692.18	382.38
692.52	380.34
692.85	378.37
693.19	376.50
693.52	374.74
693.86	372.96
694.20	371.18
694.53	369.42
694.87	367.57
695.21	365.74
695.54	363.92
695.88	362.24
696.21	360.51
696.55	358.88
696.88	357.21
697.22	355.55
697.56	353.94
697.89	352.27
698.23	350.70
698.56	349.12
698.90	347.47
699.23	345.83
699.57	344.37
699.90	342.82
700.24	341.27
700.58	339.72
700.91	338.22
701.25	336.76
701.58	335.38
701.92	334.02
702.25	332.69
702.59	331.36
702.92	330.05
703.26	328.77
703.59	327.47
703.93	326.33
704.26	325.13
704.60	323.82
704.93	322.59
705.26	321.34
705.60	320.16
705.93	319.05
706.27	318.03
706.60	316.94
706.94	315.88
707.27	314.77
707.61	313.70
707.94	312.67
708.27	311.56
708.61	310.47
708.94	309.47
709.28	308.48
709.61	307.52
709.94	306.53
710.28	305.49
710.61	304.51
710.95	303.35
711.28	302.38
711.61	301.43
711.95	300.53
712.28	299.54
712.61	298.55
712.95	297.59
713.28	296.72
713.61	295.81
713.95	294.92
714.28	294.03
714.61	293.19
714.95	292.34
715.28	291.53
715.61	290.62
715.95	289.71
716.28	288.82
716.61	287.95
716.95	287.15
717.28	286.47
717.61	285.72
717.94	284.97
718.28	284.14
718.61	283.39
718.94	282.65
719.27	281.99
719.61	281.34
719.94	280.69
720.27	279.92
720.60	279.24
720.94	278.54
721.27	277.96
721.60	277.35
721.93	276.73
722.27	276.15
722.60	275.63
722.93	275.10
723.26	274.57
723.59	274.01
723.93	273.46
724.26	272.85
724.59	272.23
724.92	271.73
725.25	271.25
725.59	270.74
725.92	270.25
726.25	269.72
726.58	269.23
726.91	268.71
727.24	268.23
727.57	267.76
727.91	267.30
728.24	266.83
728.57	266.30
728.90	265.87
729.23	265.42
729.56	264.93
729.89	264.44
730.22	263.96
730.55	263.49
730.89	263.03
731.22	262.58
731.55	262.18
731.88	261.78
732.21	261.35
732.54	260.93
732.87	260.50
733.20	260.12
733.53	259.75
733.86	259.32
734.19	258.98
734.52	258.57
734.85	258.24
735.18	257.81
735.51	257.50
735.84	257.11
736.17	256.73
736.50	256.33
736.83	256.12
737.16	255.83
737.49	255.47
737.82	255.11
738.15	254.82
738.48	254.48
738.81	254.11
739.14	253.81
739.47	253.49
739.80	253.17
740.13	252.86
740.46	252.51
740.79	252.26
741.12	251.93
741.45	251.67
741.78	251.27
742.11	250.99
742.44	250.62
742.77	250.32
743.10	250.04
743.43	249.76
743.75	249.37
744.08	249.19
744.41	248.96
744.74	248.72
745.07	248.39
745.40	248.17
745.73	247.97
746.06	247.67
746.39	247.44
746.71	247.18
747.04	246.91
747.37	246.63
747.70	246.38
748.03	246.10
748.36	245.86
748.68	245.68
749.01	245.45
749.34	245.25
749.67	245.01
750.00	244.80
750.33	244.66
750.65	244.47
750.98	244.10
751.31	243.86
751.64	243.68
751.97	243.57
752.29	243.32
752.62	243.07
752.95	242.87
753.28	242.64
753.60	242.42
753.93	242.22
754.26	242.05
754.59	241.82
754.91	241.65
755.24	241.45
755.57	241.25
755.90	241.04
756.22	240.85
756.55	240.66
756.88	240.47
757.20	240.20
757.53	239.99
757.86	239.80
758.19	239.64
758.51	239.45
758.84	239.19
759.17	239.01
759.49	238.85
759.82	238.72
760.15	238.60
760.47	238.43
760.80	238.28
761.13	238.15
761.45	237.99
761.78	237.83
762.11	237.71
762.43	237.58
762.76	237.43
763.08	237.29
763.41	237.15
763.74	236.98
764.06	236.82
764.39	236.68
764.71	236.54
765.04	236.37
765.37	236.23
765.69	236.11
766.02	236.00
766.34	235.85
766.67	235.70
767.00	235.54
767.32	235.48
767.65	235.40
767.97	235.26
768.30	235.14
768.62	235.03
768.95	234.88
769.27	234.72
769.60	234.60
769.92	234.48
770.25	234.35
770.57	234.23
770.90	234.17
771.22	234.06
771.55	233.97
771.87	233.91
772.20	233.82
772.52	233.77
772.85	233.80
773.17	233.72
773.50	233.63
773.82	233.55
774.15	233.46
774.47	233.35
774.80	233.29
775.12	233.20
775.45	233.12
775.77	233.04
776.09	233.02
776.42	232.96
776.74	232.94
777.07	232.87
777.39	232.82
777.72	232.75
778.04	232.70
778.36	232.64
778.69	232.59
779.01	232.54
779.33	232.43
779.66	232.21
779.98	232.15
780.31	232.08
780.63	232.05
780.95	231.98
781.28	231.89
781.60	231.79
781.92	231.74
782.25	231.68
782.57	231.65
782.89	231.55
783.22	231.47
783.54	231.38
783.86	231.33
784.19	231.26
784.51	231.24
784.83	231.16
785.16	231.10
785.48	231.03
785.80	230.95
786.12	230.90
786.45	230.88
786.77	230.84
787.09	230.79
787.42	230.69
787.74	230.67
788.06	230.64
788.38	230.59
788.71	230.53
789.03	230.51
789.35	230.48
789.67	230.44
789.99	230.43
790.32	230.38
790.64	230.36
790.96	230.42
791.28	230.36
791.61	230.33
791.93	230.29
792.25	230.27
792.57	230.30
792.89	230.24
793.21	230.23
793.54	230.17
793.86	230.11
794.18	230.09
794.50	230.00
794.82	229.98
795.14	229.94
795.47	229.89
795.79	229.86
796.11	229.81
796.43	229.79
796.75	229.76
797.07	229.75
797.39	229.68
797.71	229.59
798.04	229.54
798.36	229.53
798.68	229.50
799.00	229.46
799.32	229.36
799.64	229.34
799.96	229.31
800.28	229.31
800.60	229.29
800.92	229.26
801.24	229.22
801.56	229.20
801.89	229.19
802.21	229.23
802.53	229.18
802.85	229.18
803.17	229.17
803.49	229.14
803.81	229.08
804.13	229.05
804.45	228.96
804.77	228.95
805.09	228.91
805.41	228.92
805.73	228.88
806.05	228.83
806.37	228.80
806.69	228.74
807.01	228.71
807.33	228.68
807.65	228.64
807.97	228.65
808.28	228.61
808.60	228.61
808.92	228.55
809.24	228.55
809.56	228.47
809.88	228.45
810.20	228.39
810.52	228.40
810.84	228.40
811.16	228.39
811.48	228.33
811.80	228.35
812.12	228.29
812.43	228.28
812.75	228.29
813.07	228.26
813.39	228.24
813.71	228.19
814.03	228.18
814.35	228.17
814.67	228.16
814.98	228.10
815.30	228.03
815.62	227.99
815.94	227.92
816.26	227.95
816.58	227.87
816.89	227.87
817.21	227.83
817.53	227.78
817.85	227.78
818.17	227.79
818.48	227.72
818.80	227.72
819.12	227.69
819.44	227.65
819.76	227.64
820.07	227.63
820.39	227.62
820.71	227.60
821.03	227.57
821.34	227.55
821.66	227.58
821.98	227.61
822.30	227.58
822.61	227.64
822.93	227.61
823.25	227.61
823.57	227.61
823.88	227.61
824.20	227.62
824.52	227.61
824.83	227.56
825.15	227.55
825.47	227.49
825.79	227.48
826.10	227.48
826.42	227.46
826.74	227.47
827.05	227.47
827.37	227.45
827.69	227.44
828.00	227.41
828.32	227.38
828.64	227.35
828.95	227.41
829.27	227.37
829.58	227.35
829.90	227.37
830.22	227.36
830.53	227.33
830.85	227.31
831.17	227.28
831.48	227.31
831.80	227.30
832.11	227.34
832.43	227.32
832.75	227.28
833.06	227.32
833.38	227.27
833.69	227.25
834.01	227.29
834.32	227.27
834.64	227.27
834.96	227.28
835.27	227.28
835.59	227.23
835.90	227.20
836.22	227.19
836.53	227.15
836.85	227.13
837.16	227.22
837.48	227.22
837.79	227.23
838.11	227.20
838.42	227.15
838.74	227.18
839.05	227.16
839.37	227.18
839.68	227.11
840.00	227.09
840.31	227.09
840.63	227.07
840.94	227.07
841.26	227.06
841.57	227.06
841.88	227.06
842.20	227.05
842.51	227.03
842.83	227.03
843.14	227.09
843.46	227.10
843.77	227.03
844.08	227.05
844.40	227.02
844.71	227.00
845.03	227.01
845.34	226.96
845.65	226.96
845.97	226.96
846.28	226.94
846.60	226.95
846.91	226.92
847.22	226.88
847.54	226.88
847.85	226.87
848.16	226.86
848.48	226.82
848.79	226.85
849.10	226.86
849.42	226.85
849.73	226.76
850.04	226.76
850.36	226.70
850.67	226.67
850.98	226.69
851.30	226.69
851.61	226.72
851.92	226.72
852.23	226.75
852.55	226.76
852.86	226.79
853.17	226.79
853.49	226.82
853.80	226.84
854.11	226.85
854.42	226.81
854.74	226.77
855.05	226.79
855.36	226.75
855.67	226.75
855.99	226.74
856.30	226.88
856.61	226.86
856.92	226.88
857.23	226.89
857.55	226.85
857.86	226.87
858.17	226.87
858.48	226.84
858.79	226.79
859.11	226.76
859.42	226.77
859.73	226.75
860.04	226.74
860.35	226.71
860.66	226.68
860.98	226.70
861.29	226.70
861.60	226.70
861.91	226.72
862.22	226.70
862.53	226.70
862.84	226.55
863.16	226.55
863.47	226.53
863.78	226.52
864.09	226.53
864.40	226.49
864.71	226.49
865.02	226.51
865.33	226.52
865.64	226.54
865.95	226.53
866.27	226.61
866.58	226.59
866.89	226.62
867.20	226.63
867.51	226.62
867.82	226.65
868.13	226.69
868.44	226.66
868.75	226.65
869.06	226.65
869.37	226.66
869.68	226.68
869.99	226.67
870.30	226.69
870.61	226.68
870.92	226.70
871.23	226.69
871.54	226.72
871.85	226.77
872.16	226.77
872.47	226.75
872.78	226.68
873.09	226.68
873.40	226.65
873.71	226.67
874.02	226.66
874.33	226.64
874.64	226.59
874.95	226.61
875.26	226.60
875.56	226.58
875.87	226.58
876.18	226.55
876.49	226.65
876.80	226.62
877.11	226.62
877.42	226.61
877.73	226.58
878.04	226.56
878.35	226.51
878.66	226.51
878.96	226.51
879.27	226.48
879.58	226.49
879.89	226.47
880.20	226.47
880.51	226.45
880.82	226.45
881.12	226.44
881.43	226.42
881.74	226.40
882.05	226.38
882.36	226.37
882.67	226.37
882.97	226.29
883.28	226.27
883.59	226.27
883.90	226.29
884.21	226.33
884.51	226.32
884.82	226.29
885.13	226.27
885.44	226.28
885.74	226.30
886.05	226.29
886.36	226.27
886.67	226.23
886.98	226.28
887.28	226.24
887.59	226.23
887.90	226.21
888.20	226.20
888.51	226.26
888.82	226.25
889.13	226.24
889.43	226.29
889.74	226.30
890.05	226.30
890.35	226.28
890.66	226.21
890.97	226.20
891.28	226.19
891.58	226.17
891.89	226.19
892.20	226.16
892.50	226.15
892.81	226.14
893.12	226.16
893.42	226.13
893.73	226.15
894.04	226.16
894.34	226.17
894.65	226.17
894.95	226.13
895.26	226.14
895.57	226.18
895.87	226.11
896.18	226.14
896.48	226.13
896.79	226.15
897.10	226.19
897.40	226.22
897.71	226.27
898.01	226.28
898.32	226.26
898.63	226.27
898.93	226.31
899.24	226.35
899.54	226.35
899.85	226.34
900.15	226.34
900.46	226.36
900.76	226.38
901.07	226.42
901.38	226.41
901.68	226.41
901.99	226.37
902.29	226.39
902.60	226.37
902.90	226.39
903.21	226.39
903.51	226.39
903.82	226.41
904.12	226.42
904.43	226.41
904.73	226.43
905.03	226.43
905.34	226.51
905.64	226.49
905.95	226.47
906.25	226.48
906.56	226.50
906.86	226.48
907.17	226.46
907.47	226.43
907.77	226.44
908.08	226.46
908.38	226.46
908.69	226.45
908.99	226.45
909.30	226.47
909.60	226.49
909.90	226.46
910.21	226.43
910.51	226.40
910.81	226.41
911.12	226.39
911.42	226.42
911.73	226.31
912.03	226.32
912.33	226.36
912.64	226.34
912.94	226.36
913.24	226.35
913.55	226.35
913.85	226.35
914.15	226.37
914.46	226.38
914.76	226.36
915.06	226.35
915.37	226.36
915.67	226.30
915.97	226.27
916.27	226.27
916.58	226.25
916.88	226.27
917.18	226.25
917.49	226.30
917.79	226.29
918.09	226.28
918.39	226.30
918.70	226.26
919.00	226.23
919.30	226.25
919.60	226.23
919.91	226.23
920.21	226.22
920.51	226.19
920.81	226.15
921.12	226.17
921.42	226.18
921.72	226.17
922.02	226.19
922.32	226.20
922.63	226.19
922.93	226.23
923.23	226.21
923.53	226.21
923.83	226.13
924.13	226.11
924.44	226.10
924.74	226.11
925.04	226.16
925.34	226.18
925.64	226.12
925.94	226.09
926.24	226.15
926.55	226.16
926.85	226.18
927.15	226.20
927.45	226.20
927.75	226.19
928.05	226.19
928.35	226.18
928.65	226.18
928.95	226.19
929.26	226.15
929.56	226.18
929.86	226.16
930.16	226.16
930.46	226.17
930.76	226.21
931.06	226.14
931.36	226.08
931.66	226.10
931.96	226.13
932.26	226.16
932.56	226.12
932.86	226.15
933.16	226.15
933.46	226.12
933.76	226.11
934.06	226.12
934.36	226.13
934.66	226.13
934.96	226.11
935.26	226.14
935.56	226.14
935.86	226.12
936.16	226.14
936.46	226.13
936.76	226.10
937.06	226.11
937.36	226.15
937.66	226.19
937.96	226.18
938.26	226.16
938.56	226.19
938.86	226.18
939.16	226.18
939.46	226.18
939.76	226.21
940.06	226.24
940.35	226.22
940.65	226.22
940.95	226.22
941.25	226.19
941.55	226.17
941.85	226.18
942.15	226.21
942.45	226.25
942.75	226.27
943.04	226.24
943.34	226.26
943.64	226.26
943.94	226.24
944.24	226.27
944.54	226.28
944.84	226.25
945.13	226.23
945.43	226.23
945.73	226.25
946.03	226.24
946.33	226.20
946.62	226.20
946.92	226.22
947.22	226.24
947.52	226.25
947.82	226.26
948.11	226.25
948.41	226.24
948.71	226.18
949.01	226.21
949.31	226.24
949.60	226.20
949.90	226.21
950.20	226.22
950.50	226.19
950.79	226.17
951.09	226.18
951.39	226.19
951.69	226.17
951.98	226.17
952.28	226.14
952.58	226.15
952.87	226.15
953.17	226.15
953.47	226.13
953.76	226.14
954.06	226.12
954.36	226.11
954.66	226.09
954.95	226.13
955.25	226.12
955.55	226.12
955.84	226.07
956.14	226.05
956.44	226.07
956.73	226.04
957.03	226.03
957.32	226.03
957.62	226.02
957.92	226.03
958.21	226.02
958.51	226.12
958.81	226.13
959.10	226.13
959.40	226.16
959.69	226.15
959.99	226.15
960.29	226.13
960.58	226.13
960.88	226.16
961.17	226.12
961.47	226.10
961.76	226.09
962.06	226.12
962.36	226.12
962.65	226.11
962.95	226.16
963.24	226.18
963.54	226.13
963.83	226.15
964.13	226.17
964.42	226.15
964.72	226.05
965.01	226.05
965.31	226.02
965.60	225.98
965.90	226.02
966.19	226.01
966.49	226.03
966.78	226.01
967.08	225.99
967.37	226.01
967.67	226.01
967.96	226.04
968.26	226.07
968.55	226.07
968.85	226.06
969.14	226.04
969.43	226.01
969.73	226.07
970.02	226.02
970.32	225.98
970.61	225.96
970.91	225.94
971.20	225.91
971.49	225.92
971.79	225.92
972.08	225.88
972.38	225.88
972.67	225.87
972.96	225.90
973.26	225.87
973.55	225.90
973.85	225.86
974.14	225.85
974.43	225.86
974.73	225.82
975.02	225.81
975.31	225.83
975.61	225.85
975.90	225.83
976.19	225.84
976.49	225.86
976.78	225.83
977.07	225.86
977.37	225.88
977.66	225.87
977.95	225.84
978.24	225.85
978.54	225.85
978.83	225.87
979.12	225.85
979.42	225.84
979.71	225.79
980.00	225.83
980.29	225.84
980.59	225.80
980.88	225.83
981.17	225.83
981.46	225.80
981.76	225.81
982.05	225.84
982.34	225.86
982.63	225.83
982.93	225.86
983.22	225.85
983.51	225.85
983.80	225.87
984.09	225.90
984.39	225.89
984.68	225.87
984.97	225.85
985.26	225.86
985.55	225.90
985.85	225.85
986.14	225.84
986.43	225.84
986.72	225.83
987.01	225.82
987.30	225.82
987.59	225.81
987.89	225.81
988.18	225.79
988.47	225.77
988.76	225.78
989.05	225.80
989.34	225.80
989.63	225.84
989.92	225.85
990.22	225.80
990.51	225.82
990.80	225.82
991.09	225.82
991.38	225.80
991.67	225.78
991.96	225.82
992.25	225.82
992.54	225.82
992.83	225.84
993.12	225.82
993.41	225.85
993.70	225.89
993.99	225.90
994.28	225.89
994.58	225.90
994.87	225.89
995.16	225.87
995.45	225.81
995.74	225.77
996.03	225.79
996.32	225.83
996.61	225.84
996.90	225.85
997.19	225.85
997.48	225.88
997.77	225.88
998.06	225.90
998.34	225.88
998.63	225.86
998.92	225.83
999.21	225.89
999.50	225.85
999.79	225.82
1000.08	225.82
1000.37	225.82
1000.66	225.80
1000.95	225.80
1001.24	225.81
1001.53	225.87
1001.82	225.86
1002.11	225.80
1002.40	225.84
1002.68	225.84
1002.97	225.90
1003.26	225.89
1003.55	225.88
1003.84	225.87
1004.13	225.89
1004.42	225.89
1004.71	225.90
1004.99	225.93
1005.28	225.90
1005.57	225.91
1005.86	225.89
1006.15	225.88
1006.44	225.85
1006.72	225.87
1007.01	225.88
1007.30	225.88
1007.59	225.88
1007.88	225.88
1008.17	225.91
1008.45	225.85
1008.74	225.82
1009.03	225.75
1009.32	225.75
1009.60	225.74
1009.89	225.74
1010.18	225.70
1010.47	225.71
1010.76	225.69
1011.04	225.67
1011.33	225.74
1011.62	225.73
1011.91	225.75
1012.19	225.73
1012.48	225.77
1012.77	225.78
1013.05	225.83
1013.34	225.85
1013.63	225.85
1013.92	225.88
1014.20	225.88
1014.49	225.89
1014.78	225.88
1015.06	225.88
1015.35	225.87
1015.64	225.90
1015.92	225.91
1016.21	225.92
1016.50	225.94
1016.78	225.98
1017.07	226.01
1017.36	225.95
1017.64	225.97
1017.93	225.94
1018.22	225.93
1018.50	225.92
1018.79	225.90
1019.08	225.86
1019.36	225.86
1019.65	225.85
1019.93	225.88
1020.22	225.91
1020.51	225.96
1020.79	225.96
1021.08	225.43
1021.36	225.74
1021.65	225.94
1021.94	225.90
1022.22	225.99
1022.51	225.70
1022.79	226.74
1023.08	226.47
1023.36	226.98
1023.65	225.57
>>>>>End Processed Spectral Data<<<<<
