SpectraSuite Data File
++++++++++++++++++++++++++++++++++++
Date: Fri Feb 01 16:23:36 EST 2013
User: group
Dark Spectrum Present: No
Reference Spectrum Present: No
Number of Sampled Component Spectra: 1
Spectrometers: USB2E7196
Integration Time (usec): 35000 (USB2E7196)
Spectra Averaged: 100 (USB2E7196)
Boxcar Smoothing: 10 (USB2E7196)
Correct for Electrical Dark: No (USB2E7196)
Strobe/Lamp Enabled: No (USB2E7196)
Correct for Detector Non-linearity: No (USB2E7196)
Correct for Stray Light: No (USB2E7196)
Number of Pixels in Processed Spectrum: 2048
>>>>>Begin Processed Spectral Data<<<<<
339.09	0.00
339.48	214.73
339.86	215.78
340.24	216.72
340.63	218.50
341.01	221.21
341.39	220.64
341.78	222.58
342.16	223.43
342.54	223.94
342.93	212.53
343.31	223.27
343.69	223.78
344.07	224.25
344.46	224.69
344.84	225.07
345.22	225.33
345.60	225.62
345.99	225.78
346.37	225.93
346.75	226.07
347.13	226.12
347.52	226.18
347.90	226.24
348.28	226.30
348.66	226.34
349.05	226.37
349.43	226.44
349.81	226.49
350.19	226.50
350.57	226.57
350.96	226.65
351.34	226.73
351.72	226.81
352.10	226.89
352.48	226.96
352.87	227.02
353.25	227.08
353.63	227.13
354.01	227.22
354.39	227.27
354.77	227.33
355.15	227.44
355.54	227.51
355.92	227.55
356.30	227.64
356.68	227.75
357.06	227.80
357.44	227.88
357.82	227.91
358.20	228.03
358.58	228.05
358.97	228.09
359.35	228.18
359.73	228.27
360.11	228.32
360.49	228.37
360.87	228.39
361.25	228.42
361.63	228.51
362.01	228.57
362.39	228.60
362.77	228.62
363.15	228.66
363.53	228.68
363.91	228.71
364.29	228.70
364.67	228.62
365.05	228.64
365.43	228.60
365.81	228.64
366.19	228.65
366.57	228.69
366.95	228.71
367.33	228.68
367.71	228.67
368.09	228.68
368.47	228.67
368.85	228.66
369.23	228.65
369.61	228.60
369.99	228.58
370.37	228.58
370.75	228.56
371.13	228.49
371.51	228.43
371.89	228.35
372.27	228.30
372.65	228.27
373.03	228.19
373.41	228.17
373.78	228.08
374.16	227.98
374.54	227.89
374.92	227.79
375.30	227.75
375.68	227.63
376.06	227.56
376.44	227.48
376.82	227.41
377.19	227.34
377.57	227.24
377.95	227.10
378.33	226.99
378.71	226.87
379.09	226.82
379.47	226.80
379.84	226.72
380.22	226.65
380.60	226.55
380.98	226.48
381.36	226.40
381.73	226.34
382.11	226.27
382.49	226.22
382.87	226.12
383.25	226.05
383.62	226.11
384.00	226.03
384.38	225.98
384.76	225.94
385.13	225.92
385.51	225.86
385.89	225.80
386.27	225.80
386.64	225.79
387.02	225.73
387.40	225.68
387.78	225.67
388.15	225.62
388.53	225.59
388.91	225.56
389.29	225.53
389.66	225.52
390.04	225.49
390.42	225.50
390.79	225.51
391.17	225.46
391.55	225.35
391.92	225.34
392.30	225.33
392.68	225.30
393.05	225.32
393.43	225.35
393.81	225.37
394.18	225.35
394.56	225.37
394.94	225.43
395.31	225.40
395.69	225.45
396.06	225.51
396.44	225.57
396.82	225.62
397.19	225.71
397.57	225.74
397.95	225.83
398.32	225.83
398.70	225.90
399.07	225.97
399.45	226.01
399.82	226.07
400.20	226.14
400.58	226.22
400.95	226.23
401.33	226.32
401.70	226.46
402.08	226.59
402.45	226.67
402.83	226.76
403.20	226.90
403.58	227.03
403.95	227.16
404.33	227.23
404.71	227.35
405.08	227.55
405.46	227.68
405.83	227.82
406.21	227.98
406.58	228.17
406.96	228.38
407.33	228.58
407.70	228.80
408.08	229.06
408.45	229.29
408.83	229.56
409.20	229.80
409.58	230.00
409.95	230.25
410.33	230.54
410.70	230.79
411.08	231.07
411.45	231.38
411.82	231.68
412.20	232.08
412.57	232.48
412.95	232.80
413.32	233.22
413.69	233.63
414.07	234.06
414.44	234.50
414.82	234.97
415.19	235.53
415.56	236.06
415.94	236.65
416.31	237.25
416.68	237.85
417.06	238.55
417.43	239.21
417.81	239.99
418.18	240.75
418.55	241.61
418.93	242.47
419.30	243.34
419.67	244.27
420.04	245.23
420.42	246.22
420.79	247.37
421.16	248.49
421.54	249.68
421.91	250.91
422.28	252.17
422.66	253.47
423.03	254.75
423.40	256.08
423.77	257.44
424.15	258.86
424.52	260.34
424.89	261.94
425.26	263.47
425.64	264.89
426.01	266.46
426.38	268.12
426.75	269.82
427.13	271.56
427.50	273.36
427.87	275.21
428.24	277.07
428.61	278.78
428.99	280.74
429.36	282.81
429.73	284.86
430.10	286.85
430.47	288.89
430.85	290.99
431.22	293.19
431.59	295.55
431.96	297.78
432.33	300.25
432.70	302.61
433.08	305.40
433.45	308.06
433.82	310.67
434.19	313.51
434.56	316.28
434.93	318.86
435.30	321.48
435.68	324.34
436.05	327.17
436.42	329.97
436.79	332.42
437.16	335.12
437.53	337.96
437.90	340.77
438.27	343.55
438.64	346.39
439.01	348.99
439.38	351.23
439.75	353.41
440.13	355.88
440.50	358.15
440.87	360.03
441.24	361.93
441.61	364.10
441.98	365.56
442.35	367.32
442.72	369.23
443.09	371.04
443.46	372.06
443.83	372.59
444.20	373.09
444.57	373.93
444.94	374.23
445.31	374.55
445.68	374.92
446.05	374.96
446.42	374.57
446.79	374.14
447.16	373.71
447.53	373.37
447.90	372.24
448.27	371.16
448.64	369.54
449.01	368.43
449.37	366.45
449.74	364.59
450.11	362.36
450.48	359.88
450.85	357.39
451.22	355.24
451.59	353.27
451.96	351.34
452.33	348.79
452.70	346.45
453.07	343.65
453.43	340.75
453.80	338.01
454.17	335.34
454.54	332.80
454.91	330.08
455.28	327.45
455.65	324.97
456.02	322.52
456.38	320.37
456.75	317.73
457.12	315.47
457.49	313.27
457.86	311.13
458.23	309.30
458.59	307.25
458.96	305.19
459.33	303.36
459.70	301.52
460.07	300.02
460.43	298.31
460.80	296.69
461.17	295.25
461.54	293.77
461.91	292.34
462.27	290.95
462.64	289.73
463.01	288.36
463.38	287.10
463.74	285.74
464.11	284.63
464.48	283.59
464.85	282.50
465.21	281.62
465.58	280.67
465.95	279.58
466.32	278.68
466.68	277.76
467.05	276.88
467.42	275.97
467.78	275.03
468.15	274.11
468.52	273.47
468.88	272.61
469.25	271.85
469.62	271.27
469.98	270.57
470.35	269.94
470.72	269.37
471.08	268.70
471.45	268.15
471.82	267.61
472.18	266.99
472.55	266.56
472.92	266.10
473.28	265.62
473.65	265.16
474.02	264.69
474.38	264.30
474.75	263.99
475.11	263.64
475.48	263.37
475.85	263.18
476.21	262.91
476.58	262.73
476.94	262.57
477.31	262.37
477.67	262.21
478.04	262.07
478.41	262.05
478.77	262.09
479.14	262.05
479.50	262.05
479.87	262.16
480.23	262.26
480.60	262.31
480.96	262.45
481.33	262.67
481.69	262.87
482.06	263.05
482.42	263.25
482.79	263.52
483.15	263.85
483.52	264.23
483.88	264.59
484.25	264.99
484.61	265.42
484.98	265.87
485.34	266.44
485.71	267.07
486.07	267.65
486.44	268.23
486.80	268.93
487.17	269.65
487.53	270.46
487.90	271.30
488.26	272.22
488.62	273.19
488.99	274.19
489.35	275.26
489.72	276.44
490.08	277.65
490.44	278.90
490.81	280.22
491.17	281.56
491.54	283.07
491.90	284.62
492.26	286.28
492.63	288.05
492.99	289.84
493.36	291.74
493.72	293.78
494.08	295.89
494.45	298.17
494.81	300.53
495.17	303.01
495.54	305.61
495.90	308.33
496.26	311.14
496.63	314.10
496.99	317.25
497.35	320.52
497.72	323.95
498.08	327.51
498.44	331.17
498.80	335.09
499.17	339.13
499.53	343.29
499.89	347.63
500.26	352.16
500.62	356.86
500.98	361.87
501.34	366.96
501.71	372.29
502.07	377.73
502.43	383.37
502.79	389.12
503.16	395.18
503.52	401.44
503.88	407.91
504.24	414.54
504.60	421.39
504.97	428.55
505.33	435.87
505.69	443.55
506.05	451.38
506.41	459.26
506.78	467.39
507.14	475.88
507.50	484.67
507.86	493.72
508.22	502.91
508.59	512.05
508.95	521.65
509.31	531.46
509.67	541.56
510.03	551.88
510.39	562.42
510.75	573.24
511.12	584.23
511.48	595.51
511.84	606.97
512.20	618.51
512.56	630.46
512.92	642.67
513.28	654.98
513.64	667.46
514.00	680.17
514.37	693.21
514.73	706.26
515.09	719.28
515.45	732.47
515.81	746.05
516.17	760.09
516.53	774.16
516.89	788.30
517.25	802.43
517.61	816.82
517.97	831.36
518.33	845.65
518.69	860.38
519.05	875.36
519.41	890.44
519.77	905.99
520.13	921.37
520.49	936.68
520.85	952.17
521.21	967.81
521.57	983.89
521.93	999.57
522.29	1015.91
522.65	1032.10
523.01	1048.28
523.37	1064.26
523.73	1080.29
524.09	1096.30
524.45	1112.58
524.81	1129.18
525.17	1145.93
525.53	1162.79
525.89	1179.67
526.25	1196.42
526.61	1212.74
526.97	1229.37
527.33	1245.71
527.68	1262.22
528.04	1278.68
528.40	1295.11
528.76	1312.08
529.12	1328.72
529.48	1345.50
529.84	1361.41
530.20	1378.06
530.56	1395.00
530.91	1412.30
531.27	1428.94
531.63	1445.35
531.99	1461.91
532.35	1477.69
532.71	1493.55
533.07	1509.68
533.42	1525.42
533.78	1541.32
534.14	1557.48
534.50	1572.86
534.86	1588.71
535.21	1603.77
535.57	1619.55
535.93	1634.98
536.29	1649.66
536.65	1664.66
537.00	1679.31
537.36	1694.50
537.72	1708.94
538.08	1723.17
538.44	1736.93
538.79	1750.78
539.15	1764.34
539.51	1777.95
539.87	1792.30
540.22	1805.98
540.58	1819.65
540.94	1833.04
541.29	1845.97
541.65	1858.50
542.01	1871.53
542.37	1883.73
542.72	1896.05
543.08	1907.70
543.44	1919.92
543.79	1931.11
544.15	1941.98
544.51	1953.47
544.87	1964.42
545.22	1974.99
545.58	1985.28
545.94	1994.91
546.29	2004.76
546.65	2014.64
547.01	2023.87
547.36	2032.44
547.72	2040.80
548.07	2048.61
548.43	2056.65
548.79	2064.51
549.14	2072.10
549.50	2079.41
549.86	2087.05
550.21	2094.49
550.57	2101.73
550.92	2108.42
551.28	2115.45
551.64	2122.51
551.99	2129.03
552.35	2135.08
552.70	2141.28
553.06	2147.17
553.41	2153.63
553.77	2159.57
554.13	2165.51
554.48	2171.62
554.84	2177.18
555.19	2182.48
555.55	2187.58
555.90	2192.04
556.26	2197.01
556.61	2201.61
556.97	2206.05
557.32	2210.16
557.68	2214.09
558.03	2218.25
558.39	2221.87
558.74	2226.51
559.10	2230.35
559.45	2233.98
559.81	2238.24
560.16	2242.13
560.52	2245.38
560.87	2248.75
561.23	2251.48
561.58	2254.52
561.94	2256.98
562.29	2259.23
562.64	2261.79
563.00	2264.34
563.35	2267.79
563.71	2270.85
564.06	2274.23
564.42	2277.06
564.77	2279.54
565.12	2281.89
565.48	2283.92
565.83	2285.89
566.19	2287.32
566.54	2288.17
566.89	2289.47
567.25	2290.23
567.60	2291.50
567.96	2293.34
568.31	2294.27
568.66	2295.50
569.02	2296.04
569.37	2296.51
569.72	2297.48
570.08	2297.68
570.43	2297.83
570.78	2297.34
571.14	2295.76
571.49	2294.43
571.84	2294.13
572.20	2293.08
572.55	2292.08
572.90	2290.46
573.26	2289.06
573.61	2287.39
573.96	2285.74
574.31	2282.75
574.67	2279.83
575.02	2276.36
575.37	2272.86
575.72	2269.10
576.08	2265.71
576.43	2262.49
576.78	2258.76
577.13	2255.59
577.49	2252.62
577.84	2249.20
578.19	2245.60
578.54	2242.16
578.90	2237.94
579.25	2232.49
579.60	2227.54
579.95	2222.64
580.30	2217.71
580.66	2212.57
581.01	2207.54
581.36	2202.72
581.71	2198.59
582.06	2194.15
582.42	2189.60
582.77	2184.46
583.12	2179.89
583.47	2175.26
583.82	2170.34
584.17	2165.24
584.53	2159.94
584.88	2154.36
585.23	2148.64
585.58	2143.22
585.93	2137.94
586.28	2133.35
586.63	2128.30
586.98	2123.34
587.34	2118.55
587.69	2113.86
588.04	2108.62
588.39	2103.08
588.74	2096.65
589.09	2090.59
589.44	2083.83
589.79	2077.97
590.14	2072.41
590.49	2065.74
590.84	2059.20
591.19	2053.18
591.54	2046.68
591.89	2039.39
592.25	2032.50
592.60	2025.35
592.95	2017.82
593.30	2010.47
593.65	2002.90
594.00	1995.92
594.35	1988.68
594.70	1980.77
595.05	1973.49
595.40	1966.40
595.75	1958.88
596.10	1952.79
596.45	1946.03
596.80	1939.96
597.15	1933.47
597.50	1926.47
597.85	1920.17
598.19	1913.75
598.54	1906.81
598.89	1900.17
599.24	1894.27
599.59	1887.66
599.94	1881.51
600.29	1875.15
600.64	1868.49
600.99	1861.00
601.34	1854.12
601.69	1847.29
602.04	1840.52
602.39	1833.10
602.74	1826.21
603.08	1819.40
603.43	1812.60
603.78	1805.36
604.13	1798.07
604.48	1790.77
604.83	1783.81
605.18	1776.81
605.53	1768.80
605.87	1760.81
606.22	1753.66
606.57	1745.73
606.92	1738.39
607.27	1731.07
607.62	1724.18
607.96	1716.99
608.31	1710.35
608.66	1702.67
609.01	1695.09
609.36	1687.53
609.70	1679.64
610.05	1671.53
610.40	1664.00
610.75	1655.77
611.10	1648.14
611.44	1639.76
611.79	1631.59
612.14	1623.03
612.49	1613.92
612.83	1605.51
613.18	1597.22
613.53	1589.02
613.88	1580.39
614.22	1572.12
614.57	1563.67
614.92	1555.56
615.27	1548.01
615.61	1539.59
615.96	1531.61
616.31	1524.00
616.65	1516.55
617.00	1509.02
617.35	1501.40
617.70	1493.03
618.04	1484.39
618.39	1476.02
618.74	1468.33
619.08	1460.10
619.43	1452.52
619.78	1445.58
620.12	1438.45
620.47	1430.94
620.82	1422.88
621.16	1415.56
621.51	1408.06
621.85	1400.36
622.20	1391.94
622.55	1383.57
622.89	1375.79
623.24	1368.16
623.59	1360.69
623.93	1353.23
624.28	1345.94
624.62	1338.40
624.97	1331.19
625.32	1324.59
625.66	1317.75
626.01	1310.75
626.35	1303.29
626.70	1295.40
627.04	1287.76
627.39	1280.03
627.73	1272.72
628.08	1265.78
628.43	1258.41
628.77	1250.92
629.12	1243.43
629.46	1236.27
629.81	1228.82
630.15	1221.66
630.50	1214.32
630.84	1206.18
631.19	1198.28
631.53	1190.82
631.88	1183.30
632.22	1175.77
632.57	1168.42
632.91	1160.75
633.26	1153.22
633.60	1145.83
633.95	1138.80
634.29	1131.69
634.64	1124.94
634.98	1117.58
635.32	1110.39
635.67	1103.82
636.01	1097.29
636.36	1090.45
636.70	1083.78
637.05	1077.25
637.39	1070.70
637.73	1064.16
638.08	1058.21
638.42	1052.14
638.77	1045.62
639.11	1039.01
639.45	1032.52
639.80	1025.84
640.14	1019.46
640.49	1013.08
640.83	1006.77
641.17	1000.57
641.52	994.19
641.86	987.70
642.20	981.87
642.55	975.58
642.89	969.13
643.23	962.49
643.58	956.68
643.92	950.60
644.26	944.52
644.61	938.48
644.95	932.43
645.29	925.82
645.64	919.10
645.98	912.81
646.32	906.99
646.66	901.10
647.01	895.35
647.35	889.57
647.69	883.57
648.04	878.02
648.38	872.24
648.72	866.33
649.06	860.23
649.41	854.32
649.75	848.34
650.09	842.40
650.43	836.65
650.78	830.56
651.12	824.58
651.46	818.75
651.80	813.03
652.14	807.65
652.49	802.32
652.83	797.23
653.17	791.60
653.51	785.82
653.85	780.29
654.20	774.57
654.54	768.55
654.88	762.80
655.22	756.90
655.56	751.17
655.90	745.68
656.25	740.56
656.59	735.18
656.93	730.13
657.27	724.84
657.61	719.43
657.95	714.33
658.29	709.30
658.64	704.06
658.98	698.72
659.32	693.26
659.66	688.09
660.00	682.64
660.34	677.67
660.68	672.80
661.02	667.85
661.36	663.17
661.70	658.70
662.05	654.46
662.39	650.11
662.73	645.62
663.07	641.23
663.41	636.71
663.75	632.19
664.09	627.59
664.43	623.22
664.77	619.15
665.11	614.85
665.45	610.68
665.79	606.67
666.13	602.60
666.47	598.52
666.81	594.33
667.15	590.24
667.49	586.32
667.83	582.51
668.17	578.57
668.51	574.50
668.85	570.51
669.19	566.61
669.53	562.83
669.87	559.01
670.21	555.33
670.55	551.69
670.89	548.28
671.23	544.85
671.57	541.37
671.91	537.77
672.25	534.32
672.58	530.80
672.92	527.41
673.26	524.24
673.60	521.10
673.94	517.96
674.28	515.07
674.62	512.09
674.96	508.94
675.30	505.96
675.64	503.02
675.97	500.23
676.31	497.34
676.65	494.40
676.99	491.67
677.33	488.77
677.67	485.96
678.01	482.92
678.34	479.92
678.68	477.05
679.02	474.22
679.36	471.46
679.70	468.74
680.04	465.91
680.37	463.00
680.71	460.20
681.05	457.58
681.39	454.89
681.73	452.27
682.06	449.71
682.40	447.17
682.74	444.57
683.08	442.02
683.42	439.42
683.75	436.89
684.09	434.28
684.43	431.84
684.77	429.32
685.10	426.98
685.44	424.69
685.78	422.45
686.12	420.19
686.45	417.90
686.79	415.60
687.13	413.39
687.46	411.19
687.80	409.08
688.14	406.93
688.48	404.85
688.81	402.60
689.15	400.45
689.49	398.31
689.82	396.24
690.16	394.13
690.50	392.15
690.83	390.22
691.17	388.27
691.51	386.35
691.84	384.52
692.18	382.58
692.52	380.58
692.85	378.60
693.19	376.73
693.52	374.86
693.86	373.01
694.20	371.25
694.53	369.47
694.87	367.60
695.21	365.77
695.54	363.95
695.88	362.20
696.21	360.50
696.55	358.81
696.88	357.12
697.22	355.47
697.56	353.91
697.89	352.26
698.23	350.66
698.56	349.09
698.90	347.52
699.23	345.90
699.57	344.40
699.90	342.85
700.24	341.32
700.58	339.84
700.91	338.37
701.25	336.89
701.58	335.52
701.92	334.11
702.25	332.70
702.59	331.29
702.92	330.01
703.26	328.72
703.59	327.46
703.93	326.30
704.26	325.06
704.60	323.74
704.93	322.48
705.26	321.24
705.60	320.06
705.93	318.96
706.27	317.90
706.60	316.85
706.94	315.75
707.27	314.64
707.61	313.52
707.94	312.54
708.27	311.44
708.61	310.39
708.94	309.45
709.28	308.54
709.61	307.60
709.94	306.58
710.28	305.54
710.61	304.55
710.95	303.49
711.28	302.59
711.61	301.63
711.95	300.73
712.28	299.78
712.61	298.77
712.95	297.80
713.28	296.91
713.61	295.99
713.95	295.13
714.28	294.27
714.61	293.39
714.95	292.50
715.28	291.69
715.61	290.76
715.95	289.88
716.28	288.97
716.61	288.13
716.95	287.36
717.28	286.59
717.61	285.82
717.94	285.08
718.28	284.23
718.61	283.48
718.94	282.75
719.27	282.05
719.61	281.41
719.94	280.69
720.27	280.00
720.60	279.34
720.94	278.71
721.27	278.10
721.60	277.50
721.93	276.89
722.27	276.28
722.60	275.75
722.93	275.18
723.26	274.61
723.59	274.04
723.93	273.41
724.26	272.85
724.59	272.27
724.92	271.70
725.25	271.18
725.59	270.66
725.92	270.14
726.25	269.67
726.58	269.16
726.91	268.68
727.24	268.14
727.57	267.67
727.91	267.12
728.24	266.62
728.57	266.16
728.90	265.70
729.23	265.21
729.56	264.76
729.89	264.26
730.22	263.76
730.55	263.30
730.89	262.86
731.22	262.44
731.55	261.99
731.88	261.57
732.21	261.21
732.54	260.75
732.87	260.31
733.20	259.86
733.53	259.49
733.86	259.12
734.19	258.77
734.52	258.38
734.85	258.10
735.18	257.72
735.51	257.37
735.84	256.99
736.17	256.67
736.50	256.30
736.83	256.10
737.16	255.81
737.49	255.46
737.82	255.12
738.15	254.78
738.48	254.47
738.81	254.15
739.14	253.79
739.47	253.50
739.80	253.20
740.13	252.93
740.46	252.62
740.79	252.30
741.12	252.00
741.45	251.68
741.78	251.31
742.11	251.05
742.44	250.70
742.77	250.48
743.10	250.20
743.43	249.92
743.75	249.55
744.08	249.42
744.41	249.19
744.74	248.97
745.07	248.73
745.40	248.50
745.73	248.30
746.06	248.04
746.39	247.83
746.71	247.59
747.04	247.34
747.37	247.07
747.70	246.84
748.03	246.62
748.36	246.44
748.68	246.21
749.01	245.98
749.34	245.79
749.67	245.52
750.00	245.29
750.33	245.11
750.65	244.91
750.98	244.58
751.31	244.37
751.64	244.13
751.97	243.99
752.29	243.77
752.62	243.49
752.95	243.30
753.28	243.09
753.60	242.89
753.93	242.70
754.26	242.51
754.59	242.29
754.91	242.09
755.24	241.88
755.57	241.68
755.90	241.45
756.22	241.23
756.55	241.04
756.88	240.87
757.20	240.65
757.53	240.42
757.86	240.25
758.19	240.05
758.51	239.87
758.84	239.65
759.17	239.46
759.49	239.31
759.82	239.17
760.15	239.00
760.47	238.83
760.80	238.62
761.13	238.47
761.45	238.30
761.78	238.14
762.11	237.96
762.43	237.82
762.76	237.68
763.08	237.57
763.41	237.43
763.74	237.25
764.06	237.10
764.39	236.95
764.71	236.79
765.04	236.65
765.37	236.52
765.69	236.38
766.02	236.25
766.34	236.13
766.67	235.97
767.00	235.86
767.32	235.75
767.65	235.71
767.97	235.59
768.30	235.48
768.62	235.32
768.95	235.20
769.27	235.08
769.60	235.01
769.92	234.86
770.25	234.73
770.57	234.64
770.90	234.52
771.22	234.41
771.55	234.29
771.87	234.18
772.20	234.06
772.52	234.02
772.85	234.03
773.17	233.90
773.50	233.79
773.82	233.67
774.15	233.56
774.47	233.43
774.80	233.33
775.12	233.24
775.45	233.16
775.77	233.09
776.09	233.02
776.42	232.95
776.74	232.94
777.07	232.85
777.39	232.76
777.72	232.68
778.04	232.62
778.36	232.56
778.69	232.49
779.01	232.45
779.33	232.33
779.66	232.14
779.98	232.09
780.31	232.04
780.63	232.02
780.95	231.94
781.28	231.86
781.60	231.80
781.92	231.73
782.25	231.70
782.57	231.64
782.89	231.55
783.22	231.47
783.54	231.40
783.86	231.38
784.19	231.31
784.51	231.28
784.83	231.22
785.16	231.19
785.48	231.17
785.80	231.11
786.12	231.06
786.45	231.05
786.77	230.99
787.09	230.94
787.42	230.85
787.74	230.84
788.06	230.83
788.38	230.79
788.71	230.74
789.03	230.72
789.35	230.72
789.67	230.69
789.99	230.66
790.32	230.62
790.64	230.57
790.96	230.64
791.28	230.58
791.61	230.55
791.93	230.53
792.25	230.48
792.57	230.54
792.89	230.50
793.21	230.46
793.54	230.44
793.86	230.39
794.18	230.41
794.50	230.35
794.82	230.28
795.14	230.24
795.47	230.25
795.79	230.21
796.11	230.14
796.43	230.10
796.75	230.04
797.07	229.98
797.39	229.98
797.71	229.84
798.04	229.81
798.36	229.79
798.68	229.76
799.00	229.70
799.32	229.63
799.64	229.60
799.96	229.58
800.28	229.59
800.60	229.57
800.92	229.52
801.24	229.48
801.56	229.49
801.89	229.44
802.21	229.41
802.53	229.34
802.85	229.32
803.17	229.33
803.49	229.28
803.81	229.21
804.13	229.15
804.45	229.09
804.77	229.09
805.09	229.03
805.41	228.98
805.73	228.95
806.05	228.91
806.37	228.86
806.69	228.82
807.01	228.76
807.33	228.70
807.65	228.62
807.97	228.62
808.28	228.55
808.60	228.53
808.92	228.47
809.24	228.49
809.56	228.45
809.88	228.39
810.20	228.39
810.52	228.39
810.84	228.34
811.16	228.33
811.48	228.26
811.80	228.28
812.12	228.19
812.43	228.18
812.75	228.13
813.07	228.12
813.39	228.10
813.71	228.07
814.03	228.06
814.35	228.05
814.67	228.02
814.98	227.96
815.30	227.95
815.62	227.91
815.94	227.84
816.26	227.83
816.58	227.82
816.89	227.80
817.21	227.77
817.53	227.77
817.85	227.79
818.17	227.77
818.48	227.73
818.80	227.78
819.12	227.74
819.44	227.72
819.76	227.68
820.07	227.68
820.39	227.64
820.71	227.66
821.03	227.66
821.34	227.61
821.66	227.67
821.98	227.66
822.30	227.63
822.61	227.65
822.93	227.61
823.25	227.57
823.57	227.56
823.88	227.58
824.20	227.58
824.52	227.56
824.83	227.56
825.15	227.56
825.47	227.53
825.79	227.54
826.10	227.54
826.42	227.52
826.74	227.48
827.05	227.50
827.37	227.48
827.69	227.47
828.00	227.49
828.32	227.45
828.64	227.40
828.95	227.50
829.27	227.51
829.58	227.51
829.90	227.54
830.22	227.50
830.53	227.46
830.85	227.45
831.17	227.44
831.48	227.44
831.80	227.44
832.11	227.43
832.43	227.41
832.75	227.40
833.06	227.44
833.38	227.43
833.69	227.40
834.01	227.38
834.32	227.36
834.64	227.31
834.96	227.30
835.27	227.28
835.59	227.23
835.90	227.19
836.22	227.19
836.53	227.16
836.85	227.18
837.16	227.26
837.48	227.26
837.79	227.26
838.11	227.24
838.42	227.20
838.74	227.24
839.05	227.25
839.37	227.24
839.68	227.19
840.00	227.20
840.31	227.19
840.63	227.16
840.94	227.16
841.26	227.17
841.57	227.17
841.88	227.21
842.20	227.18
842.51	227.16
842.83	227.11
843.14	227.16
843.46	227.14
843.77	227.08
844.08	227.04
844.40	227.01
844.71	227.00
845.03	226.99
845.34	226.95
845.65	226.91
845.97	226.90
846.28	226.92
846.60	226.90
846.91	226.91
847.22	226.93
847.54	226.94
847.85	226.93
848.16	226.89
848.48	226.82
848.79	226.86
849.10	226.88
849.42	226.87
849.73	226.79
850.04	226.76
850.36	226.73
850.67	226.74
850.98	226.72
851.30	226.70
851.61	226.67
851.92	226.65
852.23	226.66
852.55	226.63
852.86	226.58
853.17	226.60
853.49	226.57
853.80	226.56
854.11	226.54
854.42	226.55
854.74	226.56
855.05	226.60
855.36	226.55
855.67	226.51
855.99	226.52
856.30	226.61
856.61	226.62
856.92	226.56
857.23	226.55
857.55	226.54
857.86	226.55
858.17	226.56
858.48	226.54
858.79	226.56
859.11	226.58
859.42	226.59
859.73	226.53
860.04	226.56
860.35	226.49
860.66	226.47
860.98	226.46
861.29	226.46
861.60	226.42
861.91	226.43
862.22	226.45
862.53	226.45
862.84	226.37
863.16	226.38
863.47	226.39
863.78	226.39
864.09	226.37
864.40	226.35
864.71	226.36
865.02	226.35
865.33	226.36
865.64	226.31
865.95	226.31
866.27	226.42
866.58	226.42
866.89	226.47
867.20	226.47
867.51	226.46
867.82	226.48
868.13	226.50
868.44	226.49
868.75	226.50
869.06	226.50
869.37	226.49
869.68	226.47
869.99	226.50
870.30	226.50
870.61	226.54
870.92	226.53
871.23	226.54
871.54	226.54
871.85	226.50
872.16	226.55
872.47	226.55
872.78	226.48
873.09	226.48
873.40	226.46
873.71	226.44
874.02	226.43
874.33	226.41
874.64	226.40
874.95	226.42
875.26	226.41
875.56	226.40
875.87	226.38
876.18	226.40
876.49	226.51
876.80	226.50
877.11	226.47
877.42	226.50
877.73	226.51
878.04	226.53
878.35	226.54
878.66	226.55
878.96	226.55
879.27	226.52
879.58	226.50
879.89	226.51
880.20	226.53
880.51	226.53
880.82	226.55
881.12	226.53
881.43	226.50
881.74	226.45
882.05	226.44
882.36	226.46
882.67	226.46
882.97	226.32
883.28	226.32
883.59	226.33
883.90	226.32
884.21	226.33
884.51	226.31
884.82	226.32
885.13	226.33
885.44	226.31
885.74	226.34
886.05	226.34
886.36	226.34
886.67	226.31
886.98	226.39
887.28	226.37
887.59	226.41
887.90	226.43
888.20	226.47
888.51	226.50
888.82	226.47
889.13	226.48
889.43	226.57
889.74	226.54
890.05	226.53
890.35	226.51
890.66	226.51
890.97	226.50
891.28	226.49
891.58	226.46
891.89	226.44
892.20	226.38
892.50	226.38
892.81	226.37
893.12	226.37
893.42	226.31
893.73	226.32
894.04	226.27
894.34	226.27
894.65	226.26
894.95	226.23
895.26	226.24
895.57	226.25
895.87	226.17
896.18	226.21
896.48	226.22
896.79	226.20
897.10	226.20
897.40	226.20
897.71	226.18
898.01	226.19
898.32	226.21
898.63	226.22
898.93	226.21
899.24	226.25
899.54	226.25
899.85	226.23
900.15	226.21
900.46	226.22
900.76	226.22
901.07	226.16
901.38	226.15
901.68	226.16
901.99	226.11
902.29	226.09
902.60	226.08
902.90	226.04
903.21	226.08
903.51	226.02
903.82	226.03
904.12	226.01
904.43	225.99
904.73	225.99
905.03	225.99
905.34	226.07
905.64	226.04
905.95	226.05
906.25	226.05
906.56	226.05
906.86	226.02
907.17	226.00
907.47	226.04
907.77	225.99
908.08	225.95
908.38	225.95
908.69	225.96
908.99	225.98
909.30	226.00
909.60	225.96
909.90	225.99
910.21	225.99
910.51	225.99
910.81	226.03
911.12	226.04
911.42	226.05
911.73	225.95
912.03	225.93
912.33	225.91
912.64	225.93
912.94	225.92
913.24	225.91
913.55	225.93
913.85	225.92
914.15	225.97
914.46	226.02
914.76	226.00
915.06	226.00
915.37	225.97
915.67	225.99
915.97	226.00
916.27	226.00
916.58	226.00
916.88	226.01
917.18	225.98
917.49	226.00
917.79	225.99
918.09	226.03
918.39	226.09
918.70	226.09
919.00	226.06
919.30	226.09
919.60	226.13
919.91	226.11
920.21	226.12
920.51	226.12
920.81	226.08
921.12	226.12
921.42	226.10
921.72	226.12
922.02	226.13
922.32	226.14
922.63	226.11
922.93	226.16
923.23	226.15
923.53	226.14
923.83	226.12
924.13	226.11
924.44	226.10
924.74	226.12
925.04	226.14
925.34	226.13
925.64	226.13
925.94	226.12
926.24	226.18
926.55	226.17
926.85	226.18
927.15	226.19
927.45	226.19
927.75	226.20
928.05	226.21
928.35	226.19
928.65	226.21
928.95	226.21
929.26	226.13
929.56	226.16
929.86	226.18
930.16	226.20
930.46	226.16
930.76	226.14
931.06	226.06
931.36	226.05
931.66	226.08
931.96	226.09
932.26	226.08
932.56	226.06
932.86	226.07
933.16	226.03
933.46	226.04
933.76	226.00
934.06	226.06
934.36	226.08
934.66	226.09
934.96	226.08
935.26	226.09
935.56	226.12
935.86	226.09
936.16	226.07
936.46	226.02
936.76	226.05
937.06	226.09
937.36	226.12
937.66	226.08
937.96	226.10
938.26	226.06
938.56	226.05
938.86	226.02
939.16	226.01
939.46	226.03
939.76	226.03
940.06	226.03
940.35	226.00
940.65	225.92
940.95	225.91
941.25	225.89
941.55	225.87
941.85	225.88
942.15	225.94
942.45	225.97
942.75	225.95
943.04	225.93
943.34	225.91
943.64	225.89
943.94	225.92
944.24	225.90
944.54	225.93
944.84	225.94
945.13	225.94
945.43	225.92
945.73	225.94
946.03	225.92
946.33	225.92
946.62	225.90
946.92	225.90
947.22	225.95
947.52	225.96
947.82	225.99
948.11	225.95
948.41	225.91
948.71	225.88
949.01	225.89
949.31	225.91
949.60	225.90
949.90	225.95
950.20	225.95
950.50	225.97
950.79	225.94
951.09	225.97
951.39	225.98
951.69	225.99
951.98	226.01
952.28	226.05
952.58	226.06
952.87	226.07
953.17	226.10
953.47	226.06
953.76	226.06
954.06	226.03
954.36	226.02
954.66	226.03
954.95	226.07
955.25	226.11
955.55	226.15
955.84	226.14
956.14	226.15
956.44	226.14
956.73	226.15
957.03	226.18
957.32	226.16
957.62	226.14
957.92	226.16
958.21	226.15
958.51	226.23
958.81	226.26
959.10	226.27
959.40	226.30
959.69	226.32
959.99	226.34
960.29	226.36
960.58	226.36
960.88	226.40
961.17	226.39
961.47	226.40
961.76	226.37
962.06	226.41
962.36	226.38
962.65	226.41
962.95	226.39
963.24	226.39
963.54	226.36
963.83	226.41
964.13	226.41
964.42	226.38
964.72	226.29
965.01	226.28
965.31	226.28
965.60	226.24
965.90	226.30
966.19	226.26
966.49	226.28
966.78	226.31
967.08	226.30
967.37	226.30
967.67	226.27
967.96	226.27
968.26	226.24
968.55	226.28
968.85	226.22
969.14	226.23
969.43	226.19
969.73	226.22
970.02	226.16
970.32	226.14
970.61	226.13
970.91	226.09
971.20	226.08
971.49	226.05
971.79	226.07
972.08	225.98
972.38	225.98
972.67	225.96
972.96	225.93
973.26	225.91
973.55	225.95
973.85	225.94
974.14	225.94
974.43	225.96
974.73	225.92
975.02	225.94
975.31	225.94
975.61	225.95
975.90	225.94
976.19	225.96
976.49	225.96
976.78	226.02
977.07	226.03
977.37	226.01
977.66	226.03
977.95	226.02
978.24	226.06
978.54	226.08
978.83	226.05
979.12	226.05
979.42	226.01
979.71	225.97
980.00	225.95
980.29	225.96
980.59	225.91
980.88	225.94
981.17	225.94
981.46	225.95
981.76	225.96
982.05	225.98
982.34	226.00
982.63	226.03
982.93	226.02
983.22	226.03
983.51	226.03
983.80	226.05
984.09	226.07
984.39	226.05
984.68	226.04
984.97	226.05
985.26	226.06
985.55	226.05
985.85	226.03
986.14	226.03
986.43	226.02
986.72	226.04
987.01	226.00
987.30	226.00
987.59	225.98
987.89	225.99
988.18	225.94
988.47	225.90
988.76	225.87
989.05	225.84
989.34	225.82
989.63	225.82
989.92	225.80
990.22	225.77
990.51	225.78
990.80	225.77
991.09	225.77
991.38	225.80
991.67	225.81
991.96	225.82
992.25	225.82
992.54	225.82
992.83	225.81
993.12	225.81
993.41	225.84
993.70	225.88
993.99	225.86
994.28	225.89
994.58	225.92
994.87	225.90
995.16	225.91
995.45	225.91
995.74	225.92
996.03	225.94
996.32	225.94
996.61	225.95
996.90	225.97
997.19	226.00
997.48	226.00
997.77	226.01
998.06	226.03
998.34	226.05
998.63	226.06
998.92	226.06
999.21	226.08
999.50	226.03
999.79	226.02
1000.08	226.01
1000.37	226.01
1000.66	226.01
1000.95	226.06
1001.24	226.08
1001.53	226.12
1001.82	226.12
1002.11	226.10
1002.40	226.13
1002.68	226.15
1002.97	226.22
1003.26	226.18
1003.55	226.17
1003.84	226.15
1004.13	226.17
1004.42	226.15
1004.71	226.14
1004.99	226.16
1005.28	226.18
1005.57	226.18
1005.86	226.15
1006.15	226.17
1006.44	226.14
1006.72	226.16
1007.01	226.10
1007.30	226.07
1007.59	226.04
1007.88	226.04
1008.17	226.07
1008.45	226.02
1008.74	225.97
1009.03	225.89
1009.32	225.88
1009.60	225.88
1009.89	225.88
1010.18	225.87
1010.47	225.86
1010.76	225.85
1011.04	225.81
1011.33	225.79
1011.62	225.80
1011.91	225.81
1012.19	225.80
1012.48	225.83
1012.77	225.82
1013.05	225.88
1013.34	225.90
1013.63	225.91
1013.92	225.88
1014.20	225.85
1014.49	225.84
1014.78	225.85
1015.06	225.84
1015.35	225.85
1015.64	225.87
1015.92	225.88
1016.21	225.85
1016.50	225.89
1016.78	225.87
1017.07	225.91
1017.36	225.89
1017.64	225.91
1017.93	225.90
1018.22	225.89
1018.50	225.86
1018.79	225.87
1019.08	225.82
1019.36	225.80
1019.65	225.81
1019.93	225.86
1020.22	225.87
1020.51	225.96
1020.79	225.93
1021.08	225.61
1021.36	225.52
1021.65	226.00
1021.94	225.73
1022.22	225.65
1022.51	226.34
1022.79	226.33
1023.08	226.02
1023.36	227.18
1023.65	225.12
>>>>>End Processed Spectral Data<<<<<
