SpectraSuite Data File
++++++++++++++++++++++++++++++++++++
Date: Fri Feb 01 15:01:13 EST 2013
User: group
Dark Spectrum Present: No
Reference Spectrum Present: No
Number of Sampled Component Spectra: 1
Spectrometers: USB2E7196
Integration Time (usec): 35000 (USB2E7196)
Spectra Averaged: 100 (USB2E7196)
Boxcar Smoothing: 10 (USB2E7196)
Correct for Electrical Dark: No (USB2E7196)
Strobe/Lamp Enabled: No (USB2E7196)
Correct for Detector Non-linearity: No (USB2E7196)
Correct for Stray Light: No (USB2E7196)
Number of Pixels in Processed Spectrum: 2048
>>>>>Begin Processed Spectral Data<<<<<
339.09	0.00
339.48	215.04
339.86	216.67
340.24	218.33
340.63	220.12
341.01	221.62
341.39	222.57
341.78	223.75
342.16	224.74
342.54	225.33
342.93	213.65
343.31	224.45
343.69	225.01
344.07	225.49
344.46	225.88
344.84	226.21
345.22	226.46
345.60	226.66
345.99	226.84
346.37	226.97
346.75	227.05
347.13	227.13
347.52	227.16
347.90	227.20
348.28	227.21
348.66	227.22
349.05	227.23
349.43	227.24
349.81	227.30
350.19	227.34
350.57	227.41
350.96	227.44
351.34	227.50
351.72	227.57
352.10	227.67
352.48	227.76
352.87	227.83
353.25	227.90
353.63	227.99
354.01	228.06
354.39	228.12
354.77	228.19
355.15	228.26
355.54	228.32
355.92	228.37
356.30	228.44
356.68	228.57
357.06	228.60
357.44	228.67
357.82	228.70
358.20	228.77
358.58	228.81
358.97	228.90
359.35	228.95
359.73	229.00
360.11	229.04
360.49	229.09
360.87	229.12
361.25	229.17
361.63	229.23
362.01	229.25
362.39	229.28
362.77	229.30
363.15	229.32
363.53	229.35
363.91	229.38
364.29	229.39
364.67	229.31
365.05	229.34
365.43	229.32
365.81	229.34
366.19	229.38
366.57	229.41
366.95	229.39
367.33	229.35
367.71	229.34
368.09	229.32
368.47	229.30
368.85	229.29
369.23	229.31
369.61	229.27
369.99	229.28
370.37	229.25
370.75	229.27
371.13	229.22
371.51	229.15
371.89	229.08
372.27	229.05
372.65	229.02
373.03	228.95
373.41	228.90
373.78	228.81
374.16	228.69
374.54	228.55
374.92	228.47
375.30	228.41
375.68	228.33
376.06	228.25
376.44	228.17
376.82	228.05
377.19	227.93
377.57	227.82
377.95	227.75
378.33	227.63
378.71	227.49
379.09	227.44
379.47	227.39
379.84	227.28
380.22	227.15
380.60	227.05
380.98	226.98
381.36	226.90
381.73	226.84
382.11	226.77
382.49	226.72
382.87	226.67
383.25	226.62
383.62	226.65
384.00	226.57
384.38	226.48
384.76	226.46
385.13	226.47
385.51	226.41
385.89	226.31
386.27	226.31
386.64	226.27
387.02	226.21
387.40	226.17
387.78	226.16
388.15	226.15
388.53	226.13
388.91	226.12
389.29	226.10
389.66	226.08
390.04	226.07
390.42	226.09
390.79	226.05
391.17	226.06
391.55	225.96
391.92	225.98
392.30	226.01
392.68	226.01
393.05	226.01
393.43	226.02
393.81	226.05
394.18	226.04
394.56	226.08
394.94	226.11
395.31	226.14
395.69	226.22
396.06	226.26
396.44	226.32
396.82	226.33
397.19	226.44
397.57	226.50
397.95	226.59
398.32	226.61
398.70	226.68
399.07	226.79
399.45	226.87
399.82	226.93
400.20	227.02
400.58	227.11
400.95	227.16
401.33	227.27
401.70	227.42
402.08	227.54
402.45	227.63
402.83	227.77
403.20	227.86
403.58	227.96
403.95	228.12
404.33	228.26
404.71	228.41
405.08	228.59
405.46	228.74
405.83	228.88
406.21	229.06
406.58	229.27
406.96	229.41
407.33	229.61
407.70	229.82
408.08	230.08
408.45	230.32
408.83	230.55
409.20	230.77
409.58	230.99
409.95	231.26
410.33	231.54
410.70	231.81
411.08	232.16
411.45	232.47
411.82	232.73
412.20	233.10
412.57	233.52
412.95	233.82
413.32	234.19
413.69	234.60
414.07	235.02
414.44	235.47
414.82	235.93
415.19	236.48
415.56	237.07
415.94	237.63
416.31	238.27
416.68	238.95
417.06	239.69
417.43	240.35
417.81	241.11
418.18	241.90
418.55	242.75
418.93	243.59
419.30	244.50
419.67	245.48
420.04	246.43
420.42	247.43
420.79	248.61
421.16	249.79
421.54	250.99
421.91	252.21
422.28	253.47
422.66	254.82
423.03	256.08
423.40	257.37
423.77	258.76
424.15	260.15
424.52	261.63
424.89	263.20
425.26	264.73
425.64	266.21
426.01	267.79
426.38	269.42
426.75	271.11
427.13	272.84
427.50	274.63
427.87	276.50
428.24	278.38
428.61	280.14
428.99	282.09
429.36	284.21
429.73	286.25
430.10	288.26
430.47	290.28
430.85	292.42
431.22	294.69
431.59	297.06
431.96	299.31
432.33	301.87
432.70	304.27
433.08	307.11
433.45	309.74
433.82	312.38
434.19	315.31
434.56	318.13
434.93	320.79
435.30	323.45
435.68	326.37
436.05	329.18
436.42	331.97
436.79	334.47
437.16	337.19
437.53	340.06
437.90	342.89
438.27	345.76
438.64	348.61
439.01	351.22
439.38	353.48
439.75	355.70
440.13	358.13
440.50	360.47
440.87	362.31
441.24	364.28
441.61	366.42
441.98	367.89
442.35	369.71
442.72	371.56
443.09	373.35
443.46	374.34
443.83	374.93
444.20	375.47
444.57	376.36
444.94	376.61
445.31	376.94
445.68	377.31
446.05	377.35
446.42	376.95
446.79	376.54
447.16	376.11
447.53	375.76
447.90	374.61
448.27	373.48
448.64	371.88
449.01	370.74
449.37	368.78
449.74	366.86
450.11	364.60
450.48	362.20
450.85	359.67
451.22	357.56
451.59	355.59
451.96	353.63
452.33	351.01
452.70	348.66
453.07	345.84
453.43	342.98
453.80	340.16
454.17	337.52
454.54	334.93
454.91	332.16
455.28	329.51
455.65	327.04
456.02	324.58
456.38	322.49
456.75	319.81
457.12	317.58
457.49	315.37
457.86	313.20
458.23	311.33
458.59	309.26
458.96	307.13
459.33	305.26
459.70	303.37
460.07	301.86
460.43	300.15
460.80	298.51
461.17	297.05
461.54	295.57
461.91	294.10
462.27	292.67
462.64	291.47
463.01	290.10
463.38	288.78
463.74	287.38
464.11	286.19
464.48	285.13
464.85	284.00
465.21	283.12
465.58	282.18
465.95	281.04
466.32	280.11
466.68	279.20
467.05	278.28
467.42	277.40
467.78	276.42
468.15	275.54
468.52	274.88
468.88	274.00
469.25	273.17
469.62	272.54
469.98	271.86
470.35	271.20
470.72	270.59
471.08	269.89
471.45	269.34
471.82	268.74
472.18	268.15
472.55	267.70
472.92	267.18
473.28	266.67
473.65	266.22
474.02	265.77
474.38	265.41
474.75	265.04
475.11	264.64
475.48	264.37
475.85	264.12
476.21	263.86
476.58	263.63
476.94	263.49
477.31	263.31
477.67	263.14
478.04	262.99
478.41	262.92
478.77	262.94
479.14	262.89
479.50	262.91
479.87	262.96
480.23	263.00
480.60	263.04
480.96	263.18
481.33	263.37
481.69	263.57
482.06	263.74
482.42	263.91
482.79	264.18
483.15	264.47
483.52	264.80
483.88	265.14
484.25	265.55
484.61	265.98
484.98	266.44
485.34	266.98
485.71	267.58
486.07	268.15
486.44	268.71
486.80	269.39
487.17	270.10
487.53	270.92
487.90	271.77
488.26	272.69
488.62	273.65
488.99	274.64
489.35	275.66
489.72	276.80
490.08	278.03
490.44	279.30
490.81	280.64
491.17	282.01
491.54	283.48
491.90	284.99
492.26	286.63
492.63	288.34
492.99	290.13
493.36	292.01
493.72	294.02
494.08	296.11
494.45	298.35
494.81	300.66
495.17	303.05
495.54	305.60
495.90	308.27
496.26	311.07
496.63	314.01
496.99	317.11
497.35	320.38
497.72	323.74
498.08	327.18
498.44	330.79
498.80	334.67
499.17	338.68
499.53	342.83
499.89	347.15
500.26	351.65
500.62	356.28
500.98	361.19
501.34	366.28
501.71	371.58
502.07	376.95
502.43	382.57
502.79	388.35
503.16	394.38
503.52	400.62
503.88	406.97
504.24	413.60
504.60	420.45
504.97	427.51
505.33	434.84
505.69	442.52
506.05	450.36
506.41	458.25
506.78	466.40
507.14	474.87
507.50	483.53
507.86	492.53
508.22	501.77
508.59	510.99
508.95	520.58
509.31	530.36
509.67	540.45
510.03	550.73
510.39	561.33
510.75	572.14
511.12	583.03
511.48	594.30
511.84	605.66
512.20	617.25
512.56	629.20
512.92	641.43
513.28	653.74
513.64	666.18
514.00	678.86
514.37	691.72
514.73	704.73
515.09	717.87
515.45	731.19
515.81	744.67
516.17	758.78
516.53	772.94
516.89	787.19
517.25	801.40
517.61	815.83
517.97	830.30
518.33	844.80
518.69	859.60
519.05	874.67
519.41	889.92
519.77	905.47
520.13	920.98
520.49	936.35
520.85	951.88
521.21	967.64
521.57	983.89
521.93	999.78
522.29	1016.30
522.65	1032.52
523.01	1048.88
523.37	1065.09
523.73	1081.21
524.09	1097.29
524.45	1113.70
524.81	1130.47
525.17	1147.45
525.53	1164.42
525.89	1181.38
526.25	1198.28
526.61	1214.69
526.97	1231.57
527.33	1248.10
527.68	1264.88
528.04	1281.42
528.40	1298.10
528.76	1315.27
529.12	1331.99
529.48	1348.92
529.84	1365.08
530.20	1381.81
530.56	1398.81
530.91	1416.25
531.27	1433.20
531.63	1449.79
531.99	1466.34
532.35	1482.39
532.71	1498.20
533.07	1514.53
533.42	1530.44
533.78	1546.59
534.14	1563.01
534.50	1578.39
534.86	1594.41
535.21	1609.57
535.57	1625.69
535.93	1641.25
536.29	1656.05
536.65	1671.20
537.00	1686.10
537.36	1701.44
537.72	1716.07
538.08	1730.52
538.44	1744.52
538.79	1758.33
539.15	1772.26
539.51	1786.07
539.87	1800.44
540.22	1814.34
540.58	1828.29
540.94	1841.86
541.29	1854.94
541.65	1867.65
542.01	1881.00
542.37	1893.28
542.72	1905.79
543.08	1917.56
543.44	1930.16
543.79	1941.53
544.15	1952.62
544.51	1964.18
544.87	1975.25
545.22	1986.09
545.58	1996.38
545.94	2006.06
546.29	2016.07
546.65	2025.68
547.01	2035.01
547.36	2043.89
547.72	2052.47
548.07	2060.23
548.43	2068.38
548.79	2076.51
549.14	2084.10
549.50	2091.48
549.86	2099.27
550.21	2106.55
550.57	2113.72
550.92	2120.24
551.28	2127.47
551.64	2134.57
551.99	2141.23
552.35	2147.35
552.70	2153.47
553.06	2159.45
553.41	2165.84
553.77	2171.91
554.13	2178.14
554.48	2184.13
554.84	2189.39
555.19	2194.65
555.55	2199.76
555.90	2204.14
556.26	2208.78
556.61	2213.58
556.97	2217.69
557.32	2221.72
557.68	2225.95
558.03	2230.18
558.39	2233.81
558.74	2238.27
559.10	2242.11
559.45	2245.52
559.81	2249.75
560.16	2253.52
560.52	2256.59
560.87	2259.96
561.23	2262.52
561.58	2265.32
561.94	2267.89
562.29	2270.43
562.64	2273.04
563.00	2275.71
563.35	2279.10
563.71	2282.09
564.06	2285.17
564.42	2287.92
564.77	2290.30
565.12	2292.31
565.48	2294.12
565.83	2295.78
566.19	2296.86
566.54	2297.85
566.89	2299.08
567.25	2299.44
567.60	2300.76
567.96	2302.36
568.31	2302.99
568.66	2303.85
569.02	2304.26
569.37	2304.53
569.72	2305.08
570.08	2304.88
570.43	2304.62
570.78	2303.75
571.14	2302.17
571.49	2300.67
571.84	2300.29
572.20	2298.94
572.55	2297.78
572.90	2296.05
573.26	2294.50
573.61	2292.78
573.96	2290.71
574.31	2287.58
574.67	2284.41
575.02	2280.48
575.37	2276.99
575.72	2272.98
576.08	2269.53
576.43	2266.22
576.78	2262.30
577.13	2258.99
577.49	2255.93
577.84	2252.30
578.19	2248.61
578.54	2244.65
578.90	2240.19
579.25	2234.45
579.60	2229.40
579.95	2224.28
580.30	2219.14
580.66	2213.94
581.01	2208.79
581.36	2203.68
581.71	2199.25
582.06	2194.66
582.42	2190.19
582.77	2184.85
583.12	2180.16
583.47	2175.25
583.82	2170.04
584.17	2164.72
584.53	2159.05
584.88	2153.22
585.23	2147.40
585.58	2141.82
585.93	2136.47
586.28	2131.65
586.63	2126.48
586.98	2121.35
587.34	2116.50
587.69	2111.60
588.04	2106.23
588.39	2100.34
588.74	2093.68
589.09	2087.42
589.44	2080.57
589.79	2074.39
590.14	2068.78
590.49	2062.15
590.84	2055.80
591.19	2049.55
591.54	2042.97
591.89	2035.49
592.25	2028.64
592.60	2021.31
592.95	2013.63
593.30	2006.11
593.65	1998.45
594.00	1991.50
594.35	1984.17
594.70	1976.14
595.05	1968.83
595.40	1961.41
595.75	1953.99
596.10	1947.66
596.45	1940.83
596.80	1934.65
597.15	1927.94
597.50	1920.58
597.85	1914.09
598.19	1907.30
598.54	1900.18
598.89	1893.51
599.24	1887.60
599.59	1880.88
599.94	1874.61
600.29	1868.14
600.64	1861.56
600.99	1854.02
601.34	1847.00
601.69	1840.05
602.04	1832.94
602.39	1825.43
602.74	1818.58
603.08	1811.77
603.43	1805.17
603.78	1797.81
604.13	1790.47
604.48	1783.07
604.83	1776.20
605.18	1769.07
605.53	1761.02
605.87	1753.05
606.22	1745.72
606.57	1737.85
606.92	1730.45
607.27	1723.23
607.62	1716.25
607.96	1708.94
608.31	1702.25
608.66	1694.59
609.01	1686.92
609.36	1679.49
609.70	1671.47
610.05	1663.37
610.40	1655.67
610.75	1647.26
611.10	1639.75
611.44	1631.55
611.79	1623.68
612.14	1615.03
612.49	1606.20
612.83	1597.98
613.18	1589.86
613.53	1581.86
613.88	1573.15
614.22	1564.90
614.57	1556.28
614.92	1548.28
615.27	1540.63
615.61	1532.39
615.96	1524.36
616.31	1516.71
616.65	1509.29
617.00	1501.78
617.35	1494.16
617.70	1485.84
618.04	1477.26
618.39	1469.00
618.74	1461.27
619.08	1452.94
619.43	1445.41
619.78	1438.30
620.12	1430.93
620.47	1423.44
620.82	1415.37
621.16	1408.11
621.51	1400.55
621.85	1393.03
622.20	1384.65
622.55	1376.54
622.89	1368.72
623.24	1361.17
623.59	1353.93
623.93	1346.46
624.28	1339.33
624.62	1331.83
624.97	1324.67
625.32	1318.05
625.66	1310.99
626.01	1303.82
626.35	1296.32
626.70	1288.67
627.04	1281.04
627.39	1273.49
627.73	1266.16
628.08	1259.19
628.43	1251.88
628.77	1244.48
629.12	1236.94
629.46	1229.71
629.81	1222.36
630.15	1215.19
630.50	1207.83
630.84	1199.70
631.19	1191.89
631.53	1184.41
631.88	1176.92
632.22	1169.36
632.57	1162.05
632.91	1154.68
633.26	1147.30
633.60	1140.12
633.95	1133.12
634.29	1126.12
634.64	1119.47
634.98	1112.25
635.32	1105.20
635.67	1098.73
636.01	1092.21
636.36	1085.50
636.70	1079.20
637.05	1072.53
637.39	1066.09
637.73	1059.66
638.08	1053.83
638.42	1047.83
638.77	1041.44
639.11	1034.85
639.45	1028.58
639.80	1022.08
640.14	1015.63
640.49	1009.25
640.83	1002.96
641.17	996.65
641.52	990.42
641.86	984.05
642.20	978.08
642.55	971.84
642.89	965.29
643.23	958.82
643.58	953.06
643.92	946.76
644.26	940.70
644.61	934.78
644.95	928.75
645.29	922.17
645.64	915.47
645.98	909.15
646.32	903.42
646.66	897.38
647.01	891.59
647.35	885.95
647.69	880.12
648.04	874.64
648.38	868.91
648.72	862.85
649.06	856.85
649.41	850.99
649.75	844.96
650.09	839.05
650.43	833.23
650.78	827.13
651.12	821.26
651.46	815.53
651.80	809.65
652.14	804.29
652.49	798.98
652.83	793.79
653.17	788.10
653.51	782.27
653.85	776.90
654.20	771.18
654.54	765.18
654.88	759.46
655.22	753.62
655.56	747.95
655.90	742.54
656.25	737.25
656.59	731.93
656.93	726.92
657.27	721.86
657.61	716.42
657.95	711.28
658.29	706.18
658.64	700.99
658.98	695.81
659.32	690.36
659.66	685.10
660.00	679.82
660.34	674.89
660.68	670.11
661.02	665.06
661.36	660.42
661.70	655.90
662.05	651.55
662.39	647.22
662.73	642.87
663.07	638.53
663.41	634.04
663.75	629.57
664.09	624.99
664.43	620.56
664.77	616.49
665.11	612.25
665.45	608.13
665.79	604.08
666.13	599.94
666.47	595.84
666.81	591.71
667.15	587.61
667.49	583.78
667.83	580.02
668.17	576.15
668.51	572.07
668.85	568.12
669.19	564.32
669.53	560.47
669.87	556.59
670.21	552.90
670.55	549.32
670.89	545.91
671.23	542.51
671.57	539.04
671.91	535.55
672.25	532.20
672.58	528.73
672.92	525.37
673.26	522.23
673.60	519.13
673.94	516.04
674.28	513.20
674.62	510.23
674.96	507.08
675.30	504.19
675.64	501.33
675.97	498.58
676.31	495.72
676.65	492.82
676.99	490.10
677.33	487.28
677.67	484.53
678.01	481.54
678.34	478.54
678.68	475.71
679.02	472.88
679.36	470.08
679.70	467.43
680.04	464.71
680.37	461.88
680.71	459.17
681.05	456.58
681.39	453.87
681.73	451.28
682.06	448.79
682.40	446.24
682.74	443.76
683.08	441.23
683.42	438.71
683.75	436.25
684.09	433.71
684.43	431.30
684.77	428.81
685.10	426.47
685.44	424.24
685.78	422.00
686.12	419.83
686.45	417.56
686.79	415.27
687.13	413.09
687.46	410.92
687.80	408.76
688.14	406.61
688.48	404.59
688.81	402.31
689.15	400.20
689.49	398.05
689.82	395.98
690.16	393.87
690.50	391.85
690.83	389.87
691.17	387.87
691.51	385.88
691.84	384.06
692.18	382.14
692.52	380.17
692.85	378.21
693.19	376.31
693.52	374.49
693.86	372.67
694.20	370.89
694.53	369.14
694.87	367.24
695.21	365.46
695.54	363.63
695.88	361.95
696.21	360.20
696.55	358.53
696.88	356.82
697.22	355.19
697.56	353.59
697.89	351.97
698.23	350.40
698.56	348.85
698.90	347.23
699.23	345.57
699.57	344.02
699.90	342.49
700.24	340.90
700.58	339.39
700.91	337.89
701.25	336.47
701.58	335.02
701.92	333.72
702.25	332.31
702.59	330.98
702.92	329.63
703.26	328.33
703.59	327.10
703.93	325.92
704.26	324.67
704.60	323.41
704.93	322.17
705.26	320.93
705.60	319.78
705.93	318.66
706.27	317.66
706.60	316.61
706.94	315.58
707.27	314.50
707.61	313.42
707.94	312.39
708.27	311.26
708.61	310.25
708.94	309.23
709.28	308.27
709.61	307.31
709.94	306.40
710.28	305.41
710.61	304.40
710.95	303.33
711.28	302.49
711.61	301.55
711.95	300.66
712.28	299.75
712.61	298.77
712.95	297.85
713.28	296.96
713.61	296.08
713.95	295.14
714.28	294.35
714.61	293.52
714.95	292.71
715.28	291.96
715.61	291.07
715.95	290.27
716.28	289.44
716.61	288.63
716.95	287.83
717.28	287.12
717.61	286.39
717.94	285.71
718.28	284.89
718.61	284.18
718.94	283.47
719.27	282.84
719.61	282.22
719.94	281.59
720.27	280.89
720.60	280.23
720.94	279.64
721.27	279.04
721.60	278.47
721.93	277.88
722.27	277.28
722.60	276.75
722.93	276.19
723.26	275.70
723.59	275.15
723.93	274.59
724.26	274.03
724.59	273.48
724.92	272.92
725.25	272.43
725.59	271.92
725.92	271.43
726.25	270.90
726.58	270.42
726.91	269.95
727.24	269.50
727.57	269.08
727.91	268.57
728.24	268.11
728.57	267.64
728.90	267.16
729.23	266.65
729.56	266.24
729.89	265.74
730.22	265.20
730.55	264.73
730.89	264.27
731.22	263.81
731.55	263.37
731.88	262.95
732.21	262.53
732.54	262.13
732.87	261.69
733.20	261.27
733.53	260.83
733.86	260.43
734.19	259.99
734.52	259.58
734.85	259.27
735.18	258.85
735.51	258.45
735.84	258.08
736.17	257.76
736.50	257.33
736.83	257.11
737.16	256.79
737.49	256.44
737.82	256.10
738.15	255.77
738.48	255.40
738.81	255.06
739.14	254.72
739.47	254.35
739.80	254.04
740.13	253.74
740.46	253.43
740.79	253.08
741.12	252.82
741.45	252.48
741.78	252.13
742.11	251.84
742.44	251.51
742.77	251.22
743.10	250.88
743.43	250.59
743.75	250.20
744.08	250.05
744.41	249.79
744.74	249.48
745.07	249.21
745.40	248.98
745.73	248.75
746.06	248.47
746.39	248.22
746.71	247.97
747.04	247.70
747.37	247.45
747.70	247.20
748.03	246.96
748.36	246.73
748.68	246.52
749.01	246.26
749.34	246.05
749.67	245.84
750.00	245.64
750.33	245.50
750.65	245.30
750.98	244.96
751.31	244.74
751.64	244.57
751.97	244.39
752.29	244.17
752.62	243.93
752.95	243.73
753.28	243.51
753.60	243.28
753.93	243.13
754.26	242.94
754.59	242.71
754.91	242.49
755.24	242.33
755.57	242.14
755.90	241.99
756.22	241.82
756.55	241.62
756.88	241.44
757.20	241.20
757.53	241.02
757.86	240.88
758.19	240.74
758.51	240.57
758.84	240.38
759.17	240.23
759.49	240.09
759.82	239.97
760.15	239.82
760.47	239.72
760.80	239.54
761.13	239.44
761.45	239.31
761.78	239.16
762.11	239.04
762.43	238.88
762.76	238.73
763.08	238.59
763.41	238.51
763.74	238.36
764.06	238.22
764.39	238.11
764.71	237.99
765.04	237.84
765.37	237.69
765.69	237.59
766.02	237.45
766.34	237.35
766.67	237.23
767.00	237.15
767.32	237.09
767.65	237.03
767.97	236.89
768.30	236.78
768.62	236.64
768.95	236.49
769.27	236.38
769.60	236.29
769.92	236.20
770.25	236.08
770.57	236.00
770.90	235.90
771.22	235.78
771.55	235.68
771.87	235.60
772.20	235.52
772.52	235.50
772.85	235.54
773.17	235.44
773.50	235.32
773.82	235.20
774.15	235.05
774.47	234.88
774.80	234.76
775.12	234.68
775.45	234.62
775.77	234.55
776.09	234.46
776.42	234.35
776.74	234.27
777.07	234.18
777.39	234.09
777.72	233.98
778.04	233.89
778.36	233.80
778.69	233.72
779.01	233.67
779.33	233.50
779.66	233.30
779.98	233.20
780.31	233.14
780.63	233.11
780.95	233.04
781.28	232.97
781.60	232.91
781.92	232.85
782.25	232.80
782.57	232.70
782.89	232.62
783.22	232.59
783.54	232.50
783.86	232.43
784.19	232.37
784.51	232.38
784.83	232.31
785.16	232.23
785.48	232.17
785.80	232.11
786.12	232.04
786.45	231.97
786.77	231.92
787.09	231.88
787.42	231.79
787.74	231.75
788.06	231.72
788.38	231.70
788.71	231.66
789.03	231.59
789.35	231.55
789.67	231.52
789.99	231.48
790.32	231.41
790.64	231.40
790.96	231.46
791.28	231.34
791.61	231.33
791.93	231.31
792.25	231.24
792.57	231.21
792.89	231.18
793.21	231.16
793.54	231.14
793.86	231.06
794.18	231.00
794.50	230.94
794.82	230.91
795.14	230.87
795.47	230.82
795.79	230.85
796.11	230.82
796.43	230.78
796.75	230.75
797.07	230.77
797.39	230.72
797.71	230.59
798.04	230.57
798.36	230.54
798.68	230.50
799.00	230.49
799.32	230.46
799.64	230.46
799.96	230.43
800.28	230.38
800.60	230.37
800.92	230.39
801.24	230.37
801.56	230.34
801.89	230.31
802.21	230.30
802.53	230.24
802.85	230.23
803.17	230.28
803.49	230.22
803.81	230.19
804.13	230.17
804.45	230.11
804.77	230.11
805.09	230.09
805.41	230.11
805.73	230.05
806.05	230.01
806.37	229.96
806.69	229.94
807.01	229.92
807.33	229.91
807.65	229.82
807.97	229.83
808.28	229.83
808.60	229.81
808.92	229.76
809.24	229.78
809.56	229.73
809.88	229.65
810.20	229.63
810.52	229.58
810.84	229.53
811.16	229.52
811.48	229.47
811.80	229.45
812.12	229.38
812.43	229.35
812.75	229.33
813.07	229.32
813.39	229.33
813.71	229.28
814.03	229.24
814.35	229.25
814.67	229.21
814.98	229.14
815.30	229.13
815.62	229.08
815.94	228.99
816.26	229.04
816.58	229.00
816.89	228.98
817.21	228.94
817.53	228.93
817.85	228.93
818.17	228.91
818.48	228.85
818.80	228.89
819.12	228.91
819.44	228.86
819.76	228.85
820.07	228.85
820.39	228.84
820.71	228.84
821.03	228.81
821.34	228.77
821.66	228.77
821.98	228.78
822.30	228.79
822.61	228.84
822.93	228.76
823.25	228.71
823.57	228.69
823.88	228.71
824.20	228.70
824.52	228.71
824.83	228.70
825.15	228.69
825.47	228.66
825.79	228.64
826.10	228.64
826.42	228.63
826.74	228.58
827.05	228.58
827.37	228.54
827.69	228.56
828.00	228.53
828.32	228.52
828.64	228.47
828.95	228.50
829.27	228.48
829.58	228.48
829.90	228.51
830.22	228.51
830.53	228.48
830.85	228.50
831.17	228.46
831.48	228.47
831.80	228.47
832.11	228.47
832.43	228.47
832.75	228.49
833.06	228.50
833.38	228.47
833.69	228.45
834.01	228.51
834.32	228.47
834.64	228.48
834.96	228.48
835.27	228.48
835.59	228.46
835.90	228.43
836.22	228.41
836.53	228.40
836.85	228.39
837.16	228.48
837.48	228.44
837.79	228.46
838.11	228.46
838.42	228.48
838.74	228.43
839.05	228.41
839.37	228.41
839.68	228.34
840.00	228.34
840.31	228.34
840.63	228.30
840.94	228.28
841.26	228.29
841.57	228.28
841.88	228.28
842.20	228.27
842.51	228.22
842.83	228.22
843.14	228.29
843.46	228.27
843.77	228.21
844.08	228.18
844.40	228.15
844.71	228.13
845.03	228.12
845.34	228.11
845.65	228.07
845.97	228.06
846.28	228.06
846.60	228.10
846.91	228.08
847.22	228.07
847.54	228.09
847.85	228.07
848.16	228.04
848.48	228.04
848.79	228.07
849.10	228.11
849.42	228.12
849.73	228.03
850.04	228.03
850.36	228.00
850.67	228.04
850.98	228.04
851.30	228.06
851.61	228.02
851.92	228.04
852.23	228.10
852.55	228.08
852.86	228.07
853.17	228.05
853.49	228.08
853.80	228.09
854.11	228.11
854.42	228.15
854.74	228.13
855.05	228.12
855.36	228.06
855.67	228.07
855.99	228.03
856.30	228.13
856.61	228.12
856.92	228.15
857.23	228.11
857.55	228.08
857.86	228.04
858.17	228.05
858.48	228.05
858.79	228.01
859.11	228.00
859.42	227.99
859.73	227.99
860.04	227.95
860.35	227.91
860.66	227.86
860.98	227.82
861.29	227.83
861.60	227.83
861.91	227.85
862.22	227.79
862.53	227.81
862.84	227.72
863.16	227.73
863.47	227.67
863.78	227.67
864.09	227.68
864.40	227.70
864.71	227.69
865.02	227.69
865.33	227.66
865.64	227.65
865.95	227.67
866.27	227.72
866.58	227.74
866.89	227.73
867.20	227.73
867.51	227.72
867.82	227.71
868.13	227.73
868.44	227.71
868.75	227.74
869.06	227.73
869.37	227.73
869.68	227.70
869.99	227.71
870.30	227.71
870.61	227.70
870.92	227.68
871.23	227.67
871.54	227.67
871.85	227.70
872.16	227.73
872.47	227.69
872.78	227.64
873.09	227.63
873.40	227.65
873.71	227.65
874.02	227.65
874.33	227.63
874.64	227.57
874.95	227.58
875.26	227.54
875.56	227.53
875.87	227.50
876.18	227.50
876.49	227.58
876.80	227.54
877.11	227.51
877.42	227.48
877.73	227.48
878.04	227.45
878.35	227.47
878.66	227.46
878.96	227.48
879.27	227.45
879.58	227.46
879.89	227.42
880.20	227.44
880.51	227.44
880.82	227.43
881.12	227.45
881.43	227.39
881.74	227.40
882.05	227.40
882.36	227.42
882.67	227.39
882.97	227.28
883.28	227.29
883.59	227.32
883.90	227.36
884.21	227.35
884.51	227.35
884.82	227.28
885.13	227.26
885.44	227.25
885.74	227.23
886.05	227.21
886.36	227.24
886.67	227.19
886.98	227.23
887.28	227.24
887.59	227.25
887.90	227.29
888.20	227.27
888.51	227.29
888.82	227.27
889.13	227.30
889.43	227.39
889.74	227.41
890.05	227.41
890.35	227.37
890.66	227.39
890.97	227.41
891.28	227.45
891.58	227.45
891.89	227.44
892.20	227.49
892.50	227.51
892.81	227.49
893.12	227.56
893.42	227.50
893.73	227.51
894.04	227.49
894.34	227.51
894.65	227.51
894.95	227.51
895.26	227.51
895.57	227.59
895.87	227.51
896.18	227.52
896.48	227.54
896.79	227.55
897.10	227.55
897.40	227.56
897.71	227.58
898.01	227.61
898.32	227.65
898.63	227.61
898.93	227.63
899.24	227.65
899.54	227.62
899.85	227.65
900.15	227.68
900.46	227.69
900.76	227.73
901.07	227.75
901.38	227.75
901.68	227.77
901.99	227.68
902.29	227.68
902.60	227.66
902.90	227.66
903.21	227.66
903.51	227.65
903.82	227.65
904.12	227.62
904.43	227.60
904.73	227.57
905.03	227.58
905.34	227.64
905.64	227.57
905.95	227.55
906.25	227.52
906.56	227.50
906.86	227.51
907.17	227.47
907.47	227.47
907.77	227.47
908.08	227.45
908.38	227.46
908.69	227.48
908.99	227.49
909.30	227.47
909.60	227.44
909.90	227.44
910.21	227.39
910.51	227.38
910.81	227.37
911.12	227.38
911.42	227.35
911.73	227.24
912.03	227.27
912.33	227.29
912.64	227.27
912.94	227.23
913.24	227.19
913.55	227.15
913.85	227.12
914.15	227.13
914.46	227.10
914.76	227.07
915.06	227.03
915.37	227.03
915.67	226.99
915.97	227.01
916.27	226.94
916.58	226.93
916.88	226.91
917.18	226.92
917.49	226.98
917.79	227.01
918.09	227.00
918.39	227.03
918.70	227.03
919.00	227.05
919.30	227.04
919.60	227.04
919.91	227.02
920.21	227.02
920.51	226.96
920.81	226.98
921.12	227.01
921.42	227.00
921.72	226.97
922.02	227.04
922.32	227.03
922.63	227.07
922.93	227.16
923.23	227.18
923.53	227.16
923.83	227.06
924.13	227.06
924.44	227.07
924.74	227.05
925.04	227.07
925.34	227.07
925.64	227.10
925.94	227.08
926.24	227.14
926.55	227.20
926.85	227.22
927.15	227.22
927.45	227.26
927.75	227.28
928.05	227.30
928.35	227.28
928.65	227.29
928.95	227.27
929.26	227.22
929.56	227.23
929.86	227.24
930.16	227.27
930.46	227.29
930.76	227.30
931.06	227.28
931.36	227.28
931.66	227.27
931.96	227.29
932.26	227.35
932.56	227.34
932.86	227.32
933.16	227.35
933.46	227.35
933.76	227.31
934.06	227.36
934.36	227.39
934.66	227.38
934.96	227.41
935.26	227.47
935.56	227.45
935.86	227.44
936.16	227.45
936.46	227.47
936.76	227.46
937.06	227.47
937.36	227.48
937.66	227.49
937.96	227.51
938.26	227.47
938.56	227.45
938.86	227.48
939.16	227.46
939.46	227.45
939.76	227.43
940.06	227.44
940.35	227.39
940.65	227.33
940.95	227.32
941.25	227.30
941.55	227.28
941.85	227.30
942.15	227.33
942.45	227.34
942.75	227.34
943.04	227.32
943.34	227.32
943.64	227.30
943.94	227.27
944.24	227.25
944.54	227.30
944.84	227.29
945.13	227.24
945.43	227.25
945.73	227.26
946.03	227.29
946.33	227.26
946.62	227.24
946.92	227.25
947.22	227.25
947.52	227.25
947.82	227.25
948.11	227.22
948.41	227.18
948.71	227.12
949.01	227.09
949.31	227.08
949.60	227.05
949.90	227.05
950.20	227.06
950.50	227.05
950.79	227.02
951.09	226.99
951.39	226.96
951.69	226.96
951.98	226.95
952.28	226.93
952.58	226.92
952.87	226.93
953.17	226.92
953.47	226.89
953.76	226.88
954.06	226.85
954.36	226.84
954.66	226.83
954.95	226.87
955.25	226.90
955.55	226.90
955.84	226.89
956.14	226.90
956.44	226.87
956.73	226.87
957.03	226.85
957.32	226.89
957.62	226.89
957.92	226.88
958.21	226.87
958.51	226.94
958.81	226.96
959.10	226.95
959.40	226.99
959.69	227.02
959.99	227.04
960.29	227.06
960.58	227.04
960.88	227.08
961.17	227.09
961.47	227.10
961.76	227.09
962.06	227.13
962.36	227.11
962.65	227.12
962.95	227.12
963.24	227.11
963.54	227.11
963.83	227.14
964.13	227.14
964.42	227.14
964.72	227.07
965.01	227.03
965.31	227.07
965.60	227.05
965.90	227.10
966.19	227.05
966.49	227.06
966.78	227.09
967.08	227.10
967.37	227.08
967.67	227.07
967.96	227.11
968.26	227.10
968.55	227.17
968.85	227.17
969.14	227.18
969.43	227.23
969.73	227.20
970.02	227.21
970.32	227.19
970.61	227.18
970.91	227.19
971.20	227.24
971.49	227.24
971.79	227.25
972.08	227.19
972.38	227.25
972.67	227.26
972.96	227.27
973.26	227.22
973.55	227.27
973.85	227.25
974.14	227.23
974.43	227.21
974.73	227.16
975.02	227.18
975.31	227.17
975.61	227.15
975.90	227.14
976.19	227.11
976.49	227.14
976.78	227.14
977.07	227.13
977.37	227.11
977.66	227.09
977.95	227.08
978.24	227.09
978.54	227.10
978.83	227.09
979.12	227.06
979.42	227.07
979.71	227.06
980.00	227.05
980.29	227.06
980.59	227.05
980.88	227.05
981.17	227.05
981.46	227.06
981.76	227.06
982.05	227.08
982.34	227.10
982.63	227.10
982.93	227.09
983.22	227.13
983.51	227.10
983.80	227.13
984.09	227.15
984.39	227.12
984.68	227.11
984.97	227.10
985.26	227.09
985.55	227.11
985.85	227.06
986.14	227.09
986.43	227.06
986.72	227.07
987.01	227.06
987.30	227.03
987.59	227.00
987.89	226.99
988.18	226.95
988.47	226.96
988.76	226.93
989.05	226.91
989.34	226.88
989.63	226.93
989.92	226.91
990.22	226.83
990.51	226.83
990.80	226.80
991.09	226.79
991.38	226.81
991.67	226.78
991.96	226.73
992.25	226.70
992.54	226.72
992.83	226.72
993.12	226.73
993.41	226.75
993.70	226.80
993.99	226.84
994.28	226.86
994.58	226.86
994.87	226.87
995.16	226.88
995.45	226.91
995.74	226.89
996.03	226.90
996.32	226.98
996.61	227.01
996.90	227.03
997.19	227.05
997.48	227.04
997.77	227.06
998.06	227.10
998.34	227.16
998.63	227.15
998.92	227.15
999.21	227.17
999.50	227.16
999.79	227.15
1000.08	227.12
1000.37	227.15
1000.66	227.14
1000.95	227.14
1001.24	227.15
1001.53	227.16
1001.82	227.15
1002.11	227.12
1002.40	227.11
1002.68	227.11
1002.97	227.15
1003.26	227.12
1003.55	227.14
1003.84	227.13
1004.13	227.17
1004.42	227.16
1004.71	227.14
1004.99	227.15
1005.28	227.18
1005.57	227.17
1005.86	227.15
1006.15	227.14
1006.44	227.12
1006.72	227.11
1007.01	227.09
1007.30	227.09
1007.59	227.09
1007.88	227.09
1008.17	227.12
1008.45	227.13
1008.74	227.11
1009.03	227.08
1009.32	227.09
1009.60	227.08
1009.89	227.10
1010.18	227.07
1010.47	227.05
1010.76	227.11
1011.04	227.10
1011.33	227.10
1011.62	227.11
1011.91	227.10
1012.19	227.11
1012.48	227.08
1012.77	227.11
1013.05	227.19
1013.34	227.17
1013.63	227.14
1013.92	227.13
1014.20	227.10
1014.49	227.09
1014.78	227.08
1015.06	227.08
1015.35	227.08
1015.64	227.07
1015.92	227.07
1016.21	227.05
1016.50	227.03
1016.78	227.00
1017.07	227.02
1017.36	227.00
1017.64	226.97
1017.93	227.00
1018.22	226.99
1018.50	227.04
1018.79	227.03
1019.08	226.96
1019.36	226.98
1019.65	226.99
1019.93	227.03
1020.22	227.02
1020.51	227.08
1020.79	227.05
1021.08	226.86
1021.36	227.63
1021.65	226.91
1021.94	226.84
1022.22	227.16
1022.51	226.84
1022.79	227.52
1023.08	226.56
1023.36	228.37
1023.65	226.22
>>>>>End Processed Spectral Data<<<<<
