SpectraSuite Data File
++++++++++++++++++++++++++++++++++++
Date: Fri Feb 01 16:04:15 EST 2013
User: group
Dark Spectrum Present: No
Reference Spectrum Present: No
Number of Sampled Component Spectra: 1
Spectrometers: USB2E7196
Integration Time (usec): 35000 (USB2E7196)
Spectra Averaged: 100 (USB2E7196)
Boxcar Smoothing: 10 (USB2E7196)
Correct for Electrical Dark: No (USB2E7196)
Strobe/Lamp Enabled: No (USB2E7196)
Correct for Detector Non-linearity: No (USB2E7196)
Correct for Stray Light: No (USB2E7196)
Number of Pixels in Processed Spectrum: 2048
>>>>>Begin Processed Spectral Data<<<<<
339.09	0.00
339.48	214.81
339.86	216.14
340.24	216.63
340.63	218.86
341.01	221.75
341.39	222.16
341.78	222.97
342.16	223.62
342.54	224.92
342.93	213.03
343.31	223.81
343.69	224.34
344.07	224.80
344.46	225.27
344.84	225.65
345.22	225.91
345.60	226.13
345.99	226.31
346.37	226.46
346.75	226.56
347.13	226.63
347.52	226.70
347.90	226.77
348.28	226.81
348.66	226.86
349.05	226.83
349.43	226.87
349.81	226.93
350.19	226.98
350.57	227.05
350.96	227.16
351.34	227.22
351.72	227.31
352.10	227.41
352.48	227.49
352.87	227.55
353.25	227.59
353.63	227.66
354.01	227.73
354.39	227.79
354.77	227.88
355.15	227.98
355.54	228.03
355.92	228.05
356.30	228.14
356.68	228.29
357.06	228.37
357.44	228.43
357.82	228.47
358.20	228.54
358.58	228.61
358.97	228.66
359.35	228.76
359.73	228.83
360.11	228.88
360.49	228.91
360.87	228.95
361.25	229.00
361.63	229.08
362.01	229.12
362.39	229.19
362.77	229.20
363.15	229.24
363.53	229.26
363.91	229.33
364.29	229.33
364.67	229.25
365.05	229.27
365.43	229.27
365.81	229.31
366.19	229.34
366.57	229.34
366.95	229.37
367.33	229.33
367.71	229.32
368.09	229.33
368.47	229.31
368.85	229.29
369.23	229.31
369.61	229.25
369.99	229.28
370.37	229.24
370.75	229.26
371.13	229.18
371.51	229.13
371.89	229.09
372.27	229.06
372.65	228.98
373.03	228.90
373.41	228.87
373.78	228.77
374.16	228.67
374.54	228.60
374.92	228.47
375.30	228.36
375.68	228.26
376.06	228.18
376.44	228.08
376.82	228.04
377.19	227.94
377.57	227.86
377.95	227.76
378.33	227.67
378.71	227.52
379.09	227.46
379.47	227.44
379.84	227.36
380.22	227.26
380.60	227.22
380.98	227.15
381.36	227.06
381.73	226.98
382.11	226.91
382.49	226.86
382.87	226.80
383.25	226.75
383.62	226.85
384.00	226.78
384.38	226.77
384.76	226.72
385.13	226.68
385.51	226.68
385.89	226.63
386.27	226.60
386.64	226.57
387.02	226.54
387.40	226.48
387.78	226.42
388.15	226.41
388.53	226.37
388.91	226.36
389.29	226.35
389.66	226.35
390.04	226.34
390.42	226.32
390.79	226.31
391.17	226.28
391.55	226.15
391.92	226.19
392.30	226.18
392.68	226.17
393.05	226.16
393.43	226.12
393.81	226.08
394.18	226.04
394.56	226.05
394.94	226.10
395.31	226.11
395.69	226.21
396.06	226.23
396.44	226.25
396.82	226.28
397.19	226.37
397.57	226.40
397.95	226.46
398.32	226.46
398.70	226.52
399.07	226.64
399.45	226.70
399.82	226.72
400.20	226.78
400.58	226.85
400.95	226.90
401.33	227.01
401.70	227.20
402.08	227.32
402.45	227.42
402.83	227.51
403.20	227.60
403.58	227.66
403.95	227.81
404.33	227.98
404.71	228.10
405.08	228.28
405.46	228.45
405.83	228.56
406.21	228.76
406.58	228.93
406.96	229.08
407.33	229.28
407.70	229.49
408.08	229.76
408.45	229.96
408.83	230.22
409.20	230.45
409.58	230.63
409.95	230.91
410.33	231.19
410.70	231.44
411.08	231.75
411.45	232.06
411.82	232.35
412.20	232.68
412.57	233.08
412.95	233.35
413.32	233.72
413.69	234.15
414.07	234.57
414.44	235.08
414.82	235.56
415.19	236.08
415.56	236.63
415.94	237.16
416.31	237.79
416.68	238.42
417.06	239.08
417.43	239.78
417.81	240.53
418.18	241.28
418.55	242.13
418.93	242.98
419.30	243.89
419.67	244.80
420.04	245.76
420.42	246.75
420.79	247.93
421.16	249.10
421.54	250.30
421.91	251.51
422.28	252.71
422.66	254.02
423.03	255.36
423.40	256.68
423.77	258.11
424.15	259.53
424.52	261.02
424.89	262.66
425.26	264.19
425.64	265.64
426.01	267.27
426.38	268.89
426.75	270.54
427.13	272.23
427.50	274.05
427.87	275.91
428.24	277.76
428.61	279.49
428.99	281.46
429.36	283.56
429.73	285.61
430.10	287.63
430.47	289.67
430.85	291.74
431.22	293.97
431.59	296.33
431.96	298.59
432.33	301.04
432.70	303.39
433.08	306.17
433.45	308.79
433.82	311.35
434.19	314.21
434.56	317.04
434.93	319.70
435.30	322.28
435.68	325.14
436.05	328.00
436.42	330.85
436.79	333.32
437.16	336.02
437.53	338.88
437.90	341.75
438.27	344.51
438.64	347.33
439.01	349.89
439.38	352.10
439.75	354.25
440.13	356.76
440.50	359.11
440.87	360.99
441.24	362.95
441.61	365.14
441.98	366.70
442.35	368.47
442.72	370.33
443.09	372.15
443.46	373.17
443.83	373.74
444.20	374.23
444.57	375.07
444.94	375.32
445.31	375.61
445.68	375.92
446.05	375.96
446.42	375.58
446.79	375.19
447.16	374.75
447.53	374.43
447.90	373.27
448.27	372.11
448.64	370.52
449.01	369.38
449.37	367.42
449.74	365.49
450.11	363.28
450.48	360.81
450.85	358.27
451.22	356.11
451.59	354.09
451.96	352.10
452.33	349.52
452.70	347.18
453.07	344.35
453.43	341.48
453.80	338.74
454.17	336.09
454.54	333.54
454.91	330.86
455.28	328.17
455.65	325.67
456.02	323.18
456.38	321.04
456.75	318.38
457.12	316.11
457.49	313.90
457.86	311.71
458.23	309.88
458.59	307.89
458.96	305.86
459.33	304.02
459.70	302.15
460.07	300.63
460.43	298.91
460.80	297.31
461.17	295.87
461.54	294.40
461.91	292.96
462.27	291.55
462.64	290.28
463.01	288.95
463.38	287.68
463.74	286.38
464.11	285.22
464.48	284.19
464.85	283.10
465.21	282.24
465.58	281.37
465.95	280.26
466.32	279.33
466.68	278.43
467.05	277.53
467.42	276.67
467.78	275.74
468.15	274.86
468.52	274.21
468.88	273.37
469.25	272.60
469.62	272.00
469.98	271.32
470.35	270.70
470.72	270.09
471.08	269.44
471.45	268.83
471.82	268.28
472.18	267.67
472.55	267.21
472.92	266.67
473.28	266.20
473.65	265.74
474.02	265.29
474.38	264.89
474.75	264.57
475.11	264.23
475.48	263.98
475.85	263.76
476.21	263.51
476.58	263.31
476.94	263.15
477.31	262.96
477.67	262.84
478.04	262.75
478.41	262.69
478.77	262.70
479.14	262.65
479.50	262.67
479.87	262.75
480.23	262.84
480.60	262.89
480.96	262.99
481.33	263.17
481.69	263.34
482.06	263.52
482.42	263.70
482.79	263.93
483.15	264.23
483.52	264.58
483.88	264.95
484.25	265.32
484.61	265.74
484.98	266.19
485.34	266.69
485.71	267.26
486.07	267.90
486.44	268.46
486.80	269.19
487.17	269.89
487.53	270.69
487.90	271.55
488.26	272.49
488.62	273.48
488.99	274.48
489.35	275.55
489.72	276.68
490.08	277.85
490.44	279.10
490.81	280.44
491.17	281.83
491.54	283.34
491.90	284.87
492.26	286.52
492.63	288.25
492.99	290.08
493.36	291.99
493.72	294.01
494.08	296.13
494.45	298.39
494.81	300.78
495.17	303.20
495.54	305.75
495.90	308.45
496.26	311.25
496.63	314.24
496.99	317.37
497.35	320.61
497.72	324.08
498.08	327.63
498.44	331.32
498.80	335.25
499.17	339.27
499.53	343.45
499.89	347.84
500.26	352.39
500.62	357.08
500.98	362.01
501.34	367.10
501.71	372.45
502.07	377.97
502.43	383.59
502.79	389.49
503.16	395.59
503.52	401.86
503.88	408.29
504.24	414.90
504.60	421.85
504.97	429.05
505.33	436.40
505.69	444.11
506.05	451.93
506.41	459.81
506.78	467.98
507.14	476.43
507.50	485.17
507.86	494.17
508.22	503.44
508.59	512.68
508.95	522.22
509.31	532.00
509.67	542.04
510.03	552.33
510.39	562.88
510.75	573.69
511.12	584.68
511.48	596.02
511.84	607.49
512.20	618.95
512.56	630.86
512.92	643.00
513.28	655.36
513.64	667.78
514.00	680.56
514.37	693.53
514.73	706.67
515.09	719.60
515.45	732.89
515.81	746.37
516.17	760.36
516.53	774.53
516.89	788.76
517.25	802.90
517.61	817.35
517.97	831.74
518.33	846.17
518.69	860.91
519.05	875.90
519.41	891.06
519.77	906.65
520.13	922.16
520.49	937.51
520.85	952.95
521.21	968.76
521.57	984.99
521.93	1000.72
522.29	1017.07
522.65	1033.25
523.01	1049.40
523.37	1065.52
523.73	1081.62
524.09	1097.67
524.45	1113.93
524.81	1130.63
525.17	1147.44
525.53	1164.32
525.89	1181.18
526.25	1197.99
526.61	1214.31
526.97	1231.01
527.33	1247.40
527.68	1263.90
528.04	1280.35
528.40	1296.81
528.76	1313.81
529.12	1330.27
529.48	1347.10
529.84	1362.99
530.20	1379.80
530.56	1396.71
530.91	1414.00
531.27	1430.79
531.63	1447.29
531.99	1463.85
532.35	1479.74
532.71	1495.45
533.07	1511.73
533.42	1527.61
533.78	1543.64
534.14	1559.82
534.50	1575.16
534.86	1590.94
535.21	1606.08
535.57	1621.91
535.93	1637.32
536.29	1651.93
536.65	1666.91
537.00	1681.67
537.36	1696.95
537.72	1711.34
538.08	1725.75
538.44	1739.41
538.79	1753.12
539.15	1766.54
539.51	1780.10
539.87	1794.24
540.22	1807.92
540.58	1821.40
540.94	1834.47
541.29	1847.22
541.65	1859.75
542.01	1872.75
542.37	1885.11
542.72	1897.44
543.08	1909.13
543.44	1921.48
543.79	1932.68
544.15	1943.73
544.51	1955.20
544.87	1966.07
545.22	1976.85
545.58	1987.19
545.94	1996.96
546.29	2006.85
546.65	2016.80
547.01	2026.14
547.36	2034.94
547.72	2043.45
548.07	2051.51
548.43	2059.82
548.79	2067.86
549.14	2075.47
549.50	2082.79
549.86	2090.38
550.21	2097.71
550.57	2104.93
550.92	2111.52
551.28	2118.65
551.64	2125.60
551.99	2132.11
552.35	2138.38
552.70	2144.69
553.06	2150.52
553.41	2156.87
553.77	2163.16
554.13	2169.06
554.48	2175.25
554.84	2180.80
555.19	2186.05
555.55	2191.15
555.90	2195.65
556.26	2200.51
556.61	2205.37
556.97	2209.90
557.32	2214.04
557.68	2218.21
558.03	2222.46
558.39	2226.13
558.74	2230.75
559.10	2234.73
559.45	2238.53
559.81	2242.78
560.16	2246.43
560.52	2249.67
560.87	2253.18
561.23	2255.58
561.58	2258.69
561.94	2261.13
562.29	2263.40
562.64	2266.17
563.00	2268.77
563.35	2272.29
563.71	2275.38
564.06	2278.65
564.42	2281.32
564.77	2284.02
565.12	2286.34
565.48	2288.41
565.83	2290.50
566.19	2291.81
566.54	2292.57
566.89	2293.64
567.25	2294.21
567.60	2295.44
567.96	2297.16
568.31	2297.84
568.66	2299.10
569.02	2299.58
569.37	2299.96
569.72	2300.84
570.08	2301.06
570.43	2301.12
570.78	2300.48
571.14	2299.03
571.49	2297.60
571.84	2297.36
572.20	2296.11
572.55	2294.98
572.90	2293.30
573.26	2291.75
573.61	2290.07
573.96	2288.39
574.31	2285.35
574.67	2282.35
575.02	2278.93
575.37	2275.59
575.72	2271.87
576.08	2268.49
576.43	2265.26
576.78	2261.58
577.13	2258.46
577.49	2255.27
577.84	2251.74
578.19	2248.01
578.54	2244.41
578.90	2240.16
579.25	2234.69
579.60	2229.70
579.95	2224.74
580.30	2219.87
580.66	2214.63
581.01	2209.70
581.36	2204.80
581.71	2200.68
582.06	2196.26
582.42	2191.79
582.77	2186.58
583.12	2182.08
583.47	2177.39
583.82	2172.28
584.17	2167.16
584.53	2161.63
584.88	2156.11
585.23	2150.38
585.58	2144.96
585.93	2139.43
586.28	2134.65
586.63	2129.54
586.98	2124.48
587.34	2119.83
587.69	2114.83
588.04	2109.69
588.39	2104.07
588.74	2097.65
589.09	2091.59
589.44	2084.92
589.79	2078.96
590.14	2073.42
590.49	2066.80
590.84	2060.44
591.19	2054.62
591.54	2048.18
591.89	2040.90
592.25	2034.04
592.60	2026.93
592.95	2019.39
593.30	2012.10
593.65	2004.46
594.00	1997.41
594.35	1990.08
594.70	1982.07
595.05	1974.97
595.40	1967.80
595.75	1960.30
596.10	1954.05
596.45	1947.24
596.80	1940.94
597.15	1934.30
597.50	1927.20
597.85	1920.76
598.19	1914.04
598.54	1906.96
598.89	1900.29
599.24	1894.27
599.59	1887.59
599.94	1881.36
600.29	1874.96
600.64	1868.39
600.99	1861.15
601.34	1854.27
601.69	1847.54
602.04	1840.72
602.39	1833.29
602.74	1826.31
603.08	1819.55
603.43	1812.92
603.78	1805.64
604.13	1798.47
604.48	1791.12
604.83	1784.07
605.18	1777.12
605.53	1769.05
605.87	1760.85
606.22	1753.43
606.57	1745.41
606.92	1738.02
607.27	1730.72
607.62	1723.80
607.96	1716.45
608.31	1709.77
608.66	1702.26
609.01	1694.48
609.36	1686.84
609.70	1678.72
610.05	1670.64
610.40	1662.93
610.75	1654.48
611.10	1646.68
611.44	1638.16
611.79	1630.05
612.14	1621.41
612.49	1612.29
612.83	1603.84
613.18	1595.79
613.53	1587.80
613.88	1579.32
614.22	1571.01
614.57	1562.43
614.92	1554.34
615.27	1546.81
615.61	1538.43
615.96	1530.40
616.31	1522.87
616.65	1515.60
617.00	1508.16
617.35	1500.52
617.70	1492.19
618.04	1483.68
618.39	1475.58
618.74	1468.20
619.08	1460.06
619.43	1452.46
619.78	1445.60
620.12	1438.54
620.47	1431.04
620.82	1422.88
621.16	1415.52
621.51	1408.03
621.85	1400.46
622.20	1392.12
622.55	1383.73
622.89	1375.94
623.24	1368.35
623.59	1360.88
623.93	1353.29
624.28	1346.09
624.62	1338.64
624.97	1331.50
625.32	1324.84
625.66	1317.93
626.01	1310.72
626.35	1303.17
626.70	1295.59
627.04	1287.80
627.39	1280.07
627.73	1272.77
628.08	1265.88
628.43	1258.67
628.77	1251.26
629.12	1243.76
629.46	1236.61
629.81	1229.26
630.15	1222.03
630.50	1214.52
630.84	1206.33
631.19	1198.37
631.53	1190.72
631.88	1183.10
632.22	1175.53
632.57	1168.22
632.91	1160.64
633.26	1153.18
633.60	1145.77
633.95	1138.60
634.29	1131.59
634.64	1124.96
634.98	1117.50
635.32	1110.35
635.67	1103.73
636.01	1097.06
636.36	1090.23
636.70	1083.61
637.05	1076.97
637.39	1070.44
637.73	1064.02
638.08	1058.23
638.42	1052.24
638.77	1045.88
639.11	1039.30
639.45	1032.80
639.80	1026.01
640.14	1019.51
640.49	1012.97
640.83	1006.77
641.17	1000.45
641.52	994.03
641.86	987.54
642.20	981.66
642.55	975.37
642.89	968.82
643.23	962.30
643.58	956.50
643.92	950.34
644.26	944.28
644.61	938.23
644.95	932.10
645.29	925.47
645.64	918.72
645.98	912.40
646.32	906.65
646.66	900.68
647.01	894.90
647.35	889.18
647.69	883.26
648.04	877.72
648.38	872.02
648.72	866.06
649.06	859.95
649.41	854.10
649.75	848.17
650.09	842.32
650.43	836.53
650.78	830.39
651.12	824.36
651.46	818.61
651.80	812.91
652.14	807.60
652.49	802.23
652.83	797.02
653.17	791.36
653.51	785.59
653.85	780.20
654.20	774.59
654.54	768.57
654.88	762.89
655.22	756.98
655.56	751.26
655.90	745.86
656.25	740.71
656.59	735.33
656.93	730.22
657.27	724.92
657.61	719.51
657.95	714.47
658.29	709.43
658.64	704.27
658.98	698.94
659.32	693.48
659.66	688.27
660.00	682.97
660.34	678.02
660.68	673.09
661.02	668.02
661.36	663.29
661.70	658.85
662.05	654.50
662.39	650.19
662.73	645.76
663.07	641.31
663.41	636.85
663.75	632.39
664.09	627.78
664.43	623.49
664.77	619.37
665.11	615.12
665.45	610.98
665.79	606.87
666.13	602.79
666.47	598.70
666.81	594.53
667.15	590.50
667.49	586.60
667.83	582.80
668.17	578.86
668.51	574.86
668.85	570.87
669.19	567.06
669.53	563.28
669.87	559.39
670.21	555.78
670.55	552.12
670.89	548.77
671.23	545.43
671.57	541.90
671.91	538.38
672.25	534.85
672.58	531.31
672.92	527.86
673.26	524.65
673.60	521.55
673.94	518.47
674.28	515.55
674.62	512.55
674.96	509.41
675.30	506.53
675.64	503.57
675.97	500.71
676.31	497.79
676.65	494.76
676.99	492.01
677.33	489.09
677.67	486.19
678.01	483.04
678.34	480.05
678.68	477.20
679.02	474.36
679.36	471.58
679.70	468.89
680.04	466.16
680.37	463.29
680.71	460.41
681.05	457.74
681.39	455.00
681.73	452.36
682.06	449.88
682.40	447.32
682.74	444.79
683.08	442.31
683.42	439.73
683.75	437.26
684.09	434.71
684.43	432.19
684.77	429.76
685.10	427.42
685.44	425.03
685.78	422.74
686.12	420.44
686.45	418.13
686.79	415.82
687.13	413.62
687.46	411.43
687.80	409.24
688.14	407.03
688.48	404.95
688.81	402.69
689.15	400.51
689.49	398.36
689.82	396.26
690.16	394.15
690.50	392.16
690.83	390.18
691.17	388.20
691.51	386.35
691.84	384.51
692.18	382.61
692.52	380.64
692.85	378.66
693.19	376.80
693.52	374.99
693.86	373.23
694.20	371.45
694.53	369.66
694.87	367.84
695.21	366.08
695.54	364.26
695.88	362.59
696.21	360.86
696.55	359.21
696.88	357.52
697.22	355.90
697.56	354.32
697.89	352.71
698.23	351.11
698.56	349.51
698.90	347.91
699.23	346.29
699.57	344.77
699.90	343.25
700.24	341.68
700.58	340.14
700.91	338.59
701.25	337.16
701.58	335.82
701.92	334.47
702.25	333.12
702.59	331.76
702.92	330.41
703.26	329.13
703.59	327.81
703.93	326.61
704.26	325.37
704.60	324.06
704.93	322.81
705.26	321.59
705.60	320.38
705.93	319.24
706.27	318.15
706.60	317.07
706.94	315.96
707.27	314.87
707.61	313.82
707.94	312.85
708.27	311.76
708.61	310.67
708.94	309.66
709.28	308.67
709.61	307.72
709.94	306.77
710.28	305.76
710.61	304.80
710.95	303.78
711.28	302.86
711.61	301.91
711.95	301.00
712.28	300.02
712.61	299.07
712.95	298.14
713.28	297.29
713.61	296.41
713.95	295.58
714.28	294.75
714.61	293.92
714.95	293.06
715.28	292.18
715.61	291.30
715.95	290.47
716.28	289.60
716.61	288.79
716.95	287.97
717.28	287.25
717.61	286.48
717.94	285.72
718.28	284.91
718.61	284.17
718.94	283.46
719.27	282.81
719.61	282.15
719.94	281.47
720.27	280.75
720.60	280.05
720.94	279.38
721.27	278.78
721.60	278.18
721.93	277.58
722.27	277.05
722.60	276.51
722.93	275.90
723.26	275.37
723.59	274.74
723.93	274.18
724.26	273.59
724.59	273.00
724.92	272.51
725.25	271.95
725.59	271.43
725.92	270.91
726.25	270.36
726.58	269.88
726.91	269.38
727.24	268.88
727.57	268.45
727.91	267.93
728.24	267.42
728.57	266.92
728.90	266.46
729.23	265.94
729.56	265.54
729.89	265.13
730.22	264.60
730.55	264.20
730.89	263.78
731.22	263.36
731.55	262.92
731.88	262.48
732.21	262.07
732.54	261.63
732.87	261.21
733.20	260.85
733.53	260.45
733.86	260.08
734.19	259.70
734.52	259.27
734.85	259.00
735.18	258.60
735.51	258.24
735.84	257.86
736.17	257.54
736.50	257.12
736.83	256.86
737.16	256.52
737.49	256.13
737.82	255.78
738.15	255.42
738.48	255.10
738.81	254.78
739.14	254.45
739.47	254.13
739.80	253.81
740.13	253.48
740.46	253.15
740.79	252.82
741.12	252.50
741.45	252.19
741.78	251.83
742.11	251.56
742.44	251.23
742.77	250.95
743.10	250.65
743.43	250.34
743.75	249.98
744.08	249.87
744.41	249.62
744.74	249.35
745.07	249.06
745.40	248.85
745.73	248.61
746.06	248.37
746.39	248.10
746.71	247.87
747.04	247.63
747.37	247.38
747.70	247.13
748.03	246.89
748.36	246.69
748.68	246.45
749.01	246.21
749.34	245.98
749.67	245.74
750.00	245.49
750.33	245.33
750.65	245.10
750.98	244.73
751.31	244.47
751.64	244.28
751.97	244.12
752.29	243.88
752.62	243.61
752.95	243.36
753.28	243.17
753.60	242.96
753.93	242.79
754.26	242.59
754.59	242.35
754.91	242.16
755.24	241.92
755.57	241.78
755.90	241.55
756.22	241.37
756.55	241.18
756.88	241.02
757.20	240.77
757.53	240.56
757.86	240.41
758.19	240.30
758.51	240.10
758.84	239.90
759.17	239.73
759.49	239.55
759.82	239.43
760.15	239.29
760.47	239.13
760.80	238.96
761.13	238.82
761.45	238.70
761.78	238.56
762.11	238.46
762.43	238.31
762.76	238.17
763.08	238.05
763.41	237.92
763.74	237.75
764.06	237.63
764.39	237.49
764.71	237.31
765.04	237.15
765.37	237.03
765.69	236.88
766.02	236.75
766.34	236.64
766.67	236.51
767.00	236.37
767.32	236.28
767.65	236.20
767.97	236.11
768.30	235.99
768.62	235.85
768.95	235.71
769.27	235.56
769.60	235.48
769.92	235.37
770.25	235.23
770.57	235.14
770.90	235.03
771.22	234.95
771.55	234.87
771.87	234.79
772.20	234.68
772.52	234.72
772.85	234.74
773.17	234.66
773.50	234.54
773.82	234.43
774.15	234.30
774.47	234.14
774.80	234.02
775.12	233.95
775.45	233.88
775.77	233.78
776.09	233.72
776.42	233.61
776.74	233.55
777.07	233.44
777.39	233.38
777.72	233.30
778.04	233.22
778.36	233.16
778.69	233.10
779.01	233.04
779.33	232.87
779.66	232.70
779.98	232.64
780.31	232.62
780.63	232.60
780.95	232.57
781.28	232.51
781.60	232.43
781.92	232.39
782.25	232.31
782.57	232.30
782.89	232.20
783.22	232.17
783.54	232.06
783.86	232.02
784.19	231.97
784.51	231.93
784.83	231.89
785.16	231.82
785.48	231.77
785.80	231.71
786.12	231.65
786.45	231.59
786.77	231.53
787.09	231.43
787.42	231.36
787.74	231.31
788.06	231.27
788.38	231.23
788.71	231.15
789.03	231.16
789.35	231.08
789.67	231.04
789.99	231.01
790.32	230.97
790.64	230.97
790.96	231.00
791.28	230.92
791.61	230.85
791.93	230.82
792.25	230.76
792.57	230.79
792.89	230.73
793.21	230.72
793.54	230.66
793.86	230.65
794.18	230.60
794.50	230.54
794.82	230.51
795.14	230.47
795.47	230.45
795.79	230.41
796.11	230.41
796.43	230.38
796.75	230.36
797.07	230.34
797.39	230.28
797.71	230.18
798.04	230.16
798.36	230.17
798.68	230.17
799.00	230.17
799.32	230.11
799.64	230.10
799.96	230.05
800.28	230.08
800.60	230.04
800.92	230.05
801.24	230.04
801.56	230.01
801.89	229.98
802.21	229.97
802.53	229.89
802.85	229.85
803.17	229.87
803.49	229.81
803.81	229.80
804.13	229.77
804.45	229.73
804.77	229.72
805.09	229.67
805.41	229.62
805.73	229.60
806.05	229.56
806.37	229.51
806.69	229.47
807.01	229.41
807.33	229.41
807.65	229.35
807.97	229.33
808.28	229.31
808.60	229.27
808.92	229.22
809.24	229.27
809.56	229.23
809.88	229.19
810.20	229.19
810.52	229.19
810.84	229.17
811.16	229.14
811.48	229.12
811.80	229.13
812.12	229.11
812.43	229.10
812.75	229.05
813.07	229.04
813.39	229.02
813.71	229.00
814.03	228.95
814.35	228.91
814.67	228.88
814.98	228.86
815.30	228.90
815.62	228.87
815.94	228.79
816.26	228.83
816.58	228.75
816.89	228.74
817.21	228.71
817.53	228.67
817.85	228.68
818.17	228.65
818.48	228.59
818.80	228.57
819.12	228.52
819.44	228.53
819.76	228.46
820.07	228.46
820.39	228.45
820.71	228.45
821.03	228.45
821.34	228.41
821.66	228.38
821.98	228.33
822.30	228.33
822.61	228.37
822.93	228.30
823.25	228.31
823.57	228.27
823.88	228.23
824.20	228.22
824.52	228.21
824.83	228.22
825.15	228.19
825.47	228.19
825.79	228.20
826.10	228.14
826.42	228.15
826.74	228.13
827.05	228.11
827.37	228.09
827.69	228.06
828.00	228.02
828.32	228.02
828.64	227.97
828.95	227.98
829.27	227.96
829.58	227.92
829.90	227.90
830.22	227.90
830.53	227.90
830.85	227.87
831.17	227.82
831.48	227.79
831.80	227.79
832.11	227.78
832.43	227.73
832.75	227.75
833.06	227.83
833.38	227.79
833.69	227.76
834.01	227.76
834.32	227.77
834.64	227.77
834.96	227.76
835.27	227.78
835.59	227.71
835.90	227.65
836.22	227.67
836.53	227.65
836.85	227.62
837.16	227.68
837.48	227.68
837.79	227.70
838.11	227.71
838.42	227.69
838.74	227.69
839.05	227.69
839.37	227.67
839.68	227.58
840.00	227.59
840.31	227.58
840.63	227.52
840.94	227.50
841.26	227.49
841.57	227.46
841.88	227.47
842.20	227.46
842.51	227.50
842.83	227.49
843.14	227.59
843.46	227.61
843.77	227.56
844.08	227.55
844.40	227.49
844.71	227.49
845.03	227.45
845.34	227.43
845.65	227.41
845.97	227.37
846.28	227.36
846.60	227.39
846.91	227.41
847.22	227.42
847.54	227.45
847.85	227.45
848.16	227.48
848.48	227.45
848.79	227.48
849.10	227.46
849.42	227.44
849.73	227.36
850.04	227.31
850.36	227.26
850.67	227.27
850.98	227.28
851.30	227.27
851.61	227.28
851.92	227.28
852.23	227.30
852.55	227.32
852.86	227.31
853.17	227.27
853.49	227.27
853.80	227.34
854.11	227.32
854.42	227.34
854.74	227.32
855.05	227.35
855.36	227.30
855.67	227.30
855.99	227.32
856.30	227.41
856.61	227.42
856.92	227.45
857.23	227.48
857.55	227.46
857.86	227.48
858.17	227.50
858.48	227.50
858.79	227.50
859.11	227.54
859.42	227.56
859.73	227.56
860.04	227.55
860.35	227.51
860.66	227.51
860.98	227.51
861.29	227.53
861.60	227.54
861.91	227.57
862.22	227.56
862.53	227.55
862.84	227.44
863.16	227.49
863.47	227.47
863.78	227.44
864.09	227.45
864.40	227.44
864.71	227.42
865.02	227.44
865.33	227.45
865.64	227.41
865.95	227.40
866.27	227.46
866.58	227.45
866.89	227.46
867.20	227.42
867.51	227.40
867.82	227.36
868.13	227.38
868.44	227.35
868.75	227.38
869.06	227.36
869.37	227.36
869.68	227.29
869.99	227.32
870.30	227.31
870.61	227.28
870.92	227.25
871.23	227.24
871.54	227.22
871.85	227.23
872.16	227.22
872.47	227.21
872.78	227.15
873.09	227.14
873.40	227.10
873.71	227.12
874.02	227.13
874.33	227.12
874.64	227.05
874.95	227.08
875.26	227.04
875.56	227.00
875.87	226.99
876.18	226.98
876.49	227.07
876.80	227.04
877.11	227.06
877.42	227.06
877.73	227.07
878.04	227.09
878.35	227.04
878.66	227.05
878.96	227.06
879.27	227.02
879.58	227.04
879.89	227.02
880.20	227.05
880.51	227.02
880.82	227.03
881.12	227.03
881.43	227.00
881.74	226.98
882.05	226.99
882.36	226.98
882.67	226.99
882.97	226.86
883.28	226.89
883.59	226.87
883.90	226.90
884.21	226.94
884.51	226.91
884.82	226.90
885.13	226.88
885.44	226.87
885.74	226.87
886.05	226.87
886.36	226.87
886.67	226.85
886.98	226.90
887.28	226.89
887.59	226.92
887.90	226.89
888.20	226.92
888.51	226.94
888.82	226.98
889.13	227.01
889.43	227.08
889.74	227.04
890.05	227.06
890.35	227.02
890.66	226.95
890.97	226.94
891.28	226.96
891.58	226.96
891.89	226.94
892.20	226.98
892.50	226.98
892.81	226.98
893.12	226.97
893.42	226.90
893.73	226.94
894.04	226.93
894.34	226.94
894.65	226.94
894.95	226.92
895.26	226.90
895.57	226.93
895.87	226.87
896.18	226.92
896.48	226.92
896.79	226.94
897.10	226.97
897.40	227.00
897.71	227.01
898.01	227.02
898.32	227.03
898.63	227.00
898.93	227.00
899.24	227.01
899.54	227.00
899.85	227.02
900.15	227.01
900.46	227.00
900.76	227.03
901.07	227.04
901.38	227.03
901.68	227.05
901.99	227.02
902.29	227.01
902.60	226.99
902.90	226.98
903.21	226.95
903.51	226.95
903.82	226.98
904.12	226.97
904.43	226.98
904.73	226.98
905.03	226.99
905.34	227.07
905.64	227.06
905.95	227.07
906.25	227.07
906.56	227.08
906.86	227.07
907.17	227.04
907.47	227.03
907.77	227.01
908.08	226.99
908.38	227.01
908.69	226.99
908.99	227.00
909.30	227.02
909.60	227.04
909.90	227.01
910.21	226.93
910.51	226.87
910.81	226.86
911.12	226.84
911.42	226.82
911.73	226.72
912.03	226.73
912.33	226.74
912.64	226.73
912.94	226.70
913.24	226.69
913.55	226.72
913.85	226.70
914.15	226.73
914.46	226.73
914.76	226.70
915.06	226.72
915.37	226.67
915.67	226.64
915.97	226.65
916.27	226.65
916.58	226.67
916.88	226.71
917.18	226.70
917.49	226.79
917.79	226.82
918.09	226.84
918.39	226.85
918.70	226.83
919.00	226.83
919.30	226.87
919.60	226.86
919.91	226.84
920.21	226.84
920.51	226.85
920.81	226.85
921.12	226.87
921.42	226.87
921.72	226.89
922.02	226.93
922.32	226.91
922.63	226.93
922.93	226.98
923.23	226.99
923.53	227.00
923.83	226.94
924.13	226.94
924.44	226.91
924.74	226.96
925.04	227.02
925.34	226.99
925.64	226.98
925.94	227.02
926.24	227.08
926.55	227.06
926.85	227.07
927.15	227.10
927.45	227.11
927.75	227.11
928.05	227.15
928.35	227.14
928.65	227.19
928.95	227.21
929.26	227.18
929.56	227.19
929.86	227.20
930.16	227.18
930.46	227.18
930.76	227.21
931.06	227.16
931.36	227.10
931.66	227.14
931.96	227.15
932.26	227.15
932.56	227.09
932.86	227.11
933.16	227.11
933.46	227.06
933.76	227.03
934.06	227.07
934.36	227.09
934.66	227.08
934.96	227.06
935.26	227.05
935.56	227.06
935.86	227.03
936.16	227.05
936.46	227.05
936.76	227.04
937.06	227.02
937.36	227.03
937.66	227.05
937.96	227.02
938.26	226.98
938.56	226.94
938.86	226.94
939.16	226.94
939.46	226.94
939.76	226.97
940.06	226.98
940.35	226.95
940.65	226.87
940.95	226.88
941.25	226.88
941.55	226.85
941.85	226.84
942.15	226.90
942.45	226.93
942.75	226.91
943.04	226.89
943.34	226.91
943.64	226.87
943.94	226.87
944.24	226.87
944.54	226.85
944.84	226.87
945.13	226.88
945.43	226.90
945.73	226.92
946.03	226.91
946.33	226.88
946.62	226.84
946.92	226.84
947.22	226.85
947.52	226.84
947.82	226.85
948.11	226.83
948.41	226.77
948.71	226.72
949.01	226.72
949.31	226.73
949.60	226.69
949.90	226.71
950.20	226.69
950.50	226.68
950.79	226.70
951.09	226.70
951.39	226.68
951.69	226.64
951.98	226.65
952.28	226.67
952.58	226.68
952.87	226.70
953.17	226.70
953.47	226.68
953.76	226.65
954.06	226.62
954.36	226.61
954.66	226.61
954.95	226.66
955.25	226.68
955.55	226.67
955.84	226.66
956.14	226.69
956.44	226.68
956.73	226.68
957.03	226.67
957.32	226.69
957.62	226.68
957.92	226.68
958.21	226.65
958.51	226.74
958.81	226.74
959.10	226.74
959.40	226.77
959.69	226.78
959.99	226.84
960.29	226.89
960.58	226.89
960.88	226.92
961.17	226.87
961.47	226.89
961.76	226.93
962.06	226.98
962.36	226.94
962.65	226.95
962.95	226.96
963.24	226.96
963.54	226.93
963.83	226.97
964.13	226.97
964.42	226.96
964.72	226.90
965.01	226.92
965.31	226.93
965.60	226.92
965.90	226.93
966.19	226.86
966.49	226.82
966.78	226.83
967.08	226.81
967.37	226.83
967.67	226.80
967.96	226.80
968.26	226.81
968.55	226.84
968.85	226.86
969.14	226.85
969.43	226.86
969.73	226.87
970.02	226.83
970.32	226.81
970.61	226.82
970.91	226.78
971.20	226.76
971.49	226.76
971.79	226.76
972.08	226.73
972.38	226.75
972.67	226.76
972.96	226.72
973.26	226.70
973.55	226.73
973.85	226.71
974.14	226.69
974.43	226.67
974.73	226.63
975.02	226.63
975.31	226.65
975.61	226.66
975.90	226.64
976.19	226.63
976.49	226.62
976.78	226.61
977.07	226.60
977.37	226.60
977.66	226.61
977.95	226.60
978.24	226.59
978.54	226.60
978.83	226.57
979.12	226.61
979.42	226.61
979.71	226.57
980.00	226.58
980.29	226.57
980.59	226.57
980.88	226.60
981.17	226.55
981.46	226.52
981.76	226.50
982.05	226.54
982.34	226.59
982.63	226.58
982.93	226.55
983.22	226.54
983.51	226.55
983.80	226.54
984.09	226.55
984.39	226.55
984.68	226.54
984.97	226.61
985.26	226.60
985.55	226.63
985.85	226.60
986.14	226.62
986.43	226.65
986.72	226.66
987.01	226.64
987.30	226.67
987.59	226.68
987.89	226.69
988.18	226.66
988.47	226.62
988.76	226.65
989.05	226.66
989.34	226.65
989.63	226.66
989.92	226.66
990.22	226.66
990.51	226.67
990.80	226.68
991.09	226.67
991.38	226.66
991.67	226.64
991.96	226.68
992.25	226.67
992.54	226.62
992.83	226.61
993.12	226.62
993.41	226.65
993.70	226.67
993.99	226.68
994.28	226.71
994.58	226.76
994.87	226.77
995.16	226.76
995.45	226.80
995.74	226.80
996.03	226.80
996.32	226.81
996.61	226.83
996.90	226.81
997.19	226.78
997.48	226.79
997.77	226.77
998.06	226.76
998.34	226.76
998.63	226.75
998.92	226.73
999.21	226.73
999.50	226.71
999.79	226.68
1000.08	226.68
1000.37	226.67
1000.66	226.64
1000.95	226.67
1001.24	226.67
1001.53	226.69
1001.82	226.68
1002.11	226.65
1002.40	226.66
1002.68	226.65
1002.97	226.69
1003.26	226.70
1003.55	226.68
1003.84	226.71
1004.13	226.74
1004.42	226.73
1004.71	226.73
1004.99	226.74
1005.28	226.77
1005.57	226.78
1005.86	226.78
1006.15	226.74
1006.44	226.73
1006.72	226.74
1007.01	226.68
1007.30	226.69
1007.59	226.67
1007.88	226.67
1008.17	226.65
1008.45	226.65
1008.74	226.61
1009.03	226.57
1009.32	226.54
1009.60	226.54
1009.89	226.50
1010.18	226.45
1010.47	226.45
1010.76	226.46
1011.04	226.44
1011.33	226.44
1011.62	226.42
1011.91	226.41
1012.19	226.45
1012.48	226.42
1012.77	226.43
1013.05	226.48
1013.34	226.48
1013.63	226.47
1013.92	226.43
1014.20	226.43
1014.49	226.42
1014.78	226.43
1015.06	226.44
1015.35	226.46
1015.64	226.46
1015.92	226.49
1016.21	226.53
1016.50	226.55
1016.78	226.57
1017.07	226.59
1017.36	226.54
1017.64	226.53
1017.93	226.55
1018.22	226.55
1018.50	226.58
1018.79	226.54
1019.08	226.47
1019.36	226.46
1019.65	226.41
1019.93	226.50
1020.22	226.55
1020.51	226.58
1020.79	226.57
1021.08	226.74
1021.36	226.44
1021.65	225.94
1021.94	226.12
1022.22	226.10
1022.51	225.69
1022.79	227.62
1023.08	226.90
1023.36	227.52
1023.65	226.29
>>>>>End Processed Spectral Data<<<<<
