SpectraSuite Data File
++++++++++++++++++++++++++++++++++++
Date: Fri Feb 01 15:06:51 EST 2013
User: group
Dark Spectrum Present: No
Reference Spectrum Present: No
Number of Sampled Component Spectra: 1
Spectrometers: USB2E7196
Integration Time (usec): 35000 (USB2E7196)
Spectra Averaged: 100 (USB2E7196)
Boxcar Smoothing: 10 (USB2E7196)
Correct for Electrical Dark: No (USB2E7196)
Strobe/Lamp Enabled: No (USB2E7196)
Correct for Detector Non-linearity: No (USB2E7196)
Correct for Stray Light: No (USB2E7196)
Number of Pixels in Processed Spectrum: 2048
>>>>>Begin Processed Spectral Data<<<<<
339.09	0.00
339.48	215.18
339.86	216.28
340.24	218.34
340.63	219.66
341.01	222.78
341.39	222.18
341.78	223.71
342.16	224.63
342.54	225.77
342.93	213.65
343.31	224.46
343.69	225.02
344.07	225.50
344.46	225.93
344.84	226.29
345.22	226.49
345.60	226.74
345.99	226.91
346.37	227.02
346.75	227.08
347.13	227.13
347.52	227.18
347.90	227.26
348.28	227.28
348.66	227.33
349.05	227.32
349.43	227.35
349.81	227.39
350.19	227.44
350.57	227.50
350.96	227.59
351.34	227.67
351.72	227.72
352.10	227.82
352.48	227.91
352.87	227.96
353.25	228.06
353.63	228.10
354.01	228.16
354.39	228.24
354.77	228.34
355.15	228.44
355.54	228.51
355.92	228.52
356.30	228.62
356.68	228.72
357.06	228.79
357.44	228.83
357.82	228.86
358.20	228.93
358.58	228.97
358.97	229.03
359.35	229.07
359.73	229.18
360.11	229.21
360.49	229.25
360.87	229.29
361.25	229.32
361.63	229.38
362.01	229.44
362.39	229.48
362.77	229.52
363.15	229.57
363.53	229.59
363.91	229.63
364.29	229.60
364.67	229.54
365.05	229.55
365.43	229.55
365.81	229.56
366.19	229.58
366.57	229.59
366.95	229.59
367.33	229.56
367.71	229.49
368.09	229.48
368.47	229.44
368.85	229.40
369.23	229.40
369.61	229.37
369.99	229.35
370.37	229.33
370.75	229.30
371.13	229.21
371.51	229.11
371.89	229.10
372.27	229.07
372.65	229.03
373.03	228.98
373.41	228.91
373.78	228.85
374.16	228.73
374.54	228.66
374.92	228.54
375.30	228.48
375.68	228.41
376.06	228.35
376.44	228.29
376.82	228.21
377.19	228.13
377.57	228.06
377.95	227.95
378.33	227.85
378.71	227.75
379.09	227.68
379.47	227.65
379.84	227.56
380.22	227.49
380.60	227.36
380.98	227.28
381.36	227.26
381.73	227.18
382.11	227.14
382.49	227.10
382.87	227.05
383.25	226.99
383.62	227.04
384.00	226.98
384.38	226.88
384.76	226.87
385.13	226.85
385.51	226.76
385.89	226.69
386.27	226.64
386.64	226.59
387.02	226.53
387.40	226.47
387.78	226.44
388.15	226.41
388.53	226.40
388.91	226.34
389.29	226.28
389.66	226.24
390.04	226.21
390.42	226.23
390.79	226.21
391.17	226.16
391.55	226.05
391.92	226.03
392.30	226.08
392.68	226.06
393.05	226.04
393.43	226.09
393.81	226.10
394.18	226.14
394.56	226.16
394.94	226.24
395.31	226.28
395.69	226.31
396.06	226.36
396.44	226.43
396.82	226.50
397.19	226.60
397.57	226.67
397.95	226.72
398.32	226.72
398.70	226.81
399.07	226.93
399.45	226.99
399.82	227.05
400.20	227.11
400.58	227.18
400.95	227.23
401.33	227.33
401.70	227.45
402.08	227.52
402.45	227.63
402.83	227.75
403.20	227.84
403.58	227.93
403.95	228.06
404.33	228.18
404.71	228.31
405.08	228.49
405.46	228.61
405.83	228.80
406.21	228.95
406.58	229.08
406.96	229.27
407.33	229.44
407.70	229.63
408.08	229.90
408.45	230.13
408.83	230.36
409.20	230.59
409.58	230.82
409.95	231.09
410.33	231.37
410.70	231.58
411.08	231.88
411.45	232.19
411.82	232.46
412.20	232.81
412.57	233.22
412.95	233.53
413.32	233.98
413.69	234.36
414.07	234.79
414.44	235.26
414.82	235.75
415.19	236.30
415.56	236.87
415.94	237.43
416.31	238.06
416.68	238.72
417.06	239.41
417.43	240.09
417.81	240.87
418.18	241.64
418.55	242.51
418.93	243.41
419.30	244.31
419.67	245.25
420.04	246.24
420.42	247.22
420.79	248.39
421.16	249.52
421.54	250.68
421.91	251.95
422.28	253.23
422.66	254.51
423.03	255.84
423.40	257.17
423.77	258.58
424.15	259.97
424.52	261.44
424.89	263.08
425.26	264.65
425.64	266.10
426.01	267.74
426.38	269.38
426.75	271.06
427.13	272.82
427.50	274.65
427.87	276.50
428.24	278.36
428.61	280.12
428.99	282.09
429.36	284.27
429.73	286.33
430.10	288.32
430.47	290.39
430.85	292.47
431.22	294.74
431.59	297.10
431.96	299.37
432.33	301.87
432.70	304.22
433.08	307.06
433.45	309.73
433.82	312.29
434.19	315.19
434.56	317.98
434.93	320.62
435.30	323.24
435.68	326.14
436.05	329.01
436.42	331.82
436.79	334.32
437.16	337.01
437.53	339.88
437.90	342.76
438.27	345.54
438.64	348.43
439.01	351.04
439.38	353.31
439.75	355.51
440.13	358.02
440.50	360.39
440.87	362.24
441.24	364.19
441.61	366.41
441.98	367.90
442.35	369.70
442.72	371.58
443.09	373.41
443.46	374.38
443.83	374.94
444.20	375.47
444.57	376.35
444.94	376.60
445.31	376.96
445.68	377.32
446.05	377.42
446.42	377.01
446.79	376.57
447.16	376.11
447.53	375.79
447.90	374.66
448.27	373.46
448.64	371.87
449.01	370.69
449.37	368.71
449.74	366.80
450.11	364.56
450.48	362.08
450.85	359.54
451.22	357.44
451.59	355.42
451.96	353.43
452.33	350.80
452.70	348.45
453.07	345.60
453.43	342.65
453.80	339.84
454.17	337.16
454.54	334.63
454.91	331.91
455.28	329.25
455.65	326.71
456.02	324.28
456.38	322.11
456.75	319.44
457.12	317.16
457.49	314.96
457.86	312.75
458.23	310.87
458.59	308.82
458.96	306.74
459.33	304.87
459.70	303.02
460.07	301.55
460.43	299.84
460.80	298.17
461.17	296.71
461.54	295.19
461.91	293.75
462.27	292.29
462.64	291.07
463.01	289.70
463.38	288.42
463.74	287.07
464.11	285.93
464.48	284.92
464.85	283.81
465.21	282.91
465.58	282.02
465.95	280.92
466.32	280.01
466.68	279.11
467.05	278.22
467.42	277.33
467.78	276.32
468.15	275.39
468.52	274.73
468.88	273.89
469.25	273.14
469.62	272.51
469.98	271.84
470.35	271.18
470.72	270.60
471.08	269.91
471.45	269.31
471.82	268.72
472.18	268.09
472.55	267.62
472.92	267.11
473.28	266.61
473.65	266.15
474.02	265.69
474.38	265.28
474.75	264.94
475.11	264.58
475.48	264.33
475.85	264.12
476.21	263.85
476.58	263.64
476.94	263.49
477.31	263.32
477.67	263.15
478.04	263.01
478.41	262.89
478.77	262.92
479.14	262.84
479.50	262.86
479.87	262.97
480.23	263.06
480.60	263.10
480.96	263.23
481.33	263.43
481.69	263.63
482.06	263.82
482.42	264.02
482.79	264.26
483.15	264.60
483.52	264.96
483.88	265.33
484.25	265.72
484.61	266.13
484.98	266.58
485.34	267.13
485.71	267.73
486.07	268.36
486.44	268.93
486.80	269.67
487.17	270.39
487.53	271.12
487.90	271.97
488.26	272.92
488.62	273.86
488.99	274.82
489.35	275.84
489.72	276.94
490.08	278.12
490.44	279.37
490.81	280.63
491.17	282.00
491.54	283.47
491.90	284.99
492.26	286.63
492.63	288.35
492.99	290.09
493.36	291.95
493.72	293.94
494.08	296.01
494.45	298.26
494.81	300.62
495.17	303.07
495.54	305.62
495.90	308.26
496.26	311.04
496.63	313.96
496.99	317.03
497.35	320.26
497.72	323.64
498.08	327.12
498.44	330.79
498.80	334.73
499.17	338.75
499.53	342.86
499.89	347.23
500.26	351.72
500.62	356.38
500.98	361.32
501.34	366.44
501.71	371.75
502.07	377.14
502.43	382.71
502.79	388.51
503.16	394.52
503.52	400.81
503.88	407.16
504.24	413.82
504.60	420.76
504.97	427.96
505.33	435.26
505.69	442.88
506.05	450.67
506.41	458.50
506.78	466.64
507.14	475.11
507.50	483.79
507.86	492.75
508.22	501.91
508.59	511.12
508.95	520.66
509.31	530.46
509.67	540.53
510.03	550.77
510.39	561.36
510.75	572.18
511.12	583.14
511.48	594.51
511.84	606.00
512.20	617.46
512.56	629.35
512.92	641.60
513.28	654.00
513.64	666.49
514.00	679.18
514.37	692.10
514.73	705.13
515.09	718.18
515.45	731.57
515.81	745.16
516.17	759.16
516.53	773.29
516.89	787.45
517.25	801.68
517.61	816.21
517.97	830.67
518.33	845.11
518.69	859.93
519.05	874.94
519.41	890.15
519.77	905.78
520.13	921.19
520.49	936.60
520.85	952.09
521.21	967.81
521.57	984.16
521.93	1000.08
522.29	1016.59
522.65	1032.93
523.01	1049.22
523.37	1065.32
523.73	1081.60
524.09	1097.77
524.45	1114.17
524.81	1130.89
525.17	1147.72
525.53	1164.68
525.89	1181.69
526.25	1198.48
526.61	1214.89
526.97	1231.75
527.33	1248.26
527.68	1265.07
528.04	1281.66
528.40	1298.42
528.76	1315.55
529.12	1332.15
529.48	1348.99
529.84	1365.11
530.20	1381.76
530.56	1398.88
530.91	1416.36
531.27	1433.17
531.63	1449.69
531.99	1466.41
532.35	1482.43
532.71	1498.49
533.07	1514.73
533.42	1530.70
533.78	1546.89
534.14	1563.33
534.50	1578.66
534.86	1594.68
535.21	1609.92
535.57	1625.86
535.93	1641.34
536.29	1656.31
536.65	1671.50
537.00	1686.39
537.36	1701.72
537.72	1716.44
538.08	1730.90
538.44	1744.92
538.79	1758.93
539.15	1772.84
539.51	1786.62
539.87	1801.12
540.22	1814.97
540.58	1828.95
540.94	1842.47
541.29	1855.53
541.65	1868.23
542.01	1881.61
542.37	1894.06
542.72	1906.53
543.08	1918.38
543.44	1930.90
543.79	1942.06
544.15	1953.16
544.51	1964.80
544.87	1975.85
545.22	1986.59
545.58	1996.90
545.94	2006.54
546.29	2016.42
546.65	2026.13
547.01	2035.42
547.36	2044.06
547.72	2052.41
548.07	2060.12
548.43	2068.19
548.79	2076.29
549.14	2083.98
549.50	2091.34
549.86	2099.04
550.21	2106.26
550.57	2113.41
550.92	2120.00
551.28	2127.20
551.64	2134.15
551.99	2140.63
552.35	2146.74
552.70	2152.88
553.06	2158.75
553.41	2165.29
553.77	2171.39
554.13	2177.57
554.48	2183.61
554.84	2188.97
555.19	2194.36
555.55	2199.53
555.90	2203.96
556.26	2208.52
556.61	2213.22
556.97	2217.38
557.32	2221.53
557.68	2225.76
558.03	2230.08
558.39	2233.80
558.74	2238.39
559.10	2242.15
559.45	2245.79
559.81	2250.13
560.16	2253.97
560.52	2257.15
560.87	2260.36
561.23	2262.87
561.58	2265.80
561.94	2268.36
562.29	2270.85
562.64	2273.47
563.00	2275.99
563.35	2279.51
563.71	2282.73
564.06	2285.71
564.42	2288.44
564.77	2290.76
565.12	2292.87
565.48	2294.63
565.83	2296.33
566.19	2297.46
566.54	2298.44
566.89	2299.58
567.25	2299.84
567.60	2301.02
567.96	2302.55
568.31	2303.36
568.66	2304.42
569.02	2304.84
569.37	2304.97
569.72	2305.70
570.08	2305.61
570.43	2305.57
570.78	2304.81
571.14	2303.12
571.49	2301.63
571.84	2301.23
572.20	2299.72
572.55	2298.62
572.90	2296.98
573.26	2295.30
573.61	2293.61
573.96	2291.63
574.31	2288.35
574.67	2285.33
575.02	2281.51
575.37	2278.08
575.72	2274.02
576.08	2270.53
576.43	2267.13
576.78	2263.47
577.13	2260.20
577.49	2257.12
577.84	2253.55
578.19	2249.78
578.54	2246.00
578.90	2241.72
579.25	2236.27
579.60	2231.27
579.95	2226.06
580.30	2220.99
580.66	2215.96
581.01	2210.82
581.36	2205.74
581.71	2201.63
582.06	2197.14
582.42	2192.65
582.77	2187.35
583.12	2182.77
583.47	2177.85
583.82	2172.66
584.17	2167.31
584.53	2161.51
584.88	2155.67
585.23	2149.75
585.58	2144.11
585.93	2138.71
586.28	2133.81
586.63	2128.41
586.98	2123.32
587.34	2118.58
587.69	2113.52
588.04	2108.06
588.39	2102.32
588.74	2095.86
589.09	2089.46
589.44	2082.54
589.79	2076.53
590.14	2070.89
590.49	2064.19
590.84	2057.71
591.19	2051.66
591.54	2045.00
591.89	2037.53
592.25	2030.60
592.60	2023.28
592.95	2015.52
593.30	2007.93
593.65	2000.21
594.00	1993.17
594.35	1985.93
594.70	1977.68
595.05	1970.25
595.40	1962.91
595.75	1955.25
596.10	1948.81
596.45	1941.88
596.80	1935.59
597.15	1928.69
597.50	1921.23
597.85	1914.78
598.19	1908.08
598.54	1900.80
598.89	1894.14
599.24	1888.22
599.59	1881.49
599.94	1875.27
600.29	1868.98
600.64	1862.43
600.99	1854.87
601.34	1847.87
601.69	1840.88
602.04	1833.98
602.39	1826.74
602.74	1819.83
603.08	1813.21
603.43	1806.67
603.78	1799.51
604.13	1792.21
604.48	1784.88
604.83	1778.10
605.18	1771.05
605.53	1762.95
605.87	1754.92
606.22	1747.70
606.57	1739.81
606.92	1732.55
607.27	1725.32
607.62	1718.34
607.96	1710.91
608.31	1704.39
608.66	1696.76
609.01	1689.04
609.36	1681.62
609.70	1673.61
610.05	1665.49
610.40	1657.69
610.75	1649.26
611.10	1641.52
611.44	1633.34
611.79	1625.38
612.14	1616.60
612.49	1607.49
612.83	1599.23
613.18	1591.20
613.53	1583.03
613.88	1574.54
614.22	1566.14
614.57	1557.72
614.92	1549.65
615.27	1542.20
615.61	1533.91
615.96	1525.99
616.31	1518.47
616.65	1511.13
617.00	1503.48
617.35	1495.87
617.70	1487.48
618.04	1478.94
618.39	1470.81
618.74	1463.16
619.08	1454.97
619.43	1447.60
619.78	1440.63
620.12	1433.41
620.47	1425.88
620.82	1417.88
621.16	1410.58
621.51	1403.15
621.85	1395.45
622.20	1386.97
622.55	1378.68
622.89	1370.87
623.24	1363.34
623.59	1356.05
623.93	1348.52
624.28	1341.47
624.62	1333.96
624.97	1326.84
625.32	1320.28
625.66	1313.24
626.01	1306.06
626.35	1298.55
626.70	1290.81
627.04	1283.10
627.39	1275.40
627.73	1268.02
628.08	1261.11
628.43	1253.69
628.77	1246.26
629.12	1238.65
629.46	1231.50
629.81	1224.14
630.15	1216.91
630.50	1209.47
630.84	1201.31
631.19	1193.59
631.53	1186.07
631.88	1178.63
632.22	1171.04
632.57	1163.66
632.91	1156.11
633.26	1148.82
633.60	1141.51
633.95	1134.48
634.29	1127.59
634.64	1120.99
634.98	1113.61
635.32	1106.40
635.67	1099.98
636.01	1093.36
636.36	1086.68
636.70	1080.26
637.05	1073.68
637.39	1067.30
637.73	1060.91
638.08	1055.00
638.42	1048.85
638.77	1042.35
639.11	1035.75
639.45	1029.40
639.80	1022.83
640.14	1016.48
640.49	1009.93
640.83	1003.66
641.17	997.36
641.52	991.06
641.86	984.66
642.20	978.87
642.55	972.69
642.89	966.11
643.23	959.72
643.58	953.89
643.92	947.71
644.26	941.64
644.61	935.55
644.95	929.37
645.29	922.78
645.64	916.08
645.98	909.84
646.32	904.05
646.66	898.00
647.01	892.18
647.35	886.49
647.69	880.74
648.04	875.22
648.38	869.43
648.72	863.41
649.06	857.27
649.41	851.40
649.75	845.38
650.09	839.46
650.43	833.57
650.78	827.52
651.12	821.59
651.46	815.84
651.80	810.12
652.14	804.79
652.49	799.50
652.83	794.33
653.17	788.58
653.51	782.85
653.85	777.58
654.20	771.92
654.54	765.94
654.88	760.16
655.22	754.31
655.56	748.73
655.90	743.27
656.25	738.01
656.59	732.71
656.93	727.67
657.27	722.51
657.61	717.14
657.95	712.05
658.29	706.97
658.64	701.79
658.98	696.54
659.32	691.09
659.66	685.86
660.00	680.60
660.34	675.71
660.68	670.82
661.02	665.70
661.36	661.05
661.70	656.65
662.05	652.34
662.39	648.04
662.73	643.56
663.07	639.22
663.41	634.82
663.75	630.28
664.09	625.73
664.43	621.41
664.77	617.29
665.11	613.10
665.45	608.97
665.79	604.93
666.13	600.79
666.47	596.76
666.81	592.67
667.15	588.50
667.49	584.65
667.83	580.93
668.17	577.12
668.51	573.04
668.85	568.96
669.19	565.06
669.53	561.21
669.87	557.35
670.21	553.68
670.55	550.12
670.89	546.75
671.23	543.30
671.57	539.84
671.91	536.39
672.25	532.90
672.58	529.45
672.92	526.08
673.26	523.02
673.60	519.89
673.94	516.71
674.28	513.87
674.62	510.95
674.96	507.83
675.30	504.86
675.64	501.99
675.97	499.29
676.31	496.47
676.65	493.59
676.99	490.90
677.33	488.04
677.67	485.16
678.01	482.11
678.34	479.16
678.68	476.24
679.02	473.37
679.36	470.63
679.70	467.91
680.04	465.16
680.37	462.22
680.71	459.45
681.05	456.88
681.39	454.19
681.73	451.52
682.06	448.92
682.40	446.37
682.74	443.85
683.08	441.30
683.42	438.71
683.75	436.21
684.09	433.67
684.43	431.28
684.77	428.90
685.10	426.59
685.44	424.29
685.78	422.05
686.12	419.83
686.45	417.59
686.79	415.28
687.13	413.07
687.46	410.93
687.80	408.77
688.14	406.57
688.48	404.51
688.81	402.26
689.15	400.15
689.49	398.04
689.82	395.98
690.16	393.92
690.50	391.97
690.83	390.03
691.17	388.06
691.51	386.11
691.84	384.28
692.18	382.35
692.52	380.38
692.85	378.46
693.19	376.56
693.52	374.75
693.86	372.97
694.20	371.25
694.53	369.47
694.87	367.64
695.21	365.90
695.54	364.07
695.88	362.35
696.21	360.63
696.55	358.97
696.88	357.32
697.22	355.68
697.56	354.10
697.89	352.47
698.23	350.90
698.56	349.27
698.90	347.71
699.23	346.08
699.57	344.55
699.90	342.95
700.24	341.44
700.58	339.88
700.91	338.37
701.25	336.87
701.58	335.51
701.92	334.16
702.25	332.76
702.59	331.40
702.92	330.08
703.26	328.83
703.59	327.53
703.93	326.33
704.26	325.12
704.60	323.78
704.93	322.51
705.26	321.28
705.60	320.14
705.93	318.97
706.27	317.97
706.60	316.92
706.94	315.92
707.27	314.79
707.61	313.72
707.94	312.73
708.27	311.69
708.61	310.63
708.94	309.63
709.28	308.64
709.61	307.69
709.94	306.76
710.28	305.74
710.61	304.80
710.95	303.70
711.28	302.76
711.61	301.87
711.95	301.06
712.28	300.09
712.61	299.10
712.95	298.14
713.28	297.25
713.61	296.33
713.95	295.42
714.28	294.63
714.61	293.81
714.95	292.99
715.28	292.10
715.61	291.25
715.95	290.43
716.28	289.57
716.61	288.74
716.95	287.96
717.28	287.22
717.61	286.44
717.94	285.77
718.28	284.99
718.61	284.25
718.94	283.49
719.27	282.86
719.61	282.26
719.94	281.65
720.27	280.96
720.60	280.35
720.94	279.71
721.27	279.08
721.60	278.49
721.93	277.83
722.27	277.28
722.60	276.72
722.93	276.13
723.26	275.58
723.59	275.02
723.93	274.45
724.26	273.88
724.59	273.33
724.92	272.74
725.25	272.22
725.59	271.70
725.92	271.17
726.25	270.65
726.58	270.12
726.91	269.57
727.24	269.07
727.57	268.58
727.91	268.09
728.24	267.62
728.57	267.11
728.90	266.67
729.23	266.19
729.56	265.74
729.89	265.27
730.22	264.78
730.55	264.33
730.89	263.85
731.22	263.40
731.55	262.96
731.88	262.57
732.21	262.17
732.54	261.74
732.87	261.32
733.20	260.91
733.53	260.53
733.86	260.17
734.19	259.77
734.52	259.39
734.85	259.08
735.18	258.64
735.51	258.30
735.84	257.94
736.17	257.58
736.50	257.18
736.83	256.95
737.16	256.66
737.49	256.33
737.82	256.02
738.15	255.71
738.48	255.39
738.81	255.04
739.14	254.69
739.47	254.39
739.80	254.07
740.13	253.76
740.46	253.43
740.79	253.09
741.12	252.77
741.45	252.46
741.78	252.10
742.11	251.84
742.44	251.54
742.77	251.25
743.10	250.94
743.43	250.67
743.75	250.30
744.08	250.11
744.41	249.84
744.74	249.57
745.07	249.27
745.40	249.03
745.73	248.82
746.06	248.56
746.39	248.28
746.71	248.02
747.04	247.76
747.37	247.49
747.70	247.26
748.03	247.05
748.36	246.83
748.68	246.61
749.01	246.36
749.34	246.11
749.67	245.90
750.00	245.74
750.33	245.58
750.65	245.35
750.98	245.04
751.31	244.85
751.64	244.64
751.97	244.49
752.29	244.28
752.62	244.08
752.95	243.85
753.28	243.67
753.60	243.50
753.93	243.31
754.26	243.11
754.59	242.92
754.91	242.70
755.24	242.51
755.57	242.34
755.90	242.18
756.22	242.01
756.55	241.78
756.88	241.58
757.20	241.32
757.53	241.12
757.86	240.97
758.19	240.79
758.51	240.64
758.84	240.43
759.17	240.26
759.49	240.08
759.82	239.97
760.15	239.82
760.47	239.67
760.80	239.54
761.13	239.40
761.45	239.26
761.78	239.13
762.11	239.03
762.43	238.86
762.76	238.70
763.08	238.56
763.41	238.48
763.74	238.34
764.06	238.24
764.39	238.14
764.71	237.97
765.04	237.85
765.37	237.76
765.69	237.63
766.02	237.49
766.34	237.36
766.67	237.23
767.00	237.12
767.32	237.02
767.65	236.98
767.97	236.89
768.30	236.80
768.62	236.66
768.95	236.55
769.27	236.41
769.60	236.33
769.92	236.21
770.25	236.08
770.57	235.96
770.90	235.82
771.22	235.70
771.55	235.62
771.87	235.53
772.20	235.37
772.52	235.37
772.85	235.39
773.17	235.31
773.50	235.19
773.82	235.05
774.15	234.91
774.47	234.71
774.80	234.60
775.12	234.46
775.45	234.42
775.77	234.27
776.09	234.22
776.42	234.10
776.74	234.05
777.07	233.96
777.39	233.88
777.72	233.83
778.04	233.77
778.36	233.71
778.69	233.60
779.01	233.59
779.33	233.39
779.66	233.20
779.98	233.12
780.31	233.07
780.63	233.05
780.95	233.03
781.28	232.98
781.60	232.89
781.92	232.85
782.25	232.73
782.57	232.68
782.89	232.64
783.22	232.58
783.54	232.48
783.86	232.43
784.19	232.37
784.51	232.33
784.83	232.27
785.16	232.17
785.48	232.15
785.80	232.04
786.12	232.09
786.45	232.06
786.77	232.01
787.09	231.93
787.42	231.84
787.74	231.79
788.06	231.75
788.38	231.72
788.71	231.68
789.03	231.68
789.35	231.67
789.67	231.61
789.99	231.61
790.32	231.59
790.64	231.53
790.96	231.60
791.28	231.52
791.61	231.45
791.93	231.45
792.25	231.39
792.57	231.46
792.89	231.36
793.21	231.31
793.54	231.24
793.86	231.20
794.18	231.18
794.50	231.11
794.82	231.07
795.14	231.05
795.47	231.02
795.79	230.99
796.11	230.93
796.43	230.86
796.75	230.82
797.07	230.80
797.39	230.77
797.71	230.65
798.04	230.65
798.36	230.65
798.68	230.63
799.00	230.61
799.32	230.53
799.64	230.55
799.96	230.54
800.28	230.56
800.60	230.55
800.92	230.52
801.24	230.47
801.56	230.44
801.89	230.40
802.21	230.37
802.53	230.28
802.85	230.26
803.17	230.31
803.49	230.25
803.81	230.19
804.13	230.18
804.45	230.14
804.77	230.11
805.09	230.07
805.41	229.99
805.73	229.96
806.05	229.88
806.37	229.82
806.69	229.74
807.01	229.70
807.33	229.66
807.65	229.61
807.97	229.66
808.28	229.60
808.60	229.58
808.92	229.52
809.24	229.57
809.56	229.54
809.88	229.49
810.20	229.48
810.52	229.49
810.84	229.43
811.16	229.39
811.48	229.37
811.80	229.38
812.12	229.35
812.43	229.33
812.75	229.33
813.07	229.32
813.39	229.38
813.71	229.32
814.03	229.29
814.35	229.24
814.67	229.15
814.98	229.13
815.30	229.09
815.62	229.09
815.94	228.99
816.26	228.98
816.58	228.92
816.89	228.90
817.21	228.83
817.53	228.81
817.85	228.78
818.17	228.74
818.48	228.67
818.80	228.68
819.12	228.64
819.44	228.58
819.76	228.49
820.07	228.42
820.39	228.45
820.71	228.42
821.03	228.43
821.34	228.42
821.66	228.40
821.98	228.39
822.30	228.40
822.61	228.45
822.93	228.37
823.25	228.36
823.57	228.35
823.88	228.36
824.20	228.31
824.52	228.32
824.83	228.35
825.15	228.34
825.47	228.32
825.79	228.33
826.10	228.33
826.42	228.37
826.74	228.39
827.05	228.32
827.37	228.32
827.69	228.32
828.00	228.30
828.32	228.29
828.64	228.27
828.95	228.26
829.27	228.24
829.58	228.27
829.90	228.30
830.22	228.29
830.53	228.28
830.85	228.31
831.17	228.26
831.48	228.23
831.80	228.23
832.11	228.18
832.43	228.13
832.75	228.11
833.06	228.15
833.38	228.12
833.69	228.16
834.01	228.14
834.32	228.16
834.64	228.13
834.96	228.16
835.27	228.17
835.59	228.15
835.90	228.14
836.22	228.14
836.53	228.08
836.85	228.08
837.16	228.19
837.48	228.20
837.79	228.26
838.11	228.27
838.42	228.27
838.74	228.32
839.05	228.36
839.37	228.35
839.68	228.29
840.00	228.26
840.31	228.25
840.63	228.26
840.94	228.24
841.26	228.26
841.57	228.22
841.88	228.24
842.20	228.23
842.51	228.19
842.83	228.18
843.14	228.26
843.46	228.26
843.77	228.18
844.08	228.16
844.40	228.11
844.71	228.09
845.03	228.07
845.34	228.03
845.65	228.01
845.97	228.05
846.28	228.05
846.60	228.07
846.91	228.07
847.22	228.06
847.54	228.06
847.85	228.05
848.16	228.07
848.48	228.02
848.79	228.03
849.10	228.08
849.42	228.09
849.73	228.02
850.04	228.02
850.36	227.97
850.67	227.99
850.98	227.97
851.30	227.97
851.61	227.96
851.92	227.96
852.23	227.97
852.55	227.94
852.86	227.90
853.17	227.90
853.49	227.89
853.80	227.89
854.11	227.90
854.42	227.94
854.74	227.88
855.05	227.88
855.36	227.81
855.67	227.75
855.99	227.72
856.30	227.81
856.61	227.77
856.92	227.75
857.23	227.70
857.55	227.69
857.86	227.67
858.17	227.69
858.48	227.70
858.79	227.68
859.11	227.66
859.42	227.67
859.73	227.64
860.04	227.62
860.35	227.56
860.66	227.52
860.98	227.51
861.29	227.55
861.60	227.55
861.91	227.59
862.22	227.60
862.53	227.57
862.84	227.46
863.16	227.51
863.47	227.52
863.78	227.52
864.09	227.53
864.40	227.54
864.71	227.53
865.02	227.52
865.33	227.48
865.64	227.47
865.95	227.49
866.27	227.51
866.58	227.51
866.89	227.56
867.20	227.54
867.51	227.52
867.82	227.50
868.13	227.52
868.44	227.50
868.75	227.52
869.06	227.56
869.37	227.57
869.68	227.57
869.99	227.58
870.30	227.63
870.61	227.66
870.92	227.63
871.23	227.62
871.54	227.61
871.85	227.67
872.16	227.71
872.47	227.68
872.78	227.65
873.09	227.68
873.40	227.67
873.71	227.72
874.02	227.70
874.33	227.72
874.64	227.73
874.95	227.76
875.26	227.77
875.56	227.77
875.87	227.75
876.18	227.74
876.49	227.85
876.80	227.83
877.11	227.82
877.42	227.84
877.73	227.85
878.04	227.87
878.35	227.84
878.66	227.82
878.96	227.87
879.27	227.87
879.58	227.90
879.89	227.88
880.20	227.88
880.51	227.90
880.82	227.88
881.12	227.87
881.43	227.83
881.74	227.81
882.05	227.79
882.36	227.80
882.67	227.82
882.97	227.68
883.28	227.65
883.59	227.64
883.90	227.64
884.21	227.64
884.51	227.63
884.82	227.63
885.13	227.62
885.44	227.58
885.74	227.58
886.05	227.53
886.36	227.53
886.67	227.48
886.98	227.52
887.28	227.51
887.59	227.47
887.90	227.47
888.20	227.42
888.51	227.47
888.82	227.45
889.13	227.43
889.43	227.52
889.74	227.51
890.05	227.47
890.35	227.47
890.66	227.42
890.97	227.42
891.28	227.39
891.58	227.39
891.89	227.37
892.20	227.38
892.50	227.34
892.81	227.35
893.12	227.34
893.42	227.27
893.73	227.30
894.04	227.30
894.34	227.29
894.65	227.29
894.95	227.24
895.26	227.22
895.57	227.25
895.87	227.13
896.18	227.11
896.48	227.13
896.79	227.10
897.10	227.14
897.40	227.13
897.71	227.15
898.01	227.14
898.32	227.13
898.63	227.11
898.93	227.15
899.24	227.15
899.54	227.15
899.85	227.14
900.15	227.11
900.46	227.14
900.76	227.16
901.07	227.17
901.38	227.15
901.68	227.16
901.99	227.10
902.29	227.12
902.60	227.11
902.90	227.09
903.21	227.08
903.51	227.09
903.82	227.11
904.12	227.11
904.43	227.10
904.73	227.14
905.03	227.15
905.34	227.21
905.64	227.18
905.95	227.19
906.25	227.19
906.56	227.18
906.86	227.20
907.17	227.19
907.47	227.22
907.77	227.22
908.08	227.22
908.38	227.21
908.69	227.22
908.99	227.28
909.30	227.32
909.60	227.31
909.90	227.31
910.21	227.26
910.51	227.24
910.81	227.24
911.12	227.25
911.42	227.25
911.73	227.21
912.03	227.21
912.33	227.22
912.64	227.25
912.94	227.26
913.24	227.20
913.55	227.24
913.85	227.22
914.15	227.25
914.46	227.28
914.76	227.31
915.06	227.33
915.37	227.30
915.67	227.30
915.97	227.32
916.27	227.32
916.58	227.33
916.88	227.33
917.18	227.34
917.49	227.42
917.79	227.42
918.09	227.41
918.39	227.49
918.70	227.51
919.00	227.48
919.30	227.54
919.60	227.55
919.91	227.49
920.21	227.49
920.51	227.48
920.81	227.45
921.12	227.45
921.42	227.43
921.72	227.43
922.02	227.40
922.32	227.42
922.63	227.42
922.93	227.48
923.23	227.50
923.53	227.47
923.83	227.35
924.13	227.34
924.44	227.33
924.74	227.32
925.04	227.32
925.34	227.34
925.64	227.26
925.94	227.26
926.24	227.32
926.55	227.31
926.85	227.29
927.15	227.30
927.45	227.30
927.75	227.32
928.05	227.31
928.35	227.31
928.65	227.33
928.95	227.32
929.26	227.27
929.56	227.28
929.86	227.30
930.16	227.31
930.46	227.28
930.76	227.27
931.06	227.21
931.36	227.19
931.66	227.18
931.96	227.16
932.26	227.15
932.56	227.12
932.86	227.12
933.16	227.14
933.46	227.10
933.76	227.06
934.06	227.09
934.36	227.11
934.66	227.12
934.96	227.06
935.26	227.09
935.56	227.09
935.86	227.07
936.16	227.05
936.46	227.04
936.76	227.06
937.06	227.01
937.36	227.00
937.66	226.97
937.96	226.99
938.26	226.96
938.56	226.98
938.86	226.97
939.16	226.96
939.46	226.98
939.76	227.01
940.06	227.02
940.35	227.00
940.65	226.96
940.95	226.95
941.25	226.91
941.55	226.87
941.85	226.91
942.15	226.92
942.45	226.95
942.75	226.97
943.04	226.97
943.34	227.03
943.64	227.01
943.94	227.05
944.24	227.01
944.54	227.02
944.84	227.01
945.13	227.02
945.43	227.03
945.73	226.98
946.03	226.99
946.33	227.01
946.62	226.96
946.92	226.98
947.22	226.97
947.52	227.03
947.82	227.02
948.11	226.97
948.41	226.96
948.71	226.94
949.01	226.93
949.31	226.89
949.60	226.88
949.90	226.92
950.20	226.92
950.50	226.96
950.79	226.96
951.09	227.01
951.39	226.99
951.69	227.01
951.98	227.03
952.28	227.02
952.58	227.03
952.87	227.04
953.17	227.05
953.47	227.09
953.76	227.08
954.06	227.08
954.36	227.10
954.66	227.10
954.95	227.13
955.25	227.15
955.55	227.19
955.84	227.19
956.14	227.18
956.44	227.16
956.73	227.18
957.03	227.19
957.32	227.17
957.62	227.18
957.92	227.19
958.21	227.21
958.51	227.31
958.81	227.32
959.10	227.35
959.40	227.38
959.69	227.40
959.99	227.41
960.29	227.44
960.58	227.43
960.88	227.45
961.17	227.44
961.47	227.45
961.76	227.46
962.06	227.46
962.36	227.48
962.65	227.51
962.95	227.49
963.24	227.48
963.54	227.48
963.83	227.48
964.13	227.46
964.42	227.41
964.72	227.33
965.01	227.33
965.31	227.33
965.60	227.28
965.90	227.35
966.19	227.34
966.49	227.30
966.78	227.29
967.08	227.27
967.37	227.28
967.67	227.26
967.96	227.24
968.26	227.22
968.55	227.26
968.85	227.23
969.14	227.21
969.43	227.22
969.73	227.19
970.02	227.18
970.32	227.17
970.61	227.18
970.91	227.13
971.20	227.06
971.49	227.03
971.79	227.05
972.08	226.91
972.38	226.90
972.67	226.88
972.96	226.87
973.26	226.86
973.55	226.88
973.85	226.88
974.14	226.83
974.43	226.82
974.73	226.74
975.02	226.70
975.31	226.70
975.61	226.67
975.90	226.69
976.19	226.69
976.49	226.70
976.78	226.70
977.07	226.67
977.37	226.69
977.66	226.69
977.95	226.69
978.24	226.72
978.54	226.74
978.83	226.73
979.12	226.72
979.42	226.71
979.71	226.64
980.00	226.65
980.29	226.72
980.59	226.71
980.88	226.78
981.17	226.79
981.46	226.78
981.76	226.78
982.05	226.80
982.34	226.76
982.63	226.74
982.93	226.77
983.22	226.84
983.51	226.85
983.80	226.86
984.09	226.84
984.39	226.83
984.68	226.81
984.97	226.84
985.26	226.88
985.55	226.92
985.85	226.93
986.14	226.91
986.43	226.88
986.72	226.91
987.01	226.86
987.30	226.89
987.59	226.91
987.89	226.94
988.18	226.90
988.47	226.93
988.76	226.95
989.05	226.93
989.34	226.90
989.63	226.94
989.92	226.94
990.22	226.96
990.51	226.97
990.80	226.99
991.09	227.00
991.38	226.97
991.67	226.97
991.96	226.98
992.25	227.00
992.54	227.03
992.83	227.00
993.12	227.01
993.41	227.03
993.70	227.06
993.99	227.07
994.28	227.09
994.58	227.10
994.87	227.07
995.16	227.09
995.45	227.08
995.74	227.05
996.03	227.09
996.32	227.10
996.61	227.13
996.90	227.10
997.19	227.13
997.48	227.13
997.77	227.13
998.06	227.14
998.34	227.10
998.63	227.08
998.92	227.11
999.21	227.09
999.50	227.10
999.79	227.06
1000.08	227.06
1000.37	227.08
1000.66	227.09
1000.95	227.12
1001.24	227.12
1001.53	227.17
1001.82	227.15
1002.11	227.09
1002.40	227.09
1002.68	227.07
1002.97	227.16
1003.26	227.15
1003.55	227.14
1003.84	227.13
1004.13	227.13
1004.42	227.16
1004.71	227.16
1004.99	227.15
1005.28	227.18
1005.57	227.16
1005.86	227.16
1006.15	227.14
1006.44	227.15
1006.72	227.14
1007.01	227.13
1007.30	227.15
1007.59	227.09
1007.88	227.08
1008.17	227.11
1008.45	227.09
1008.74	227.06
1009.03	226.99
1009.32	227.01
1009.60	227.00
1009.89	226.99
1010.18	226.94
1010.47	226.95
1010.76	226.94
1011.04	226.93
1011.33	226.94
1011.62	226.94
1011.91	226.95
1012.19	226.96
1012.48	226.91
1012.77	226.92
1013.05	226.94
1013.34	226.93
1013.63	226.94
1013.92	226.94
1014.20	226.95
1014.49	226.94
1014.78	227.00
1015.06	226.97
1015.35	226.95
1015.64	226.97
1015.92	226.96
1016.21	226.98
1016.50	226.98
1016.78	226.98
1017.07	226.99
1017.36	226.99
1017.64	226.97
1017.93	227.00
1018.22	227.00
1018.50	227.02
1018.79	227.00
1019.08	226.99
1019.36	226.98
1019.65	227.02
1019.93	227.06
1020.22	227.06
1020.51	227.13
1020.79	227.12
1021.08	226.97
1021.36	226.81
1021.65	226.97
1021.94	226.89
1022.22	227.19
1022.51	227.62
1022.79	227.46
1023.08	227.04
1023.36	228.30
1023.65	227.31
>>>>>End Processed Spectral Data<<<<<
