SpectraSuite Data File
++++++++++++++++++++++++++++++++++++
Date: Fri Feb 01 15:12:58 EST 2013
User: group
Dark Spectrum Present: No
Reference Spectrum Present: No
Number of Sampled Component Spectra: 1
Spectrometers: USB2E7196
Integration Time (usec): 35000 (USB2E7196)
Spectra Averaged: 100 (USB2E7196)
Boxcar Smoothing: 10 (USB2E7196)
Correct for Electrical Dark: No (USB2E7196)
Strobe/Lamp Enabled: No (USB2E7196)
Correct for Detector Non-linearity: No (USB2E7196)
Correct for Stray Light: No (USB2E7196)
Number of Pixels in Processed Spectrum: 2048
>>>>>Begin Processed Spectral Data<<<<<
339.09	0.00
339.48	215.01
339.86	216.66
340.24	217.88
340.63	219.36
341.01	221.97
341.39	222.42
341.78	223.74
342.16	224.53
342.54	224.73
342.93	213.48
343.31	224.27
343.69	224.84
344.07	225.32
344.46	225.75
344.84	226.13
345.22	226.36
345.60	226.60
345.99	226.77
346.37	226.87
346.75	227.02
347.13	227.09
347.52	227.13
347.90	227.22
348.28	227.28
348.66	227.34
349.05	227.32
349.43	227.37
349.81	227.41
350.19	227.44
350.57	227.49
350.96	227.53
351.34	227.60
351.72	227.67
352.10	227.74
352.48	227.80
352.87	227.86
353.25	227.93
353.63	227.98
354.01	228.05
354.39	228.16
354.77	228.20
355.15	228.31
355.54	228.38
355.92	228.43
356.30	228.49
356.68	228.60
357.06	228.66
357.44	228.72
357.82	228.79
358.20	228.87
358.58	228.96
358.97	229.02
359.35	229.08
359.73	229.12
360.11	229.17
360.49	229.23
360.87	229.25
361.25	229.32
361.63	229.37
362.01	229.39
362.39	229.40
362.77	229.45
363.15	229.48
363.53	229.51
363.91	229.51
364.29	229.51
364.67	229.43
365.05	229.45
365.43	229.46
365.81	229.48
366.19	229.49
366.57	229.50
366.95	229.51
367.33	229.51
367.71	229.50
368.09	229.52
368.47	229.49
368.85	229.46
369.23	229.44
369.61	229.40
369.99	229.42
370.37	229.41
370.75	229.42
371.13	229.34
371.51	229.28
371.89	229.26
372.27	229.22
372.65	229.18
373.03	229.14
373.41	229.07
373.78	229.01
374.16	228.93
374.54	228.82
374.92	228.74
375.30	228.70
375.68	228.62
376.06	228.54
376.44	228.47
376.82	228.41
377.19	228.35
377.57	228.30
377.95	228.19
378.33	228.13
378.71	227.98
379.09	227.92
379.47	227.89
379.84	227.79
380.22	227.71
380.60	227.61
380.98	227.53
381.36	227.46
381.73	227.36
382.11	227.25
382.49	227.21
382.87	227.12
383.25	227.06
383.62	227.14
384.00	227.04
384.38	226.97
384.76	226.91
385.13	226.86
385.51	226.78
385.89	226.73
386.27	226.68
386.64	226.65
387.02	226.62
387.40	226.54
387.78	226.55
388.15	226.53
388.53	226.51
388.91	226.49
389.29	226.47
389.66	226.46
390.04	226.47
390.42	226.44
390.79	226.46
391.17	226.41
391.55	226.27
391.92	226.26
392.30	226.30
392.68	226.32
393.05	226.33
393.43	226.36
393.81	226.37
394.18	226.36
394.56	226.40
394.94	226.44
395.31	226.48
395.69	226.53
396.06	226.57
396.44	226.64
396.82	226.66
397.19	226.75
397.57	226.78
397.95	226.82
398.32	226.91
398.70	226.97
399.07	227.09
399.45	227.17
399.82	227.25
400.20	227.31
400.58	227.39
400.95	227.44
401.33	227.55
401.70	227.72
402.08	227.83
402.45	227.94
402.83	228.04
403.20	228.16
403.58	228.24
403.95	228.36
404.33	228.50
404.71	228.65
405.08	228.83
405.46	229.00
405.83	229.19
406.21	229.30
406.58	229.47
406.96	229.63
407.33	229.79
407.70	230.00
408.08	230.25
408.45	230.48
408.83	230.73
409.20	230.89
409.58	231.07
409.95	231.32
410.33	231.57
410.70	231.84
411.08	232.14
411.45	232.45
411.82	232.74
412.20	233.11
412.57	233.52
412.95	233.81
413.32	234.21
413.69	234.59
414.07	235.05
414.44	235.51
414.82	235.95
415.19	236.50
415.56	237.08
415.94	237.65
416.31	238.30
416.68	238.91
417.06	239.66
417.43	240.35
417.81	241.09
418.18	241.89
418.55	242.70
418.93	243.59
419.30	244.48
419.67	245.44
420.04	246.36
420.42	247.35
420.79	248.52
421.16	249.65
421.54	250.87
421.91	252.09
422.28	253.35
422.66	254.71
423.03	256.04
423.40	257.37
423.77	258.75
424.15	260.17
424.52	261.68
424.89	263.30
425.26	264.86
425.64	266.34
426.01	267.88
426.38	269.59
426.75	271.25
427.13	273.00
427.50	274.80
427.87	276.66
428.24	278.52
428.61	280.24
428.99	282.22
429.36	284.33
429.73	286.37
430.10	288.38
430.47	290.49
430.85	292.61
431.22	294.82
431.59	297.19
431.96	299.46
432.33	301.96
432.70	304.35
433.08	307.16
433.45	309.81
433.82	312.47
434.19	315.35
434.56	318.18
434.93	320.81
435.30	323.47
435.68	326.40
436.05	329.29
436.42	332.11
436.79	334.61
437.16	337.32
437.53	340.20
437.90	343.01
438.27	345.73
438.64	348.50
439.01	351.12
439.38	353.35
439.75	355.53
440.13	358.03
440.50	360.35
440.87	362.21
441.24	364.13
441.61	366.29
441.98	367.77
442.35	369.55
442.72	371.41
443.09	373.22
443.46	374.20
443.83	374.74
444.20	375.21
444.57	376.05
444.94	376.29
445.31	376.61
445.68	376.99
446.05	377.08
446.42	376.74
446.79	376.31
447.16	375.88
447.53	375.52
447.90	374.38
448.27	373.22
448.64	371.61
449.01	370.47
449.37	368.46
449.74	366.53
450.11	364.27
450.48	361.81
450.85	359.23
451.22	357.11
451.59	355.10
451.96	353.21
452.33	350.57
452.70	348.20
453.07	345.34
453.43	342.41
453.80	339.61
454.17	336.90
454.54	334.33
454.91	331.59
455.28	328.93
455.65	326.38
456.02	323.94
456.38	321.78
456.75	319.15
457.12	316.89
457.49	314.67
457.86	312.47
458.23	310.57
458.59	308.54
458.96	306.44
459.33	304.59
459.70	302.70
460.07	301.23
460.43	299.52
460.80	297.93
461.17	296.49
461.54	295.03
461.91	293.59
462.27	292.16
462.64	290.91
463.01	289.53
463.38	288.22
463.74	286.84
464.11	285.67
464.48	284.62
464.85	283.54
465.21	282.67
465.58	281.79
465.95	280.71
466.32	279.80
466.68	278.86
467.05	277.97
467.42	277.09
467.78	276.15
468.15	275.27
468.52	274.59
468.88	273.73
469.25	272.92
469.62	272.34
469.98	271.64
470.35	270.99
470.72	270.40
471.08	269.78
471.45	269.21
471.82	268.65
472.18	268.03
472.55	267.56
472.92	267.08
473.28	266.57
473.65	266.09
474.02	265.63
474.38	265.26
474.75	264.92
475.11	264.53
475.48	264.27
475.85	264.07
476.21	263.79
476.58	263.57
476.94	263.43
477.31	263.26
477.67	263.11
478.04	263.02
478.41	262.95
478.77	262.96
479.14	262.89
479.50	262.93
479.87	263.00
480.23	263.07
480.60	263.10
480.96	263.22
481.33	263.44
481.69	263.65
482.06	263.84
482.42	263.99
482.79	264.29
483.15	264.59
483.52	264.98
483.88	265.35
484.25	265.77
484.61	266.19
484.98	266.66
485.34	267.24
485.71	267.83
486.07	268.46
486.44	269.02
486.80	269.78
487.17	270.47
487.53	271.27
487.90	272.12
488.26	273.09
488.62	274.02
488.99	275.01
489.35	276.02
489.72	277.15
490.08	278.37
490.44	279.57
490.81	280.89
491.17	282.22
491.54	283.72
491.90	285.27
492.26	286.90
492.63	288.63
492.99	290.38
493.36	292.27
493.72	294.29
494.08	296.40
494.45	298.63
494.81	301.02
495.17	303.46
495.54	306.01
495.90	308.67
496.26	311.48
496.63	314.48
496.99	317.60
497.35	320.85
497.72	324.20
498.08	327.75
498.44	331.37
498.80	335.30
499.17	339.33
499.53	343.44
499.89	347.83
500.26	352.28
500.62	356.98
500.98	361.92
501.34	366.98
501.71	372.23
502.07	377.64
502.43	383.24
502.79	389.07
503.16	395.17
503.52	401.39
503.88	407.83
504.24	414.39
504.60	421.30
504.97	428.39
505.33	435.75
505.69	443.42
506.05	451.21
506.41	458.99
506.78	467.14
507.14	475.58
507.50	484.24
507.86	493.25
508.22	502.42
508.59	511.58
508.95	521.20
509.31	531.01
509.67	541.09
510.03	551.32
510.39	561.83
510.75	572.57
511.12	583.52
511.48	594.79
511.84	606.22
512.20	617.69
512.56	629.63
512.92	641.80
513.28	654.13
513.64	666.61
514.00	679.38
514.37	692.33
514.73	705.49
515.09	718.59
515.45	731.87
515.81	745.44
516.17	759.48
516.53	773.55
516.89	787.76
517.25	801.93
517.61	816.37
517.97	830.79
518.33	845.32
518.69	860.26
519.05	875.34
519.41	890.64
519.77	906.21
520.13	921.77
520.49	937.19
520.85	952.64
521.21	968.48
521.57	984.82
521.93	1000.53
522.29	1016.91
522.65	1033.23
523.01	1049.54
523.37	1065.65
523.73	1081.87
524.09	1097.97
524.45	1114.43
524.81	1131.29
525.17	1148.25
525.53	1165.45
525.89	1182.38
526.25	1199.17
526.61	1215.58
526.97	1232.26
527.33	1248.88
527.68	1265.51
528.04	1282.08
528.40	1298.80
528.76	1315.86
529.12	1332.48
529.48	1349.53
529.84	1365.64
530.20	1382.28
530.56	1399.37
530.91	1416.89
531.27	1433.74
531.63	1450.27
531.99	1466.98
532.35	1482.86
532.71	1498.74
533.07	1514.87
533.42	1530.74
533.78	1546.80
534.14	1563.08
534.50	1578.56
534.86	1594.54
535.21	1609.78
535.57	1625.76
535.93	1641.28
536.29	1656.30
536.65	1671.49
537.00	1686.27
537.36	1701.67
537.72	1716.33
538.08	1730.89
538.44	1744.70
538.79	1758.67
539.15	1772.75
539.51	1786.40
539.87	1800.99
540.22	1814.99
540.58	1829.02
540.94	1842.63
541.29	1855.77
541.65	1868.58
542.01	1881.94
542.37	1894.31
542.72	1906.86
543.08	1918.65
543.44	1931.11
543.79	1942.25
544.15	1953.35
544.51	1965.08
544.87	1976.08
545.22	1986.89
545.58	1997.08
545.94	2007.00
546.29	2016.95
546.65	2026.59
547.01	2035.90
547.36	2044.61
547.72	2053.02
548.07	2060.73
548.43	2068.94
548.79	2076.97
549.14	2084.58
549.50	2091.95
549.86	2099.73
550.21	2107.09
550.57	2114.35
550.92	2120.88
551.28	2127.93
551.64	2134.89
551.99	2141.57
552.35	2147.68
552.70	2153.80
553.06	2159.72
553.41	2166.02
553.77	2172.06
554.13	2178.22
554.48	2184.43
554.84	2189.76
555.19	2194.99
555.55	2200.14
555.90	2204.50
556.26	2209.35
556.61	2214.08
556.97	2218.28
557.32	2222.31
557.68	2226.46
558.03	2230.87
558.39	2234.72
558.74	2239.41
559.10	2243.20
559.45	2246.67
559.81	2251.10
560.16	2254.97
560.52	2258.39
560.87	2261.75
561.23	2264.38
561.58	2267.24
561.94	2269.90
562.29	2272.35
562.64	2274.97
563.00	2277.65
563.35	2281.17
563.71	2284.26
564.06	2287.45
564.42	2290.34
564.77	2292.65
565.12	2294.66
565.48	2296.34
565.83	2298.06
566.19	2299.33
566.54	2300.31
566.89	2301.36
567.25	2301.81
567.60	2303.15
567.96	2304.58
568.31	2305.39
568.66	2306.41
569.02	2306.92
569.37	2306.97
569.72	2307.66
570.08	2307.67
570.43	2307.55
570.78	2306.73
571.14	2304.96
571.49	2303.64
571.84	2303.14
572.20	2301.93
572.55	2300.92
572.90	2299.38
573.26	2297.93
573.61	2296.19
573.96	2294.31
574.31	2291.22
574.67	2288.06
575.02	2284.22
575.37	2280.79
575.72	2276.74
576.08	2273.34
576.43	2269.94
576.78	2266.19
577.13	2263.00
577.49	2259.86
577.84	2256.26
578.19	2252.66
578.54	2248.92
578.90	2244.42
579.25	2238.84
579.60	2233.67
579.95	2228.53
580.30	2223.41
580.66	2218.11
581.01	2212.94
581.36	2207.93
581.71	2203.62
582.06	2199.12
582.42	2194.57
582.77	2189.22
583.12	2184.50
583.47	2179.58
583.82	2174.34
584.17	2168.98
584.53	2163.35
584.88	2157.67
585.23	2151.71
585.58	2146.08
585.93	2140.66
586.28	2135.91
586.63	2130.77
586.98	2125.78
587.34	2121.12
587.69	2116.12
588.04	2110.73
588.39	2104.96
588.74	2098.29
589.09	2092.20
589.44	2085.30
589.79	2079.28
590.14	2073.63
590.49	2067.09
590.84	2060.78
591.19	2054.74
591.54	2048.25
591.89	2040.64
592.25	2033.76
592.60	2026.58
592.95	2018.77
593.30	2011.26
593.65	2003.42
594.00	1996.29
594.35	1989.00
594.70	1980.68
595.05	1973.28
595.40	1966.00
595.75	1958.52
596.10	1952.27
596.45	1945.27
596.80	1938.95
597.15	1932.17
597.50	1924.90
597.85	1918.48
598.19	1911.60
598.54	1904.33
598.89	1897.61
599.24	1891.90
599.59	1885.10
599.94	1878.85
600.29	1872.50
600.64	1865.93
600.99	1858.44
601.34	1851.38
601.69	1844.37
602.04	1837.40
602.39	1829.94
602.74	1823.03
603.08	1816.23
603.43	1809.55
603.78	1802.29
604.13	1795.06
604.48	1787.70
604.83	1780.80
605.18	1773.76
605.53	1765.78
605.87	1757.77
606.22	1750.55
606.57	1742.43
606.92	1735.15
607.27	1727.83
607.62	1720.96
607.96	1713.63
608.31	1707.00
608.66	1699.46
609.01	1691.91
609.36	1684.43
609.70	1676.58
610.05	1668.45
610.40	1660.62
610.75	1652.20
611.10	1644.60
611.44	1636.23
611.79	1628.24
612.14	1619.66
612.49	1610.56
612.83	1602.28
613.18	1594.30
613.53	1586.16
613.88	1577.65
614.22	1569.35
614.57	1560.87
614.92	1552.91
615.27	1545.21
615.61	1536.93
615.96	1528.96
616.31	1521.29
616.65	1513.96
617.00	1506.43
617.35	1498.81
617.70	1490.45
618.04	1481.98
618.39	1473.68
618.74	1466.04
619.08	1457.66
619.43	1450.00
619.78	1442.93
620.12	1435.56
620.47	1427.98
620.82	1419.82
621.16	1412.52
621.51	1404.87
621.85	1397.25
622.20	1388.57
622.55	1380.47
622.89	1372.55
623.24	1364.91
623.59	1357.56
623.93	1349.99
624.28	1342.68
624.62	1335.11
624.97	1327.99
625.32	1321.12
625.66	1314.16
626.01	1306.96
626.35	1299.61
626.70	1291.87
627.04	1284.17
627.39	1276.48
627.73	1269.03
628.08	1262.13
628.43	1254.70
628.77	1247.28
629.12	1239.66
629.46	1232.54
629.81	1225.01
630.15	1217.76
630.50	1210.37
630.84	1202.16
631.19	1194.25
631.53	1186.78
631.88	1179.27
632.22	1171.73
632.57	1164.54
632.91	1157.03
633.26	1149.67
633.60	1142.37
633.95	1135.45
634.29	1128.55
634.64	1121.93
634.98	1114.59
635.32	1107.44
635.67	1100.93
636.01	1094.33
636.36	1087.55
636.70	1081.13
637.05	1074.59
637.39	1068.30
637.73	1061.80
638.08	1055.94
638.42	1050.02
638.77	1043.52
639.11	1036.94
639.45	1030.51
639.80	1023.85
640.14	1017.30
640.49	1010.79
640.83	1004.51
641.17	998.23
641.52	991.92
641.86	985.53
642.20	979.72
642.55	973.42
642.89	966.87
643.23	960.47
643.58	954.69
643.92	948.44
644.26	942.29
644.61	936.17
644.95	930.05
645.29	923.45
645.64	916.74
645.98	910.45
646.32	904.64
646.66	898.68
647.01	892.91
647.35	887.30
647.69	881.52
648.04	875.97
648.38	870.14
648.72	864.08
649.06	858.03
649.41	852.15
649.75	846.15
650.09	840.23
650.43	834.33
650.78	828.28
651.12	822.31
651.46	816.65
651.80	810.87
652.14	805.61
652.49	800.24
652.83	795.10
653.17	789.43
653.51	783.74
653.85	778.32
654.20	772.71
654.54	766.70
654.88	760.97
655.22	755.11
655.56	749.39
655.90	743.92
656.25	738.69
656.59	733.40
656.93	728.34
657.27	723.19
657.61	717.82
657.95	712.69
658.29	707.65
658.64	702.45
658.98	697.30
659.32	691.83
659.66	686.67
660.00	681.31
660.34	676.43
660.68	671.55
661.02	666.57
661.36	661.89
661.70	657.44
662.05	653.06
662.39	648.75
662.73	644.35
663.07	640.06
663.41	635.60
663.75	631.04
664.09	626.56
664.43	622.24
664.77	618.07
665.11	613.81
665.45	609.67
665.79	605.63
666.13	601.46
666.47	597.42
666.81	593.21
667.15	589.10
667.49	585.16
667.83	581.37
668.17	577.43
668.51	573.36
668.85	569.39
669.19	565.58
669.53	561.73
669.87	557.86
670.21	554.15
670.55	550.49
670.89	547.11
671.23	543.64
671.57	540.13
671.91	536.67
672.25	533.25
672.58	529.75
672.92	526.32
673.26	523.14
673.60	520.06
673.94	517.02
674.28	514.12
674.62	511.27
674.96	508.16
675.30	505.27
675.64	502.36
675.97	499.59
676.31	496.67
676.65	493.74
676.99	491.03
677.33	488.17
677.67	485.36
678.01	482.32
678.34	479.38
678.68	476.58
679.02	473.75
679.36	471.00
679.70	468.34
680.04	465.59
680.37	462.80
680.71	459.98
681.05	457.35
681.39	454.72
681.73	452.08
682.06	449.54
682.40	447.01
682.74	444.49
683.08	441.95
683.42	439.42
683.75	436.94
684.09	434.41
684.43	431.97
684.77	429.54
685.10	427.23
685.44	424.92
685.78	422.64
686.12	420.46
686.45	418.18
686.79	415.86
687.13	413.71
687.46	411.51
687.80	409.38
688.14	407.21
688.48	405.10
688.81	402.82
689.15	400.71
689.49	398.58
689.82	396.54
690.16	394.43
690.50	392.49
690.83	390.58
691.17	388.60
691.51	386.72
691.84	384.85
692.18	382.89
692.52	380.89
692.85	378.97
693.19	377.05
693.52	375.19
693.86	373.37
694.20	371.61
694.53	369.83
694.87	367.94
695.21	366.13
695.54	364.33
695.88	362.66
696.21	360.88
696.55	359.15
696.88	357.43
697.22	355.83
697.56	354.18
697.89	352.51
698.23	350.89
698.56	349.23
698.90	347.62
699.23	345.96
699.57	344.43
699.90	342.84
700.24	341.30
700.58	339.77
700.91	338.27
701.25	336.78
701.58	335.43
701.92	334.07
702.25	332.69
702.59	331.28
702.92	329.91
703.26	328.66
703.59	327.40
703.93	326.26
704.26	324.96
704.60	323.65
704.93	322.35
705.26	321.11
705.60	319.96
705.93	318.82
706.27	317.81
706.60	316.81
706.94	315.77
707.27	314.65
707.61	313.56
707.94	312.57
708.27	311.49
708.61	310.38
708.94	309.39
709.28	308.40
709.61	307.48
709.94	306.56
710.28	305.57
710.61	304.58
710.95	303.49
711.28	302.63
711.61	301.74
711.95	300.86
712.28	299.92
712.61	298.97
712.95	298.02
713.28	297.19
713.61	296.27
713.95	295.37
714.28	294.56
714.61	293.78
714.95	292.95
715.28	292.13
715.61	291.25
715.95	290.38
716.28	289.54
716.61	288.74
716.95	287.93
717.28	287.15
717.61	286.38
717.94	285.67
718.28	284.85
718.61	284.14
718.94	283.49
719.27	282.81
719.61	282.19
719.94	281.59
720.27	280.83
720.60	280.15
720.94	279.52
721.27	278.92
721.60	278.32
721.93	277.73
722.27	277.19
722.60	276.68
722.93	276.17
723.26	275.65
723.59	275.09
723.93	274.53
724.26	274.02
724.59	273.49
724.92	273.00
725.25	272.48
725.59	271.97
725.92	271.45
726.25	271.00
726.58	270.49
726.91	269.94
727.24	269.47
727.57	269.04
727.91	268.56
728.24	268.07
728.57	267.55
728.90	267.07
729.23	266.53
729.56	266.09
729.89	265.62
730.22	265.13
730.55	264.66
730.89	264.22
731.22	263.75
731.55	263.29
731.88	262.80
732.21	262.36
732.54	261.87
732.87	261.46
733.20	261.04
733.53	260.65
733.86	260.32
734.19	259.95
734.52	259.55
734.85	259.21
735.18	258.81
735.51	258.44
735.84	258.07
736.17	257.75
736.50	257.31
736.83	257.02
737.16	256.68
737.49	256.32
737.82	255.96
738.15	255.66
738.48	255.30
738.81	254.99
739.14	254.67
739.47	254.36
739.80	254.02
740.13	253.68
740.46	253.30
740.79	252.94
741.12	252.58
741.45	252.24
741.78	251.89
742.11	251.61
742.44	251.28
742.77	250.95
743.10	250.64
743.43	250.35
743.75	250.00
744.08	249.79
744.41	249.53
744.74	249.26
745.07	248.96
745.40	248.73
745.73	248.47
746.06	248.20
746.39	247.95
746.71	247.68
747.04	247.43
747.37	247.21
747.70	246.97
748.03	246.73
748.36	246.53
748.68	246.28
749.01	246.01
749.34	245.77
749.67	245.58
750.00	245.35
750.33	245.23
750.65	245.00
750.98	244.68
751.31	244.47
751.64	244.29
751.97	244.12
752.29	243.93
752.62	243.71
752.95	243.53
753.28	243.33
753.60	243.12
753.93	242.96
754.26	242.78
754.59	242.56
754.91	242.38
755.24	242.20
755.57	242.03
755.90	241.88
756.22	241.72
756.55	241.51
756.88	241.34
757.20	241.10
757.53	240.93
757.86	240.80
758.19	240.63
758.51	240.45
758.84	240.28
759.17	240.09
759.49	239.95
759.82	239.83
760.15	239.71
760.47	239.57
760.80	239.42
761.13	239.27
761.45	239.14
761.78	239.01
762.11	238.89
762.43	238.74
762.76	238.60
763.08	238.50
763.41	238.41
763.74	238.28
764.06	238.13
764.39	237.98
764.71	237.83
765.04	237.68
765.37	237.54
765.69	237.37
766.02	237.25
766.34	237.12
766.67	236.98
767.00	236.86
767.32	236.80
767.65	236.71
767.97	236.60
768.30	236.50
768.62	236.41
768.95	236.26
769.27	236.16
769.60	236.06
769.92	235.90
770.25	235.75
770.57	235.65
770.90	235.56
771.22	235.49
771.55	235.38
771.87	235.28
772.20	235.17
772.52	235.17
772.85	235.19
773.17	235.11
773.50	234.99
773.82	234.90
774.15	234.75
774.47	234.61
774.80	234.51
775.12	234.41
775.45	234.30
775.77	234.22
776.09	234.15
776.42	234.06
776.74	234.03
777.07	233.93
777.39	233.84
777.72	233.77
778.04	233.68
778.36	233.60
778.69	233.55
779.01	233.48
779.33	233.32
779.66	233.13
779.98	233.02
780.31	232.94
780.63	232.90
780.95	232.84
781.28	232.78
781.60	232.73
781.92	232.62
782.25	232.56
782.57	232.49
782.89	232.43
783.22	232.35
783.54	232.28
783.86	232.25
784.19	232.19
784.51	232.15
784.83	232.08
785.16	232.00
785.48	231.96
785.80	231.93
786.12	231.91
786.45	231.84
786.77	231.81
787.09	231.77
787.42	231.69
787.74	231.69
788.06	231.65
788.38	231.57
788.71	231.56
789.03	231.50
789.35	231.46
789.67	231.38
789.99	231.35
790.32	231.28
790.64	231.21
790.96	231.27
791.28	231.20
791.61	231.19
791.93	231.20
792.25	231.19
792.57	231.21
792.89	231.12
793.21	231.12
793.54	231.06
793.86	231.01
794.18	230.98
794.50	230.91
794.82	230.88
795.14	230.86
795.47	230.83
795.79	230.83
796.11	230.77
796.43	230.78
796.75	230.74
797.07	230.76
797.39	230.74
797.71	230.67
798.04	230.66
798.36	230.64
798.68	230.59
799.00	230.57
799.32	230.52
799.64	230.54
799.96	230.51
800.28	230.49
800.60	230.48
800.92	230.46
801.24	230.41
801.56	230.40
801.89	230.36
802.21	230.34
802.53	230.29
802.85	230.31
803.17	230.31
803.49	230.26
803.81	230.20
804.13	230.16
804.45	230.09
804.77	230.04
805.09	230.00
805.41	229.96
805.73	229.89
806.05	229.86
806.37	229.81
806.69	229.82
807.01	229.81
807.33	229.79
807.65	229.76
807.97	229.79
808.28	229.77
808.60	229.76
808.92	229.75
809.24	229.82
809.56	229.75
809.88	229.65
810.20	229.64
810.52	229.64
810.84	229.60
811.16	229.60
811.48	229.59
811.80	229.61
812.12	229.60
812.43	229.60
812.75	229.56
813.07	229.55
813.39	229.49
813.71	229.45
814.03	229.41
814.35	229.38
814.67	229.29
814.98	229.23
815.30	229.18
815.62	229.13
815.94	229.02
816.26	229.08
816.58	229.08
816.89	229.06
817.21	229.01
817.53	229.02
817.85	228.97
818.17	228.94
818.48	228.85
818.80	228.84
819.12	228.83
819.44	228.80
819.76	228.77
820.07	228.71
820.39	228.68
820.71	228.69
821.03	228.64
821.34	228.61
821.66	228.64
821.98	228.64
822.30	228.61
822.61	228.61
822.93	228.52
823.25	228.47
823.57	228.49
823.88	228.48
824.20	228.43
824.52	228.43
824.83	228.40
825.15	228.38
825.47	228.39
825.79	228.34
826.10	228.31
826.42	228.27
826.74	228.30
827.05	228.28
827.37	228.24
827.69	228.23
828.00	228.21
828.32	228.17
828.64	228.17
828.95	228.18
829.27	228.16
829.58	228.15
829.90	228.18
830.22	228.15
830.53	228.14
830.85	228.13
831.17	228.11
831.48	228.09
831.80	228.07
832.11	228.04
832.43	228.01
832.75	227.99
833.06	228.05
833.38	228.02
833.69	228.01
834.01	228.04
834.32	228.08
834.64	228.11
834.96	228.11
835.27	228.10
835.59	228.09
835.90	228.08
836.22	228.07
836.53	228.05
836.85	228.04
837.16	228.14
837.48	228.15
837.79	228.17
838.11	228.18
838.42	228.20
838.74	228.21
839.05	228.20
839.37	228.21
839.68	228.11
840.00	228.08
840.31	228.10
840.63	228.05
840.94	228.01
841.26	227.96
841.57	227.97
841.88	227.96
842.20	227.96
842.51	227.96
842.83	227.97
843.14	228.06
843.46	228.06
843.77	227.99
844.08	227.97
844.40	227.95
844.71	227.96
845.03	227.96
845.34	227.94
845.65	227.97
845.97	227.95
846.28	227.97
846.60	227.99
846.91	227.98
847.22	227.99
847.54	228.00
847.85	228.02
848.16	228.01
848.48	227.98
848.79	228.01
849.10	228.01
849.42	228.03
849.73	227.94
850.04	227.94
850.36	227.92
850.67	227.92
850.98	227.89
851.30	227.92
851.61	227.91
851.92	227.89
852.23	227.91
852.55	227.94
852.86	227.95
853.17	227.94
853.49	227.98
853.80	228.00
854.11	228.01
854.42	228.01
854.74	227.98
855.05	228.00
855.36	227.92
855.67	227.90
855.99	227.87
856.30	227.98
856.61	227.97
856.92	227.97
857.23	227.99
857.55	228.00
857.86	227.93
858.17	227.93
858.48	227.91
858.79	227.87
859.11	227.86
859.42	227.89
859.73	227.91
860.04	227.89
860.35	227.84
860.66	227.81
860.98	227.83
861.29	227.86
861.60	227.84
861.91	227.86
862.22	227.87
862.53	227.87
862.84	227.75
863.16	227.74
863.47	227.70
863.78	227.66
864.09	227.67
864.40	227.70
864.71	227.70
865.02	227.71
865.33	227.72
865.64	227.70
865.95	227.65
866.27	227.71
866.58	227.70
866.89	227.75
867.20	227.76
867.51	227.72
867.82	227.71
868.13	227.73
868.44	227.73
868.75	227.74
869.06	227.74
869.37	227.76
869.68	227.75
869.99	227.77
870.30	227.78
870.61	227.76
870.92	227.75
871.23	227.73
871.54	227.75
871.85	227.73
872.16	227.75
872.47	227.74
872.78	227.67
873.09	227.67
873.40	227.66
873.71	227.65
874.02	227.62
874.33	227.61
874.64	227.62
874.95	227.61
875.26	227.56
875.56	227.58
875.87	227.57
876.18	227.56
876.49	227.66
876.80	227.67
877.11	227.68
877.42	227.70
877.73	227.71
878.04	227.71
878.35	227.72
878.66	227.73
878.96	227.74
879.27	227.74
879.58	227.72
879.89	227.71
880.20	227.75
880.51	227.75
880.82	227.76
881.12	227.74
881.43	227.69
881.74	227.65
882.05	227.62
882.36	227.62
882.67	227.62
882.97	227.52
883.28	227.48
883.59	227.43
883.90	227.44
884.21	227.44
884.51	227.40
884.82	227.38
885.13	227.37
885.44	227.34
885.74	227.32
886.05	227.30
886.36	227.29
886.67	227.23
886.98	227.30
887.28	227.27
887.59	227.30
887.90	227.32
888.20	227.33
888.51	227.36
888.82	227.32
889.13	227.33
889.43	227.39
889.74	227.42
890.05	227.42
890.35	227.38
890.66	227.37
890.97	227.35
891.28	227.37
891.58	227.35
891.89	227.34
892.20	227.31
892.50	227.31
892.81	227.31
893.12	227.31
893.42	227.27
893.73	227.26
894.04	227.21
894.34	227.24
894.65	227.24
894.95	227.23
895.26	227.23
895.57	227.26
895.87	227.16
896.18	227.17
896.48	227.16
896.79	227.15
897.10	227.12
897.40	227.15
897.71	227.13
898.01	227.10
898.32	227.11
898.63	227.15
898.93	227.17
899.24	227.13
899.54	227.10
899.85	227.07
900.15	227.08
900.46	227.12
900.76	227.08
901.07	227.10
901.38	227.09
901.68	227.10
901.99	227.04
902.29	227.03
902.60	227.03
902.90	227.00
903.21	227.02
903.51	227.04
903.82	227.05
904.12	227.03
904.43	227.05
904.73	227.06
905.03	227.04
905.34	227.11
905.64	227.11
905.95	227.12
906.25	227.14
906.56	227.15
906.86	227.09
907.17	227.12
907.47	227.12
907.77	227.10
908.08	227.10
908.38	227.09
908.69	227.11
908.99	227.08
909.30	227.12
909.60	227.10
909.90	227.10
910.21	227.09
910.51	227.11
910.81	227.14
911.12	227.14
911.42	227.15
911.73	227.07
912.03	227.10
912.33	227.12
912.64	227.11
912.94	227.10
913.24	227.16
913.55	227.13
913.85	227.12
914.15	227.16
914.46	227.17
914.76	227.18
915.06	227.19
915.37	227.21
915.67	227.19
915.97	227.19
916.27	227.18
916.58	227.19
916.88	227.19
917.18	227.16
917.49	227.24
917.79	227.25
918.09	227.26
918.39	227.28
918.70	227.32
919.00	227.33
919.30	227.37
919.60	227.33
919.91	227.34
920.21	227.35
920.51	227.34
920.81	227.33
921.12	227.34
921.42	227.34
921.72	227.34
922.02	227.38
922.32	227.42
922.63	227.43
922.93	227.52
923.23	227.54
923.53	227.54
923.83	227.47
924.13	227.47
924.44	227.47
924.74	227.50
925.04	227.48
925.34	227.49
925.64	227.46
925.94	227.45
926.24	227.52
926.55	227.50
926.85	227.47
927.15	227.46
927.45	227.48
927.75	227.48
928.05	227.49
928.35	227.47
928.65	227.49
928.95	227.50
929.26	227.43
929.56	227.41
929.86	227.40
930.16	227.35
930.46	227.31
930.76	227.31
931.06	227.25
931.36	227.24
931.66	227.22
931.96	227.22
932.26	227.22
932.56	227.15
932.86	227.16
933.16	227.17
933.46	227.17
933.76	227.14
934.06	227.16
934.36	227.19
934.66	227.14
934.96	227.11
935.26	227.11
935.56	227.12
935.86	227.11
936.16	227.13
936.46	227.13
936.76	227.15
937.06	227.14
937.36	227.13
937.66	227.12
937.96	227.14
938.26	227.13
938.56	227.14
938.86	227.17
939.16	227.17
939.46	227.17
939.76	227.18
940.06	227.18
940.35	227.16
940.65	227.10
940.95	227.13
941.25	227.09
941.55	227.08
941.85	227.05
942.15	227.06
942.45	227.08
942.75	227.09
943.04	227.08
943.34	227.11
943.64	227.12
943.94	227.09
944.24	227.09
944.54	227.06
944.84	227.05
945.13	227.01
945.43	227.03
945.73	227.03
946.03	227.04
946.33	227.02
946.62	227.01
946.92	227.03
947.22	227.03
947.52	227.04
947.82	227.05
948.11	227.05
948.41	227.05
948.71	227.03
949.01	227.05
949.31	227.03
949.60	227.04
949.90	227.06
950.20	227.08
950.50	227.07
950.79	227.08
951.09	227.13
951.39	227.13
951.69	227.11
951.98	227.15
952.28	227.16
952.58	227.19
952.87	227.20
953.17	227.19
953.47	227.19
953.76	227.18
954.06	227.17
954.36	227.17
954.66	227.15
954.95	227.14
955.25	227.13
955.55	227.17
955.84	227.14
956.14	227.14
956.44	227.14
956.73	227.12
957.03	227.10
957.32	227.08
957.62	227.07
957.92	227.08
958.21	227.03
958.51	227.11
958.81	227.08
959.10	227.08
959.40	227.10
959.69	227.10
959.99	227.11
960.29	227.11
960.58	227.11
960.88	227.18
961.17	227.16
961.47	227.23
961.76	227.20
962.06	227.23
962.36	227.23
962.65	227.21
962.95	227.21
963.24	227.23
963.54	227.25
963.83	227.27
964.13	227.28
964.42	227.26
964.72	227.21
965.01	227.25
965.31	227.23
965.60	227.22
965.90	227.27
966.19	227.24
966.49	227.27
966.78	227.26
967.08	227.23
967.37	227.25
967.67	227.17
967.96	227.20
968.26	227.19
968.55	227.20
968.85	227.25
969.14	227.25
969.43	227.24
969.73	227.21
970.02	227.21
970.32	227.21
970.61	227.21
970.91	227.17
971.20	227.15
971.49	227.17
971.79	227.18
972.08	227.13
972.38	227.14
972.67	227.14
972.96	227.19
973.26	227.17
973.55	227.19
973.85	227.19
974.14	227.17
974.43	227.16
974.73	227.15
975.02	227.13
975.31	227.15
975.61	227.14
975.90	227.13
976.19	227.12
976.49	227.12
976.78	227.14
977.07	227.16
977.37	227.17
977.66	227.18
977.95	227.18
978.24	227.22
978.54	227.24
978.83	227.23
979.12	227.19
979.42	227.19
979.71	227.18
980.00	227.18
980.29	227.19
980.59	227.20
980.88	227.19
981.17	227.21
981.46	227.20
981.76	227.20
982.05	227.23
982.34	227.24
982.63	227.23
982.93	227.24
983.22	227.25
983.51	227.24
983.80	227.26
984.09	227.27
984.39	227.21
984.68	227.18
984.97	227.20
985.26	227.20
985.55	227.23
985.85	227.20
986.14	227.19
986.43	227.16
986.72	227.13
987.01	227.12
987.30	227.11
987.59	227.08
987.89	227.11
988.18	227.07
988.47	227.01
988.76	227.00
989.05	226.97
989.34	226.97
989.63	227.00
989.92	226.96
990.22	226.93
990.51	226.97
990.80	226.94
991.09	226.90
991.38	226.91
991.67	226.85
991.96	226.86
992.25	226.89
992.54	226.93
992.83	226.94
993.12	226.95
993.41	226.94
993.70	226.97
993.99	226.98
994.28	227.01
994.58	227.09
994.87	227.09
995.16	227.12
995.45	227.07
995.74	227.00
996.03	227.04
996.32	227.06
996.61	227.02
996.90	227.02
997.19	227.06
997.48	227.05
997.77	227.09
998.06	227.07
998.34	227.06
998.63	227.04
998.92	227.04
999.21	227.06
999.50	227.03
999.79	227.01
1000.08	227.00
1000.37	226.97
1000.66	226.93
1000.95	226.96
1001.24	226.93
1001.53	226.96
1001.82	226.98
1002.11	226.93
1002.40	226.90
1002.68	226.99
1002.97	227.08
1003.26	227.07
1003.55	227.06
1003.84	227.05
1004.13	227.09
1004.42	227.07
1004.71	227.05
1004.99	227.03
1005.28	227.03
1005.57	227.07
1005.86	227.04
1006.15	227.02
1006.44	227.01
1006.72	227.03
1007.01	227.02
1007.30	227.02
1007.59	226.99
1007.88	226.99
1008.17	227.02
1008.45	227.04
1008.74	226.97
1009.03	226.92
1009.32	226.95
1009.60	226.93
1009.89	226.90
1010.18	226.88
1010.47	226.93
1010.76	226.93
1011.04	226.93
1011.33	226.97
1011.62	226.97
1011.91	226.99
1012.19	227.03
1012.48	227.06
1012.77	227.07
1013.05	227.09
1013.34	227.08
1013.63	227.07
1013.92	227.08
1014.20	227.08
1014.49	227.08
1014.78	227.08
1015.06	227.05
1015.35	227.02
1015.64	227.05
1015.92	227.11
1016.21	227.11
1016.50	227.08
1016.78	227.10
1017.07	227.12
1017.36	227.08
1017.64	227.05
1017.93	227.05
1018.22	227.03
1018.50	227.02
1018.79	227.00
1019.08	226.97
1019.36	227.00
1019.65	227.04
1019.93	227.05
1020.22	227.06
1020.51	227.09
1020.79	227.05
1021.08	226.87
1021.36	227.10
1021.65	226.97
1021.94	226.85
1022.22	227.30
1022.51	227.05
1022.79	227.13
1023.08	227.35
1023.36	227.87
1023.65	226.07
>>>>>End Processed Spectral Data<<<<<
