SpectraSuite Data File
++++++++++++++++++++++++++++++++++++
Date: Fri Feb 01 17:50:30 EST 2013
User: group
Dark Spectrum Present: No
Reference Spectrum Present: No
Number of Sampled Component Spectra: 1
Spectrometers: USB2E7196
Integration Time (usec): 35000 (USB2E7196)
Spectra Averaged: 100 (USB2E7196)
Boxcar Smoothing: 10 (USB2E7196)
Correct for Electrical Dark: No (USB2E7196)
Strobe/Lamp Enabled: No (USB2E7196)
Correct for Detector Non-linearity: No (USB2E7196)
Correct for Stray Light: No (USB2E7196)
Number of Pixels in Processed Spectrum: 2048
>>>>>Begin Processed Spectral Data<<<<<
339.09	0.00
339.48	213.18
339.86	213.87
340.24	215.65
340.63	216.92
341.01	219.58
341.39	219.89
341.78	221.50
342.16	222.36
342.54	223.25
342.93	211.29
343.31	221.94
343.69	222.46
344.07	222.95
344.46	223.36
344.84	223.73
345.22	223.98
345.60	224.24
345.99	224.42
346.37	224.53
346.75	224.62
347.13	224.73
347.52	224.78
347.90	224.87
348.28	224.88
348.66	224.90
349.05	224.88
349.43	224.90
349.81	224.94
350.19	224.98
350.57	225.10
350.96	225.17
351.34	225.26
351.72	225.35
352.10	225.43
352.48	225.50
352.87	225.58
353.25	225.63
353.63	225.67
354.01	225.74
354.39	225.82
354.77	225.90
355.15	225.96
355.54	226.03
355.92	226.07
356.30	226.16
356.68	226.28
357.06	226.39
357.44	226.39
357.82	226.48
358.20	226.53
358.58	226.56
358.97	226.64
359.35	226.72
359.73	226.80
360.11	226.88
360.49	226.94
360.87	226.98
361.25	227.06
361.63	227.15
362.01	227.15
362.39	227.20
362.77	227.24
363.15	227.28
363.53	227.31
363.91	227.35
364.29	227.38
364.67	227.33
365.05	227.32
365.43	227.38
365.81	227.41
366.19	227.48
366.57	227.52
366.95	227.50
367.33	227.49
367.71	227.50
368.09	227.49
368.47	227.50
368.85	227.47
369.23	227.46
369.61	227.39
369.99	227.42
370.37	227.39
370.75	227.39
371.13	227.33
371.51	227.28
371.89	227.23
372.27	227.18
372.65	227.16
373.03	227.13
373.41	227.11
373.78	227.02
374.16	226.89
374.54	226.80
374.92	226.74
375.30	226.66
375.68	226.55
376.06	226.46
376.44	226.41
376.82	226.36
377.19	226.27
377.57	226.22
377.95	226.11
378.33	226.09
378.71	225.99
379.09	225.93
379.47	225.89
379.84	225.82
380.22	225.74
380.60	225.65
380.98	225.56
381.36	225.49
381.73	225.43
382.11	225.40
382.49	225.33
382.87	225.26
383.25	225.25
383.62	225.36
384.00	225.30
384.38	225.26
384.76	225.24
385.13	225.24
385.51	225.19
385.89	225.15
386.27	225.08
386.64	225.04
387.02	225.00
387.40	224.95
387.78	224.94
388.15	224.88
388.53	224.89
388.91	224.86
389.29	224.82
389.66	224.81
390.04	224.79
390.42	224.79
390.79	224.79
391.17	224.76
391.55	224.61
391.92	224.58
392.30	224.58
392.68	224.54
393.05	224.53
393.43	224.53
393.81	224.52
394.18	224.52
394.56	224.53
394.94	224.55
395.31	224.55
395.69	224.60
396.06	224.65
396.44	224.65
396.82	224.69
397.19	224.77
397.57	224.82
397.95	224.87
398.32	224.90
398.70	224.94
399.07	225.02
399.45	225.08
399.82	225.14
400.20	225.19
400.58	225.25
400.95	225.31
401.33	225.40
401.70	225.56
402.08	225.64
402.45	225.75
402.83	225.89
403.20	226.02
403.58	226.11
403.95	226.26
404.33	226.41
404.71	226.54
405.08	226.76
405.46	226.87
405.83	227.03
406.21	227.19
406.58	227.39
406.96	227.55
407.33	227.76
407.70	228.01
408.08	228.31
408.45	228.58
408.83	228.85
409.20	229.11
409.58	229.33
409.95	229.65
410.33	229.96
410.70	230.27
411.08	230.64
411.45	231.01
411.82	231.37
412.20	231.78
412.57	232.29
412.95	232.66
413.32	233.21
413.69	233.75
414.07	234.33
414.44	234.93
414.82	235.58
415.19	236.30
415.56	236.99
415.94	237.71
416.31	238.55
416.68	239.37
417.06	240.32
417.43	241.17
417.81	242.19
418.18	243.21
418.55	244.25
418.93	245.37
419.30	246.55
419.67	247.77
420.04	249.03
420.42	250.32
420.79	251.88
421.16	253.35
421.54	254.87
421.91	256.44
422.28	258.11
422.66	259.85
423.03	261.49
423.40	263.26
423.77	265.08
424.15	266.96
424.52	268.90
424.89	271.01
425.26	273.06
425.64	274.95
426.01	277.05
426.38	279.22
426.75	281.37
427.13	283.63
427.50	286.01
427.87	288.46
428.24	290.90
428.61	293.19
428.99	295.72
429.36	298.48
429.73	301.19
430.10	303.82
430.47	306.54
430.85	309.35
431.22	312.28
431.59	315.37
431.96	318.28
432.33	321.57
432.70	324.65
433.08	328.39
433.45	331.87
433.82	335.24
434.19	339.06
434.56	342.82
434.93	346.30
435.30	349.72
435.68	353.48
436.05	357.22
436.42	360.90
436.79	364.19
437.16	367.72
437.53	371.42
437.90	375.09
438.27	378.64
438.64	382.39
439.01	385.77
439.38	388.74
439.75	391.57
440.13	394.85
440.50	397.96
440.87	400.39
441.24	402.92
441.61	405.80
441.98	407.77
442.35	410.16
442.72	412.62
443.09	415.04
443.46	416.39
443.83	417.16
444.20	417.82
444.57	418.98
444.94	419.42
445.31	419.93
445.68	420.35
446.05	420.50
446.42	419.99
446.79	419.47
447.16	418.93
447.53	418.53
447.90	416.97
448.27	415.41
448.64	413.32
449.01	411.85
449.37	409.23
449.74	406.74
450.11	403.75
450.48	400.52
450.85	397.20
451.22	394.41
451.59	391.77
451.96	389.25
452.33	385.82
452.70	382.70
453.07	378.95
453.43	375.20
453.80	371.51
454.17	368.05
454.54	364.71
454.91	361.16
455.28	357.67
455.65	354.46
456.02	351.21
456.38	348.39
456.75	344.88
457.12	341.94
457.49	339.00
457.86	336.16
458.23	333.69
458.59	330.99
458.96	328.25
459.33	325.81
459.70	323.35
460.07	321.36
460.43	319.11
460.80	316.92
461.17	314.98
461.54	313.00
461.91	311.07
462.27	309.14
462.64	307.44
463.01	305.66
463.38	303.92
463.74	302.12
464.11	300.56
464.48	299.20
464.85	297.74
465.21	296.57
465.58	295.31
465.95	293.85
466.32	292.65
466.68	291.44
467.05	290.25
467.42	289.01
467.78	287.77
468.15	286.56
468.52	285.74
468.88	284.61
469.25	283.64
469.62	282.76
469.98	281.86
470.35	280.98
470.72	280.18
471.08	279.29
471.45	278.61
471.82	277.88
472.18	277.08
472.55	276.48
472.92	275.77
473.28	275.13
473.65	274.56
474.02	273.95
474.38	273.41
474.75	272.90
475.11	272.46
475.48	272.13
475.85	271.82
476.21	271.42
476.58	271.15
476.94	270.86
477.31	270.58
477.67	270.31
478.04	270.16
478.41	270.00
478.77	269.96
479.14	269.77
479.50	269.72
479.87	269.72
480.23	269.72
480.60	269.75
480.96	269.77
481.33	269.95
481.69	270.09
482.06	270.27
482.42	270.41
482.79	270.57
483.15	270.81
483.52	271.20
483.88	271.53
484.25	271.88
484.61	272.34
484.98	272.80
485.34	273.34
485.71	273.91
486.07	274.51
486.44	275.06
486.80	275.78
487.17	276.48
487.53	277.32
487.90	278.23
488.26	279.18
488.62	280.18
488.99	281.13
489.35	282.18
489.72	283.33
490.08	284.61
490.44	285.91
490.81	287.28
491.17	288.67
491.54	290.24
491.90	291.84
492.26	293.55
492.63	295.38
492.99	297.26
493.36	299.23
493.72	301.36
494.08	303.59
494.45	305.95
494.81	308.44
495.17	310.97
495.54	313.60
495.90	316.45
496.26	319.39
496.63	322.48
496.99	325.71
497.35	329.16
497.72	332.75
498.08	336.48
498.44	340.36
498.80	344.45
499.17	348.64
499.53	353.05
499.89	357.63
500.26	362.37
500.62	367.29
500.98	372.52
501.34	377.84
501.71	383.43
502.07	389.19
502.43	395.13
502.79	401.23
503.16	407.64
503.52	414.24
503.88	420.98
504.24	428.03
504.60	435.30
504.97	442.82
505.33	450.49
505.69	458.61
506.05	466.80
506.41	475.14
506.78	483.74
507.14	492.67
507.50	501.87
507.86	511.37
508.22	521.14
508.59	530.88
508.95	541.03
509.31	551.41
509.67	562.06
510.03	572.94
510.39	584.15
510.75	595.57
511.12	607.16
511.48	619.18
511.84	631.43
512.20	643.69
512.56	656.30
512.92	669.26
513.28	682.39
513.64	695.68
514.00	709.26
514.37	723.07
514.73	736.96
515.09	750.90
515.45	765.15
515.81	779.61
516.17	794.54
516.53	809.63
516.89	824.78
517.25	840.00
517.61	855.40
517.97	870.92
518.33	886.33
518.69	902.08
519.05	918.16
519.41	934.44
519.77	951.17
520.13	967.89
520.49	984.46
520.85	1001.07
521.21	1018.04
521.57	1035.47
521.93	1052.55
522.29	1070.20
522.65	1087.77
523.01	1105.24
523.37	1122.61
523.73	1140.08
524.09	1157.52
524.45	1175.25
524.81	1193.36
525.17	1211.65
525.53	1229.96
525.89	1248.48
526.25	1266.98
526.61	1284.85
526.97	1303.04
527.33	1320.98
527.68	1339.08
528.04	1357.12
528.40	1375.19
528.76	1393.84
529.12	1412.14
529.48	1430.73
529.84	1448.50
530.20	1466.84
530.56	1485.52
530.91	1504.79
531.27	1523.34
531.63	1541.62
531.99	1559.97
532.35	1577.66
532.71	1595.45
533.07	1613.55
533.42	1631.22
533.78	1649.06
534.14	1667.17
534.50	1684.40
534.86	1702.20
535.21	1719.30
535.57	1737.06
535.93	1754.51
536.29	1771.14
536.65	1788.17
537.00	1804.81
537.36	1821.97
537.72	1838.28
538.08	1854.71
538.44	1870.38
538.79	1886.10
539.15	1901.55
539.51	1917.23
539.87	1933.42
540.22	1949.02
540.58	1964.80
540.94	1980.13
541.29	1994.91
541.65	2009.61
542.01	2024.82
542.37	2039.15
542.72	2053.51
543.08	2067.46
543.44	2081.86
543.79	2095.20
544.15	2108.11
544.51	2121.70
544.87	2134.66
545.22	2147.65
545.58	2159.79
545.94	2171.49
546.29	2183.45
546.65	2195.27
547.01	2206.51
547.36	2217.10
547.72	2227.48
548.07	2237.23
548.43	2247.16
548.79	2256.88
549.14	2266.25
549.50	2275.20
549.86	2284.59
550.21	2293.71
550.57	2302.57
550.92	2310.96
551.28	2319.76
551.64	2328.54
551.99	2336.71
552.35	2344.47
552.70	2352.20
553.06	2359.83
553.41	2367.71
553.77	2375.34
554.13	2383.13
554.48	2390.86
554.84	2398.33
555.19	2405.07
555.55	2411.76
555.90	2417.83
556.26	2424.52
556.61	2430.64
556.97	2436.71
557.32	2442.33
557.68	2447.94
558.03	2453.63
558.39	2458.60
558.74	2464.59
559.10	2469.87
559.45	2474.97
559.81	2480.66
560.16	2485.90
560.52	2490.60
560.87	2495.29
561.23	2499.14
561.58	2503.21
561.94	2506.97
562.29	2510.16
562.64	2514.16
563.00	2517.93
563.35	2522.59
563.71	2526.93
564.06	2531.42
564.42	2535.44
564.77	2539.17
565.12	2542.83
565.48	2545.85
565.83	2549.05
566.19	2551.59
566.54	2553.33
566.89	2555.42
567.25	2557.20
567.60	2559.45
567.96	2562.07
568.31	2563.86
568.66	2566.07
569.02	2567.76
569.37	2568.84
569.72	2570.88
570.08	2571.73
570.43	2572.46
570.78	2572.82
571.14	2571.89
571.49	2571.17
571.84	2571.51
572.20	2571.02
572.55	2570.40
572.90	2569.27
573.26	2568.47
573.61	2566.98
573.96	2565.91
574.31	2563.26
574.67	2560.44
575.02	2556.96
575.37	2553.78
575.72	2550.31
576.08	2546.93
576.43	2543.50
576.78	2540.07
577.13	2536.74
577.49	2533.72
577.84	2530.36
578.19	2526.48
578.54	2522.76
578.90	2518.50
579.25	2512.62
579.60	2507.52
579.95	2502.22
580.30	2497.01
580.66	2491.37
581.01	2486.21
581.36	2480.88
581.71	2476.55
582.06	2471.93
582.42	2467.28
582.77	2461.67
583.12	2456.82
583.47	2451.98
583.82	2446.91
584.17	2441.43
584.53	2435.63
584.88	2429.63
585.23	2423.55
585.58	2417.63
585.93	2411.84
586.28	2406.53
586.63	2401.05
586.98	2395.46
587.34	2390.34
587.69	2385.12
588.04	2379.57
588.39	2373.41
588.74	2366.25
589.09	2359.60
589.44	2352.11
589.79	2345.31
590.14	2339.27
590.49	2332.02
590.84	2324.94
591.19	2318.12
591.54	2310.74
591.89	2302.63
592.25	2295.17
592.60	2287.02
592.95	2278.61
593.30	2270.36
593.65	2261.89
594.00	2254.07
594.35	2245.99
594.70	2236.94
595.05	2228.96
595.40	2220.66
595.75	2212.15
596.10	2205.29
596.45	2197.69
596.80	2190.91
597.15	2183.68
597.50	2175.67
597.85	2168.35
598.19	2160.86
598.54	2152.96
598.89	2145.53
599.24	2138.70
599.59	2131.26
599.94	2124.31
600.29	2117.12
600.64	2109.73
600.99	2101.49
601.34	2093.63
601.69	2085.63
602.04	2077.95
602.39	2069.57
602.74	2061.70
603.08	2054.08
603.43	2046.43
603.78	2038.00
604.13	2029.57
604.48	2021.19
604.83	2013.30
605.18	2005.53
605.53	1996.40
605.87	1987.20
606.22	1978.94
606.57	1969.92
606.92	1961.40
607.27	1953.14
607.62	1945.22
607.96	1936.81
608.31	1929.33
608.66	1920.67
609.01	1912.11
609.36	1903.37
609.70	1893.98
610.05	1884.79
610.40	1876.09
610.75	1866.37
611.10	1857.62
611.44	1847.86
611.79	1838.64
612.14	1828.65
612.49	1817.92
612.83	1808.36
613.18	1798.96
613.53	1789.45
613.88	1779.68
614.22	1770.06
614.57	1759.93
614.92	1750.60
615.27	1741.81
615.61	1732.17
615.96	1722.85
616.31	1713.88
616.65	1705.31
617.00	1696.73
617.35	1687.89
617.70	1678.19
618.04	1668.42
618.39	1658.83
618.74	1650.08
619.08	1640.49
619.43	1631.67
619.78	1623.63
620.12	1615.23
620.47	1606.50
620.82	1597.04
621.16	1588.31
621.51	1579.46
621.85	1570.62
622.20	1560.79
622.55	1551.10
622.89	1541.87
623.24	1532.95
623.59	1524.32
623.93	1515.63
624.28	1507.24
624.62	1498.50
624.97	1490.20
625.32	1482.18
625.66	1474.03
626.01	1465.82
626.35	1457.30
626.70	1448.25
627.04	1439.28
627.39	1430.09
627.73	1421.54
628.08	1413.59
628.43	1405.22
628.77	1396.82
629.12	1388.23
629.46	1379.94
629.81	1371.22
630.15	1362.82
630.50	1354.32
630.84	1344.91
631.19	1335.56
631.53	1326.74
631.88	1318.00
632.22	1309.29
632.57	1300.93
632.91	1292.21
633.26	1283.67
633.60	1275.02
633.95	1266.82
634.29	1258.73
634.64	1251.10
634.98	1242.67
635.32	1234.41
635.67	1226.70
636.01	1219.15
636.36	1211.35
636.70	1203.88
637.05	1196.41
637.39	1188.91
637.73	1181.47
638.08	1174.71
638.42	1167.92
638.77	1160.59
639.11	1152.95
639.45	1145.47
639.80	1137.92
640.14	1130.54
640.49	1122.96
640.83	1115.68
641.17	1108.57
641.52	1101.26
641.86	1093.78
642.20	1087.03
642.55	1079.74
642.89	1072.31
643.23	1064.63
643.58	1057.92
643.92	1050.79
644.26	1043.99
644.61	1037.07
644.95	1030.25
645.29	1022.71
645.64	1015.08
645.98	1007.74
646.32	1001.03
646.66	994.19
647.01	987.45
647.35	980.91
647.69	974.17
648.04	967.87
648.38	961.29
648.72	954.53
649.06	947.70
649.41	940.94
649.75	934.21
650.09	927.46
650.43	920.89
650.78	913.88
651.12	907.07
651.46	900.47
651.80	893.95
652.14	887.66
652.49	881.58
652.83	875.64
653.17	869.21
653.51	862.74
653.85	856.46
654.20	850.11
654.54	843.26
654.88	836.66
655.22	829.88
655.56	823.31
655.90	816.98
656.25	810.99
656.59	804.85
656.93	799.03
657.27	793.14
657.61	786.92
657.95	781.13
658.29	775.34
658.64	769.24
658.98	763.14
659.32	756.97
659.66	750.99
660.00	744.90
660.34	739.30
660.68	733.75
661.02	728.07
661.36	722.71
661.70	717.55
662.05	712.63
662.39	707.77
662.73	702.66
663.07	697.68
663.41	692.69
663.75	687.63
664.09	682.43
664.43	677.40
664.77	672.71
665.11	667.80
665.45	663.07
665.79	658.48
666.13	653.83
666.47	649.14
666.81	644.42
667.15	639.78
667.49	635.31
667.83	630.87
668.17	626.40
668.51	621.79
668.85	617.22
669.19	612.82
669.53	608.47
669.87	604.08
670.21	599.90
670.55	595.66
670.89	591.71
671.23	587.79
671.57	583.81
671.91	579.83
672.25	575.88
672.58	571.87
672.92	567.98
673.26	564.37
673.60	560.80
673.94	557.34
674.28	553.99
674.62	550.62
674.96	547.10
675.30	543.88
675.64	540.48
675.97	537.38
676.31	534.14
676.65	530.81
676.99	527.79
677.33	524.53
677.67	521.33
678.01	517.96
678.34	514.59
678.68	511.32
679.02	508.15
679.36	505.01
679.70	501.94
680.04	498.85
680.37	495.65
680.71	492.38
681.05	489.36
681.39	486.28
681.73	483.29
682.06	480.44
682.40	477.52
682.74	474.67
683.08	471.73
683.42	468.75
683.75	465.85
684.09	462.88
684.43	460.07
684.77	457.25
685.10	454.52
685.44	451.84
685.78	449.20
686.12	446.53
686.45	443.90
686.79	441.32
687.13	438.76
687.46	436.27
687.80	433.82
688.14	431.22
688.48	428.84
688.81	426.28
689.15	423.82
689.49	421.30
689.82	418.93
690.16	416.53
690.50	414.29
690.83	412.14
691.17	409.88
691.51	407.73
691.84	405.62
692.18	403.44
692.52	401.22
692.85	399.03
693.19	396.90
693.52	394.78
693.86	392.62
694.20	390.56
694.53	388.47
694.87	386.39
695.21	384.38
695.54	382.29
695.88	380.34
696.21	378.37
696.55	376.44
696.88	374.49
697.22	372.56
697.56	370.71
697.89	368.81
698.23	367.00
698.56	365.10
698.90	363.32
699.23	361.49
699.57	359.74
699.90	357.95
700.24	356.20
700.58	354.46
700.91	352.77
701.25	351.11
701.58	349.56
701.92	347.98
702.25	346.43
702.59	344.89
702.92	343.40
703.26	341.89
703.59	340.45
703.93	339.10
704.26	337.72
704.60	336.25
704.93	334.77
705.26	333.33
705.60	331.99
705.93	330.64
706.27	329.39
706.60	328.16
706.94	326.91
707.27	325.60
707.61	324.36
707.94	323.21
708.27	321.99
708.61	320.73
708.94	319.58
709.28	318.43
709.61	317.29
709.94	316.14
710.28	314.97
710.61	313.86
710.95	312.61
711.28	311.59
711.61	310.54
711.95	309.53
712.28	308.44
712.61	307.34
712.95	306.27
713.28	305.29
713.61	304.27
713.95	303.30
714.28	302.35
714.61	301.38
714.95	300.41
715.28	299.45
715.61	298.46
715.95	297.50
716.28	296.54
716.61	295.62
716.95	294.64
717.28	293.81
717.61	292.89
717.94	292.04
718.28	291.09
718.61	290.23
718.94	289.47
719.27	288.74
719.61	287.99
719.94	287.22
720.27	286.38
720.60	285.61
720.94	284.86
721.27	284.18
721.60	283.52
721.93	282.81
722.27	282.19
722.60	281.57
722.93	280.93
723.26	280.32
723.59	279.67
723.93	279.08
724.26	278.42
724.59	277.77
724.92	277.20
725.25	276.60
725.59	275.99
725.92	275.34
726.25	274.70
726.58	274.15
726.91	273.64
727.24	273.11
727.57	272.58
727.91	272.00
728.24	271.44
728.57	270.90
728.90	270.41
729.23	269.83
729.56	269.35
729.89	268.81
730.22	268.23
730.55	267.71
730.89	267.20
731.22	266.68
731.55	266.24
731.88	265.71
732.21	265.23
732.54	264.73
732.87	264.24
733.20	263.81
733.53	263.38
733.86	262.91
734.19	262.44
734.52	262.01
734.85	261.65
735.18	261.18
735.51	260.76
735.84	260.28
736.17	259.85
736.50	259.36
736.83	259.06
737.16	258.69
737.49	258.29
737.82	257.92
738.15	257.53
738.48	257.10
738.81	256.78
739.14	256.43
739.47	256.05
739.80	255.68
740.13	255.31
740.46	254.88
740.79	254.50
741.12	254.14
741.45	253.80
741.78	253.41
742.11	253.10
742.44	252.73
742.77	252.43
743.10	252.08
743.43	251.79
743.75	251.36
744.08	251.15
744.41	250.85
744.74	250.53
745.07	250.20
745.40	249.94
745.73	249.60
746.06	249.28
746.39	248.98
746.71	248.69
747.04	248.37
747.37	248.12
747.70	247.83
748.03	247.54
748.36	247.24
748.68	246.95
749.01	246.64
749.34	246.38
749.67	246.11
750.00	245.86
750.33	245.61
750.65	245.39
750.98	245.02
751.31	244.75
751.64	244.51
751.97	244.35
752.29	244.12
752.62	243.88
752.95	243.64
753.28	243.42
753.60	243.18
753.93	242.99
754.26	242.75
754.59	242.51
754.91	242.26
755.24	242.01
755.57	241.83
755.90	241.64
756.22	241.42
756.55	241.15
756.88	240.93
757.20	240.70
757.53	240.45
757.86	240.28
758.19	240.10
758.51	239.89
758.84	239.63
759.17	239.38
759.49	239.19
759.82	239.06
760.15	238.89
760.47	238.70
760.80	238.48
761.13	238.34
761.45	238.18
761.78	238.05
762.11	237.91
762.43	237.75
762.76	237.61
763.08	237.48
763.41	237.37
763.74	237.20
764.06	237.04
764.39	236.86
764.71	236.71
765.04	236.54
765.37	236.37
765.69	236.24
766.02	236.16
766.34	235.98
766.67	235.78
767.00	235.67
767.32	235.61
767.65	235.57
767.97	235.43
768.30	235.31
768.62	235.18
768.95	235.04
769.27	234.91
769.60	234.73
769.92	234.55
770.25	234.38
770.57	234.26
770.90	234.14
771.22	234.03
771.55	233.90
771.87	233.81
772.20	233.71
772.52	233.68
772.85	233.63
773.17	233.55
773.50	233.44
773.82	233.30
774.15	233.17
774.47	232.98
774.80	232.87
775.12	232.74
775.45	232.64
775.77	232.52
776.09	232.43
776.42	232.36
776.74	232.31
777.07	232.24
777.39	232.19
777.72	232.11
778.04	232.05
778.36	231.96
778.69	231.86
779.01	231.79
779.33	231.63
779.66	231.46
779.98	231.35
780.31	231.28
780.63	231.25
780.95	231.17
781.28	231.09
781.60	230.98
781.92	230.90
782.25	230.84
782.57	230.78
782.89	230.67
783.22	230.59
783.54	230.52
783.86	230.48
784.19	230.39
784.51	230.35
784.83	230.26
785.16	230.21
785.48	230.17
785.80	230.11
786.12	230.06
786.45	230.01
786.77	229.99
787.09	229.91
787.42	229.81
787.74	229.76
788.06	229.72
788.38	229.69
788.71	229.67
789.03	229.62
789.35	229.59
789.67	229.58
789.99	229.53
790.32	229.46
790.64	229.43
790.96	229.43
791.28	229.36
791.61	229.33
791.93	229.28
792.25	229.23
792.57	229.26
792.89	229.21
793.21	229.15
793.54	229.11
793.86	229.08
794.18	229.08
794.50	229.03
794.82	229.04
795.14	229.03
795.47	228.99
795.79	228.97
796.11	228.95
796.43	228.91
796.75	228.88
797.07	228.88
797.39	228.84
797.71	228.78
798.04	228.74
798.36	228.75
798.68	228.72
799.00	228.71
799.32	228.64
799.64	228.64
799.96	228.64
800.28	228.61
800.60	228.59
800.92	228.56
801.24	228.53
801.56	228.48
801.89	228.45
802.21	228.45
802.53	228.40
802.85	228.37
803.17	228.40
803.49	228.34
803.81	228.30
804.13	228.27
804.45	228.22
804.77	228.21
805.09	228.15
805.41	228.11
805.73	228.04
806.05	227.96
806.37	227.93
806.69	227.89
807.01	227.86
807.33	227.82
807.65	227.77
807.97	227.81
808.28	227.76
808.60	227.71
808.92	227.66
809.24	227.69
809.56	227.66
809.88	227.57
810.20	227.58
810.52	227.59
810.84	227.51
811.16	227.45
811.48	227.38
811.80	227.40
812.12	227.36
812.43	227.36
812.75	227.33
813.07	227.26
813.39	227.22
813.71	227.16
814.03	227.13
814.35	227.09
814.67	227.00
814.98	226.98
815.30	226.95
815.62	226.90
815.94	226.79
816.26	226.78
816.58	226.75
816.89	226.71
817.21	226.61
817.53	226.61
817.85	226.63
818.17	226.60
818.48	226.49
818.80	226.51
819.12	226.49
819.44	226.45
819.76	226.43
820.07	226.41
820.39	226.39
820.71	226.40
821.03	226.38
821.34	226.34
821.66	226.34
821.98	226.32
822.30	226.28
822.61	226.34
822.93	226.29
823.25	226.26
823.57	226.24
823.88	226.29
824.20	226.28
824.52	226.28
824.83	226.29
825.15	226.31
825.47	226.28
825.79	226.25
826.10	226.24
826.42	226.21
826.74	226.19
827.05	226.19
827.37	226.15
827.69	226.12
828.00	226.12
828.32	226.08
828.64	226.06
828.95	226.11
829.27	226.04
829.58	226.04
829.90	226.05
830.22	226.05
830.53	226.03
830.85	225.99
831.17	225.97
831.48	225.96
831.80	225.92
832.11	225.92
832.43	225.92
832.75	225.94
833.06	226.00
833.38	225.99
833.69	226.00
834.01	226.01
834.32	226.01
834.64	226.00
834.96	225.98
835.27	225.99
835.59	225.96
835.90	225.95
836.22	225.94
836.53	225.91
836.85	225.87
837.16	225.93
837.48	225.93
837.79	225.97
838.11	225.97
838.42	225.97
838.74	225.98
839.05	225.98
839.37	225.95
839.68	225.88
840.00	225.88
840.31	225.85
840.63	225.85
840.94	225.82
841.26	225.81
841.57	225.82
841.88	225.81
842.20	225.80
842.51	225.80
842.83	225.75
843.14	225.83
843.46	225.84
843.77	225.77
844.08	225.79
844.40	225.68
844.71	225.63
845.03	225.64
845.34	225.59
845.65	225.57
845.97	225.56
846.28	225.57
846.60	225.55
846.91	225.54
847.22	225.54
847.54	225.56
847.85	225.56
848.16	225.56
848.48	225.54
848.79	225.54
849.10	225.53
849.42	225.55
849.73	225.44
850.04	225.41
850.36	225.37
850.67	225.34
850.98	225.36
851.30	225.33
851.61	225.31
851.92	225.31
852.23	225.31
852.55	225.29
852.86	225.27
853.17	225.25
853.49	225.27
853.80	225.25
854.11	225.24
854.42	225.23
854.74	225.16
855.05	225.16
855.36	225.11
855.67	225.08
855.99	225.06
856.30	225.18
856.61	225.15
856.92	225.15
857.23	225.15
857.55	225.14
857.86	225.18
858.17	225.17
858.48	225.14
858.79	225.15
859.11	225.14
859.42	225.13
859.73	225.10
860.04	225.08
860.35	225.04
860.66	224.99
860.98	224.99
861.29	225.00
861.60	224.97
861.91	224.95
862.22	224.94
862.53	224.95
862.84	224.83
863.16	224.85
863.47	224.80
863.78	224.79
864.09	224.77
864.40	224.77
864.71	224.75
865.02	224.75
865.33	224.74
865.64	224.71
865.95	224.71
866.27	224.79
866.58	224.73
866.89	224.76
867.20	224.77
867.51	224.77
867.82	224.77
868.13	224.82
868.44	224.82
868.75	224.84
869.06	224.81
869.37	224.82
869.68	224.82
869.99	224.86
870.30	224.86
870.61	224.91
870.92	224.90
871.23	224.91
871.54	224.98
871.85	224.97
872.16	224.99
872.47	225.02
872.78	224.95
873.09	224.98
873.40	224.96
873.71	224.98
874.02	224.98
874.33	224.98
874.64	224.99
874.95	225.01
875.26	225.00
875.56	225.04
875.87	225.04
876.18	225.05
876.49	225.13
876.80	225.14
877.11	225.13
877.42	225.14
877.73	225.14
878.04	225.08
878.35	225.09
878.66	225.11
878.96	225.11
879.27	225.14
879.58	225.17
879.89	225.20
880.20	225.23
880.51	225.22
880.82	225.23
881.12	225.22
881.43	225.21
881.74	225.19
882.05	225.20
882.36	225.21
882.67	225.24
882.97	225.16
883.28	225.18
883.59	225.14
883.90	225.14
884.21	225.18
884.51	225.20
884.82	225.22
885.13	225.22
885.44	225.20
885.74	225.20
886.05	225.15
886.36	225.17
886.67	225.10
886.98	225.18
887.28	225.21
887.59	225.19
887.90	225.18
888.20	225.21
888.51	225.21
888.82	225.19
889.13	225.20
889.43	225.29
889.74	225.26
890.05	225.26
890.35	225.25
890.66	225.21
890.97	225.19
891.28	225.13
891.58	225.11
891.89	225.12
892.20	225.11
892.50	225.16
892.81	225.11
893.12	225.12
893.42	225.05
893.73	225.00
894.04	225.01
894.34	224.99
894.65	224.96
894.95	224.97
895.26	224.95
895.57	224.97
895.87	224.85
896.18	224.87
896.48	224.91
896.79	224.92
897.10	224.91
897.40	224.91
897.71	224.93
898.01	224.94
898.32	224.93
898.63	224.91
898.93	224.85
899.24	224.86
899.54	224.86
899.85	224.87
900.15	224.87
900.46	224.86
900.76	224.92
901.07	224.92
901.38	224.86
901.68	224.87
901.99	224.81
902.29	224.81
902.60	224.79
902.90	224.75
903.21	224.73
903.51	224.75
903.82	224.78
904.12	224.78
904.43	224.77
904.73	224.76
905.03	224.74
905.34	224.86
905.64	224.86
905.95	224.86
906.25	224.83
906.56	224.85
906.86	224.84
907.17	224.81
907.47	224.83
907.77	224.83
908.08	224.81
908.38	224.78
908.69	224.80
908.99	224.83
909.30	224.83
909.60	224.83
909.90	224.83
910.21	224.81
910.51	224.80
910.81	224.80
911.12	224.81
911.42	224.83
911.73	224.74
912.03	224.73
912.33	224.73
912.64	224.72
912.94	224.73
913.24	224.72
913.55	224.71
913.85	224.73
914.15	224.78
914.46	224.79
914.76	224.80
915.06	224.77
915.37	224.74
915.67	224.74
915.97	224.74
916.27	224.74
916.58	224.74
916.88	224.72
917.18	224.70
917.49	224.75
917.79	224.74
918.09	224.74
918.39	224.78
918.70	224.80
919.00	224.83
919.30	224.84
919.60	224.85
919.91	224.84
920.21	224.83
920.51	224.82
920.81	224.82
921.12	224.87
921.42	224.88
921.72	224.90
922.02	224.90
922.32	224.89
922.63	224.87
922.93	224.90
923.23	224.93
923.53	224.92
923.83	224.86
924.13	224.88
924.44	224.90
924.74	224.93
925.04	224.94
925.34	224.90
925.64	224.88
925.94	224.86
926.24	224.92
926.55	224.93
926.85	224.92
927.15	224.92
927.45	224.89
927.75	224.91
928.05	224.90
928.35	224.90
928.65	224.96
928.95	224.98
929.26	224.94
929.56	224.98
929.86	225.00
930.16	225.02
930.46	225.02
930.76	225.01
931.06	224.98
931.36	224.97
931.66	225.01
931.96	225.05
932.26	225.09
932.56	225.02
932.86	225.00
933.16	225.00
933.46	224.99
933.76	224.97
934.06	225.00
934.36	225.03
934.66	225.02
934.96	224.98
935.26	225.01
935.56	225.01
935.86	224.96
936.16	224.92
936.46	224.91
936.76	224.91
937.06	224.91
937.36	224.90
937.66	224.89
937.96	224.86
938.26	224.84
938.56	224.79
938.86	224.83
939.16	224.87
939.46	224.87
939.76	224.89
940.06	224.92
940.35	224.86
940.65	224.82
940.95	224.85
941.25	224.86
941.55	224.82
941.85	224.82
942.15	224.85
942.45	224.91
942.75	224.88
943.04	224.87
943.34	224.85
943.64	224.82
943.94	224.80
944.24	224.82
944.54	224.82
944.84	224.85
945.13	224.80
945.43	224.78
945.73	224.79
946.03	224.79
946.33	224.77
946.62	224.77
946.92	224.77
947.22	224.74
947.52	224.69
947.82	224.68
948.11	224.67
948.41	224.63
948.71	224.62
949.01	224.64
949.31	224.64
949.60	224.62
949.90	224.62
950.20	224.62
950.50	224.61
950.79	224.57
951.09	224.56
951.39	224.60
951.69	224.59
951.98	224.59
952.28	224.59
952.58	224.59
952.87	224.59
953.17	224.58
953.47	224.59
953.76	224.60
954.06	224.63
954.36	224.62
954.66	224.62
954.95	224.62
955.25	224.60
955.55	224.60
955.84	224.61
956.14	224.63
956.44	224.66
956.73	224.64
957.03	224.62
957.32	224.62
957.62	224.57
957.92	224.57
958.21	224.56
958.51	224.68
958.81	224.68
959.10	224.70
959.40	224.72
959.69	224.72
959.99	224.74
960.29	224.75
960.58	224.72
960.88	224.78
961.17	224.76
961.47	224.80
961.76	224.80
962.06	224.80
962.36	224.79
962.65	224.78
962.95	224.79
963.24	224.82
963.54	224.83
963.83	224.89
964.13	224.89
964.42	224.86
964.72	224.77
965.01	224.79
965.31	224.76
965.60	224.74
965.90	224.76
966.19	224.74
966.49	224.73
966.78	224.77
967.08	224.73
967.37	224.77
967.67	224.75
967.96	224.77
968.26	224.80
968.55	224.83
968.85	224.81
969.14	224.79
969.43	224.78
969.73	224.76
970.02	224.71
970.32	224.70
970.61	224.70
970.91	224.68
971.20	224.65
971.49	224.67
971.79	224.66
972.08	224.62
972.38	224.64
972.67	224.66
972.96	224.65
973.26	224.65
973.55	224.64
973.85	224.64
974.14	224.64
974.43	224.63
974.73	224.59
975.02	224.60
975.31	224.62
975.61	224.62
975.90	224.64
976.19	224.65
976.49	224.65
976.78	224.67
977.07	224.63
977.37	224.66
977.66	224.66
977.95	224.66
978.24	224.68
978.54	224.68
978.83	224.66
979.12	224.66
979.42	224.65
979.71	224.65
980.00	224.65
980.29	224.65
980.59	224.64
980.88	224.70
981.17	224.70
981.46	224.69
981.76	224.72
982.05	224.74
982.34	224.77
982.63	224.81
982.93	224.79
983.22	224.82
983.51	224.80
983.80	224.80
984.09	224.80
984.39	224.80
984.68	224.82
984.97	224.83
985.26	224.83
985.55	224.82
985.85	224.82
986.14	224.82
986.43	224.84
986.72	224.81
987.01	224.77
987.30	224.79
987.59	224.80
987.89	224.78
988.18	224.75
988.47	224.70
988.76	224.69
989.05	224.70
989.34	224.69
989.63	224.72
989.92	224.73
990.22	224.71
990.51	224.71
990.80	224.69
991.09	224.69
991.38	224.69
991.67	224.70
991.96	224.64
992.25	224.65
992.54	224.63
992.83	224.61
993.12	224.58
993.41	224.59
993.70	224.60
993.99	224.59
994.28	224.62
994.58	224.67
994.87	224.65
995.16	224.64
995.45	224.63
995.74	224.61
996.03	224.64
996.32	224.67
996.61	224.68
996.90	224.67
997.19	224.66
997.48	224.66
997.77	224.63
998.06	224.66
998.34	224.66
998.63	224.65
998.92	224.67
999.21	224.70
999.50	224.67
999.79	224.64
1000.08	224.64
1000.37	224.61
1000.66	224.56
1000.95	224.55
1001.24	224.55
1001.53	224.59
1001.82	224.58
1002.11	224.54
1002.40	224.55
1002.68	224.56
1002.97	224.64
1003.26	224.63
1003.55	224.63
1003.84	224.64
1004.13	224.64
1004.42	224.62
1004.71	224.58
1004.99	224.58
1005.28	224.58
1005.57	224.56
1005.86	224.54
1006.15	224.54
1006.44	224.53
1006.72	224.56
1007.01	224.55
1007.30	224.55
1007.59	224.51
1007.88	224.47
1008.17	224.45
1008.45	224.42
1008.74	224.38
1009.03	224.36
1009.32	224.32
1009.60	224.30
1009.89	224.27
1010.18	224.28
1010.47	224.29
1010.76	224.31
1011.04	224.31
1011.33	224.32
1011.62	224.37
1011.91	224.40
1012.19	224.43
1012.48	224.44
1012.77	224.42
1013.05	224.46
1013.34	224.49
1013.63	224.52
1013.92	224.53
1014.20	224.53
1014.49	224.56
1014.78	224.58
1015.06	224.50
1015.35	224.51
1015.64	224.54
1015.92	224.59
1016.21	224.60
1016.50	224.59
1016.78	224.59
1017.07	224.61
1017.36	224.60
1017.64	224.56
1017.93	224.59
1018.22	224.57
1018.50	224.55
1018.79	224.57
1019.08	224.52
1019.36	224.52
1019.65	224.49
1019.93	224.53
1020.22	224.57
1020.51	224.62
1020.79	224.60
1021.08	224.72
1021.36	224.22
1021.65	224.49
1021.94	224.27
1022.22	224.69
1022.51	224.56
1022.79	224.96
1023.08	224.84
1023.36	225.94
1023.65	224.45
>>>>>End Processed Spectral Data<<<<<
