SpectraSuite Data File
++++++++++++++++++++++++++++++++++++
Date: Fri Feb 01 16:28:27 EST 2013
User: group
Dark Spectrum Present: No
Reference Spectrum Present: No
Number of Sampled Component Spectra: 1
Spectrometers: USB2E7196
Integration Time (usec): 35000 (USB2E7196)
Spectra Averaged: 100 (USB2E7196)
Boxcar Smoothing: 10 (USB2E7196)
Correct for Electrical Dark: No (USB2E7196)
Strobe/Lamp Enabled: No (USB2E7196)
Correct for Detector Non-linearity: No (USB2E7196)
Correct for Stray Light: No (USB2E7196)
Number of Pixels in Processed Spectrum: 2048
>>>>>Begin Processed Spectral Data<<<<<
339.09	0.00
339.48	213.86
339.86	216.00
340.24	217.06
340.63	218.42
341.01	221.16
341.39	220.83
341.78	222.73
342.16	223.39
342.54	224.03
342.93	212.57
343.31	223.29
343.69	223.83
344.07	224.29
344.46	224.72
344.84	225.07
345.22	225.30
345.60	225.55
345.99	225.71
346.37	225.83
346.75	225.91
347.13	225.93
347.52	226.01
347.90	226.07
348.28	226.10
348.66	226.16
349.05	226.12
349.43	226.18
349.81	226.20
350.19	226.23
350.57	226.28
350.96	226.36
351.34	226.46
351.72	226.55
352.10	226.63
352.48	226.72
352.87	226.79
353.25	226.88
353.63	226.95
354.01	227.02
354.39	227.11
354.77	227.18
355.15	227.32
355.54	227.36
355.92	227.38
356.30	227.47
356.68	227.62
357.06	227.69
357.44	227.72
357.82	227.78
358.20	227.84
358.58	227.89
358.97	227.92
359.35	228.00
359.73	228.09
360.11	228.14
360.49	228.18
360.87	228.24
361.25	228.28
361.63	228.34
362.01	228.38
362.39	228.38
362.77	228.43
363.15	228.43
363.53	228.46
363.91	228.50
364.29	228.50
364.67	228.38
365.05	228.42
365.43	228.42
365.81	228.44
366.19	228.48
366.57	228.53
366.95	228.57
367.33	228.51
367.71	228.48
368.09	228.44
368.47	228.42
368.85	228.39
369.23	228.41
369.61	228.31
369.99	228.30
370.37	228.31
370.75	228.33
371.13	228.26
371.51	228.22
371.89	228.16
372.27	228.11
372.65	228.08
373.03	228.03
373.41	227.99
373.78	227.93
374.16	227.82
374.54	227.70
374.92	227.60
375.30	227.56
375.68	227.48
376.06	227.46
376.44	227.37
376.82	227.33
377.19	227.24
377.57	227.21
377.95	227.12
378.33	227.03
378.71	226.90
379.09	226.89
379.47	226.80
379.84	226.73
380.22	226.66
380.60	226.60
380.98	226.53
381.36	226.46
381.73	226.38
382.11	226.35
382.49	226.33
382.87	226.26
383.25	226.18
383.62	226.25
384.00	226.16
384.38	226.12
384.76	226.05
385.13	226.01
385.51	225.98
385.89	225.92
386.27	225.86
386.64	225.83
387.02	225.77
387.40	225.71
387.78	225.67
388.15	225.65
388.53	225.62
388.91	225.58
389.29	225.55
389.66	225.55
390.04	225.53
390.42	225.49
390.79	225.46
391.17	225.45
391.55	225.32
391.92	225.31
392.30	225.30
392.68	225.31
393.05	225.30
393.43	225.31
393.81	225.35
394.18	225.38
394.56	225.40
394.94	225.43
395.31	225.46
395.69	225.50
396.06	225.54
396.44	225.57
396.82	225.59
397.19	225.67
397.57	225.70
397.95	225.72
398.32	225.75
398.70	225.81
399.07	225.90
399.45	225.95
399.82	226.01
400.20	226.07
400.58	226.13
400.95	226.18
401.33	226.25
401.70	226.36
402.08	226.45
402.45	226.52
402.83	226.63
403.20	226.73
403.58	226.85
403.95	226.98
404.33	227.10
404.71	227.23
405.08	227.36
405.46	227.50
405.83	227.66
406.21	227.83
406.58	228.03
406.96	228.18
407.33	228.33
407.70	228.50
408.08	228.76
408.45	228.97
408.83	229.20
409.20	229.39
409.58	229.59
409.95	229.83
410.33	230.07
410.70	230.29
411.08	230.57
411.45	230.88
411.82	231.17
412.20	231.50
412.57	231.92
412.95	232.20
413.32	232.61
413.69	233.01
414.07	233.44
414.44	233.86
414.82	234.33
415.19	234.90
415.56	235.47
415.94	235.99
416.31	236.61
416.68	237.26
417.06	237.97
417.43	238.66
417.81	239.44
418.18	240.26
418.55	241.12
418.93	242.02
419.30	242.90
419.67	243.84
420.04	244.82
420.42	245.81
420.79	247.02
421.16	248.18
421.54	249.38
421.91	250.57
422.28	251.86
422.66	253.21
423.03	254.51
423.40	255.84
423.77	257.24
424.15	258.67
424.52	260.13
424.89	261.74
425.26	263.28
425.64	264.70
426.01	266.28
426.38	267.93
426.75	269.60
427.13	271.35
427.50	273.13
427.87	275.02
428.24	276.89
428.61	278.65
428.99	280.59
429.36	282.63
429.73	284.70
430.10	286.71
430.47	288.72
430.85	290.86
431.22	293.11
431.59	295.47
431.96	297.73
432.33	300.24
432.70	302.60
433.08	305.39
433.45	308.06
433.82	310.63
434.19	313.50
434.56	316.25
434.93	318.85
435.30	321.51
435.68	324.37
436.05	327.16
436.42	329.89
436.79	332.37
437.16	335.09
437.53	337.92
437.90	340.70
438.27	343.44
438.64	346.20
439.01	348.76
439.38	350.95
439.75	353.11
440.13	355.53
440.50	357.87
440.87	359.73
441.24	361.62
441.61	363.81
441.98	365.27
442.35	367.09
442.72	368.93
443.09	370.70
443.46	371.66
443.83	372.25
444.20	372.79
444.57	373.62
444.94	373.90
445.31	374.19
445.68	374.53
446.05	374.62
446.42	374.27
446.79	373.88
447.16	373.47
447.53	373.15
447.90	372.03
448.27	370.89
448.64	369.29
449.01	368.15
449.37	366.14
449.74	364.25
450.11	361.98
450.48	359.52
450.85	357.01
451.22	354.90
451.59	352.88
451.96	350.90
452.33	348.30
452.70	345.95
453.07	343.20
453.43	340.35
453.80	337.58
454.17	334.94
454.54	332.39
454.91	329.71
455.28	327.05
455.65	324.53
456.02	322.08
456.38	319.96
456.75	317.32
457.12	315.11
457.49	312.91
457.86	310.78
458.23	308.97
458.59	306.94
458.96	304.85
459.33	303.00
459.70	301.14
460.07	299.67
460.43	297.96
460.80	296.32
461.17	294.90
461.54	293.44
461.91	292.01
462.27	290.57
462.64	289.33
463.01	288.00
463.38	286.75
463.74	285.41
464.11	284.27
464.48	283.27
464.85	282.17
465.21	281.33
465.58	280.43
465.95	279.35
466.32	278.46
466.68	277.58
467.05	276.72
467.42	275.85
467.78	274.93
468.15	274.11
468.52	273.44
468.88	272.57
469.25	271.84
469.62	271.22
469.98	270.56
470.35	269.95
470.72	269.36
471.08	268.68
471.45	268.14
471.82	267.58
472.18	267.02
472.55	266.59
472.92	266.09
473.28	265.64
473.65	265.20
474.02	264.78
474.38	264.43
474.75	264.12
475.11	263.80
475.48	263.54
475.85	263.32
476.21	263.07
476.58	262.88
476.94	262.70
477.31	262.50
477.67	262.33
478.04	262.22
478.41	262.17
478.77	262.22
479.14	262.12
479.50	262.15
479.87	262.17
480.23	262.31
480.60	262.34
480.96	262.43
481.33	262.63
481.69	262.85
482.06	263.03
482.42	263.23
482.79	263.48
483.15	263.80
483.52	264.15
483.88	264.54
484.25	264.96
484.61	265.41
484.98	265.88
485.34	266.48
485.71	267.03
486.07	267.61
486.44	268.21
486.80	268.93
487.17	269.67
487.53	270.50
487.90	271.28
488.26	272.26
488.62	273.25
488.99	274.22
489.35	275.27
489.72	276.38
490.08	277.55
490.44	278.81
490.81	280.14
491.17	281.50
491.54	282.96
491.90	284.50
492.26	286.10
492.63	287.86
492.99	289.58
493.36	291.50
493.72	293.54
494.08	295.65
494.45	297.92
494.81	300.26
495.17	302.70
495.54	305.32
495.90	308.01
496.26	310.84
496.63	313.79
496.99	316.83
497.35	320.10
497.72	323.50
498.08	327.02
498.44	330.71
498.80	334.64
499.17	338.73
499.53	342.84
499.89	347.25
500.26	351.70
500.62	356.44
500.98	361.45
501.34	366.51
501.71	371.83
502.07	377.29
502.43	382.94
502.79	388.73
503.16	394.75
503.52	401.11
503.88	407.52
504.24	414.19
504.60	421.10
504.97	428.27
505.33	435.66
505.69	443.39
506.05	451.22
506.41	459.09
506.78	467.23
507.14	475.81
507.50	484.52
507.86	493.56
508.22	502.74
508.59	511.89
508.95	521.49
509.31	531.34
509.67	541.42
510.03	551.72
510.39	562.29
510.75	573.11
511.12	583.95
511.48	595.23
511.84	606.65
512.20	618.16
512.56	630.12
512.92	642.30
513.28	654.59
513.64	667.03
514.00	679.71
514.37	692.64
514.73	705.64
515.09	718.63
515.45	731.98
515.81	745.54
516.17	759.62
516.53	773.71
516.89	787.84
517.25	802.03
517.61	816.42
517.97	830.89
518.33	845.33
518.69	859.99
519.05	874.97
519.41	890.19
519.77	905.72
520.13	921.15
520.49	936.44
520.85	951.85
521.21	967.54
521.57	983.76
521.93	999.43
522.29	1015.76
522.65	1031.95
523.01	1048.03
523.37	1063.96
523.73	1080.01
524.09	1095.97
524.45	1112.24
524.81	1128.76
525.17	1145.49
525.53	1162.40
525.89	1179.18
526.25	1196.06
526.61	1212.41
526.97	1229.02
527.33	1245.32
527.68	1261.79
528.04	1278.24
528.40	1294.74
528.76	1311.61
529.12	1328.08
529.48	1344.93
529.84	1360.80
530.20	1377.37
530.56	1394.31
530.91	1411.76
531.27	1428.46
531.63	1445.04
531.99	1461.41
532.35	1477.29
532.71	1493.07
533.07	1509.16
533.42	1524.96
533.78	1540.84
534.14	1556.88
534.50	1572.22
534.86	1588.15
535.21	1603.32
535.57	1619.21
535.93	1634.67
536.29	1649.52
536.65	1664.57
537.00	1679.14
537.36	1694.31
537.72	1708.76
538.08	1723.08
538.44	1736.65
538.79	1750.36
539.15	1763.87
539.51	1777.73
539.87	1791.92
540.22	1805.57
540.58	1819.19
540.94	1832.41
541.29	1845.20
541.65	1857.87
542.01	1870.90
542.37	1883.01
542.72	1895.35
543.08	1906.86
543.44	1919.04
543.79	1930.14
544.15	1940.96
544.51	1952.62
544.87	1963.64
545.22	1974.36
545.58	1984.63
545.94	1994.40
546.29	2004.23
546.65	2014.11
547.01	2023.26
547.36	2031.93
547.72	2040.25
548.07	2048.07
548.43	2056.23
548.79	2064.24
549.14	2071.72
549.50	2078.95
549.86	2086.62
550.21	2093.71
550.57	2100.94
550.92	2107.54
551.28	2114.46
551.64	2121.47
551.99	2127.74
552.35	2133.80
552.70	2139.96
553.06	2145.91
553.41	2152.18
553.77	2158.13
554.13	2164.20
554.48	2170.27
554.84	2175.82
555.19	2181.25
555.55	2186.40
555.90	2190.84
556.26	2195.65
556.61	2200.44
556.97	2204.86
557.32	2208.93
557.68	2213.02
558.03	2217.31
558.39	2221.04
558.74	2225.72
559.10	2229.59
559.45	2233.28
559.81	2237.56
560.16	2241.33
560.52	2244.42
560.87	2247.94
561.23	2250.61
561.58	2253.36
561.94	2255.94
562.29	2258.29
562.64	2260.98
563.00	2263.53
563.35	2267.13
563.71	2270.31
564.06	2273.38
564.42	2276.15
564.77	2278.79
565.12	2281.33
565.48	2283.28
565.83	2285.18
566.19	2286.51
566.54	2287.47
566.89	2288.81
567.25	2289.46
567.60	2290.82
567.96	2292.49
568.31	2293.24
568.66	2294.52
569.02	2295.23
569.37	2295.44
569.72	2296.27
570.08	2296.35
570.43	2296.40
570.78	2295.72
571.14	2294.26
571.49	2293.09
571.84	2292.81
572.20	2291.78
572.55	2290.78
572.90	2289.24
573.26	2287.92
573.61	2286.34
573.96	2284.63
574.31	2281.54
574.67	2278.76
575.02	2275.21
575.37	2272.01
575.72	2268.37
576.08	2265.06
576.43	2261.73
576.78	2258.26
577.13	2255.29
577.49	2252.34
577.84	2248.91
578.19	2245.30
578.54	2241.76
578.90	2237.61
579.25	2232.14
579.60	2227.12
579.95	2222.18
580.30	2217.29
580.66	2212.11
581.01	2207.23
581.36	2202.51
581.71	2198.56
582.06	2194.02
582.42	2189.67
582.77	2184.51
583.12	2179.94
583.47	2175.18
583.82	2170.43
584.17	2165.18
584.53	2159.68
584.88	2154.10
585.23	2148.58
585.58	2143.25
585.93	2137.87
586.28	2133.12
586.63	2128.16
586.98	2123.17
587.34	2118.34
587.69	2113.50
588.04	2108.27
588.39	2102.57
588.74	2096.15
589.09	2090.00
589.44	2083.30
589.79	2077.40
590.14	2071.85
590.49	2065.31
590.84	2059.15
591.19	2053.11
591.54	2046.89
591.89	2039.54
592.25	2032.79
592.60	2025.48
592.95	2017.81
593.30	2010.42
593.65	2002.95
594.00	1995.93
594.35	1988.82
594.70	1980.99
595.05	1973.81
595.40	1966.60
595.75	1959.19
596.10	1953.11
596.45	1946.44
596.80	1940.41
597.15	1933.72
597.50	1926.67
597.85	1920.35
598.19	1913.63
598.54	1906.47
598.89	1899.68
599.24	1893.78
599.59	1887.14
599.94	1880.95
600.29	1874.68
600.64	1868.21
600.99	1860.64
601.34	1853.83
601.69	1846.88
602.04	1839.98
602.39	1832.64
602.74	1825.92
603.08	1819.25
603.43	1812.40
603.78	1805.06
604.13	1797.80
604.48	1790.55
604.83	1783.76
605.18	1776.76
605.53	1768.75
605.87	1760.79
606.22	1753.70
606.57	1745.83
606.92	1738.45
607.27	1731.41
607.62	1724.56
607.96	1717.25
608.31	1710.74
608.66	1703.16
609.01	1695.63
609.36	1688.07
609.70	1680.09
610.05	1671.98
610.40	1664.18
610.75	1655.84
611.10	1648.22
611.44	1639.80
611.79	1631.86
612.14	1623.19
612.49	1614.01
612.83	1605.63
613.18	1597.53
613.53	1589.34
613.88	1580.84
614.22	1572.63
614.57	1563.99
614.92	1556.04
615.27	1548.53
615.61	1540.27
615.96	1532.19
616.31	1524.64
616.65	1517.26
617.00	1509.77
617.35	1502.14
617.70	1493.91
618.04	1485.39
618.39	1477.17
618.74	1469.63
619.08	1461.36
619.43	1453.67
619.78	1446.84
620.12	1439.69
620.47	1432.10
620.82	1423.97
621.16	1416.57
621.51	1409.01
621.85	1401.30
622.20	1392.70
622.55	1384.25
622.89	1376.39
623.24	1368.85
623.59	1361.36
623.93	1353.97
624.28	1346.75
624.62	1339.23
624.97	1332.07
625.32	1325.34
625.66	1318.34
626.01	1311.08
626.35	1303.64
626.70	1295.97
627.04	1288.16
627.39	1280.35
627.73	1273.05
628.08	1266.17
628.43	1258.82
628.77	1251.39
629.12	1243.93
629.46	1236.82
629.81	1229.36
630.15	1222.10
630.50	1214.62
630.84	1206.36
631.19	1198.32
631.53	1190.73
631.88	1183.11
632.22	1175.47
632.57	1168.09
632.91	1160.53
633.26	1153.06
633.60	1145.61
633.95	1138.46
634.29	1131.53
634.64	1124.91
634.98	1117.39
635.32	1110.06
635.67	1103.46
636.01	1096.77
636.36	1089.91
636.70	1083.29
637.05	1076.83
637.39	1070.35
637.73	1063.82
638.08	1057.95
638.42	1051.88
638.77	1045.39
639.11	1038.81
639.45	1032.35
639.80	1025.76
640.14	1019.38
640.49	1012.83
640.83	1006.57
641.17	1000.32
641.52	993.85
641.86	987.39
642.20	981.63
642.55	975.46
642.89	968.89
643.23	962.34
643.58	956.61
643.92	950.48
644.26	944.37
644.61	938.30
644.95	932.29
645.29	925.64
645.64	918.94
645.98	912.65
646.32	906.81
646.66	900.83
647.01	895.04
647.35	889.29
647.69	883.53
648.04	877.93
648.38	872.12
648.72	866.16
649.06	860.03
649.41	854.17
649.75	848.14
650.09	842.25
650.43	836.49
650.78	830.36
651.12	824.35
651.46	818.66
651.80	812.94
652.14	807.56
652.49	802.33
652.83	797.19
653.17	791.48
653.51	785.76
653.85	780.39
654.20	774.74
654.54	768.79
654.88	762.96
655.22	757.09
655.56	751.45
655.90	746.02
656.25	740.85
656.59	735.52
656.93	730.45
657.27	725.40
657.61	720.02
657.95	714.92
658.29	709.84
658.64	704.57
658.98	699.24
659.32	693.80
659.66	688.46
660.00	683.12
660.34	678.18
660.68	673.27
661.02	668.17
661.36	663.49
661.70	658.93
662.05	654.60
662.39	650.28
662.73	645.82
663.07	641.45
663.41	636.99
663.75	632.43
664.09	627.86
664.43	623.37
664.77	619.21
665.11	614.98
665.45	610.90
665.79	606.80
666.13	602.65
666.47	598.51
666.81	594.41
667.15	590.28
667.49	586.36
667.83	582.57
668.17	578.65
668.51	574.49
668.85	570.52
669.19	566.68
669.53	562.82
669.87	558.91
670.21	555.20
670.55	551.54
670.89	548.08
671.23	544.66
671.57	541.11
671.91	537.54
672.25	533.99
672.58	530.44
672.92	527.03
673.26	523.93
673.60	520.75
673.94	517.64
674.28	514.76
674.62	511.83
674.96	508.66
675.30	505.74
675.64	502.82
675.97	499.97
676.31	497.10
676.65	494.12
676.99	491.41
677.33	488.49
677.67	485.63
678.01	482.62
678.34	479.62
678.68	476.75
679.02	473.90
679.36	471.16
679.70	468.36
680.04	465.63
680.37	462.66
680.71	459.87
681.05	457.20
681.39	454.46
681.73	451.75
682.06	449.21
682.40	446.64
682.74	444.09
683.08	441.54
683.42	438.93
683.75	436.44
684.09	433.88
684.43	431.38
684.77	428.89
685.10	426.53
685.44	424.22
685.78	421.91
686.12	419.68
686.45	417.36
686.79	415.10
687.13	412.84
687.46	410.65
687.80	408.51
688.14	406.30
688.48	404.22
688.81	401.96
689.15	399.82
689.49	397.67
689.82	395.62
690.16	393.52
690.50	391.59
690.83	389.65
691.17	387.64
691.51	385.76
691.84	383.95
692.18	382.03
692.52	380.03
692.85	378.10
693.19	376.25
693.52	374.42
693.86	372.60
694.20	370.84
694.53	369.06
694.87	367.21
695.21	365.47
695.54	363.67
695.88	361.98
696.21	360.29
696.55	358.61
696.88	356.97
697.22	355.35
697.56	353.71
697.89	352.05
698.23	350.51
698.56	348.90
698.90	347.30
699.23	345.64
699.57	344.13
699.90	342.62
700.24	341.06
700.58	339.54
700.91	338.06
701.25	336.61
701.58	335.31
701.92	333.95
702.25	332.50
702.59	331.13
702.92	329.76
703.26	328.44
703.59	327.17
703.93	325.94
704.26	324.69
704.60	323.40
704.93	322.13
705.26	320.85
705.60	319.66
705.93	318.51
706.27	317.49
706.60	316.38
706.94	315.31
707.27	314.16
707.61	313.11
707.94	312.08
708.27	311.00
708.61	309.88
708.94	308.85
709.28	307.91
709.61	306.97
709.94	306.05
710.28	305.03
710.61	304.04
710.95	302.96
711.28	302.06
711.61	301.13
711.95	300.18
712.28	299.28
712.61	298.31
712.95	297.38
713.28	296.51
713.61	295.66
713.95	294.76
714.28	293.94
714.61	293.09
714.95	292.22
715.28	291.37
715.61	290.52
715.95	289.68
716.28	288.86
716.61	287.98
716.95	287.18
717.28	286.47
717.61	285.71
717.94	284.92
718.28	284.08
718.61	283.31
718.94	282.64
719.27	281.93
719.61	281.32
719.94	280.66
720.27	279.91
720.60	279.25
720.94	278.59
721.27	277.99
721.60	277.36
721.93	276.78
722.27	276.19
722.60	275.65
722.93	275.09
723.26	274.54
723.59	273.97
723.93	273.38
724.26	272.77
724.59	272.20
724.92	271.70
725.25	271.25
725.59	270.71
725.92	270.21
726.25	269.70
726.58	269.17
726.91	268.71
727.24	268.27
727.57	267.77
727.91	267.26
728.24	266.77
728.57	266.31
728.90	265.81
729.23	265.33
729.56	264.86
729.89	264.39
730.22	263.89
730.55	263.49
730.89	263.05
731.22	262.61
731.55	262.16
731.88	261.74
732.21	261.30
732.54	260.89
732.87	260.47
733.20	260.08
733.53	259.70
733.86	259.30
734.19	258.86
734.52	258.51
734.85	258.20
735.18	257.79
735.51	257.45
735.84	257.10
736.17	256.78
736.50	256.40
736.83	256.15
737.16	255.84
737.49	255.48
737.82	255.13
738.15	254.86
738.48	254.54
738.81	254.20
739.14	253.87
739.47	253.55
739.80	253.20
740.13	252.91
740.46	252.56
740.79	252.23
741.12	251.92
741.45	251.54
741.78	251.21
742.11	250.91
742.44	250.58
742.77	250.28
743.10	250.00
743.43	249.68
743.75	249.30
744.08	249.13
744.41	248.85
744.74	248.60
745.07	248.31
745.40	248.05
745.73	247.84
746.06	247.55
746.39	247.31
746.71	247.04
747.04	246.75
747.37	246.50
747.70	246.24
748.03	245.98
748.36	245.81
748.68	245.60
749.01	245.38
749.34	245.14
749.67	244.90
750.00	244.66
750.33	244.51
750.65	244.30
750.98	243.94
751.31	243.70
751.64	243.46
751.97	243.28
752.29	243.07
752.62	242.81
752.95	242.62
753.28	242.43
753.60	242.23
753.93	242.07
754.26	241.84
754.59	241.64
754.91	241.47
755.24	241.27
755.57	241.06
755.90	240.86
756.22	240.68
756.55	240.50
756.88	240.29
757.20	240.06
757.53	239.86
757.86	239.72
758.19	239.58
758.51	239.45
758.84	239.23
759.17	239.03
759.49	238.85
759.82	238.73
760.15	238.53
760.47	238.40
760.80	238.22
761.13	238.11
761.45	237.96
761.78	237.77
762.11	237.60
762.43	237.42
762.76	237.29
763.08	237.16
763.41	237.03
763.74	236.92
764.06	236.78
764.39	236.65
764.71	236.49
765.04	236.34
765.37	236.16
765.69	236.06
766.02	235.97
766.34	235.83
766.67	235.65
767.00	235.57
767.32	235.49
767.65	235.43
767.97	235.32
768.30	235.19
768.62	235.10
768.95	234.99
769.27	234.89
769.60	234.81
769.92	234.66
770.25	234.54
770.57	234.42
770.90	234.31
771.22	234.21
771.55	234.13
771.87	234.02
772.20	233.92
772.52	233.91
772.85	233.91
773.17	233.86
773.50	233.77
773.82	233.68
774.15	233.53
774.47	233.40
774.80	233.27
775.12	233.22
775.45	233.12
775.77	233.01
776.09	232.93
776.42	232.83
776.74	232.82
777.07	232.71
777.39	232.62
777.72	232.54
778.04	232.48
778.36	232.39
778.69	232.33
779.01	232.29
779.33	232.09
779.66	231.93
779.98	231.82
780.31	231.76
780.63	231.73
780.95	231.70
781.28	231.64
781.60	231.59
781.92	231.54
782.25	231.49
782.57	231.46
782.89	231.40
783.22	231.32
783.54	231.21
783.86	231.20
784.19	231.15
784.51	231.13
784.83	231.07
785.16	231.02
785.48	230.98
785.80	230.94
786.12	230.91
786.45	230.88
786.77	230.85
787.09	230.80
787.42	230.72
787.74	230.67
788.06	230.61
788.38	230.58
788.71	230.52
789.03	230.51
789.35	230.48
789.67	230.47
789.99	230.48
790.32	230.45
790.64	230.44
790.96	230.50
791.28	230.44
791.61	230.41
791.93	230.38
792.25	230.35
792.57	230.36
792.89	230.31
793.21	230.27
793.54	230.24
793.86	230.18
794.18	230.17
794.50	230.12
794.82	230.08
795.14	230.04
795.47	230.03
795.79	229.97
796.11	229.92
796.43	229.86
796.75	229.82
797.07	229.78
797.39	229.72
797.71	229.61
798.04	229.58
798.36	229.54
798.68	229.51
799.00	229.50
799.32	229.46
799.64	229.45
799.96	229.40
800.28	229.41
800.60	229.38
800.92	229.35
801.24	229.33
801.56	229.32
801.89	229.29
802.21	229.25
802.53	229.22
802.85	229.21
803.17	229.24
803.49	229.18
803.81	229.14
804.13	229.12
804.45	229.08
804.77	229.04
805.09	229.04
805.41	228.99
805.73	228.93
806.05	228.86
806.37	228.84
806.69	228.82
807.01	228.73
807.33	228.73
807.65	228.65
807.97	228.65
808.28	228.61
808.60	228.58
808.92	228.56
809.24	228.58
809.56	228.52
809.88	228.44
810.20	228.42
810.52	228.42
810.84	228.36
811.16	228.33
811.48	228.31
811.80	228.28
812.12	228.25
812.43	228.23
812.75	228.19
813.07	228.15
813.39	228.11
813.71	228.10
814.03	228.04
814.35	228.01
814.67	227.97
814.98	227.97
815.30	227.95
815.62	227.91
815.94	227.80
816.26	227.85
816.58	227.82
816.89	227.79
817.21	227.75
817.53	227.73
817.85	227.72
818.17	227.68
818.48	227.65
818.80	227.63
819.12	227.59
819.44	227.57
819.76	227.55
820.07	227.53
820.39	227.50
820.71	227.51
821.03	227.53
821.34	227.48
821.66	227.41
821.98	227.39
822.30	227.33
822.61	227.41
822.93	227.33
823.25	227.30
823.57	227.27
823.88	227.28
824.20	227.25
824.52	227.26
824.83	227.27
825.15	227.24
825.47	227.26
825.79	227.26
826.10	227.27
826.42	227.26
826.74	227.25
827.05	227.26
827.37	227.27
827.69	227.22
828.00	227.24
828.32	227.25
828.64	227.22
828.95	227.30
829.27	227.22
829.58	227.21
829.90	227.22
830.22	227.26
830.53	227.20
830.85	227.18
831.17	227.11
831.48	227.08
831.80	227.10
832.11	227.07
832.43	227.07
832.75	226.99
833.06	227.04
833.38	227.01
833.69	227.02
834.01	227.00
834.32	227.01
834.64	226.99
834.96	226.98
835.27	227.02
835.59	227.01
835.90	227.05
836.22	227.07
836.53	227.07
836.85	227.04
837.16	227.15
837.48	227.14
837.79	227.22
838.11	227.21
838.42	227.20
838.74	227.22
839.05	227.19
839.37	227.26
839.68	227.21
840.00	227.24
840.31	227.23
840.63	227.24
840.94	227.26
841.26	227.29
841.57	227.31
841.88	227.29
842.20	227.26
842.51	227.26
842.83	227.28
843.14	227.36
843.46	227.36
843.77	227.30
844.08	227.28
844.40	227.21
844.71	227.23
845.03	227.20
845.34	227.21
845.65	227.22
845.97	227.20
846.28	227.20
846.60	227.19
846.91	227.16
847.22	227.12
847.54	227.05
847.85	227.05
848.16	227.03
848.48	227.02
848.79	227.02
849.10	226.98
849.42	226.95
849.73	226.81
850.04	226.81
850.36	226.77
850.67	226.81
850.98	226.83
851.30	226.80
851.61	226.78
851.92	226.75
852.23	226.78
852.55	226.75
852.86	226.71
853.17	226.68
853.49	226.67
853.80	226.68
854.11	226.72
854.42	226.68
854.74	226.64
855.05	226.61
855.36	226.55
855.67	226.52
855.99	226.50
856.30	226.63
856.61	226.63
856.92	226.64
857.23	226.63
857.55	226.60
857.86	226.62
858.17	226.64
858.48	226.62
858.79	226.55
859.11	226.56
859.42	226.55
859.73	226.53
860.04	226.55
860.35	226.51
860.66	226.51
860.98	226.52
861.29	226.54
861.60	226.54
861.91	226.55
862.22	226.55
862.53	226.53
862.84	226.43
863.16	226.43
863.47	226.38
863.78	226.37
864.09	226.37
864.40	226.37
864.71	226.36
865.02	226.38
865.33	226.40
865.64	226.42
865.95	226.40
866.27	226.47
866.58	226.45
866.89	226.48
867.20	226.44
867.51	226.39
867.82	226.36
868.13	226.36
868.44	226.36
868.75	226.36
869.06	226.37
869.37	226.38
869.68	226.32
869.99	226.34
870.30	226.34
870.61	226.36
870.92	226.31
871.23	226.32
871.54	226.31
871.85	226.32
872.16	226.31
872.47	226.35
872.78	226.30
873.09	226.32
873.40	226.29
873.71	226.31
874.02	226.38
874.33	226.41
874.64	226.41
874.95	226.43
875.26	226.42
875.56	226.42
875.87	226.42
876.18	226.45
876.49	226.55
876.80	226.54
877.11	226.55
877.42	226.55
877.73	226.52
878.04	226.50
878.35	226.52
878.66	226.52
878.96	226.48
879.27	226.48
879.58	226.44
879.89	226.46
880.20	226.49
880.51	226.47
880.82	226.45
881.12	226.45
881.43	226.42
881.74	226.41
882.05	226.42
882.36	226.42
882.67	226.42
882.97	226.32
883.28	226.35
883.59	226.31
883.90	226.34
884.21	226.36
884.51	226.35
884.82	226.31
885.13	226.33
885.44	226.36
885.74	226.33
886.05	226.34
886.36	226.31
886.67	226.25
886.98	226.29
887.28	226.31
887.59	226.32
887.90	226.35
888.20	226.35
888.51	226.35
888.82	226.37
889.13	226.35
889.43	226.45
889.74	226.42
890.05	226.44
890.35	226.42
890.66	226.39
890.97	226.39
891.28	226.37
891.58	226.32
891.89	226.33
892.20	226.36
892.50	226.34
892.81	226.32
893.12	226.34
893.42	226.29
893.73	226.26
894.04	226.25
894.34	226.24
894.65	226.25
894.95	226.24
895.26	226.22
895.57	226.27
895.87	226.19
896.18	226.19
896.48	226.18
896.79	226.19
897.10	226.18
897.40	226.20
897.71	226.22
898.01	226.22
898.32	226.20
898.63	226.18
898.93	226.20
899.24	226.21
899.54	226.23
899.85	226.19
900.15	226.22
900.46	226.21
900.76	226.20
901.07	226.22
901.38	226.20
901.68	226.17
901.99	226.11
902.29	226.11
902.60	226.11
902.90	226.11
903.21	226.09
903.51	226.13
903.82	226.15
904.12	226.15
904.43	226.19
904.73	226.20
905.03	226.22
905.34	226.32
905.64	226.36
905.95	226.35
906.25	226.38
906.56	226.38
906.86	226.40
907.17	226.40
907.47	226.39
907.77	226.42
908.08	226.43
908.38	226.42
908.69	226.44
908.99	226.45
909.30	226.45
909.60	226.47
909.90	226.46
910.21	226.41
910.51	226.39
910.81	226.38
911.12	226.37
911.42	226.33
911.73	226.20
912.03	226.18
912.33	226.18
912.64	226.19
912.94	226.17
913.24	226.13
913.55	226.14
913.85	226.13
914.15	226.12
914.46	226.13
914.76	226.12
915.06	226.10
915.37	226.09
915.67	226.10
915.97	226.08
916.27	226.06
916.58	226.06
916.88	226.05
917.18	226.03
917.49	226.12
917.79	226.15
918.09	226.19
918.39	226.24
918.70	226.25
919.00	226.22
919.30	226.28
919.60	226.30
919.91	226.28
920.21	226.28
920.51	226.26
920.81	226.26
921.12	226.29
921.42	226.30
921.72	226.32
922.02	226.32
922.32	226.30
922.63	226.31
922.93	226.36
923.23	226.39
923.53	226.41
923.83	226.35
924.13	226.36
924.44	226.34
924.74	226.34
925.04	226.34
925.34	226.36
925.64	226.31
925.94	226.29
926.24	226.36
926.55	226.36
926.85	226.37
927.15	226.37
927.45	226.35
927.75	226.34
928.05	226.28
928.35	226.29
928.65	226.31
928.95	226.34
929.26	226.34
929.56	226.35
929.86	226.36
930.16	226.32
930.46	226.33
930.76	226.35
931.06	226.30
931.36	226.27
931.66	226.28
931.96	226.30
932.26	226.32
932.56	226.23
932.86	226.20
933.16	226.16
933.46	226.14
933.76	226.12
934.06	226.16
934.36	226.21
934.66	226.17
934.96	226.18
935.26	226.17
935.56	226.16
935.86	226.13
936.16	226.09
936.46	226.09
936.76	226.07
937.06	226.04
937.36	226.02
937.66	226.04
937.96	226.04
938.26	226.00
938.56	226.00
938.86	226.01
939.16	226.07
939.46	226.10
939.76	226.11
940.06	226.09
940.35	226.06
940.65	226.02
940.95	226.04
941.25	226.02
941.55	226.05
941.85	226.04
942.15	226.07
942.45	226.10
942.75	226.09
943.04	226.09
943.34	226.12
943.64	226.13
943.94	226.10
944.24	226.08
944.54	226.07
944.84	226.04
945.13	226.04
945.43	226.01
945.73	226.02
946.03	226.03
946.33	226.02
946.62	226.01
946.92	226.00
947.22	225.99
947.52	226.00
947.82	225.97
948.11	225.95
948.41	225.90
948.71	225.89
949.01	225.90
949.31	225.90
949.60	225.84
949.90	225.84
950.20	225.82
950.50	225.82
950.79	225.83
951.09	225.83
951.39	225.83
951.69	225.82
951.98	225.84
952.28	225.84
952.58	225.85
952.87	225.84
953.17	225.87
953.47	225.88
953.76	225.88
954.06	225.86
954.36	225.86
954.66	225.85
954.95	225.88
955.25	225.89
955.55	225.89
955.84	225.90
956.14	225.92
956.44	226.00
956.73	225.98
957.03	225.95
957.32	226.00
957.62	226.03
957.92	226.05
958.21	226.03
958.51	226.13
958.81	226.12
959.10	226.14
959.40	226.16
959.69	226.17
959.99	226.17
960.29	226.17
960.58	226.13
960.88	226.20
961.17	226.21
961.47	226.24
961.76	226.24
962.06	226.26
962.36	226.25
962.65	226.23
962.95	226.24
963.24	226.25
963.54	226.25
963.83	226.22
964.13	226.22
964.42	226.21
964.72	226.14
965.01	226.18
965.31	226.20
965.60	226.18
965.90	226.21
966.19	226.18
966.49	226.20
966.78	226.22
967.08	226.18
967.37	226.17
967.67	226.16
967.96	226.16
968.26	226.14
968.55	226.16
968.85	226.13
969.14	226.13
969.43	226.14
969.73	226.11
970.02	226.10
970.32	226.07
970.61	226.05
970.91	225.98
971.20	225.93
971.49	225.89
971.79	225.89
972.08	225.84
972.38	225.86
972.67	225.84
972.96	225.87
973.26	225.86
973.55	225.88
973.85	225.86
974.14	225.85
974.43	225.84
974.73	225.82
975.02	225.81
975.31	225.83
975.61	225.85
975.90	225.84
976.19	225.81
976.49	225.83
976.78	225.83
977.07	225.85
977.37	225.86
977.66	225.87
977.95	225.86
978.24	225.87
978.54	225.88
978.83	225.85
979.12	225.82
979.42	225.82
979.71	225.77
980.00	225.76
980.29	225.75
980.59	225.76
980.88	225.76
981.17	225.75
981.46	225.72
981.76	225.73
982.05	225.76
982.34	225.79
982.63	225.79
982.93	225.84
983.22	225.87
983.51	225.87
983.80	225.89
984.09	225.85
984.39	225.85
984.68	225.84
984.97	225.88
985.26	225.87
985.55	225.87
985.85	225.86
986.14	225.87
986.43	225.90
986.72	225.87
987.01	225.87
987.30	225.89
987.59	225.91
987.89	225.88
988.18	225.85
988.47	225.86
988.76	225.83
989.05	225.78
989.34	225.79
989.63	225.86
989.92	225.83
990.22	225.85
990.51	225.85
990.80	225.84
991.09	225.83
991.38	225.86
991.67	225.85
991.96	225.87
992.25	225.84
992.54	225.83
992.83	225.83
993.12	225.83
993.41	225.85
993.70	225.85
993.99	225.88
994.28	225.90
994.58	225.90
994.87	225.92
995.16	225.93
995.45	225.91
995.74	225.85
996.03	225.89
996.32	225.90
996.61	225.90
996.90	225.91
997.19	225.90
997.48	225.89
997.77	225.88
998.06	225.89
998.34	225.90
998.63	225.88
998.92	225.89
999.21	225.88
999.50	225.88
999.79	225.86
1000.08	225.84
1000.37	225.82
1000.66	225.81
1000.95	225.83
1001.24	225.82
1001.53	225.79
1001.82	225.80
1002.11	225.78
1002.40	225.79
1002.68	225.83
1002.97	225.88
1003.26	225.86
1003.55	225.83
1003.84	225.84
1004.13	225.84
1004.42	225.82
1004.71	225.83
1004.99	225.84
1005.28	225.86
1005.57	225.84
1005.86	225.80
1006.15	225.80
1006.44	225.78
1006.72	225.78
1007.01	225.78
1007.30	225.79
1007.59	225.82
1007.88	225.82
1008.17	225.81
1008.45	225.76
1008.74	225.72
1009.03	225.68
1009.32	225.68
1009.60	225.70
1009.89	225.68
1010.18	225.66
1010.47	225.67
1010.76	225.69
1011.04	225.68
1011.33	225.71
1011.62	225.70
1011.91	225.72
1012.19	225.70
1012.48	225.71
1012.77	225.74
1013.05	225.79
1013.34	225.79
1013.63	225.77
1013.92	225.79
1014.20	225.78
1014.49	225.83
1014.78	225.82
1015.06	225.77
1015.35	225.82
1015.64	225.81
1015.92	225.83
1016.21	225.86
1016.50	225.83
1016.78	225.85
1017.07	225.86
1017.36	225.82
1017.64	225.84
1017.93	225.87
1018.22	225.89
1018.50	225.90
1018.79	225.89
1019.08	225.85
1019.36	225.87
1019.65	225.83
1019.93	225.81
1020.22	225.84
1020.51	225.88
1020.79	225.90
1021.08	225.77
1021.36	225.92
1021.65	225.92
1021.94	226.07
1022.22	226.20
1022.51	225.07
1022.79	225.97
1023.08	226.21
1023.36	226.97
1023.65	225.93
>>>>>End Processed Spectral Data<<<<<
