SpectraSuite Data File
++++++++++++++++++++++++++++++++++++
Date: Fri Feb 01 15:50:49 EST 2013
User: group
Dark Spectrum Present: No
Reference Spectrum Present: No
Number of Sampled Component Spectra: 1
Spectrometers: USB2E7196
Integration Time (usec): 35000 (USB2E7196)
Spectra Averaged: 100 (USB2E7196)
Boxcar Smoothing: 10 (USB2E7196)
Correct for Electrical Dark: No (USB2E7196)
Strobe/Lamp Enabled: No (USB2E7196)
Correct for Detector Non-linearity: No (USB2E7196)
Correct for Stray Light: No (USB2E7196)
Number of Pixels in Processed Spectrum: 2048
>>>>>Begin Processed Spectral Data<<<<<
339.09	0.00
339.48	215.13
339.86	216.41
340.24	217.84
340.63	219.04
341.01	221.33
341.39	222.26
341.78	222.69
342.16	224.64
342.54	225.49
342.93	213.38
343.31	224.15
343.69	224.70
344.07	225.15
344.46	225.58
344.84	225.97
345.22	226.22
345.60	226.47
345.99	226.68
346.37	226.80
346.75	226.88
347.13	226.93
347.52	226.99
347.90	227.06
348.28	227.11
348.66	227.14
349.05	227.12
349.43	227.14
349.81	227.16
350.19	227.20
350.57	227.28
350.96	227.36
351.34	227.47
351.72	227.57
352.10	227.65
352.48	227.74
352.87	227.78
353.25	227.87
353.63	227.92
354.01	227.99
354.39	228.06
354.77	228.13
355.15	228.21
355.54	228.28
355.92	228.29
356.30	228.31
356.68	228.44
357.06	228.51
357.44	228.58
357.82	228.63
358.20	228.68
358.58	228.72
358.97	228.78
359.35	228.83
359.73	228.87
360.11	228.93
360.49	228.96
360.87	229.02
361.25	229.05
361.63	229.12
362.01	229.15
362.39	229.21
362.77	229.23
363.15	229.24
363.53	229.22
363.91	229.26
364.29	229.27
364.67	229.21
365.05	229.21
365.43	229.23
365.81	229.25
366.19	229.30
366.57	229.34
366.95	229.31
367.33	229.28
367.71	229.25
368.09	229.26
368.47	229.21
368.85	229.15
369.23	229.14
369.61	229.06
369.99	229.04
370.37	228.96
370.75	228.98
371.13	228.90
371.51	228.85
371.89	228.79
372.27	228.76
372.65	228.67
373.03	228.60
373.41	228.51
373.78	228.43
374.16	228.32
374.54	228.21
374.92	228.14
375.30	228.05
375.68	227.98
376.06	227.91
376.44	227.86
376.82	227.81
377.19	227.72
377.57	227.65
377.95	227.56
378.33	227.52
378.71	227.38
379.09	227.35
379.47	227.32
379.84	227.26
380.22	227.19
380.60	227.11
380.98	227.06
381.36	227.01
381.73	226.95
382.11	226.89
382.49	226.86
382.87	226.78
383.25	226.74
383.62	226.77
384.00	226.66
384.38	226.59
384.76	226.55
385.13	226.56
385.51	226.52
385.89	226.47
386.27	226.39
386.64	226.39
387.02	226.35
387.40	226.30
387.78	226.26
388.15	226.22
388.53	226.20
388.91	226.16
389.29	226.17
389.66	226.15
390.04	226.12
390.42	226.11
390.79	226.12
391.17	226.10
391.55	226.01
391.92	226.08
392.30	226.09
392.68	226.10
393.05	226.10
393.43	226.12
393.81	226.12
394.18	226.15
394.56	226.17
394.94	226.21
395.31	226.22
395.69	226.31
396.06	226.36
396.44	226.40
396.82	226.48
397.19	226.58
397.57	226.61
397.95	226.69
398.32	226.77
398.70	226.81
399.07	226.89
399.45	226.95
399.82	226.97
400.20	227.04
400.58	227.12
400.95	227.15
401.33	227.23
401.70	227.38
402.08	227.50
402.45	227.60
402.83	227.70
403.20	227.84
403.58	227.92
403.95	228.08
404.33	228.22
404.71	228.31
405.08	228.46
405.46	228.62
405.83	228.76
406.21	228.85
406.58	229.04
406.96	229.24
407.33	229.43
407.70	229.63
408.08	229.90
408.45	230.11
408.83	230.38
409.20	230.59
409.58	230.77
409.95	230.98
410.33	231.23
410.70	231.48
411.08	231.75
411.45	232.07
411.82	232.34
412.20	232.68
412.57	233.12
412.95	233.41
413.32	233.79
413.69	234.21
414.07	234.65
414.44	235.09
414.82	235.54
415.19	236.10
415.56	236.66
415.94	237.22
416.31	237.84
416.68	238.42
417.06	239.14
417.43	239.84
417.81	240.63
418.18	241.41
418.55	242.23
418.93	243.09
419.30	243.91
419.67	244.84
420.04	245.79
420.42	246.76
420.79	247.94
421.16	249.13
421.54	250.29
421.91	251.52
422.28	252.79
422.66	254.15
423.03	255.44
423.40	256.76
423.77	258.16
424.15	259.60
424.52	261.08
424.89	262.68
425.26	264.22
425.64	265.65
426.01	267.26
426.38	268.89
426.75	270.57
427.13	272.34
427.50	274.17
427.87	276.03
428.24	277.90
428.61	279.62
428.99	281.53
429.36	283.64
429.73	285.70
430.10	287.72
430.47	289.76
430.85	291.88
431.22	294.13
431.59	296.50
431.96	298.75
432.33	301.27
432.70	303.71
433.08	306.52
433.45	309.22
433.82	311.83
434.19	314.74
434.56	317.59
434.93	320.28
435.30	322.93
435.68	325.80
436.05	328.62
436.42	331.44
436.79	333.97
437.16	336.71
437.53	339.51
437.90	342.31
438.27	345.06
438.64	347.89
439.01	350.46
439.38	352.71
439.75	354.91
440.13	357.41
440.50	359.77
440.87	361.65
441.24	363.60
441.61	365.73
441.98	367.19
442.35	368.99
442.72	370.84
443.09	372.61
443.46	373.63
443.83	374.23
444.20	374.74
444.57	375.60
444.94	375.87
445.31	376.26
445.68	376.60
446.05	376.68
446.42	376.27
446.79	375.93
447.16	375.47
447.53	375.10
447.90	373.91
448.27	372.72
448.64	371.12
449.01	369.95
449.37	368.02
449.74	366.15
450.11	363.90
450.48	361.42
450.85	358.88
451.22	356.78
451.59	354.80
451.96	352.81
452.33	350.21
452.70	347.84
453.07	344.97
453.43	342.05
453.80	339.28
454.17	336.65
454.54	334.05
454.91	331.32
455.28	328.64
455.65	326.16
456.02	323.68
456.38	321.53
456.75	318.85
457.12	316.59
457.49	314.39
457.86	312.19
458.23	310.32
458.59	308.33
458.96	306.19
459.33	304.33
459.70	302.49
460.07	300.97
460.43	299.27
460.80	297.69
461.17	296.28
461.54	294.77
461.91	293.33
462.27	291.85
462.64	290.61
463.01	289.27
463.38	288.00
463.74	286.60
464.11	285.44
464.48	284.41
464.85	283.31
465.21	282.44
465.58	281.53
465.95	280.45
466.32	279.50
466.68	278.61
467.05	277.70
467.42	276.80
467.78	275.87
468.15	274.98
468.52	274.32
468.88	273.46
469.25	272.70
469.62	272.06
469.98	271.40
470.35	270.79
470.72	270.17
471.08	269.47
471.45	268.99
471.82	268.43
472.18	267.83
472.55	267.36
472.92	266.80
473.28	266.30
473.65	265.83
474.02	265.41
474.38	265.05
474.75	264.72
475.11	264.36
475.48	264.11
475.85	263.86
476.21	263.61
476.58	263.44
476.94	263.33
477.31	263.17
477.67	263.05
478.04	262.92
478.41	262.90
478.77	262.94
479.14	262.86
479.50	262.87
479.87	262.94
480.23	263.04
480.60	263.14
480.96	263.28
481.33	263.52
481.69	263.72
482.06	263.92
482.42	264.11
482.79	264.38
483.15	264.72
483.52	265.10
483.88	265.47
484.25	265.86
484.61	266.24
484.98	266.74
485.34	267.26
485.71	267.86
486.07	268.47
486.44	269.07
486.80	269.78
487.17	270.51
487.53	271.33
487.90	272.21
488.26	273.18
488.62	274.14
488.99	275.11
489.35	276.13
489.72	277.24
490.08	278.45
490.44	279.73
490.81	281.00
491.17	282.37
491.54	283.86
491.90	285.40
492.26	287.05
492.63	288.74
492.99	290.55
493.36	292.46
493.72	294.47
494.08	296.57
494.45	298.81
494.81	301.18
495.17	303.63
495.54	306.18
495.90	308.85
496.26	311.62
496.63	314.57
496.99	317.69
497.35	320.97
497.72	324.37
498.08	327.88
498.44	331.58
498.80	335.48
499.17	339.45
499.53	343.64
499.89	347.99
500.26	352.50
500.62	357.17
500.98	362.10
501.34	367.23
501.71	372.53
502.07	377.96
502.43	383.56
502.79	389.39
503.16	395.43
503.52	401.70
503.88	408.14
504.24	414.77
504.60	421.67
504.97	428.80
505.33	436.14
505.69	443.77
506.05	451.57
506.41	459.48
506.78	467.71
507.14	476.20
507.50	484.96
507.86	493.96
508.22	503.06
508.59	512.27
508.95	521.82
509.31	531.67
509.67	541.84
510.03	552.11
510.39	562.63
510.75	573.45
511.12	584.34
511.48	595.67
511.84	607.10
512.20	618.63
512.56	630.51
512.92	642.72
513.28	655.09
513.64	667.55
514.00	680.23
514.37	693.09
514.73	706.06
515.09	719.09
515.45	732.40
515.81	746.04
516.17	760.05
516.53	774.15
516.89	788.33
517.25	802.44
517.61	816.83
517.97	831.28
518.33	845.66
518.69	860.44
519.05	875.40
519.41	890.65
519.77	906.23
520.13	921.70
520.49	936.98
520.85	952.47
521.21	968.17
521.57	984.44
521.93	1000.20
522.29	1016.63
522.65	1032.81
523.01	1049.08
523.37	1065.09
523.73	1081.17
524.09	1097.27
524.45	1113.55
524.81	1130.16
525.17	1146.99
525.53	1163.88
525.89	1180.77
526.25	1197.66
526.61	1214.01
526.97	1230.60
527.33	1247.01
527.68	1263.66
528.04	1280.30
528.40	1296.97
528.76	1314.07
529.12	1330.65
529.48	1347.62
529.84	1363.64
530.20	1380.37
530.56	1397.27
530.91	1414.74
531.27	1431.55
531.63	1448.03
531.99	1464.62
532.35	1480.57
532.71	1496.49
533.07	1512.75
533.42	1528.56
533.78	1544.57
534.14	1560.86
534.50	1576.18
534.86	1591.96
535.21	1607.18
535.57	1622.99
535.93	1638.30
536.29	1653.06
536.65	1668.11
537.00	1682.93
537.36	1698.20
537.72	1712.77
538.08	1727.18
538.44	1740.89
538.79	1754.79
539.15	1768.40
539.51	1782.05
539.87	1796.43
540.22	1810.12
540.58	1823.88
540.94	1837.33
541.29	1850.13
541.65	1862.83
542.01	1876.07
542.37	1888.32
542.72	1900.52
543.08	1912.29
543.44	1924.67
543.79	1935.91
544.15	1946.94
544.51	1958.38
544.87	1969.26
545.22	1979.87
545.58	1990.06
545.94	1999.80
546.29	2009.48
546.65	2019.34
547.01	2028.59
547.36	2037.32
547.72	2045.73
548.07	2053.57
548.43	2061.81
548.79	2069.83
549.14	2077.33
549.50	2084.74
549.86	2092.48
550.21	2099.84
550.57	2107.05
550.92	2113.55
551.28	2120.60
551.64	2127.56
551.99	2134.10
552.35	2140.32
552.70	2146.45
553.06	2152.47
553.41	2158.89
553.77	2164.98
554.13	2171.09
554.48	2177.34
554.84	2182.60
555.19	2188.00
555.55	2193.02
555.90	2197.41
556.26	2202.38
556.61	2207.17
556.97	2211.38
557.32	2215.59
557.68	2219.77
558.03	2224.13
558.39	2227.91
558.74	2232.44
559.10	2236.40
559.45	2239.90
559.81	2244.21
560.16	2248.17
560.52	2251.34
560.87	2254.72
561.23	2257.39
561.58	2260.31
561.94	2262.67
562.29	2265.12
562.64	2267.68
563.00	2270.23
563.35	2273.68
563.71	2276.75
564.06	2279.94
564.42	2282.81
564.77	2285.34
565.12	2287.52
565.48	2289.25
565.83	2291.21
566.19	2292.49
566.54	2293.43
566.89	2294.62
567.25	2295.15
567.60	2296.40
567.96	2298.10
568.31	2298.93
568.66	2300.00
569.02	2300.58
569.37	2300.93
569.72	2301.91
570.08	2301.94
570.43	2302.12
570.78	2301.50
571.14	2299.99
571.49	2298.62
571.84	2298.33
572.20	2297.15
572.55	2296.11
572.90	2294.62
573.26	2293.24
573.61	2291.63
573.96	2289.61
574.31	2286.82
574.67	2283.88
575.02	2280.19
575.37	2276.86
575.72	2273.16
576.08	2269.88
576.43	2266.68
576.78	2263.00
577.13	2259.73
577.49	2256.93
577.84	2253.33
578.19	2249.68
578.54	2245.98
578.90	2241.70
579.25	2236.03
579.60	2231.11
579.95	2226.09
580.30	2221.10
580.66	2215.93
581.01	2210.90
581.36	2206.17
581.71	2201.86
582.06	2197.31
582.42	2192.89
582.77	2187.56
583.12	2182.88
583.47	2178.06
583.82	2172.80
584.17	2167.50
584.53	2162.04
584.88	2156.25
585.23	2150.66
585.58	2145.17
585.93	2139.68
586.28	2134.92
586.63	2129.94
586.98	2124.82
587.34	2120.25
587.69	2115.33
588.04	2109.93
588.39	2104.40
588.74	2097.88
589.09	2091.66
589.44	2084.92
589.79	2078.92
590.14	2073.48
590.49	2066.96
590.84	2060.71
591.19	2054.75
591.54	2048.38
591.89	2040.84
592.25	2034.06
592.60	2026.68
592.95	2019.05
593.30	2011.73
593.65	2004.09
594.00	1997.04
594.35	1989.82
594.70	1981.57
595.05	1974.29
595.40	1967.13
595.75	1959.61
596.10	1953.28
596.45	1946.57
596.80	1940.36
597.15	1933.57
597.50	1926.31
597.85	1919.86
598.19	1913.30
598.54	1906.24
598.89	1899.67
599.24	1893.94
599.59	1887.08
599.94	1881.14
600.29	1874.80
600.64	1868.17
600.99	1860.80
601.34	1853.90
601.69	1846.90
602.04	1840.13
602.39	1832.78
602.74	1825.90
603.08	1818.97
603.43	1812.33
603.78	1804.97
604.13	1797.83
604.48	1790.59
604.83	1783.73
605.18	1776.66
605.53	1768.51
605.87	1760.50
606.22	1753.23
606.57	1745.30
606.92	1738.15
607.27	1730.77
607.62	1723.87
607.96	1716.64
608.31	1710.01
608.66	1702.48
609.01	1694.84
609.36	1687.30
609.70	1679.16
610.05	1671.08
610.40	1663.55
610.75	1655.15
611.10	1647.59
611.44	1639.06
611.79	1631.14
612.14	1622.44
612.49	1613.28
612.83	1605.00
613.18	1596.88
613.53	1588.74
613.88	1580.17
614.22	1571.87
614.57	1563.39
614.92	1555.29
615.27	1547.72
615.61	1539.21
615.96	1531.13
616.31	1523.56
616.65	1516.21
617.00	1508.80
617.35	1501.14
617.70	1492.73
618.04	1484.31
618.39	1476.06
618.74	1468.56
619.08	1460.24
619.43	1452.73
619.78	1445.94
620.12	1438.62
620.47	1431.12
620.82	1422.96
621.16	1415.55
621.51	1408.06
621.85	1400.42
622.20	1392.01
622.55	1383.75
622.89	1376.07
623.24	1368.51
623.59	1361.28
623.93	1353.64
624.28	1346.41
624.62	1338.89
624.97	1331.71
625.32	1325.00
625.66	1317.98
626.01	1310.76
626.35	1303.34
626.70	1295.65
627.04	1287.89
627.39	1280.27
627.73	1272.78
628.08	1265.90
628.43	1258.55
628.77	1251.14
629.12	1243.38
629.46	1236.26
629.81	1228.74
630.15	1221.55
630.50	1214.11
630.84	1205.70
631.19	1197.89
631.53	1190.37
631.88	1182.76
632.22	1175.13
632.57	1167.77
632.91	1160.18
633.26	1152.65
633.60	1145.26
633.95	1138.20
634.29	1131.20
634.64	1124.44
634.98	1117.04
635.32	1109.85
635.67	1103.30
636.01	1096.58
636.36	1089.93
636.70	1083.24
637.05	1076.67
637.39	1070.12
637.73	1063.54
638.08	1057.76
638.42	1051.75
638.77	1045.29
639.11	1038.79
639.45	1032.43
639.80	1025.71
640.14	1019.35
640.49	1012.91
640.83	1006.63
641.17	1000.25
641.52	993.86
641.86	987.43
642.20	981.50
642.55	975.20
642.89	968.71
643.23	962.17
643.58	956.30
643.92	950.24
644.26	944.14
644.61	938.14
644.95	932.20
645.29	925.57
645.64	918.89
645.98	912.58
646.32	906.75
646.66	900.62
647.01	894.83
647.35	889.15
647.69	883.41
648.04	877.80
648.38	872.02
648.72	865.94
649.06	859.91
649.41	854.14
649.75	848.19
650.09	842.27
650.43	836.51
650.78	830.38
651.12	824.33
651.46	818.65
651.80	812.87
652.14	807.40
652.49	802.05
652.83	796.82
653.17	791.10
653.51	785.32
653.85	780.03
654.20	774.42
654.54	768.35
654.88	762.54
655.22	756.71
655.56	751.00
655.90	745.61
656.25	740.38
656.59	735.05
656.93	729.96
657.27	724.82
657.61	719.41
657.95	714.33
658.29	709.30
658.64	704.10
658.98	698.82
659.32	693.37
659.66	688.19
660.00	682.84
660.34	677.89
660.68	673.00
661.02	667.97
661.36	663.29
661.70	658.84
662.05	654.51
662.39	650.27
662.73	645.84
663.07	641.48
663.41	636.95
663.75	632.47
664.09	627.92
664.43	623.55
664.77	619.35
665.11	615.12
665.45	610.97
665.79	606.88
666.13	602.73
666.47	598.72
666.81	594.52
667.15	590.42
667.49	586.51
667.83	582.64
668.17	578.72
668.51	574.59
668.85	570.58
669.19	566.75
669.53	562.82
669.87	558.92
670.21	555.22
670.55	551.57
670.89	548.13
671.23	544.64
671.57	541.07
671.91	537.56
672.25	534.06
672.58	530.57
672.92	527.11
673.26	524.00
673.60	520.81
673.94	517.67
674.28	514.80
674.62	511.87
674.96	508.82
675.30	505.86
675.64	502.96
675.97	500.16
676.31	497.26
676.65	494.33
676.99	491.67
677.33	488.79
677.67	485.98
678.01	482.95
678.34	479.96
678.68	477.12
679.02	474.23
679.36	471.44
679.70	468.70
680.04	465.97
680.37	463.09
680.71	460.31
681.05	457.70
681.39	454.93
681.73	452.28
682.06	449.74
682.40	447.16
682.74	444.60
683.08	442.03
683.42	439.39
683.75	436.89
684.09	434.33
684.43	431.84
684.77	429.39
685.10	427.02
685.44	424.73
685.78	422.41
686.12	420.22
686.45	417.92
686.79	415.60
687.13	413.39
687.46	411.19
687.80	409.05
688.14	406.86
688.48	404.79
688.81	402.55
689.15	400.43
689.49	398.34
689.82	396.29
690.16	394.18
690.50	392.30
690.83	390.36
691.17	388.36
691.51	386.47
691.84	384.64
692.18	382.71
692.52	380.75
692.85	378.80
693.19	376.94
693.52	375.14
693.86	373.35
694.20	371.60
694.53	369.83
694.87	367.98
695.21	366.21
695.54	364.44
695.88	362.77
696.21	361.07
696.55	359.34
696.88	357.68
697.22	356.06
697.56	354.40
697.89	352.73
698.23	351.13
698.56	349.54
698.90	347.94
699.23	346.28
699.57	344.71
699.90	343.24
700.24	341.73
700.58	340.20
700.91	338.73
701.25	337.28
701.58	335.89
701.92	334.56
702.25	333.17
702.59	331.83
702.92	330.47
703.26	329.14
703.59	327.90
703.93	326.74
704.26	325.49
704.60	324.19
704.93	322.94
705.26	321.72
705.60	320.54
705.93	319.40
706.27	318.41
706.60	317.38
706.94	316.27
707.27	315.13
707.61	314.09
707.94	313.06
708.27	311.96
708.61	310.89
708.94	309.86
709.28	308.89
709.61	307.91
709.94	306.95
710.28	305.92
710.61	304.95
710.95	303.85
711.28	302.96
711.61	302.01
711.95	301.11
712.28	300.14
712.61	299.17
712.95	298.19
713.28	297.32
713.61	296.40
713.95	295.53
714.28	294.66
714.61	293.78
714.95	292.91
715.28	292.05
715.61	291.17
715.95	290.30
716.28	289.43
716.61	288.59
716.95	287.75
717.28	286.99
717.61	286.21
717.94	285.48
718.28	284.67
718.61	283.98
718.94	283.26
719.27	282.61
719.61	281.97
719.94	281.34
720.27	280.60
720.60	279.95
720.94	279.33
721.27	278.73
721.60	278.13
721.93	277.55
722.27	277.02
722.60	276.47
722.93	275.89
723.26	275.34
723.59	274.78
723.93	274.25
724.26	273.70
724.59	273.13
724.92	272.62
725.25	272.11
725.59	271.57
725.92	271.07
726.25	270.54
726.58	270.02
726.91	269.51
727.24	269.04
727.57	268.55
727.91	268.00
728.24	267.52
728.57	267.07
728.90	266.61
729.23	266.10
729.56	265.65
729.89	265.18
730.22	264.71
730.55	264.26
730.89	263.78
731.22	263.34
731.55	262.93
731.88	262.51
732.21	262.07
732.54	261.66
732.87	261.23
733.20	260.83
733.53	260.48
733.86	260.14
734.19	259.77
734.52	259.40
734.85	259.12
735.18	258.72
735.51	258.36
735.84	257.99
736.17	257.69
736.50	257.30
736.83	257.06
737.16	256.72
737.49	256.38
737.82	256.06
738.15	255.75
738.48	255.39
738.81	255.07
739.14	254.78
739.47	254.44
739.80	254.13
740.13	253.85
740.46	253.50
740.79	253.19
741.12	252.85
741.45	252.56
741.78	252.20
742.11	251.91
742.44	251.56
742.77	251.29
743.10	250.97
743.43	250.71
743.75	250.37
744.08	250.24
744.41	249.99
744.74	249.73
745.07	249.45
745.40	249.24
745.73	249.05
746.06	248.77
746.39	248.53
746.71	248.23
747.04	247.96
747.37	247.74
747.70	247.47
748.03	247.22
748.36	246.99
748.68	246.80
749.01	246.59
749.34	246.39
749.67	246.15
750.00	245.95
750.33	245.77
750.65	245.54
750.98	245.19
751.31	244.96
751.64	244.76
751.97	244.59
752.29	244.39
752.62	244.07
752.95	243.82
753.28	243.62
753.60	243.45
753.93	243.27
754.26	243.06
754.59	242.85
754.91	242.64
755.24	242.43
755.57	242.19
755.90	242.01
756.22	241.78
756.55	241.58
756.88	241.39
757.20	241.13
757.53	240.93
757.86	240.77
758.19	240.59
758.51	240.38
758.84	240.14
759.17	239.91
759.49	239.76
759.82	239.64
760.15	239.47
760.47	239.31
760.80	239.14
761.13	239.01
761.45	238.84
761.78	238.69
762.11	238.55
762.43	238.42
762.76	238.24
763.08	238.13
763.41	237.99
763.74	237.83
764.06	237.71
764.39	237.56
764.71	237.40
765.04	237.24
765.37	237.12
765.69	237.01
766.02	236.89
766.34	236.79
766.67	236.65
767.00	236.56
767.32	236.48
767.65	236.38
767.97	236.26
768.30	236.13
768.62	236.03
768.95	235.89
769.27	235.78
769.60	235.69
769.92	235.55
770.25	235.42
770.57	235.27
770.90	235.14
771.22	235.03
771.55	234.96
771.87	234.88
772.20	234.78
772.52	234.79
772.85	234.82
773.17	234.72
773.50	234.62
773.82	234.53
774.15	234.39
774.47	234.25
774.80	234.10
775.12	234.01
775.45	233.91
775.77	233.86
776.09	233.75
776.42	233.66
776.74	233.64
777.07	233.57
777.39	233.54
777.72	233.47
778.04	233.44
778.36	233.37
778.69	233.29
779.01	233.21
779.33	233.03
779.66	232.86
779.98	232.79
780.31	232.70
780.63	232.70
780.95	232.68
781.28	232.62
781.60	232.57
781.92	232.54
782.25	232.53
782.57	232.46
782.89	232.42
783.22	232.37
783.54	232.28
783.86	232.24
784.19	232.18
784.51	232.16
784.83	232.08
785.16	232.03
785.48	232.02
785.80	232.01
786.12	231.98
786.45	231.90
786.77	231.85
787.09	231.79
787.42	231.68
787.74	231.65
788.06	231.61
788.38	231.59
788.71	231.54
789.03	231.49
789.35	231.45
789.67	231.40
789.99	231.38
790.32	231.33
790.64	231.29
790.96	231.32
791.28	231.29
791.61	231.27
791.93	231.24
792.25	231.19
792.57	231.22
792.89	231.17
793.21	231.19
793.54	231.19
793.86	231.15
794.18	231.10
794.50	231.05
794.82	231.02
795.14	231.00
795.47	230.97
795.79	230.91
796.11	230.85
796.43	230.81
796.75	230.75
797.07	230.72
797.39	230.70
797.71	230.62
798.04	230.55
798.36	230.49
798.68	230.43
799.00	230.41
799.32	230.29
799.64	230.28
799.96	230.22
800.28	230.17
800.60	230.14
800.92	230.11
801.24	230.08
801.56	230.06
801.89	230.03
802.21	229.99
802.53	229.92
802.85	229.93
803.17	229.92
803.49	229.87
803.81	229.82
804.13	229.78
804.45	229.70
804.77	229.68
805.09	229.66
805.41	229.64
805.73	229.57
806.05	229.55
806.37	229.50
806.69	229.47
807.01	229.44
807.33	229.41
807.65	229.36
807.97	229.36
808.28	229.31
808.60	229.25
808.92	229.21
809.24	229.29
809.56	229.24
809.88	229.20
810.20	229.19
810.52	229.21
810.84	229.17
811.16	229.17
811.48	229.14
811.80	229.13
812.12	229.10
812.43	229.09
812.75	229.04
813.07	229.02
813.39	228.99
813.71	228.97
814.03	228.94
814.35	228.94
814.67	228.87
814.98	228.84
815.30	228.81
815.62	228.80
815.94	228.70
816.26	228.74
816.58	228.67
816.89	228.65
817.21	228.59
817.53	228.58
817.85	228.53
818.17	228.49
818.48	228.43
818.80	228.39
819.12	228.35
819.44	228.33
819.76	228.27
820.07	228.24
820.39	228.21
820.71	228.21
821.03	228.20
821.34	228.17
821.66	228.18
821.98	228.18
822.30	228.15
822.61	228.21
822.93	228.11
823.25	228.12
823.57	228.11
823.88	228.12
824.20	228.11
824.52	228.11
824.83	228.14
825.15	228.12
825.47	228.15
825.79	228.16
826.10	228.15
826.42	228.14
826.74	228.14
827.05	228.12
827.37	228.09
827.69	228.04
828.00	228.05
828.32	228.06
828.64	228.04
828.95	228.11
829.27	228.05
829.58	228.06
829.90	228.05
830.22	228.06
830.53	228.01
830.85	227.99
831.17	228.00
831.48	227.95
831.80	227.95
832.11	227.92
832.43	227.89
832.75	227.91
833.06	227.95
833.38	227.96
833.69	227.94
834.01	227.95
834.32	227.96
834.64	227.95
834.96	227.92
835.27	227.90
835.59	227.87
835.90	227.87
836.22	227.85
836.53	227.87
836.85	227.85
837.16	227.97
837.48	227.93
837.79	227.97
838.11	227.98
838.42	227.97
838.74	227.99
839.05	228.03
839.37	228.01
839.68	227.96
840.00	227.94
840.31	227.95
840.63	227.93
840.94	227.94
841.26	227.91
841.57	227.89
841.88	227.90
842.20	227.87
842.51	227.84
842.83	227.83
843.14	227.90
843.46	227.89
843.77	227.79
844.08	227.83
844.40	227.74
844.71	227.76
845.03	227.74
845.34	227.73
845.65	227.70
845.97	227.67
846.28	227.67
846.60	227.65
846.91	227.61
847.22	227.62
847.54	227.61
847.85	227.63
848.16	227.60
848.48	227.58
848.79	227.61
849.10	227.62
849.42	227.65
849.73	227.53
850.04	227.51
850.36	227.51
850.67	227.52
850.98	227.54
851.30	227.48
851.61	227.48
851.92	227.48
852.23	227.51
852.55	227.50
852.86	227.52
853.17	227.54
853.49	227.58
853.80	227.58
854.11	227.57
854.42	227.57
854.74	227.59
855.05	227.57
855.36	227.52
855.67	227.52
855.99	227.49
856.30	227.62
856.61	227.64
856.92	227.61
857.23	227.60
857.55	227.59
857.86	227.64
858.17	227.65
858.48	227.63
858.79	227.57
859.11	227.58
859.42	227.57
859.73	227.57
860.04	227.54
860.35	227.53
860.66	227.51
860.98	227.51
861.29	227.50
861.60	227.51
861.91	227.50
862.22	227.48
862.53	227.44
862.84	227.31
863.16	227.29
863.47	227.28
863.78	227.29
864.09	227.32
864.40	227.28
864.71	227.29
865.02	227.30
865.33	227.28
865.64	227.25
865.95	227.24
866.27	227.28
866.58	227.27
866.89	227.24
867.20	227.23
867.51	227.21
867.82	227.19
868.13	227.22
868.44	227.21
868.75	227.24
869.06	227.30
869.37	227.30
869.68	227.30
869.99	227.31
870.30	227.31
870.61	227.29
870.92	227.27
871.23	227.25
871.54	227.28
871.85	227.34
872.16	227.39
872.47	227.37
872.78	227.30
873.09	227.33
873.40	227.33
873.71	227.36
874.02	227.37
874.33	227.38
874.64	227.37
874.95	227.39
875.26	227.38
875.56	227.33
875.87	227.31
876.18	227.30
876.49	227.41
876.80	227.39
877.11	227.36
877.42	227.36
877.73	227.35
878.04	227.30
878.35	227.28
878.66	227.24
878.96	227.25
879.27	227.24
879.58	227.21
879.89	227.22
880.20	227.25
880.51	227.24
880.82	227.22
881.12	227.18
881.43	227.15
881.74	227.13
882.05	227.11
882.36	227.11
882.67	227.13
882.97	227.04
883.28	227.02
883.59	227.04
883.90	227.07
884.21	227.11
884.51	227.11
884.82	227.07
885.13	227.05
885.44	227.05
885.74	227.05
886.05	227.07
886.36	227.04
886.67	227.01
886.98	227.04
887.28	227.06
887.59	227.05
887.90	227.06
888.20	227.03
888.51	227.05
888.82	227.08
889.13	227.06
889.43	227.14
889.74	227.14
890.05	227.13
890.35	227.09
890.66	227.05
890.97	227.03
891.28	227.05
891.58	227.13
891.89	227.11
892.20	227.13
892.50	227.11
892.81	227.15
893.12	227.14
893.42	227.11
893.73	227.15
894.04	227.20
894.34	227.23
894.65	227.25
894.95	227.24
895.26	227.27
895.57	227.33
895.87	227.25
896.18	227.26
896.48	227.27
896.79	227.28
897.10	227.31
897.40	227.33
897.71	227.36
898.01	227.29
898.32	227.30
898.63	227.29
898.93	227.32
899.24	227.30
899.54	227.29
899.85	227.28
900.15	227.25
900.46	227.23
900.76	227.21
901.07	227.20
901.38	227.22
901.68	227.21
901.99	227.14
902.29	227.12
902.60	227.10
902.90	227.07
903.21	227.10
903.51	227.10
903.82	227.10
904.12	227.07
904.43	227.07
904.73	227.08
905.03	227.09
905.34	227.19
905.64	227.17
905.95	227.19
906.25	227.18
906.56	227.18
906.86	227.14
907.17	227.14
907.47	227.16
907.77	227.15
908.08	227.10
908.38	227.12
908.69	227.11
908.99	227.13
909.30	227.15
909.60	227.13
909.90	227.11
910.21	227.09
910.51	227.08
910.81	227.08
911.12	227.07
911.42	227.05
911.73	226.93
912.03	226.94
912.33	226.96
912.64	226.95
912.94	226.93
913.24	226.92
913.55	226.92
913.85	226.91
914.15	226.93
914.46	226.97
914.76	226.90
915.06	226.91
915.37	226.89
915.67	226.89
915.97	226.90
916.27	226.88
916.58	226.90
916.88	226.90
917.18	226.91
917.49	226.99
917.79	226.97
918.09	226.99
918.39	226.99
918.70	226.97
919.00	226.99
919.30	227.03
919.60	227.04
919.91	227.02
920.21	227.01
920.51	226.97
920.81	226.95
921.12	227.00
921.42	226.98
921.72	227.00
922.02	226.95
922.32	226.93
922.63	226.93
922.93	226.95
923.23	226.96
923.53	226.94
923.83	226.89
924.13	226.91
924.44	226.88
924.74	226.90
925.04	226.90
925.34	226.90
925.64	226.86
925.94	226.87
926.24	226.92
926.55	226.91
926.85	226.92
927.15	226.93
927.45	226.90
927.75	226.91
928.05	226.89
928.35	226.90
928.65	226.92
928.95	226.93
929.26	226.91
929.56	226.92
929.86	226.92
930.16	226.91
930.46	226.91
930.76	226.92
931.06	226.90
931.36	226.89
931.66	226.92
931.96	226.94
932.26	226.92
932.56	226.88
932.86	226.89
933.16	226.90
933.46	226.90
933.76	226.89
934.06	226.95
934.36	227.00
934.66	227.05
934.96	227.06
935.26	227.07
935.56	227.09
935.86	227.08
936.16	227.09
936.46	227.07
936.76	227.08
937.06	227.08
937.36	227.09
937.66	227.07
937.96	227.06
938.26	227.03
938.56	227.01
938.86	227.02
939.16	227.02
939.46	227.05
939.76	227.04
940.06	227.06
940.35	227.02
940.65	227.00
940.95	226.99
941.25	226.96
941.55	226.93
941.85	226.93
942.15	226.95
942.45	226.96
942.75	226.94
943.04	226.92
943.34	226.92
943.64	226.91
943.94	226.94
944.24	226.92
944.54	226.94
944.84	226.96
945.13	226.96
945.43	226.96
945.73	226.95
946.03	226.92
946.33	226.91
946.62	226.90
946.92	226.87
947.22	226.87
947.52	226.86
947.82	226.88
948.11	226.87
948.41	226.83
948.71	226.81
949.01	226.86
949.31	226.86
949.60	226.84
949.90	226.87
950.20	226.87
950.50	226.85
950.79	226.85
951.09	226.86
951.39	226.85
951.69	226.81
951.98	226.84
952.28	226.86
952.58	226.85
952.87	226.85
953.17	226.84
953.47	226.84
953.76	226.82
954.06	226.78
954.36	226.73
954.66	226.71
954.95	226.71
955.25	226.70
955.55	226.69
955.84	226.68
956.14	226.69
956.44	226.68
956.73	226.68
957.03	226.69
957.32	226.69
957.62	226.69
957.92	226.71
958.21	226.67
958.51	226.78
958.81	226.81
959.10	226.77
959.40	226.81
959.69	226.80
959.99	226.83
960.29	226.84
960.58	226.85
960.88	226.88
961.17	226.87
961.47	226.84
961.76	226.84
962.06	226.84
962.36	226.82
962.65	226.79
962.95	226.80
963.24	226.76
963.54	226.79
963.83	226.78
964.13	226.76
964.42	226.75
964.72	226.66
965.01	226.63
965.31	226.64
965.60	226.61
965.90	226.66
966.19	226.65
966.49	226.67
966.78	226.65
967.08	226.66
967.37	226.68
967.67	226.70
967.96	226.73
968.26	226.75
968.55	226.75
968.85	226.75
969.14	226.74
969.43	226.76
969.73	226.72
970.02	226.74
970.32	226.75
970.61	226.77
970.91	226.72
971.20	226.71
971.49	226.72
971.79	226.72
972.08	226.66
972.38	226.66
972.67	226.66
972.96	226.73
973.26	226.72
973.55	226.73
973.85	226.75
974.14	226.72
974.43	226.72
974.73	226.69
975.02	226.69
975.31	226.71
975.61	226.70
975.90	226.68
976.19	226.66
976.49	226.66
976.78	226.63
977.07	226.65
977.37	226.68
977.66	226.68
977.95	226.68
978.24	226.68
978.54	226.70
978.83	226.71
979.12	226.69
979.42	226.71
979.71	226.71
980.00	226.69
980.29	226.70
980.59	226.68
980.88	226.70
981.17	226.74
981.46	226.75
981.76	226.76
982.05	226.76
982.34	226.76
982.63	226.80
982.93	226.81
983.22	226.82
983.51	226.82
983.80	226.87
984.09	226.89
984.39	226.87
984.68	226.85
984.97	226.85
985.26	226.84
985.55	226.84
985.85	226.80
986.14	226.81
986.43	226.81
986.72	226.82
987.01	226.77
987.30	226.73
987.59	226.71
987.89	226.73
988.18	226.72
988.47	226.69
988.76	226.66
989.05	226.65
989.34	226.64
989.63	226.64
989.92	226.58
990.22	226.54
990.51	226.54
990.80	226.52
991.09	226.49
991.38	226.47
991.67	226.46
991.96	226.46
992.25	226.45
992.54	226.43
992.83	226.41
993.12	226.43
993.41	226.46
993.70	226.51
993.99	226.50
994.28	226.49
994.58	226.54
994.87	226.54
995.16	226.57
995.45	226.54
995.74	226.52
996.03	226.55
996.32	226.58
996.61	226.61
996.90	226.60
997.19	226.62
997.48	226.66
997.77	226.65
998.06	226.63
998.34	226.63
998.63	226.64
998.92	226.65
999.21	226.69
999.50	226.67
999.79	226.63
1000.08	226.62
1000.37	226.65
1000.66	226.63
1000.95	226.66
1001.24	226.65
1001.53	226.70
1001.82	226.71
1002.11	226.70
1002.40	226.72
1002.68	226.73
1002.97	226.80
1003.26	226.81
1003.55	226.76
1003.84	226.73
1004.13	226.77
1004.42	226.78
1004.71	226.80
1004.99	226.82
1005.28	226.82
1005.57	226.85
1005.86	226.85
1006.15	226.90
1006.44	226.89
1006.72	226.91
1007.01	226.85
1007.30	226.89
1007.59	226.87
1007.88	226.87
1008.17	226.88
1008.45	226.86
1008.74	226.82
1009.03	226.81
1009.32	226.81
1009.60	226.87
1009.89	226.90
1010.18	226.85
1010.47	226.83
1010.76	226.80
1011.04	226.80
1011.33	226.80
1011.62	226.79
1011.91	226.83
1012.19	226.82
1012.48	226.82
1012.77	226.81
1013.05	226.88
1013.34	226.85
1013.63	226.88
1013.92	226.89
1014.20	226.88
1014.49	226.89
1014.78	226.92
1015.06	226.88
1015.35	226.87
1015.64	226.84
1015.92	226.85
1016.21	226.89
1016.50	226.93
1016.78	226.96
1017.07	226.97
1017.36	226.95
1017.64	226.92
1017.93	226.88
1018.22	226.86
1018.50	226.86
1018.79	226.88
1019.08	226.84
1019.36	226.87
1019.65	226.85
1019.93	226.87
1020.22	226.88
1020.51	226.90
1020.79	226.90
1021.08	226.86
1021.36	226.56
1021.65	226.94
1021.94	227.19
1022.22	227.01
1022.51	226.87
1022.79	227.53
1023.08	226.95
1023.36	227.35
1023.65	226.63
>>>>>End Processed Spectral Data<<<<<
