SpectraSuite Data File
++++++++++++++++++++++++++++++++++++
Date: Fri Feb 01 15:19:47 EST 2013
User: group
Dark Spectrum Present: No
Reference Spectrum Present: No
Number of Sampled Component Spectra: 1
Spectrometers: USB2E7196
Integration Time (usec): 35000 (USB2E7196)
Spectra Averaged: 100 (USB2E7196)
Boxcar Smoothing: 10 (USB2E7196)
Correct for Electrical Dark: No (USB2E7196)
Strobe/Lamp Enabled: No (USB2E7196)
Correct for Detector Non-linearity: No (USB2E7196)
Correct for Stray Light: No (USB2E7196)
Number of Pixels in Processed Spectrum: 2048
>>>>>Begin Processed Spectral Data<<<<<
339.09	0.00
339.48	215.57
339.86	216.44
340.24	218.33
340.63	219.34
341.01	222.65
341.39	222.31
341.78	222.99
342.16	224.57
342.54	225.32
342.93	213.32
343.31	224.11
343.69	224.61
344.07	225.07
344.46	225.49
344.84	225.89
345.22	226.08
345.60	226.31
345.99	226.50
346.37	226.60
346.75	226.67
347.13	226.76
347.52	226.85
347.90	226.94
348.28	226.98
348.66	227.02
349.05	227.02
349.43	227.09
349.81	227.15
350.19	227.24
350.57	227.32
350.96	227.40
351.34	227.50
351.72	227.58
352.10	227.68
352.48	227.71
352.87	227.75
353.25	227.84
353.63	227.91
354.01	228.00
354.39	228.11
354.77	228.19
355.15	228.30
355.54	228.32
355.92	228.35
356.30	228.45
356.68	228.60
357.06	228.71
357.44	228.80
357.82	228.88
358.20	228.95
358.58	229.02
358.97	229.10
359.35	229.17
359.73	229.25
360.11	229.31
360.49	229.41
360.87	229.46
361.25	229.51
361.63	229.58
362.01	229.62
362.39	229.67
362.77	229.72
363.15	229.73
363.53	229.78
363.91	229.79
364.29	229.79
364.67	229.71
365.05	229.69
365.43	229.69
365.81	229.69
366.19	229.73
366.57	229.74
366.95	229.72
367.33	229.68
367.71	229.68
368.09	229.71
368.47	229.64
368.85	229.60
369.23	229.58
369.61	229.52
369.99	229.52
370.37	229.45
370.75	229.45
371.13	229.39
371.51	229.33
371.89	229.29
372.27	229.25
372.65	229.20
373.03	229.16
373.41	229.09
373.78	229.02
374.16	228.90
374.54	228.83
374.92	228.74
375.30	228.67
375.68	228.57
376.06	228.47
376.44	228.42
376.82	228.39
377.19	228.33
377.57	228.25
377.95	228.15
378.33	228.08
378.71	227.97
379.09	227.90
379.47	227.81
379.84	227.72
380.22	227.63
380.60	227.56
380.98	227.49
381.36	227.38
381.73	227.25
382.11	227.20
382.49	227.13
382.87	227.07
383.25	226.99
383.62	227.04
384.00	226.97
384.38	226.92
384.76	226.86
385.13	226.83
385.51	226.76
385.89	226.70
386.27	226.67
386.64	226.65
387.02	226.60
387.40	226.55
387.78	226.53
388.15	226.50
388.53	226.43
388.91	226.39
389.29	226.41
389.66	226.45
390.04	226.41
390.42	226.43
390.79	226.44
391.17	226.42
391.55	226.32
391.92	226.33
392.30	226.33
392.68	226.33
393.05	226.35
393.43	226.36
393.81	226.40
394.18	226.38
394.56	226.39
394.94	226.44
395.31	226.49
395.69	226.55
396.06	226.61
396.44	226.67
396.82	226.70
397.19	226.80
397.57	226.85
397.95	226.95
398.32	226.98
398.70	227.03
399.07	227.12
399.45	227.17
399.82	227.27
400.20	227.37
400.58	227.44
400.95	227.49
401.33	227.61
401.70	227.76
402.08	227.89
402.45	227.99
402.83	228.11
403.20	228.23
403.58	228.35
403.95	228.50
404.33	228.61
404.71	228.77
405.08	228.96
405.46	229.09
405.83	229.21
406.21	229.34
406.58	229.53
406.96	229.70
407.33	229.87
407.70	230.05
408.08	230.28
408.45	230.50
408.83	230.73
409.20	230.93
409.58	231.12
409.95	231.36
410.33	231.63
410.70	231.87
411.08	232.20
411.45	232.50
411.82	232.78
412.20	233.16
412.57	233.54
412.95	233.80
413.32	234.20
413.69	234.63
414.07	235.06
414.44	235.47
414.82	235.96
415.19	236.52
415.56	237.08
415.94	237.67
416.31	238.33
416.68	238.94
417.06	239.66
417.43	240.32
417.81	241.10
418.18	241.91
418.55	242.76
418.93	243.58
419.30	244.45
419.67	245.40
420.04	246.35
420.42	247.36
420.79	248.53
421.16	249.69
421.54	250.88
421.91	252.10
422.28	253.38
422.66	254.73
423.03	256.03
423.40	257.28
423.77	258.66
424.15	260.03
424.52	261.51
424.89	263.10
425.26	264.66
425.64	266.09
426.01	267.66
426.38	269.31
426.75	270.99
427.13	272.73
427.50	274.56
427.87	276.43
428.24	278.27
428.61	280.01
428.99	281.95
429.36	284.06
429.73	286.11
430.10	288.12
430.47	290.16
430.85	292.26
431.22	294.56
431.59	296.95
431.96	299.26
432.33	301.78
432.70	304.16
433.08	307.01
433.45	309.67
433.82	312.29
434.19	315.14
434.56	318.01
434.93	320.68
435.30	323.27
435.68	326.15
436.05	329.00
436.42	331.82
436.79	334.35
437.16	337.05
437.53	339.90
437.90	342.78
438.27	345.55
438.64	348.35
439.01	350.97
439.38	353.22
439.75	355.40
440.13	357.90
440.50	360.23
440.87	362.08
441.24	364.03
441.61	366.17
441.98	367.71
442.35	369.51
442.72	371.41
443.09	373.23
443.46	374.25
443.83	374.87
444.20	375.42
444.57	376.26
444.94	376.61
445.31	376.97
445.68	377.33
446.05	377.44
446.42	377.10
446.79	376.65
447.16	376.20
447.53	375.82
447.90	374.67
448.27	373.51
448.64	371.89
449.01	370.73
449.37	368.79
449.74	366.85
450.11	364.55
450.48	362.03
450.85	359.46
451.22	357.31
451.59	355.28
451.96	353.30
452.33	350.66
452.70	348.23
453.07	345.36
453.43	342.38
453.80	339.52
454.17	336.85
454.54	334.31
454.91	331.59
455.28	328.94
455.65	326.43
456.02	323.95
456.38	321.79
456.75	319.13
457.12	316.85
457.49	314.62
457.86	312.47
458.23	310.63
458.59	308.61
458.96	306.56
459.33	304.67
459.70	302.77
460.07	301.28
460.43	299.58
460.80	297.97
461.17	296.50
461.54	295.04
461.91	293.56
462.27	292.11
462.64	290.82
463.01	289.45
463.38	288.17
463.74	286.84
464.11	285.67
464.48	284.61
464.85	283.49
465.21	282.61
465.58	281.65
465.95	280.54
466.32	279.61
466.68	278.68
467.05	277.77
467.42	276.92
467.78	275.98
468.15	275.11
468.52	274.42
468.88	273.55
469.25	272.76
469.62	272.13
469.98	271.43
470.35	270.81
470.72	270.21
471.08	269.53
471.45	268.95
471.82	268.40
472.18	267.78
472.55	267.32
472.92	266.79
473.28	266.36
473.65	265.90
474.02	265.46
474.38	265.07
474.75	264.77
475.11	264.39
475.48	264.12
475.85	263.84
476.21	263.61
476.58	263.49
476.94	263.35
477.31	263.20
477.67	263.06
478.04	262.94
478.41	262.86
478.77	262.89
479.14	262.84
479.50	262.86
479.87	262.94
480.23	263.06
480.60	263.13
480.96	263.21
481.33	263.39
481.69	263.61
482.06	263.80
482.42	263.98
482.79	264.27
483.15	264.61
483.52	265.00
483.88	265.39
484.25	265.74
484.61	266.20
484.98	266.66
485.34	267.24
485.71	267.82
486.07	268.46
486.44	269.04
486.80	269.76
487.17	270.50
487.53	271.31
487.90	272.16
488.26	273.10
488.62	274.05
488.99	275.04
489.35	276.09
489.72	277.21
490.08	278.44
490.44	279.70
490.81	281.03
491.17	282.39
491.54	283.86
491.90	285.42
492.26	287.06
492.63	288.81
492.99	290.58
493.36	292.50
493.72	294.55
494.08	296.64
494.45	298.91
494.81	301.30
495.17	303.77
495.54	306.34
495.90	309.07
496.26	311.92
496.63	314.89
496.99	318.01
497.35	321.26
497.72	324.63
498.08	328.15
498.44	331.84
498.80	335.73
499.17	339.74
499.53	343.88
499.89	348.25
500.26	352.68
500.62	357.31
500.98	362.27
501.34	367.31
501.71	372.63
502.07	378.09
502.43	383.62
502.79	389.43
503.16	395.49
503.52	401.73
503.88	408.06
504.24	414.68
504.60	421.54
504.97	428.68
505.33	435.97
505.69	443.61
506.05	451.33
506.41	459.30
506.78	467.47
507.14	475.91
507.50	484.61
507.86	493.65
508.22	502.87
508.59	512.04
508.95	521.62
509.31	531.37
509.67	541.45
510.03	551.78
510.39	562.32
510.75	573.11
511.12	584.07
511.48	595.35
511.84	606.80
512.20	618.30
512.56	630.28
512.92	642.53
513.28	654.83
513.64	667.30
514.00	679.92
514.37	692.81
514.73	705.96
515.09	719.03
515.45	732.35
515.81	745.87
516.17	759.88
516.53	774.03
516.89	788.31
517.25	802.45
517.61	816.96
517.97	831.34
518.33	845.85
518.69	860.62
519.05	875.78
519.41	891.02
519.77	906.52
520.13	921.96
520.49	937.34
520.85	952.81
521.21	968.65
521.57	984.96
521.93	1000.77
522.29	1017.21
522.65	1033.58
523.01	1049.88
523.37	1066.06
523.73	1082.35
524.09	1098.54
524.45	1114.89
524.81	1131.60
525.17	1148.55
525.53	1165.62
525.89	1182.52
526.25	1199.45
526.61	1215.81
526.97	1232.58
527.33	1249.19
527.68	1265.96
528.04	1282.50
528.40	1299.29
528.76	1316.36
529.12	1333.10
529.48	1350.11
529.84	1366.12
530.20	1382.77
530.56	1399.89
530.91	1417.45
531.27	1434.19
531.63	1450.65
531.99	1467.35
532.35	1483.43
532.71	1499.20
533.07	1515.52
533.42	1531.37
533.78	1547.47
534.14	1563.92
534.50	1579.29
534.86	1595.27
535.21	1610.48
535.57	1626.72
535.93	1642.22
536.29	1657.12
536.65	1672.21
537.00	1687.20
537.36	1702.61
537.72	1717.29
538.08	1731.67
538.44	1745.31
538.79	1759.35
539.15	1773.24
539.51	1786.87
539.87	1801.32
540.22	1815.26
540.58	1829.14
540.94	1842.75
541.29	1855.87
541.65	1868.60
542.01	1881.89
542.37	1894.26
542.72	1906.79
543.08	1918.34
543.44	1930.88
543.79	1942.12
544.15	1953.29
544.51	1964.71
544.87	1975.83
545.22	1986.60
545.58	1996.87
545.94	2006.81
546.29	2016.69
546.65	2026.43
547.01	2035.81
547.36	2044.59
547.72	2052.99
548.07	2060.82
548.43	2068.98
548.79	2076.98
549.14	2084.41
549.50	2091.83
549.86	2099.60
550.21	2106.86
550.57	2114.17
550.92	2120.72
551.28	2127.80
551.64	2134.74
551.99	2141.41
552.35	2147.56
552.70	2153.63
553.06	2159.67
553.41	2166.09
553.77	2172.17
554.13	2178.28
554.48	2184.40
554.84	2189.67
555.19	2195.12
555.55	2200.32
555.90	2204.77
556.26	2209.49
556.61	2214.31
556.97	2218.40
557.32	2222.56
557.68	2226.68
558.03	2230.83
558.39	2234.60
558.74	2239.39
559.10	2243.31
559.45	2246.81
559.81	2251.09
560.16	2254.98
560.52	2258.05
560.87	2261.35
561.23	2263.94
561.58	2266.94
561.94	2269.55
562.29	2272.11
562.64	2274.66
563.00	2277.21
563.35	2280.82
563.71	2283.90
564.06	2287.05
564.42	2290.05
564.77	2292.48
565.12	2294.63
565.48	2296.54
565.83	2298.23
566.19	2299.32
566.54	2300.31
566.89	2301.43
567.25	2301.91
567.60	2303.20
567.96	2304.82
568.31	2305.64
568.66	2306.59
569.02	2307.02
569.37	2307.19
569.72	2307.79
570.08	2307.77
570.43	2307.77
570.78	2306.84
571.14	2305.36
571.49	2304.00
571.84	2303.67
572.20	2302.35
572.55	2301.25
572.90	2299.66
573.26	2298.19
573.61	2296.51
573.96	2294.41
574.31	2291.35
574.67	2288.19
575.02	2284.48
575.37	2281.08
575.72	2277.09
576.08	2273.75
576.43	2270.30
576.78	2266.60
577.13	2263.53
577.49	2260.48
577.84	2256.85
578.19	2253.18
578.54	2249.43
578.90	2245.14
579.25	2239.43
579.60	2234.47
579.95	2229.49
580.30	2224.44
580.66	2219.40
581.01	2214.49
581.36	2209.65
581.71	2205.46
582.06	2200.98
582.42	2196.47
582.77	2191.21
583.12	2186.63
583.47	2181.75
583.82	2176.68
584.17	2171.27
584.53	2165.73
584.88	2160.14
585.23	2154.22
585.58	2148.58
585.93	2143.14
586.28	2138.26
586.63	2133.04
586.98	2127.87
587.34	2123.27
587.69	2118.40
588.04	2112.88
588.39	2106.99
588.74	2100.35
589.09	2094.09
589.44	2087.22
589.79	2081.21
590.14	2075.54
590.49	2068.94
590.84	2062.59
591.19	2056.56
591.54	2050.09
591.89	2042.48
592.25	2035.44
592.60	2028.23
592.95	2020.54
593.30	2013.09
593.65	2005.48
594.00	1998.37
594.35	1991.09
594.70	1982.78
595.05	1975.26
595.40	1968.01
595.75	1960.45
596.10	1954.14
596.45	1947.38
596.80	1941.19
597.15	1934.34
597.50	1927.05
597.85	1920.47
598.19	1913.62
598.54	1906.21
598.89	1899.44
599.24	1893.56
599.59	1886.75
599.94	1880.53
600.29	1874.23
600.64	1867.54
600.99	1859.89
601.34	1852.99
601.69	1845.99
602.04	1838.94
602.39	1831.60
602.74	1824.71
603.08	1817.86
603.43	1811.14
603.78	1803.77
604.13	1796.45
604.48	1789.03
604.83	1782.22
605.18	1775.23
605.53	1767.21
605.87	1759.39
606.22	1752.18
606.57	1744.20
606.92	1736.77
607.27	1729.42
607.62	1722.45
607.96	1715.15
608.31	1708.50
608.66	1700.83
609.01	1693.18
609.36	1685.63
609.70	1677.64
610.05	1669.37
610.40	1661.70
610.75	1653.30
611.10	1645.48
611.44	1637.03
611.79	1629.12
612.14	1620.48
612.49	1611.38
612.83	1603.17
613.18	1595.11
613.53	1587.04
613.88	1578.44
614.22	1570.19
614.57	1561.78
614.92	1553.64
615.27	1545.94
615.61	1537.64
615.96	1529.75
616.31	1522.24
616.65	1514.86
617.00	1507.30
617.35	1499.79
617.70	1491.43
618.04	1482.94
618.39	1474.92
618.74	1467.38
619.08	1459.07
619.43	1451.50
619.78	1444.57
620.12	1437.26
620.47	1429.60
620.82	1421.45
621.16	1414.11
621.51	1406.59
621.85	1398.86
622.20	1390.39
622.55	1382.18
622.89	1374.40
623.24	1366.77
623.59	1359.37
623.93	1351.86
624.28	1344.58
624.62	1337.01
624.97	1329.82
625.32	1323.03
625.66	1315.92
626.01	1308.63
626.35	1301.10
626.70	1293.38
627.04	1285.64
627.39	1277.93
627.73	1270.53
628.08	1263.63
628.43	1256.29
628.77	1248.95
629.12	1241.38
629.46	1234.19
629.81	1226.72
630.15	1219.48
630.50	1212.13
630.84	1203.92
631.19	1196.05
631.53	1188.61
631.88	1180.99
632.22	1173.34
632.57	1166.03
632.91	1158.54
633.26	1151.31
633.60	1144.11
633.95	1137.05
634.29	1130.06
634.64	1123.44
634.98	1116.14
635.32	1109.02
635.67	1102.47
636.01	1095.80
636.36	1089.12
636.70	1082.77
637.05	1076.28
637.39	1069.89
637.73	1063.28
638.08	1057.41
638.42	1051.45
638.77	1044.97
639.11	1038.44
639.45	1032.15
639.80	1025.54
640.14	1019.09
640.49	1012.49
640.83	1006.26
641.17	999.90
641.52	993.63
641.86	987.18
642.20	981.38
642.55	975.07
642.89	968.60
643.23	962.13
643.58	956.29
643.92	949.99
644.26	943.79
644.61	937.77
644.95	931.71
645.29	925.08
645.64	918.29
645.98	912.01
646.32	906.19
646.66	900.17
647.01	894.33
647.35	888.61
647.69	882.82
648.04	877.23
648.38	871.52
648.72	865.39
649.06	859.31
649.41	853.41
649.75	847.31
650.09	841.28
650.43	835.43
650.78	829.19
651.12	823.15
651.46	817.49
651.80	811.61
652.14	806.27
652.49	800.89
652.83	795.75
653.17	789.99
653.51	784.23
653.85	778.80
654.20	773.16
654.54	767.12
654.88	761.38
655.22	755.41
655.56	749.70
655.90	744.28
656.25	739.04
656.59	733.67
656.93	728.60
657.27	723.41
657.61	717.92
657.95	712.92
658.29	707.91
658.64	702.68
658.98	697.49
659.32	692.00
659.66	686.84
660.00	681.53
660.34	676.63
660.68	671.76
661.02	666.72
661.36	661.99
661.70	657.56
662.05	653.15
662.39	648.81
662.73	644.32
663.07	639.98
663.41	635.50
663.75	631.02
664.09	626.52
664.43	622.17
664.77	618.12
665.11	613.83
665.45	609.70
665.79	605.61
666.13	601.44
666.47	597.32
666.81	593.12
667.15	589.04
667.49	585.14
667.83	581.35
668.17	577.45
668.51	573.47
668.85	569.50
669.19	565.76
669.53	561.94
669.87	558.10
670.21	554.42
670.55	550.77
670.89	547.36
671.23	543.99
671.57	540.55
671.91	537.04
672.25	533.59
672.58	530.11
672.92	526.72
673.26	523.61
673.60	520.50
673.94	517.33
674.28	514.36
674.62	511.43
674.96	508.29
675.30	505.36
675.64	502.42
675.97	499.62
676.31	496.66
676.65	493.71
676.99	491.05
677.33	488.21
677.67	485.46
678.01	482.39
678.34	479.38
678.68	476.47
679.02	473.63
679.36	470.88
679.70	468.16
680.04	465.43
680.37	462.52
680.71	459.79
681.05	457.26
681.39	454.60
681.73	451.99
682.06	449.49
682.40	446.97
682.74	444.45
683.08	441.94
683.42	439.39
683.75	436.93
684.09	434.41
684.43	431.99
684.77	429.54
685.10	427.24
685.44	424.92
685.78	422.68
686.12	420.53
686.45	418.23
686.79	415.94
687.13	413.79
687.46	411.67
687.80	409.55
688.14	407.37
688.48	405.32
688.81	403.03
689.15	400.85
689.49	398.74
689.82	396.66
690.16	394.51
690.50	392.54
690.83	390.60
691.17	388.59
691.51	386.67
691.84	384.84
692.18	382.90
692.52	380.95
692.85	379.02
693.19	377.10
693.52	375.29
693.86	373.51
694.20	371.71
694.53	369.92
694.87	368.05
695.21	366.22
695.54	364.38
695.88	362.70
696.21	361.03
696.55	359.33
696.88	357.64
697.22	356.02
697.56	354.41
697.89	352.74
698.23	351.11
698.56	349.46
698.90	347.81
699.23	346.13
699.57	344.58
699.90	343.03
700.24	341.47
700.58	339.92
700.91	338.41
701.25	336.99
701.58	335.59
701.92	334.26
702.25	332.90
702.59	331.55
702.92	330.20
703.26	328.91
703.59	327.63
703.93	326.46
704.26	325.21
704.60	323.94
704.93	322.70
705.26	321.44
705.60	320.28
705.93	319.15
706.27	318.15
706.60	317.08
706.94	315.99
707.27	314.88
707.61	313.83
707.94	312.82
708.27	311.70
708.61	310.61
708.94	309.58
709.28	308.59
709.61	307.64
709.94	306.68
710.28	305.59
710.61	304.65
710.95	303.61
711.28	302.70
711.61	301.74
711.95	300.82
712.28	299.91
712.61	298.94
712.95	297.98
713.28	297.10
713.61	296.22
713.95	295.34
714.28	294.53
714.61	293.70
714.95	292.86
715.28	292.04
715.61	291.20
715.95	290.34
716.28	289.51
716.61	288.69
716.95	287.93
717.28	287.25
717.61	286.47
717.94	285.73
718.28	284.95
718.61	284.26
718.94	283.57
719.27	282.90
719.61	282.24
719.94	281.61
720.27	280.88
720.60	280.22
720.94	279.61
721.27	278.98
721.60	278.43
721.93	277.85
722.27	277.30
722.60	276.78
722.93	276.21
723.26	275.69
723.59	275.12
723.93	274.54
724.26	273.96
724.59	273.40
724.92	272.88
725.25	272.39
725.59	271.87
725.92	271.36
726.25	270.83
726.58	270.36
726.91	269.86
727.24	269.40
727.57	268.95
727.91	268.43
728.24	267.97
728.57	267.45
728.90	267.00
729.23	266.48
729.56	266.06
729.89	265.57
730.22	265.07
730.55	264.60
730.89	264.13
731.22	263.68
731.55	263.22
731.88	262.76
732.21	262.30
732.54	261.87
732.87	261.46
733.20	261.05
733.53	260.70
733.86	260.30
734.19	259.89
734.52	259.47
734.85	259.19
735.18	258.78
735.51	258.42
735.84	258.05
736.17	257.71
736.50	257.30
736.83	257.06
737.16	256.74
737.49	256.43
737.82	256.10
738.15	255.80
738.48	255.47
738.81	255.13
739.14	254.81
739.47	254.47
739.80	254.15
740.13	253.86
740.46	253.49
740.79	253.19
741.12	252.86
741.45	252.60
741.78	252.23
742.11	251.92
742.44	251.57
742.77	251.26
743.10	250.97
743.43	250.65
743.75	250.29
744.08	250.14
744.41	249.86
744.74	249.58
745.07	249.29
745.40	249.04
745.73	248.84
746.06	248.60
746.39	248.35
746.71	248.10
747.04	247.82
747.37	247.55
747.70	247.32
748.03	247.09
748.36	246.84
748.68	246.60
749.01	246.41
749.34	246.23
749.67	246.02
750.00	245.85
750.33	245.73
750.65	245.53
750.98	245.19
751.31	245.00
751.64	244.84
751.97	244.68
752.29	244.48
752.62	244.22
752.95	244.01
753.28	243.83
753.60	243.61
753.93	243.49
754.26	243.31
754.59	243.05
754.91	242.84
755.24	242.64
755.57	242.46
755.90	242.26
756.22	242.04
756.55	241.82
756.88	241.57
757.20	241.29
757.53	241.11
757.86	240.93
758.19	240.76
758.51	240.56
758.84	240.36
759.17	240.19
759.49	240.04
759.82	239.88
760.15	239.70
760.47	239.56
760.80	239.38
761.13	239.24
761.45	239.12
761.78	239.01
762.11	238.87
762.43	238.72
762.76	238.59
763.08	238.46
763.41	238.35
763.74	238.21
764.06	238.08
764.39	237.91
764.71	237.79
765.04	237.68
765.37	237.52
765.69	237.38
766.02	237.23
766.34	237.07
766.67	236.93
767.00	236.83
767.32	236.78
767.65	236.69
767.97	236.61
768.30	236.49
768.62	236.35
768.95	236.24
769.27	236.11
769.60	235.96
769.92	235.81
770.25	235.69
770.57	235.56
770.90	235.46
771.22	235.39
771.55	235.28
771.87	235.15
772.20	235.04
772.52	235.01
772.85	235.05
773.17	234.96
773.50	234.88
773.82	234.76
774.15	234.63
774.47	234.45
774.80	234.34
775.12	234.23
775.45	234.16
775.77	234.08
776.09	234.02
776.42	233.96
776.74	233.93
777.07	233.85
777.39	233.82
777.72	233.77
778.04	233.68
778.36	233.59
778.69	233.52
779.01	233.47
779.33	233.33
779.66	233.15
779.98	233.10
780.31	233.02
780.63	233.00
780.95	232.91
781.28	232.89
781.60	232.82
781.92	232.77
782.25	232.70
782.57	232.66
782.89	232.57
783.22	232.52
783.54	232.45
783.86	232.40
784.19	232.34
784.51	232.29
784.83	232.24
785.16	232.19
785.48	232.12
785.80	232.09
786.12	232.04
786.45	231.98
786.77	231.94
787.09	231.89
787.42	231.82
787.74	231.77
788.06	231.70
788.38	231.65
788.71	231.62
789.03	231.58
789.35	231.53
789.67	231.50
789.99	231.47
790.32	231.42
790.64	231.42
790.96	231.42
791.28	231.38
791.61	231.32
791.93	231.31
792.25	231.26
792.57	231.29
792.89	231.25
793.21	231.24
793.54	231.19
793.86	231.16
794.18	231.12
794.50	231.09
794.82	231.07
795.14	231.05
795.47	231.03
795.79	230.99
796.11	230.94
796.43	230.89
796.75	230.86
797.07	230.83
797.39	230.78
797.71	230.71
798.04	230.67
798.36	230.62
798.68	230.59
799.00	230.58
799.32	230.50
799.64	230.49
799.96	230.46
800.28	230.43
800.60	230.41
800.92	230.40
801.24	230.35
801.56	230.31
801.89	230.25
802.21	230.24
802.53	230.25
802.85	230.22
803.17	230.23
803.49	230.17
803.81	230.15
804.13	230.13
804.45	230.07
804.77	230.04
805.09	230.02
805.41	229.99
805.73	229.94
806.05	229.86
806.37	229.82
806.69	229.78
807.01	229.75
807.33	229.72
807.65	229.68
807.97	229.69
808.28	229.70
808.60	229.68
808.92	229.66
809.24	229.64
809.56	229.59
809.88	229.55
810.20	229.55
810.52	229.53
810.84	229.46
811.16	229.42
811.48	229.41
811.80	229.42
812.12	229.37
812.43	229.37
812.75	229.37
813.07	229.33
813.39	229.30
813.71	229.27
814.03	229.23
814.35	229.19
814.67	229.17
814.98	229.11
815.30	229.05
815.62	229.00
815.94	228.90
816.26	228.94
816.58	228.89
816.89	228.87
817.21	228.80
817.53	228.77
817.85	228.74
818.17	228.70
818.48	228.68
818.80	228.68
819.12	228.66
819.44	228.62
819.76	228.60
820.07	228.59
820.39	228.57
820.71	228.54
821.03	228.54
821.34	228.50
821.66	228.49
821.98	228.52
822.30	228.50
822.61	228.59
822.93	228.51
823.25	228.48
823.57	228.45
823.88	228.49
824.20	228.49
824.52	228.49
824.83	228.47
825.15	228.44
825.47	228.41
825.79	228.38
826.10	228.35
826.42	228.33
826.74	228.31
827.05	228.30
827.37	228.28
827.69	228.27
828.00	228.27
828.32	228.28
828.64	228.22
828.95	228.24
829.27	228.19
829.58	228.19
829.90	228.20
830.22	228.18
830.53	228.13
830.85	228.13
831.17	228.14
831.48	228.17
831.80	228.16
832.11	228.17
832.43	228.15
832.75	228.17
833.06	228.22
833.38	228.22
833.69	228.22
834.01	228.25
834.32	228.25
834.64	228.25
834.96	228.22
835.27	228.26
835.59	228.23
835.90	228.20
836.22	228.20
836.53	228.20
836.85	228.19
837.16	228.30
837.48	228.31
837.79	228.31
838.11	228.29
838.42	228.28
838.74	228.30
839.05	228.29
839.37	228.28
839.68	228.20
840.00	228.20
840.31	228.20
840.63	228.17
840.94	228.13
841.26	228.08
841.57	228.10
841.88	228.05
842.20	228.03
842.51	228.00
842.83	227.99
843.14	228.05
843.46	228.03
843.77	227.97
844.08	227.93
844.40	227.87
844.71	227.87
845.03	227.84
845.34	227.80
845.65	227.78
845.97	227.79
846.28	227.79
846.60	227.77
846.91	227.76
847.22	227.76
847.54	227.75
847.85	227.78
848.16	227.75
848.48	227.72
848.79	227.74
849.10	227.73
849.42	227.71
849.73	227.59
850.04	227.61
850.36	227.56
850.67	227.58
850.98	227.58
851.30	227.55
851.61	227.58
851.92	227.57
852.23	227.61
852.55	227.59
852.86	227.60
853.17	227.59
853.49	227.58
853.80	227.60
854.11	227.63
854.42	227.61
854.74	227.62
855.05	227.65
855.36	227.57
855.67	227.61
855.99	227.61
856.30	227.75
856.61	227.76
856.92	227.75
857.23	227.74
857.55	227.71
857.86	227.69
858.17	227.65
858.48	227.62
858.79	227.59
859.11	227.60
859.42	227.59
859.73	227.55
860.04	227.55
860.35	227.49
860.66	227.46
860.98	227.47
861.29	227.46
861.60	227.44
861.91	227.48
862.22	227.43
862.53	227.42
862.84	227.31
863.16	227.30
863.47	227.29
863.78	227.27
864.09	227.29
864.40	227.33
864.71	227.34
865.02	227.38
865.33	227.37
865.64	227.37
865.95	227.38
866.27	227.44
866.58	227.44
866.89	227.45
867.20	227.47
867.51	227.46
867.82	227.47
868.13	227.52
868.44	227.54
868.75	227.58
869.06	227.59
869.37	227.60
869.68	227.60
869.99	227.63
870.30	227.62
870.61	227.64
870.92	227.65
871.23	227.64
871.54	227.65
871.85	227.68
872.16	227.64
872.47	227.64
872.78	227.60
873.09	227.61
873.40	227.63
873.71	227.62
874.02	227.61
874.33	227.59
874.64	227.56
874.95	227.57
875.26	227.56
875.56	227.55
875.87	227.55
876.18	227.54
876.49	227.61
876.80	227.60
877.11	227.58
877.42	227.53
877.73	227.53
878.04	227.52
878.35	227.49
878.66	227.51
878.96	227.51
879.27	227.51
879.58	227.51
879.89	227.50
880.20	227.50
880.51	227.49
880.82	227.50
881.12	227.47
881.43	227.44
881.74	227.41
882.05	227.40
882.36	227.40
882.67	227.43
882.97	227.37
883.28	227.38
883.59	227.36
883.90	227.41
884.21	227.41
884.51	227.37
884.82	227.36
885.13	227.36
885.44	227.37
885.74	227.38
886.05	227.37
886.36	227.36
886.67	227.32
886.98	227.39
887.28	227.34
887.59	227.35
887.90	227.32
888.20	227.32
888.51	227.34
888.82	227.31
889.13	227.30
889.43	227.35
889.74	227.33
890.05	227.35
890.35	227.33
890.66	227.30
890.97	227.31
891.28	227.32
891.58	227.32
891.89	227.30
892.20	227.31
892.50	227.28
892.81	227.26
893.12	227.28
893.42	227.20
893.73	227.26
894.04	227.27
894.34	227.29
894.65	227.28
894.95	227.29
895.26	227.31
895.57	227.34
895.87	227.25
896.18	227.24
896.48	227.24
896.79	227.21
897.10	227.23
897.40	227.22
897.71	227.21
898.01	227.20
898.32	227.21
898.63	227.17
898.93	227.17
899.24	227.20
899.54	227.19
899.85	227.22
900.15	227.19
900.46	227.18
900.76	227.17
901.07	227.14
901.38	227.12
901.68	227.11
901.99	227.05
902.29	227.04
902.60	227.02
902.90	227.01
903.21	227.05
903.51	227.03
903.82	227.08
904.12	227.06
904.43	227.07
904.73	227.07
905.03	227.08
905.34	227.18
905.64	227.18
905.95	227.18
906.25	227.18
906.56	227.22
906.86	227.24
907.17	227.28
907.47	227.31
907.77	227.29
908.08	227.29
908.38	227.31
908.69	227.35
908.99	227.39
909.30	227.44
909.60	227.43
909.90	227.44
910.21	227.40
910.51	227.44
910.81	227.45
911.12	227.45
911.42	227.46
911.73	227.38
912.03	227.41
912.33	227.43
912.64	227.42
912.94	227.40
913.24	227.38
913.55	227.36
913.85	227.40
914.15	227.43
914.46	227.46
914.76	227.44
915.06	227.43
915.37	227.39
915.67	227.38
915.97	227.37
916.27	227.35
916.58	227.35
916.88	227.34
917.18	227.35
917.49	227.42
917.79	227.41
918.09	227.43
918.39	227.41
918.70	227.40
919.00	227.40
919.30	227.44
919.60	227.43
919.91	227.42
920.21	227.35
920.51	227.32
920.81	227.30
921.12	227.34
921.42	227.32
921.72	227.36
922.02	227.35
922.32	227.35
922.63	227.34
922.93	227.41
923.23	227.37
923.53	227.32
923.83	227.26
924.13	227.23
924.44	227.21
924.74	227.23
925.04	227.24
925.34	227.23
925.64	227.20
925.94	227.15
926.24	227.20
926.55	227.21
926.85	227.24
927.15	227.25
927.45	227.24
927.75	227.21
928.05	227.18
928.35	227.16
928.65	227.20
928.95	227.22
929.26	227.15
929.56	227.16
929.86	227.18
930.16	227.16
930.46	227.18
930.76	227.19
931.06	227.16
931.36	227.13
931.66	227.13
931.96	227.14
932.26	227.17
932.56	227.11
932.86	227.15
933.16	227.14
933.46	227.11
933.76	227.05
934.06	227.10
934.36	227.12
934.66	227.11
934.96	227.07
935.26	227.07
935.56	227.12
935.86	227.12
936.16	227.08
936.46	227.04
936.76	227.01
937.06	226.97
937.36	226.94
937.66	226.97
937.96	226.94
938.26	226.90
938.56	226.90
938.86	226.88
939.16	226.88
939.46	226.85
939.76	226.88
940.06	226.89
940.35	226.87
940.65	226.85
940.95	226.85
941.25	226.84
941.55	226.81
941.85	226.76
942.15	226.81
942.45	226.85
942.75	226.86
943.04	226.89
943.34	226.92
943.64	226.94
943.94	226.93
944.24	226.96
944.54	226.98
944.84	227.01
945.13	227.02
945.43	227.00
945.73	227.03
946.03	227.00
946.33	227.00
946.62	226.99
946.92	226.99
947.22	226.99
947.52	227.01
947.82	227.03
948.11	227.05
948.41	227.04
948.71	227.02
949.01	227.04
949.31	227.06
949.60	227.00
949.90	227.00
950.20	227.01
950.50	227.00
950.79	227.00
951.09	227.00
951.39	226.99
951.69	226.98
951.98	226.99
952.28	227.00
952.58	227.01
952.87	227.03
953.17	227.05
953.47	227.05
953.76	227.06
954.06	227.07
954.36	227.03
954.66	227.01
954.95	227.04
955.25	227.05
955.55	227.03
955.84	227.06
956.14	227.09
956.44	227.06
956.73	227.02
957.03	227.05
957.32	227.06
957.62	227.07
957.92	227.07
958.21	227.05
958.51	227.13
958.81	227.13
959.10	227.15
959.40	227.15
959.69	227.14
959.99	227.15
960.29	227.14
960.58	227.17
960.88	227.17
961.17	227.16
961.47	227.18
961.76	227.19
962.06	227.24
962.36	227.21
962.65	227.22
962.95	227.26
963.24	227.24
963.54	227.23
963.83	227.24
964.13	227.27
964.42	227.21
964.72	227.17
965.01	227.16
965.31	227.16
965.60	227.13
965.90	227.19
966.19	227.14
966.49	227.14
966.78	227.13
967.08	227.13
967.37	227.12
967.67	227.10
967.96	227.09
968.26	227.06
968.55	227.08
968.85	227.11
969.14	227.04
969.43	227.01
969.73	226.99
970.02	226.96
970.32	226.93
970.61	226.97
970.91	226.91
971.20	226.91
971.49	226.90
971.79	226.88
972.08	226.82
972.38	226.83
972.67	226.82
972.96	226.80
973.26	226.80
973.55	226.84
973.85	226.80
974.14	226.79
974.43	226.80
974.73	226.76
975.02	226.73
975.31	226.76
975.61	226.76
975.90	226.75
976.19	226.77
976.49	226.80
976.78	226.80
977.07	226.84
977.37	226.85
977.66	226.86
977.95	226.91
978.24	226.95
978.54	226.98
978.83	226.99
979.12	227.02
979.42	227.02
979.71	226.98
980.00	227.02
980.29	227.04
980.59	227.01
980.88	227.06
981.17	227.07
981.46	227.09
981.76	227.09
982.05	227.18
982.34	227.19
982.63	227.20
982.93	227.22
983.22	227.25
983.51	227.25
983.80	227.25
984.09	227.24
984.39	227.24
984.68	227.21
984.97	227.23
985.26	227.23
985.55	227.24
985.85	227.23
986.14	227.24
986.43	227.25
986.72	227.26
987.01	227.22
987.30	227.25
987.59	227.24
987.89	227.29
988.18	227.23
988.47	227.20
988.76	227.20
989.05	227.19
989.34	227.15
989.63	227.17
989.92	227.18
990.22	227.19
990.51	227.17
990.80	227.17
991.09	227.21
991.38	227.22
991.67	227.21
991.96	227.22
992.25	227.21
992.54	227.18
992.83	227.20
993.12	227.20
993.41	227.17
993.70	227.23
993.99	227.22
994.28	227.24
994.58	227.24
994.87	227.20
995.16	227.18
995.45	227.16
995.74	227.12
996.03	227.15
996.32	227.15
996.61	227.17
996.90	227.17
997.19	227.10
997.48	227.07
997.77	227.05
998.06	227.05
998.34	227.05
998.63	227.04
998.92	227.03
999.21	227.05
999.50	227.06
999.79	227.01
1000.08	226.98
1000.37	226.99
1000.66	227.00
1000.95	227.03
1001.24	227.02
1001.53	227.03
1001.82	227.02
1002.11	226.97
1002.40	226.94
1002.68	226.93
1002.97	226.99
1003.26	227.01
1003.55	227.00
1003.84	226.98
1004.13	226.98
1004.42	226.97
1004.71	226.97
1004.99	226.96
1005.28	226.95
1005.57	226.95
1005.86	226.91
1006.15	226.91
1006.44	226.84
1006.72	226.82
1007.01	226.79
1007.30	226.82
1007.59	226.79
1007.88	226.81
1008.17	226.80
1008.45	226.79
1008.74	226.76
1009.03	226.73
1009.32	226.73
1009.60	226.72
1009.89	226.72
1010.18	226.71
1010.47	226.73
1010.76	226.72
1011.04	226.73
1011.33	226.82
1011.62	226.84
1011.91	226.84
1012.19	226.89
1012.48	226.94
1012.77	226.97
1013.05	227.01
1013.34	227.00
1013.63	227.03
1013.92	227.03
1014.20	227.02
1014.49	227.03
1014.78	227.05
1015.06	227.01
1015.35	227.01
1015.64	227.03
1015.92	227.05
1016.21	227.03
1016.50	227.01
1016.78	227.05
1017.07	227.06
1017.36	226.97
1017.64	226.94
1017.93	226.94
1018.22	226.94
1018.50	226.92
1018.79	226.89
1019.08	226.84
1019.36	226.85
1019.65	226.83
1019.93	226.87
1020.22	226.91
1020.51	226.97
1020.79	226.96
1021.08	227.29
1021.36	226.79
1021.65	226.70
1021.94	226.56
1022.22	226.80
1022.51	226.86
1022.79	227.44
1023.08	227.25
1023.36	228.27
1023.65	226.82
>>>>>End Processed Spectral Data<<<<<
