SpectraSuite Data File
++++++++++++++++++++++++++++++++++++
Date: Fri Feb 01 17:56:06 EST 2013
User: group
Dark Spectrum Present: No
Reference Spectrum Present: No
Number of Sampled Component Spectra: 1
Spectrometers: USB2E7196
Integration Time (usec): 35000 (USB2E7196)
Spectra Averaged: 100 (USB2E7196)
Boxcar Smoothing: 10 (USB2E7196)
Correct for Electrical Dark: No (USB2E7196)
Strobe/Lamp Enabled: No (USB2E7196)
Correct for Detector Non-linearity: No (USB2E7196)
Correct for Stray Light: No (USB2E7196)
Number of Pixels in Processed Spectrum: 2048
>>>>>Begin Processed Spectral Data<<<<<
339.09	0.00
339.48	212.96
339.86	214.65
340.24	215.28
340.63	217.52
341.01	219.78
341.39	219.56
341.78	221.19
342.16	222.05
342.54	222.72
342.93	211.23
343.31	221.89
343.69	222.41
344.07	222.86
344.46	223.30
344.84	223.62
345.22	223.85
345.60	224.10
345.99	224.29
346.37	224.41
346.75	224.50
347.13	224.58
347.52	224.61
347.90	224.67
348.28	224.66
348.66	224.69
349.05	224.68
349.43	224.72
349.81	224.72
350.19	224.76
350.57	224.80
350.96	224.88
351.34	224.97
351.72	225.08
352.10	225.15
352.48	225.22
352.87	225.30
353.25	225.38
353.63	225.46
354.01	225.52
354.39	225.60
354.77	225.70
355.15	225.77
355.54	225.85
355.92	225.89
356.30	225.97
356.68	226.09
357.06	226.17
357.44	226.21
357.82	226.32
358.20	226.40
358.58	226.45
358.97	226.53
359.35	226.61
359.73	226.67
360.11	226.72
360.49	226.77
360.87	226.82
361.25	226.88
361.63	226.95
362.01	226.97
362.39	227.00
362.77	227.04
363.15	227.09
363.53	227.16
363.91	227.21
364.29	227.25
364.67	227.22
365.05	227.25
365.43	227.30
365.81	227.31
366.19	227.36
366.57	227.40
366.95	227.42
367.33	227.41
367.71	227.42
368.09	227.47
368.47	227.45
368.85	227.44
369.23	227.46
369.61	227.42
369.99	227.45
370.37	227.46
370.75	227.49
371.13	227.42
371.51	227.37
371.89	227.35
372.27	227.34
372.65	227.28
373.03	227.23
373.41	227.18
373.78	227.13
374.16	227.04
374.54	226.97
374.92	226.87
375.30	226.82
375.68	226.72
376.06	226.68
376.44	226.60
376.82	226.56
377.19	226.48
377.57	226.42
377.95	226.32
378.33	226.21
378.71	226.05
379.09	226.04
379.47	225.96
379.84	225.89
380.22	225.81
380.60	225.73
380.98	225.68
381.36	225.59
381.73	225.51
382.11	225.44
382.49	225.37
382.87	225.29
383.25	225.22
383.62	225.26
384.00	225.13
384.38	225.13
384.76	225.06
385.13	225.04
385.51	224.95
385.89	224.90
386.27	224.88
386.64	224.86
387.02	224.80
387.40	224.74
387.78	224.66
388.15	224.59
388.53	224.56
388.91	224.50
389.29	224.44
389.66	224.44
390.04	224.41
390.42	224.40
390.79	224.40
391.17	224.40
391.55	224.30
391.92	224.32
392.30	224.28
392.68	224.25
393.05	224.23
393.43	224.24
393.81	224.25
394.18	224.19
394.56	224.21
394.94	224.23
395.31	224.26
395.69	224.34
396.06	224.37
396.44	224.39
396.82	224.43
397.19	224.50
397.57	224.49
397.95	224.57
398.32	224.59
398.70	224.63
399.07	224.71
399.45	224.76
399.82	224.80
400.20	224.88
400.58	224.95
400.95	224.98
401.33	225.09
401.70	225.23
402.08	225.35
402.45	225.47
402.83	225.57
403.20	225.69
403.58	225.77
403.95	225.89
404.33	226.07
404.71	226.19
405.08	226.41
405.46	226.57
405.83	226.73
406.21	226.92
406.58	227.11
406.96	227.27
407.33	227.48
407.70	227.74
408.08	228.03
408.45	228.32
408.83	228.61
409.20	228.87
409.58	229.09
409.95	229.45
410.33	229.79
410.70	230.13
411.08	230.53
411.45	230.93
411.82	231.36
412.20	231.81
412.57	232.36
412.95	232.74
413.32	233.27
413.69	233.80
414.07	234.37
414.44	235.00
414.82	235.65
415.19	236.37
415.56	237.04
415.94	237.81
416.31	238.64
416.68	239.48
417.06	240.44
417.43	241.35
417.81	242.32
418.18	243.33
418.55	244.42
418.93	245.56
419.30	246.76
419.67	247.99
420.04	249.27
420.42	250.57
420.79	252.13
421.16	253.69
421.54	255.27
421.91	256.90
422.28	258.58
422.66	260.37
423.03	262.08
423.40	263.90
423.77	265.76
424.15	267.65
424.52	269.65
424.89	271.76
425.26	273.84
425.64	275.82
426.01	277.96
426.38	280.21
426.75	282.44
427.13	284.75
427.50	287.19
427.87	289.70
428.24	292.22
428.61	294.56
428.99	297.14
429.36	299.99
429.73	302.74
430.10	305.40
430.47	308.20
430.85	311.06
431.22	314.05
431.59	317.22
431.96	320.22
432.33	323.53
432.70	326.75
433.08	330.51
433.45	334.05
433.82	337.54
434.19	341.41
434.56	345.19
434.93	348.73
435.30	352.22
435.68	356.03
436.05	359.80
436.42	363.58
436.79	366.96
437.16	370.54
437.53	374.34
437.90	378.12
438.27	381.72
438.64	385.44
439.01	388.91
439.38	391.93
439.75	394.85
440.13	398.16
440.50	401.27
440.87	403.78
441.24	406.42
441.61	409.34
441.98	411.32
442.35	413.71
442.72	416.21
443.09	418.69
443.46	420.07
443.83	420.90
444.20	421.58
444.57	422.73
444.94	423.16
445.31	423.62
445.68	424.07
446.05	424.22
446.42	423.79
446.79	423.25
447.16	422.68
447.53	422.31
447.90	420.82
448.27	419.31
448.64	417.17
449.01	415.64
449.37	412.99
449.74	410.42
450.11	407.42
450.48	404.14
450.85	400.71
451.22	397.86
451.59	395.11
451.96	392.52
452.33	389.02
452.70	385.88
453.07	382.09
453.43	378.30
453.80	374.61
454.17	371.06
454.54	367.69
454.91	364.06
455.28	360.50
455.65	357.17
456.02	353.85
456.38	350.95
456.75	347.32
457.12	344.34
457.49	341.44
457.86	338.54
458.23	336.02
458.59	333.29
458.96	330.46
459.33	327.99
459.70	325.50
460.07	323.46
460.43	321.12
460.80	318.90
461.17	316.90
461.54	314.86
461.91	312.87
462.27	310.89
462.64	309.20
463.01	307.31
463.38	305.54
463.74	303.70
464.11	302.12
464.48	300.75
464.85	299.16
465.21	297.91
465.58	296.69
465.95	295.19
466.32	293.92
466.68	292.68
467.05	291.50
467.42	290.30
467.78	289.01
468.15	287.81
468.52	286.93
468.88	285.78
469.25	284.70
469.62	283.89
469.98	282.93
470.35	282.02
470.72	281.21
471.08	280.27
471.45	279.53
471.82	278.78
472.18	277.93
472.55	277.34
472.92	276.62
473.28	275.92
473.65	275.35
474.02	274.73
474.38	274.18
474.75	273.68
475.11	273.15
475.48	272.78
475.85	272.43
476.21	272.08
476.58	271.77
476.94	271.54
477.31	271.20
477.67	270.96
478.04	270.77
478.41	270.62
478.77	270.59
479.14	270.42
479.50	270.32
479.87	270.34
480.23	270.37
480.60	270.36
480.96	270.41
481.33	270.58
481.69	270.75
482.06	270.90
482.42	271.05
482.79	271.26
483.15	271.56
483.52	271.92
483.88	272.21
484.25	272.53
484.61	272.94
484.98	273.40
485.34	273.98
485.71	274.54
486.07	275.13
486.44	275.72
486.80	276.43
487.17	277.22
487.53	278.08
487.90	278.96
488.26	279.96
488.62	281.01
488.99	281.98
489.35	283.03
489.72	284.25
490.08	285.46
490.44	286.78
490.81	288.13
491.17	289.51
491.54	291.10
491.90	292.74
492.26	294.48
492.63	296.31
492.99	298.15
493.36	300.16
493.72	302.28
494.08	304.52
494.45	306.91
494.81	309.39
495.17	311.95
495.54	314.65
495.90	317.47
496.26	320.41
496.63	323.53
496.99	326.89
497.35	330.31
497.72	333.93
498.08	337.66
498.44	341.59
498.80	345.76
499.17	350.00
499.53	354.44
499.89	359.10
500.26	363.90
500.62	368.87
500.98	374.17
501.34	379.57
501.71	385.18
502.07	391.02
502.43	396.98
502.79	403.16
503.16	409.57
503.52	416.20
503.88	422.97
504.24	430.04
504.60	437.26
504.97	444.85
505.33	452.66
505.69	460.86
506.05	469.11
506.41	477.51
506.78	486.17
507.14	495.22
507.50	504.46
507.86	514.05
508.22	523.86
508.59	533.63
508.95	543.89
509.31	554.37
509.67	565.04
510.03	575.99
510.39	587.28
510.75	598.74
511.12	610.38
511.48	622.46
511.84	634.68
512.20	647.03
512.56	659.82
512.92	672.82
513.28	686.02
513.64	699.36
514.00	713.03
514.37	727.04
514.73	740.97
515.09	754.91
515.45	769.18
515.81	783.75
516.17	798.78
516.53	813.94
516.89	829.21
517.25	844.49
517.61	860.03
517.97	875.61
518.33	891.21
518.69	907.23
519.05	923.41
519.41	939.83
519.77	956.58
520.13	973.28
520.49	990.00
520.85	1006.69
521.21	1023.76
521.57	1041.35
521.93	1058.35
522.29	1076.13
522.65	1093.89
523.01	1111.51
523.37	1129.02
523.73	1146.67
524.09	1164.29
524.45	1182.10
524.81	1200.34
525.17	1218.73
525.53	1237.25
525.89	1255.86
526.25	1274.40
526.61	1292.36
526.97	1310.80
527.33	1329.09
527.68	1347.35
528.04	1365.55
528.40	1383.87
528.76	1402.74
529.12	1421.18
529.48	1440.00
529.84	1457.84
530.20	1476.33
530.56	1495.29
530.91	1514.69
531.27	1533.51
531.63	1551.94
531.99	1570.46
532.35	1588.37
532.71	1606.33
533.07	1624.51
533.42	1642.39
533.78	1660.42
534.14	1678.87
534.50	1696.32
534.86	1714.07
535.21	1731.38
535.57	1749.42
535.93	1766.96
536.29	1783.90
536.65	1800.95
537.00	1817.79
537.36	1835.38
537.72	1851.92
538.08	1868.49
538.44	1884.33
538.79	1900.23
539.15	1915.87
539.51	1931.61
539.87	1948.14
540.22	1963.91
540.58	1979.87
540.94	1995.32
541.29	2010.23
541.65	2025.21
542.01	2040.47
542.37	2055.09
542.72	2069.58
543.08	2083.61
543.44	2098.39
543.79	2111.82
544.15	2125.07
544.51	2138.86
544.87	2151.82
545.22	2164.93
545.58	2177.28
545.94	2189.17
546.29	2201.17
546.65	2213.39
547.01	2224.91
547.36	2235.67
547.72	2246.16
548.07	2256.13
548.43	2266.27
548.79	2276.30
549.14	2285.62
549.50	2294.78
549.86	2304.58
550.21	2313.92
550.57	2322.90
550.92	2331.29
551.28	2340.06
551.64	2348.91
551.99	2357.15
552.35	2365.30
552.70	2373.26
553.06	2381.05
553.41	2389.28
553.77	2397.09
554.13	2404.90
554.48	2413.10
554.84	2420.57
555.19	2427.53
555.55	2434.53
555.90	2440.74
556.26	2447.55
556.61	2454.08
556.97	2460.26
557.32	2465.86
557.68	2471.68
558.03	2477.54
558.39	2482.75
558.74	2489.08
559.10	2494.56
559.45	2499.73
559.81	2505.36
560.16	2510.70
560.52	2515.52
560.87	2520.05
561.23	2523.99
561.58	2528.18
561.94	2531.79
562.29	2535.24
562.64	2539.43
563.00	2543.11
563.35	2547.89
563.71	2552.22
564.06	2556.63
564.42	2560.87
564.77	2564.75
565.12	2568.29
565.48	2571.45
565.83	2574.58
566.19	2577.18
566.54	2579.04
566.89	2581.33
567.25	2583.13
567.60	2585.36
567.96	2588.00
568.31	2590.11
568.66	2592.34
569.02	2593.80
569.37	2594.93
569.72	2596.76
570.08	2597.72
570.43	2598.47
570.78	2598.82
571.14	2597.96
571.49	2597.10
571.84	2597.31
572.20	2596.70
572.55	2596.14
572.90	2595.01
573.26	2594.08
573.61	2592.43
573.96	2591.15
574.31	2588.45
574.67	2585.73
575.02	2582.39
575.37	2579.18
575.72	2575.49
576.08	2572.16
576.43	2568.93
576.78	2565.41
577.13	2562.44
577.49	2559.31
577.84	2555.95
578.19	2551.97
578.54	2548.50
578.90	2544.32
579.25	2538.42
579.60	2533.38
579.95	2528.36
580.30	2523.13
580.66	2517.58
581.01	2512.48
581.36	2507.26
581.71	2503.01
582.06	2498.26
582.42	2493.60
582.77	2488.01
583.12	2483.10
583.47	2478.26
583.82	2472.92
584.17	2467.37
584.53	2461.33
584.88	2455.25
585.23	2448.98
585.58	2442.96
585.93	2436.76
586.28	2431.38
586.63	2426.10
586.98	2420.32
587.34	2414.92
587.69	2409.47
588.04	2403.78
588.39	2397.53
588.74	2390.46
589.09	2383.56
589.44	2376.05
589.79	2369.12
590.14	2362.81
590.49	2355.52
590.84	2348.35
591.19	2341.75
591.54	2334.31
591.89	2326.08
592.25	2318.48
592.60	2310.42
592.95	2302.16
593.30	2293.97
593.65	2285.50
594.00	2277.40
594.35	2269.34
594.70	2260.13
595.05	2252.10
595.40	2243.80
595.75	2235.31
596.10	2228.34
596.45	2220.70
596.80	2213.69
597.15	2206.34
597.50	2198.40
597.85	2190.92
598.19	2183.13
598.54	2175.13
598.89	2167.69
599.24	2160.82
599.59	2153.36
599.94	2146.23
600.29	2138.89
600.64	2131.28
600.99	2122.92
601.34	2115.05
601.69	2106.83
602.04	2099.09
602.39	2090.65
602.74	2082.83
603.08	2075.12
603.43	2067.18
603.78	2058.54
604.13	2050.16
604.48	2041.71
604.83	2033.62
605.18	2025.85
605.53	2016.75
605.87	2007.24
606.22	1998.80
606.57	1989.68
606.92	1980.84
607.27	1972.67
607.62	1964.65
607.96	1956.25
608.31	1948.63
608.66	1939.73
609.01	1931.20
609.36	1922.50
609.70	1913.14
610.05	1903.76
610.40	1894.64
610.75	1884.99
611.10	1876.26
611.44	1866.40
611.79	1857.07
612.14	1846.97
612.49	1836.13
612.83	1826.38
613.18	1816.98
613.53	1807.47
613.88	1797.50
614.22	1787.98
614.57	1777.68
614.92	1768.24
615.27	1759.42
615.61	1749.56
615.96	1740.23
616.31	1731.08
616.65	1722.40
617.00	1713.65
617.35	1704.61
617.70	1695.04
618.04	1685.09
618.39	1675.38
618.74	1666.53
619.08	1656.75
619.43	1647.77
619.78	1639.66
620.12	1631.23
620.47	1622.35
620.82	1612.78
621.16	1603.94
621.51	1594.96
621.85	1585.98
622.20	1576.03
622.55	1566.17
622.89	1556.95
623.24	1547.92
623.59	1539.25
623.93	1530.32
624.28	1521.77
624.62	1512.97
624.97	1504.54
625.32	1496.53
625.66	1488.28
626.01	1479.83
626.35	1471.12
626.70	1462.03
627.04	1453.03
627.39	1443.76
627.73	1435.14
628.08	1427.07
628.43	1418.67
628.77	1410.17
629.12	1401.36
629.46	1393.01
629.81	1384.14
630.15	1375.70
630.50	1367.04
630.84	1357.50
631.19	1348.09
631.53	1339.13
631.88	1330.26
632.22	1321.37
632.57	1312.74
632.91	1303.83
633.26	1295.20
633.60	1286.60
633.95	1278.36
634.29	1269.99
634.64	1262.30
634.98	1253.65
635.32	1245.21
635.67	1237.33
636.01	1229.43
636.36	1221.68
636.70	1214.00
637.05	1206.37
637.39	1198.78
637.73	1191.22
638.08	1184.31
638.42	1177.32
638.77	1169.91
639.11	1162.36
639.45	1154.85
639.80	1147.19
640.14	1139.81
640.49	1132.23
640.83	1124.80
641.17	1117.54
641.52	1110.16
641.86	1102.53
642.20	1095.74
642.55	1088.40
642.89	1080.95
643.23	1073.27
643.58	1066.40
643.92	1059.21
644.26	1052.37
644.61	1045.29
644.95	1038.32
645.29	1030.79
645.64	1023.11
645.98	1015.68
646.32	1008.73
646.66	1001.70
647.01	994.99
647.35	988.38
647.69	981.53
648.04	975.16
648.38	968.49
648.72	961.72
649.06	954.84
649.41	948.00
649.75	941.14
650.09	934.34
650.43	927.85
650.78	920.78
651.12	913.92
651.46	907.23
651.80	900.70
652.14	894.41
652.49	888.16
652.83	882.18
653.17	875.76
653.51	869.25
653.85	863.02
654.20	856.53
654.54	849.58
654.88	842.99
655.22	836.16
655.56	829.62
655.90	823.22
656.25	817.12
656.59	811.00
656.93	805.17
657.27	799.15
657.61	792.83
657.95	787.00
658.29	781.13
658.64	775.08
658.98	768.94
659.32	762.67
659.66	756.68
660.00	750.56
660.34	744.83
660.68	739.16
661.02	733.40
661.36	727.96
661.70	722.84
662.05	717.86
662.39	712.97
662.73	707.78
663.07	702.79
663.41	697.63
663.75	692.41
664.09	687.06
664.43	681.98
664.77	677.22
665.11	672.34
665.45	667.54
665.79	662.80
666.13	658.09
666.47	653.44
666.81	648.69
667.15	643.95
667.49	639.45
667.83	635.03
668.17	630.50
668.51	625.87
668.85	621.17
669.19	616.70
669.53	612.24
669.87	607.93
670.21	603.60
670.55	599.41
670.89	595.47
671.23	591.63
671.57	587.65
671.91	583.62
672.25	579.55
672.58	575.55
672.92	571.64
673.26	567.94
673.60	564.30
673.94	560.77
674.28	557.40
674.62	554.01
674.96	550.50
675.30	547.19
675.64	543.81
675.97	540.62
676.31	537.37
676.65	534.04
676.99	530.84
677.33	527.57
677.67	524.36
678.01	520.94
678.34	517.56
678.68	514.24
679.02	511.02
679.36	507.83
679.70	504.69
680.04	501.55
680.37	498.30
680.71	495.09
681.05	491.98
681.39	488.84
681.73	485.80
682.06	482.91
682.40	480.00
682.74	477.05
683.08	474.16
683.42	471.14
683.75	468.30
684.09	465.33
684.43	462.51
684.77	459.69
685.10	456.94
685.44	454.22
685.78	451.55
686.12	448.90
686.45	446.26
686.79	443.58
687.13	441.04
687.46	438.48
687.80	435.97
688.14	433.43
688.48	431.14
688.81	428.58
689.15	426.09
689.49	423.53
689.82	421.19
690.16	418.75
690.50	416.51
690.83	414.23
691.17	411.95
691.51	409.75
691.84	407.60
692.18	405.36
692.52	403.08
692.85	400.85
693.19	398.70
693.52	396.57
693.86	394.52
694.20	392.46
694.53	390.41
694.87	388.24
695.21	386.23
695.54	384.07
695.88	382.06
696.21	380.03
696.55	378.11
696.88	376.13
697.22	374.16
697.56	372.23
697.89	370.31
698.23	368.46
698.56	366.60
698.90	364.78
699.23	362.93
699.57	361.15
699.90	359.37
700.24	357.57
700.58	355.86
700.91	354.12
701.25	352.43
701.58	350.82
701.92	349.25
702.25	347.61
702.59	346.06
702.92	344.47
703.26	342.95
703.59	341.49
703.93	340.08
704.26	338.73
704.60	337.29
704.93	335.84
705.26	334.38
705.60	332.98
705.93	331.61
706.27	330.34
706.60	329.12
706.94	327.88
707.27	326.57
707.61	325.27
707.94	324.06
708.27	322.78
708.61	321.51
708.94	320.32
709.28	319.19
709.61	318.02
709.94	316.93
710.28	315.75
710.61	314.61
710.95	313.41
711.28	312.32
711.61	311.21
711.95	310.11
712.28	309.06
712.61	307.95
712.95	306.89
713.28	305.94
713.61	304.86
713.95	303.87
714.28	302.92
714.61	301.95
714.95	300.99
715.28	299.99
715.61	298.99
715.95	298.03
716.28	297.02
716.61	296.06
716.95	295.06
717.28	294.21
717.61	293.32
717.94	292.45
718.28	291.47
718.61	290.62
718.94	289.81
719.27	289.06
719.61	288.30
719.94	287.53
720.27	286.69
720.60	285.96
720.94	285.20
721.27	284.49
721.60	283.83
721.93	283.15
722.27	282.51
722.60	281.87
722.93	281.25
723.26	280.62
723.59	279.99
723.93	279.42
724.26	278.76
724.59	278.15
724.92	277.57
725.25	277.01
725.59	276.43
725.92	275.80
726.25	275.16
726.58	274.57
726.91	274.00
727.24	273.45
727.57	272.89
727.91	272.27
728.24	271.72
728.57	271.16
728.90	270.61
729.23	270.06
729.56	269.56
729.89	268.98
730.22	268.43
730.55	267.90
730.89	267.36
731.22	266.87
731.55	266.36
731.88	265.80
732.21	265.32
732.54	264.80
732.87	264.32
733.20	263.86
733.53	263.46
733.86	263.04
734.19	262.60
734.52	262.18
734.85	261.85
735.18	261.37
735.51	260.90
735.84	260.48
736.17	260.06
736.50	259.62
736.83	259.32
737.16	258.96
737.49	258.60
737.82	258.22
738.15	257.82
738.48	257.40
738.81	257.06
739.14	256.65
739.47	256.29
739.80	255.96
740.13	255.61
740.46	255.19
740.79	254.79
741.12	254.42
741.45	254.07
741.78	253.64
742.11	253.36
742.44	253.00
742.77	252.65
743.10	252.30
743.43	251.94
743.75	251.52
744.08	251.32
744.41	250.96
744.74	250.64
745.07	250.29
745.40	250.03
745.73	249.75
746.06	249.47
746.39	249.17
746.71	248.87
747.04	248.54
747.37	248.23
747.70	247.96
748.03	247.68
748.36	247.38
748.68	247.13
749.01	246.80
749.34	246.56
749.67	246.30
750.00	246.05
750.33	245.84
750.65	245.61
750.98	245.25
751.31	244.98
751.64	244.74
751.97	244.54
752.29	244.30
752.62	243.99
752.95	243.73
753.28	243.46
753.60	243.19
753.93	243.04
754.26	242.82
754.59	242.56
754.91	242.33
755.24	242.11
755.57	241.90
755.90	241.68
756.22	241.46
756.55	241.27
756.88	241.08
757.20	240.85
757.53	240.64
757.86	240.41
758.19	240.25
758.51	240.06
758.84	239.84
759.17	239.62
759.49	239.47
759.82	239.37
760.15	239.24
760.47	239.10
760.80	238.85
761.13	238.69
761.45	238.48
761.78	238.29
762.11	238.11
762.43	237.96
762.76	237.81
763.08	237.65
763.41	237.49
763.74	237.33
764.06	237.18
764.39	237.01
764.71	236.87
765.04	236.70
765.37	236.55
765.69	236.43
766.02	236.29
766.34	236.13
766.67	235.94
767.00	235.79
767.32	235.69
767.65	235.63
767.97	235.51
768.30	235.42
768.62	235.31
768.95	235.15
769.27	234.96
769.60	234.89
769.92	234.76
770.25	234.64
770.57	234.49
770.90	234.39
771.22	234.27
771.55	234.17
771.87	234.06
772.20	233.95
772.52	233.93
772.85	233.97
773.17	233.83
773.50	233.75
773.82	233.66
774.15	233.52
774.47	233.37
774.80	233.25
775.12	233.19
775.45	233.08
775.77	233.03
776.09	232.96
776.42	232.86
776.74	232.78
777.07	232.70
777.39	232.64
777.72	232.54
778.04	232.48
778.36	232.40
778.69	232.32
779.01	232.25
779.33	232.07
779.66	231.89
779.98	231.86
780.31	231.76
780.63	231.71
780.95	231.67
781.28	231.65
781.60	231.58
781.92	231.51
782.25	231.43
782.57	231.34
782.89	231.26
783.22	231.20
783.54	231.13
783.86	231.02
784.19	230.92
784.51	230.86
784.83	230.77
785.16	230.72
785.48	230.67
785.80	230.59
786.12	230.54
786.45	230.45
786.77	230.40
787.09	230.35
787.42	230.25
787.74	230.19
788.06	230.07
788.38	230.02
788.71	229.97
789.03	229.94
789.35	229.90
789.67	229.82
789.99	229.78
790.32	229.71
790.64	229.71
790.96	229.73
791.28	229.66
791.61	229.61
791.93	229.52
792.25	229.50
792.57	229.52
792.89	229.45
793.21	229.41
793.54	229.33
793.86	229.25
794.18	229.23
794.50	229.16
794.82	229.14
795.14	229.10
795.47	229.05
795.79	229.00
796.11	228.96
796.43	228.95
796.75	228.87
797.07	228.81
797.39	228.78
797.71	228.72
798.04	228.68
798.36	228.63
798.68	228.64
799.00	228.59
799.32	228.50
799.64	228.48
799.96	228.45
800.28	228.45
800.60	228.42
800.92	228.35
801.24	228.29
801.56	228.26
801.89	228.23
802.21	228.20
802.53	228.17
802.85	228.13
803.17	228.11
803.49	228.09
803.81	228.08
804.13	227.99
804.45	227.93
804.77	227.90
805.09	227.88
805.41	227.81
805.73	227.75
806.05	227.69
806.37	227.67
806.69	227.64
807.01	227.58
807.33	227.56
807.65	227.53
807.97	227.58
808.28	227.55
808.60	227.54
808.92	227.51
809.24	227.55
809.56	227.52
809.88	227.48
810.20	227.49
810.52	227.50
810.84	227.46
811.16	227.43
811.48	227.39
811.80	227.39
812.12	227.35
812.43	227.36
812.75	227.33
813.07	227.32
813.39	227.28
813.71	227.24
814.03	227.21
814.35	227.18
814.67	227.11
814.98	227.07
815.30	227.00
815.62	226.93
815.94	226.84
816.26	226.84
816.58	226.77
816.89	226.74
817.21	226.68
817.53	226.67
817.85	226.67
818.17	226.65
818.48	226.60
818.80	226.60
819.12	226.53
819.44	226.49
819.76	226.44
820.07	226.45
820.39	226.44
820.71	226.43
821.03	226.44
821.34	226.39
821.66	226.40
821.98	226.44
822.30	226.43
822.61	226.46
822.93	226.40
823.25	226.40
823.57	226.35
823.88	226.37
824.20	226.35
824.52	226.34
824.83	226.29
825.15	226.26
825.47	226.26
825.79	226.28
826.10	226.23
826.42	226.25
826.74	226.21
827.05	226.21
827.37	226.19
827.69	226.11
828.00	226.14
828.32	226.13
828.64	226.07
828.95	226.11
829.27	226.07
829.58	226.06
829.90	226.06
830.22	226.05
830.53	225.99
830.85	225.99
831.17	225.95
831.48	225.92
831.80	225.90
832.11	225.84
832.43	225.83
832.75	225.83
833.06	225.86
833.38	225.84
833.69	225.82
834.01	225.79
834.32	225.83
834.64	225.78
834.96	225.73
835.27	225.73
835.59	225.68
835.90	225.66
836.22	225.65
836.53	225.60
836.85	225.57
837.16	225.67
837.48	225.64
837.79	225.65
838.11	225.67
838.42	225.66
838.74	225.69
839.05	225.67
839.37	225.68
839.68	225.59
840.00	225.57
840.31	225.56
840.63	225.55
840.94	225.52
841.26	225.51
841.57	225.53
841.88	225.55
842.20	225.52
842.51	225.48
842.83	225.50
843.14	225.61
843.46	225.63
843.77	225.54
844.08	225.51
844.40	225.51
844.71	225.50
845.03	225.50
845.34	225.48
845.65	225.47
845.97	225.47
846.28	225.45
846.60	225.43
846.91	225.40
847.22	225.39
847.54	225.36
847.85	225.35
848.16	225.34
848.48	225.30
848.79	225.35
849.10	225.35
849.42	225.34
849.73	225.23
850.04	225.21
850.36	225.18
850.67	225.22
850.98	225.19
851.30	225.20
851.61	225.19
851.92	225.15
852.23	225.14
852.55	225.15
852.86	225.17
853.17	225.21
853.49	225.25
853.80	225.27
854.11	225.33
854.42	225.31
854.74	225.25
855.05	225.24
855.36	225.21
855.67	225.20
855.99	225.19
856.30	225.29
856.61	225.29
856.92	225.26
857.23	225.26
857.55	225.23
857.86	225.19
858.17	225.20
858.48	225.23
858.79	225.22
859.11	225.19
859.42	225.17
859.73	225.14
860.04	225.12
860.35	225.06
860.66	225.03
860.98	225.04
861.29	225.08
861.60	225.07
861.91	225.09
862.22	225.06
862.53	225.04
862.84	224.94
863.16	224.93
863.47	224.93
863.78	224.93
864.09	224.94
864.40	224.96
864.71	224.96
865.02	224.92
865.33	224.94
865.64	224.91
865.95	224.88
866.27	224.94
866.58	224.91
866.89	224.93
867.20	224.90
867.51	224.86
867.82	224.86
868.13	224.88
868.44	224.85
868.75	224.89
869.06	224.88
869.37	224.89
869.68	224.86
869.99	224.89
870.30	224.88
870.61	224.90
870.92	224.86
871.23	224.85
871.54	224.90
871.85	224.92
872.16	224.94
872.47	224.97
872.78	224.90
873.09	224.91
873.40	224.92
873.71	224.94
874.02	224.95
874.33	224.95
874.64	224.92
874.95	224.94
875.26	224.91
875.56	224.91
875.87	224.89
876.18	224.89
876.49	224.96
876.80	224.95
877.11	224.98
877.42	225.00
877.73	225.02
878.04	225.00
878.35	224.99
878.66	225.00
878.96	225.00
879.27	225.00
879.58	225.03
879.89	225.03
880.20	225.06
880.51	225.07
880.82	225.07
881.12	225.08
881.43	225.07
881.74	225.07
882.05	225.12
882.36	225.15
882.67	225.18
882.97	225.11
883.28	225.12
883.59	225.10
883.90	225.12
884.21	225.11
884.51	225.10
884.82	225.10
885.13	225.10
885.44	225.10
885.74	225.14
886.05	225.13
886.36	225.11
886.67	225.07
886.98	225.15
887.28	225.17
887.59	225.18
887.90	225.16
888.20	225.12
888.51	225.11
888.82	225.05
889.13	225.05
889.43	225.09
889.74	225.09
890.05	225.12
890.35	225.10
890.66	225.09
890.97	225.07
891.28	225.03
891.58	225.05
891.89	225.04
892.20	224.99
892.50	224.99
892.81	224.98
893.12	224.97
893.42	224.89
893.73	224.90
894.04	224.90
894.34	224.91
894.65	224.95
894.95	224.94
895.26	224.96
895.57	224.99
895.87	224.90
896.18	224.88
896.48	224.85
896.79	224.85
897.10	224.84
897.40	224.87
897.71	224.87
898.01	224.84
898.32	224.85
898.63	224.85
898.93	224.84
899.24	224.84
899.54	224.84
899.85	224.83
900.15	224.79
900.46	224.74
900.76	224.75
901.07	224.70
901.38	224.67
901.68	224.69
901.99	224.61
902.29	224.63
902.60	224.62
902.90	224.60
903.21	224.58
903.51	224.57
903.82	224.58
904.12	224.61
904.43	224.63
904.73	224.61
905.03	224.62
905.34	224.72
905.64	224.73
905.95	224.70
906.25	224.70
906.56	224.70
906.86	224.74
907.17	224.73
907.47	224.75
907.77	224.79
908.08	224.77
908.38	224.81
908.69	224.84
908.99	224.84
909.30	224.87
909.60	224.90
909.90	224.91
910.21	224.88
910.51	224.87
910.81	224.87
911.12	224.89
911.42	224.88
911.73	224.77
912.03	224.75
912.33	224.81
912.64	224.80
912.94	224.79
913.24	224.76
913.55	224.75
913.85	224.76
914.15	224.77
914.46	224.76
914.76	224.74
915.06	224.70
915.37	224.72
915.67	224.71
915.97	224.70
916.27	224.72
916.58	224.74
916.88	224.73
917.18	224.73
917.49	224.78
917.79	224.77
918.09	224.79
918.39	224.83
918.70	224.84
919.00	224.91
919.30	224.97
919.60	224.95
919.91	224.97
920.21	224.97
920.51	224.94
920.81	224.93
921.12	224.95
921.42	224.97
921.72	224.99
922.02	225.02
922.32	225.05
922.63	225.05
922.93	225.08
923.23	225.07
923.53	225.04
923.83	224.96
924.13	224.97
924.44	224.96
924.74	224.98
925.04	225.00
925.34	224.96
925.64	224.94
925.94	224.96
926.24	225.02
926.55	225.02
926.85	225.05
927.15	225.08
927.45	225.06
927.75	225.08
928.05	225.04
928.35	225.00
928.65	224.98
928.95	224.99
929.26	224.93
929.56	224.95
929.86	224.98
930.16	224.99
930.46	225.00
930.76	225.02
931.06	224.96
931.36	224.93
931.66	224.93
931.96	224.92
932.26	224.89
932.56	224.79
932.86	224.77
933.16	224.76
933.46	224.71
933.76	224.71
934.06	224.73
934.36	224.77
934.66	224.78
934.96	224.76
935.26	224.72
935.56	224.74
935.86	224.69
936.16	224.65
936.46	224.64
936.76	224.62
937.06	224.59
937.36	224.57
937.66	224.55
937.96	224.54
938.26	224.47
938.56	224.49
938.86	224.50
939.16	224.49
939.46	224.46
939.76	224.46
940.06	224.42
940.35	224.36
940.65	224.30
940.95	224.29
941.25	224.26
941.55	224.27
941.85	224.25
942.15	224.25
942.45	224.29
942.75	224.26
943.04	224.25
943.34	224.24
943.64	224.21
943.94	224.19
944.24	224.17
944.54	224.22
944.84	224.21
945.13	224.21
945.43	224.22
945.73	224.23
946.03	224.23
946.33	224.23
946.62	224.24
946.92	224.27
947.22	224.27
947.52	224.26
947.82	224.28
948.11	224.29
948.41	224.27
948.71	224.26
949.01	224.31
949.31	224.33
949.60	224.32
949.90	224.37
950.20	224.37
950.50	224.39
950.79	224.40
951.09	224.46
951.39	224.47
951.69	224.46
951.98	224.48
952.28	224.47
952.58	224.46
952.87	224.45
953.17	224.44
953.47	224.47
953.76	224.48
954.06	224.45
954.36	224.44
954.66	224.45
954.95	224.47
955.25	224.44
955.55	224.42
955.84	224.44
956.14	224.45
956.44	224.48
956.73	224.49
957.03	224.47
957.32	224.43
957.62	224.44
957.92	224.49
958.21	224.48
958.51	224.60
958.81	224.65
959.10	224.68
959.40	224.69
959.69	224.68
959.99	224.68
960.29	224.67
960.58	224.65
960.88	224.70
961.17	224.70
961.47	224.72
961.76	224.75
962.06	224.76
962.36	224.75
962.65	224.74
962.95	224.70
963.24	224.72
963.54	224.73
963.83	224.73
964.13	224.72
964.42	224.70
964.72	224.61
965.01	224.60
965.31	224.59
965.60	224.58
965.90	224.63
966.19	224.63
966.49	224.64
966.78	224.67
967.08	224.65
967.37	224.62
967.67	224.60
967.96	224.57
968.26	224.56
968.55	224.58
968.85	224.58
969.14	224.58
969.43	224.56
969.73	224.57
970.02	224.55
970.32	224.51
970.61	224.50
970.91	224.47
971.20	224.44
971.49	224.44
971.79	224.43
972.08	224.38
972.38	224.36
972.67	224.34
972.96	224.34
973.26	224.34
973.55	224.36
973.85	224.38
974.14	224.40
974.43	224.37
974.73	224.32
975.02	224.33
975.31	224.36
975.61	224.33
975.90	224.29
976.19	224.31
976.49	224.29
976.78	224.31
977.07	224.32
977.37	224.33
977.66	224.34
977.95	224.34
978.24	224.35
978.54	224.41
978.83	224.42
979.12	224.42
979.42	224.42
979.71	224.42
980.00	224.42
980.29	224.40
980.59	224.40
980.88	224.46
981.17	224.46
981.46	224.44
981.76	224.46
982.05	224.49
982.34	224.46
982.63	224.50
982.93	224.53
983.22	224.56
983.51	224.56
983.80	224.55
984.09	224.57
984.39	224.55
984.68	224.52
984.97	224.51
985.26	224.51
985.55	224.52
985.85	224.49
986.14	224.49
986.43	224.54
986.72	224.55
987.01	224.51
987.30	224.50
987.59	224.53
987.89	224.54
988.18	224.51
988.47	224.56
988.76	224.56
989.05	224.53
989.34	224.53
989.63	224.57
989.92	224.58
990.22	224.57
990.51	224.58
990.80	224.58
991.09	224.61
991.38	224.63
991.67	224.64
991.96	224.65
992.25	224.62
992.54	224.61
992.83	224.63
993.12	224.62
993.41	224.65
993.70	224.65
993.99	224.69
994.28	224.71
994.58	224.72
994.87	224.72
995.16	224.73
995.45	224.71
995.74	224.68
996.03	224.69
996.32	224.69
996.61	224.69
996.90	224.69
997.19	224.71
997.48	224.71
997.77	224.69
998.06	224.70
998.34	224.71
998.63	224.70
998.92	224.68
999.21	224.70
999.50	224.70
999.79	224.67
1000.08	224.62
1000.37	224.64
1000.66	224.61
1000.95	224.62
1001.24	224.60
1001.53	224.62
1001.82	224.57
1002.11	224.55
1002.40	224.57
1002.68	224.64
1002.97	224.69
1003.26	224.67
1003.55	224.65
1003.84	224.67
1004.13	224.70
1004.42	224.70
1004.71	224.66
1004.99	224.64
1005.28	224.64
1005.57	224.62
1005.86	224.64
1006.15	224.64
1006.44	224.61
1006.72	224.59
1007.01	224.58
1007.30	224.58
1007.59	224.54
1007.88	224.57
1008.17	224.59
1008.45	224.56
1008.74	224.49
1009.03	224.44
1009.32	224.45
1009.60	224.43
1009.89	224.41
1010.18	224.41
1010.47	224.41
1010.76	224.41
1011.04	224.41
1011.33	224.43
1011.62	224.45
1011.91	224.46
1012.19	224.48
1012.48	224.48
1012.77	224.51
1013.05	224.54
1013.34	224.57
1013.63	224.59
1013.92	224.58
1014.20	224.57
1014.49	224.58
1014.78	224.59
1015.06	224.57
1015.35	224.56
1015.64	224.60
1015.92	224.60
1016.21	224.57
1016.50	224.57
1016.78	224.60
1017.07	224.62
1017.36	224.59
1017.64	224.58
1017.93	224.56
1018.22	224.56
1018.50	224.57
1018.79	224.57
1019.08	224.55
1019.36	224.53
1019.65	224.54
1019.93	224.58
1020.22	224.60
1020.51	224.64
1020.79	224.64
1021.08	224.68
1021.36	224.50
1021.65	224.80
1021.94	224.59
1022.22	224.65
1022.51	224.77
1022.79	224.94
1023.08	224.84
1023.36	225.46
1023.65	224.63
>>>>>End Processed Spectral Data<<<<<
