SpectraSuite Data File
++++++++++++++++++++++++++++++++++++
Date: Fri Feb 01 17:59:47 EST 2013
User: group
Dark Spectrum Present: No
Reference Spectrum Present: No
Number of Sampled Component Spectra: 1
Spectrometers: USB2E7196
Integration Time (usec): 35000 (USB2E7196)
Spectra Averaged: 100 (USB2E7196)
Boxcar Smoothing: 10 (USB2E7196)
Correct for Electrical Dark: No (USB2E7196)
Strobe/Lamp Enabled: No (USB2E7196)
Correct for Detector Non-linearity: No (USB2E7196)
Correct for Stray Light: No (USB2E7196)
Number of Pixels in Processed Spectrum: 2048
>>>>>Begin Processed Spectral Data<<<<<
339.09	0.00
339.48	212.41
339.86	214.62
340.24	215.74
340.63	217.96
341.01	219.67
341.39	219.34
341.78	220.88
342.16	222.20
342.54	222.88
342.93	211.40
343.31	222.07
343.69	222.63
344.07	223.12
344.46	223.57
344.84	223.87
345.22	224.12
345.60	224.40
345.99	224.60
346.37	224.75
346.75	224.85
347.13	224.95
347.52	225.00
347.90	225.03
348.28	225.07
348.66	225.09
349.05	225.05
349.43	225.10
349.81	225.13
350.19	225.18
350.57	225.24
350.96	225.30
351.34	225.39
351.72	225.49
352.10	225.53
352.48	225.60
352.87	225.70
353.25	225.76
353.63	225.79
354.01	225.87
354.39	225.94
354.77	225.99
355.15	226.09
355.54	226.13
355.92	226.22
356.30	226.29
356.68	226.43
357.06	226.48
357.44	226.53
357.82	226.62
358.20	226.69
358.58	226.76
358.97	226.83
359.35	226.92
359.73	227.02
360.11	227.09
360.49	227.12
360.87	227.16
361.25	227.21
361.63	227.30
362.01	227.32
362.39	227.36
362.77	227.43
363.15	227.44
363.53	227.49
363.91	227.51
364.29	227.52
364.67	227.41
365.05	227.46
365.43	227.47
365.81	227.48
366.19	227.52
366.57	227.55
366.95	227.55
367.33	227.53
367.71	227.50
368.09	227.49
368.47	227.51
368.85	227.49
369.23	227.52
369.61	227.46
369.99	227.47
370.37	227.46
370.75	227.47
371.13	227.41
371.51	227.37
371.89	227.33
372.27	227.30
372.65	227.30
373.03	227.25
373.41	227.21
373.78	227.16
374.16	227.07
374.54	227.01
374.92	226.93
375.30	226.84
375.68	226.76
376.06	226.74
376.44	226.66
376.82	226.59
377.19	226.50
377.57	226.43
377.95	226.35
378.33	226.30
378.71	226.17
379.09	226.15
379.47	226.09
379.84	226.04
380.22	225.97
380.60	225.88
380.98	225.83
381.36	225.70
381.73	225.63
382.11	225.58
382.49	225.52
382.87	225.46
383.25	225.41
383.62	225.45
384.00	225.36
384.38	225.29
384.76	225.29
385.13	225.28
385.51	225.24
385.89	225.18
386.27	225.13
386.64	225.07
387.02	224.99
387.40	224.98
387.78	224.93
388.15	224.86
388.53	224.84
388.91	224.80
389.29	224.78
389.66	224.79
390.04	224.73
390.42	224.72
390.79	224.69
391.17	224.67
391.55	224.56
391.92	224.55
392.30	224.56
392.68	224.52
393.05	224.52
393.43	224.54
393.81	224.55
394.18	224.53
394.56	224.56
394.94	224.59
395.31	224.56
395.69	224.58
396.06	224.65
396.44	224.68
396.82	224.68
397.19	224.79
397.57	224.80
397.95	224.85
398.32	224.84
398.70	224.91
399.07	224.99
399.45	225.02
399.82	225.09
400.20	225.13
400.58	225.20
400.95	225.23
401.33	225.28
401.70	225.41
402.08	225.52
402.45	225.61
402.83	225.72
403.20	225.80
403.58	225.92
403.95	226.04
404.33	226.16
404.71	226.30
405.08	226.48
405.46	226.63
405.83	226.80
406.21	226.99
406.58	227.18
406.96	227.38
407.33	227.63
407.70	227.82
408.08	228.13
408.45	228.39
408.83	228.70
409.20	228.98
409.58	229.20
409.95	229.53
410.33	229.86
410.70	230.17
411.08	230.55
411.45	230.93
411.82	231.32
412.20	231.77
412.57	232.30
412.95	232.72
413.32	233.28
413.69	233.82
414.07	234.37
414.44	235.01
414.82	235.63
415.19	236.33
415.56	237.09
415.94	237.84
416.31	238.70
416.68	239.54
417.06	240.54
417.43	241.45
417.81	242.49
418.18	243.52
418.55	244.66
418.93	245.87
419.30	247.12
419.67	248.40
420.04	249.70
420.42	251.02
420.79	252.59
421.16	254.13
421.54	255.73
421.91	257.38
422.28	259.05
422.66	260.83
423.03	262.56
423.40	264.33
423.77	266.26
424.15	268.17
424.52	270.21
424.89	272.33
425.26	274.44
425.64	276.40
426.01	278.57
426.38	280.83
426.75	283.07
427.13	285.39
427.50	287.80
427.87	290.36
428.24	292.90
428.61	295.26
428.99	297.85
429.36	300.73
429.73	303.56
430.10	306.32
430.47	309.11
430.85	311.98
431.22	315.03
431.59	318.21
431.96	321.22
432.33	324.54
432.70	327.76
433.08	331.55
433.45	335.09
433.82	338.61
434.19	342.51
434.56	346.31
434.93	349.90
435.30	353.49
435.68	357.35
436.05	361.17
436.42	364.96
436.79	368.37
437.16	371.98
437.53	375.77
437.90	379.56
438.27	383.25
438.64	387.08
439.01	390.56
439.38	393.61
439.75	396.53
440.13	399.91
440.50	403.11
440.87	405.58
441.24	408.24
441.61	411.15
441.98	413.18
442.35	415.61
442.72	418.14
443.09	420.58
443.46	421.97
443.83	422.77
444.20	423.49
444.57	424.64
444.94	425.10
445.31	425.59
445.68	426.05
446.05	426.16
446.42	425.64
446.79	425.11
447.16	424.54
447.53	424.15
447.90	422.56
448.27	420.97
448.64	418.84
449.01	417.24
449.37	414.57
449.74	411.96
450.11	408.93
450.48	405.59
450.85	402.13
451.22	399.27
451.59	396.49
451.96	393.84
452.33	390.34
452.70	387.09
453.07	383.26
453.43	379.36
453.80	375.62
454.17	372.02
454.54	368.58
454.91	364.89
455.28	361.27
455.65	357.97
456.02	354.62
456.38	351.75
456.75	348.15
457.12	345.13
457.49	342.15
457.86	339.23
458.23	336.70
458.59	333.97
458.96	331.09
459.33	328.63
459.70	326.12
460.07	324.06
460.43	321.73
460.80	319.53
461.17	317.54
461.54	315.51
461.91	313.53
462.27	311.58
462.64	309.85
463.01	307.99
463.38	306.14
463.74	304.32
464.11	302.75
464.48	301.39
464.85	299.86
465.21	298.67
465.58	297.35
465.95	295.87
466.32	294.61
466.68	293.40
467.05	292.16
467.42	290.94
467.78	289.66
468.15	288.46
468.52	287.56
468.88	286.39
469.25	285.37
469.62	284.57
469.98	283.63
470.35	282.77
470.72	281.95
471.08	281.08
471.45	280.31
471.82	279.54
472.18	278.72
472.55	278.15
472.92	277.46
473.28	276.86
473.65	276.22
474.02	275.59
474.38	275.05
474.75	274.60
475.11	274.10
475.48	273.72
475.85	273.37
476.21	272.99
476.58	272.73
476.94	272.47
477.31	272.16
477.67	271.90
478.04	271.70
478.41	271.59
478.77	271.54
479.14	271.41
479.50	271.37
479.87	271.38
480.23	271.37
480.60	271.35
480.96	271.36
481.33	271.51
481.69	271.66
482.06	271.82
482.42	271.91
482.79	272.14
483.15	272.45
483.52	272.78
483.88	273.10
484.25	273.49
484.61	273.87
484.98	274.32
485.34	274.87
485.71	275.45
486.07	276.03
486.44	276.59
486.80	277.33
487.17	278.06
487.53	278.88
487.90	279.73
488.26	280.68
488.62	281.71
488.99	282.76
489.35	283.85
489.72	285.02
490.08	286.30
490.44	287.56
490.81	288.90
491.17	290.35
491.54	291.93
491.90	293.50
492.26	295.27
492.63	297.09
492.99	298.95
493.36	300.91
493.72	303.08
494.08	305.32
494.45	307.65
494.81	310.12
495.17	312.66
495.54	315.37
495.90	318.24
496.26	321.22
496.63	324.31
496.99	327.62
497.35	331.04
497.72	334.66
498.08	338.42
498.44	342.31
498.80	346.43
499.17	350.66
499.53	355.05
499.89	359.68
500.26	364.41
500.62	369.37
500.98	374.62
501.34	379.98
501.71	385.60
502.07	391.37
502.43	397.31
502.79	403.49
503.16	409.96
503.52	416.54
503.88	423.34
504.24	430.40
504.60	437.68
504.97	445.26
505.33	453.01
505.69	461.17
506.05	469.45
506.41	477.91
506.78	486.59
507.14	495.65
507.50	504.94
507.86	514.56
508.22	524.30
508.59	534.17
508.95	544.37
509.31	554.88
509.67	565.66
510.03	576.68
510.39	587.93
510.75	599.48
511.12	611.19
511.48	623.25
511.84	635.53
512.20	647.87
512.56	660.70
512.92	673.73
513.28	687.06
513.64	700.55
514.00	714.13
514.37	728.13
514.73	742.13
515.09	756.14
515.45	770.43
515.81	785.18
516.17	800.23
516.53	815.55
516.89	830.85
517.25	846.19
517.61	861.74
517.97	877.39
518.33	893.06
518.69	909.08
519.05	925.44
519.41	941.97
519.77	958.79
520.13	975.56
520.49	992.33
520.85	1009.09
521.21	1026.14
521.57	1043.84
521.93	1061.00
522.29	1078.89
522.65	1096.74
523.01	1114.50
523.37	1132.04
523.73	1149.78
524.09	1167.46
524.45	1185.34
524.81	1203.69
525.17	1222.08
525.53	1240.74
525.89	1259.29
526.25	1277.81
526.61	1295.84
526.97	1314.24
527.33	1332.60
527.68	1350.93
528.04	1369.22
528.40	1387.64
528.76	1406.57
529.12	1425.20
529.48	1443.98
529.84	1461.94
530.20	1480.40
530.56	1499.37
530.91	1518.77
531.27	1537.67
531.63	1556.06
531.99	1574.67
532.35	1592.62
532.71	1610.61
533.07	1628.95
533.42	1646.83
533.78	1665.09
534.14	1683.52
534.50	1700.99
534.86	1718.93
535.21	1736.31
535.57	1754.46
535.93	1772.05
536.29	1788.82
536.65	1805.81
537.00	1822.65
537.36	1840.19
537.72	1856.82
538.08	1873.40
538.44	1889.14
538.79	1905.01
539.15	1920.66
539.51	1936.53
539.87	1953.08
540.22	1968.97
540.58	1984.98
540.94	2000.57
541.29	2015.52
541.65	2030.37
542.01	2045.82
542.37	2060.36
542.72	2074.95
543.08	2088.98
543.44	2103.89
543.79	2117.53
544.15	2130.80
544.51	2144.74
544.87	2157.79
545.22	2170.84
545.58	2183.28
545.94	2195.40
546.29	2207.50
546.65	2219.84
547.01	2231.40
547.36	2242.25
547.72	2252.84
548.07	2262.74
548.43	2272.96
548.79	2283.01
549.14	2292.67
549.50	2301.96
549.86	2311.55
550.21	2320.95
550.57	2330.05
550.92	2338.43
551.28	2347.46
551.64	2356.61
551.99	2365.04
552.35	2373.18
552.70	2381.29
553.06	2389.24
553.41	2397.49
553.77	2405.39
554.13	2413.22
554.48	2421.08
554.84	2428.42
555.19	2435.39
555.55	2442.45
555.90	2448.75
556.26	2455.50
556.61	2461.87
556.97	2468.05
557.32	2473.96
557.68	2479.67
558.03	2485.61
558.39	2490.74
558.74	2497.00
559.10	2502.48
559.45	2507.64
559.81	2513.31
560.16	2518.67
560.52	2523.39
560.87	2528.17
561.23	2532.11
561.58	2536.26
561.94	2540.16
562.29	2543.66
562.64	2547.92
563.00	2551.55
563.35	2556.52
563.71	2560.86
564.06	2565.32
564.42	2569.51
564.77	2573.40
565.12	2577.02
565.48	2580.22
565.83	2583.38
566.19	2585.87
566.54	2587.62
566.89	2589.89
567.25	2591.72
567.60	2594.06
567.96	2596.96
568.31	2598.76
568.66	2601.08
569.02	2602.70
569.37	2603.91
569.72	2605.89
570.08	2606.84
570.43	2607.75
570.78	2607.76
571.14	2606.82
571.49	2606.07
571.84	2606.25
572.20	2605.68
572.55	2605.27
572.90	2604.04
573.26	2603.17
573.61	2601.81
573.96	2600.67
574.31	2597.96
574.67	2595.17
575.02	2591.76
575.37	2588.37
575.72	2584.75
576.08	2581.33
576.43	2578.13
576.78	2574.65
577.13	2571.41
577.49	2568.29
577.84	2564.85
578.19	2561.11
578.54	2557.56
578.90	2553.39
579.25	2547.57
579.60	2542.45
579.95	2537.17
580.30	2531.94
580.66	2526.36
581.01	2521.01
581.36	2515.60
581.71	2511.08
582.06	2506.40
582.42	2501.66
582.77	2496.04
583.12	2491.25
583.47	2486.35
583.82	2481.06
584.17	2475.25
584.53	2469.24
584.88	2463.16
585.23	2457.02
585.58	2450.90
585.93	2445.01
586.28	2439.83
586.63	2434.32
586.98	2428.71
587.34	2423.47
587.69	2418.17
588.04	2412.52
588.39	2406.45
588.74	2399.31
589.09	2392.67
589.44	2385.02
589.79	2378.29
590.14	2371.88
590.49	2364.48
590.84	2357.34
591.19	2350.58
591.54	2343.44
591.89	2335.39
592.25	2327.79
592.60	2319.51
592.95	2311.08
593.30	2302.72
593.65	2293.86
594.00	2285.77
594.35	2277.25
594.70	2267.96
595.05	2259.78
595.40	2251.52
595.75	2242.80
596.10	2235.87
596.45	2228.14
596.80	2221.26
597.15	2213.75
597.50	2205.85
597.85	2198.45
598.19	2190.80
598.54	2182.77
598.89	2175.19
599.24	2168.30
599.59	2160.70
599.94	2153.57
600.29	2146.40
600.64	2138.76
600.99	2130.38
601.34	2122.65
601.69	2114.79
602.04	2107.18
602.39	2098.59
602.74	2090.73
603.08	2083.03
603.43	2075.03
603.78	2066.56
604.13	2058.09
604.48	2049.64
604.83	2041.64
605.18	2033.61
605.53	2024.31
605.87	2015.05
606.22	2006.50
606.57	1997.29
606.92	1988.52
607.27	1980.32
607.62	1972.20
607.96	1963.82
608.31	1956.16
608.66	1947.20
609.01	1938.41
609.36	1929.43
609.70	1920.16
610.05	1910.68
610.40	1901.65
610.75	1891.98
611.10	1883.00
611.44	1873.11
611.79	1863.71
612.14	1853.49
612.49	1842.73
612.83	1832.85
613.18	1823.13
613.53	1813.72
613.88	1803.70
614.22	1794.09
614.57	1783.72
614.92	1774.26
615.27	1765.51
615.61	1755.67
615.96	1746.22
616.31	1737.19
616.65	1728.48
617.00	1719.40
617.35	1710.31
617.70	1700.56
618.04	1690.48
618.39	1680.69
618.74	1671.86
619.08	1662.08
619.43	1653.08
619.78	1644.89
620.12	1636.49
620.47	1627.76
620.82	1618.02
621.16	1609.19
621.51	1600.23
621.85	1591.38
622.20	1581.33
622.55	1571.29
622.89	1561.97
623.24	1552.97
623.59	1544.20
623.93	1535.27
624.28	1526.82
624.62	1518.02
624.97	1509.49
625.32	1501.49
625.66	1493.26
626.01	1484.66
626.35	1475.96
626.70	1466.80
627.04	1457.76
627.39	1448.58
627.73	1439.77
628.08	1431.69
628.43	1423.22
628.77	1414.52
629.12	1405.57
629.46	1397.13
629.81	1388.37
630.15	1380.02
630.50	1371.32
630.84	1361.72
631.19	1352.39
631.53	1343.48
631.88	1334.52
632.22	1325.65
632.57	1317.14
632.91	1308.33
633.26	1299.76
633.60	1291.00
633.95	1282.68
634.29	1274.36
634.64	1266.51
634.98	1257.89
635.32	1249.52
635.67	1241.66
636.01	1233.83
636.36	1225.96
636.70	1218.29
637.05	1210.64
637.39	1202.98
637.73	1195.37
638.08	1188.49
638.42	1181.57
638.77	1174.08
639.11	1166.48
639.45	1158.99
639.80	1151.26
640.14	1143.76
640.49	1136.11
640.83	1128.69
641.17	1121.52
641.52	1114.14
641.86	1106.55
642.20	1099.75
642.55	1092.27
642.89	1084.76
643.23	1077.18
643.58	1070.44
643.92	1063.25
644.26	1056.18
644.61	1049.07
644.95	1042.04
645.29	1034.43
645.64	1026.54
645.98	1019.12
646.32	1012.19
646.66	1005.22
647.01	998.45
647.35	991.85
647.69	985.01
648.04	978.59
648.38	971.88
648.72	965.05
649.06	958.14
649.41	951.36
649.75	944.56
650.09	937.70
650.43	931.00
650.78	923.86
651.12	917.02
651.46	910.42
651.80	903.88
652.14	897.65
652.49	891.45
652.83	885.47
653.17	879.02
653.51	872.52
653.85	866.16
654.20	859.69
654.54	852.70
654.88	846.07
655.22	839.26
655.56	832.58
655.90	826.18
656.25	820.06
656.59	813.80
656.93	807.92
657.27	801.91
657.61	795.62
657.95	789.72
658.29	783.78
658.64	777.64
658.98	771.53
659.32	765.22
659.66	759.23
660.00	753.15
660.34	747.40
660.68	741.65
661.02	735.83
661.36	730.32
661.70	725.14
662.05	720.11
662.39	715.19
662.73	710.06
663.07	705.08
663.41	699.95
663.75	694.82
664.09	689.49
664.43	684.45
664.77	679.71
665.11	674.84
665.45	670.09
665.79	665.45
666.13	660.60
666.47	655.88
666.81	651.06
667.15	646.23
667.49	641.75
667.83	637.32
668.17	632.85
668.51	628.15
668.85	623.43
669.19	618.95
669.53	614.53
669.87	610.10
670.21	605.79
670.55	601.56
670.89	597.57
671.23	593.58
671.57	589.49
671.91	585.47
672.25	581.40
672.58	577.32
672.92	573.36
673.26	569.72
673.60	566.03
673.94	562.44
674.28	559.06
674.62	555.65
674.96	552.11
675.30	548.79
675.64	545.49
675.97	542.32
676.31	539.09
676.65	535.66
676.99	532.53
677.33	529.27
677.67	526.05
678.01	522.58
678.34	519.22
678.68	515.93
679.02	512.66
679.36	509.49
679.70	506.36
680.04	503.21
680.37	499.97
680.71	496.75
681.05	493.71
681.39	490.59
681.73	487.55
682.06	484.64
682.40	481.70
682.74	478.73
683.08	475.76
683.42	472.75
683.75	469.89
684.09	466.97
684.43	464.02
684.77	461.14
685.10	458.39
685.44	455.73
685.78	453.13
686.12	450.45
686.45	447.84
686.79	445.22
687.13	442.65
687.46	440.11
687.80	437.60
688.14	435.03
688.48	432.68
688.81	430.09
689.15	427.58
689.49	425.02
689.82	422.59
690.16	420.16
690.50	417.84
690.83	415.60
691.17	413.25
691.51	411.11
691.84	408.98
692.18	406.75
692.52	404.42
692.85	402.15
693.19	399.99
693.52	397.80
693.86	395.63
694.20	393.54
694.53	391.40
694.87	389.25
695.21	387.17
695.54	384.99
695.88	382.96
696.21	380.92
696.55	378.99
696.88	377.03
697.22	375.10
697.56	373.20
697.89	371.28
698.23	369.37
698.56	367.49
698.90	365.64
699.23	363.71
699.57	361.90
699.90	360.05
700.24	358.27
700.58	356.52
700.91	354.83
701.25	353.13
701.58	351.59
701.92	350.09
702.25	348.52
702.59	346.96
702.92	345.44
703.26	343.92
703.59	342.43
703.93	341.04
704.26	339.68
704.60	338.21
704.93	336.67
705.26	335.27
705.60	333.85
705.93	332.48
706.27	331.27
706.60	330.06
706.94	328.80
707.27	327.45
707.61	326.19
707.94	324.94
708.27	323.67
708.61	322.35
708.94	321.10
709.28	319.92
709.61	318.82
709.94	317.67
710.28	316.48
710.61	315.32
710.95	314.09
711.28	312.98
711.61	311.88
711.95	310.84
712.28	309.72
712.61	308.60
712.95	307.50
713.28	306.47
713.61	305.40
713.95	304.40
714.28	303.45
714.61	302.43
714.95	301.43
715.28	300.44
715.61	299.42
715.95	298.44
716.28	297.43
716.61	296.42
716.95	295.44
717.28	294.54
717.61	293.62
717.94	292.75
718.28	291.80
718.61	290.96
718.94	290.16
719.27	289.40
719.61	288.65
719.94	287.88
720.27	287.07
720.60	286.30
720.94	285.54
721.27	284.83
721.60	284.15
721.93	283.48
722.27	282.86
722.60	282.23
722.93	281.59
723.26	281.00
723.59	280.36
723.93	279.72
724.26	279.10
724.59	278.48
724.92	277.86
725.25	277.30
725.59	276.67
725.92	276.08
726.25	275.47
726.58	274.88
726.91	274.31
727.24	273.75
727.57	273.22
727.91	272.64
728.24	272.12
728.57	271.57
728.90	271.05
729.23	270.48
729.56	270.01
729.89	269.45
730.22	268.91
730.55	268.38
730.89	267.90
731.22	267.42
731.55	266.93
731.88	266.44
732.21	265.91
732.54	265.43
732.87	264.91
733.20	264.47
733.53	264.03
733.86	263.59
734.19	263.13
734.52	262.69
734.85	262.34
735.18	261.83
735.51	261.41
735.84	261.00
736.17	260.60
736.50	260.13
736.83	259.79
737.16	259.39
737.49	259.01
737.82	258.64
738.15	258.22
738.48	257.82
738.81	257.44
739.14	257.10
739.47	256.72
739.80	256.36
740.13	255.99
740.46	255.60
740.79	255.23
741.12	254.88
741.45	254.49
741.78	254.11
742.11	253.80
742.44	253.43
742.77	253.10
743.10	252.71
743.43	252.38
743.75	251.98
744.08	251.78
744.41	251.44
744.74	251.06
745.07	250.75
745.40	250.46
745.73	250.22
746.06	249.87
746.39	249.54
746.71	249.23
747.04	248.90
747.37	248.61
747.70	248.32
748.03	248.01
748.36	247.75
748.68	247.42
749.01	247.09
749.34	246.84
749.67	246.53
750.00	246.30
750.33	246.08
750.65	245.80
750.98	245.42
751.31	245.14
751.64	244.95
751.97	244.75
752.29	244.51
752.62	244.22
752.95	243.99
753.28	243.77
753.60	243.51
753.93	243.34
754.26	243.12
754.59	242.84
754.91	242.62
755.24	242.40
755.57	242.18
755.90	241.98
756.22	241.75
756.55	241.55
756.88	241.31
757.20	241.04
757.53	240.86
757.86	240.65
758.19	240.45
758.51	240.23
758.84	239.98
759.17	239.74
759.49	239.51
759.82	239.36
760.15	239.22
760.47	239.04
760.80	238.82
761.13	238.65
761.45	238.49
761.78	238.29
762.11	238.10
762.43	237.92
762.76	237.75
763.08	237.58
763.41	237.42
763.74	237.28
764.06	237.12
764.39	236.92
764.71	236.75
765.04	236.59
765.37	236.43
765.69	236.28
766.02	236.15
766.34	236.02
766.67	235.85
767.00	235.73
767.32	235.66
767.65	235.60
767.97	235.47
768.30	235.39
768.62	235.28
768.95	235.16
769.27	235.07
769.60	234.96
769.92	234.84
770.25	234.68
770.57	234.56
770.90	234.44
771.22	234.35
771.55	234.25
771.87	234.16
772.20	234.05
772.52	234.05
772.85	234.07
773.17	233.96
773.50	233.83
773.82	233.73
774.15	233.56
774.47	233.37
774.80	233.27
775.12	233.17
775.45	233.07
775.77	232.99
776.09	232.91
776.42	232.84
776.74	232.76
777.07	232.67
777.39	232.58
777.72	232.49
778.04	232.40
778.36	232.31
778.69	232.26
779.01	232.21
779.33	232.03
779.66	231.86
779.98	231.82
780.31	231.80
780.63	231.76
780.95	231.73
781.28	231.68
781.60	231.58
781.92	231.50
782.25	231.46
782.57	231.41
782.89	231.35
783.22	231.27
783.54	231.19
783.86	231.18
784.19	231.13
784.51	231.11
784.83	231.07
785.16	231.02
785.48	230.96
785.80	230.91
786.12	230.88
786.45	230.83
786.77	230.76
787.09	230.69
787.42	230.60
787.74	230.51
788.06	230.49
788.38	230.45
788.71	230.40
789.03	230.34
789.35	230.26
789.67	230.20
789.99	230.14
790.32	230.11
790.64	230.08
790.96	230.11
791.28	230.03
791.61	229.98
791.93	229.96
792.25	229.88
792.57	229.91
792.89	229.84
793.21	229.80
793.54	229.76
793.86	229.72
794.18	229.72
794.50	229.68
794.82	229.60
795.14	229.55
795.47	229.50
795.79	229.49
796.11	229.43
796.43	229.37
796.75	229.31
797.07	229.26
797.39	229.20
797.71	229.07
798.04	229.05
798.36	229.00
798.68	228.93
799.00	228.91
799.32	228.80
799.64	228.76
799.96	228.69
800.28	228.65
800.60	228.55
800.92	228.45
801.24	228.40
801.56	228.35
801.89	228.30
802.21	228.25
802.53	228.16
802.85	228.09
803.17	228.10
803.49	228.05
803.81	227.99
804.13	227.95
804.45	227.89
804.77	227.84
805.09	227.80
805.41	227.75
805.73	227.67
806.05	227.62
806.37	227.58
806.69	227.53
807.01	227.48
807.33	227.48
807.65	227.42
807.97	227.43
808.28	227.41
808.60	227.38
808.92	227.34
809.24	227.38
809.56	227.38
809.88	227.27
810.20	227.28
810.52	227.24
810.84	227.21
811.16	227.18
811.48	227.17
811.80	227.19
812.12	227.17
812.43	227.18
812.75	227.12
813.07	227.08
813.39	227.04
813.71	227.01
814.03	226.94
814.35	226.93
814.67	226.88
814.98	226.83
815.30	226.80
815.62	226.77
815.94	226.67
816.26	226.67
816.58	226.66
816.89	226.62
817.21	226.61
817.53	226.59
817.85	226.55
818.17	226.50
818.48	226.42
818.80	226.42
819.12	226.38
819.44	226.35
819.76	226.31
820.07	226.33
820.39	226.33
820.71	226.36
821.03	226.33
821.34	226.27
821.66	226.27
821.98	226.27
822.30	226.29
822.61	226.37
822.93	226.32
823.25	226.30
823.57	226.26
823.88	226.27
824.20	226.26
824.52	226.25
824.83	226.24
825.15	226.25
825.47	226.21
825.79	226.20
826.10	226.19
826.42	226.21
826.74	226.20
827.05	226.19
827.37	226.18
827.69	226.19
828.00	226.25
828.32	226.24
828.64	226.24
828.95	226.26
829.27	226.21
829.58	226.21
829.90	226.24
830.22	226.26
830.53	226.22
830.85	226.23
831.17	226.21
831.48	226.21
831.80	226.20
832.11	226.21
832.43	226.21
832.75	226.18
833.06	226.19
833.38	226.14
833.69	226.12
834.01	226.14
834.32	226.08
834.64	226.03
834.96	226.02
835.27	225.99
835.59	225.97
835.90	225.96
836.22	225.94
836.53	225.92
836.85	225.92
837.16	226.00
837.48	225.97
837.79	226.01
838.11	226.01
838.42	225.98
838.74	225.99
839.05	225.95
839.37	225.94
839.68	225.91
840.00	225.90
840.31	225.92
840.63	225.90
840.94	225.91
841.26	225.89
841.57	225.85
841.88	225.88
842.20	225.83
842.51	225.79
842.83	225.77
843.14	225.87
843.46	225.85
843.77	225.79
844.08	225.77
844.40	225.75
844.71	225.70
845.03	225.68
845.34	225.65
845.65	225.68
845.97	225.70
846.28	225.70
846.60	225.71
846.91	225.69
847.22	225.66
847.54	225.71
847.85	225.73
848.16	225.75
848.48	225.68
848.79	225.71
849.10	225.72
849.42	225.73
849.73	225.63
850.04	225.60
850.36	225.57
850.67	225.58
850.98	225.54
851.30	225.56
851.61	225.56
851.92	225.56
852.23	225.58
852.55	225.58
852.86	225.58
853.17	225.56
853.49	225.57
853.80	225.57
854.11	225.53
854.42	225.51
854.74	225.53
855.05	225.52
855.36	225.46
855.67	225.46
855.99	225.44
856.30	225.53
856.61	225.52
856.92	225.51
857.23	225.51
857.55	225.52
857.86	225.52
858.17	225.51
858.48	225.52
858.79	225.49
859.11	225.49
859.42	225.51
859.73	225.50
860.04	225.47
860.35	225.44
860.66	225.41
860.98	225.42
861.29	225.39
861.60	225.40
861.91	225.43
862.22	225.41
862.53	225.42
862.84	225.32
863.16	225.38
863.47	225.34
863.78	225.35
864.09	225.36
864.40	225.36
864.71	225.37
865.02	225.39
865.33	225.38
865.64	225.39
865.95	225.40
866.27	225.49
866.58	225.50
866.89	225.53
867.20	225.54
867.51	225.51
867.82	225.53
868.13	225.57
868.44	225.56
868.75	225.56
869.06	225.54
869.37	225.55
869.68	225.51
869.99	225.58
870.30	225.60
870.61	225.60
870.92	225.59
871.23	225.60
871.54	225.60
871.85	225.63
872.16	225.59
872.47	225.57
872.78	225.52
873.09	225.52
873.40	225.51
873.71	225.53
874.02	225.56
874.33	225.53
874.64	225.53
874.95	225.57
875.26	225.56
875.56	225.58
875.87	225.58
876.18	225.55
876.49	225.62
876.80	225.61
877.11	225.60
877.42	225.60
877.73	225.59
878.04	225.56
878.35	225.55
878.66	225.59
878.96	225.59
879.27	225.56
879.58	225.59
879.89	225.60
880.20	225.63
880.51	225.62
880.82	225.64
881.12	225.62
881.43	225.58
881.74	225.58
882.05	225.59
882.36	225.61
882.67	225.63
882.97	225.51
883.28	225.52
883.59	225.52
883.90	225.51
884.21	225.55
884.51	225.53
884.82	225.51
885.13	225.49
885.44	225.47
885.74	225.49
886.05	225.45
886.36	225.41
886.67	225.35
886.98	225.40
887.28	225.38
887.59	225.40
887.90	225.40
888.20	225.39
888.51	225.35
888.82	225.30
889.13	225.28
889.43	225.36
889.74	225.33
890.05	225.33
890.35	225.32
890.66	225.25
890.97	225.22
891.28	225.20
891.58	225.19
891.89	225.19
892.20	225.16
892.50	225.13
892.81	225.16
893.12	225.17
893.42	225.07
893.73	225.06
894.04	225.01
894.34	224.98
894.65	224.98
894.95	224.98
895.26	224.98
895.57	225.03
895.87	224.93
896.18	224.91
896.48	224.89
896.79	224.91
897.10	224.91
897.40	224.90
897.71	224.91
898.01	224.89
898.32	224.88
898.63	224.86
898.93	224.87
899.24	224.84
899.54	224.83
899.85	224.84
900.15	224.85
900.46	224.88
900.76	224.92
901.07	224.90
901.38	224.91
901.68	224.91
901.99	224.86
902.29	224.87
902.60	224.83
902.90	224.83
903.21	224.80
903.51	224.81
903.82	224.83
904.12	224.83
904.43	224.85
904.73	224.84
905.03	224.84
905.34	224.90
905.64	224.91
905.95	224.90
906.25	224.91
906.56	224.88
906.86	224.89
907.17	224.89
907.47	224.88
907.77	224.89
908.08	224.86
908.38	224.90
908.69	224.91
908.99	224.96
909.30	224.96
909.60	224.94
909.90	224.93
910.21	224.94
910.51	224.94
910.81	224.93
911.12	224.94
911.42	224.98
911.73	224.90
912.03	224.91
912.33	224.96
912.64	224.95
912.94	224.94
913.24	224.93
913.55	224.93
913.85	224.92
914.15	224.95
914.46	224.97
914.76	224.97
915.06	224.97
915.37	224.95
915.67	224.93
915.97	224.95
916.27	224.94
916.58	224.95
916.88	224.97
917.18	224.95
917.49	225.01
917.79	225.00
918.09	225.00
918.39	225.01
918.70	224.96
919.00	224.98
919.30	225.04
919.60	225.01
919.91	224.97
920.21	224.98
920.51	224.94
920.81	224.96
921.12	224.94
921.42	224.93
921.72	224.92
922.02	224.93
922.32	224.95
922.63	224.94
922.93	224.98
923.23	224.96
923.53	224.98
923.83	224.90
924.13	224.90
924.44	224.92
924.74	224.93
925.04	224.97
925.34	224.93
925.64	224.88
925.94	224.89
926.24	224.97
926.55	224.96
926.85	224.96
927.15	224.94
927.45	224.92
927.75	224.92
928.05	224.93
928.35	224.92
928.65	224.94
928.95	224.94
929.26	224.89
929.56	224.90
929.86	224.90
930.16	224.91
930.46	224.90
930.76	224.89
931.06	224.85
931.36	224.81
931.66	224.84
931.96	224.85
932.26	224.85
932.56	224.78
932.86	224.78
933.16	224.77
933.46	224.77
933.76	224.76
934.06	224.79
934.36	224.82
934.66	224.82
934.96	224.83
935.26	224.83
935.56	224.86
935.86	224.84
936.16	224.82
936.46	224.85
936.76	224.83
937.06	224.81
937.36	224.82
937.66	224.86
937.96	224.87
938.26	224.86
938.56	224.84
938.86	224.87
939.16	224.91
939.46	224.91
939.76	224.93
940.06	224.94
940.35	224.93
940.65	224.90
940.95	224.92
941.25	224.89
941.55	224.92
941.85	224.90
942.15	224.93
942.45	224.99
942.75	224.96
943.04	224.97
943.34	224.98
943.64	224.96
943.94	224.93
944.24	224.90
944.54	224.90
944.84	224.93
945.13	224.90
945.43	224.89
945.73	224.88
946.03	224.84
946.33	224.83
946.62	224.80
946.92	224.81
947.22	224.81
947.52	224.79
947.82	224.79
948.11	224.76
948.41	224.75
948.71	224.67
949.01	224.66
949.31	224.66
949.60	224.68
949.90	224.72
950.20	224.72
950.50	224.75
950.79	224.75
951.09	224.76
951.39	224.80
951.69	224.77
951.98	224.81
952.28	224.85
952.58	224.86
952.87	224.86
953.17	224.87
953.47	224.85
953.76	224.86
954.06	224.85
954.36	224.84
954.66	224.82
954.95	224.87
955.25	224.88
955.55	224.88
955.84	224.86
956.14	224.87
956.44	224.88
956.73	224.88
957.03	224.88
957.32	224.86
957.62	224.82
957.92	224.86
958.21	224.82
958.51	224.93
958.81	224.95
959.10	224.99
959.40	225.03
959.69	225.04
959.99	225.07
960.29	225.07
960.58	225.10
960.88	225.15
961.17	225.15
961.47	225.16
961.76	225.15
962.06	225.17
962.36	225.13
962.65	225.14
962.95	225.15
963.24	225.16
963.54	225.18
963.83	225.19
964.13	225.16
964.42	225.17
964.72	225.05
965.01	225.04
965.31	225.01
965.60	224.95
965.90	225.03
966.19	224.98
966.49	224.98
966.78	224.95
967.08	224.93
967.37	224.90
967.67	224.89
967.96	224.90
968.26	224.89
968.55	224.90
968.85	224.88
969.14	224.84
969.43	224.82
969.73	224.78
970.02	224.77
970.32	224.77
970.61	224.77
970.91	224.75
971.20	224.74
971.49	224.75
971.79	224.76
972.08	224.67
972.38	224.71
972.67	224.71
972.96	224.72
973.26	224.71
973.55	224.77
973.85	224.76
974.14	224.77
974.43	224.76
974.73	224.73
975.02	224.73
975.31	224.76
975.61	224.76
975.90	224.75
976.19	224.78
976.49	224.75
976.78	224.73
977.07	224.72
977.37	224.71
977.66	224.71
977.95	224.71
978.24	224.72
978.54	224.70
978.83	224.66
979.12	224.68
979.42	224.68
979.71	224.60
980.00	224.60
980.29	224.60
980.59	224.60
980.88	224.65
981.17	224.62
981.46	224.62
981.76	224.62
982.05	224.66
982.34	224.65
982.63	224.64
982.93	224.64
983.22	224.64
983.51	224.65
983.80	224.62
984.09	224.60
984.39	224.60
984.68	224.59
984.97	224.58
985.26	224.51
985.55	224.50
985.85	224.52
986.14	224.50
986.43	224.50
986.72	224.47
987.01	224.45
987.30	224.46
987.59	224.45
987.89	224.45
988.18	224.44
988.47	224.42
988.76	224.44
989.05	224.46
989.34	224.47
989.63	224.50
989.92	224.50
990.22	224.50
990.51	224.47
990.80	224.49
991.09	224.50
991.38	224.54
991.67	224.52
991.96	224.51
992.25	224.50
992.54	224.49
992.83	224.51
993.12	224.49
993.41	224.52
993.70	224.55
993.99	224.55
994.28	224.55
994.58	224.56
994.87	224.53
995.16	224.54
995.45	224.51
995.74	224.49
996.03	224.52
996.32	224.54
996.61	224.58
996.90	224.58
997.19	224.59
997.48	224.60
997.77	224.60
998.06	224.60
998.34	224.60
998.63	224.61
998.92	224.58
999.21	224.60
999.50	224.57
999.79	224.50
1000.08	224.51
1000.37	224.53
1000.66	224.52
1000.95	224.55
1001.24	224.56
1001.53	224.57
1001.82	224.55
1002.11	224.53
1002.40	224.54
1002.68	224.55
1002.97	224.62
1003.26	224.63
1003.55	224.63
1003.84	224.65
1004.13	224.66
1004.42	224.68
1004.71	224.65
1004.99	224.65
1005.28	224.65
1005.57	224.65
1005.86	224.67
1006.15	224.66
1006.44	224.62
1006.72	224.65
1007.01	224.64
1007.30	224.63
1007.59	224.64
1007.88	224.66
1008.17	224.67
1008.45	224.65
1008.74	224.59
1009.03	224.50
1009.32	224.52
1009.60	224.48
1009.89	224.47
1010.18	224.48
1010.47	224.45
1010.76	224.44
1011.04	224.47
1011.33	224.48
1011.62	224.47
1011.91	224.45
1012.19	224.44
1012.48	224.45
1012.77	224.43
1013.05	224.47
1013.34	224.44
1013.63	224.42
1013.92	224.42
1014.20	224.39
1014.49	224.41
1014.78	224.44
1015.06	224.44
1015.35	224.43
1015.64	224.45
1015.92	224.45
1016.21	224.44
1016.50	224.47
1016.78	224.49
1017.07	224.47
1017.36	224.46
1017.64	224.48
1017.93	224.50
1018.22	224.50
1018.50	224.49
1018.79	224.47
1019.08	224.44
1019.36	224.49
1019.65	224.45
1019.93	224.48
1020.22	224.49
1020.51	224.54
1020.79	224.54
1021.08	224.28
1021.36	224.18
1021.65	223.88
1021.94	224.63
1022.22	224.95
1022.51	223.88
1022.79	225.26
1023.08	224.26
1023.36	225.91
1023.65	224.69
>>>>>End Processed Spectral Data<<<<<
