SpectraSuite Data File
++++++++++++++++++++++++++++++++++++
Date: Fri Feb 01 16:02:33 EST 2013
User: group
Dark Spectrum Present: No
Reference Spectrum Present: No
Number of Sampled Component Spectra: 1
Spectrometers: USB2E7196
Integration Time (usec): 35000 (USB2E7196)
Spectra Averaged: 100 (USB2E7196)
Boxcar Smoothing: 10 (USB2E7196)
Correct for Electrical Dark: No (USB2E7196)
Strobe/Lamp Enabled: No (USB2E7196)
Correct for Detector Non-linearity: No (USB2E7196)
Correct for Stray Light: No (USB2E7196)
Number of Pixels in Processed Spectrum: 2048
>>>>>Begin Processed Spectral Data<<<<<
339.09	0.00
339.48	214.71
339.86	216.29
340.24	217.86
340.63	219.19
341.01	221.13
341.39	221.84
341.78	222.99
342.16	224.08
342.54	224.88
342.93	213.01
343.31	223.78
343.69	224.32
344.07	224.78
344.46	225.19
344.84	225.54
345.22	225.83
345.60	226.07
345.99	226.23
346.37	226.36
346.75	226.44
347.13	226.49
347.52	226.52
347.90	226.59
348.28	226.61
348.66	226.67
349.05	226.65
349.43	226.69
349.81	226.69
350.19	226.78
350.57	226.85
350.96	226.92
351.34	227.01
351.72	227.11
352.10	227.22
352.48	227.26
352.87	227.35
353.25	227.39
353.63	227.45
354.01	227.53
354.39	227.64
354.77	227.73
355.15	227.86
355.54	227.93
355.92	227.96
356.30	228.08
356.68	228.22
357.06	228.32
357.44	228.38
357.82	228.48
358.20	228.53
358.58	228.60
358.97	228.67
359.35	228.76
359.73	228.85
360.11	228.90
360.49	228.98
360.87	229.02
361.25	229.11
361.63	229.18
362.01	229.23
362.39	229.24
362.77	229.28
363.15	229.31
363.53	229.38
363.91	229.43
364.29	229.43
364.67	229.33
365.05	229.37
365.43	229.41
365.81	229.41
366.19	229.45
366.57	229.49
366.95	229.50
367.33	229.47
367.71	229.43
368.09	229.43
368.47	229.42
368.85	229.40
369.23	229.36
369.61	229.30
369.99	229.30
370.37	229.26
370.75	229.26
371.13	229.20
371.51	229.13
371.89	229.07
372.27	229.01
372.65	229.00
373.03	228.89
373.41	228.82
373.78	228.77
374.16	228.67
374.54	228.59
374.92	228.52
375.30	228.46
375.68	228.35
376.06	228.28
376.44	228.26
376.82	228.17
377.19	228.13
377.57	228.07
377.95	227.97
378.33	227.90
378.71	227.79
379.09	227.70
379.47	227.66
379.84	227.61
380.22	227.55
380.60	227.45
380.98	227.39
381.36	227.34
381.73	227.28
382.11	227.24
382.49	227.17
382.87	227.10
383.25	226.99
383.62	227.07
384.00	226.99
384.38	226.87
384.76	226.86
385.13	226.81
385.51	226.74
385.89	226.71
386.27	226.66
386.64	226.60
387.02	226.58
387.40	226.51
387.78	226.48
388.15	226.42
388.53	226.37
388.91	226.34
389.29	226.33
389.66	226.29
390.04	226.25
390.42	226.24
390.79	226.20
391.17	226.20
391.55	226.09
391.92	226.08
392.30	226.07
392.68	226.04
393.05	226.04
393.43	226.03
393.81	226.02
394.18	226.01
394.56	226.06
394.94	226.09
395.31	226.10
395.69	226.12
396.06	226.18
396.44	226.22
396.82	226.23
397.19	226.27
397.57	226.31
397.95	226.36
398.32	226.35
398.70	226.39
399.07	226.47
399.45	226.50
399.82	226.57
400.20	226.61
400.58	226.66
400.95	226.71
401.33	226.81
401.70	227.00
402.08	227.10
402.45	227.18
402.83	227.32
403.20	227.41
403.58	227.53
403.95	227.65
404.33	227.77
404.71	227.92
405.08	228.09
405.46	228.21
405.83	228.34
406.21	228.51
406.58	228.73
406.96	228.88
407.33	229.06
407.70	229.25
408.08	229.53
408.45	229.74
408.83	229.99
409.20	230.19
409.58	230.34
409.95	230.60
410.33	230.86
410.70	231.09
411.08	231.40
411.45	231.69
411.82	232.01
412.20	232.37
412.57	232.82
412.95	233.10
413.32	233.52
413.69	233.95
414.07	234.39
414.44	234.84
414.82	235.33
415.19	235.91
415.56	236.48
415.94	237.02
416.31	237.66
416.68	238.29
417.06	239.04
417.43	239.70
417.81	240.45
418.18	241.24
418.55	242.07
418.93	242.94
419.30	243.79
419.67	244.70
420.04	245.61
420.42	246.55
420.79	247.73
421.16	248.87
421.54	250.05
421.91	251.27
422.28	252.54
422.66	253.88
423.03	255.18
423.40	256.49
423.77	257.95
424.15	259.39
424.52	260.87
424.89	262.46
425.26	264.03
425.64	265.50
426.01	267.05
426.38	268.74
426.75	270.39
427.13	272.10
427.50	273.94
427.87	275.87
428.24	277.71
428.61	279.47
428.99	281.43
429.36	283.52
429.73	285.56
430.10	287.57
430.47	289.67
430.85	291.72
431.22	293.98
431.59	296.30
431.96	298.57
432.33	301.04
432.70	303.42
433.08	306.24
433.45	308.87
433.82	311.54
434.19	314.37
434.56	317.21
434.93	319.90
435.30	322.49
435.68	325.38
436.05	328.23
436.42	331.01
436.79	333.53
437.16	336.19
437.53	339.04
437.90	341.81
438.27	344.49
438.64	347.37
439.01	349.95
439.38	352.19
439.75	354.33
440.13	356.85
440.50	359.17
440.87	360.99
441.24	362.90
441.61	365.00
441.98	366.54
442.35	368.32
442.72	370.19
443.09	372.01
443.46	372.97
443.83	373.56
444.20	374.09
444.57	374.95
444.94	375.25
445.31	375.57
445.68	375.92
446.05	375.98
446.42	375.58
446.79	375.11
447.16	374.65
447.53	374.30
447.90	373.08
448.27	371.88
448.64	370.30
449.01	369.20
449.37	367.25
449.74	365.30
450.11	363.02
450.48	360.52
450.85	358.00
451.22	355.82
451.59	353.82
451.96	351.89
452.33	349.25
452.70	346.87
453.07	344.05
453.43	341.17
453.80	338.42
454.17	335.74
454.54	333.22
454.91	330.48
455.28	327.85
455.65	325.39
456.02	322.98
456.38	320.87
456.75	318.17
457.12	315.94
457.49	313.78
457.86	311.64
458.23	309.80
458.59	307.75
458.96	305.69
459.33	303.81
459.70	301.94
460.07	300.47
460.43	298.78
460.80	297.17
461.17	295.76
461.54	294.29
461.91	292.89
462.27	291.44
462.64	290.20
463.01	288.84
463.38	287.56
463.74	286.21
464.11	285.05
464.48	284.02
464.85	282.87
465.21	281.96
465.58	281.07
465.95	279.99
466.32	279.14
466.68	278.27
467.05	277.39
467.42	276.50
467.78	275.59
468.15	274.73
468.52	274.07
468.88	273.25
469.25	272.47
469.62	271.85
469.98	271.21
470.35	270.63
470.72	270.05
471.08	269.37
471.45	268.86
471.82	268.29
472.18	267.74
472.55	267.35
472.92	266.83
473.28	266.40
473.65	265.96
474.02	265.48
474.38	265.16
474.75	264.81
475.11	264.48
475.48	264.20
475.85	263.99
476.21	263.75
476.58	263.53
476.94	263.41
477.31	263.24
477.67	263.09
478.04	263.00
478.41	262.92
478.77	262.98
479.14	262.87
479.50	262.90
479.87	262.98
480.23	263.08
480.60	263.14
480.96	263.21
481.33	263.42
481.69	263.63
482.06	263.82
482.42	264.01
482.79	264.22
483.15	264.56
483.52	264.96
483.88	265.35
484.25	265.72
484.61	266.17
484.98	266.59
485.34	267.12
485.71	267.68
486.07	268.31
486.44	268.88
486.80	269.64
487.17	270.40
487.53	271.18
487.90	272.00
488.26	272.94
488.62	273.94
488.99	274.90
489.35	275.91
489.72	277.00
490.08	278.21
490.44	279.45
490.81	280.72
491.17	282.01
491.54	283.46
491.90	285.00
492.26	286.61
492.63	288.37
492.99	290.13
493.36	292.03
493.72	294.08
494.08	296.16
494.45	298.41
494.81	300.77
495.17	303.22
495.54	305.77
495.90	308.48
496.26	311.24
496.63	314.17
496.99	317.30
497.35	320.59
497.72	324.03
498.08	327.61
498.44	331.30
498.80	335.26
499.17	339.28
499.53	343.45
499.89	347.83
500.26	352.31
500.62	357.03
500.98	362.04
501.34	367.08
501.71	372.42
502.07	377.88
502.43	383.50
502.79	389.31
503.16	395.41
503.52	401.69
503.88	408.12
504.24	414.77
504.60	421.66
504.97	428.76
505.33	436.12
505.69	443.80
506.05	451.62
506.41	459.49
506.78	467.73
507.14	476.15
507.50	484.88
507.86	493.96
508.22	503.15
508.59	512.33
508.95	522.00
509.31	531.82
509.67	541.93
510.03	552.23
510.39	562.80
510.75	573.62
511.12	584.55
511.48	595.87
511.84	607.34
512.20	618.90
512.56	630.82
512.92	643.05
513.28	655.34
513.64	667.76
514.00	680.44
514.37	693.39
514.73	706.55
515.09	719.59
515.45	732.91
515.81	746.46
516.17	760.47
516.53	774.55
516.89	788.75
517.25	802.93
517.61	817.35
517.97	831.78
518.33	846.27
518.69	861.10
519.05	876.11
519.41	891.32
519.77	906.86
520.13	922.39
520.49	937.68
520.85	953.19
521.21	968.97
521.57	985.24
521.93	1000.91
522.29	1017.26
522.65	1033.40
523.01	1049.57
523.37	1065.61
523.73	1081.69
524.09	1097.72
524.45	1113.94
524.81	1130.45
525.17	1147.24
525.53	1164.19
525.89	1180.89
526.25	1197.59
526.61	1213.93
526.97	1230.65
527.33	1247.06
527.68	1263.50
528.04	1279.92
528.40	1296.54
528.76	1313.57
529.12	1330.14
529.48	1347.07
529.84	1363.00
530.20	1379.65
530.56	1396.60
530.91	1413.95
531.27	1430.67
531.63	1447.17
531.99	1463.81
532.35	1479.72
532.71	1495.55
533.07	1511.75
533.42	1527.56
533.78	1543.65
534.14	1559.92
534.50	1575.13
534.86	1590.90
535.21	1606.24
535.57	1622.12
535.93	1637.62
536.29	1652.34
536.65	1667.29
537.00	1682.05
537.36	1697.29
537.72	1711.78
538.08	1726.22
538.44	1740.03
538.79	1753.90
539.15	1767.42
539.51	1781.15
539.87	1795.47
540.22	1809.21
540.58	1822.94
540.94	1836.32
541.29	1849.18
541.65	1861.76
542.01	1874.86
542.37	1887.24
542.72	1899.61
543.08	1911.42
543.44	1923.64
543.79	1934.88
544.15	1945.93
544.51	1957.37
544.87	1968.41
545.22	1979.22
545.58	1989.34
545.94	1999.10
546.29	2009.04
546.65	2018.85
547.01	2027.90
547.36	2036.65
547.72	2045.05
548.07	2052.79
548.43	2061.01
548.79	2069.07
549.14	2076.57
549.50	2084.02
549.86	2091.75
550.21	2098.98
550.57	2106.15
550.92	2112.72
551.28	2119.75
551.64	2126.70
551.99	2133.21
552.35	2139.21
552.70	2145.19
553.06	2151.12
553.41	2157.38
553.77	2163.39
554.13	2169.57
554.48	2175.86
554.84	2181.26
555.19	2186.53
555.55	2191.80
555.90	2196.15
556.26	2200.91
556.61	2205.78
556.97	2210.09
557.32	2214.28
557.68	2218.37
558.03	2222.62
558.39	2226.43
558.74	2231.00
559.10	2235.02
559.45	2238.79
559.81	2243.25
560.16	2247.30
560.52	2250.53
560.87	2254.04
561.23	2256.71
561.58	2259.67
561.94	2262.10
562.29	2264.63
562.64	2267.29
563.00	2269.83
563.35	2273.44
563.71	2276.64
564.06	2279.66
564.42	2282.42
564.77	2284.73
565.12	2287.09
565.48	2288.98
565.83	2290.71
566.19	2291.94
566.54	2292.78
566.89	2293.94
567.25	2294.44
567.60	2295.65
567.96	2297.36
568.31	2298.25
568.66	2299.33
569.02	2299.78
569.37	2300.18
569.72	2300.96
570.08	2301.20
570.43	2301.35
570.78	2300.75
571.14	2299.20
571.49	2298.07
571.84	2297.78
572.20	2296.70
572.55	2295.75
572.90	2294.26
573.26	2292.89
573.61	2291.36
573.96	2289.64
574.31	2286.74
574.67	2283.82
575.02	2280.32
575.37	2277.07
575.72	2273.23
576.08	2269.98
576.43	2266.73
576.78	2263.06
577.13	2259.91
577.49	2256.82
577.84	2253.23
578.19	2249.58
578.54	2245.93
578.90	2241.56
579.25	2236.03
579.60	2231.06
579.95	2225.97
580.30	2220.84
580.66	2215.72
581.01	2210.79
581.36	2205.93
581.71	2201.60
582.06	2197.21
582.42	2192.71
582.77	2187.44
583.12	2182.82
583.47	2178.07
583.82	2173.14
584.17	2167.97
584.53	2162.37
584.88	2156.74
585.23	2150.94
585.58	2145.51
585.93	2140.17
586.28	2135.45
586.63	2130.45
586.98	2125.35
587.34	2120.68
587.69	2115.83
588.04	2110.46
588.39	2104.87
588.74	2098.44
589.09	2092.29
589.44	2085.47
589.79	2079.56
590.14	2074.05
590.49	2067.59
590.84	2061.16
591.19	2055.13
591.54	2048.74
591.89	2041.38
592.25	2034.48
592.60	2027.33
592.95	2019.70
593.30	2012.24
593.65	2004.74
594.00	1997.82
594.35	1990.51
594.70	1982.41
595.05	1975.26
595.40	1968.21
595.75	1960.58
596.10	1954.28
596.45	1947.64
596.80	1941.42
597.15	1934.72
597.50	1927.57
597.85	1921.09
598.19	1914.39
598.54	1907.18
598.89	1900.44
599.24	1894.65
599.59	1887.99
599.94	1881.78
600.29	1875.42
600.64	1868.85
600.99	1861.44
601.34	1854.52
601.69	1847.76
602.04	1840.89
602.39	1833.55
602.74	1826.68
603.08	1819.91
603.43	1813.12
603.78	1805.76
604.13	1798.58
604.48	1791.21
604.83	1784.20
605.18	1777.18
605.53	1769.22
605.87	1761.30
606.22	1754.15
606.57	1746.31
606.92	1739.02
607.27	1731.89
607.62	1724.87
607.96	1717.57
608.31	1710.81
608.66	1703.23
609.01	1695.60
609.36	1688.04
609.70	1680.03
610.05	1671.90
610.40	1664.21
610.75	1655.83
611.10	1648.21
611.44	1639.74
611.79	1631.84
612.14	1623.26
612.49	1614.02
612.83	1605.68
613.18	1597.62
613.53	1589.39
613.88	1580.78
614.22	1572.45
614.57	1563.86
614.92	1555.94
615.27	1548.35
615.61	1540.07
615.96	1531.97
616.31	1524.39
616.65	1517.02
617.00	1509.45
617.35	1501.80
617.70	1493.42
618.04	1485.06
618.39	1476.75
618.74	1469.18
619.08	1460.82
619.43	1453.26
619.78	1446.48
620.12	1439.27
620.47	1431.71
620.82	1423.63
621.16	1416.23
621.51	1408.69
621.85	1401.04
622.20	1392.47
622.55	1384.30
622.89	1376.53
623.24	1368.97
623.59	1361.48
623.93	1353.98
624.28	1346.75
624.62	1339.20
624.97	1332.09
625.32	1325.28
625.66	1318.38
626.01	1311.12
626.35	1303.65
626.70	1295.91
627.04	1288.20
627.39	1280.42
627.73	1272.96
628.08	1266.05
628.43	1258.72
628.77	1251.33
629.12	1243.83
629.46	1236.70
629.81	1229.21
630.15	1221.89
630.50	1214.41
630.84	1206.41
631.19	1198.46
631.53	1190.95
631.88	1183.36
632.22	1175.75
632.57	1168.51
632.91	1160.92
633.26	1153.56
633.60	1146.29
633.95	1139.13
634.29	1132.03
634.64	1125.40
634.98	1118.14
635.32	1110.83
635.67	1104.23
636.01	1097.53
636.36	1090.60
636.70	1084.09
637.05	1077.61
637.39	1071.16
637.73	1064.64
638.08	1058.60
638.42	1052.52
638.77	1046.08
639.11	1039.58
639.45	1033.22
639.80	1026.61
640.14	1020.15
640.49	1013.65
640.83	1007.23
641.17	1000.94
641.52	994.60
641.86	988.16
642.20	982.21
642.55	975.95
642.89	969.48
643.23	962.97
643.58	957.27
643.92	951.10
644.26	944.91
644.61	938.88
644.95	932.83
645.29	926.23
645.64	919.54
645.98	913.18
646.32	907.32
646.66	901.25
647.01	895.39
647.35	889.67
647.69	883.80
648.04	878.26
648.38	872.55
648.72	866.58
649.06	860.49
649.41	854.60
649.75	848.59
650.09	842.66
650.43	836.90
650.78	830.73
651.12	824.76
651.46	819.04
651.80	813.27
652.14	807.89
652.49	802.59
652.83	797.40
653.17	791.76
653.51	786.06
653.85	780.69
654.20	775.05
654.54	768.98
654.88	763.22
655.22	757.34
655.56	751.58
655.90	746.08
656.25	740.82
656.59	735.53
656.93	730.49
657.27	725.21
657.61	719.73
657.95	714.61
658.29	709.46
658.64	704.19
658.98	698.85
659.32	693.38
659.66	688.12
660.00	682.86
660.34	677.82
660.68	672.89
661.02	667.84
661.36	663.06
661.70	658.60
662.05	654.27
662.39	649.93
662.73	645.50
663.07	641.17
663.41	636.67
663.75	632.16
664.09	627.56
664.43	623.28
664.77	619.19
665.11	614.91
665.45	610.81
665.79	606.71
666.13	602.55
666.47	598.47
666.81	594.36
667.15	590.24
667.49	586.38
667.83	582.53
668.17	578.58
668.51	574.51
668.85	570.48
669.19	566.62
669.53	562.76
669.87	558.81
670.21	555.11
670.55	551.49
670.89	548.02
671.23	544.58
671.57	541.02
671.91	537.43
672.25	533.94
672.58	530.44
672.92	526.97
673.26	523.85
673.60	520.72
673.94	517.59
674.28	514.63
674.62	511.67
674.96	508.55
675.30	505.63
675.64	502.67
675.97	499.90
676.31	497.03
676.65	494.10
676.99	491.45
677.33	488.56
677.67	485.74
678.01	482.76
678.34	479.84
678.68	477.02
679.02	474.26
679.36	471.48
679.70	468.72
680.04	465.97
680.37	463.07
680.71	460.27
681.05	457.56
681.39	454.91
681.73	452.26
682.06	449.70
682.40	447.14
682.74	444.69
683.08	442.16
683.42	439.60
683.75	437.15
684.09	434.59
684.43	432.18
684.77	429.68
685.10	427.29
685.44	424.98
685.78	422.60
686.12	420.33
686.45	418.04
686.79	415.80
687.13	413.66
687.46	411.50
687.80	409.35
688.14	407.22
688.48	405.16
688.81	402.88
689.15	400.80
689.49	398.70
689.82	396.57
690.16	394.47
690.50	392.53
690.83	390.59
691.17	388.64
691.51	386.72
691.84	384.91
692.18	383.00
692.52	380.98
692.85	379.10
693.19	377.24
693.52	375.43
693.86	373.59
694.20	371.79
694.53	370.05
694.87	368.19
695.21	366.41
695.54	364.52
695.88	362.87
696.21	361.10
696.55	359.37
696.88	357.71
697.22	356.06
697.56	354.41
697.89	352.73
698.23	351.08
698.56	349.42
698.90	347.81
699.23	346.14
699.57	344.65
699.90	343.12
700.24	341.54
700.58	340.00
700.91	338.49
701.25	337.04
701.58	335.63
701.92	334.28
702.25	332.92
702.59	331.53
702.92	330.17
703.26	328.88
703.59	327.60
703.93	326.40
704.26	325.16
704.60	323.87
704.93	322.60
705.26	321.38
705.60	320.24
705.93	319.08
706.27	318.05
706.60	316.96
706.94	315.85
707.27	314.74
707.61	313.69
707.94	312.65
708.27	311.59
708.61	310.51
708.94	309.49
709.28	308.45
709.61	307.50
709.94	306.54
710.28	305.52
710.61	304.55
710.95	303.43
711.28	302.55
711.61	301.63
711.95	300.70
712.28	299.75
712.61	298.75
712.95	297.80
713.28	296.92
713.61	296.03
713.95	295.17
714.28	294.31
714.61	293.47
714.95	292.61
715.28	291.75
715.61	290.90
715.95	290.04
716.28	289.21
716.61	288.39
716.95	287.60
717.28	286.88
717.61	286.11
717.94	285.43
718.28	284.59
718.61	283.83
718.94	283.12
719.27	282.47
719.61	281.82
719.94	281.19
720.27	280.47
720.60	279.79
720.94	279.13
721.27	278.57
721.60	277.97
721.93	277.37
722.27	276.77
722.60	276.19
722.93	275.67
723.26	275.13
723.59	274.58
723.93	274.02
724.26	273.46
724.59	272.92
724.92	272.37
725.25	271.85
725.59	271.33
725.92	270.84
726.25	270.29
726.58	269.82
726.91	269.32
727.24	268.84
727.57	268.39
727.91	267.91
728.24	267.42
728.57	266.97
728.90	266.56
729.23	266.10
729.56	265.68
729.89	265.20
730.22	264.74
730.55	264.26
730.89	263.82
731.22	263.37
731.55	262.95
731.88	262.56
732.21	262.15
732.54	261.72
732.87	261.30
733.20	260.95
733.53	260.54
733.86	260.16
734.19	259.77
734.52	259.38
734.85	259.07
735.18	258.68
735.51	258.32
735.84	257.95
736.17	257.64
736.50	257.23
736.83	257.04
737.16	256.70
737.49	256.40
737.82	256.06
738.15	255.69
738.48	255.35
738.81	254.99
739.14	254.68
739.47	254.39
739.80	254.10
740.13	253.79
740.46	253.46
740.79	253.14
741.12	252.84
741.45	252.53
741.78	252.16
742.11	251.89
742.44	251.52
742.77	251.19
743.10	250.87
743.43	250.58
743.75	250.16
744.08	250.00
744.41	249.72
744.74	249.45
745.07	249.23
745.40	248.95
745.73	248.73
746.06	248.46
746.39	248.17
746.71	247.86
747.04	247.57
747.37	247.31
747.70	247.05
748.03	246.79
748.36	246.55
748.68	246.31
749.01	246.06
749.34	245.86
749.67	245.63
750.00	245.40
750.33	245.26
750.65	245.01
750.98	244.64
751.31	244.40
751.64	244.16
751.97	243.98
752.29	243.72
752.62	243.46
752.95	243.21
753.28	243.00
753.60	242.78
753.93	242.62
754.26	242.44
754.59	242.21
754.91	241.99
755.24	241.80
755.57	241.60
755.90	241.39
756.22	241.15
756.55	240.95
756.88	240.77
757.20	240.50
757.53	240.32
757.86	240.19
758.19	240.05
758.51	239.91
758.84	239.72
759.17	239.61
759.49	239.46
759.82	239.34
760.15	239.21
760.47	239.10
760.80	238.91
761.13	238.81
761.45	238.65
761.78	238.54
762.11	238.39
762.43	238.24
762.76	238.11
763.08	238.01
763.41	237.88
763.74	237.75
764.06	237.62
764.39	237.51
764.71	237.37
765.04	237.24
765.37	237.11
765.69	236.93
766.02	236.79
766.34	236.68
766.67	236.57
767.00	236.48
767.32	236.38
767.65	236.36
767.97	236.19
768.30	236.14
768.62	236.03
768.95	235.93
769.27	235.84
769.60	235.74
769.92	235.62
770.25	235.53
770.57	235.40
770.90	235.32
771.22	235.18
771.55	235.10
771.87	235.03
772.20	234.95
772.52	235.00
772.85	235.04
773.17	234.94
773.50	234.82
773.82	234.70
774.15	234.62
774.47	234.48
774.80	234.41
775.12	234.29
775.45	234.19
775.77	234.10
776.09	234.02
776.42	233.96
776.74	233.90
777.07	233.81
777.39	233.72
777.72	233.64
778.04	233.61
778.36	233.50
778.69	233.40
779.01	233.32
779.33	233.15
779.66	232.95
779.98	232.88
780.31	232.80
780.63	232.80
780.95	232.75
781.28	232.70
781.60	232.62
781.92	232.54
782.25	232.51
782.57	232.46
782.89	232.38
783.22	232.32
783.54	232.25
783.86	232.19
784.19	232.15
784.51	232.11
784.83	232.03
785.16	231.95
785.48	231.90
785.80	231.83
786.12	231.77
786.45	231.72
786.77	231.69
787.09	231.65
787.42	231.53
787.74	231.46
788.06	231.36
788.38	231.30
788.71	231.27
789.03	231.17
789.35	231.14
789.67	231.10
789.99	231.04
790.32	230.99
790.64	230.94
790.96	230.96
791.28	230.86
791.61	230.83
791.93	230.80
792.25	230.74
792.57	230.76
792.89	230.72
793.21	230.69
793.54	230.64
793.86	230.59
794.18	230.54
794.50	230.46
794.82	230.44
795.14	230.42
795.47	230.38
795.79	230.37
796.11	230.29
796.43	230.25
796.75	230.21
797.07	230.18
797.39	230.13
797.71	230.03
798.04	230.03
798.36	229.99
798.68	229.95
799.00	229.90
799.32	229.81
799.64	229.79
799.96	229.73
800.28	229.67
800.60	229.67
800.92	229.65
801.24	229.64
801.56	229.62
801.89	229.57
802.21	229.55
802.53	229.49
802.85	229.53
803.17	229.54
803.49	229.48
803.81	229.42
804.13	229.44
804.45	229.41
804.77	229.37
805.09	229.36
805.41	229.35
805.73	229.32
806.05	229.30
806.37	229.26
806.69	229.26
807.01	229.27
807.33	229.24
807.65	229.19
807.97	229.20
808.28	229.17
808.60	229.15
808.92	229.11
809.24	229.18
809.56	229.11
809.88	229.02
810.20	229.02
810.52	229.04
810.84	228.97
811.16	228.94
811.48	228.92
811.80	228.91
812.12	228.87
812.43	228.90
812.75	228.90
813.07	228.89
813.39	228.87
813.71	228.84
814.03	228.83
814.35	228.82
814.67	228.74
814.98	228.72
815.30	228.71
815.62	228.70
815.94	228.59
816.26	228.61
816.58	228.60
816.89	228.58
817.21	228.52
817.53	228.50
817.85	228.45
818.17	228.42
818.48	228.35
818.80	228.35
819.12	228.29
819.44	228.24
819.76	228.21
820.07	228.17
820.39	228.11
820.71	228.07
821.03	228.02
821.34	228.04
821.66	228.02
821.98	228.02
822.30	227.97
822.61	228.04
822.93	227.97
823.25	227.97
823.57	227.96
823.88	227.97
824.20	227.99
824.52	228.03
824.83	228.03
825.15	228.00
825.47	227.99
825.79	227.98
826.10	227.95
826.42	227.93
826.74	227.89
827.05	227.90
827.37	227.91
827.69	227.91
828.00	227.88
828.32	227.85
828.64	227.81
828.95	227.86
829.27	227.83
829.58	227.81
829.90	227.79
830.22	227.80
830.53	227.77
830.85	227.72
831.17	227.69
831.48	227.64
831.80	227.67
832.11	227.63
832.43	227.61
832.75	227.60
833.06	227.66
833.38	227.67
833.69	227.64
834.01	227.58
834.32	227.57
834.64	227.56
834.96	227.55
835.27	227.54
835.59	227.51
835.90	227.45
836.22	227.45
836.53	227.44
836.85	227.42
837.16	227.52
837.48	227.51
837.79	227.50
838.11	227.49
838.42	227.46
838.74	227.47
839.05	227.46
839.37	227.47
839.68	227.37
840.00	227.34
840.31	227.37
840.63	227.40
840.94	227.38
841.26	227.36
841.57	227.39
841.88	227.39
842.20	227.35
842.51	227.34
842.83	227.33
843.14	227.42
843.46	227.41
843.77	227.35
844.08	227.34
844.40	227.35
844.71	227.39
845.03	227.38
845.34	227.38
845.65	227.36
845.97	227.35
846.28	227.39
846.60	227.42
846.91	227.40
847.22	227.41
847.54	227.45
847.85	227.48
848.16	227.44
848.48	227.41
848.79	227.48
849.10	227.48
849.42	227.48
849.73	227.39
850.04	227.37
850.36	227.32
850.67	227.34
850.98	227.34
851.30	227.34
851.61	227.35
851.92	227.34
852.23	227.34
852.55	227.36
852.86	227.31
853.17	227.29
853.49	227.31
853.80	227.30
854.11	227.29
854.42	227.29
854.74	227.27
855.05	227.27
855.36	227.21
855.67	227.22
855.99	227.21
856.30	227.33
856.61	227.35
856.92	227.39
857.23	227.41
857.55	227.38
857.86	227.36
858.17	227.36
858.48	227.34
858.79	227.38
859.11	227.38
859.42	227.41
859.73	227.41
860.04	227.40
860.35	227.34
860.66	227.29
860.98	227.29
861.29	227.34
861.60	227.32
861.91	227.29
862.22	227.28
862.53	227.25
862.84	227.11
863.16	227.13
863.47	227.10
863.78	227.04
864.09	227.05
864.40	227.09
864.71	227.10
865.02	227.11
865.33	227.09
865.64	227.07
865.95	227.07
866.27	227.13
866.58	227.12
866.89	227.17
867.20	227.19
867.51	227.14
867.82	227.09
868.13	227.11
868.44	227.13
868.75	227.17
869.06	227.19
869.37	227.18
869.68	227.15
869.99	227.14
870.30	227.16
870.61	227.17
870.92	227.11
871.23	227.10
871.54	227.13
871.85	227.14
872.16	227.15
872.47	227.11
872.78	227.06
873.09	227.06
873.40	227.07
873.71	227.07
874.02	227.11
874.33	227.12
874.64	227.10
874.95	227.08
875.26	227.04
875.56	227.02
875.87	227.02
876.18	226.98
876.49	227.06
876.80	227.08
877.11	227.06
877.42	227.07
877.73	227.07
878.04	227.04
878.35	227.00
878.66	226.99
878.96	227.00
879.27	226.97
879.58	226.94
879.89	226.89
880.20	226.93
880.51	226.88
880.82	226.86
881.12	226.86
881.43	226.89
881.74	226.89
882.05	226.89
882.36	226.92
882.67	226.96
882.97	226.86
883.28	226.83
883.59	226.83
883.90	226.85
884.21	226.86
884.51	226.85
884.82	226.88
885.13	226.89
885.44	226.90
885.74	226.91
886.05	226.91
886.36	226.94
886.67	226.91
886.98	226.98
887.28	227.01
887.59	227.02
887.90	226.99
888.20	226.99
888.51	227.02
888.82	227.00
889.13	227.00
889.43	227.10
889.74	227.10
890.05	227.11
890.35	227.13
890.66	227.13
890.97	227.17
891.28	227.13
891.58	227.14
891.89	227.15
892.20	227.14
892.50	227.16
892.81	227.15
893.12	227.16
893.42	227.12
893.73	227.14
894.04	227.14
894.34	227.16
894.65	227.17
894.95	227.16
895.26	227.15
895.57	227.18
895.87	227.06
896.18	227.07
896.48	227.05
896.79	227.02
897.10	227.00
897.40	226.98
897.71	227.02
898.01	227.02
898.32	227.05
898.63	227.03
898.93	227.03
899.24	227.03
899.54	227.03
899.85	226.99
900.15	226.98
900.46	227.01
900.76	227.00
901.07	226.99
901.38	227.00
901.68	227.02
901.99	226.96
902.29	226.98
902.60	226.99
902.90	226.96
903.21	226.96
903.51	226.97
903.82	227.00
904.12	226.96
904.43	226.91
904.73	226.88
905.03	226.90
905.34	226.97
905.64	226.94
905.95	226.92
906.25	226.92
906.56	226.90
906.86	226.89
907.17	226.86
907.47	226.87
907.77	226.86
908.08	226.84
908.38	226.86
908.69	226.85
908.99	226.83
909.30	226.86
909.60	226.85
909.90	226.85
910.21	226.78
910.51	226.77
910.81	226.81
911.12	226.81
911.42	226.79
911.73	226.72
912.03	226.77
912.33	226.81
912.64	226.83
912.94	226.85
913.24	226.81
913.55	226.81
913.85	226.80
914.15	226.79
914.46	226.79
914.76	226.76
915.06	226.78
915.37	226.77
915.67	226.81
915.97	226.83
916.27	226.80
916.58	226.82
916.88	226.82
917.18	226.82
917.49	226.90
917.79	226.93
918.09	226.93
918.39	226.92
918.70	226.92
919.00	226.93
919.30	226.95
919.60	226.96
919.91	226.97
920.21	226.97
920.51	226.98
920.81	226.98
921.12	227.02
921.42	227.01
921.72	227.02
922.02	227.01
922.32	227.01
922.63	227.05
922.93	227.12
923.23	227.13
923.53	227.11
923.83	227.02
924.13	227.01
924.44	227.01
924.74	227.03
925.04	227.03
925.34	227.04
925.64	226.99
925.94	226.99
926.24	227.03
926.55	227.00
926.85	227.01
927.15	227.04
927.45	227.06
927.75	227.08
928.05	227.07
928.35	227.05
928.65	227.03
928.95	227.04
929.26	227.00
929.56	226.99
929.86	227.01
930.16	227.05
930.46	227.08
930.76	227.10
931.06	227.06
931.36	227.03
931.66	227.01
931.96	227.03
932.26	227.07
932.56	227.05
932.86	227.04
933.16	227.07
933.46	227.03
933.76	227.01
934.06	227.01
934.36	227.03
934.66	227.07
934.96	227.08
935.26	227.05
935.56	227.07
935.86	227.07
936.16	227.05
936.46	227.01
936.76	226.99
937.06	226.97
937.36	226.96
937.66	226.97
937.96	226.99
938.26	226.96
938.56	226.92
938.86	226.91
939.16	226.94
939.46	226.94
939.76	226.94
940.06	226.91
940.35	226.94
940.65	226.90
940.95	226.88
941.25	226.85
941.55	226.86
941.85	226.84
942.15	226.90
942.45	226.90
942.75	226.90
943.04	226.89
943.34	226.91
943.64	226.93
943.94	226.93
944.24	226.90
944.54	226.89
944.84	226.89
945.13	226.88
945.43	226.88
945.73	226.84
946.03	226.85
946.33	226.84
946.62	226.79
946.92	226.76
947.22	226.76
947.52	226.78
947.82	226.76
948.11	226.73
948.41	226.67
948.71	226.65
949.01	226.62
949.31	226.58
949.60	226.58
949.90	226.56
950.20	226.52
950.50	226.54
950.79	226.53
951.09	226.53
951.39	226.53
951.69	226.52
951.98	226.50
952.28	226.46
952.58	226.44
952.87	226.42
953.17	226.44
953.47	226.40
953.76	226.38
954.06	226.35
954.36	226.33
954.66	226.28
954.95	226.32
955.25	226.32
955.55	226.31
955.84	226.26
956.14	226.26
956.44	226.28
956.73	226.22
957.03	226.22
957.32	226.22
957.62	226.22
957.92	226.23
958.21	226.28
958.51	226.39
958.81	226.41
959.10	226.44
959.40	226.46
959.69	226.47
959.99	226.47
960.29	226.49
960.58	226.51
960.88	226.57
961.17	226.55
961.47	226.56
961.76	226.58
962.06	226.59
962.36	226.58
962.65	226.57
962.95	226.58
963.24	226.57
963.54	226.56
963.83	226.60
964.13	226.58
964.42	226.52
964.72	226.42
965.01	226.42
965.31	226.41
965.60	226.39
965.90	226.43
966.19	226.42
966.49	226.43
966.78	226.45
967.08	226.43
967.37	226.44
967.67	226.46
967.96	226.45
968.26	226.48
968.55	226.49
968.85	226.50
969.14	226.51
969.43	226.53
969.73	226.54
970.02	226.50
970.32	226.53
970.61	226.58
970.91	226.60
971.20	226.59
971.49	226.58
971.79	226.63
972.08	226.57
972.38	226.58
972.67	226.58
972.96	226.60
973.26	226.58
973.55	226.61
973.85	226.61
974.14	226.61
974.43	226.62
974.73	226.65
975.02	226.64
975.31	226.67
975.61	226.70
975.90	226.71
976.19	226.68
976.49	226.67
976.78	226.66
977.07	226.65
977.37	226.67
977.66	226.72
977.95	226.70
978.24	226.73
978.54	226.80
978.83	226.78
979.12	226.74
979.42	226.75
979.71	226.74
980.00	226.73
980.29	226.73
980.59	226.72
980.88	226.71
981.17	226.72
981.46	226.71
981.76	226.65
982.05	226.69
982.34	226.73
982.63	226.72
982.93	226.69
983.22	226.71
983.51	226.71
983.80	226.70
984.09	226.70
984.39	226.70
984.68	226.64
984.97	226.65
985.26	226.64
985.55	226.64
985.85	226.63
986.14	226.63
986.43	226.65
986.72	226.60
987.01	226.59
987.30	226.58
987.59	226.57
987.89	226.58
988.18	226.52
988.47	226.51
988.76	226.49
989.05	226.47
989.34	226.42
989.63	226.43
989.92	226.40
990.22	226.36
990.51	226.36
990.80	226.35
991.09	226.36
991.38	226.38
991.67	226.36
991.96	226.36
992.25	226.34
992.54	226.31
992.83	226.32
993.12	226.28
993.41	226.25
993.70	226.31
993.99	226.32
994.28	226.36
994.58	226.35
994.87	226.35
995.16	226.36
995.45	226.36
995.74	226.34
996.03	226.34
996.32	226.35
996.61	226.34
996.90	226.33
997.19	226.30
997.48	226.31
997.77	226.30
998.06	226.28
998.34	226.28
998.63	226.30
998.92	226.29
999.21	226.32
999.50	226.35
999.79	226.29
1000.08	226.29
1000.37	226.27
1000.66	226.25
1000.95	226.27
1001.24	226.29
1001.53	226.33
1001.82	226.33
1002.11	226.31
1002.40	226.33
1002.68	226.37
1002.97	226.44
1003.26	226.45
1003.55	226.40
1003.84	226.44
1004.13	226.50
1004.42	226.50
1004.71	226.51
1004.99	226.53
1005.28	226.56
1005.57	226.54
1005.86	226.51
1006.15	226.50
1006.44	226.50
1006.72	226.52
1007.01	226.50
1007.30	226.49
1007.59	226.49
1007.88	226.49
1008.17	226.54
1008.45	226.51
1008.74	226.48
1009.03	226.46
1009.32	226.43
1009.60	226.43
1009.89	226.42
1010.18	226.39
1010.47	226.41
1010.76	226.41
1011.04	226.43
1011.33	226.45
1011.62	226.50
1011.91	226.53
1012.19	226.57
1012.48	226.55
1012.77	226.56
1013.05	226.63
1013.34	226.64
1013.63	226.61
1013.92	226.64
1014.20	226.61
1014.49	226.65
1014.78	226.63
1015.06	226.58
1015.35	226.59
1015.64	226.59
1015.92	226.60
1016.21	226.59
1016.50	226.57
1016.78	226.56
1017.07	226.56
1017.36	226.49
1017.64	226.48
1017.93	226.47
1018.22	226.46
1018.50	226.46
1018.79	226.47
1019.08	226.42
1019.36	226.41
1019.65	226.42
1019.93	226.41
1020.22	226.42
1020.51	226.43
1020.79	226.42
1021.08	226.53
1021.36	226.24
1021.65	226.62
1021.94	226.50
1022.22	226.48
1022.51	226.33
1022.79	226.69
1023.08	226.84
1023.36	227.06
1023.65	225.80
>>>>>End Processed Spectral Data<<<<<
