SpectraSuite Data File
++++++++++++++++++++++++++++++++++++
Date: Fri Feb 01 17:49:52 EST 2013
User: group
Dark Spectrum Present: No
Reference Spectrum Present: No
Number of Sampled Component Spectra: 1
Spectrometers: USB2E7196
Integration Time (usec): 35000 (USB2E7196)
Spectra Averaged: 100 (USB2E7196)
Boxcar Smoothing: 10 (USB2E7196)
Correct for Electrical Dark: No (USB2E7196)
Strobe/Lamp Enabled: No (USB2E7196)
Correct for Detector Non-linearity: No (USB2E7196)
Correct for Stray Light: No (USB2E7196)
Number of Pixels in Processed Spectrum: 2048
>>>>>Begin Processed Spectral Data<<<<<
339.09	0.00
339.48	212.47
339.86	214.20
340.24	215.40
340.63	216.12
341.01	219.99
341.39	219.04
341.78	220.69
342.16	221.90
342.54	223.22
342.93	211.04
343.31	221.71
343.69	222.25
344.07	222.70
344.46	223.14
344.84	223.54
345.22	223.76
345.60	224.03
345.99	224.24
346.37	224.37
346.75	224.46
347.13	224.53
347.52	224.60
347.90	224.66
348.28	224.68
348.66	224.73
349.05	224.75
349.43	224.79
349.81	224.81
350.19	224.89
350.57	224.94
350.96	225.02
351.34	225.11
351.72	225.22
352.10	225.30
352.48	225.38
352.87	225.44
353.25	225.52
353.63	225.60
354.01	225.63
354.39	225.72
354.77	225.78
355.15	225.89
355.54	225.91
355.92	225.96
356.30	226.07
356.68	226.21
357.06	226.25
357.44	226.30
357.82	226.41
358.20	226.45
358.58	226.54
358.97	226.57
359.35	226.65
359.73	226.71
360.11	226.78
360.49	226.82
360.87	226.89
361.25	226.96
361.63	227.03
362.01	227.12
362.39	227.14
362.77	227.20
363.15	227.22
363.53	227.27
363.91	227.27
364.29	227.27
364.67	227.18
365.05	227.20
365.43	227.23
365.81	227.25
366.19	227.32
366.57	227.35
366.95	227.36
367.33	227.35
367.71	227.33
368.09	227.36
368.47	227.37
368.85	227.35
369.23	227.32
369.61	227.26
369.99	227.24
370.37	227.25
370.75	227.28
371.13	227.21
371.51	227.15
371.89	227.16
372.27	227.12
372.65	227.11
373.03	227.09
373.41	227.04
373.78	226.97
374.16	226.87
374.54	226.76
374.92	226.72
375.30	226.65
375.68	226.63
376.06	226.56
376.44	226.46
376.82	226.40
377.19	226.34
377.57	226.28
377.95	226.15
378.33	226.08
378.71	225.93
379.09	225.89
379.47	225.86
379.84	225.75
380.22	225.68
380.60	225.63
380.98	225.53
381.36	225.45
381.73	225.34
382.11	225.32
382.49	225.30
382.87	225.23
383.25	225.17
383.62	225.17
384.00	225.10
384.38	225.07
384.76	225.05
385.13	225.06
385.51	225.02
385.89	225.02
386.27	224.97
386.64	224.95
387.02	224.93
387.40	224.89
387.78	224.86
388.15	224.81
388.53	224.74
388.91	224.73
389.29	224.70
389.66	224.72
390.04	224.65
390.42	224.63
390.79	224.60
391.17	224.59
391.55	224.46
391.92	224.43
392.30	224.45
392.68	224.42
393.05	224.40
393.43	224.38
393.81	224.38
394.18	224.35
394.56	224.36
394.94	224.36
395.31	224.36
395.69	224.43
396.06	224.47
396.44	224.53
396.82	224.54
397.19	224.64
397.57	224.67
397.95	224.72
398.32	224.73
398.70	224.77
399.07	224.79
399.45	224.86
399.82	224.91
400.20	224.93
400.58	224.98
400.95	224.99
401.33	225.10
401.70	225.23
402.08	225.36
402.45	225.45
402.83	225.56
403.20	225.67
403.58	225.76
403.95	225.86
404.33	225.96
404.71	226.12
405.08	226.26
405.46	226.38
405.83	226.55
406.21	226.72
406.58	226.94
406.96	227.17
407.33	227.38
407.70	227.63
408.08	227.97
408.45	228.22
408.83	228.52
409.20	228.78
409.58	228.99
409.95	229.29
410.33	229.64
410.70	229.93
411.08	230.31
411.45	230.71
411.82	231.14
412.20	231.62
412.57	232.14
412.95	232.53
413.32	233.08
413.69	233.63
414.07	234.22
414.44	234.83
414.82	235.41
415.19	236.12
415.56	236.81
415.94	237.52
416.31	238.35
416.68	239.18
417.06	240.08
417.43	240.98
417.81	242.01
418.18	242.99
418.55	244.09
418.93	245.23
419.30	246.39
419.67	247.61
420.04	248.84
420.42	250.14
420.79	251.67
421.16	253.20
421.54	254.70
421.91	256.30
422.28	257.92
422.66	259.70
423.03	261.40
423.40	263.15
423.77	265.01
424.15	266.87
424.52	268.79
424.89	270.88
425.26	272.93
425.64	274.83
426.01	276.94
426.38	279.16
426.75	281.35
427.13	283.60
427.50	285.96
427.87	288.41
428.24	290.78
428.61	293.10
428.99	295.63
429.36	298.41
429.73	301.11
430.10	303.75
430.47	306.41
430.85	309.22
431.22	312.15
431.59	315.23
431.96	318.17
432.33	321.38
432.70	324.52
433.08	328.19
433.45	331.58
433.82	334.96
434.19	338.71
434.56	342.35
434.93	345.83
435.30	349.19
435.68	352.98
436.05	356.77
436.42	360.39
436.79	363.63
437.16	367.11
437.53	370.77
437.90	374.39
438.27	378.01
438.64	381.67
439.01	385.02
439.38	387.97
439.75	390.78
440.13	394.06
440.50	397.04
440.87	399.43
441.24	402.00
441.61	404.82
441.98	406.70
442.35	409.11
442.72	411.54
443.09	413.96
443.46	415.21
443.83	415.94
444.20	416.63
444.57	417.77
444.94	418.20
445.31	418.65
445.68	419.15
446.05	419.23
446.42	418.76
446.79	418.24
447.16	417.67
447.53	417.31
447.90	415.82
448.27	414.34
448.64	412.30
449.01	410.85
449.37	408.30
449.74	405.89
450.11	402.88
450.48	399.66
450.85	396.31
451.22	393.54
451.59	390.87
451.96	388.37
452.33	385.02
452.70	381.95
453.07	378.26
453.43	374.50
453.80	370.91
454.17	367.40
454.54	364.10
454.91	360.53
455.28	357.00
455.65	353.76
456.02	350.54
456.38	347.73
456.75	344.22
457.12	341.26
457.49	338.34
457.86	335.54
458.23	333.10
458.59	330.42
458.96	327.68
459.33	325.31
459.70	322.86
460.07	320.83
460.43	318.56
460.80	316.43
461.17	314.48
461.54	312.48
461.91	310.57
462.27	308.66
462.64	307.00
463.01	305.21
463.38	303.49
463.74	301.71
464.11	300.21
464.48	298.87
464.85	297.40
465.21	296.26
465.58	295.04
465.95	293.62
466.32	292.41
466.68	291.20
467.05	289.98
467.42	288.80
467.78	287.55
468.15	286.39
468.52	285.52
468.88	284.42
469.25	283.41
469.62	282.61
469.98	281.71
470.35	280.88
470.72	280.10
471.08	279.25
471.45	278.54
471.82	277.78
472.18	276.97
472.55	276.36
472.92	275.64
473.28	275.01
473.65	274.39
474.02	273.88
474.38	273.40
474.75	272.96
475.11	272.43
475.48	272.12
475.85	271.76
476.21	271.42
476.58	271.13
476.94	270.93
477.31	270.61
477.67	270.40
478.04	270.23
478.41	270.08
478.77	270.03
479.14	269.90
479.50	269.85
479.87	269.88
480.23	269.92
480.60	269.96
480.96	270.01
481.33	270.19
481.69	270.32
482.06	270.46
482.42	270.62
482.79	270.84
483.15	271.11
483.52	271.47
483.88	271.80
484.25	272.17
484.61	272.53
484.98	273.03
485.34	273.57
485.71	274.12
486.07	274.74
486.44	275.31
486.80	276.00
487.17	276.73
487.53	277.56
487.90	278.45
488.26	279.40
488.62	280.41
488.99	281.40
489.35	282.46
489.72	283.58
490.08	284.81
490.44	286.08
490.81	287.39
491.17	288.79
491.54	290.32
491.90	291.92
492.26	293.66
492.63	295.44
492.99	297.30
493.36	299.29
493.72	301.39
494.08	303.62
494.45	305.96
494.81	308.44
495.17	310.99
495.54	313.66
495.90	316.48
496.26	319.42
496.63	322.52
496.99	325.81
497.35	329.28
497.72	332.87
498.08	336.56
498.44	340.45
498.80	344.54
499.17	348.77
499.53	353.14
499.89	357.74
500.26	362.46
500.62	367.39
500.98	372.60
501.34	377.90
501.71	383.49
502.07	389.23
502.43	395.11
502.79	401.22
503.16	407.58
503.52	414.20
503.88	420.94
504.24	427.89
504.60	435.14
504.97	442.62
505.33	450.32
505.69	458.47
506.05	466.70
506.41	475.07
506.78	483.67
507.14	492.58
507.50	501.77
507.86	511.30
508.22	520.96
508.59	530.65
508.95	540.78
509.31	551.13
509.67	561.79
510.03	572.64
510.39	583.82
510.75	595.27
511.12	606.76
511.48	618.73
511.84	630.87
512.20	643.04
512.56	655.65
512.92	668.50
513.28	681.66
513.64	694.89
514.00	708.45
514.37	722.21
514.73	736.15
515.09	750.02
515.45	764.15
515.81	778.64
516.17	793.64
516.53	808.77
516.89	823.96
517.25	839.20
517.61	854.66
517.97	870.20
518.33	885.59
518.69	901.51
519.05	917.58
519.41	933.84
519.77	950.45
520.13	967.18
520.49	983.86
520.85	1000.35
521.21	1017.22
521.57	1034.71
521.93	1051.67
522.29	1069.33
522.65	1086.88
523.01	1104.40
523.37	1121.83
523.73	1139.37
524.09	1156.89
524.45	1174.49
524.81	1192.46
525.17	1210.62
525.53	1228.95
525.89	1247.38
526.25	1265.70
526.61	1283.60
526.97	1301.87
527.33	1319.93
527.68	1337.97
528.04	1355.94
528.40	1374.09
528.76	1392.75
529.12	1410.86
529.48	1429.42
529.84	1446.96
530.20	1465.18
530.56	1483.89
530.91	1502.96
531.27	1521.42
531.63	1539.49
531.99	1557.82
532.35	1575.66
532.71	1593.50
533.07	1611.46
533.42	1629.10
533.78	1646.97
534.14	1664.98
534.50	1682.09
534.86	1699.80
535.21	1716.94
535.57	1734.66
535.93	1752.02
536.29	1768.70
536.65	1785.58
537.00	1802.17
537.36	1819.53
537.72	1835.97
538.08	1852.37
538.44	1868.01
538.79	1883.75
539.15	1899.23
539.51	1914.76
539.87	1930.93
540.22	1946.42
540.58	1962.10
540.94	1977.40
541.29	1991.99
541.65	2006.70
542.01	2021.97
542.37	2036.21
542.72	2050.44
543.08	2064.15
543.44	2078.64
543.79	2091.88
544.15	2104.85
544.51	2118.54
544.87	2131.30
545.22	2144.13
545.58	2156.24
545.94	2167.92
546.29	2179.59
546.65	2191.58
547.01	2202.93
547.36	2213.54
547.72	2223.83
548.07	2233.53
548.43	2243.48
548.79	2253.33
549.14	2262.68
549.50	2271.64
549.86	2281.05
550.21	2290.11
550.57	2299.20
550.92	2307.43
551.28	2316.30
551.64	2325.12
551.99	2333.16
552.35	2341.19
552.70	2349.08
553.06	2356.67
553.41	2364.81
553.77	2372.49
554.13	2380.02
554.48	2387.82
554.84	2395.00
555.19	2401.83
555.55	2408.75
555.90	2414.87
556.26	2421.55
556.61	2427.77
556.97	2433.77
557.32	2439.46
557.68	2445.13
558.03	2450.75
558.39	2455.70
558.74	2461.67
559.10	2467.00
559.45	2472.21
559.81	2477.70
560.16	2482.92
560.52	2487.60
560.87	2492.35
561.23	2496.20
561.58	2500.37
561.94	2504.15
562.29	2507.54
562.64	2511.63
563.00	2515.12
563.35	2519.81
563.71	2524.02
564.06	2528.37
564.42	2532.43
564.77	2536.15
565.12	2539.59
565.48	2542.69
565.83	2545.86
566.19	2548.35
566.54	2550.07
566.89	2552.21
567.25	2553.84
567.60	2555.85
567.96	2558.68
568.31	2560.34
568.66	2562.60
569.02	2564.05
569.37	2565.10
569.72	2566.86
570.08	2567.66
570.43	2568.42
570.78	2568.59
571.14	2567.65
571.49	2566.79
571.84	2566.94
572.20	2566.49
572.55	2566.04
572.90	2564.90
573.26	2564.00
573.61	2562.61
573.96	2561.41
574.31	2558.60
574.67	2555.90
575.02	2552.58
575.37	2549.24
575.72	2545.62
576.08	2542.30
576.43	2539.15
576.78	2535.67
577.13	2532.66
577.49	2529.66
577.84	2526.37
578.19	2522.57
578.54	2519.08
578.90	2514.97
579.25	2509.27
579.60	2504.04
579.95	2498.72
580.30	2493.45
580.66	2487.92
581.01	2482.60
581.36	2477.50
581.71	2473.31
582.06	2468.77
582.42	2464.17
582.77	2458.63
583.12	2453.79
583.47	2448.83
583.82	2443.63
584.17	2438.00
584.53	2432.04
584.88	2426.04
585.23	2419.90
585.58	2413.99
585.93	2408.04
586.28	2402.74
586.63	2397.21
586.98	2391.69
587.34	2386.50
587.69	2381.27
588.04	2375.71
588.39	2369.67
588.74	2362.40
589.09	2355.66
589.44	2348.09
589.79	2341.20
590.14	2334.94
590.49	2327.63
590.84	2320.63
591.19	2314.02
591.54	2306.87
591.89	2298.87
592.25	2291.43
592.60	2283.36
592.95	2274.98
593.30	2266.83
593.65	2258.50
594.00	2250.78
594.35	2242.76
594.70	2233.83
595.05	2225.98
595.40	2217.72
595.75	2209.24
596.10	2202.50
596.45	2194.89
596.80	2188.16
597.15	2180.97
597.50	2173.20
597.85	2166.05
598.19	2158.43
598.54	2150.29
598.89	2142.78
599.24	2136.09
599.59	2128.57
599.94	2121.59
600.29	2114.44
600.64	2107.01
600.99	2098.76
601.34	2090.98
601.69	2082.97
602.04	2075.34
602.39	2066.82
602.74	2059.04
603.08	2051.38
603.43	2043.49
603.78	2035.14
604.13	2026.70
604.48	2018.34
604.83	2010.27
605.18	2002.40
605.53	1993.38
605.87	1984.29
606.22	1975.99
606.57	1966.70
606.92	1958.23
607.27	1950.14
607.62	1942.15
607.96	1933.86
608.31	1926.15
608.66	1917.35
609.01	1908.75
609.36	1900.04
609.70	1890.83
610.05	1881.55
610.40	1872.72
610.75	1863.22
611.10	1854.43
611.44	1844.76
611.79	1835.58
612.14	1825.73
612.49	1815.06
612.83	1805.39
613.18	1795.96
613.53	1786.55
613.88	1776.83
614.22	1767.25
614.57	1757.14
614.92	1747.92
615.27	1739.17
615.61	1729.56
615.96	1720.34
616.31	1711.49
616.65	1702.91
617.00	1694.26
617.35	1685.49
617.70	1675.90
618.04	1666.19
618.39	1656.58
618.74	1647.77
619.08	1638.22
619.43	1629.29
619.78	1621.24
620.12	1613.11
620.47	1604.41
620.82	1595.10
621.16	1586.44
621.51	1577.56
621.85	1568.79
622.20	1558.86
622.55	1549.15
622.89	1540.08
623.24	1531.22
623.59	1522.51
623.93	1513.74
624.28	1505.27
624.62	1496.47
624.97	1488.19
625.32	1480.23
625.66	1472.20
626.01	1463.93
626.35	1455.25
626.70	1446.31
627.04	1437.26
627.39	1428.03
627.73	1419.55
628.08	1411.49
628.43	1403.25
628.77	1394.77
629.12	1386.12
629.46	1377.98
629.81	1369.15
630.15	1360.75
630.50	1352.23
630.84	1342.93
631.19	1333.79
631.53	1325.16
631.88	1316.56
632.22	1307.79
632.57	1299.37
632.91	1290.63
633.26	1282.14
633.60	1273.64
633.95	1265.44
634.29	1257.37
634.64	1249.72
634.98	1241.23
635.32	1233.02
635.67	1225.30
636.01	1217.65
636.36	1209.83
636.70	1202.27
637.05	1194.83
637.39	1187.41
637.73	1179.83
638.08	1172.99
638.42	1166.08
638.77	1158.66
639.11	1151.14
639.45	1143.75
639.80	1136.10
640.14	1128.82
640.49	1121.33
640.83	1114.18
641.17	1107.07
641.52	1099.86
641.86	1092.44
642.20	1085.73
642.55	1078.40
642.89	1070.98
643.23	1063.50
643.58	1056.83
643.92	1049.69
644.26	1042.88
644.61	1035.96
644.95	1029.14
645.29	1021.70
645.64	1014.05
645.98	1006.74
646.32	999.92
646.66	992.99
647.01	986.47
647.35	979.83
647.69	973.05
648.04	966.58
648.38	960.00
648.72	953.22
649.06	946.41
649.41	939.63
649.75	932.91
650.09	926.20
650.43	919.67
650.78	912.72
651.12	905.89
651.46	899.25
651.80	892.69
652.14	886.54
652.49	880.39
652.83	874.53
653.17	868.16
653.51	861.66
653.85	855.51
654.20	848.98
654.54	842.24
654.88	835.77
655.22	829.14
655.56	822.59
655.90	816.30
656.25	810.30
656.59	804.21
656.93	798.38
657.27	792.45
657.61	786.15
657.95	780.25
658.29	774.49
658.64	768.53
658.98	762.50
659.32	756.31
659.66	750.39
660.00	744.34
660.34	738.67
660.68	733.19
661.02	727.49
661.36	722.19
661.70	717.02
662.05	712.07
662.39	707.14
662.73	702.08
663.07	697.17
663.41	692.06
663.75	686.99
664.09	681.81
664.43	676.78
664.77	672.19
665.11	667.36
665.45	662.61
665.79	658.01
666.13	653.38
666.47	648.69
666.81	644.02
667.15	639.34
667.49	634.88
667.83	630.49
668.17	626.06
668.51	621.39
668.85	616.84
669.19	612.42
669.53	608.09
669.87	603.75
670.21	599.55
670.55	595.36
670.89	591.48
671.23	587.57
671.57	583.62
671.91	579.58
672.25	575.62
672.58	571.70
672.92	567.81
673.26	564.14
673.60	560.53
673.94	556.95
674.28	553.55
674.62	550.19
674.96	546.68
675.30	543.38
675.64	540.09
675.97	536.91
676.31	533.65
676.65	530.34
676.99	527.25
677.33	523.93
677.67	520.86
678.01	517.43
678.34	514.06
678.68	510.74
679.02	507.54
679.36	504.42
679.70	501.38
680.04	498.22
680.37	495.04
680.71	491.88
681.05	488.92
681.39	485.86
681.73	482.81
682.06	479.97
682.40	477.05
682.74	474.17
683.08	471.27
683.42	468.35
683.75	465.44
684.09	462.52
684.43	459.72
684.77	456.81
685.10	454.11
685.44	451.47
685.78	448.92
686.12	446.32
686.45	443.68
686.79	441.00
687.13	438.52
687.46	436.01
687.80	433.60
688.14	431.05
688.48	428.75
688.81	426.24
689.15	423.69
689.49	421.22
689.82	418.86
690.16	416.48
690.50	414.26
690.83	412.02
691.17	409.73
691.51	407.57
691.84	405.46
692.18	403.28
692.52	401.08
692.85	398.83
693.19	396.75
693.52	394.65
693.86	392.54
694.20	390.49
694.53	388.42
694.87	386.19
695.21	384.13
695.54	382.01
695.88	380.04
696.21	378.09
696.55	376.21
696.88	374.23
697.22	372.32
697.56	370.45
697.89	368.59
698.23	366.78
698.56	364.96
698.90	363.16
699.23	361.29
699.57	359.51
699.90	357.76
700.24	355.97
700.58	354.26
700.91	352.58
701.25	350.88
701.58	349.31
701.92	347.78
702.25	346.24
702.59	344.65
702.92	343.12
703.26	341.67
703.59	340.18
703.93	338.86
704.26	337.49
704.60	335.99
704.93	334.52
705.26	333.08
705.60	331.69
705.93	330.41
706.27	329.20
706.60	327.92
706.94	326.63
707.27	325.28
707.61	324.03
707.94	322.84
708.27	321.60
708.61	320.37
708.94	319.20
709.28	318.07
709.61	316.99
709.94	315.89
710.28	314.67
710.61	313.54
710.95	312.29
711.28	311.20
711.61	310.12
711.95	309.09
712.28	307.98
712.61	306.88
712.95	305.77
713.28	304.70
713.61	303.67
713.95	302.67
714.28	301.70
714.61	300.76
714.95	299.80
715.28	298.86
715.61	297.85
715.95	296.93
716.28	295.94
716.61	294.96
716.95	294.05
717.28	293.22
717.61	292.36
717.94	291.54
718.28	290.61
718.61	289.79
718.94	289.00
719.27	288.29
719.61	287.57
719.94	286.80
720.27	286.00
720.60	285.27
720.94	284.57
721.27	283.93
721.60	283.24
721.93	282.56
722.27	281.93
722.60	281.33
722.93	280.68
723.26	280.11
723.59	279.45
723.93	278.80
724.26	278.18
724.59	277.57
724.92	276.95
725.25	276.39
725.59	275.78
725.92	275.17
726.25	274.59
726.58	273.99
726.91	273.43
727.24	272.94
727.57	272.39
727.91	271.85
728.24	271.33
728.57	270.76
728.90	270.25
729.23	269.67
729.56	269.18
729.89	268.65
730.22	268.10
730.55	267.61
730.89	267.14
731.22	266.58
731.55	266.07
731.88	265.57
732.21	265.08
732.54	264.60
732.87	264.12
733.20	263.64
733.53	263.20
733.86	262.80
734.19	262.33
734.52	261.90
734.85	261.53
735.18	261.05
735.51	260.63
735.84	260.22
736.17	259.82
736.50	259.34
736.83	259.04
737.16	258.63
737.49	258.22
737.82	257.78
738.15	257.44
738.48	257.05
738.81	256.67
739.14	256.28
739.47	255.93
739.80	255.56
740.13	255.24
740.46	254.89
740.79	254.46
741.12	254.13
741.45	253.79
741.78	253.38
742.11	253.07
742.44	252.70
742.77	252.33
743.10	252.01
743.43	251.69
743.75	251.27
744.08	251.10
744.41	250.78
744.74	250.50
745.07	250.17
745.40	249.87
745.73	249.62
746.06	249.34
746.39	249.03
746.71	248.72
747.04	248.39
747.37	248.06
747.70	247.79
748.03	247.46
748.36	247.19
748.68	246.91
749.01	246.62
749.34	246.33
749.67	246.06
750.00	245.80
750.33	245.60
750.65	245.38
750.98	244.99
751.31	244.75
751.64	244.50
751.97	244.35
752.29	244.10
752.62	243.79
752.95	243.54
753.28	243.32
753.60	243.11
753.93	242.91
754.26	242.68
754.59	242.47
754.91	242.26
755.24	242.06
755.57	241.86
755.90	241.65
756.22	241.48
756.55	241.29
756.88	241.05
757.20	240.79
757.53	240.56
757.86	240.38
758.19	240.23
758.51	240.04
758.84	239.77
759.17	239.61
759.49	239.45
759.82	239.30
760.15	239.12
760.47	238.94
760.80	238.76
761.13	238.66
761.45	238.48
761.78	238.33
762.11	238.14
762.43	237.97
762.76	237.79
763.08	237.66
763.41	237.49
763.74	237.37
764.06	237.21
764.39	237.05
764.71	236.87
765.04	236.65
765.37	236.51
765.69	236.38
766.02	236.23
766.34	236.06
766.67	235.90
767.00	235.80
767.32	235.73
767.65	235.66
767.97	235.49
768.30	235.36
768.62	235.19
768.95	235.09
769.27	234.95
769.60	234.84
769.92	234.66
770.25	234.54
770.57	234.39
770.90	234.26
771.22	234.16
771.55	234.09
771.87	234.03
772.20	233.90
772.52	233.88
772.85	233.88
773.17	233.81
773.50	233.68
773.82	233.56
774.15	233.40
774.47	233.21
774.80	233.12
775.12	233.02
775.45	232.95
775.77	232.82
776.09	232.73
776.42	232.63
776.74	232.56
777.07	232.46
777.39	232.39
777.72	232.31
778.04	232.17
778.36	232.08
778.69	231.97
779.01	231.88
779.33	231.70
779.66	231.52
779.98	231.39
780.31	231.33
780.63	231.27
780.95	231.20
781.28	231.14
781.60	231.05
781.92	230.96
782.25	230.88
782.57	230.82
782.89	230.76
783.22	230.70
783.54	230.62
783.86	230.58
784.19	230.49
784.51	230.44
784.83	230.42
785.16	230.35
785.48	230.32
785.80	230.29
786.12	230.25
786.45	230.18
786.77	230.15
787.09	230.10
787.42	230.05
787.74	230.02
788.06	229.96
788.38	229.90
788.71	229.86
789.03	229.85
789.35	229.82
789.67	229.76
789.99	229.70
790.32	229.67
790.64	229.63
790.96	229.66
791.28	229.57
791.61	229.49
791.93	229.43
792.25	229.39
792.57	229.40
792.89	229.34
793.21	229.31
793.54	229.28
793.86	229.22
794.18	229.15
794.50	229.06
794.82	229.00
795.14	228.97
795.47	228.95
795.79	228.88
796.11	228.82
796.43	228.77
796.75	228.74
797.07	228.69
797.39	228.62
797.71	228.51
798.04	228.50
798.36	228.48
798.68	228.46
799.00	228.41
799.32	228.36
799.64	228.36
799.96	228.31
800.28	228.29
800.60	228.24
800.92	228.22
801.24	228.21
801.56	228.22
801.89	228.17
802.21	228.14
802.53	228.06
802.85	228.04
803.17	228.05
803.49	227.99
803.81	227.94
804.13	227.89
804.45	227.86
804.77	227.82
805.09	227.77
805.41	227.70
805.73	227.65
806.05	227.57
806.37	227.52
806.69	227.49
807.01	227.42
807.33	227.42
807.65	227.33
807.97	227.35
808.28	227.31
808.60	227.32
808.92	227.27
809.24	227.34
809.56	227.28
809.88	227.21
810.20	227.18
810.52	227.17
810.84	227.17
811.16	227.11
811.48	227.10
811.80	227.12
812.12	227.10
812.43	227.08
812.75	227.04
813.07	227.00
813.39	226.96
813.71	226.91
814.03	226.84
814.35	226.85
814.67	226.78
814.98	226.69
815.30	226.64
815.62	226.59
815.94	226.50
816.26	226.54
816.58	226.51
816.89	226.52
817.21	226.50
817.53	226.48
817.85	226.49
818.17	226.47
818.48	226.40
818.80	226.44
819.12	226.38
819.44	226.35
819.76	226.32
820.07	226.33
820.39	226.34
820.71	226.32
821.03	226.32
821.34	226.31
821.66	226.34
821.98	226.35
822.30	226.34
822.61	226.36
822.93	226.30
823.25	226.29
823.57	226.27
823.88	226.30
824.20	226.24
824.52	226.23
824.83	226.23
825.15	226.25
825.47	226.20
825.79	226.21
826.10	226.18
826.42	226.19
826.74	226.16
827.05	226.18
827.37	226.19
827.69	226.16
828.00	226.16
828.32	226.14
828.64	226.12
828.95	226.14
829.27	226.10
829.58	226.10
829.90	226.10
830.22	226.10
830.53	226.06
830.85	226.09
831.17	226.04
831.48	226.02
831.80	226.00
832.11	225.98
832.43	225.97
832.75	225.98
833.06	225.98
833.38	225.97
833.69	225.94
834.01	225.94
834.32	225.94
834.64	225.91
834.96	225.89
835.27	225.90
835.59	225.87
835.90	225.88
836.22	225.86
836.53	225.84
836.85	225.81
837.16	225.90
837.48	225.90
837.79	225.95
838.11	225.96
838.42	225.94
838.74	225.95
839.05	225.96
839.37	225.93
839.68	225.88
840.00	225.88
840.31	225.90
840.63	225.89
840.94	225.86
841.26	225.84
841.57	225.83
841.88	225.82
842.20	225.79
842.51	225.74
842.83	225.74
843.14	225.81
843.46	225.82
843.77	225.73
844.08	225.69
844.40	225.64
844.71	225.61
845.03	225.58
845.34	225.56
845.65	225.55
845.97	225.55
846.28	225.54
846.60	225.54
846.91	225.50
847.22	225.47
847.54	225.51
847.85	225.52
848.16	225.54
848.48	225.50
848.79	225.51
849.10	225.48
849.42	225.46
849.73	225.34
850.04	225.31
850.36	225.29
850.67	225.26
850.98	225.28
851.30	225.29
851.61	225.29
851.92	225.29
852.23	225.28
852.55	225.29
852.86	225.32
853.17	225.29
853.49	225.30
853.80	225.28
854.11	225.28
854.42	225.29
854.74	225.23
855.05	225.23
855.36	225.20
855.67	225.25
855.99	225.25
856.30	225.36
856.61	225.36
856.92	225.33
857.23	225.34
857.55	225.33
857.86	225.31
858.17	225.34
858.48	225.28
858.79	225.24
859.11	225.26
859.42	225.20
859.73	225.21
860.04	225.16
860.35	225.18
860.66	225.13
860.98	225.11
861.29	225.13
861.60	225.12
861.91	225.14
862.22	225.10
862.53	225.12
862.84	225.01
863.16	225.02
863.47	225.02
863.78	225.02
864.09	225.01
864.40	225.02
864.71	225.00
865.02	225.05
865.33	225.04
865.64	225.00
865.95	225.04
866.27	225.12
866.58	225.12
866.89	225.11
867.20	225.10
867.51	225.07
867.82	225.08
868.13	225.11
868.44	225.09
868.75	225.12
869.06	225.08
869.37	225.08
869.68	225.09
869.99	225.08
870.30	225.12
870.61	225.14
870.92	225.11
871.23	225.12
871.54	225.13
871.85	225.18
872.16	225.19
872.47	225.20
872.78	225.11
873.09	225.14
873.40	225.14
873.71	225.15
874.02	225.20
874.33	225.20
874.64	225.18
874.95	225.20
875.26	225.15
875.56	225.16
875.87	225.15
876.18	225.10
876.49	225.22
876.80	225.21
877.11	225.17
877.42	225.20
877.73	225.18
878.04	225.13
878.35	225.13
878.66	225.13
878.96	225.16
879.27	225.16
879.58	225.18
879.89	225.17
880.20	225.21
880.51	225.20
880.82	225.17
881.12	225.17
881.43	225.16
881.74	225.17
882.05	225.18
882.36	225.18
882.67	225.21
882.97	225.12
883.28	225.09
883.59	225.11
883.90	225.10
884.21	225.10
884.51	225.11
884.82	225.11
885.13	225.07
885.44	225.05
885.74	225.06
886.05	225.04
886.36	225.05
886.67	225.01
886.98	225.03
887.28	225.05
887.59	225.02
887.90	225.03
888.20	225.00
888.51	224.99
888.82	224.99
889.13	224.99
889.43	225.07
889.74	225.05
890.05	225.03
890.35	225.00
890.66	224.96
890.97	224.96
891.28	224.95
891.58	224.97
891.89	224.96
892.20	224.94
892.50	224.90
892.81	224.86
893.12	224.86
893.42	224.80
893.73	224.77
894.04	224.78
894.34	224.75
894.65	224.79
894.95	224.81
895.26	224.77
895.57	224.80
895.87	224.68
896.18	224.72
896.48	224.72
896.79	224.70
897.10	224.72
897.40	224.73
897.71	224.69
898.01	224.68
898.32	224.68
898.63	224.63
898.93	224.66
899.24	224.69
899.54	224.66
899.85	224.67
900.15	224.70
900.46	224.67
900.76	224.69
901.07	224.68
901.38	224.66
901.68	224.71
901.99	224.69
902.29	224.69
902.60	224.68
902.90	224.66
903.21	224.70
903.51	224.72
903.82	224.73
904.12	224.76
904.43	224.74
904.73	224.75
905.03	224.78
905.34	224.85
905.64	224.82
905.95	224.83
906.25	224.84
906.56	224.84
906.86	224.88
907.17	224.88
907.47	224.87
907.77	224.87
908.08	224.86
908.38	224.86
908.69	224.89
908.99	224.90
909.30	224.92
909.60	224.91
909.90	224.91
910.21	224.87
910.51	224.86
910.81	224.91
911.12	224.89
911.42	224.91
911.73	224.79
912.03	224.80
912.33	224.83
912.64	224.81
912.94	224.80
913.24	224.76
913.55	224.75
913.85	224.75
914.15	224.77
914.46	224.75
914.76	224.72
915.06	224.69
915.37	224.68
915.67	224.65
915.97	224.66
916.27	224.64
916.58	224.66
916.88	224.63
917.18	224.58
917.49	224.67
917.79	224.65
918.09	224.74
918.39	224.77
918.70	224.75
919.00	224.80
919.30	224.83
919.60	224.81
919.91	224.83
920.21	224.85
920.51	224.83
920.81	224.84
921.12	224.85
921.42	224.86
921.72	224.85
922.02	224.87
922.32	224.86
922.63	224.84
922.93	224.90
923.23	224.89
923.53	224.93
923.83	224.83
924.13	224.86
924.44	224.84
924.74	224.89
925.04	224.91
925.34	224.85
925.64	224.83
925.94	224.86
926.24	224.90
926.55	224.88
926.85	224.88
927.15	224.88
927.45	224.88
927.75	224.88
928.05	224.87
928.35	224.89
928.65	224.93
928.95	224.93
929.26	224.92
929.56	224.92
929.86	224.92
930.16	224.94
930.46	224.91
930.76	224.90
931.06	224.80
931.36	224.79
931.66	224.84
931.96	224.85
932.26	224.83
932.56	224.77
932.86	224.77
933.16	224.77
933.46	224.76
933.76	224.78
934.06	224.80
934.36	224.84
934.66	224.84
934.96	224.80
935.26	224.86
935.56	224.86
935.86	224.86
936.16	224.83
936.46	224.82
936.76	224.83
937.06	224.80
937.36	224.80
937.66	224.78
937.96	224.77
938.26	224.79
938.56	224.76
938.86	224.77
939.16	224.81
939.46	224.82
939.76	224.86
940.06	224.83
940.35	224.81
940.65	224.77
940.95	224.74
941.25	224.70
941.55	224.68
941.85	224.64
942.15	224.67
942.45	224.71
942.75	224.70
943.04	224.70
943.34	224.74
943.64	224.76
943.94	224.76
944.24	224.72
944.54	224.69
944.84	224.71
945.13	224.69
945.43	224.66
945.73	224.64
946.03	224.61
946.33	224.59
946.62	224.56
946.92	224.55
947.22	224.58
947.52	224.57
947.82	224.59
948.11	224.60
948.41	224.55
948.71	224.50
949.01	224.49
949.31	224.48
949.60	224.43
949.90	224.41
950.20	224.45
950.50	224.45
950.79	224.45
951.09	224.46
951.39	224.47
951.69	224.47
951.98	224.51
952.28	224.52
952.58	224.52
952.87	224.54
953.17	224.58
953.47	224.55
953.76	224.56
954.06	224.52
954.36	224.50
954.66	224.50
954.95	224.52
955.25	224.51
955.55	224.52
955.84	224.53
956.14	224.54
956.44	224.51
956.73	224.47
957.03	224.46
957.32	224.45
957.62	224.42
957.92	224.43
958.21	224.40
958.51	224.50
958.81	224.51
959.10	224.52
959.40	224.50
959.69	224.51
959.99	224.54
960.29	224.53
960.58	224.51
960.88	224.55
961.17	224.55
961.47	224.58
961.76	224.57
962.06	224.56
962.36	224.56
962.65	224.57
962.95	224.60
963.24	224.63
963.54	224.63
963.83	224.62
964.13	224.63
964.42	224.61
964.72	224.52
965.01	224.53
965.31	224.51
965.60	224.51
965.90	224.57
966.19	224.55
966.49	224.57
966.78	224.60
967.08	224.59
967.37	224.60
967.67	224.57
967.96	224.57
968.26	224.59
968.55	224.60
968.85	224.59
969.14	224.60
969.43	224.60
969.73	224.60
970.02	224.61
970.32	224.60
970.61	224.62
970.91	224.61
971.20	224.58
971.49	224.60
971.79	224.61
972.08	224.55
972.38	224.57
972.67	224.57
972.96	224.55
973.26	224.56
973.55	224.58
973.85	224.62
974.14	224.62
974.43	224.61
974.73	224.62
975.02	224.64
975.31	224.63
975.61	224.62
975.90	224.60
976.19	224.63
976.49	224.63
976.78	224.63
977.07	224.64
977.37	224.66
977.66	224.67
977.95	224.64
978.24	224.67
978.54	224.67
978.83	224.65
979.12	224.65
979.42	224.62
979.71	224.61
980.00	224.60
980.29	224.61
980.59	224.61
980.88	224.62
981.17	224.63
981.46	224.60
981.76	224.59
982.05	224.62
982.34	224.62
982.63	224.62
982.93	224.62
983.22	224.63
983.51	224.61
983.80	224.61
984.09	224.60
984.39	224.57
984.68	224.56
984.97	224.56
985.26	224.56
985.55	224.59
985.85	224.59
986.14	224.59
986.43	224.57
986.72	224.56
987.01	224.52
987.30	224.50
987.59	224.51
987.89	224.51
988.18	224.48
988.47	224.44
988.76	224.43
989.05	224.43
989.34	224.40
989.63	224.45
989.92	224.42
990.22	224.40
990.51	224.39
990.80	224.35
991.09	224.34
991.38	224.33
991.67	224.27
991.96	224.23
992.25	224.24
992.54	224.24
992.83	224.21
993.12	224.17
993.41	224.19
993.70	224.24
993.99	224.27
994.28	224.32
994.58	224.35
994.87	224.34
995.16	224.32
995.45	224.32
995.74	224.28
996.03	224.30
996.32	224.34
996.61	224.35
996.90	224.36
997.19	224.37
997.48	224.40
997.77	224.40
998.06	224.41
998.34	224.45
998.63	224.43
998.92	224.46
999.21	224.47
999.50	224.47
999.79	224.43
1000.08	224.41
1000.37	224.38
1000.66	224.34
1000.95	224.37
1001.24	224.37
1001.53	224.37
1001.82	224.34
1002.11	224.33
1002.40	224.35
1002.68	224.40
1002.97	224.49
1003.26	224.48
1003.55	224.48
1003.84	224.50
1004.13	224.56
1004.42	224.52
1004.71	224.53
1004.99	224.55
1005.28	224.61
1005.57	224.61
1005.86	224.59
1006.15	224.58
1006.44	224.60
1006.72	224.63
1007.01	224.58
1007.30	224.60
1007.59	224.62
1007.88	224.64
1008.17	224.63
1008.45	224.63
1008.74	224.60
1009.03	224.54
1009.32	224.54
1009.60	224.52
1009.89	224.53
1010.18	224.48
1010.47	224.50
1010.76	224.50
1011.04	224.49
1011.33	224.49
1011.62	224.51
1011.91	224.54
1012.19	224.57
1012.48	224.54
1012.77	224.55
1013.05	224.62
1013.34	224.63
1013.63	224.62
1013.92	224.67
1014.20	224.68
1014.49	224.67
1014.78	224.69
1015.06	224.66
1015.35	224.67
1015.64	224.68
1015.92	224.69
1016.21	224.71
1016.50	224.70
1016.78	224.72
1017.07	224.72
1017.36	224.68
1017.64	224.66
1017.93	224.69
1018.22	224.66
1018.50	224.65
1018.79	224.65
1019.08	224.56
1019.36	224.55
1019.65	224.53
1019.93	224.52
1020.22	224.50
1020.51	224.52
1020.79	224.49
1021.08	224.20
1021.36	224.09
1021.65	224.52
1021.94	223.90
1022.22	224.39
1022.51	224.21
1022.79	225.03
1023.08	224.24
1023.36	225.22
1023.65	224.26
>>>>>End Processed Spectral Data<<<<<
