SpectraSuite Data File
++++++++++++++++++++++++++++++++++++
Date: Fri Feb 01 15:50:31 EST 2013
User: group
Dark Spectrum Present: No
Reference Spectrum Present: No
Number of Sampled Component Spectra: 1
Spectrometers: USB2E7196
Integration Time (usec): 35000 (USB2E7196)
Spectra Averaged: 100 (USB2E7196)
Boxcar Smoothing: 10 (USB2E7196)
Correct for Electrical Dark: No (USB2E7196)
Strobe/Lamp Enabled: No (USB2E7196)
Correct for Detector Non-linearity: No (USB2E7196)
Correct for Stray Light: No (USB2E7196)
Number of Pixels in Processed Spectrum: 2048
>>>>>Begin Processed Spectral Data<<<<<
339.09	0.00
339.48	214.78
339.86	215.97
340.24	217.78
340.63	219.69
341.01	221.89
341.39	221.92
341.78	223.14
342.16	224.38
342.54	224.81
342.93	213.20
343.31	223.96
343.69	224.49
344.07	224.97
344.46	225.38
344.84	225.72
345.22	225.94
345.60	226.15
345.99	226.32
346.37	226.48
346.75	226.56
347.13	226.61
347.52	226.67
347.90	226.71
348.28	226.73
348.66	226.77
349.05	226.77
349.43	226.82
349.81	226.86
350.19	226.90
350.57	226.90
350.96	226.95
351.34	227.03
351.72	227.13
352.10	227.21
352.48	227.29
352.87	227.32
353.25	227.40
353.63	227.47
354.01	227.54
354.39	227.58
354.77	227.67
355.15	227.77
355.54	227.85
355.92	227.92
356.30	227.99
356.68	228.12
357.06	228.19
357.44	228.24
357.82	228.30
358.20	228.38
358.58	228.45
358.97	228.53
359.35	228.59
359.73	228.64
360.11	228.69
360.49	228.73
360.87	228.81
361.25	228.86
361.63	228.95
362.01	229.00
362.39	229.03
362.77	229.08
363.15	229.11
363.53	229.13
363.91	229.14
364.29	229.17
364.67	229.11
365.05	229.13
365.43	229.15
365.81	229.19
366.19	229.24
366.57	229.29
366.95	229.28
367.33	229.25
367.71	229.26
368.09	229.27
368.47	229.27
368.85	229.26
369.23	229.26
369.61	229.21
369.99	229.23
370.37	229.20
370.75	229.22
371.13	229.16
371.51	229.09
371.89	229.09
372.27	229.06
372.65	229.03
373.03	228.97
373.41	228.91
373.78	228.83
374.16	228.76
374.54	228.67
374.92	228.63
375.30	228.59
375.68	228.53
376.06	228.52
376.44	228.45
376.82	228.36
377.19	228.30
377.57	228.25
377.95	228.14
378.33	228.07
378.71	227.95
379.09	227.88
379.47	227.84
379.84	227.74
380.22	227.66
380.60	227.57
380.98	227.49
381.36	227.42
381.73	227.35
382.11	227.28
382.49	227.22
382.87	227.18
383.25	227.11
383.62	227.11
384.00	226.99
384.38	226.94
384.76	226.89
385.13	226.87
385.51	226.79
385.89	226.75
386.27	226.71
386.64	226.67
387.02	226.63
387.40	226.57
387.78	226.53
388.15	226.52
388.53	226.47
388.91	226.42
389.29	226.35
389.66	226.35
390.04	226.31
390.42	226.29
390.79	226.24
391.17	226.21
391.55	226.08
391.92	226.06
392.30	226.07
392.68	226.06
393.05	226.06
393.43	226.10
393.81	226.06
394.18	226.02
394.56	226.02
394.94	226.05
395.31	226.03
395.69	226.05
396.06	226.04
396.44	226.10
396.82	226.15
397.19	226.25
397.57	226.30
397.95	226.38
398.32	226.36
398.70	226.43
399.07	226.53
399.45	226.62
399.82	226.70
400.20	226.75
400.58	226.81
400.95	226.81
401.33	226.88
401.70	227.06
402.08	227.19
402.45	227.28
402.83	227.40
403.20	227.56
403.58	227.64
403.95	227.81
404.33	227.91
404.71	228.04
405.08	228.23
405.46	228.35
405.83	228.50
406.21	228.68
406.58	228.84
406.96	229.00
407.33	229.18
407.70	229.41
408.08	229.70
408.45	229.93
408.83	230.19
409.20	230.41
409.58	230.58
409.95	230.83
410.33	231.12
410.70	231.39
411.08	231.68
411.45	232.03
411.82	232.36
412.20	232.72
412.57	233.18
412.95	233.47
413.32	233.91
413.69	234.33
414.07	234.79
414.44	235.28
414.82	235.76
415.19	236.33
415.56	236.86
415.94	237.39
416.31	238.07
416.68	238.71
417.06	239.45
417.43	240.15
417.81	240.93
418.18	241.73
418.55	242.53
418.93	243.42
419.30	244.33
419.67	245.28
420.04	246.26
420.42	247.24
420.79	248.45
421.16	249.57
421.54	250.76
421.91	251.96
422.28	253.18
422.66	254.53
423.03	255.85
423.40	257.18
423.77	258.63
424.15	260.02
424.52	261.49
424.89	263.09
425.26	264.62
425.64	266.04
426.01	267.62
426.38	269.30
426.75	270.96
427.13	272.67
427.50	274.44
427.87	276.33
428.24	278.16
428.61	279.87
428.99	281.80
429.36	283.90
429.73	285.93
430.10	287.97
430.47	290.00
430.85	292.08
431.22	294.32
431.59	296.69
431.96	298.95
432.33	301.44
432.70	303.78
433.08	306.64
433.45	309.30
433.82	311.87
434.19	314.77
434.56	317.62
434.93	320.22
435.30	322.86
435.68	325.72
436.05	328.54
436.42	331.34
436.79	333.85
437.16	336.52
437.53	339.36
437.90	342.14
438.27	344.88
438.64	347.70
439.01	350.34
439.38	352.56
439.75	354.69
440.13	357.17
440.50	359.49
440.87	361.27
441.24	363.18
441.61	365.34
441.98	366.81
442.35	368.56
442.72	370.49
443.09	372.26
443.46	373.24
443.83	373.83
444.20	374.31
444.57	375.13
444.94	375.38
445.31	375.74
445.68	376.11
446.05	376.19
446.42	375.81
446.79	375.33
447.16	374.89
447.53	374.62
447.90	373.46
448.27	372.31
448.64	370.74
449.01	369.60
449.37	367.63
449.74	365.73
450.11	363.50
450.48	360.97
450.85	358.46
451.22	356.37
451.59	354.33
451.96	352.41
452.33	349.84
452.70	347.51
453.07	344.69
453.43	341.80
453.80	339.01
454.17	336.38
454.54	333.81
454.91	331.09
455.28	328.40
455.65	325.90
456.02	323.48
456.38	321.35
456.75	318.76
457.12	316.56
457.49	314.34
457.86	312.16
458.23	310.35
458.59	308.30
458.96	306.17
459.33	304.33
459.70	302.50
460.07	301.00
460.43	299.31
460.80	297.68
461.17	296.28
461.54	294.79
461.91	293.34
462.27	291.95
462.64	290.70
463.01	289.33
463.38	288.05
463.74	286.65
464.11	285.50
464.48	284.45
464.85	283.31
465.21	282.48
465.58	281.56
465.95	280.44
466.32	279.54
466.68	278.61
467.05	277.76
467.42	276.85
467.78	275.93
468.15	275.05
468.52	274.38
468.88	273.50
469.25	272.71
469.62	272.11
469.98	271.41
470.35	270.78
470.72	270.20
471.08	269.56
471.45	269.06
471.82	268.50
472.18	267.92
472.55	267.47
472.92	266.96
473.28	266.53
473.65	266.07
474.02	265.63
474.38	265.29
474.75	264.96
475.11	264.64
475.48	264.38
475.85	264.17
476.21	263.94
476.58	263.78
476.94	263.67
477.31	263.46
477.67	263.31
478.04	263.18
478.41	263.10
478.77	263.11
479.14	263.04
479.50	263.07
479.87	263.13
480.23	263.23
480.60	263.25
480.96	263.33
481.33	263.56
481.69	263.76
482.06	263.98
482.42	264.17
482.79	264.37
483.15	264.71
483.52	265.05
483.88	265.41
484.25	265.77
484.61	266.17
484.98	266.66
485.34	267.22
485.71	267.81
486.07	268.43
486.44	269.00
486.80	269.71
487.17	270.41
487.53	271.23
487.90	272.03
488.26	272.98
488.62	273.96
488.99	274.91
489.35	275.93
489.72	277.02
490.08	278.19
490.44	279.45
490.81	280.75
491.17	282.09
491.54	283.58
491.90	285.14
492.26	286.83
492.63	288.53
492.99	290.31
493.36	292.21
493.72	294.23
494.08	296.32
494.45	298.56
494.81	300.91
495.17	303.33
495.54	305.96
495.90	308.60
496.26	311.39
496.63	314.39
496.99	317.53
497.35	320.83
497.72	324.22
498.08	327.76
498.44	331.43
498.80	335.37
499.17	339.38
499.53	343.52
499.89	347.85
500.26	352.37
500.62	357.05
500.98	362.02
501.34	367.08
501.71	372.42
502.07	377.87
502.43	383.49
502.79	389.30
503.16	395.33
503.52	401.67
503.88	408.06
504.24	414.71
504.60	421.62
504.97	428.73
505.33	436.08
505.69	443.78
506.05	451.54
506.41	459.42
506.78	467.60
507.14	476.11
507.50	484.87
507.86	493.87
508.22	503.10
508.59	512.24
508.95	521.86
509.31	531.74
509.67	541.88
510.03	552.24
510.39	562.85
510.75	573.62
511.12	584.53
511.48	595.91
511.84	607.37
512.20	618.76
512.56	630.73
512.92	642.92
513.28	655.28
513.64	667.82
514.00	680.55
514.37	693.47
514.73	706.47
515.09	719.49
515.45	732.80
515.81	746.37
516.17	760.39
516.53	774.54
516.89	788.75
517.25	802.88
517.61	817.24
517.97	831.72
518.33	846.22
518.69	861.06
519.05	876.00
519.41	891.15
519.77	906.83
520.13	922.24
520.49	937.61
520.85	953.06
521.21	968.74
521.57	985.01
521.93	1000.81
522.29	1017.22
522.65	1033.43
523.01	1049.60
523.37	1065.64
523.73	1081.79
524.09	1097.73
524.45	1113.96
524.81	1130.60
525.17	1147.38
525.53	1164.29
525.89	1181.15
526.25	1197.88
526.61	1214.28
526.97	1230.97
527.33	1247.36
527.68	1263.95
528.04	1280.38
528.40	1296.96
528.76	1314.02
529.12	1330.54
529.48	1347.38
529.84	1363.46
530.20	1380.15
530.56	1397.30
530.91	1414.62
531.27	1431.42
531.63	1448.02
531.99	1464.56
532.35	1480.55
532.71	1496.38
533.07	1512.53
533.42	1528.30
533.78	1544.39
534.14	1560.61
534.50	1575.96
534.86	1591.89
535.21	1607.05
535.57	1623.02
535.93	1638.46
536.29	1653.15
536.65	1668.28
537.00	1682.99
537.36	1698.06
537.72	1712.52
538.08	1726.86
538.44	1740.59
538.79	1754.43
539.15	1768.07
539.51	1781.83
539.87	1796.12
540.22	1809.97
540.58	1823.73
540.94	1837.16
541.29	1850.04
541.65	1862.72
542.01	1875.97
542.37	1888.12
542.72	1900.62
543.08	1912.40
543.44	1924.93
543.79	1936.25
544.15	1947.21
544.51	1958.74
544.87	1969.79
545.22	1980.60
545.58	1990.73
545.94	2000.46
546.29	2010.34
546.65	2020.17
547.01	2029.57
547.36	2038.24
547.72	2046.60
548.07	2054.46
548.43	2062.54
548.79	2070.57
549.14	2078.10
549.50	2085.38
549.86	2093.18
550.21	2100.59
550.57	2107.69
550.92	2114.15
551.28	2121.25
551.64	2128.20
551.99	2134.75
552.35	2140.99
552.70	2147.06
553.06	2152.98
553.41	2159.40
553.77	2165.42
554.13	2171.47
554.48	2177.43
554.84	2182.91
555.19	2188.26
555.55	2193.27
555.90	2197.73
556.26	2202.58
556.61	2207.18
556.97	2211.44
557.32	2215.47
557.68	2219.38
558.03	2223.60
558.39	2227.33
558.74	2231.89
559.10	2235.78
559.45	2239.44
559.81	2243.74
560.16	2247.62
560.52	2250.93
560.87	2254.33
561.23	2257.00
561.58	2260.02
561.94	2262.53
562.29	2264.91
562.64	2267.56
563.00	2270.24
563.35	2273.96
563.71	2276.98
564.06	2280.23
564.42	2283.05
564.77	2285.66
565.12	2287.97
565.48	2289.97
565.83	2291.73
566.19	2293.01
566.54	2293.92
566.89	2295.04
567.25	2295.48
567.60	2296.85
567.96	2298.49
568.31	2299.38
568.66	2300.42
569.02	2301.02
569.37	2301.29
569.72	2302.14
570.08	2302.31
570.43	2302.33
570.78	2301.61
571.14	2300.06
571.49	2298.78
571.84	2298.50
572.20	2297.27
572.55	2296.34
572.90	2294.79
573.26	2293.53
573.61	2291.83
573.96	2290.03
574.31	2287.06
574.67	2284.11
575.02	2280.48
575.37	2277.15
575.72	2273.29
576.08	2270.08
576.43	2266.68
576.78	2263.06
577.13	2259.93
577.49	2256.70
577.84	2253.32
578.19	2249.51
578.54	2246.00
578.90	2241.74
579.25	2236.24
579.60	2231.30
579.95	2226.14
580.30	2221.02
580.66	2215.89
581.01	2211.01
581.36	2206.17
581.71	2201.98
582.06	2197.42
582.42	2192.93
582.77	2187.63
583.12	2183.02
583.47	2178.15
583.82	2173.13
584.17	2167.82
584.53	2162.18
584.88	2156.48
585.23	2150.59
585.58	2145.07
585.93	2139.62
586.28	2134.83
586.63	2129.62
586.98	2124.59
587.34	2119.90
587.69	2114.99
588.04	2109.65
588.39	2103.86
588.74	2097.29
589.09	2091.21
589.44	2084.54
589.79	2078.51
590.14	2072.94
590.49	2066.34
590.84	2060.10
591.19	2054.05
591.54	2047.62
591.89	2040.20
592.25	2033.46
592.60	2026.17
592.95	2018.62
593.30	2011.35
593.65	2003.80
594.00	1997.00
594.35	1989.83
594.70	1981.81
595.05	1974.65
595.40	1967.27
595.75	1959.76
596.10	1953.65
596.45	1946.83
596.80	1940.60
597.15	1934.01
597.50	1926.84
597.85	1920.51
598.19	1913.81
598.54	1906.72
598.89	1900.08
599.24	1894.31
599.59	1887.69
599.94	1881.68
600.29	1875.39
600.64	1868.62
600.99	1861.16
601.34	1854.22
601.69	1847.23
602.04	1840.39
602.39	1833.06
602.74	1826.35
603.08	1819.69
603.43	1812.85
603.78	1805.54
604.13	1798.36
604.48	1790.97
604.83	1784.06
605.18	1777.07
605.53	1769.06
605.87	1761.07
606.22	1753.91
606.57	1745.98
606.92	1738.71
607.27	1731.43
607.62	1724.44
607.96	1717.34
608.31	1710.84
608.66	1703.21
609.01	1695.51
609.36	1687.94
609.70	1679.92
610.05	1671.71
610.40	1663.91
610.75	1655.61
611.10	1647.96
611.44	1639.67
611.79	1631.74
612.14	1623.17
612.49	1613.95
612.83	1605.50
613.18	1597.42
613.53	1589.13
613.88	1580.48
614.22	1572.15
614.57	1563.56
614.92	1555.52
615.27	1547.77
615.61	1539.29
615.96	1531.29
616.31	1523.82
616.65	1516.37
617.00	1508.75
617.35	1501.14
617.70	1492.81
618.04	1484.35
618.39	1476.01
618.74	1468.35
619.08	1460.01
619.43	1452.52
619.78	1445.62
620.12	1438.43
620.47	1430.81
620.82	1422.77
621.16	1415.46
621.51	1407.93
621.85	1400.34
622.20	1391.93
622.55	1383.61
622.89	1375.84
623.24	1368.24
623.59	1360.78
623.93	1353.25
624.28	1346.14
624.62	1338.56
624.97	1331.44
625.32	1324.69
625.66	1317.83
626.01	1310.55
626.35	1302.98
626.70	1295.12
627.04	1287.40
627.39	1279.64
627.73	1272.27
628.08	1265.36
628.43	1257.98
628.77	1250.54
629.12	1242.96
629.46	1235.77
629.81	1228.46
630.15	1221.22
630.50	1213.82
630.84	1205.61
631.19	1197.81
631.53	1190.26
631.88	1182.79
632.22	1175.24
632.57	1167.86
632.91	1160.27
633.26	1152.99
633.60	1145.80
633.95	1138.77
634.29	1131.69
634.64	1125.05
634.98	1117.76
635.32	1110.64
635.67	1104.15
636.01	1097.49
636.36	1090.58
636.70	1084.02
637.05	1077.35
637.39	1070.87
637.73	1064.29
638.08	1058.43
638.42	1052.41
638.77	1045.98
639.11	1039.39
639.45	1032.93
639.80	1026.35
640.14	1019.99
640.49	1013.41
640.83	1007.00
641.17	1000.66
641.52	994.28
641.86	987.93
642.20	982.05
642.55	975.72
642.89	969.18
643.23	962.67
643.58	957.01
643.92	950.83
644.26	944.77
644.61	938.80
644.95	932.72
645.29	926.10
645.64	919.33
645.98	912.98
646.32	907.14
646.66	901.11
647.01	895.32
647.35	889.58
647.69	883.79
648.04	878.29
648.38	872.56
648.72	866.63
649.06	860.50
649.41	854.56
649.75	848.58
650.09	842.65
650.43	836.90
650.78	830.73
651.12	824.82
651.46	819.12
651.80	813.31
652.14	808.01
652.49	802.64
652.83	797.41
653.17	791.73
653.51	785.94
653.85	780.53
654.20	774.84
654.54	768.82
654.88	763.02
655.22	757.14
655.56	751.48
655.90	746.02
656.25	740.77
656.59	735.36
656.93	730.18
657.27	724.99
657.61	719.57
657.95	714.44
658.29	709.34
658.64	704.12
658.98	698.87
659.32	693.32
659.66	688.08
660.00	682.75
660.34	677.73
660.68	672.84
661.02	667.81
661.36	663.08
661.70	658.55
662.05	654.17
662.39	649.85
662.73	645.34
663.07	640.97
663.41	636.51
663.75	632.01
664.09	627.57
664.43	623.21
664.77	619.04
665.11	614.82
665.45	610.67
665.79	606.52
666.13	602.37
666.47	598.25
666.81	594.11
667.15	590.05
667.49	586.15
667.83	582.36
668.17	578.40
668.51	574.30
668.85	570.26
669.19	566.47
669.53	562.62
669.87	558.72
670.21	555.01
670.55	551.38
670.89	548.00
671.23	544.51
671.57	541.00
671.91	537.46
672.25	534.00
672.58	530.50
672.92	527.18
673.26	524.01
673.60	520.93
673.94	517.86
674.28	514.97
674.62	512.09
674.96	509.06
675.30	506.16
675.64	503.32
675.97	500.60
676.31	497.72
676.65	494.81
676.99	492.09
677.33	489.26
677.67	486.44
678.01	483.40
678.34	480.45
678.68	477.52
679.02	474.72
679.36	471.92
679.70	469.22
680.04	466.42
680.37	463.53
680.71	460.74
681.05	458.11
681.39	455.38
681.73	452.70
682.06	450.11
682.40	447.60
682.74	445.06
683.08	442.52
683.42	439.98
683.75	437.44
684.09	434.94
684.43	432.46
684.77	430.04
685.10	427.73
685.44	425.42
685.78	423.19
686.12	420.92
686.45	418.64
686.79	416.32
687.13	414.14
687.46	412.00
687.80	409.78
688.14	407.57
688.48	405.52
688.81	403.26
689.15	401.11
689.49	399.01
689.82	396.96
690.16	394.85
690.50	392.85
690.83	390.93
691.17	388.98
691.51	387.08
691.84	385.18
692.18	383.23
692.52	381.25
692.85	379.30
693.19	377.42
693.52	375.56
693.86	373.78
694.20	371.94
694.53	370.09
694.87	368.29
695.21	366.48
695.54	364.62
695.88	362.92
696.21	361.22
696.55	359.49
696.88	357.80
697.22	356.13
697.56	354.52
697.89	352.88
698.23	351.25
698.56	349.63
698.90	348.05
699.23	346.41
699.57	344.85
699.90	343.29
700.24	341.75
700.58	340.22
700.91	338.67
701.25	337.28
701.58	335.94
701.92	334.57
702.25	333.19
702.59	331.82
702.92	330.45
703.26	329.10
703.59	327.84
703.93	326.60
704.26	325.36
704.60	324.03
704.93	322.76
705.26	321.52
705.60	320.37
705.93	319.21
706.27	318.14
706.60	317.10
706.94	316.03
707.27	314.88
707.61	313.85
707.94	312.81
708.27	311.68
708.61	310.59
708.94	309.58
709.28	308.59
709.61	307.66
709.94	306.73
710.28	305.69
710.61	304.72
710.95	303.63
711.28	302.76
711.61	301.83
711.95	300.91
712.28	299.92
712.61	298.90
712.95	297.97
713.28	297.17
713.61	296.25
713.95	295.39
714.28	294.57
714.61	293.69
714.95	292.88
715.28	292.04
715.61	291.18
715.95	290.33
716.28	289.53
716.61	288.72
716.95	287.91
717.28	287.17
717.61	286.38
717.94	285.63
718.28	284.77
718.61	284.03
718.94	283.32
719.27	282.68
719.61	282.05
719.94	281.41
720.27	280.65
720.60	280.00
720.94	279.40
721.27	278.79
721.60	278.21
721.93	277.60
722.27	277.07
722.60	276.54
722.93	275.98
723.26	275.42
723.59	274.85
723.93	274.34
724.26	273.78
724.59	273.22
724.92	272.77
725.25	272.30
725.59	271.83
725.92	271.34
726.25	270.83
726.58	270.32
726.91	269.81
727.24	269.31
727.57	268.85
727.91	268.26
728.24	267.78
728.57	267.29
728.90	266.86
729.23	266.35
729.56	265.89
729.89	265.42
730.22	264.95
730.55	264.47
730.89	264.01
731.22	263.57
731.55	263.14
731.88	262.72
732.21	262.28
732.54	261.81
732.87	261.35
733.20	260.98
733.53	260.60
733.86	260.19
734.19	259.82
734.52	259.46
734.85	259.17
735.18	258.80
735.51	258.44
735.84	258.03
736.17	257.68
736.50	257.28
736.83	257.04
737.16	256.71
737.49	256.37
737.82	255.99
738.15	255.68
738.48	255.34
738.81	255.00
739.14	254.66
739.47	254.34
739.80	254.05
740.13	253.72
740.46	253.41
740.79	253.11
741.12	252.79
741.45	252.45
741.78	252.09
742.11	251.77
742.44	251.46
742.77	251.19
743.10	250.88
743.43	250.58
743.75	250.20
744.08	250.03
744.41	249.76
744.74	249.52
745.07	249.20
745.40	248.97
745.73	248.70
746.06	248.44
746.39	248.21
746.71	247.93
747.04	247.68
747.37	247.42
747.70	247.18
748.03	246.93
748.36	246.74
748.68	246.47
749.01	246.23
749.34	246.01
749.67	245.76
750.00	245.50
750.33	245.34
750.65	245.09
750.98	244.73
751.31	244.48
751.64	244.23
751.97	244.10
752.29	243.84
752.62	243.60
752.95	243.38
753.28	243.15
753.60	242.96
753.93	242.75
754.26	242.54
754.59	242.31
754.91	242.09
755.24	241.86
755.57	241.70
755.90	241.52
756.22	241.33
756.55	241.15
756.88	240.96
757.20	240.75
757.53	240.60
757.86	240.46
758.19	240.32
758.51	240.16
758.84	239.94
759.17	239.79
759.49	239.63
759.82	239.50
760.15	239.35
760.47	239.17
760.80	239.00
761.13	238.86
761.45	238.69
761.78	238.55
762.11	238.40
762.43	238.22
762.76	238.12
763.08	237.97
763.41	237.85
763.74	237.73
764.06	237.60
764.39	237.46
764.71	237.31
765.04	237.16
765.37	237.02
765.69	236.88
766.02	236.75
766.34	236.65
766.67	236.51
767.00	236.39
767.32	236.33
767.65	236.28
767.97	236.16
768.30	236.06
768.62	235.96
768.95	235.86
769.27	235.78
769.60	235.68
769.92	235.57
770.25	235.45
770.57	235.34
770.90	235.22
771.22	235.13
771.55	235.04
771.87	234.96
772.20	234.87
772.52	234.87
772.85	234.91
773.17	234.81
773.50	234.75
773.82	234.65
774.15	234.54
774.47	234.42
774.80	234.33
775.12	234.25
775.45	234.17
775.77	234.08
776.09	234.03
776.42	233.93
776.74	233.87
777.07	233.81
777.39	233.77
777.72	233.71
778.04	233.63
778.36	233.53
778.69	233.49
779.01	233.41
779.33	233.27
779.66	233.07
779.98	232.99
780.31	232.90
780.63	232.87
780.95	232.80
781.28	232.70
781.60	232.62
781.92	232.58
782.25	232.50
782.57	232.40
782.89	232.33
783.22	232.23
783.54	232.12
783.86	232.05
784.19	231.94
784.51	231.88
784.83	231.79
785.16	231.74
785.48	231.65
785.80	231.59
786.12	231.52
786.45	231.43
786.77	231.39
787.09	231.32
787.42	231.24
787.74	231.18
788.06	231.14
788.38	231.09
788.71	231.02
789.03	230.98
789.35	230.96
789.67	230.89
789.99	230.86
790.32	230.83
790.64	230.78
790.96	230.85
791.28	230.78
791.61	230.80
791.93	230.73
792.25	230.68
792.57	230.73
792.89	230.68
793.21	230.68
793.54	230.64
793.86	230.58
794.18	230.55
794.50	230.52
794.82	230.50
795.14	230.47
795.47	230.45
795.79	230.41
796.11	230.36
796.43	230.36
796.75	230.31
797.07	230.30
797.39	230.26
797.71	230.14
798.04	230.09
798.36	230.02
798.68	230.01
799.00	230.00
799.32	229.93
799.64	229.93
799.96	229.90
800.28	229.89
800.60	229.88
800.92	229.85
801.24	229.81
801.56	229.78
801.89	229.74
802.21	229.73
802.53	229.70
802.85	229.70
803.17	229.71
803.49	229.74
803.81	229.72
804.13	229.70
804.45	229.67
804.77	229.68
805.09	229.67
805.41	229.66
805.73	229.63
806.05	229.60
806.37	229.56
806.69	229.55
807.01	229.52
807.33	229.51
807.65	229.45
807.97	229.48
808.28	229.47
808.60	229.48
808.92	229.43
809.24	229.47
809.56	229.45
809.88	229.38
810.20	229.32
810.52	229.33
810.84	229.30
811.16	229.27
811.48	229.23
811.80	229.26
812.12	229.22
812.43	229.21
812.75	229.17
813.07	229.13
813.39	229.13
813.71	229.11
814.03	229.05
814.35	229.03
814.67	228.97
814.98	228.92
815.30	228.87
815.62	228.86
815.94	228.78
816.26	228.78
816.58	228.74
816.89	228.73
817.21	228.66
817.53	228.65
817.85	228.65
818.17	228.65
818.48	228.60
818.80	228.63
819.12	228.61
819.44	228.59
819.76	228.55
820.07	228.51
820.39	228.48
820.71	228.50
821.03	228.50
821.34	228.50
821.66	228.53
821.98	228.53
822.30	228.49
822.61	228.52
822.93	228.49
823.25	228.46
823.57	228.43
823.88	228.41
824.20	228.36
824.52	228.34
824.83	228.30
825.15	228.26
825.47	228.23
825.79	228.19
826.10	228.18
826.42	228.14
826.74	228.14
827.05	228.13
827.37	228.09
827.69	228.08
828.00	228.06
828.32	228.02
828.64	227.98
828.95	228.03
829.27	227.98
829.58	227.97
829.90	227.98
830.22	227.93
830.53	227.93
830.85	227.93
831.17	227.89
831.48	227.88
831.80	227.85
832.11	227.86
832.43	227.85
832.75	227.84
833.06	227.93
833.38	227.90
833.69	227.89
834.01	227.91
834.32	227.90
834.64	227.85
834.96	227.83
835.27	227.85
835.59	227.79
835.90	227.77
836.22	227.74
836.53	227.75
836.85	227.76
837.16	227.85
837.48	227.85
837.79	227.89
838.11	227.88
838.42	227.89
838.74	227.87
839.05	227.85
839.37	227.81
839.68	227.76
840.00	227.77
840.31	227.79
840.63	227.75
840.94	227.75
841.26	227.76
841.57	227.75
841.88	227.74
842.20	227.74
842.51	227.78
842.83	227.81
843.14	227.85
843.46	227.86
843.77	227.79
844.08	227.77
844.40	227.76
844.71	227.78
845.03	227.77
845.34	227.79
845.65	227.79
845.97	227.80
846.28	227.82
846.60	227.83
846.91	227.81
847.22	227.84
847.54	227.84
847.85	227.86
848.16	227.88
848.48	227.89
848.79	227.92
849.10	227.92
849.42	227.95
849.73	227.90
850.04	227.89
850.36	227.86
850.67	227.90
850.98	227.90
851.30	227.90
851.61	227.88
851.92	227.83
852.23	227.84
852.55	227.83
852.86	227.82
853.17	227.80
853.49	227.81
853.80	227.81
854.11	227.83
854.42	227.83
854.74	227.82
855.05	227.83
855.36	227.74
855.67	227.71
855.99	227.65
856.30	227.72
856.61	227.71
856.92	227.71
857.23	227.69
857.55	227.63
857.86	227.62
858.17	227.63
858.48	227.59
858.79	227.58
859.11	227.61
859.42	227.59
859.73	227.57
860.04	227.54
860.35	227.48
860.66	227.40
860.98	227.36
861.29	227.34
861.60	227.29
861.91	227.34
862.22	227.35
862.53	227.34
862.84	227.25
863.16	227.27
863.47	227.26
863.78	227.25
864.09	227.24
864.40	227.21
864.71	227.20
865.02	227.25
865.33	227.24
865.64	227.18
865.95	227.17
866.27	227.22
866.58	227.21
866.89	227.24
867.20	227.28
867.51	227.26
867.82	227.23
868.13	227.25
868.44	227.19
868.75	227.15
869.06	227.14
869.37	227.13
869.68	227.07
869.99	227.06
870.30	227.05
870.61	227.06
870.92	227.04
871.23	227.03
871.54	227.03
871.85	227.03
872.16	227.05
872.47	227.03
872.78	226.97
873.09	226.96
873.40	226.98
873.71	226.95
874.02	226.95
874.33	226.94
874.64	226.92
874.95	226.94
875.26	226.92
875.56	226.91
875.87	226.88
876.18	226.89
876.49	227.01
876.80	226.98
877.11	226.96
877.42	226.97
877.73	227.01
878.04	226.99
878.35	227.01
878.66	227.01
878.96	226.98
879.27	227.00
879.58	227.00
879.89	227.00
880.20	227.02
880.51	227.01
880.82	227.03
881.12	227.06
881.43	227.04
881.74	227.06
882.05	227.06
882.36	227.11
882.67	227.13
882.97	227.01
883.28	227.01
883.59	227.04
883.90	227.03
884.21	227.02
884.51	226.98
884.82	226.97
885.13	226.94
885.44	226.96
885.74	226.95
886.05	226.96
886.36	226.95
886.67	226.92
886.98	226.98
887.28	227.01
887.59	227.02
887.90	227.02
888.20	226.99
888.51	227.03
888.82	226.98
889.13	226.98
889.43	227.09
889.74	227.08
890.05	227.09
890.35	227.11
890.66	227.11
890.97	227.10
891.28	227.11
891.58	227.16
891.89	227.16
892.20	227.16
892.50	227.13
892.81	227.12
893.12	227.14
893.42	227.09
893.73	227.08
894.04	227.05
894.34	227.09
894.65	227.15
894.95	227.11
895.26	227.10
895.57	227.15
895.87	227.04
896.18	227.05
896.48	227.06
896.79	227.05
897.10	227.06
897.40	227.10
897.71	227.10
898.01	227.06
898.32	227.11
898.63	227.09
898.93	227.12
899.24	227.09
899.54	227.08
899.85	227.11
900.15	227.11
900.46	227.11
900.76	227.10
901.07	227.07
901.38	227.07
901.68	227.11
901.99	227.04
902.29	227.05
902.60	227.03
902.90	227.00
903.21	227.02
903.51	227.01
903.82	227.02
904.12	227.03
904.43	227.07
904.73	227.01
905.03	227.04
905.34	227.10
905.64	227.12
905.95	227.16
906.25	227.11
906.56	227.07
906.86	227.08
907.17	227.07
907.47	227.08
907.77	227.06
908.08	227.03
908.38	227.04
908.69	227.04
908.99	227.06
909.30	227.06
909.60	227.04
909.90	227.02
910.21	227.00
910.51	226.96
910.81	226.96
911.12	226.95
911.42	226.94
911.73	226.83
912.03	226.83
912.33	226.83
912.64	226.83
912.94	226.84
913.24	226.84
913.55	226.83
913.85	226.85
914.15	226.86
914.46	226.87
914.76	226.87
915.06	226.87
915.37	226.86
915.67	226.91
915.97	226.90
916.27	226.92
916.58	226.93
916.88	226.95
917.18	226.94
917.49	227.05
917.79	227.04
918.09	227.09
918.39	227.15
918.70	227.18
919.00	227.21
919.30	227.28
919.60	227.25
919.91	227.25
920.21	227.27
920.51	227.26
920.81	227.26
921.12	227.31
921.42	227.33
921.72	227.34
922.02	227.32
922.32	227.35
922.63	227.37
922.93	227.40
923.23	227.42
923.53	227.41
923.83	227.37
924.13	227.39
924.44	227.38
924.74	227.39
925.04	227.37
925.34	227.38
925.64	227.34
925.94	227.34
926.24	227.40
926.55	227.35
926.85	227.34
927.15	227.35
927.45	227.34
927.75	227.31
928.05	227.29
928.35	227.26
928.65	227.29
928.95	227.26
929.26	227.22
929.56	227.23
929.86	227.24
930.16	227.22
930.46	227.18
930.76	227.20
931.06	227.12
931.36	227.10
931.66	227.11
931.96	227.10
932.26	227.12
932.56	227.08
932.86	227.09
933.16	227.10
933.46	227.11
933.76	227.07
934.06	227.12
934.36	227.17
934.66	227.17
934.96	227.11
935.26	227.10
935.56	227.08
935.86	227.04
936.16	226.98
936.46	226.96
936.76	226.98
937.06	226.93
937.36	226.88
937.66	226.87
937.96	226.86
938.26	226.83
938.56	226.79
938.86	226.76
939.16	226.77
939.46	226.77
939.76	226.74
940.06	226.74
940.35	226.68
940.65	226.61
940.95	226.60
941.25	226.61
941.55	226.59
941.85	226.60
942.15	226.63
942.45	226.66
942.75	226.68
943.04	226.67
943.34	226.70
943.64	226.75
943.94	226.73
944.24	226.71
944.54	226.74
944.84	226.74
945.13	226.76
945.43	226.75
945.73	226.73
946.03	226.71
946.33	226.70
946.62	226.70
946.92	226.74
947.22	226.78
947.52	226.79
947.82	226.80
948.11	226.77
948.41	226.75
948.71	226.74
949.01	226.73
949.31	226.73
949.60	226.73
949.90	226.76
950.20	226.75
950.50	226.78
950.79	226.74
951.09	226.75
951.39	226.73
951.69	226.70
951.98	226.75
952.28	226.77
952.58	226.76
952.87	226.76
953.17	226.75
953.47	226.73
953.76	226.71
954.06	226.73
954.36	226.71
954.66	226.69
954.95	226.72
955.25	226.74
955.55	226.76
955.84	226.74
956.14	226.76
956.44	226.77
956.73	226.78
957.03	226.81
957.32	226.84
957.62	226.86
957.92	226.91
958.21	226.89
958.51	227.01
958.81	227.03
959.10	227.07
959.40	227.11
959.69	227.15
959.99	227.16
960.29	227.15
960.58	227.17
960.88	227.19
961.17	227.17
961.47	227.20
961.76	227.20
962.06	227.23
962.36	227.20
962.65	227.19
962.95	227.17
963.24	227.18
963.54	227.15
963.83	227.16
964.13	227.15
964.42	227.11
964.72	227.03
965.01	227.03
965.31	226.99
965.60	226.94
965.90	226.97
966.19	226.98
966.49	226.99
966.78	226.99
967.08	226.99
967.37	227.02
967.67	226.97
967.96	226.95
968.26	226.92
968.55	226.93
968.85	226.93
969.14	226.92
969.43	226.92
969.73	226.94
970.02	226.92
970.32	226.91
970.61	226.93
970.91	226.91
971.20	226.88
971.49	226.89
971.79	226.88
972.08	226.79
972.38	226.79
972.67	226.78
972.96	226.78
973.26	226.76
973.55	226.76
973.85	226.75
974.14	226.74
974.43	226.72
974.73	226.69
975.02	226.67
975.31	226.68
975.61	226.67
975.90	226.61
976.19	226.59
976.49	226.59
976.78	226.58
977.07	226.57
977.37	226.59
977.66	226.59
977.95	226.58
978.24	226.59
978.54	226.57
978.83	226.56
979.12	226.55
979.42	226.55
979.71	226.52
980.00	226.52
980.29	226.55
980.59	226.56
980.88	226.58
981.17	226.61
981.46	226.59
981.76	226.57
982.05	226.61
982.34	226.63
982.63	226.64
982.93	226.61
983.22	226.64
983.51	226.61
983.80	226.67
984.09	226.69
984.39	226.73
984.68	226.74
984.97	226.75
985.26	226.76
985.55	226.77
985.85	226.78
986.14	226.79
986.43	226.76
986.72	226.76
987.01	226.73
987.30	226.70
987.59	226.73
987.89	226.73
988.18	226.71
988.47	226.69
988.76	226.70
989.05	226.74
989.34	226.71
989.63	226.75
989.92	226.71
990.22	226.68
990.51	226.65
990.80	226.65
991.09	226.64
991.38	226.66
991.67	226.65
991.96	226.61
992.25	226.63
992.54	226.65
992.83	226.67
993.12	226.67
993.41	226.69
993.70	226.70
993.99	226.72
994.28	226.75
994.58	226.78
994.87	226.75
995.16	226.74
995.45	226.75
995.74	226.73
996.03	226.74
996.32	226.76
996.61	226.77
996.90	226.77
997.19	226.77
997.48	226.76
997.77	226.75
998.06	226.76
998.34	226.73
998.63	226.72
998.92	226.70
999.21	226.74
999.50	226.71
999.79	226.70
1000.08	226.66
1000.37	226.61
1000.66	226.59
1000.95	226.64
1001.24	226.61
1001.53	226.61
1001.82	226.59
1002.11	226.58
1002.40	226.58
1002.68	226.61
1002.97	226.67
1003.26	226.64
1003.55	226.63
1003.84	226.62
1004.13	226.69
1004.42	226.68
1004.71	226.66
1004.99	226.65
1005.28	226.64
1005.57	226.66
1005.86	226.68
1006.15	226.69
1006.44	226.68
1006.72	226.69
1007.01	226.64
1007.30	226.65
1007.59	226.63
1007.88	226.62
1008.17	226.61
1008.45	226.56
1008.74	226.51
1009.03	226.44
1009.32	226.43
1009.60	226.42
1009.89	226.41
1010.18	226.36
1010.47	226.33
1010.76	226.32
1011.04	226.30
1011.33	226.30
1011.62	226.28
1011.91	226.24
1012.19	226.26
1012.48	226.28
1012.77	226.26
1013.05	226.32
1013.34	226.32
1013.63	226.32
1013.92	226.34
1014.20	226.32
1014.49	226.35
1014.78	226.36
1015.06	226.35
1015.35	226.37
1015.64	226.39
1015.92	226.41
1016.21	226.39
1016.50	226.43
1016.78	226.45
1017.07	226.52
1017.36	226.48
1017.64	226.50
1017.93	226.51
1018.22	226.47
1018.50	226.48
1018.79	226.46
1019.08	226.41
1019.36	226.41
1019.65	226.39
1019.93	226.41
1020.22	226.44
1020.51	226.50
1020.79	226.48
1021.08	225.93
1021.36	226.63
1021.65	225.79
1021.94	226.37
1022.22	226.46
1022.51	225.87
1022.79	226.80
1023.08	226.81
1023.36	227.67
1023.65	226.21
>>>>>End Processed Spectral Data<<<<<
