SpectraSuite Data File
++++++++++++++++++++++++++++++++++++
Date: Fri Feb 01 15:54:02 EST 2013
User: group
Dark Spectrum Present: No
Reference Spectrum Present: No
Number of Sampled Component Spectra: 1
Spectrometers: USB2E7196
Integration Time (usec): 35000 (USB2E7196)
Spectra Averaged: 100 (USB2E7196)
Boxcar Smoothing: 10 (USB2E7196)
Correct for Electrical Dark: No (USB2E7196)
Strobe/Lamp Enabled: No (USB2E7196)
Correct for Detector Non-linearity: No (USB2E7196)
Correct for Stray Light: No (USB2E7196)
Number of Pixels in Processed Spectrum: 2048
>>>>>Begin Processed Spectral Data<<<<<
339.09	0.00
339.48	214.14
339.86	216.44
340.24	218.09
340.63	218.63
341.01	221.73
341.39	221.64
341.78	222.74
342.16	223.97
342.54	225.36
342.93	213.09
343.31	223.85
343.69	224.41
344.07	224.86
344.46	225.27
344.84	225.68
345.22	225.93
345.60	226.17
345.99	226.39
346.37	226.55
346.75	226.64
347.13	226.71
347.52	226.79
347.90	226.88
348.28	226.90
348.66	226.94
349.05	226.91
349.43	226.95
349.81	227.01
350.19	227.08
350.57	227.12
350.96	227.22
351.34	227.31
351.72	227.42
352.10	227.52
352.48	227.59
352.87	227.64
353.25	227.71
353.63	227.79
354.01	227.86
354.39	227.92
354.77	227.99
355.15	228.09
355.54	228.15
355.92	228.20
356.30	228.30
356.68	228.42
357.06	228.48
357.44	228.56
357.82	228.60
358.20	228.67
358.58	228.76
358.97	228.79
359.35	228.84
359.73	228.90
360.11	228.98
360.49	229.03
360.87	229.04
361.25	229.09
361.63	229.13
362.01	229.17
362.39	229.18
362.77	229.24
363.15	229.26
363.53	229.27
363.91	229.27
364.29	229.23
364.67	229.18
365.05	229.22
365.43	229.21
365.81	229.24
366.19	229.26
366.57	229.28
366.95	229.25
367.33	229.24
367.71	229.23
368.09	229.21
368.47	229.17
368.85	229.15
369.23	229.11
369.61	229.10
369.99	229.07
370.37	229.06
370.75	228.99
371.13	228.94
371.51	228.86
371.89	228.84
372.27	228.80
372.65	228.73
373.03	228.66
373.41	228.60
373.78	228.51
374.16	228.42
374.54	228.33
374.92	228.27
375.30	228.18
375.68	228.11
376.06	228.02
376.44	227.94
376.82	227.87
377.19	227.81
377.57	227.70
377.95	227.60
378.33	227.47
378.71	227.40
379.09	227.32
379.47	227.29
379.84	227.20
380.22	227.12
380.60	227.01
380.98	226.92
381.36	226.86
381.73	226.78
382.11	226.75
382.49	226.67
382.87	226.59
383.25	226.54
383.62	226.60
384.00	226.56
384.38	226.50
384.76	226.48
385.13	226.46
385.51	226.40
385.89	226.35
386.27	226.35
386.64	226.32
387.02	226.28
387.40	226.22
387.78	226.15
388.15	226.14
388.53	226.12
388.91	226.11
389.29	226.09
389.66	226.07
390.04	226.02
390.42	226.04
390.79	226.06
391.17	226.05
391.55	225.90
391.92	225.87
392.30	225.91
392.68	225.89
393.05	225.87
393.43	225.94
393.81	225.98
394.18	225.98
394.56	225.97
394.94	226.02
395.31	226.08
395.69	226.18
396.06	226.25
396.44	226.29
396.82	226.36
397.19	226.48
397.57	226.52
397.95	226.61
398.32	226.62
398.70	226.68
399.07	226.79
399.45	226.86
399.82	226.96
400.20	227.02
400.58	227.14
400.95	227.18
401.33	227.24
401.70	227.40
402.08	227.51
402.45	227.63
402.83	227.74
403.20	227.85
403.58	227.93
403.95	228.04
404.33	228.20
404.71	228.32
405.08	228.47
405.46	228.64
405.83	228.80
406.21	228.95
406.58	229.14
406.96	229.27
407.33	229.44
407.70	229.61
408.08	229.93
408.45	230.12
408.83	230.39
409.20	230.61
409.58	230.79
409.95	231.08
410.33	231.35
410.70	231.58
411.08	231.89
411.45	232.21
411.82	232.48
412.20	232.84
412.57	233.25
412.95	233.50
413.32	233.91
413.69	234.32
414.07	234.71
414.44	235.14
414.82	235.59
415.19	236.14
415.56	236.68
415.94	237.15
416.31	237.78
416.68	238.36
417.06	239.08
417.43	239.73
417.81	240.44
418.18	241.19
418.55	242.03
418.93	242.87
419.30	243.75
419.67	244.71
420.04	245.65
420.42	246.63
420.79	247.83
421.16	248.94
421.54	250.13
421.91	251.37
422.28	252.62
422.66	253.99
423.03	255.27
423.40	256.62
423.77	258.03
424.15	259.44
424.52	260.92
424.89	262.50
425.26	264.02
425.64	265.46
426.01	267.05
426.38	268.69
426.75	270.35
427.13	272.04
427.50	273.86
427.87	275.77
428.24	277.60
428.61	279.32
428.99	281.29
429.36	283.37
429.73	285.48
430.10	287.51
430.47	289.59
430.85	291.74
431.22	293.97
431.59	296.36
431.96	298.61
432.33	301.16
432.70	303.54
433.08	306.36
433.45	309.01
433.82	311.63
434.19	314.48
434.56	317.28
434.93	319.97
435.30	322.57
435.68	325.43
436.05	328.26
436.42	331.09
436.79	333.56
437.16	336.25
437.53	339.05
437.90	341.86
438.27	344.63
438.64	347.41
439.01	349.95
439.38	352.16
439.75	354.31
440.13	356.76
440.50	359.08
440.87	360.96
441.24	362.89
441.61	365.06
441.98	366.60
442.35	368.40
442.72	370.25
443.09	372.06
443.46	373.04
443.83	373.66
444.20	374.15
444.57	375.01
444.94	375.30
445.31	375.66
445.68	376.01
446.05	376.04
446.42	375.67
446.79	375.33
447.16	374.89
447.53	374.61
447.90	373.44
448.27	372.29
448.64	370.67
449.01	369.55
449.37	367.58
449.74	365.70
450.11	363.49
450.48	361.01
450.85	358.48
451.22	356.37
451.59	354.35
451.96	352.41
452.33	349.83
452.70	347.46
453.07	344.61
453.43	341.72
453.80	338.96
454.17	336.30
454.54	333.72
454.91	331.02
455.28	328.35
455.65	325.91
456.02	323.46
456.38	321.37
456.75	318.70
457.12	316.47
457.49	314.25
457.86	312.09
458.23	310.21
458.59	308.18
458.96	306.05
459.33	304.20
459.70	302.36
460.07	300.84
460.43	299.10
460.80	297.48
461.17	296.00
461.54	294.51
461.91	293.08
462.27	291.65
462.64	290.41
463.01	289.05
463.38	287.70
463.74	286.32
464.11	285.12
464.48	284.10
464.85	282.97
465.21	282.06
465.58	281.11
465.95	280.03
466.32	279.07
466.68	278.21
467.05	277.30
467.42	276.37
467.78	275.43
468.15	274.58
468.52	273.92
468.88	273.05
469.25	272.25
469.62	271.65
469.98	270.95
470.35	270.31
470.72	269.68
471.08	269.00
471.45	268.47
471.82	267.92
472.18	267.31
472.55	266.86
472.92	266.34
473.28	265.88
473.65	265.46
474.02	265.06
474.38	264.67
474.75	264.35
475.11	264.02
475.48	263.73
475.85	263.51
476.21	263.24
476.58	263.08
476.94	262.96
477.31	262.76
477.67	262.62
478.04	262.47
478.41	262.41
478.77	262.48
479.14	262.44
479.50	262.47
479.87	262.56
480.23	262.66
480.60	262.73
480.96	262.85
481.33	263.04
481.69	263.24
482.06	263.51
482.42	263.73
482.79	264.03
483.15	264.43
483.52	264.83
483.88	265.25
484.25	265.62
484.61	266.05
484.98	266.57
485.34	267.16
485.71	267.84
486.07	268.50
486.44	269.10
486.80	269.78
487.17	270.54
487.53	271.33
487.90	272.22
488.26	273.19
488.62	274.18
488.99	275.18
489.35	276.25
489.72	277.33
490.08	278.58
490.44	279.82
490.81	281.12
491.17	282.46
491.54	283.92
491.90	285.46
492.26	287.13
492.63	288.81
492.99	290.55
493.36	292.43
493.72	294.48
494.08	296.58
494.45	298.84
494.81	301.18
495.17	303.63
495.54	306.13
495.90	308.79
496.26	311.59
496.63	314.56
496.99	317.64
497.35	320.91
497.72	324.23
498.08	327.74
498.44	331.43
498.80	335.35
499.17	339.39
499.53	343.55
499.89	347.95
500.26	352.46
500.62	357.14
500.98	362.10
501.34	367.13
501.71	372.44
502.07	377.84
502.43	383.43
502.79	389.26
503.16	395.37
503.52	401.69
503.88	408.07
504.24	414.70
504.60	421.53
504.97	428.61
505.33	435.96
505.69	443.63
506.05	451.38
506.41	459.27
506.78	467.44
507.14	475.91
507.50	484.56
507.86	493.54
508.22	502.68
508.59	511.83
508.95	521.41
509.31	531.23
509.67	541.37
510.03	551.68
510.39	562.19
510.75	572.98
511.12	583.83
511.48	595.12
511.84	606.55
512.20	618.11
512.56	630.07
512.92	642.27
513.28	654.58
513.64	667.03
514.00	679.69
514.37	692.59
514.73	705.60
515.09	718.60
515.45	731.89
515.81	745.47
516.17	759.50
516.53	773.64
516.89	787.80
517.25	801.98
517.61	816.42
517.97	830.89
518.33	845.32
518.69	860.13
519.05	875.15
519.41	890.33
519.77	905.89
520.13	921.32
520.49	936.65
520.85	952.15
521.21	967.90
521.57	984.20
521.93	999.92
522.29	1016.33
522.65	1032.60
523.01	1048.86
523.37	1064.85
523.73	1080.95
524.09	1096.99
524.45	1113.37
524.81	1130.01
525.17	1146.80
525.53	1163.71
525.89	1180.58
526.25	1197.41
526.61	1213.76
526.97	1230.46
527.33	1246.84
527.68	1263.43
528.04	1279.86
528.40	1296.32
528.76	1313.28
529.12	1329.79
529.48	1346.64
529.84	1362.65
530.20	1379.26
530.56	1396.11
530.91	1413.54
531.27	1430.30
531.63	1446.71
531.99	1463.24
532.35	1479.15
532.71	1495.05
533.07	1511.28
533.42	1527.08
533.78	1543.17
534.14	1559.46
534.50	1574.80
534.86	1590.69
535.21	1605.87
535.57	1621.86
535.93	1637.50
536.29	1652.37
536.65	1667.40
537.00	1682.19
537.36	1697.53
537.72	1712.11
538.08	1726.66
538.44	1740.40
538.79	1754.23
539.15	1767.91
539.51	1781.59
539.87	1795.96
540.22	1809.67
540.58	1823.42
540.94	1836.72
541.29	1849.60
541.65	1862.22
542.01	1875.40
542.37	1887.84
542.72	1900.34
543.08	1912.00
543.44	1924.36
543.79	1935.57
544.15	1946.58
544.51	1958.15
544.87	1969.06
545.22	1979.70
545.58	1989.92
545.94	1999.82
546.29	2009.74
546.65	2019.61
547.01	2028.84
547.36	2037.52
547.72	2045.95
548.07	2053.82
548.43	2062.13
548.79	2070.05
549.14	2077.56
549.50	2084.84
549.86	2092.37
550.21	2099.70
550.57	2106.89
550.92	2113.30
551.28	2120.13
551.64	2127.18
551.99	2133.91
552.35	2140.06
552.70	2146.35
553.06	2152.31
553.41	2158.50
553.77	2164.52
554.13	2170.56
554.48	2176.72
554.84	2182.08
555.19	2187.33
555.55	2192.37
555.90	2196.66
556.26	2201.61
556.61	2206.35
556.97	2210.72
557.32	2214.87
557.68	2218.92
558.03	2223.28
558.39	2227.01
558.74	2231.86
559.10	2235.69
559.45	2239.12
559.81	2243.51
560.16	2247.36
560.52	2250.47
560.87	2253.87
561.23	2256.50
561.58	2259.42
561.94	2261.85
562.29	2264.27
562.64	2266.96
563.00	2269.63
563.35	2273.35
563.71	2276.49
564.06	2279.75
564.42	2282.63
564.77	2285.13
565.12	2287.33
565.48	2289.12
565.83	2291.04
566.19	2292.35
566.54	2293.32
566.89	2294.34
567.25	2294.77
567.60	2296.04
567.96	2297.89
568.31	2298.83
568.66	2299.88
569.02	2300.49
569.37	2300.87
569.72	2301.73
570.08	2301.88
570.43	2301.92
570.78	2301.22
571.14	2299.45
571.49	2298.01
571.84	2297.67
572.20	2296.44
572.55	2295.40
572.90	2293.93
573.26	2292.50
573.61	2290.80
573.96	2288.94
574.31	2286.17
574.67	2283.21
575.02	2279.50
575.37	2276.07
575.72	2272.23
576.08	2268.96
576.43	2265.73
576.78	2261.93
577.13	2258.86
577.49	2255.80
577.84	2252.30
578.19	2248.70
578.54	2245.17
578.90	2240.99
579.25	2235.52
579.60	2230.65
579.95	2225.72
580.30	2220.65
580.66	2215.59
581.01	2210.64
581.36	2205.75
581.71	2201.49
582.06	2197.10
582.42	2192.57
582.77	2187.38
583.12	2182.89
583.47	2178.12
583.82	2172.99
584.17	2167.86
584.53	2162.40
584.88	2156.72
585.23	2150.98
585.58	2145.39
585.93	2140.06
586.28	2135.28
586.63	2130.07
586.98	2125.07
587.34	2120.30
587.69	2115.41
588.04	2110.13
588.39	2104.40
588.74	2098.08
589.09	2091.91
589.44	2085.06
589.79	2079.22
590.14	2073.56
590.49	2066.98
590.84	2060.63
591.19	2054.60
591.54	2048.14
591.89	2040.61
592.25	2033.83
592.60	2026.58
592.95	2018.98
593.30	2011.66
593.65	2004.08
594.00	1997.11
594.35	1989.84
594.70	1981.79
595.05	1974.63
595.40	1967.24
595.75	1959.63
596.10	1953.37
596.45	1946.66
596.80	1940.51
597.15	1933.80
597.50	1926.70
597.85	1920.20
598.19	1913.49
598.54	1906.43
598.89	1899.81
599.24	1893.97
599.59	1887.26
599.94	1880.99
600.29	1874.58
600.64	1867.91
600.99	1860.48
601.34	1853.54
601.69	1846.64
602.04	1839.80
602.39	1832.34
602.74	1825.49
603.08	1818.78
603.43	1812.00
603.78	1804.62
604.13	1797.40
604.48	1790.06
604.83	1783.10
605.18	1776.08
605.53	1767.99
605.87	1759.93
606.22	1752.69
606.57	1744.74
606.92	1737.47
607.27	1730.27
607.62	1723.37
607.96	1716.11
608.31	1709.51
608.66	1701.97
609.01	1694.33
609.36	1686.78
609.70	1678.88
610.05	1670.82
610.40	1663.14
610.75	1654.80
611.10	1647.11
611.44	1638.78
611.79	1630.85
612.14	1622.15
612.49	1612.90
612.83	1604.67
613.18	1596.63
613.53	1588.41
613.88	1579.79
614.22	1571.39
614.57	1562.90
614.92	1554.93
615.27	1547.42
615.61	1539.09
615.96	1531.06
616.31	1523.38
616.65	1515.95
617.00	1508.42
617.35	1500.86
617.70	1492.56
618.04	1484.00
618.39	1475.86
618.74	1468.24
619.08	1459.90
619.43	1452.35
619.78	1445.60
620.12	1438.42
620.47	1430.86
620.82	1422.82
621.16	1415.56
621.51	1407.98
621.85	1400.48
622.20	1391.88
622.55	1383.44
622.89	1375.52
623.24	1367.95
623.59	1360.54
623.93	1352.92
624.28	1345.69
624.62	1338.17
624.97	1331.00
625.32	1324.37
625.66	1317.36
626.01	1310.20
626.35	1302.71
626.70	1295.05
627.04	1287.37
627.39	1279.61
627.73	1272.23
628.08	1265.34
628.43	1257.96
628.77	1250.65
629.12	1242.98
629.46	1235.84
629.81	1228.44
630.15	1221.23
630.50	1213.79
630.84	1205.68
631.19	1197.88
631.53	1190.34
631.88	1182.75
632.22	1175.18
632.57	1167.85
632.91	1160.24
633.26	1152.79
633.60	1145.55
633.95	1138.38
634.29	1131.34
634.64	1124.66
634.98	1117.28
635.32	1110.13
635.67	1103.60
636.01	1096.92
636.36	1090.00
636.70	1083.53
637.05	1077.05
637.39	1070.59
637.73	1064.09
638.08	1058.15
638.42	1052.10
638.77	1045.67
639.11	1039.04
639.45	1032.61
639.80	1025.92
640.14	1019.52
640.49	1012.98
640.83	1006.64
641.17	1000.38
641.52	993.93
641.86	987.43
642.20	981.62
642.55	975.24
642.89	968.61
643.23	962.07
643.58	956.35
643.92	950.12
644.26	943.91
644.61	937.82
644.95	931.75
645.29	925.17
645.64	918.47
645.98	912.15
646.32	906.29
646.66	900.32
647.01	894.51
647.35	888.82
647.69	883.05
648.04	877.49
648.38	871.74
648.72	865.75
649.06	859.70
649.41	853.83
649.75	847.81
650.09	841.88
650.43	836.10
650.78	829.96
651.12	823.99
651.46	818.22
651.80	812.49
652.14	807.12
652.49	801.77
652.83	796.62
653.17	790.90
653.51	785.16
653.85	779.72
654.20	774.03
654.54	768.03
654.88	762.26
655.22	756.31
655.56	750.64
655.90	745.23
656.25	740.01
656.59	734.54
656.93	729.56
657.27	724.47
657.61	719.13
657.95	714.08
658.29	708.95
658.64	703.75
658.98	698.45
659.32	692.97
659.66	687.75
660.00	682.38
660.34	677.45
660.68	672.63
661.02	667.57
661.36	662.91
661.70	658.41
662.05	654.05
662.39	649.78
662.73	645.32
663.07	640.96
663.41	636.49
663.75	632.08
664.09	627.53
664.43	623.15
664.77	618.99
665.11	614.69
665.45	610.67
665.79	606.60
666.13	602.49
666.47	598.42
666.81	594.25
667.15	590.13
667.49	586.26
667.83	582.40
668.17	578.45
668.51	574.34
668.85	570.30
669.19	566.40
669.53	562.58
669.87	558.72
670.21	555.00
670.55	551.42
670.89	547.96
671.23	544.45
671.57	540.89
671.91	537.35
672.25	533.85
672.58	530.33
672.92	527.01
673.26	523.82
673.60	520.66
673.94	517.57
674.28	514.71
674.62	511.74
674.96	508.64
675.30	505.74
675.64	502.82
675.97	500.07
676.31	497.20
676.65	494.27
676.99	491.56
677.33	488.72
677.67	485.86
678.01	482.79
678.34	479.86
678.68	477.03
679.02	474.24
679.36	471.47
679.70	468.70
680.04	465.88
680.37	463.01
680.71	460.21
681.05	457.61
681.39	454.88
681.73	452.20
682.06	449.67
682.40	447.14
682.74	444.58
683.08	442.01
683.42	439.45
683.75	436.94
684.09	434.36
684.43	431.90
684.77	429.45
685.10	427.12
685.44	424.76
685.78	422.48
686.12	420.18
686.45	417.89
686.79	415.60
687.13	413.41
687.46	411.29
687.80	409.11
688.14	406.92
688.48	404.90
688.81	402.67
689.15	400.50
689.49	398.39
689.82	396.34
690.16	394.24
690.50	392.24
690.83	390.31
691.17	388.33
691.51	386.41
691.84	384.56
692.18	382.63
692.52	380.71
692.85	378.79
693.19	376.91
693.52	375.09
693.86	373.26
694.20	371.48
694.53	369.66
694.87	367.83
695.21	366.06
695.54	364.19
695.88	362.50
696.21	360.82
696.55	359.08
696.88	357.41
697.22	355.81
697.56	354.20
697.89	352.52
698.23	350.86
698.56	349.27
698.90	347.66
699.23	346.02
699.57	344.47
699.90	342.89
700.24	341.37
700.58	339.81
700.91	338.32
701.25	336.85
701.58	335.49
701.92	334.17
702.25	332.70
702.59	331.35
702.92	330.03
703.26	328.71
703.59	327.47
703.93	326.27
704.26	325.02
704.60	323.70
704.93	322.43
705.26	321.24
705.60	320.04
705.93	318.91
706.27	317.88
706.60	316.79
706.94	315.74
707.27	314.65
707.61	313.59
707.94	312.57
708.27	311.48
708.61	310.42
708.94	309.38
709.28	308.46
709.61	307.51
709.94	306.56
710.28	305.52
710.61	304.50
710.95	303.43
711.28	302.51
711.61	301.60
711.95	300.72
712.28	299.79
712.61	298.85
712.95	297.92
713.28	297.09
713.61	296.21
713.95	295.31
714.28	294.42
714.61	293.60
714.95	292.75
715.28	291.90
715.61	291.00
715.95	290.18
716.28	289.32
716.61	288.50
716.95	287.66
717.28	286.95
717.61	286.23
717.94	285.49
718.28	284.71
718.61	284.00
718.94	283.29
719.27	282.62
719.61	281.96
719.94	281.27
720.27	280.51
720.60	279.83
720.94	279.21
721.27	278.65
721.60	278.06
721.93	277.43
722.27	276.88
722.60	276.34
722.93	275.71
723.26	275.13
723.59	274.53
723.93	274.00
724.26	273.44
724.59	272.89
724.92	272.39
725.25	271.89
725.59	271.33
725.92	270.83
726.25	270.30
726.58	269.79
726.91	269.32
727.24	268.88
727.57	268.39
727.91	267.89
728.24	267.39
728.57	266.91
728.90	266.50
729.23	266.02
729.56	265.58
729.89	265.13
730.22	264.64
730.55	264.16
730.89	263.69
731.22	263.24
731.55	262.78
731.88	262.34
732.21	261.86
732.54	261.42
732.87	260.95
733.20	260.55
733.53	260.14
733.86	259.75
734.19	259.34
734.52	258.97
734.85	258.67
735.18	258.22
735.51	257.86
735.84	257.41
736.17	257.05
736.50	256.66
736.83	256.45
737.16	256.16
737.49	255.81
737.82	255.46
738.15	255.14
738.48	254.79
738.81	254.44
739.14	254.14
739.47	253.81
739.80	253.55
740.13	253.23
740.46	252.89
740.79	252.55
741.12	252.19
741.45	251.88
741.78	251.48
742.11	251.23
742.44	250.89
742.77	250.64
743.10	250.32
743.43	250.02
743.75	249.62
744.08	249.43
744.41	249.14
744.74	248.88
745.07	248.62
745.40	248.39
745.73	248.18
746.06	247.92
746.39	247.70
746.71	247.41
747.04	247.14
747.37	246.90
747.70	246.68
748.03	246.48
748.36	246.23
748.68	246.00
749.01	245.76
749.34	245.56
749.67	245.36
750.00	245.17
750.33	245.03
750.65	244.84
750.98	244.53
751.31	244.33
751.64	244.11
751.97	243.93
752.29	243.70
752.62	243.47
752.95	243.30
753.28	243.12
753.60	242.91
753.93	242.73
754.26	242.58
754.59	242.37
754.91	242.15
755.24	242.01
755.57	241.84
755.90	241.65
756.22	241.44
756.55	241.25
756.88	241.06
757.20	240.85
757.53	240.66
757.86	240.50
758.19	240.36
758.51	240.22
758.84	239.98
759.17	239.81
759.49	239.65
759.82	239.49
760.15	239.33
760.47	239.21
760.80	239.07
761.13	238.93
761.45	238.79
761.78	238.70
762.11	238.55
762.43	238.42
762.76	238.30
763.08	238.21
763.41	238.08
763.74	237.98
764.06	237.82
764.39	237.66
764.71	237.50
765.04	237.39
765.37	237.29
765.69	237.16
766.02	237.03
766.34	236.88
766.67	236.75
767.00	236.66
767.32	236.58
767.65	236.50
767.97	236.38
768.30	236.29
768.62	236.12
768.95	236.00
769.27	235.93
769.60	235.85
769.92	235.71
770.25	235.59
770.57	235.45
770.90	235.36
771.22	235.27
771.55	235.19
771.87	235.07
772.20	234.93
772.52	234.97
772.85	235.02
773.17	234.93
773.50	234.81
773.82	234.69
774.15	234.56
774.47	234.44
774.80	234.32
775.12	234.21
775.45	234.14
775.77	234.06
776.09	233.97
776.42	233.90
776.74	233.84
777.07	233.74
777.39	233.68
777.72	233.59
778.04	233.51
778.36	233.43
778.69	233.37
779.01	233.31
779.33	233.11
779.66	232.91
779.98	232.83
780.31	232.76
780.63	232.72
780.95	232.68
781.28	232.58
781.60	232.54
781.92	232.47
782.25	232.40
782.57	232.34
782.89	232.21
783.22	232.13
783.54	232.05
783.86	231.97
784.19	231.91
784.51	231.90
784.83	231.86
785.16	231.79
785.48	231.70
785.80	231.68
786.12	231.66
786.45	231.61
786.77	231.56
787.09	231.50
787.42	231.46
787.74	231.38
788.06	231.34
788.38	231.25
788.71	231.23
789.03	231.16
789.35	231.12
789.67	231.13
789.99	231.05
790.32	231.01
790.64	231.02
790.96	231.05
791.28	230.99
791.61	230.94
791.93	230.91
792.25	230.89
792.57	230.91
792.89	230.86
793.21	230.83
793.54	230.78
793.86	230.75
794.18	230.71
794.50	230.67
794.82	230.62
795.14	230.62
795.47	230.58
795.79	230.58
796.11	230.52
796.43	230.48
796.75	230.44
797.07	230.37
797.39	230.32
797.71	230.21
798.04	230.17
798.36	230.15
798.68	230.13
799.00	230.14
799.32	230.02
799.64	230.00
799.96	229.97
800.28	229.97
800.60	229.93
800.92	229.89
801.24	229.85
801.56	229.86
801.89	229.79
802.21	229.79
802.53	229.74
802.85	229.75
803.17	229.74
803.49	229.70
803.81	229.71
804.13	229.68
804.45	229.64
804.77	229.61
805.09	229.58
805.41	229.55
805.73	229.45
806.05	229.42
806.37	229.40
806.69	229.37
807.01	229.34
807.33	229.34
807.65	229.27
807.97	229.33
808.28	229.25
808.60	229.24
808.92	229.19
809.24	229.24
809.56	229.17
809.88	229.13
810.20	229.12
810.52	229.09
810.84	229.05
811.16	229.01
811.48	229.00
811.80	229.02
812.12	228.98
812.43	229.02
812.75	229.02
813.07	228.97
813.39	228.93
813.71	228.91
814.03	228.89
814.35	228.88
814.67	228.79
814.98	228.78
815.30	228.75
815.62	228.73
815.94	228.65
816.26	228.67
816.58	228.62
816.89	228.58
817.21	228.56
817.53	228.54
817.85	228.53
818.17	228.51
818.48	228.43
818.80	228.42
819.12	228.39
819.44	228.35
819.76	228.30
820.07	228.28
820.39	228.27
820.71	228.23
821.03	228.18
821.34	228.14
821.66	228.14
821.98	228.13
822.30	228.08
822.61	228.09
822.93	228.08
823.25	228.07
823.57	228.07
823.88	228.05
824.20	228.03
824.52	228.05
824.83	228.00
825.15	227.96
825.47	227.96
825.79	227.95
826.10	227.93
826.42	227.96
826.74	227.96
827.05	227.96
827.37	227.96
827.69	227.96
828.00	227.96
828.32	227.94
828.64	227.92
828.95	227.95
829.27	227.93
829.58	227.88
829.90	227.86
830.22	227.82
830.53	227.80
830.85	227.80
831.17	227.74
831.48	227.75
831.80	227.76
832.11	227.75
832.43	227.70
832.75	227.67
833.06	227.72
833.38	227.70
833.69	227.66
834.01	227.66
834.32	227.62
834.64	227.62
834.96	227.60
835.27	227.60
835.59	227.59
835.90	227.56
836.22	227.54
836.53	227.54
836.85	227.57
837.16	227.69
837.48	227.69
837.79	227.72
838.11	227.70
838.42	227.68
838.74	227.68
839.05	227.68
839.37	227.68
839.68	227.60
840.00	227.58
840.31	227.60
840.63	227.60
840.94	227.62
841.26	227.63
841.57	227.61
841.88	227.61
842.20	227.57
842.51	227.55
842.83	227.58
843.14	227.64
843.46	227.60
843.77	227.50
844.08	227.46
844.40	227.41
844.71	227.39
845.03	227.37
845.34	227.35
845.65	227.34
845.97	227.33
846.28	227.33
846.60	227.31
846.91	227.27
847.22	227.27
847.54	227.28
847.85	227.27
848.16	227.26
848.48	227.25
848.79	227.26
849.10	227.27
849.42	227.26
849.73	227.17
850.04	227.17
850.36	227.12
850.67	227.13
850.98	227.16
851.30	227.16
851.61	227.19
851.92	227.18
852.23	227.24
852.55	227.26
852.86	227.25
853.17	227.26
853.49	227.28
853.80	227.29
854.11	227.28
854.42	227.28
854.74	227.26
855.05	227.27
855.36	227.24
855.67	227.26
855.99	227.24
856.30	227.37
856.61	227.40
856.92	227.38
857.23	227.40
857.55	227.37
857.86	227.36
858.17	227.36
858.48	227.33
858.79	227.27
859.11	227.28
859.42	227.26
859.73	227.27
860.04	227.25
860.35	227.22
860.66	227.20
860.98	227.22
861.29	227.24
861.60	227.22
861.91	227.25
862.22	227.21
862.53	227.21
862.84	227.10
863.16	227.09
863.47	227.13
863.78	227.12
864.09	227.14
864.40	227.13
864.71	227.11
865.02	227.14
865.33	227.14
865.64	227.12
865.95	227.15
866.27	227.19
866.58	227.19
866.89	227.18
867.20	227.17
867.51	227.13
867.82	227.16
868.13	227.21
868.44	227.18
868.75	227.21
869.06	227.19
869.37	227.19
869.68	227.17
869.99	227.16
870.30	227.18
870.61	227.20
870.92	227.20
871.23	227.19
871.54	227.19
871.85	227.20
872.16	227.24
872.47	227.21
872.78	227.16
873.09	227.16
873.40	227.18
873.71	227.19
874.02	227.18
874.33	227.16
874.64	227.10
874.95	227.11
875.26	227.09
875.56	227.13
875.87	227.11
876.18	227.12
876.49	227.21
876.80	227.19
877.11	227.15
877.42	227.16
877.73	227.19
878.04	227.20
878.35	227.22
878.66	227.21
878.96	227.19
879.27	227.17
879.58	227.20
879.89	227.21
880.20	227.24
880.51	227.24
880.82	227.22
881.12	227.25
881.43	227.21
881.74	227.20
882.05	227.20
882.36	227.23
882.67	227.23
882.97	227.13
883.28	227.14
883.59	227.14
883.90	227.15
884.21	227.16
884.51	227.16
884.82	227.13
885.13	227.14
885.44	227.17
885.74	227.18
886.05	227.15
886.36	227.14
886.67	227.11
886.98	227.16
887.28	227.18
887.59	227.15
887.90	227.16
888.20	227.16
888.51	227.13
888.82	227.07
889.13	227.07
889.43	227.14
889.74	227.12
890.05	227.12
890.35	227.09
890.66	227.07
890.97	227.04
891.28	227.03
891.58	227.00
891.89	226.95
892.20	226.93
892.50	226.93
892.81	226.93
893.12	226.93
893.42	226.87
893.73	226.86
894.04	226.88
894.34	226.91
894.65	226.90
894.95	226.90
895.26	226.94
895.57	226.97
895.87	226.88
896.18	226.91
896.48	226.92
896.79	226.94
897.10	226.94
897.40	226.92
897.71	226.93
898.01	226.93
898.32	226.94
898.63	226.96
898.93	226.96
899.24	226.94
899.54	226.92
899.85	226.95
900.15	226.95
900.46	226.96
900.76	226.97
901.07	226.99
901.38	227.01
901.68	227.02
901.99	227.00
902.29	227.03
902.60	227.02
902.90	226.99
903.21	226.99
903.51	226.98
903.82	227.04
904.12	227.04
904.43	227.05
904.73	227.07
905.03	227.09
905.34	227.20
905.64	227.20
905.95	227.20
906.25	227.17
906.56	227.17
906.86	227.17
907.17	227.17
907.47	227.16
907.77	227.13
908.08	227.11
908.38	227.09
908.69	227.09
908.99	227.12
909.30	227.13
909.60	227.13
909.90	227.13
910.21	227.08
910.51	227.07
910.81	227.05
911.12	227.07
911.42	227.06
911.73	226.94
912.03	226.94
912.33	226.96
912.64	226.98
912.94	226.97
913.24	226.94
913.55	226.92
913.85	226.92
914.15	226.96
914.46	226.95
914.76	226.96
915.06	226.97
915.37	226.93
915.67	226.94
915.97	226.92
916.27	226.93
916.58	226.92
916.88	226.93
917.18	226.93
917.49	226.98
917.79	226.94
918.09	226.95
918.39	226.98
918.70	227.00
919.00	226.95
919.30	226.96
919.60	226.98
919.91	226.95
920.21	226.98
920.51	226.92
920.81	226.91
921.12	226.90
921.42	226.87
921.72	226.87
922.02	226.88
922.32	226.89
922.63	226.85
922.93	226.90
923.23	226.89
923.53	226.91
923.83	226.83
924.13	226.88
924.44	226.88
924.74	226.87
925.04	226.88
925.34	226.89
925.64	226.89
925.94	226.88
926.24	226.94
926.55	226.88
926.85	226.91
927.15	226.92
927.45	226.98
927.75	226.98
928.05	226.97
928.35	226.97
928.65	226.97
928.95	226.99
929.26	226.95
929.56	226.96
929.86	226.97
930.16	226.96
930.46	226.95
930.76	226.91
931.06	226.84
931.36	226.83
931.66	226.86
931.96	226.87
932.26	226.86
932.56	226.81
932.86	226.84
933.16	226.84
933.46	226.81
933.76	226.76
934.06	226.79
934.36	226.82
934.66	226.77
934.96	226.77
935.26	226.79
935.56	226.79
935.86	226.76
936.16	226.71
936.46	226.69
936.76	226.70
937.06	226.73
937.36	226.79
937.66	226.78
937.96	226.77
938.26	226.73
938.56	226.73
938.86	226.74
939.16	226.76
939.46	226.76
939.76	226.75
940.06	226.74
940.35	226.72
940.65	226.66
940.95	226.71
941.25	226.70
941.55	226.71
941.85	226.71
942.15	226.74
942.45	226.80
942.75	226.82
943.04	226.81
943.34	226.82
943.64	226.79
943.94	226.78
944.24	226.77
944.54	226.74
944.84	226.75
945.13	226.74
945.43	226.69
945.73	226.69
946.03	226.70
946.33	226.70
946.62	226.68
946.92	226.70
947.22	226.70
947.52	226.69
947.82	226.69
948.11	226.68
948.41	226.65
948.71	226.62
949.01	226.63
949.31	226.59
949.60	226.58
949.90	226.61
950.20	226.61
950.50	226.63
950.79	226.68
951.09	226.70
951.39	226.72
951.69	226.72
951.98	226.75
952.28	226.72
952.58	226.72
952.87	226.75
953.17	226.76
953.47	226.75
953.76	226.73
954.06	226.71
954.36	226.72
954.66	226.73
954.95	226.74
955.25	226.76
955.55	226.79
955.84	226.77
956.14	226.77
956.44	226.79
956.73	226.75
957.03	226.72
957.32	226.71
957.62	226.70
957.92	226.72
958.21	226.69
958.51	226.82
958.81	226.85
959.10	226.84
959.40	226.87
959.69	226.90
959.99	226.94
960.29	226.96
960.58	226.94
960.88	226.98
961.17	226.96
961.47	226.95
961.76	226.95
962.06	226.97
962.36	226.96
962.65	226.95
962.95	226.94
963.24	226.94
963.54	226.96
963.83	226.97
964.13	226.95
964.42	226.92
964.72	226.86
965.01	226.84
965.31	226.82
965.60	226.78
965.90	226.80
966.19	226.78
966.49	226.76
966.78	226.73
967.08	226.74
967.37	226.75
967.67	226.71
967.96	226.73
968.26	226.72
968.55	226.74
968.85	226.72
969.14	226.74
969.43	226.75
969.73	226.70
970.02	226.67
970.32	226.64
970.61	226.64
970.91	226.60
971.20	226.57
971.49	226.55
971.79	226.54
972.08	226.43
972.38	226.42
972.67	226.42
972.96	226.45
973.26	226.39
973.55	226.39
973.85	226.39
974.14	226.38
974.43	226.38
974.73	226.33
975.02	226.34
975.31	226.30
975.61	226.26
975.90	226.25
976.19	226.23
976.49	226.24
976.78	226.21
977.07	226.22
977.37	226.23
977.66	226.28
977.95	226.24
978.24	226.28
978.54	226.28
978.83	226.27
979.12	226.25
979.42	226.25
979.71	226.23
980.00	226.23
980.29	226.20
980.59	226.18
980.88	226.22
981.17	226.22
981.46	226.24
981.76	226.24
982.05	226.28
982.34	226.31
982.63	226.31
982.93	226.34
983.22	226.34
983.51	226.35
983.80	226.34
984.09	226.39
984.39	226.41
984.68	226.42
984.97	226.42
985.26	226.39
985.55	226.44
985.85	226.43
986.14	226.45
986.43	226.47
986.72	226.47
987.01	226.44
987.30	226.46
987.59	226.45
987.89	226.50
988.18	226.48
988.47	226.48
988.76	226.49
989.05	226.51
989.34	226.52
989.63	226.56
989.92	226.52
990.22	226.52
990.51	226.50
990.80	226.49
991.09	226.51
991.38	226.56
991.67	226.55
991.96	226.54
992.25	226.54
992.54	226.52
992.83	226.50
993.12	226.52
993.41	226.52
993.70	226.55
993.99	226.55
994.28	226.57
994.58	226.62
994.87	226.62
995.16	226.60
995.45	226.59
995.74	226.57
996.03	226.60
996.32	226.61
996.61	226.66
996.90	226.67
997.19	226.66
997.48	226.64
997.77	226.64
998.06	226.64
998.34	226.62
998.63	226.61
998.92	226.63
999.21	226.64
999.50	226.67
999.79	226.61
1000.08	226.60
1000.37	226.60
1000.66	226.57
1000.95	226.57
1001.24	226.58
1001.53	226.61
1001.82	226.59
1002.11	226.58
1002.40	226.57
1002.68	226.58
1002.97	226.64
1003.26	226.64
1003.55	226.63
1003.84	226.63
1004.13	226.67
1004.42	226.69
1004.71	226.68
1004.99	226.67
1005.28	226.67
1005.57	226.62
1005.86	226.66
1006.15	226.63
1006.44	226.64
1006.72	226.64
1007.01	226.63
1007.30	226.65
1007.59	226.60
1007.88	226.63
1008.17	226.62
1008.45	226.62
1008.74	226.57
1009.03	226.54
1009.32	226.49
1009.60	226.52
1009.89	226.52
1010.18	226.47
1010.47	226.45
1010.76	226.46
1011.04	226.48
1011.33	226.51
1011.62	226.53
1011.91	226.50
1012.19	226.53
1012.48	226.49
1012.77	226.48
1013.05	226.53
1013.34	226.51
1013.63	226.53
1013.92	226.49
1014.20	226.49
1014.49	226.48
1014.78	226.50
1015.06	226.41
1015.35	226.45
1015.64	226.44
1015.92	226.43
1016.21	226.44
1016.50	226.46
1016.78	226.49
1017.07	226.49
1017.36	226.45
1017.64	226.42
1017.93	226.44
1018.22	226.41
1018.50	226.42
1018.79	226.40
1019.08	226.37
1019.36	226.38
1019.65	226.36
1019.93	226.41
1020.22	226.44
1020.51	226.49
1020.79	226.45
1021.08	225.90
1021.36	226.05
1021.65	225.90
1021.94	227.09
1022.22	226.72
1022.51	226.16
1022.79	227.08
1023.08	226.92
1023.36	227.73
1023.65	225.81
>>>>>End Processed Spectral Data<<<<<
