SpectraSuite Data File
++++++++++++++++++++++++++++++++++++
Date: Fri Feb 01 15:15:31 EST 2013
User: group
Dark Spectrum Present: No
Reference Spectrum Present: No
Number of Sampled Component Spectra: 1
Spectrometers: USB2E7196
Integration Time (usec): 35000 (USB2E7196)
Spectra Averaged: 100 (USB2E7196)
Boxcar Smoothing: 10 (USB2E7196)
Correct for Electrical Dark: No (USB2E7196)
Strobe/Lamp Enabled: No (USB2E7196)
Correct for Detector Non-linearity: No (USB2E7196)
Correct for Stray Light: No (USB2E7196)
Number of Pixels in Processed Spectrum: 2048
>>>>>Begin Processed Spectral Data<<<<<
339.09	0.00
339.48	215.57
339.86	216.64
340.24	217.50
340.63	219.25
341.01	221.88
341.39	222.42
341.78	223.82
342.16	223.95
342.54	224.68
342.93	213.44
343.31	224.23
343.69	224.76
344.07	225.24
344.46	225.68
344.84	226.06
345.22	226.31
345.60	226.54
345.99	226.71
346.37	226.86
346.75	226.98
347.13	227.04
347.52	227.11
347.90	227.19
348.28	227.18
348.66	227.18
349.05	227.18
349.43	227.19
349.81	227.25
350.19	227.28
350.57	227.36
350.96	227.44
351.34	227.54
351.72	227.59
352.10	227.69
352.48	227.77
352.87	227.82
353.25	227.88
353.63	227.95
354.01	228.04
354.39	228.12
354.77	228.18
355.15	228.26
355.54	228.30
355.92	228.35
356.30	228.45
356.68	228.57
357.06	228.64
357.44	228.71
357.82	228.77
358.20	228.85
358.58	228.89
358.97	228.92
359.35	228.98
359.73	229.06
360.11	229.11
360.49	229.17
360.87	229.21
361.25	229.28
361.63	229.36
362.01	229.38
362.39	229.40
362.77	229.45
363.15	229.47
363.53	229.53
363.91	229.54
364.29	229.54
364.67	229.52
365.05	229.52
365.43	229.54
365.81	229.52
366.19	229.57
366.57	229.63
366.95	229.63
367.33	229.60
367.71	229.59
368.09	229.58
368.47	229.56
368.85	229.53
369.23	229.50
369.61	229.40
369.99	229.41
370.37	229.36
370.75	229.37
371.13	229.30
371.51	229.23
371.89	229.18
372.27	229.14
372.65	229.07
373.03	229.02
373.41	228.95
373.78	228.88
374.16	228.76
374.54	228.64
374.92	228.57
375.30	228.47
375.68	228.39
376.06	228.30
376.44	228.18
376.82	228.13
377.19	228.05
377.57	227.99
377.95	227.88
378.33	227.79
378.71	227.64
379.09	227.61
379.47	227.54
379.84	227.46
380.22	227.36
380.60	227.23
380.98	227.17
381.36	227.08
381.73	227.04
382.11	226.95
382.49	226.91
382.87	226.82
383.25	226.79
383.62	226.85
384.00	226.76
384.38	226.74
384.76	226.69
385.13	226.71
385.51	226.63
385.89	226.58
386.27	226.54
386.64	226.51
387.02	226.47
387.40	226.43
387.78	226.40
388.15	226.40
388.53	226.44
388.91	226.39
389.29	226.35
389.66	226.33
390.04	226.32
390.42	226.30
390.79	226.31
391.17	226.29
391.55	226.17
391.92	226.19
392.30	226.19
392.68	226.17
393.05	226.13
393.43	226.15
393.81	226.18
394.18	226.23
394.56	226.23
394.94	226.26
395.31	226.30
395.69	226.35
396.06	226.39
396.44	226.41
396.82	226.49
397.19	226.59
397.57	226.62
397.95	226.75
398.32	226.74
398.70	226.81
399.07	226.88
399.45	226.95
399.82	227.05
400.20	227.12
400.58	227.22
400.95	227.27
401.33	227.39
401.70	227.53
402.08	227.65
402.45	227.78
402.83	227.91
403.20	228.02
403.58	228.12
403.95	228.26
404.33	228.39
404.71	228.52
405.08	228.73
405.46	228.89
405.83	229.03
406.21	229.21
406.58	229.39
406.96	229.57
407.33	229.74
407.70	229.92
408.08	230.22
408.45	230.46
408.83	230.73
409.20	230.96
409.58	231.14
409.95	231.40
410.33	231.68
410.70	231.94
411.08	232.25
411.45	232.58
411.82	232.86
412.20	233.21
412.57	233.64
412.95	233.90
413.32	234.33
413.69	234.72
414.07	235.17
414.44	235.63
414.82	236.11
415.19	236.66
415.56	237.22
415.94	237.79
416.31	238.41
416.68	239.00
417.06	239.72
417.43	240.39
417.81	241.14
418.18	241.90
418.55	242.72
418.93	243.55
419.30	244.42
419.67	245.35
420.04	246.31
420.42	247.27
420.79	248.46
421.16	249.55
421.54	250.76
421.91	251.98
422.28	253.24
422.66	254.58
423.03	255.87
423.40	257.18
423.77	258.57
424.15	260.01
424.52	261.50
424.89	263.12
425.26	264.66
425.64	266.07
426.01	267.67
426.38	269.33
426.75	271.01
427.13	272.73
427.50	274.55
427.87	276.42
428.24	278.28
428.61	280.02
428.99	282.00
429.36	284.09
429.73	286.18
430.10	288.18
430.47	290.20
430.85	292.33
431.22	294.58
431.59	296.93
431.96	299.13
432.33	301.61
432.70	304.00
433.08	306.85
433.45	309.52
433.82	312.12
434.19	315.03
434.56	317.87
434.93	320.55
435.30	323.20
435.68	326.10
436.05	328.96
436.42	331.78
436.79	334.27
437.16	337.01
437.53	339.81
437.90	342.69
438.27	345.52
438.64	348.40
439.01	351.01
439.38	353.27
439.75	355.48
440.13	358.03
440.50	360.34
440.87	362.23
441.24	364.17
441.61	366.36
441.98	367.82
442.35	369.61
442.72	371.53
443.09	373.32
443.46	374.30
443.83	374.91
444.20	375.48
444.57	376.35
444.94	376.61
445.31	376.95
445.68	377.31
446.05	377.35
446.42	376.88
446.79	376.43
447.16	375.99
447.53	375.62
447.90	374.43
448.27	373.27
448.64	371.67
449.01	370.49
449.37	368.51
449.74	366.62
450.11	364.38
450.48	361.86
450.85	359.31
451.22	357.18
451.59	355.11
451.96	353.13
452.33	350.51
452.70	348.14
453.07	345.31
453.43	342.37
453.80	339.56
454.17	336.89
454.54	334.29
454.91	331.55
455.28	328.94
455.65	326.42
456.02	323.96
456.38	321.80
456.75	319.15
457.12	316.90
457.49	314.67
457.86	312.47
458.23	310.61
458.59	308.61
458.96	306.53
459.33	304.70
459.70	302.81
460.07	301.26
460.43	299.51
460.80	297.88
461.17	296.46
461.54	294.96
461.91	293.56
462.27	292.13
462.64	290.85
463.01	289.46
463.38	288.17
463.74	286.77
464.11	285.57
464.48	284.56
464.85	283.42
465.21	282.53
465.58	281.65
465.95	280.56
466.32	279.58
466.68	278.65
467.05	277.75
467.42	276.83
467.78	275.91
468.15	275.05
468.52	274.41
468.88	273.51
469.25	272.74
469.62	272.11
469.98	271.48
470.35	270.86
470.72	270.23
471.08	269.56
471.45	269.04
471.82	268.49
472.18	267.86
472.55	267.42
472.92	266.90
473.28	266.41
473.65	265.97
474.02	265.53
474.38	265.13
474.75	264.77
475.11	264.42
475.48	264.15
475.85	263.88
476.21	263.60
476.58	263.41
476.94	263.27
477.31	263.13
477.67	262.90
478.04	262.78
478.41	262.69
478.77	262.73
479.14	262.66
479.50	262.67
479.87	262.75
480.23	262.82
480.60	262.91
480.96	263.03
481.33	263.18
481.69	263.38
482.06	263.61
482.42	263.85
482.79	264.11
483.15	264.45
483.52	264.83
483.88	265.21
484.25	265.62
484.61	266.05
484.98	266.46
485.34	267.02
485.71	267.65
486.07	268.30
486.44	268.86
486.80	269.61
487.17	270.33
487.53	271.13
487.90	272.03
488.26	272.96
488.62	273.92
488.99	274.92
489.35	275.97
489.72	277.11
490.08	278.29
490.44	279.54
490.81	280.87
491.17	282.22
491.54	283.72
491.90	285.22
492.26	286.85
492.63	288.59
492.99	290.40
493.36	292.25
493.72	294.27
494.08	296.39
494.45	298.58
494.81	300.94
495.17	303.40
495.54	305.94
495.90	308.60
496.26	311.41
496.63	314.34
496.99	317.45
497.35	320.69
497.72	324.09
498.08	327.61
498.44	331.26
498.80	335.18
499.17	339.19
499.53	343.37
499.89	347.77
500.26	352.25
500.62	356.90
500.98	361.86
501.34	366.95
501.71	372.26
502.07	377.69
502.43	383.30
502.79	389.07
503.16	395.11
503.52	401.41
503.88	407.81
504.24	414.47
504.60	421.39
504.97	428.50
505.33	435.81
505.69	443.49
506.05	451.24
506.41	459.14
506.78	467.24
507.14	475.62
507.50	484.29
507.86	493.30
508.22	502.48
508.59	511.69
508.95	521.30
509.31	531.09
509.67	541.22
510.03	551.50
510.39	562.06
510.75	572.82
511.12	583.71
511.48	594.99
511.84	606.38
512.20	617.97
512.56	629.92
512.92	642.05
513.28	654.38
513.64	666.95
514.00	679.62
514.37	692.68
514.73	705.73
515.09	718.88
515.45	732.21
515.81	745.85
516.17	759.81
516.53	773.95
516.89	788.06
517.25	802.18
517.61	816.75
517.97	831.24
518.33	845.78
518.69	860.48
519.05	875.51
519.41	890.83
519.77	906.27
520.13	921.77
520.49	937.18
520.85	952.63
521.21	968.38
521.57	984.66
521.93	1000.43
522.29	1016.93
522.65	1033.09
523.01	1049.28
523.37	1065.36
523.73	1081.63
524.09	1097.73
524.45	1114.23
524.81	1130.96
525.17	1147.75
525.53	1164.76
525.89	1181.67
526.25	1198.63
526.61	1215.00
526.97	1231.72
527.33	1248.27
527.68	1264.91
528.04	1281.53
528.40	1298.18
528.76	1315.36
529.12	1332.04
529.48	1348.90
529.84	1365.04
530.20	1381.81
530.56	1399.03
530.91	1416.50
531.27	1433.35
531.63	1449.91
531.99	1466.53
532.35	1482.57
532.71	1498.53
533.07	1514.86
533.42	1530.79
533.78	1546.94
534.14	1563.29
534.50	1578.72
534.86	1594.73
535.21	1610.06
535.57	1626.10
535.93	1641.71
536.29	1656.37
536.65	1671.51
537.00	1686.40
537.36	1701.76
537.72	1716.42
538.08	1730.88
538.44	1744.75
538.79	1758.68
539.15	1772.54
539.51	1786.30
539.87	1800.73
540.22	1814.50
540.58	1828.42
540.94	1841.88
541.29	1854.93
541.65	1867.81
542.01	1881.28
542.37	1893.55
542.72	1905.98
543.08	1917.81
543.44	1930.30
543.79	1941.63
544.15	1952.70
544.51	1964.34
544.87	1975.33
545.22	1986.14
545.58	1996.31
545.94	2006.13
546.29	2016.10
546.65	2025.80
547.01	2035.10
547.36	2043.96
547.72	2052.46
548.07	2060.09
548.43	2068.27
548.79	2076.38
549.14	2084.03
549.50	2091.37
549.86	2099.21
550.21	2106.48
550.57	2113.65
550.92	2120.19
551.28	2127.29
551.64	2134.34
551.99	2140.92
552.35	2147.18
552.70	2153.28
553.06	2159.22
553.41	2165.59
553.77	2171.64
554.13	2177.75
554.48	2183.81
554.84	2189.13
555.19	2194.60
555.55	2199.85
555.90	2204.35
556.26	2209.15
556.61	2213.79
556.97	2217.90
557.32	2222.10
557.68	2226.36
558.03	2230.61
558.39	2234.35
558.74	2238.88
559.10	2242.75
559.45	2246.37
559.81	2250.68
560.16	2254.53
560.52	2257.84
560.87	2261.32
561.23	2263.92
561.58	2266.97
561.94	2269.51
562.29	2271.91
562.64	2274.52
563.00	2277.22
563.35	2280.78
563.71	2283.73
564.06	2286.80
564.42	2289.57
564.77	2291.90
565.12	2294.10
565.48	2295.86
565.83	2297.66
566.19	2299.03
566.54	2299.95
566.89	2301.07
567.25	2301.46
567.60	2302.81
567.96	2304.50
568.31	2305.14
568.66	2306.03
569.02	2306.53
569.37	2306.89
569.72	2307.82
570.08	2307.66
570.43	2307.46
570.78	2306.61
571.14	2305.12
571.49	2303.74
571.84	2303.34
572.20	2301.95
572.55	2300.70
572.90	2299.26
573.26	2297.70
573.61	2295.90
573.96	2293.89
574.31	2290.76
574.67	2287.63
575.02	2283.91
575.37	2280.24
575.72	2276.24
576.08	2273.00
576.43	2269.68
576.78	2265.83
577.13	2262.35
577.49	2259.38
577.84	2255.78
578.19	2252.10
578.54	2248.25
578.90	2243.91
579.25	2238.25
579.60	2233.26
579.95	2228.25
580.30	2223.13
580.66	2217.95
581.01	2212.94
581.36	2207.96
581.71	2203.68
582.06	2199.31
582.42	2194.68
582.77	2189.43
583.12	2184.87
583.47	2179.87
583.82	2174.60
584.17	2169.30
584.53	2163.84
584.88	2158.04
585.23	2152.23
585.58	2146.69
585.93	2141.35
586.28	2136.64
586.63	2131.56
586.98	2126.43
587.34	2121.63
587.69	2116.63
588.04	2111.34
588.39	2105.71
588.74	2099.31
589.09	2093.12
589.44	2086.06
589.79	2079.88
590.14	2074.32
590.49	2067.71
590.84	2061.43
591.19	2055.21
591.54	2048.76
591.89	2041.06
592.25	2034.13
592.60	2026.92
592.95	2019.11
593.30	2011.61
593.65	2003.88
594.00	1996.90
594.35	1989.65
594.70	1981.54
595.05	1974.16
595.40	1966.79
595.75	1959.16
596.10	1952.74
596.45	1945.82
596.80	1939.64
597.15	1932.90
597.50	1925.55
597.85	1919.05
598.19	1912.27
598.54	1905.16
598.89	1898.46
599.24	1892.72
599.59	1885.91
599.94	1879.65
600.29	1873.23
600.64	1866.50
600.99	1858.87
601.34	1851.76
601.69	1844.75
602.04	1837.69
602.39	1830.39
602.74	1823.48
603.08	1816.69
603.43	1809.83
603.78	1802.62
604.13	1795.38
604.48	1788.11
604.83	1781.22
605.18	1774.08
605.53	1766.04
605.87	1758.12
606.22	1750.81
606.57	1742.85
606.92	1735.56
607.27	1728.20
607.62	1721.31
607.96	1713.99
608.31	1707.43
608.66	1699.72
609.01	1692.20
609.36	1684.59
609.70	1676.44
610.05	1668.28
610.40	1660.45
610.75	1652.12
611.10	1644.37
611.44	1636.06
611.79	1628.05
612.14	1619.39
612.49	1610.41
612.83	1602.06
613.18	1593.82
613.53	1585.67
613.88	1577.02
614.22	1568.75
614.57	1560.23
614.92	1552.18
615.27	1544.63
615.61	1536.27
615.96	1528.44
616.31	1520.74
616.65	1513.52
617.00	1506.02
617.35	1498.39
617.70	1490.07
618.04	1481.59
618.39	1473.32
618.74	1465.68
619.08	1457.32
619.43	1449.79
619.78	1442.82
620.12	1435.54
620.47	1428.09
620.82	1419.99
621.16	1412.66
621.51	1405.06
621.85	1397.53
622.20	1389.05
622.55	1380.75
622.89	1372.97
623.24	1365.37
623.59	1358.01
623.93	1350.42
624.28	1343.23
624.62	1335.69
624.97	1328.57
625.32	1321.97
625.66	1315.13
626.01	1307.77
626.35	1300.37
626.70	1292.50
627.04	1284.76
627.39	1277.04
627.73	1269.62
628.08	1262.70
628.43	1255.34
628.77	1247.92
629.12	1240.27
629.46	1233.12
629.81	1225.76
630.15	1218.56
630.50	1211.11
630.84	1202.96
631.19	1195.08
631.53	1187.59
631.88	1180.10
632.22	1172.49
632.57	1165.13
632.91	1157.56
633.26	1150.25
633.60	1142.90
633.95	1135.94
634.29	1128.97
634.64	1122.35
634.98	1115.00
635.32	1107.84
635.67	1101.31
636.01	1094.71
636.36	1087.96
636.70	1081.52
637.05	1074.92
637.39	1068.44
637.73	1061.96
638.08	1056.05
638.42	1050.09
638.77	1043.61
639.11	1037.00
639.45	1030.61
639.80	1023.92
640.14	1017.41
640.49	1010.92
640.83	1004.73
641.17	998.51
641.52	992.22
641.86	985.77
642.20	979.87
642.55	973.64
642.89	967.14
643.23	960.65
643.58	954.92
643.92	948.67
644.26	942.55
644.61	936.60
644.95	930.54
645.29	923.94
645.64	917.17
645.98	910.85
646.32	905.07
646.66	899.00
647.01	893.28
647.35	887.62
647.69	881.82
648.04	876.30
648.38	870.53
648.72	864.44
649.06	858.41
649.41	852.57
649.75	846.55
650.09	840.60
650.43	834.75
650.78	828.57
651.12	822.55
651.46	816.80
651.80	810.94
652.14	805.56
652.49	800.24
652.83	795.13
653.17	789.43
653.51	783.66
653.85	778.35
654.20	772.65
654.54	766.66
654.88	760.89
655.22	754.90
655.56	749.24
655.90	743.84
656.25	738.61
656.59	733.29
656.93	728.21
657.27	723.05
657.61	717.70
657.95	712.61
658.29	707.59
658.64	702.46
658.98	697.19
659.32	691.74
659.66	686.52
660.00	681.20
660.34	676.29
660.68	671.41
661.02	666.38
661.36	661.67
661.70	657.18
662.05	652.88
662.39	648.60
662.73	644.19
663.07	639.76
663.41	635.32
663.75	630.83
664.09	626.30
664.43	621.96
664.77	617.80
665.11	613.55
665.45	609.44
665.79	605.31
666.13	601.19
666.47	597.12
666.81	592.97
667.15	588.85
667.49	585.02
667.83	581.24
668.17	577.34
668.51	573.32
668.85	569.32
669.19	565.44
669.53	561.59
669.87	557.72
670.21	554.07
670.55	550.42
670.89	547.00
671.23	543.61
671.57	540.09
671.91	536.60
672.25	533.17
672.58	529.66
672.92	526.31
673.26	523.26
673.60	520.15
673.94	517.02
674.28	514.13
674.62	511.16
674.96	508.05
675.30	505.14
675.64	502.16
675.97	499.40
676.31	496.60
676.65	493.65
676.99	490.95
677.33	488.13
677.67	485.35
678.01	482.32
678.34	479.33
678.68	476.45
679.02	473.63
679.36	470.86
679.70	468.18
680.04	465.43
680.37	462.47
680.71	459.68
681.05	457.10
681.39	454.37
681.73	451.71
682.06	449.23
682.40	446.67
682.74	444.21
683.08	441.69
683.42	439.13
683.75	436.72
684.09	434.14
684.43	431.65
684.77	429.16
685.10	426.90
685.44	424.58
685.78	422.32
686.12	420.16
686.45	417.91
686.79	415.58
687.13	413.40
687.46	411.28
687.80	409.11
688.14	406.93
688.48	404.94
688.81	402.71
689.15	400.56
689.49	398.47
689.82	396.39
690.16	394.30
690.50	392.29
690.83	390.31
691.17	388.34
691.51	386.47
691.84	384.62
692.18	382.59
692.52	380.61
692.85	378.71
693.19	376.79
693.52	374.97
693.86	373.22
694.20	371.44
694.53	369.61
694.87	367.80
695.21	365.99
695.54	364.10
695.88	362.34
696.21	360.61
696.55	358.94
696.88	357.30
697.22	355.66
697.56	354.09
697.89	352.43
698.23	350.82
698.56	349.20
698.90	347.62
699.23	345.97
699.57	344.43
699.90	342.88
700.24	341.37
700.58	339.80
700.91	338.28
701.25	336.80
701.58	335.51
701.92	334.14
702.25	332.79
702.59	331.43
702.92	330.15
703.26	328.85
703.59	327.51
703.93	326.31
704.26	325.12
704.60	323.84
704.93	322.60
705.26	321.36
705.60	320.18
705.93	319.01
706.27	318.06
706.60	317.01
706.94	315.95
707.27	314.79
707.61	313.77
707.94	312.77
708.27	311.66
708.61	310.57
708.94	309.58
709.28	308.60
709.61	307.67
709.94	306.73
710.28	305.72
710.61	304.80
710.95	303.72
711.28	302.79
711.61	301.80
711.95	300.89
712.28	299.97
712.61	299.03
712.95	298.15
713.28	297.26
713.61	296.41
713.95	295.53
714.28	294.69
714.61	293.83
714.95	292.99
715.28	292.18
715.61	291.29
715.95	290.41
716.28	289.57
716.61	288.75
716.95	287.96
717.28	287.24
717.61	286.48
717.94	285.76
718.28	284.96
718.61	284.25
718.94	283.56
719.27	282.91
719.61	282.27
719.94	281.58
720.27	280.89
720.60	280.19
720.94	279.55
721.27	278.95
721.60	278.37
721.93	277.73
722.27	277.19
722.60	276.67
722.93	276.10
723.26	275.54
723.59	275.00
723.93	274.46
724.26	273.90
724.59	273.32
724.92	272.80
725.25	272.33
725.59	271.82
725.92	271.31
726.25	270.79
726.58	270.27
726.91	269.75
727.24	269.25
727.57	268.78
727.91	268.28
728.24	267.80
728.57	267.31
728.90	266.90
729.23	266.36
729.56	265.87
729.89	265.39
730.22	264.93
730.55	264.44
730.89	263.96
731.22	263.51
731.55	263.07
731.88	262.63
732.21	262.18
732.54	261.73
732.87	261.28
733.20	260.87
733.53	260.46
733.86	260.11
734.19	259.68
734.52	259.29
734.85	259.00
735.18	258.60
735.51	258.24
735.84	257.86
736.17	257.53
736.50	257.15
736.83	256.94
737.16	256.59
737.49	256.27
737.82	255.91
738.15	255.57
738.48	255.24
738.81	254.90
739.14	254.59
739.47	254.28
739.80	254.00
740.13	253.67
740.46	253.35
740.79	253.00
741.12	252.67
741.45	252.36
741.78	252.00
742.11	251.71
742.44	251.39
742.77	251.10
743.10	250.81
743.43	250.51
743.75	250.11
744.08	249.98
744.41	249.69
744.74	249.47
745.07	249.20
745.40	248.95
745.73	248.73
746.06	248.42
746.39	248.13
746.71	247.86
747.04	247.59
747.37	247.35
747.70	247.14
748.03	246.92
748.36	246.72
748.68	246.47
749.01	246.26
749.34	246.04
749.67	245.77
750.00	245.58
750.33	245.44
750.65	245.27
750.98	244.93
751.31	244.71
751.64	244.49
751.97	244.33
752.29	244.12
752.62	243.91
752.95	243.75
753.28	243.57
753.60	243.38
753.93	243.24
754.26	243.05
754.59	242.86
754.91	242.68
755.24	242.47
755.57	242.31
755.90	242.09
756.22	241.91
756.55	241.75
756.88	241.53
757.20	241.31
757.53	241.10
757.86	240.91
758.19	240.76
758.51	240.58
758.84	240.34
759.17	240.20
759.49	240.01
759.82	239.86
760.15	239.72
760.47	239.56
760.80	239.36
761.13	239.21
761.45	239.05
761.78	238.89
762.11	238.74
762.43	238.58
762.76	238.45
763.08	238.33
763.41	238.21
763.74	238.09
764.06	237.93
764.39	237.80
764.71	237.66
765.04	237.53
765.37	237.41
765.69	237.32
766.02	237.17
766.34	237.07
766.67	236.94
767.00	236.82
767.32	236.73
767.65	236.69
767.97	236.55
768.30	236.43
768.62	236.35
768.95	236.24
769.27	236.13
769.60	236.05
769.92	235.89
770.25	235.77
770.57	235.63
770.90	235.52
771.22	235.46
771.55	235.35
771.87	235.24
772.20	235.15
772.52	235.13
772.85	235.17
773.17	235.05
773.50	234.92
773.82	234.82
774.15	234.71
774.47	234.56
774.80	234.49
775.12	234.38
775.45	234.28
775.77	234.20
776.09	234.15
776.42	234.09
776.74	234.04
777.07	233.95
777.39	233.91
777.72	233.83
778.04	233.75
778.36	233.70
778.69	233.65
779.01	233.57
779.33	233.40
779.66	233.24
779.98	233.18
780.31	233.14
780.63	233.10
780.95	233.02
781.28	232.96
781.60	232.88
781.92	232.80
782.25	232.72
782.57	232.64
782.89	232.51
783.22	232.43
783.54	232.34
783.86	232.28
784.19	232.20
784.51	232.21
784.83	232.11
785.16	232.03
785.48	231.97
785.80	231.92
786.12	231.91
786.45	231.83
786.77	231.75
787.09	231.70
787.42	231.60
787.74	231.61
788.06	231.58
788.38	231.56
788.71	231.52
789.03	231.51
789.35	231.48
789.67	231.46
789.99	231.41
790.32	231.39
790.64	231.36
790.96	231.41
791.28	231.30
791.61	231.27
791.93	231.23
792.25	231.20
792.57	231.21
792.89	231.13
793.21	231.11
793.54	231.09
793.86	231.04
794.18	231.02
794.50	230.95
794.82	230.88
795.14	230.85
795.47	230.84
795.79	230.79
796.11	230.78
796.43	230.77
796.75	230.70
797.07	230.68
797.39	230.64
797.71	230.57
798.04	230.55
798.36	230.54
798.68	230.53
799.00	230.52
799.32	230.45
799.64	230.45
799.96	230.42
800.28	230.42
800.60	230.37
800.92	230.38
801.24	230.33
801.56	230.30
801.89	230.26
802.21	230.24
802.53	230.22
802.85	230.19
803.17	230.18
803.49	230.16
803.81	230.14
804.13	230.13
804.45	230.08
804.77	230.04
805.09	230.02
805.41	229.97
805.73	229.93
806.05	229.90
806.37	229.85
806.69	229.81
807.01	229.74
807.33	229.74
807.65	229.66
807.97	229.69
808.28	229.69
808.60	229.64
808.92	229.61
809.24	229.66
809.56	229.61
809.88	229.55
810.20	229.56
810.52	229.53
810.84	229.48
811.16	229.44
811.48	229.40
811.80	229.42
812.12	229.43
812.43	229.41
812.75	229.38
813.07	229.35
813.39	229.33
813.71	229.30
814.03	229.27
814.35	229.27
814.67	229.20
814.98	229.16
815.30	229.16
815.62	229.10
815.94	228.99
816.26	229.03
816.58	229.02
816.89	229.02
817.21	228.98
817.53	228.98
817.85	228.95
818.17	228.93
818.48	228.85
818.80	228.87
819.12	228.79
819.44	228.74
819.76	228.73
820.07	228.73
820.39	228.73
820.71	228.72
821.03	228.70
821.34	228.68
821.66	228.66
821.98	228.63
822.30	228.61
822.61	228.67
822.93	228.59
823.25	228.57
823.57	228.52
823.88	228.53
824.20	228.51
824.52	228.51
824.83	228.50
825.15	228.48
825.47	228.43
825.79	228.46
826.10	228.49
826.42	228.45
826.74	228.42
827.05	228.41
827.37	228.39
827.69	228.38
828.00	228.36
828.32	228.35
828.64	228.34
828.95	228.40
829.27	228.36
829.58	228.33
829.90	228.32
830.22	228.30
830.53	228.25
830.85	228.24
831.17	228.23
831.48	228.21
831.80	228.22
832.11	228.20
832.43	228.20
832.75	228.15
833.06	228.21
833.38	228.19
833.69	228.18
834.01	228.17
834.32	228.14
834.64	228.15
834.96	228.12
835.27	228.13
835.59	228.11
835.90	228.05
836.22	228.05
836.53	228.01
836.85	228.01
837.16	228.09
837.48	228.06
837.79	228.05
838.11	228.07
838.42	228.05
838.74	228.06
839.05	227.99
839.37	228.01
839.68	227.94
840.00	227.91
840.31	227.91
840.63	227.87
840.94	227.84
841.26	227.80
841.57	227.79
841.88	227.77
842.20	227.71
842.51	227.71
842.83	227.69
843.14	227.77
843.46	227.75
843.77	227.75
844.08	227.72
844.40	227.66
844.71	227.63
845.03	227.60
845.34	227.58
845.65	227.58
845.97	227.53
846.28	227.54
846.60	227.57
846.91	227.53
847.22	227.54
847.54	227.58
847.85	227.60
848.16	227.64
848.48	227.60
848.79	227.66
849.10	227.67
849.42	227.67
849.73	227.60
850.04	227.61
850.36	227.57
850.67	227.61
850.98	227.66
851.30	227.69
851.61	227.70
851.92	227.68
852.23	227.74
852.55	227.78
852.86	227.80
853.17	227.79
853.49	227.83
853.80	227.85
854.11	227.83
854.42	227.84
854.74	227.80
855.05	227.80
855.36	227.76
855.67	227.78
855.99	227.80
856.30	227.91
856.61	227.91
856.92	227.86
857.23	227.88
857.55	227.86
857.86	227.82
858.17	227.85
858.48	227.85
858.79	227.81
859.11	227.83
859.42	227.80
859.73	227.81
860.04	227.80
860.35	227.77
860.66	227.75
860.98	227.75
861.29	227.77
861.60	227.78
861.91	227.77
862.22	227.73
862.53	227.69
862.84	227.60
863.16	227.63
863.47	227.61
863.78	227.58
864.09	227.60
864.40	227.59
864.71	227.56
865.02	227.59
865.33	227.56
865.64	227.55
865.95	227.55
866.27	227.63
866.58	227.61
866.89	227.62
867.20	227.61
867.51	227.55
867.82	227.56
868.13	227.57
868.44	227.56
868.75	227.58
869.06	227.62
869.37	227.63
869.68	227.54
869.99	227.57
870.30	227.56
870.61	227.55
870.92	227.54
871.23	227.59
871.54	227.59
871.85	227.63
872.16	227.60
872.47	227.58
872.78	227.49
873.09	227.50
873.40	227.47
873.71	227.49
874.02	227.52
874.33	227.47
874.64	227.44
874.95	227.45
875.26	227.43
875.56	227.40
875.87	227.37
876.18	227.38
876.49	227.46
876.80	227.43
877.11	227.43
877.42	227.45
877.73	227.36
878.04	227.35
878.35	227.32
878.66	227.31
878.96	227.28
879.27	227.27
879.58	227.28
879.89	227.31
880.20	227.32
880.51	227.31
880.82	227.33
881.12	227.34
881.43	227.28
881.74	227.24
882.05	227.21
882.36	227.21
882.67	227.26
882.97	227.14
883.28	227.15
883.59	227.15
883.90	227.15
884.21	227.21
884.51	227.22
884.82	227.20
885.13	227.23
885.44	227.25
885.74	227.27
886.05	227.24
886.36	227.24
886.67	227.22
886.98	227.26
887.28	227.26
887.59	227.27
887.90	227.32
888.20	227.36
888.51	227.44
888.82	227.43
889.13	227.43
889.43	227.53
889.74	227.53
890.05	227.54
890.35	227.50
890.66	227.48
890.97	227.47
891.28	227.49
891.58	227.48
891.89	227.50
892.20	227.49
892.50	227.49
892.81	227.51
893.12	227.50
893.42	227.46
893.73	227.48
894.04	227.49
894.34	227.51
894.65	227.53
894.95	227.49
895.26	227.50
895.57	227.55
895.87	227.48
896.18	227.52
896.48	227.47
896.79	227.51
897.10	227.52
897.40	227.54
897.71	227.53
898.01	227.54
898.32	227.56
898.63	227.54
898.93	227.55
899.24	227.53
899.54	227.54
899.85	227.56
900.15	227.52
900.46	227.51
900.76	227.52
901.07	227.49
901.38	227.47
901.68	227.51
901.99	227.45
902.29	227.45
902.60	227.41
902.90	227.45
903.21	227.44
903.51	227.45
903.82	227.44
904.12	227.44
904.43	227.42
904.73	227.44
905.03	227.45
905.34	227.53
905.64	227.53
905.95	227.52
906.25	227.50
906.56	227.49
906.86	227.49
907.17	227.44
907.47	227.45
907.77	227.46
908.08	227.40
908.38	227.39
908.69	227.36
908.99	227.41
909.30	227.38
909.60	227.37
909.90	227.37
910.21	227.35
910.51	227.31
910.81	227.32
911.12	227.29
911.42	227.29
911.73	227.18
912.03	227.18
912.33	227.20
912.64	227.17
912.94	227.17
913.24	227.17
913.55	227.20
913.85	227.19
914.15	227.19
914.46	227.23
914.76	227.23
915.06	227.24
915.37	227.22
915.67	227.22
915.97	227.21
916.27	227.18
916.58	227.19
916.88	227.24
917.18	227.23
917.49	227.27
917.79	227.24
918.09	227.27
918.39	227.28
918.70	227.27
919.00	227.26
919.30	227.33
919.60	227.32
919.91	227.29
920.21	227.29
920.51	227.27
920.81	227.23
921.12	227.22
921.42	227.20
921.72	227.16
922.02	227.15
922.32	227.16
922.63	227.16
922.93	227.18
923.23	227.16
923.53	227.14
923.83	227.05
924.13	227.07
924.44	227.08
924.74	227.11
925.04	227.12
925.34	227.15
925.64	227.08
925.94	227.05
926.24	227.12
926.55	227.11
926.85	227.09
927.15	227.08
927.45	227.09
927.75	227.11
928.05	227.13
928.35	227.14
928.65	227.15
928.95	227.13
929.26	227.11
929.56	227.10
929.86	227.12
930.16	227.13
930.46	227.10
930.76	227.10
931.06	227.04
931.36	226.99
931.66	227.02
931.96	227.04
932.26	227.09
932.56	227.03
932.86	227.03
933.16	227.05
933.46	227.07
933.76	227.07
934.06	227.10
934.36	227.11
934.66	227.12
934.96	227.12
935.26	227.13
935.56	227.15
935.86	227.15
936.16	227.12
936.46	227.13
936.76	227.13
937.06	227.12
937.36	227.15
937.66	227.18
937.96	227.14
938.26	227.16
938.56	227.14
938.86	227.15
939.16	227.19
939.46	227.18
939.76	227.20
940.06	227.17
940.35	227.14
940.65	227.11
940.95	227.13
941.25	227.11
941.55	227.10
941.85	227.07
942.15	227.10
942.45	227.14
942.75	227.15
943.04	227.18
943.34	227.18
943.64	227.16
943.94	227.12
944.24	227.15
944.54	227.15
944.84	227.15
945.13	227.14
945.43	227.08
945.73	227.10
946.03	227.07
946.33	227.10
946.62	227.10
946.92	227.10
947.22	227.08
947.52	227.08
947.82	227.11
948.11	227.12
948.41	227.05
948.71	227.02
949.01	227.02
949.31	227.00
949.60	227.00
949.90	227.01
950.20	227.02
950.50	227.00
950.79	226.95
951.09	226.97
951.39	226.97
951.69	226.97
951.98	227.00
952.28	227.02
952.58	226.98
952.87	226.95
953.17	226.95
953.47	226.93
953.76	226.90
954.06	226.85
954.36	226.82
954.66	226.86
954.95	226.91
955.25	226.92
955.55	226.91
955.84	226.90
956.14	226.93
956.44	226.94
956.73	226.93
957.03	226.98
957.32	226.97
957.62	226.96
957.92	227.00
958.21	226.96
958.51	227.03
958.81	227.07
959.10	227.12
959.40	227.13
959.69	227.16
959.99	227.21
960.29	227.24
960.58	227.26
960.88	227.29
961.17	227.27
961.47	227.30
961.76	227.33
962.06	227.34
962.36	227.30
962.65	227.31
962.95	227.34
963.24	227.29
963.54	227.33
963.83	227.32
964.13	227.33
964.42	227.31
964.72	227.26
965.01	227.23
965.31	227.22
965.60	227.27
965.90	227.32
966.19	227.27
966.49	227.25
966.78	227.26
967.08	227.25
967.37	227.24
967.67	227.19
967.96	227.18
968.26	227.19
968.55	227.19
968.85	227.17
969.14	227.17
969.43	227.17
969.73	227.14
970.02	227.16
970.32	227.15
970.61	227.16
970.91	227.12
971.20	227.12
971.49	227.13
971.79	227.08
972.08	227.00
972.38	226.99
972.67	226.99
972.96	227.00
973.26	226.94
973.55	227.00
973.85	226.98
974.14	226.94
974.43	226.94
974.73	226.92
975.02	226.88
975.31	226.86
975.61	226.88
975.90	226.83
976.19	226.80
976.49	226.79
976.78	226.79
977.07	226.80
977.37	226.79
977.66	226.80
977.95	226.78
978.24	226.79
978.54	226.84
978.83	226.85
979.12	226.86
979.42	226.85
979.71	226.80
980.00	226.79
980.29	226.79
980.59	226.77
980.88	226.82
981.17	226.83
981.46	226.83
981.76	226.84
982.05	226.91
982.34	226.92
982.63	226.92
982.93	226.91
983.22	226.92
983.51	226.96
983.80	226.94
984.09	226.95
984.39	226.94
984.68	226.94
984.97	226.95
985.26	226.89
985.55	226.94
985.85	226.93
986.14	226.97
986.43	227.02
986.72	227.00
987.01	226.94
987.30	226.96
987.59	226.94
987.89	226.95
988.18	226.89
988.47	226.88
988.76	226.88
989.05	226.89
989.34	226.89
989.63	226.92
989.92	226.92
990.22	226.91
990.51	226.92
990.80	226.90
991.09	226.88
991.38	226.93
991.67	226.88
991.96	226.88
992.25	226.90
992.54	226.87
992.83	226.89
993.12	226.89
993.41	226.94
993.70	226.98
993.99	227.01
994.28	227.04
994.58	227.07
994.87	227.04
995.16	227.02
995.45	227.02
995.74	226.95
996.03	226.98
996.32	226.99
996.61	227.01
996.90	227.02
997.19	227.06
997.48	227.09
997.77	227.11
998.06	227.11
998.34	227.09
998.63	227.11
998.92	227.13
999.21	227.15
999.50	227.13
999.79	227.08
1000.08	227.07
1000.37	227.07
1000.66	227.07
1000.95	227.11
1001.24	227.13
1001.53	227.15
1001.82	227.15
1002.11	227.10
1002.40	227.12
1002.68	227.12
1002.97	227.18
1003.26	227.17
1003.55	227.13
1003.84	227.09
1004.13	227.13
1004.42	227.14
1004.71	227.10
1004.99	227.10
1005.28	227.12
1005.57	227.11
1005.86	227.11
1006.15	227.12
1006.44	227.07
1006.72	227.05
1007.01	227.06
1007.30	227.06
1007.59	227.02
1007.88	227.01
1008.17	227.04
1008.45	227.03
1008.74	226.98
1009.03	226.95
1009.32	226.97
1009.60	226.97
1009.89	226.99
1010.18	226.98
1010.47	226.94
1010.76	226.96
1011.04	226.96
1011.33	226.99
1011.62	227.01
1011.91	227.04
1012.19	227.03
1012.48	227.06
1012.77	227.07
1013.05	227.09
1013.34	227.09
1013.63	227.08
1013.92	227.10
1014.20	227.09
1014.49	227.07
1014.78	227.09
1015.06	227.03
1015.35	227.01
1015.64	227.00
1015.92	227.02
1016.21	227.03
1016.50	227.03
1016.78	227.00
1017.07	227.00
1017.36	226.94
1017.64	226.88
1017.93	226.89
1018.22	226.88
1018.50	226.89
1018.79	226.90
1019.08	226.82
1019.36	226.84
1019.65	226.86
1019.93	226.87
1020.22	226.90
1020.51	226.95
1020.79	226.94
1021.08	226.66
1021.36	227.51
1021.65	227.03
1021.94	226.45
1022.22	227.32
1022.51	226.64
1022.79	227.07
1023.08	227.10
1023.36	228.01
1023.65	226.79
>>>>>End Processed Spectral Data<<<<<
