SpectraSuite Data File
++++++++++++++++++++++++++++++++++++
Date: Fri Feb 01 15:14:55 EST 2013
User: group
Dark Spectrum Present: No
Reference Spectrum Present: No
Number of Sampled Component Spectra: 1
Spectrometers: USB2E7196
Integration Time (usec): 35000 (USB2E7196)
Spectra Averaged: 100 (USB2E7196)
Boxcar Smoothing: 10 (USB2E7196)
Correct for Electrical Dark: No (USB2E7196)
Strobe/Lamp Enabled: No (USB2E7196)
Correct for Detector Non-linearity: No (USB2E7196)
Correct for Stray Light: No (USB2E7196)
Number of Pixels in Processed Spectrum: 2048
>>>>>Begin Processed Spectral Data<<<<<
339.09	0.00
339.48	215.67
339.86	216.67
340.24	218.02
340.63	219.57
341.01	222.01
341.39	222.39
341.78	223.55
342.16	225.11
342.54	225.02
342.93	213.49
343.31	224.23
343.69	224.75
344.07	225.21
344.46	225.65
344.84	226.02
345.22	226.28
345.60	226.51
345.99	226.69
346.37	226.79
346.75	226.89
347.13	226.95
347.52	227.01
347.90	227.08
348.28	227.08
348.66	227.12
349.05	227.09
349.43	227.14
349.81	227.18
350.19	227.22
350.57	227.29
350.96	227.38
351.34	227.49
351.72	227.56
352.10	227.69
352.48	227.74
352.87	227.77
353.25	227.80
353.63	227.86
354.01	227.94
354.39	228.00
354.77	228.11
355.15	228.24
355.54	228.29
355.92	228.33
356.30	228.43
356.68	228.57
357.06	228.64
357.44	228.71
357.82	228.81
358.20	228.88
358.58	228.92
358.97	228.95
359.35	229.05
359.73	229.14
360.11	229.15
360.49	229.20
360.87	229.28
361.25	229.36
361.63	229.42
362.01	229.48
362.39	229.53
362.77	229.53
363.15	229.53
363.53	229.58
363.91	229.63
364.29	229.64
364.67	229.58
365.05	229.58
365.43	229.59
365.81	229.60
366.19	229.65
366.57	229.73
366.95	229.75
367.33	229.72
367.71	229.70
368.09	229.70
368.47	229.69
368.85	229.64
369.23	229.63
369.61	229.60
369.99	229.57
370.37	229.54
370.75	229.54
371.13	229.50
371.51	229.44
371.89	229.38
372.27	229.34
372.65	229.30
373.03	229.30
373.41	229.24
373.78	229.17
374.16	229.05
374.54	228.92
374.92	228.87
375.30	228.79
375.68	228.70
376.06	228.65
376.44	228.58
376.82	228.56
377.19	228.46
377.57	228.38
377.95	228.27
378.33	228.16
378.71	228.06
379.09	227.98
379.47	227.96
379.84	227.88
380.22	227.80
380.60	227.71
380.98	227.60
381.36	227.52
381.73	227.45
382.11	227.42
382.49	227.37
382.87	227.26
383.25	227.22
383.62	227.28
384.00	227.22
384.38	227.16
384.76	227.07
385.13	227.08
385.51	227.06
385.89	227.03
386.27	227.00
386.64	226.98
387.02	226.94
387.40	226.83
387.78	226.80
388.15	226.78
388.53	226.75
388.91	226.69
389.29	226.65
389.66	226.63
390.04	226.59
390.42	226.59
390.79	226.62
391.17	226.58
391.55	226.44
391.92	226.43
392.30	226.44
392.68	226.44
393.05	226.41
393.43	226.38
393.81	226.37
394.18	226.39
394.56	226.40
394.94	226.46
395.31	226.47
395.69	226.54
396.06	226.57
396.44	226.58
396.82	226.64
397.19	226.75
397.57	226.79
397.95	226.86
398.32	226.89
398.70	226.95
399.07	227.05
399.45	227.13
399.82	227.20
400.20	227.24
400.58	227.31
400.95	227.33
401.33	227.43
401.70	227.58
402.08	227.66
402.45	227.76
402.83	227.86
403.20	228.02
403.58	228.10
403.95	228.28
404.33	228.43
404.71	228.58
405.08	228.71
405.46	228.85
405.83	228.98
406.21	229.11
406.58	229.27
406.96	229.42
407.33	229.60
407.70	229.79
408.08	230.09
408.45	230.32
408.83	230.59
409.20	230.82
409.58	231.02
409.95	231.28
410.33	231.54
410.70	231.76
411.08	232.03
411.45	232.34
411.82	232.62
412.20	232.96
412.57	233.37
412.95	233.67
413.32	234.06
413.69	234.48
414.07	234.92
414.44	235.38
414.82	235.84
415.19	236.38
415.56	236.93
415.94	237.46
416.31	238.09
416.68	238.73
417.06	239.42
417.43	240.14
417.81	240.91
418.18	241.71
418.55	242.56
418.93	243.45
419.30	244.35
419.67	245.26
420.04	246.22
420.42	247.24
420.79	248.46
421.16	249.62
421.54	250.80
421.91	252.03
422.28	253.28
422.66	254.62
423.03	255.94
423.40	257.24
423.77	258.65
424.15	260.07
424.52	261.56
424.89	263.17
425.26	264.71
425.64	266.10
426.01	267.69
426.38	269.36
426.75	271.02
427.13	272.75
427.50	274.61
427.87	276.48
428.24	278.30
428.61	280.03
428.99	281.98
429.36	284.11
429.73	286.17
430.10	288.26
430.47	290.32
430.85	292.45
431.22	294.73
431.59	297.13
431.96	299.40
432.33	301.86
432.70	304.23
433.08	307.05
433.45	309.72
433.82	312.34
434.19	315.21
434.56	318.03
434.93	320.68
435.30	323.26
435.68	326.22
436.05	329.05
436.42	331.85
436.79	334.37
437.16	337.08
437.53	339.93
437.90	342.70
438.27	345.49
438.64	348.29
439.01	350.86
439.38	353.09
439.75	355.28
440.13	357.80
440.50	360.19
440.87	362.04
441.24	364.03
441.61	366.23
441.98	367.79
442.35	369.56
442.72	371.43
443.09	373.22
443.46	374.16
443.83	374.75
444.20	375.25
444.57	376.10
444.94	376.36
445.31	376.68
445.68	377.04
446.05	377.10
446.42	376.77
446.79	376.38
447.16	375.94
447.53	375.57
447.90	374.42
448.27	373.23
448.64	371.61
449.01	370.47
449.37	368.44
449.74	366.49
450.11	364.31
450.48	361.82
450.85	359.29
451.22	357.14
451.59	355.19
451.96	353.24
452.33	350.64
452.70	348.27
453.07	345.49
453.43	342.63
453.80	339.86
454.17	337.12
454.54	334.54
454.91	331.80
455.28	329.17
455.65	326.66
456.02	324.21
456.38	322.08
456.75	319.41
457.12	317.18
457.49	314.95
457.86	312.76
458.23	310.89
458.59	308.90
458.96	306.83
459.33	304.95
459.70	303.09
460.07	301.56
460.43	299.84
460.80	298.19
461.17	296.71
461.54	295.18
461.91	293.74
462.27	292.28
462.64	291.04
463.01	289.67
463.38	288.36
463.74	286.95
464.11	285.76
464.48	284.70
464.85	283.54
465.21	282.68
465.58	281.71
465.95	280.66
466.32	279.69
466.68	278.78
467.05	277.86
467.42	276.95
467.78	276.01
468.15	275.12
468.52	274.43
468.88	273.56
469.25	272.81
469.62	272.22
469.98	271.57
470.35	270.92
470.72	270.27
471.08	269.61
471.45	269.09
471.82	268.57
472.18	267.99
472.55	267.59
472.92	267.06
473.28	266.62
473.65	266.12
474.02	265.72
474.38	265.33
474.75	264.99
475.11	264.65
475.48	264.37
475.85	264.16
476.21	263.93
476.58	263.75
476.94	263.61
477.31	263.41
477.67	263.28
478.04	263.20
478.41	263.16
478.77	263.22
479.14	263.14
479.50	263.17
479.87	263.24
480.23	263.32
480.60	263.36
480.96	263.46
481.33	263.69
481.69	263.88
482.06	264.11
482.42	264.33
482.79	264.58
483.15	264.86
483.52	265.25
483.88	265.57
484.25	265.97
484.61	266.38
484.98	266.81
485.34	267.35
485.71	267.95
486.07	268.58
486.44	269.15
486.80	269.87
487.17	270.55
487.53	271.32
487.90	272.15
488.26	273.12
488.62	274.11
488.99	275.06
489.35	276.09
489.72	277.19
490.08	278.36
490.44	279.62
490.81	280.98
491.17	282.33
491.54	283.86
491.90	285.41
492.26	287.06
492.63	288.82
492.99	290.59
493.36	292.43
493.72	294.45
494.08	296.58
494.45	298.78
494.81	301.13
495.17	303.56
495.54	306.09
495.90	308.76
496.26	311.55
496.63	314.52
496.99	317.61
497.35	320.86
497.72	324.25
498.08	327.73
498.44	331.43
498.80	335.31
499.17	339.30
499.53	343.44
499.89	347.79
500.26	352.32
500.62	357.01
500.98	361.99
501.34	367.05
501.71	372.34
502.07	377.78
502.43	383.38
502.79	389.16
503.16	395.25
503.52	401.47
503.88	407.85
504.24	414.46
504.60	421.36
504.97	428.48
505.33	435.77
505.69	443.47
506.05	451.18
506.41	459.03
506.78	467.13
507.14	475.59
507.50	484.27
507.86	493.22
508.22	502.36
508.59	511.56
508.95	521.16
509.31	530.93
509.67	541.06
510.03	551.34
510.39	561.92
510.75	572.68
511.12	583.69
511.48	594.99
511.84	606.41
512.20	617.96
512.56	629.87
512.92	642.12
513.28	654.48
513.64	666.96
514.00	679.67
514.37	692.67
514.73	705.77
515.09	718.87
515.45	732.28
515.81	745.93
516.17	759.91
516.53	774.04
516.89	788.23
517.25	802.46
517.61	817.01
517.97	831.49
518.33	845.99
518.69	860.85
519.05	875.86
519.41	891.10
519.77	906.71
520.13	922.28
520.49	937.68
520.85	953.12
521.21	968.85
521.57	985.19
521.93	1000.98
522.29	1017.47
522.65	1033.79
523.01	1049.91
523.37	1065.96
523.73	1082.13
524.09	1098.26
524.45	1114.64
524.81	1131.28
525.17	1148.13
525.53	1165.03
525.89	1181.94
526.25	1198.72
526.61	1215.18
526.97	1232.00
527.33	1248.41
527.68	1264.99
528.04	1281.51
528.40	1298.24
528.76	1315.31
529.12	1332.00
529.48	1348.86
529.84	1364.87
530.20	1381.49
530.56	1398.67
530.91	1416.23
531.27	1433.10
531.63	1449.66
531.99	1466.28
532.35	1482.33
532.71	1498.25
533.07	1514.62
533.42	1530.60
533.78	1546.70
534.14	1563.01
534.50	1578.43
534.86	1594.47
535.21	1609.66
535.57	1625.70
535.93	1641.39
536.29	1656.35
536.65	1671.56
537.00	1686.54
537.36	1701.83
537.72	1716.52
538.08	1731.02
538.44	1744.70
538.79	1758.69
539.15	1772.41
539.51	1786.24
539.87	1800.61
540.22	1814.45
540.58	1828.27
540.94	1841.74
541.29	1854.72
541.65	1867.51
542.01	1880.78
542.37	1893.23
542.72	1905.83
543.08	1917.62
543.44	1930.05
543.79	1941.44
544.15	1952.36
544.51	1963.93
544.87	1975.10
545.22	1985.90
545.58	1996.10
545.94	2006.06
546.29	2015.83
546.65	2025.74
547.01	2035.10
547.36	2043.94
547.72	2052.39
548.07	2060.31
548.43	2068.51
548.79	2076.60
549.14	2084.09
549.50	2091.51
549.86	2099.29
550.21	2106.60
550.57	2113.86
550.92	2120.30
551.28	2127.35
551.64	2134.54
551.99	2141.13
552.35	2147.22
552.70	2153.32
553.06	2159.25
553.41	2165.52
553.77	2171.68
554.13	2177.78
554.48	2183.79
554.84	2189.08
555.19	2194.40
555.55	2199.37
555.90	2203.79
556.26	2208.68
556.61	2213.46
556.97	2217.50
557.32	2221.42
557.68	2225.58
558.03	2229.81
558.39	2233.64
558.74	2238.21
559.10	2241.98
559.45	2245.62
559.81	2249.96
560.16	2253.77
560.52	2257.04
560.87	2260.53
561.23	2263.17
561.58	2266.16
561.94	2268.79
562.29	2271.36
562.64	2274.08
563.00	2276.88
563.35	2280.40
563.71	2283.39
564.06	2286.55
564.42	2289.58
564.77	2292.00
565.12	2294.23
565.48	2296.04
565.83	2297.72
566.19	2298.86
566.54	2299.73
566.89	2300.78
567.25	2301.13
567.60	2302.49
567.96	2304.05
568.31	2304.80
568.66	2305.76
569.02	2306.20
569.37	2306.39
569.72	2306.98
570.08	2307.06
570.43	2307.02
570.78	2306.18
571.14	2304.59
571.49	2303.22
571.84	2302.73
572.20	2301.46
572.55	2300.28
572.90	2298.64
573.26	2297.13
573.61	2295.37
573.96	2293.49
574.31	2290.37
574.67	2287.43
575.02	2283.69
575.37	2280.14
575.72	2276.09
576.08	2272.71
576.43	2269.35
576.78	2265.58
577.13	2262.48
577.49	2259.11
577.84	2255.44
578.19	2251.61
578.54	2247.75
578.90	2243.35
579.25	2237.61
579.60	2232.52
579.95	2227.51
580.30	2222.61
580.66	2217.49
581.01	2212.54
581.36	2207.58
581.71	2203.41
582.06	2198.87
582.42	2194.16
582.77	2188.99
583.12	2184.44
583.47	2179.57
583.82	2174.30
584.17	2169.03
584.53	2163.33
584.88	2157.75
585.23	2151.83
585.58	2146.42
585.93	2140.99
586.28	2136.24
586.63	2131.13
586.98	2126.10
587.34	2121.29
587.69	2116.12
588.04	2110.67
588.39	2104.84
588.74	2098.21
589.09	2091.91
589.44	2084.90
589.79	2079.06
590.14	2073.28
590.49	2066.54
590.84	2060.14
591.19	2054.16
591.54	2047.51
591.89	2040.04
592.25	2033.10
592.60	2025.87
592.95	2018.23
593.30	2010.89
593.65	2003.22
594.00	1996.20
594.35	1988.92
594.70	1980.83
595.05	1973.59
595.40	1966.29
595.75	1958.70
596.10	1952.36
596.45	1945.46
596.80	1939.26
597.15	1932.44
597.50	1925.23
597.85	1918.95
598.19	1912.23
598.54	1905.01
598.89	1898.46
599.24	1892.40
599.59	1885.63
599.94	1879.41
600.29	1873.11
600.64	1866.31
600.99	1858.72
601.34	1851.72
601.69	1844.63
602.04	1837.56
602.39	1830.18
602.74	1823.18
603.08	1816.49
603.43	1809.74
603.78	1802.51
604.13	1795.25
604.48	1787.94
604.83	1781.17
605.18	1773.96
605.53	1765.93
605.87	1757.93
606.22	1750.67
606.57	1742.85
606.92	1735.46
607.27	1728.30
607.62	1721.28
607.96	1714.06
608.31	1707.39
608.66	1699.83
609.01	1692.33
609.36	1684.75
609.70	1676.80
610.05	1668.80
610.40	1660.98
610.75	1652.70
611.10	1644.99
611.44	1636.68
611.79	1628.71
612.14	1620.05
612.49	1611.13
612.83	1602.77
613.18	1594.69
613.53	1586.54
613.88	1578.00
614.22	1569.77
614.57	1561.16
614.92	1553.10
615.27	1545.57
615.61	1537.29
615.96	1529.32
616.31	1521.58
616.65	1514.20
617.00	1506.56
617.35	1498.96
617.70	1490.59
618.04	1482.01
618.39	1473.68
618.74	1466.06
619.08	1457.73
619.43	1450.16
619.78	1443.08
620.12	1435.87
620.47	1428.29
620.82	1420.07
621.16	1412.66
621.51	1405.09
621.85	1397.46
622.20	1388.94
622.55	1380.56
622.89	1372.72
623.24	1365.06
623.59	1357.71
623.93	1350.39
624.28	1343.13
624.62	1335.48
624.97	1328.41
625.32	1321.65
625.66	1314.77
626.01	1307.53
626.35	1300.06
626.70	1292.22
627.04	1284.45
627.39	1276.76
627.73	1269.37
628.08	1262.50
628.43	1255.22
628.77	1247.77
629.12	1240.17
629.46	1233.06
629.81	1225.69
630.15	1218.45
630.50	1211.05
630.84	1202.94
631.19	1194.95
631.53	1187.46
631.88	1179.93
632.22	1172.29
632.57	1165.11
632.91	1157.60
633.26	1150.29
633.60	1142.92
633.95	1135.95
634.29	1128.96
634.64	1122.17
634.98	1114.72
635.32	1107.66
635.67	1101.10
636.01	1094.60
636.36	1087.90
636.70	1081.32
637.05	1074.78
637.39	1068.48
637.73	1062.03
638.08	1056.20
638.42	1050.14
638.77	1043.71
639.11	1037.14
639.45	1030.87
639.80	1024.19
640.14	1017.66
640.49	1011.13
640.83	1004.86
641.17	998.49
641.52	992.18
641.86	985.88
642.20	980.15
642.55	973.80
642.89	967.25
643.23	960.71
643.58	954.89
643.92	948.68
644.26	942.57
644.61	936.55
644.95	930.50
645.29	923.85
645.64	917.17
645.98	910.90
646.32	905.13
646.66	899.08
647.01	893.32
647.35	887.68
647.69	881.84
648.04	876.28
648.38	870.61
648.72	864.67
649.06	858.55
649.41	852.57
649.75	846.66
650.09	840.77
650.43	834.92
650.78	828.71
651.12	822.79
651.46	817.07
651.80	811.15
652.14	805.67
652.49	800.36
652.83	795.22
653.17	789.49
653.51	783.70
653.85	778.34
654.20	772.69
654.54	766.69
654.88	760.96
655.22	755.18
655.56	749.41
655.90	744.01
656.25	738.82
656.59	733.51
656.93	728.38
657.27	723.19
657.61	717.82
657.95	712.76
658.29	707.70
658.64	702.46
658.98	697.28
659.32	691.84
659.66	686.60
660.00	681.21
660.34	676.27
660.68	671.43
661.02	666.33
661.36	661.62
661.70	657.15
662.05	652.81
662.39	648.46
662.73	644.06
663.07	639.59
663.41	635.14
663.75	630.63
664.09	626.03
664.43	621.69
664.77	617.55
665.11	613.38
665.45	609.29
665.79	605.26
666.13	601.14
666.47	597.12
666.81	593.00
667.15	588.98
667.49	585.18
667.83	581.36
668.17	577.45
668.51	573.41
668.85	569.45
669.19	565.64
669.53	561.76
669.87	557.87
670.21	554.20
670.55	550.56
670.89	547.17
671.23	543.85
671.57	540.37
671.91	536.87
672.25	533.38
672.58	529.89
672.92	526.55
673.26	523.41
673.60	520.31
673.94	517.25
674.28	514.34
674.62	511.36
674.96	508.31
675.30	505.42
675.64	502.52
675.97	499.77
676.31	496.91
676.65	494.01
676.99	491.35
677.33	488.51
677.67	485.74
678.01	482.74
678.34	479.70
678.68	476.85
679.02	474.06
679.36	471.28
679.70	468.57
680.04	465.76
680.37	462.87
680.71	460.08
681.05	457.44
681.39	454.74
681.73	452.09
682.06	449.56
682.40	447.05
682.74	444.56
683.08	442.00
683.42	439.42
683.75	436.98
684.09	434.47
684.43	432.04
684.77	429.55
685.10	427.22
685.44	424.94
685.78	422.59
686.12	420.32
686.45	418.05
686.79	415.72
687.13	413.56
687.46	411.44
687.80	409.30
688.14	407.06
688.48	404.96
688.81	402.71
689.15	400.60
689.49	398.43
689.82	396.34
690.16	394.22
690.50	392.27
690.83	390.30
691.17	388.33
691.51	386.43
691.84	384.61
692.18	382.72
692.52	380.72
692.85	378.90
693.19	377.05
693.52	375.25
693.86	373.47
694.20	371.65
694.53	369.81
694.87	367.99
695.21	366.23
695.54	364.48
695.88	362.78
696.21	361.02
696.55	359.31
696.88	357.63
697.22	356.05
697.56	354.43
697.89	352.76
698.23	351.13
698.56	349.53
698.90	347.93
699.23	346.23
699.57	344.74
699.90	343.14
700.24	341.57
700.58	340.04
700.91	338.54
701.25	337.13
701.58	335.76
701.92	334.40
702.25	333.03
702.59	331.65
702.92	330.29
703.26	329.01
703.59	327.75
703.93	326.54
704.26	325.28
704.60	323.95
704.93	322.68
705.26	321.47
705.60	320.30
705.93	319.12
706.27	318.09
706.60	317.03
706.94	315.98
707.27	314.84
707.61	313.78
707.94	312.76
708.27	311.64
708.61	310.56
708.94	309.53
709.28	308.54
709.61	307.60
709.94	306.66
710.28	305.60
710.61	304.64
710.95	303.60
711.28	302.69
711.61	301.75
711.95	300.84
712.28	299.86
712.61	298.86
712.95	297.94
713.28	297.07
713.61	296.16
713.95	295.25
714.28	294.45
714.61	293.56
714.95	292.72
715.28	291.88
715.61	291.01
715.95	290.19
716.28	289.40
716.61	288.54
716.95	287.75
717.28	287.07
717.61	286.28
717.94	285.54
718.28	284.75
718.61	284.08
718.94	283.39
719.27	282.77
719.61	282.16
719.94	281.52
720.27	280.84
720.60	280.21
720.94	279.59
721.27	279.00
721.60	278.42
721.93	277.79
722.27	277.25
722.60	276.74
722.93	276.15
723.26	275.59
723.59	275.05
723.93	274.51
724.26	273.95
724.59	273.40
724.92	272.89
725.25	272.38
725.59	271.85
725.92	271.37
726.25	270.84
726.58	270.34
726.91	269.83
727.24	269.37
727.57	268.87
727.91	268.36
728.24	267.90
728.57	267.45
728.90	267.05
729.23	266.56
729.56	266.10
729.89	265.65
730.22	265.17
730.55	264.68
730.89	264.23
731.22	263.79
731.55	263.36
731.88	262.93
732.21	262.49
732.54	262.05
732.87	261.61
733.20	261.22
733.53	260.82
733.86	260.46
734.19	260.05
734.52	259.66
734.85	259.35
735.18	258.88
735.51	258.52
735.84	258.15
736.17	257.81
736.50	257.47
736.83	257.22
737.16	256.88
737.49	256.57
737.82	256.19
738.15	255.83
738.48	255.47
738.81	255.15
739.14	254.83
739.47	254.54
739.80	254.19
740.13	253.88
740.46	253.57
740.79	253.24
741.12	252.92
741.45	252.62
741.78	252.28
742.11	252.04
742.44	251.69
742.77	251.41
743.10	251.10
743.43	250.76
743.75	250.37
744.08	250.23
744.41	249.96
744.74	249.76
745.07	249.49
745.40	249.27
745.73	249.02
746.06	248.76
746.39	248.50
746.71	248.21
747.04	247.97
747.37	247.70
747.70	247.46
748.03	247.20
748.36	246.96
748.68	246.74
749.01	246.48
749.34	246.25
749.67	245.99
750.00	245.77
750.33	245.60
750.65	245.42
750.98	245.08
751.31	244.88
751.64	244.63
751.97	244.46
752.29	244.24
752.62	243.99
752.95	243.77
753.28	243.56
753.60	243.38
753.93	243.20
754.26	243.00
754.59	242.80
754.91	242.59
755.24	242.40
755.57	242.21
755.90	242.02
756.22	241.82
756.55	241.62
756.88	241.41
757.20	241.18
757.53	240.97
757.86	240.78
758.19	240.60
758.51	240.44
758.84	240.23
759.17	240.10
759.49	239.93
759.82	239.84
760.15	239.70
760.47	239.57
760.80	239.35
761.13	239.21
761.45	239.06
761.78	238.94
762.11	238.79
762.43	238.63
762.76	238.50
763.08	238.42
763.41	238.31
763.74	238.19
764.06	238.05
764.39	237.93
764.71	237.78
765.04	237.64
765.37	237.48
765.69	237.34
766.02	237.20
766.34	237.07
766.67	236.94
767.00	236.82
767.32	236.72
767.65	236.70
767.97	236.57
768.30	236.43
768.62	236.33
768.95	236.20
769.27	236.11
769.60	235.98
769.92	235.85
770.25	235.74
770.57	235.60
770.90	235.51
771.22	235.37
771.55	235.31
771.87	235.24
772.20	235.17
772.52	235.18
772.85	235.19
773.17	235.13
773.50	235.00
773.82	234.90
774.15	234.76
774.47	234.62
774.80	234.53
775.12	234.48
775.45	234.37
775.77	234.32
776.09	234.24
776.42	234.17
776.74	234.11
777.07	234.05
777.39	234.00
777.72	233.92
778.04	233.92
778.36	233.83
778.69	233.76
779.01	233.67
779.33	233.53
779.66	233.37
779.98	233.28
780.31	233.23
780.63	233.20
780.95	233.14
781.28	233.06
781.60	232.97
781.92	232.91
782.25	232.84
782.57	232.81
782.89	232.75
783.22	232.70
783.54	232.64
783.86	232.55
784.19	232.50
784.51	232.49
784.83	232.39
785.16	232.34
785.48	232.29
785.80	232.26
786.12	232.21
786.45	232.13
786.77	232.09
787.09	232.04
787.42	231.96
787.74	231.94
788.06	231.92
788.38	231.90
788.71	231.87
789.03	231.85
789.35	231.77
789.67	231.71
789.99	231.66
790.32	231.58
790.64	231.57
790.96	231.59
791.28	231.50
791.61	231.45
791.93	231.39
792.25	231.33
792.57	231.37
792.89	231.26
793.21	231.24
793.54	231.20
793.86	231.16
794.18	231.13
794.50	231.06
794.82	231.01
795.14	230.96
795.47	230.92
795.79	230.85
796.11	230.79
796.43	230.76
796.75	230.75
797.07	230.74
797.39	230.70
797.71	230.61
798.04	230.58
798.36	230.56
798.68	230.53
799.00	230.51
799.32	230.41
799.64	230.44
799.96	230.43
800.28	230.40
800.60	230.36
800.92	230.32
801.24	230.27
801.56	230.27
801.89	230.23
802.21	230.18
802.53	230.16
802.85	230.18
803.17	230.17
803.49	230.11
803.81	230.04
804.13	229.99
804.45	229.92
804.77	229.89
805.09	229.85
805.41	229.80
805.73	229.78
806.05	229.72
806.37	229.69
806.69	229.65
807.01	229.60
807.33	229.59
807.65	229.54
807.97	229.58
808.28	229.53
808.60	229.53
808.92	229.54
809.24	229.57
809.56	229.52
809.88	229.48
810.20	229.44
810.52	229.46
810.84	229.43
811.16	229.42
811.48	229.40
811.80	229.42
812.12	229.40
812.43	229.37
812.75	229.35
813.07	229.32
813.39	229.33
813.71	229.29
814.03	229.26
814.35	229.25
814.67	229.20
814.98	229.17
815.30	229.13
815.62	229.09
815.94	228.98
816.26	229.01
816.58	228.94
816.89	228.93
817.21	228.89
817.53	228.92
817.85	228.92
818.17	228.93
818.48	228.88
818.80	228.89
819.12	228.89
819.44	228.86
819.76	228.81
820.07	228.79
820.39	228.82
820.71	228.81
821.03	228.83
821.34	228.80
821.66	228.81
821.98	228.83
822.30	228.83
822.61	228.88
822.93	228.84
823.25	228.87
823.57	228.87
823.88	228.89
824.20	228.82
824.52	228.81
824.83	228.74
825.15	228.75
825.47	228.73
825.79	228.70
826.10	228.67
826.42	228.67
826.74	228.63
827.05	228.61
827.37	228.58
827.69	228.55
828.00	228.55
828.32	228.54
828.64	228.49
828.95	228.52
829.27	228.46
829.58	228.45
829.90	228.45
830.22	228.44
830.53	228.41
830.85	228.43
831.17	228.41
831.48	228.41
831.80	228.40
832.11	228.36
832.43	228.35
832.75	228.36
833.06	228.42
833.38	228.39
833.69	228.39
834.01	228.40
834.32	228.39
834.64	228.37
834.96	228.34
835.27	228.32
835.59	228.27
835.90	228.26
836.22	228.23
836.53	228.19
836.85	228.18
837.16	228.29
837.48	228.26
837.79	228.27
838.11	228.29
838.42	228.29
838.74	228.33
839.05	228.31
839.37	228.29
839.68	228.23
840.00	228.22
840.31	228.23
840.63	228.17
840.94	228.14
841.26	228.11
841.57	228.15
841.88	228.19
842.20	228.19
842.51	228.18
842.83	228.16
843.14	228.25
843.46	228.23
843.77	228.15
844.08	228.14
844.40	228.11
844.71	228.11
845.03	228.08
845.34	228.06
845.65	228.05
845.97	228.04
846.28	228.00
846.60	227.99
846.91	227.96
847.22	227.98
847.54	228.03
847.85	228.03
848.16	227.99
848.48	227.96
848.79	227.98
849.10	227.99
849.42	228.02
849.73	227.90
850.04	227.88
850.36	227.83
850.67	227.84
850.98	227.82
851.30	227.78
851.61	227.78
851.92	227.75
852.23	227.79
852.55	227.79
852.86	227.81
853.17	227.84
853.49	227.87
853.80	227.88
854.11	227.84
854.42	227.86
854.74	227.84
855.05	227.85
855.36	227.79
855.67	227.79
855.99	227.74
856.30	227.86
856.61	227.87
856.92	227.84
857.23	227.83
857.55	227.80
857.86	227.78
858.17	227.78
858.48	227.78
858.79	227.75
859.11	227.77
859.42	227.76
859.73	227.71
860.04	227.69
860.35	227.64
860.66	227.62
860.98	227.56
861.29	227.59
861.60	227.56
861.91	227.58
862.22	227.55
862.53	227.53
862.84	227.41
863.16	227.42
863.47	227.43
863.78	227.46
864.09	227.46
864.40	227.51
864.71	227.53
865.02	227.52
865.33	227.49
865.64	227.45
865.95	227.45
866.27	227.53
866.58	227.53
866.89	227.55
867.20	227.56
867.51	227.57
867.82	227.54
868.13	227.57
868.44	227.53
868.75	227.58
869.06	227.59
869.37	227.61
869.68	227.59
869.99	227.61
870.30	227.58
870.61	227.62
870.92	227.58
871.23	227.59
871.54	227.61
871.85	227.63
872.16	227.65
872.47	227.61
872.78	227.55
873.09	227.59
873.40	227.58
873.71	227.59
874.02	227.61
874.33	227.60
874.64	227.58
874.95	227.65
875.26	227.62
875.56	227.67
875.87	227.68
876.18	227.71
876.49	227.82
876.80	227.84
877.11	227.83
877.42	227.84
877.73	227.82
878.04	227.80
878.35	227.81
878.66	227.81
878.96	227.86
879.27	227.86
879.58	227.85
879.89	227.85
880.20	227.90
880.51	227.90
880.82	227.94
881.12	227.93
881.43	227.86
881.74	227.83
882.05	227.80
882.36	227.76
882.67	227.74
882.97	227.61
883.28	227.58
883.59	227.56
883.90	227.56
884.21	227.58
884.51	227.60
884.82	227.58
885.13	227.60
885.44	227.58
885.74	227.58
886.05	227.54
886.36	227.54
886.67	227.48
886.98	227.55
887.28	227.51
887.59	227.50
887.90	227.55
888.20	227.54
888.51	227.57
888.82	227.57
889.13	227.57
889.43	227.65
889.74	227.64
890.05	227.62
890.35	227.60
890.66	227.57
890.97	227.51
891.28	227.48
891.58	227.48
891.89	227.49
892.20	227.47
892.50	227.44
892.81	227.43
893.12	227.44
893.42	227.37
893.73	227.37
894.04	227.40
894.34	227.39
894.65	227.39
894.95	227.35
895.26	227.35
895.57	227.35
895.87	227.26
896.18	227.29
896.48	227.31
896.79	227.31
897.10	227.32
897.40	227.31
897.71	227.32
898.01	227.31
898.32	227.30
898.63	227.28
898.93	227.32
899.24	227.34
899.54	227.30
899.85	227.29
900.15	227.28
900.46	227.26
900.76	227.25
901.07	227.26
901.38	227.27
901.68	227.31
901.99	227.28
902.29	227.29
902.60	227.26
902.90	227.23
903.21	227.26
903.51	227.22
903.82	227.27
904.12	227.30
904.43	227.27
904.73	227.27
905.03	227.27
905.34	227.36
905.64	227.35
905.95	227.38
906.25	227.38
906.56	227.39
906.86	227.39
907.17	227.38
907.47	227.35
907.77	227.37
908.08	227.35
908.38	227.36
908.69	227.35
908.99	227.38
909.30	227.38
909.60	227.40
909.90	227.43
910.21	227.42
910.51	227.38
910.81	227.40
911.12	227.43
911.42	227.45
911.73	227.36
912.03	227.36
912.33	227.37
912.64	227.33
912.94	227.35
913.24	227.35
913.55	227.32
913.85	227.32
914.15	227.29
914.46	227.30
914.76	227.31
915.06	227.33
915.37	227.32
915.67	227.37
915.97	227.34
916.27	227.36
916.58	227.36
916.88	227.36
917.18	227.37
917.49	227.39
917.79	227.37
918.09	227.35
918.39	227.40
918.70	227.38
919.00	227.38
919.30	227.39
919.60	227.37
919.91	227.37
920.21	227.41
920.51	227.43
920.81	227.42
921.12	227.43
921.42	227.40
921.72	227.37
922.02	227.32
922.32	227.32
922.63	227.29
922.93	227.34
923.23	227.35
923.53	227.32
923.83	227.26
924.13	227.29
924.44	227.30
924.74	227.27
925.04	227.28
925.34	227.28
925.64	227.23
925.94	227.22
926.24	227.29
926.55	227.26
926.85	227.23
927.15	227.24
927.45	227.23
927.75	227.23
928.05	227.24
928.35	227.25
928.65	227.25
928.95	227.26
929.26	227.21
929.56	227.19
929.86	227.20
930.16	227.23
930.46	227.19
930.76	227.16
931.06	227.14
931.36	227.10
931.66	227.10
931.96	227.12
932.26	227.12
932.56	227.04
932.86	227.02
933.16	227.03
933.46	227.00
933.76	226.98
934.06	227.02
934.36	227.05
934.66	227.05
934.96	227.04
935.26	227.01
935.56	227.03
935.86	227.03
936.16	227.01
936.46	227.02
936.76	227.00
937.06	227.01
937.36	227.03
937.66	227.08
937.96	227.10
938.26	227.12
938.56	227.14
938.86	227.18
939.16	227.21
939.46	227.22
939.76	227.24
940.06	227.26
940.35	227.26
940.65	227.20
940.95	227.22
941.25	227.18
941.55	227.20
941.85	227.19
942.15	227.20
942.45	227.22
942.75	227.22
943.04	227.26
943.34	227.24
943.64	227.18
943.94	227.16
944.24	227.18
944.54	227.15
944.84	227.11
945.13	227.09
945.43	227.07
945.73	227.09
946.03	227.09
946.33	227.07
946.62	227.02
946.92	227.03
947.22	227.04
947.52	227.09
947.82	227.08
948.11	227.09
948.41	227.09
948.71	227.12
949.01	227.11
949.31	227.09
949.60	227.11
949.90	227.20
950.20	227.15
950.50	227.15
950.79	227.16
951.09	227.19
951.39	227.20
951.69	227.18
951.98	227.20
952.28	227.20
952.58	227.18
952.87	227.19
953.17	227.19
953.47	227.17
953.76	227.16
954.06	227.17
954.36	227.15
954.66	227.12
954.95	227.10
955.25	227.10
955.55	227.11
955.84	227.11
956.14	227.07
956.44	227.08
956.73	227.07
957.03	227.08
957.32	227.05
957.62	227.03
957.92	227.03
958.21	227.02
958.51	227.10
958.81	227.12
959.10	227.13
959.40	227.17
959.69	227.16
959.99	227.18
960.29	227.16
960.58	227.16
960.88	227.21
961.17	227.19
961.47	227.18
961.76	227.15
962.06	227.17
962.36	227.17
962.65	227.15
962.95	227.12
963.24	227.08
963.54	227.10
963.83	227.14
964.13	227.15
964.42	227.09
964.72	227.03
965.01	227.03
965.31	227.04
965.60	226.97
965.90	227.04
966.19	227.03
966.49	227.03
966.78	227.01
967.08	227.02
967.37	227.04
967.67	227.06
967.96	227.08
968.26	227.06
968.55	227.10
968.85	227.15
969.14	227.20
969.43	227.21
969.73	227.19
970.02	227.19
970.32	227.22
970.61	227.24
970.91	227.21
971.20	227.18
971.49	227.18
971.79	227.24
972.08	227.17
972.38	227.19
972.67	227.21
972.96	227.23
973.26	227.20
973.55	227.23
973.85	227.21
974.14	227.21
974.43	227.22
974.73	227.14
975.02	227.14
975.31	227.14
975.61	227.13
975.90	227.16
976.19	227.12
976.49	227.14
976.78	227.14
977.07	227.14
977.37	227.17
977.66	227.19
977.95	227.16
978.24	227.16
978.54	227.16
978.83	227.16
979.12	227.15
979.42	227.15
979.71	227.13
980.00	227.12
980.29	227.13
980.59	227.12
980.88	227.17
981.17	227.14
981.46	227.12
981.76	227.14
982.05	227.13
982.34	227.15
982.63	227.14
982.93	227.12
983.22	227.16
983.51	227.16
983.80	227.15
984.09	227.20
984.39	227.21
984.68	227.21
984.97	227.19
985.26	227.19
985.55	227.18
985.85	227.18
986.14	227.20
986.43	227.23
986.72	227.21
987.01	227.19
987.30	227.25
987.59	227.24
987.89	227.25
988.18	227.24
988.47	227.20
988.76	227.18
989.05	227.17
989.34	227.13
989.63	227.15
989.92	227.13
990.22	227.09
990.51	227.08
990.80	227.07
991.09	227.05
991.38	227.06
991.67	227.04
991.96	226.98
992.25	226.96
992.54	226.89
992.83	226.90
993.12	226.87
993.41	226.87
993.70	226.91
993.99	226.90
994.28	226.89
994.58	226.91
994.87	226.93
995.16	226.93
995.45	226.93
995.74	226.88
996.03	226.92
996.32	226.89
996.61	226.90
996.90	226.89
997.19	226.92
997.48	226.90
997.77	226.90
998.06	226.94
998.34	226.92
998.63	226.93
998.92	226.92
999.21	226.94
999.50	226.93
999.79	226.89
1000.08	226.89
1000.37	226.87
1000.66	226.85
1000.95	226.85
1001.24	226.89
1001.53	226.91
1001.82	226.93
1002.11	226.90
1002.40	226.91
1002.68	226.94
1002.97	227.01
1003.26	226.98
1003.55	227.01
1003.84	226.99
1004.13	227.02
1004.42	227.04
1004.71	227.04
1004.99	227.07
1005.28	227.07
1005.57	227.04
1005.86	227.04
1006.15	227.03
1006.44	227.03
1006.72	227.04
1007.01	227.04
1007.30	227.01
1007.59	226.99
1007.88	226.99
1008.17	226.99
1008.45	227.00
1008.74	226.96
1009.03	226.92
1009.32	226.93
1009.60	226.92
1009.89	226.92
1010.18	226.88
1010.47	226.90
1010.76	226.90
1011.04	226.87
1011.33	226.90
1011.62	226.93
1011.91	226.93
1012.19	226.98
1012.48	226.99
1012.77	227.01
1013.05	227.07
1013.34	227.05
1013.63	227.04
1013.92	227.07
1014.20	227.06
1014.49	227.06
1014.78	227.09
1015.06	227.06
1015.35	227.03
1015.64	227.06
1015.92	227.08
1016.21	227.10
1016.50	227.10
1016.78	227.11
1017.07	227.13
1017.36	227.12
1017.64	227.11
1017.93	227.11
1018.22	227.09
1018.50	227.10
1018.79	227.10
1019.08	227.03
1019.36	227.06
1019.65	227.07
1019.93	227.07
1020.22	227.10
1020.51	227.14
1020.79	227.10
1021.08	227.25
1021.36	226.92
1021.65	227.19
1021.94	226.94
1022.22	226.91
1022.51	227.04
1022.79	227.45
1023.08	227.38
1023.36	228.18
1023.65	226.54
>>>>>End Processed Spectral Data<<<<<
