SpectraSuite Data File
++++++++++++++++++++++++++++++++++++
Date: Fri Feb 01 17:42:50 EST 2013
User: group
Dark Spectrum Present: No
Reference Spectrum Present: No
Number of Sampled Component Spectra: 1
Spectrometers: USB2E7196
Integration Time (usec): 35000 (USB2E7196)
Spectra Averaged: 100 (USB2E7196)
Boxcar Smoothing: 10 (USB2E7196)
Correct for Electrical Dark: No (USB2E7196)
Strobe/Lamp Enabled: No (USB2E7196)
Correct for Detector Non-linearity: No (USB2E7196)
Correct for Stray Light: No (USB2E7196)
Number of Pixels in Processed Spectrum: 2048
>>>>>Begin Processed Spectral Data<<<<<
339.09	0.00
339.48	212.43
339.86	214.05
340.24	215.69
340.63	216.67
341.01	219.83
341.39	219.63
341.78	221.06
342.16	222.24
342.54	222.21
342.93	211.00
343.31	221.64
343.69	222.22
344.07	222.67
344.46	223.06
344.84	223.47
345.22	223.67
345.60	223.93
345.99	224.09
346.37	224.20
346.75	224.33
347.13	224.42
347.52	224.46
347.90	224.55
348.28	224.60
348.66	224.67
349.05	224.64
349.43	224.70
349.81	224.76
350.19	224.83
350.57	224.86
350.96	224.93
351.34	225.04
351.72	225.11
352.10	225.21
352.48	225.31
352.87	225.36
353.25	225.44
353.63	225.49
354.01	225.58
354.39	225.67
354.77	225.72
355.15	225.84
355.54	225.93
355.92	225.98
356.30	226.04
356.68	226.17
357.06	226.27
357.44	226.35
357.82	226.40
358.20	226.48
358.58	226.56
358.97	226.61
359.35	226.69
359.73	226.76
360.11	226.85
360.49	226.92
360.87	226.95
361.25	227.03
361.63	227.11
362.01	227.14
362.39	227.17
362.77	227.24
363.15	227.24
363.53	227.29
363.91	227.31
364.29	227.35
364.67	227.26
365.05	227.28
365.43	227.26
365.81	227.29
366.19	227.34
366.57	227.39
366.95	227.37
367.33	227.33
367.71	227.31
368.09	227.30
368.47	227.25
368.85	227.24
369.23	227.23
369.61	227.15
369.99	227.18
370.37	227.16
370.75	227.16
371.13	227.13
371.51	227.05
371.89	227.03
372.27	227.00
372.65	226.96
373.03	226.92
373.41	226.85
373.78	226.78
374.16	226.64
374.54	226.54
374.92	226.48
375.30	226.47
375.68	226.37
376.06	226.30
376.44	226.26
376.82	226.20
377.19	226.15
377.57	226.10
377.95	226.00
378.33	225.93
378.71	225.81
379.09	225.75
379.47	225.75
379.84	225.67
380.22	225.57
380.60	225.49
380.98	225.44
381.36	225.38
381.73	225.33
382.11	225.32
382.49	225.28
382.87	225.23
383.25	225.13
383.62	225.22
384.00	225.15
384.38	225.10
384.76	225.07
385.13	225.02
385.51	224.97
385.89	224.91
386.27	224.89
386.64	224.87
387.02	224.83
387.40	224.76
387.78	224.73
388.15	224.70
388.53	224.69
388.91	224.65
389.29	224.61
389.66	224.59
390.04	224.55
390.42	224.52
390.79	224.51
391.17	224.49
391.55	224.38
391.92	224.38
392.30	224.38
392.68	224.33
393.05	224.32
393.43	224.33
393.81	224.34
394.18	224.31
394.56	224.32
394.94	224.35
395.31	224.37
395.69	224.41
396.06	224.44
396.44	224.48
396.82	224.49
397.19	224.59
397.57	224.60
397.95	224.65
398.32	224.68
398.70	224.73
399.07	224.80
399.45	224.81
399.82	224.87
400.20	224.90
400.58	225.00
400.95	225.03
401.33	225.14
401.70	225.28
402.08	225.37
402.45	225.45
402.83	225.55
403.20	225.64
403.58	225.75
403.95	225.88
404.33	225.97
404.71	226.07
405.08	226.24
405.46	226.40
405.83	226.52
406.21	226.66
406.58	226.86
406.96	227.03
407.33	227.27
407.70	227.46
408.08	227.75
408.45	227.96
408.83	228.25
409.20	228.46
409.58	228.70
409.95	228.99
410.33	229.29
410.70	229.57
411.08	229.91
411.45	230.27
411.82	230.63
412.20	231.05
412.57	231.54
412.95	231.87
413.32	232.36
413.69	232.86
414.07	233.36
414.44	233.89
414.82	234.43
415.19	235.09
415.56	235.75
415.94	236.38
416.31	237.14
416.68	237.87
417.06	238.71
417.43	239.49
417.81	240.39
418.18	241.29
418.55	242.27
418.93	243.30
419.30	244.35
419.67	245.42
420.04	246.56
420.42	247.77
420.79	249.22
421.16	250.56
421.54	251.97
421.91	253.45
422.28	254.94
422.66	256.57
423.03	258.07
423.40	259.65
423.77	261.33
424.15	263.02
424.52	264.79
424.89	266.70
425.26	268.56
425.64	270.30
426.01	272.24
426.38	274.24
426.75	276.24
427.13	278.28
427.50	280.46
427.87	282.70
428.24	284.91
428.61	286.97
428.99	289.32
429.36	291.82
429.73	294.30
430.10	296.70
430.47	299.12
430.85	301.64
431.22	304.31
431.59	307.15
431.96	309.84
432.33	312.78
432.70	315.57
433.08	318.93
433.45	322.06
433.82	325.14
434.19	328.58
434.56	331.91
434.93	335.06
435.30	338.16
435.68	341.58
436.05	344.96
436.42	348.29
436.79	351.27
437.16	354.48
437.53	357.83
437.90	361.22
438.27	364.47
438.64	367.85
439.01	370.92
439.38	373.59
439.75	376.20
440.13	379.17
440.50	382.03
440.87	384.21
441.24	386.56
441.61	389.18
441.98	390.94
442.35	393.11
442.72	395.34
443.09	397.53
443.46	398.73
443.83	399.39
444.20	400.03
444.57	401.06
444.94	401.45
445.31	401.90
445.68	402.29
446.05	402.43
446.42	401.99
446.79	401.53
447.16	401.04
447.53	400.67
447.90	399.34
448.27	397.93
448.64	396.06
449.01	394.69
449.37	392.31
449.74	390.07
450.11	387.37
450.48	384.41
450.85	381.40
451.22	378.90
451.59	376.52
451.96	374.22
452.33	371.11
452.70	368.29
453.07	364.87
453.43	361.46
453.80	358.18
454.17	354.98
454.54	351.92
454.91	348.67
455.28	345.46
455.65	342.46
456.02	339.54
456.38	336.99
456.75	333.82
457.12	331.16
457.49	328.50
457.86	325.92
458.23	323.72
458.59	321.24
458.96	318.74
459.33	316.53
459.70	314.27
460.07	312.43
460.43	310.36
460.80	308.44
461.17	306.70
461.54	304.89
461.91	303.20
462.27	301.51
462.64	300.00
463.01	298.40
463.38	296.87
463.74	295.23
464.11	293.82
464.48	292.58
464.85	291.25
465.21	290.21
465.58	289.12
465.95	287.83
466.32	286.77
466.68	285.66
467.05	284.63
467.42	283.58
467.78	282.46
468.15	281.41
468.52	280.61
468.88	279.58
469.25	278.64
469.62	277.87
469.98	277.08
470.35	276.31
470.72	275.57
471.08	274.75
471.45	274.13
471.82	273.50
472.18	272.76
472.55	272.23
472.92	271.59
473.28	271.04
473.65	270.50
474.02	270.01
474.38	269.58
474.75	269.13
475.11	268.69
475.48	268.33
475.85	268.06
476.21	267.76
476.58	267.50
476.94	267.32
477.31	267.16
477.67	266.92
478.04	266.78
478.41	266.69
478.77	266.73
479.14	266.61
479.50	266.56
479.87	266.61
480.23	266.66
480.60	266.73
480.96	266.76
481.33	266.95
481.69	267.08
482.06	267.24
482.42	267.42
482.79	267.68
483.15	268.01
483.52	268.35
483.88	268.70
484.25	269.10
484.61	269.47
484.98	269.84
485.34	270.40
485.71	270.95
486.07	271.53
486.44	272.04
486.80	272.74
487.17	273.46
487.53	274.28
487.90	275.16
488.26	276.08
488.62	277.09
488.99	278.04
489.35	279.10
489.72	280.24
490.08	281.50
490.44	282.76
490.81	284.08
491.17	285.44
491.54	286.95
491.90	288.48
492.26	290.16
492.63	291.96
492.99	293.75
493.36	295.70
493.72	297.80
494.08	299.99
494.45	302.26
494.81	304.68
495.17	307.16
495.54	309.73
495.90	312.47
496.26	315.30
496.63	318.31
496.99	321.51
497.35	324.81
497.72	328.22
498.08	331.80
498.44	335.55
498.80	339.56
499.17	343.67
499.53	347.98
499.89	352.46
500.26	357.05
500.62	361.84
500.98	366.89
501.34	372.08
501.71	377.49
502.07	383.08
502.43	388.79
502.79	394.74
503.16	400.95
503.52	407.34
503.88	413.84
504.24	420.62
504.60	427.66
504.97	434.95
505.33	442.38
505.69	450.23
506.05	458.23
506.41	466.26
506.78	474.58
507.14	483.17
507.50	492.13
507.86	501.35
508.22	510.77
508.59	520.17
508.95	529.89
509.31	539.92
509.67	550.24
510.03	560.81
510.39	571.65
510.75	582.74
511.12	593.98
511.48	605.55
511.84	617.34
512.20	629.19
512.56	641.44
512.92	653.97
513.28	666.69
513.64	679.41
514.00	692.44
514.37	705.72
514.73	719.13
515.09	732.46
515.45	746.06
515.81	759.97
516.17	774.22
516.53	788.75
516.89	803.39
517.25	817.98
517.61	832.73
517.97	847.51
518.33	862.27
518.69	877.46
519.05	892.84
519.41	908.39
519.77	924.31
520.13	940.28
520.49	956.16
520.85	972.01
521.21	988.23
521.57	1005.02
521.93	1021.35
522.29	1038.08
522.65	1054.87
523.01	1071.57
523.37	1088.16
523.73	1104.95
524.09	1121.71
524.45	1138.50
524.81	1155.81
525.17	1173.19
525.53	1190.68
525.89	1208.20
526.25	1225.67
526.61	1242.73
526.97	1260.17
527.33	1277.35
527.68	1294.47
528.04	1311.67
528.40	1328.75
528.76	1346.49
529.12	1363.71
529.48	1381.19
529.84	1397.98
530.20	1415.29
530.56	1433.02
530.91	1451.21
531.27	1468.84
531.63	1486.05
531.99	1503.42
532.35	1520.27
532.71	1537.02
533.07	1554.11
533.42	1570.93
533.78	1587.81
534.14	1604.96
534.50	1621.11
534.86	1637.72
535.21	1653.79
535.57	1670.49
535.93	1687.06
536.29	1702.87
536.65	1718.82
537.00	1734.54
537.36	1750.98
537.72	1766.36
538.08	1781.84
538.44	1796.59
538.79	1811.48
539.15	1825.99
539.51	1840.63
539.87	1855.92
540.22	1870.65
540.58	1885.36
540.94	1899.60
541.29	1913.38
541.65	1927.09
542.01	1941.28
542.37	1954.82
542.72	1968.41
543.08	1981.32
543.44	1994.81
543.79	2007.15
544.15	2019.16
544.51	2031.76
544.87	2043.67
545.22	2055.72
545.58	2067.15
545.94	2078.01
546.29	2088.98
546.65	2100.10
547.01	2110.62
547.36	2120.43
547.72	2130.01
548.07	2139.15
548.43	2148.41
548.79	2157.42
549.14	2166.34
549.50	2174.75
549.86	2183.34
550.21	2191.72
550.57	2200.07
550.92	2207.74
551.28	2215.83
551.64	2224.11
551.99	2231.81
552.35	2239.11
552.70	2246.45
553.06	2253.47
553.41	2260.89
553.77	2267.86
554.13	2274.95
554.48	2282.19
554.84	2288.92
555.19	2295.04
555.55	2301.18
555.90	2306.74
556.26	2312.89
556.61	2318.34
556.97	2323.97
557.32	2329.18
557.68	2334.31
558.03	2339.46
558.39	2344.16
558.74	2349.77
559.10	2354.68
559.45	2359.23
559.81	2364.40
560.16	2369.03
560.52	2373.16
560.87	2377.40
561.23	2380.89
561.58	2384.42
561.94	2387.76
562.29	2390.60
562.64	2394.49
563.00	2397.95
563.35	2402.49
563.71	2406.46
564.06	2410.45
564.42	2414.18
564.77	2417.73
565.12	2421.02
565.48	2423.77
565.83	2426.48
566.19	2428.74
566.54	2430.18
566.89	2432.28
567.25	2433.71
567.60	2435.63
567.96	2438.13
568.31	2439.85
568.66	2441.80
569.02	2443.24
569.37	2444.25
569.72	2445.87
570.08	2446.52
570.43	2447.13
570.78	2447.05
571.14	2446.00
571.49	2445.15
571.84	2445.08
572.20	2444.41
572.55	2443.59
572.90	2442.42
573.26	2441.53
573.61	2439.91
573.96	2438.82
574.31	2436.25
574.67	2433.64
575.02	2430.40
575.37	2427.27
575.72	2423.64
576.08	2420.33
576.43	2417.15
576.78	2413.91
577.13	2410.90
577.49	2408.06
577.84	2404.93
578.19	2401.15
578.54	2397.90
578.90	2394.07
579.25	2388.63
579.60	2383.83
579.95	2379.01
580.30	2374.06
580.66	2368.82
581.01	2363.98
581.36	2358.94
581.71	2354.81
582.06	2350.47
582.42	2346.10
582.77	2340.68
583.12	2336.09
583.47	2331.71
583.82	2326.97
584.17	2321.53
584.53	2316.12
584.88	2310.38
585.23	2304.61
585.58	2299.18
585.93	2293.42
586.28	2288.27
586.63	2283.28
586.98	2277.85
587.34	2273.00
587.69	2267.92
588.04	2262.70
588.39	2257.01
588.74	2250.30
589.09	2243.89
589.44	2236.87
589.79	2230.43
590.14	2224.62
590.49	2217.88
590.84	2211.00
591.19	2204.65
591.54	2197.85
591.89	2190.17
592.25	2183.25
592.60	2175.51
592.95	2167.59
593.30	2159.87
593.65	2152.00
594.00	2144.63
594.35	2137.08
594.70	2128.44
595.05	2121.22
595.40	2113.31
595.75	2105.29
596.10	2098.97
596.45	2091.95
596.80	2085.26
597.15	2078.42
597.50	2071.25
597.85	2064.23
598.19	2057.28
598.54	2050.08
598.89	2043.23
599.24	2037.04
599.59	2029.97
599.94	2023.28
600.29	2016.45
600.64	2009.52
600.99	2001.56
601.34	1994.13
601.69	1986.49
602.04	1979.39
602.39	1971.32
602.74	1964.18
603.08	1956.91
603.43	1949.55
603.78	1941.59
604.13	1933.83
604.48	1926.06
604.83	1918.70
605.18	1911.52
605.53	1903.01
605.87	1894.08
606.22	1886.10
606.57	1877.39
606.92	1869.06
607.27	1861.45
607.62	1854.10
607.96	1846.24
608.31	1839.28
608.66	1831.11
609.01	1822.98
609.36	1814.82
609.70	1806.14
610.05	1797.39
610.40	1789.17
610.75	1780.15
611.10	1771.77
611.44	1762.62
611.79	1753.82
612.14	1744.18
612.49	1734.04
612.83	1724.86
613.18	1716.00
613.53	1707.19
613.88	1697.96
614.22	1689.14
614.57	1679.63
614.92	1670.78
615.27	1662.77
615.61	1653.67
615.96	1644.90
616.31	1636.57
616.65	1628.51
617.00	1620.32
617.35	1611.82
617.70	1602.74
618.04	1593.46
618.39	1584.36
618.74	1576.17
619.08	1567.16
619.43	1558.84
619.78	1551.18
620.12	1543.25
620.47	1534.98
620.82	1525.90
621.16	1517.49
621.51	1509.13
621.85	1500.67
622.20	1491.43
622.55	1482.06
622.89	1473.51
623.24	1465.09
623.59	1456.99
623.93	1448.55
624.28	1440.52
624.62	1432.33
624.97	1424.35
625.32	1416.88
625.66	1409.20
626.01	1401.26
626.35	1393.26
626.70	1384.83
627.04	1376.49
627.39	1367.94
627.73	1359.80
628.08	1352.27
628.43	1344.51
628.77	1336.64
629.12	1328.56
629.46	1320.69
629.81	1312.52
630.15	1304.45
630.50	1296.39
630.84	1287.55
631.19	1278.92
631.53	1270.56
631.88	1262.36
632.22	1254.11
632.57	1246.05
632.91	1237.90
633.26	1229.91
633.60	1221.73
633.95	1213.87
634.29	1206.07
634.64	1198.76
634.98	1190.87
635.32	1183.11
635.67	1175.92
636.01	1168.58
636.36	1161.24
636.70	1154.07
637.05	1146.97
637.39	1139.94
637.73	1132.86
638.08	1126.41
638.42	1119.87
638.77	1112.93
639.11	1105.79
639.45	1098.86
639.80	1091.77
640.14	1084.82
640.49	1077.68
640.83	1070.73
641.17	1064.07
641.52	1057.24
641.86	1050.25
642.20	1043.85
642.55	1036.93
642.89	1029.85
643.23	1022.61
643.58	1016.27
643.92	1009.62
644.26	1003.12
644.61	996.48
644.95	989.88
645.29	982.72
645.64	975.42
645.98	968.60
646.32	962.02
646.66	955.43
647.01	949.05
647.35	942.87
647.69	936.56
648.04	930.65
648.38	924.38
648.72	918.00
649.06	911.46
649.41	905.06
649.75	898.71
650.09	892.25
650.43	885.96
650.78	879.26
651.12	872.76
651.46	866.46
651.80	860.41
652.14	854.62
652.49	848.86
652.83	843.33
653.17	837.30
653.51	831.30
653.85	825.46
654.20	819.39
654.54	812.88
654.88	806.55
655.22	800.10
655.56	793.84
655.90	787.89
656.25	782.31
656.59	776.47
656.93	770.89
657.27	765.40
657.61	759.55
657.95	754.01
658.29	748.54
658.64	742.84
658.98	736.99
659.32	731.02
659.66	725.39
660.00	719.61
660.34	714.16
660.68	708.76
661.02	703.37
661.36	698.28
661.70	693.47
662.05	688.82
662.39	684.19
662.73	679.34
663.07	674.59
663.41	669.75
663.75	664.92
664.09	659.99
664.43	655.20
664.77	650.83
665.11	646.35
665.45	641.82
665.79	637.45
666.13	633.06
666.47	628.70
666.81	624.28
667.15	619.88
667.49	615.68
667.83	611.55
668.17	607.25
668.51	602.91
668.85	598.52
669.19	594.34
669.53	590.22
669.87	586.12
670.21	582.10
670.55	578.11
670.89	574.43
671.23	570.80
671.57	566.97
671.91	563.21
672.25	559.32
672.58	555.59
672.92	551.85
673.26	548.34
673.60	544.88
673.94	541.46
674.28	538.33
674.62	535.16
674.96	531.86
675.30	528.78
675.64	525.57
675.97	522.54
676.31	519.43
676.65	516.23
676.99	513.24
677.33	510.18
677.67	507.15
678.01	503.91
678.34	500.64
678.68	497.50
679.02	494.43
679.36	491.49
679.70	488.46
680.04	485.52
680.37	482.49
680.71	479.43
681.05	476.63
681.39	473.70
681.73	470.79
682.06	468.02
682.40	465.26
682.74	462.53
683.08	459.74
683.42	456.93
683.75	454.23
684.09	451.47
684.43	448.73
684.77	446.05
685.10	443.46
685.44	440.88
685.78	438.45
686.12	435.99
686.45	433.42
686.79	430.97
687.13	428.52
687.46	426.18
687.80	423.87
688.14	421.38
688.48	419.11
688.81	416.70
689.15	414.33
689.49	411.93
689.82	409.65
690.16	407.32
690.50	405.18
690.83	403.14
691.17	400.97
691.51	398.94
691.84	396.94
692.18	394.81
692.52	392.76
692.85	390.58
693.19	388.52
693.52	386.56
693.86	384.63
694.20	382.68
694.53	380.76
694.87	378.75
695.21	376.80
695.54	374.77
695.88	372.83
696.21	370.96
696.55	369.14
696.88	367.25
697.22	365.49
697.56	363.68
697.89	361.84
698.23	360.12
698.56	358.39
698.90	356.66
699.23	354.96
699.57	353.25
699.90	351.57
700.24	349.90
700.58	348.27
700.91	346.66
701.25	345.07
701.58	343.56
701.92	342.08
702.25	340.58
702.59	339.10
702.92	337.72
703.26	336.30
703.59	334.96
703.93	333.75
704.26	332.35
704.60	331.02
704.93	329.67
705.26	328.34
705.60	327.00
705.93	325.73
706.27	324.53
706.60	323.40
706.94	322.23
707.27	321.01
707.61	319.80
707.94	318.64
708.27	317.49
708.61	316.26
708.94	315.14
709.28	314.06
709.61	312.99
709.94	311.96
710.28	310.84
710.61	309.73
710.95	308.52
711.28	307.53
711.61	306.50
711.95	305.48
712.28	304.43
712.61	303.41
712.95	302.36
713.28	301.38
713.61	300.42
713.95	299.47
714.28	298.55
714.61	297.69
714.95	296.77
715.28	295.82
715.61	294.90
715.95	294.00
716.28	293.07
716.61	292.18
716.95	291.23
717.28	290.43
717.61	289.54
717.94	288.75
718.28	287.86
718.61	287.06
718.94	286.30
719.27	285.58
719.61	284.87
719.94	284.19
720.27	283.43
720.60	282.66
720.94	281.97
721.27	281.32
721.60	280.66
721.93	280.03
722.27	279.45
722.60	278.84
722.93	278.20
723.26	277.67
723.59	277.05
723.93	276.51
724.26	275.92
724.59	275.33
724.92	274.76
725.25	274.21
725.59	273.63
725.92	273.08
726.25	272.53
726.58	271.98
726.91	271.40
727.24	270.87
727.57	270.36
727.91	269.82
728.24	269.30
728.57	268.74
728.90	268.22
729.23	267.64
729.56	267.19
729.89	266.67
730.22	266.11
730.55	265.65
730.89	265.11
731.22	264.61
731.55	264.15
731.88	263.68
732.21	263.23
732.54	262.73
732.87	262.28
733.20	261.80
733.53	261.35
733.86	260.94
734.19	260.53
734.52	260.10
734.85	259.76
735.18	259.30
735.51	258.90
735.84	258.47
736.17	258.12
736.50	257.64
736.83	257.40
737.16	257.05
737.49	256.67
737.82	256.30
738.15	255.94
738.48	255.61
738.81	255.27
739.14	254.89
739.47	254.58
739.80	254.22
740.13	253.86
740.46	253.51
740.79	253.18
741.12	252.82
741.45	252.51
741.78	252.10
742.11	251.78
742.44	251.40
742.77	251.10
743.10	250.78
743.43	250.47
743.75	250.05
744.08	249.87
744.41	249.53
744.74	249.25
745.07	248.94
745.40	248.66
745.73	248.40
746.06	248.11
746.39	247.83
746.71	247.53
747.04	247.25
747.37	246.97
747.70	246.71
748.03	246.47
748.36	246.21
748.68	245.95
749.01	245.72
749.34	245.50
749.67	245.27
750.00	244.98
750.33	244.79
750.65	244.56
750.98	244.17
751.31	243.94
751.64	243.70
751.97	243.48
752.29	243.21
752.62	242.88
752.95	242.69
753.28	242.46
753.60	242.26
753.93	242.08
754.26	241.87
754.59	241.60
754.91	241.37
755.24	241.14
755.57	240.95
755.90	240.71
756.22	240.52
756.55	240.27
756.88	240.06
757.20	239.83
757.53	239.59
757.86	239.45
758.19	239.29
758.51	239.13
758.84	238.94
759.17	238.76
759.49	238.59
759.82	238.45
760.15	238.27
760.47	238.05
760.80	237.88
761.13	237.77
761.45	237.59
761.78	237.45
762.11	237.28
762.43	237.13
762.76	237.00
763.08	236.87
763.41	236.74
763.74	236.62
764.06	236.48
764.39	236.32
764.71	236.11
765.04	235.94
765.37	235.77
765.69	235.63
766.02	235.48
766.34	235.39
766.67	235.20
767.00	235.11
767.32	235.07
767.65	234.98
767.97	234.83
768.30	234.75
768.62	234.58
768.95	234.46
769.27	234.34
769.60	234.23
769.92	234.07
770.25	233.92
770.57	233.80
770.90	233.67
771.22	233.57
771.55	233.50
771.87	233.42
772.20	233.34
772.52	233.31
772.85	233.33
773.17	233.23
773.50	233.11
773.82	232.98
774.15	232.82
774.47	232.66
774.80	232.54
775.12	232.43
775.45	232.37
775.77	232.29
776.09	232.25
776.42	232.13
776.74	232.08
777.07	232.02
777.39	231.92
777.72	231.86
778.04	231.81
778.36	231.73
778.69	231.65
779.01	231.57
779.33	231.43
779.66	231.23
779.98	231.12
780.31	231.09
780.63	231.02
780.95	230.97
781.28	230.91
781.60	230.85
781.92	230.80
782.25	230.73
782.57	230.69
782.89	230.56
783.22	230.52
783.54	230.42
783.86	230.35
784.19	230.29
784.51	230.21
784.83	230.14
785.16	230.09
785.48	230.03
785.80	229.98
786.12	229.92
786.45	229.87
786.77	229.84
787.09	229.80
787.42	229.75
787.74	229.70
788.06	229.65
788.38	229.60
788.71	229.50
789.03	229.47
789.35	229.43
789.67	229.39
789.99	229.33
790.32	229.30
790.64	229.26
790.96	229.30
791.28	229.24
791.61	229.22
791.93	229.15
792.25	229.12
792.57	229.14
792.89	229.08
793.21	229.06
793.54	229.02
793.86	228.94
794.18	228.91
794.50	228.86
794.82	228.82
795.14	228.79
795.47	228.81
795.79	228.73
796.11	228.63
796.43	228.59
796.75	228.57
797.07	228.48
797.39	228.42
797.71	228.31
798.04	228.28
798.36	228.23
798.68	228.19
799.00	228.16
799.32	228.05
799.64	228.04
799.96	228.03
800.28	227.97
800.60	227.96
800.92	227.91
801.24	227.86
801.56	227.82
801.89	227.78
802.21	227.76
802.53	227.76
802.85	227.76
803.17	227.79
803.49	227.70
803.81	227.71
804.13	227.69
804.45	227.65
804.77	227.63
805.09	227.61
805.41	227.57
805.73	227.51
806.05	227.47
806.37	227.43
806.69	227.37
807.01	227.40
807.33	227.37
807.65	227.33
807.97	227.33
808.28	227.32
808.60	227.28
808.92	227.22
809.24	227.25
809.56	227.23
809.88	227.16
810.20	227.16
810.52	227.15
810.84	227.13
811.16	227.10
811.48	227.10
811.80	227.07
812.12	227.07
812.43	227.06
812.75	227.02
813.07	227.02
813.39	227.01
813.71	226.93
814.03	226.89
814.35	226.88
814.67	226.77
814.98	226.75
815.30	226.72
815.62	226.69
815.94	226.54
816.26	226.56
816.58	226.51
816.89	226.49
817.21	226.47
817.53	226.45
817.85	226.46
818.17	226.42
818.48	226.38
818.80	226.36
819.12	226.34
819.44	226.32
819.76	226.26
820.07	226.24
820.39	226.25
820.71	226.26
821.03	226.25
821.34	226.26
821.66	226.25
821.98	226.25
822.30	226.24
822.61	226.33
822.93	226.25
823.25	226.26
823.57	226.26
823.88	226.22
824.20	226.21
824.52	226.20
824.83	226.20
825.15	226.18
825.47	226.15
825.79	226.14
826.10	226.15
826.42	226.14
826.74	226.15
827.05	226.12
827.37	226.08
827.69	226.10
828.00	226.10
828.32	226.09
828.64	226.06
828.95	226.12
829.27	226.09
829.58	226.11
829.90	226.14
830.22	226.12
830.53	226.13
830.85	226.14
831.17	226.08
831.48	226.05
831.80	226.08
832.11	226.09
832.43	226.05
832.75	226.06
833.06	226.13
833.38	226.07
833.69	226.02
834.01	226.03
834.32	226.00
834.64	225.99
834.96	225.97
835.27	225.98
835.59	225.91
835.90	225.90
836.22	225.87
836.53	225.82
836.85	225.82
837.16	225.89
837.48	225.87
837.79	225.91
838.11	225.89
838.42	225.83
838.74	225.85
839.05	225.86
839.37	225.80
839.68	225.72
840.00	225.71
840.31	225.73
840.63	225.73
840.94	225.72
841.26	225.69
841.57	225.68
841.88	225.66
842.20	225.64
842.51	225.61
842.83	225.61
843.14	225.68
843.46	225.66
843.77	225.57
844.08	225.55
844.40	225.51
844.71	225.49
845.03	225.45
845.34	225.42
845.65	225.37
845.97	225.36
846.28	225.34
846.60	225.36
846.91	225.33
847.22	225.26
847.54	225.24
847.85	225.23
848.16	225.19
848.48	225.17
848.79	225.18
849.10	225.14
849.42	225.10
849.73	225.00
850.04	224.98
850.36	224.94
850.67	224.93
850.98	224.92
851.30	224.93
851.61	224.95
851.92	224.95
852.23	224.99
852.55	225.02
852.86	225.03
853.17	225.02
853.49	225.07
853.80	225.12
854.11	225.16
854.42	225.19
854.74	225.18
855.05	225.18
855.36	225.16
855.67	225.20
855.99	225.23
856.30	225.33
856.61	225.31
856.92	225.32
857.23	225.35
857.55	225.32
857.86	225.29
858.17	225.30
858.48	225.25
858.79	225.21
859.11	225.23
859.42	225.22
859.73	225.21
860.04	225.20
860.35	225.19
860.66	225.16
860.98	225.13
861.29	225.14
861.60	225.15
861.91	225.14
862.22	225.12
862.53	225.11
862.84	225.03
863.16	225.05
863.47	225.06
863.78	225.04
864.09	225.10
864.40	225.14
864.71	225.15
865.02	225.20
865.33	225.20
865.64	225.17
865.95	225.16
866.27	225.22
866.58	225.22
866.89	225.20
867.20	225.20
867.51	225.20
867.82	225.21
868.13	225.21
868.44	225.20
868.75	225.21
869.06	225.24
869.37	225.23
869.68	225.23
869.99	225.23
870.30	225.26
870.61	225.26
870.92	225.25
871.23	225.24
871.54	225.25
871.85	225.29
872.16	225.31
872.47	225.32
872.78	225.25
873.09	225.25
873.40	225.24
873.71	225.22
874.02	225.23
874.33	225.23
874.64	225.24
874.95	225.28
875.26	225.25
875.56	225.22
875.87	225.20
876.18	225.17
876.49	225.27
876.80	225.26
877.11	225.19
877.42	225.19
877.73	225.17
878.04	225.17
878.35	225.15
878.66	225.18
878.96	225.22
879.27	225.20
879.58	225.19
879.89	225.19
880.20	225.26
880.51	225.25
880.82	225.25
881.12	225.26
881.43	225.24
881.74	225.27
882.05	225.28
882.36	225.30
882.67	225.32
882.97	225.20
883.28	225.17
883.59	225.17
883.90	225.18
884.21	225.19
884.51	225.14
884.82	225.12
885.13	225.08
885.44	225.02
885.74	225.03
886.05	225.03
886.36	225.03
886.67	224.97
886.98	225.02
887.28	225.02
887.59	225.00
887.90	224.99
888.20	224.95
888.51	224.94
888.82	224.90
889.13	224.89
889.43	224.96
889.74	224.95
890.05	224.99
890.35	224.96
890.66	224.96
890.97	224.99
891.28	224.95
891.58	224.95
891.89	224.95
892.20	224.92
892.50	224.87
892.81	224.83
893.12	224.83
893.42	224.78
893.73	224.76
894.04	224.75
894.34	224.76
894.65	224.75
894.95	224.73
895.26	224.79
895.57	224.84
895.87	224.74
896.18	224.79
896.48	224.74
896.79	224.71
897.10	224.72
897.40	224.74
897.71	224.80
898.01	224.79
898.32	224.80
898.63	224.83
898.93	224.86
899.24	224.88
899.54	224.85
899.85	224.84
900.15	224.84
900.46	224.83
900.76	224.84
901.07	224.86
901.38	224.86
901.68	224.84
901.99	224.76
902.29	224.75
902.60	224.74
902.90	224.76
903.21	224.76
903.51	224.76
903.82	224.73
904.12	224.69
904.43	224.70
904.73	224.67
905.03	224.66
905.34	224.74
905.64	224.76
905.95	224.78
906.25	224.78
906.56	224.79
906.86	224.78
907.17	224.74
907.47	224.71
907.77	224.73
908.08	224.68
908.38	224.69
908.69	224.75
908.99	224.74
909.30	224.75
909.60	224.77
909.90	224.77
910.21	224.79
910.51	224.76
910.81	224.73
911.12	224.77
911.42	224.80
911.73	224.73
912.03	224.73
912.33	224.73
912.64	224.72
912.94	224.72
913.24	224.71
913.55	224.72
913.85	224.73
914.15	224.73
914.46	224.74
914.76	224.74
915.06	224.70
915.37	224.69
915.67	224.65
915.97	224.64
916.27	224.61
916.58	224.59
916.88	224.61
917.18	224.62
917.49	224.67
917.79	224.63
918.09	224.59
918.39	224.61
918.70	224.61
919.00	224.59
919.30	224.63
919.60	224.63
919.91	224.62
920.21	224.62
920.51	224.61
920.81	224.57
921.12	224.60
921.42	224.59
921.72	224.59
922.02	224.61
922.32	224.63
922.63	224.61
922.93	224.65
923.23	224.66
923.53	224.65
923.83	224.56
924.13	224.58
924.44	224.57
924.74	224.57
925.04	224.57
925.34	224.58
925.64	224.52
925.94	224.54
926.24	224.58
926.55	224.56
926.85	224.54
927.15	224.58
927.45	224.54
927.75	224.56
928.05	224.56
928.35	224.58
928.65	224.57
928.95	224.58
929.26	224.54
929.56	224.54
929.86	224.55
930.16	224.56
930.46	224.54
930.76	224.59
931.06	224.53
931.36	224.53
931.66	224.55
931.96	224.58
932.26	224.58
932.56	224.56
932.86	224.56
933.16	224.59
933.46	224.55
933.76	224.56
934.06	224.57
934.36	224.61
934.66	224.60
934.96	224.62
935.26	224.64
935.56	224.65
935.86	224.64
936.16	224.64
936.46	224.64
936.76	224.65
937.06	224.64
937.36	224.69
937.66	224.70
937.96	224.70
938.26	224.67
938.56	224.64
938.86	224.64
939.16	224.68
939.46	224.71
939.76	224.75
940.06	224.76
940.35	224.75
940.65	224.72
940.95	224.73
941.25	224.71
941.55	224.70
941.85	224.73
942.15	224.75
942.45	224.77
942.75	224.79
943.04	224.81
943.34	224.81
943.64	224.82
943.94	224.78
944.24	224.78
944.54	224.81
944.84	224.82
945.13	224.86
945.43	224.85
945.73	224.81
946.03	224.80
946.33	224.81
946.62	224.81
946.92	224.80
947.22	224.79
947.52	224.80
947.82	224.83
948.11	224.81
948.41	224.83
948.71	224.83
949.01	224.81
949.31	224.79
949.60	224.77
949.90	224.77
950.20	224.78
950.50	224.80
950.79	224.79
951.09	224.85
951.39	224.83
951.69	224.81
951.98	224.83
952.28	224.85
952.58	224.81
952.87	224.81
953.17	224.83
953.47	224.80
953.76	224.79
954.06	224.76
954.36	224.75
954.66	224.71
954.95	224.70
955.25	224.69
955.55	224.68
955.84	224.68
956.14	224.66
956.44	224.67
956.73	224.64
957.03	224.67
957.32	224.61
957.62	224.56
957.92	224.58
958.21	224.56
958.51	224.65
958.81	224.68
959.10	224.65
959.40	224.67
959.69	224.68
959.99	224.67
960.29	224.63
960.58	224.61
960.88	224.63
961.17	224.63
961.47	224.67
961.76	224.68
962.06	224.67
962.36	224.65
962.65	224.64
962.95	224.64
963.24	224.60
963.54	224.61
963.83	224.62
964.13	224.61
964.42	224.60
964.72	224.53
965.01	224.55
965.31	224.54
965.60	224.52
965.90	224.58
966.19	224.58
966.49	224.62
966.78	224.60
967.08	224.60
967.37	224.61
967.67	224.58
967.96	224.56
968.26	224.55
968.55	224.59
968.85	224.60
969.14	224.59
969.43	224.61
969.73	224.61
970.02	224.65
970.32	224.64
970.61	224.64
970.91	224.62
971.20	224.60
971.49	224.62
971.79	224.61
972.08	224.56
972.38	224.56
972.67	224.57
972.96	224.59
973.26	224.59
973.55	224.61
973.85	224.63
974.14	224.67
974.43	224.70
974.73	224.66
975.02	224.66
975.31	224.68
975.61	224.63
975.90	224.59
976.19	224.56
976.49	224.59
976.78	224.59
977.07	224.61
977.37	224.60
977.66	224.62
977.95	224.61
978.24	224.64
978.54	224.70
978.83	224.73
979.12	224.74
979.42	224.72
979.71	224.69
980.00	224.65
980.29	224.64
980.59	224.63
980.88	224.66
981.17	224.67
981.46	224.67
981.76	224.71
982.05	224.78
982.34	224.80
982.63	224.76
982.93	224.79
983.22	224.79
983.51	224.79
983.80	224.80
984.09	224.83
984.39	224.80
984.68	224.76
984.97	224.74
985.26	224.73
985.55	224.78
985.85	224.79
986.14	224.84
986.43	224.85
986.72	224.83
987.01	224.80
987.30	224.80
987.59	224.79
987.89	224.80
988.18	224.75
988.47	224.72
988.76	224.72
989.05	224.71
989.34	224.72
989.63	224.71
989.92	224.69
990.22	224.65
990.51	224.66
990.80	224.66
991.09	224.63
991.38	224.65
991.67	224.59
991.96	224.53
992.25	224.50
992.54	224.51
992.83	224.50
993.12	224.51
993.41	224.53
993.70	224.58
993.99	224.59
994.28	224.59
994.58	224.64
994.87	224.65
995.16	224.61
995.45	224.60
995.74	224.57
996.03	224.58
996.32	224.60
996.61	224.61
996.90	224.60
997.19	224.58
997.48	224.58
997.77	224.58
998.06	224.57
998.34	224.59
998.63	224.53
998.92	224.55
999.21	224.55
999.50	224.52
999.79	224.46
1000.08	224.45
1000.37	224.45
1000.66	224.42
1000.95	224.42
1001.24	224.46
1001.53	224.46
1001.82	224.47
1002.11	224.42
1002.40	224.41
1002.68	224.41
1002.97	224.46
1003.26	224.45
1003.55	224.43
1003.84	224.42
1004.13	224.48
1004.42	224.48
1004.71	224.53
1004.99	224.53
1005.28	224.56
1005.57	224.56
1005.86	224.58
1006.15	224.56
1006.44	224.54
1006.72	224.54
1007.01	224.51
1007.30	224.48
1007.59	224.45
1007.88	224.44
1008.17	224.43
1008.45	224.42
1008.74	224.40
1009.03	224.34
1009.32	224.35
1009.60	224.32
1009.89	224.31
1010.18	224.26
1010.47	224.20
1010.76	224.17
1011.04	224.14
1011.33	224.10
1011.62	224.07
1011.91	224.07
1012.19	224.03
1012.48	224.05
1012.77	224.03
1013.05	224.08
1013.34	224.13
1013.63	224.10
1013.92	224.15
1014.20	224.17
1014.49	224.17
1014.78	224.16
1015.06	224.14
1015.35	224.14
1015.64	224.20
1015.92	224.20
1016.21	224.17
1016.50	224.21
1016.78	224.19
1017.07	224.21
1017.36	224.19
1017.64	224.20
1017.93	224.19
1018.22	224.21
1018.50	224.20
1018.79	224.21
1019.08	224.15
1019.36	224.14
1019.65	224.16
1019.93	224.14
1020.22	224.14
1020.51	224.20
1020.79	224.19
1021.08	224.15
1021.36	224.12
1021.65	224.00
1021.94	224.28
1022.22	224.64
1022.51	223.96
1022.79	224.31
1023.08	224.31
1023.36	225.62
1023.65	224.00
>>>>>End Processed Spectral Data<<<<<
