SpectraSuite Data File
++++++++++++++++++++++++++++++++++++
Date: Fri Feb 01 16:17:32 EST 2013
User: group
Dark Spectrum Present: No
Reference Spectrum Present: No
Number of Sampled Component Spectra: 1
Spectrometers: USB2E7196
Integration Time (usec): 35000 (USB2E7196)
Spectra Averaged: 100 (USB2E7196)
Boxcar Smoothing: 10 (USB2E7196)
Correct for Electrical Dark: No (USB2E7196)
Strobe/Lamp Enabled: No (USB2E7196)
Correct for Detector Non-linearity: No (USB2E7196)
Correct for Stray Light: No (USB2E7196)
Number of Pixels in Processed Spectrum: 2048
>>>>>Begin Processed Spectral Data<<<<<
339.09	0.00
339.48	213.49
339.86	215.18
340.24	216.49
340.63	218.47
341.01	220.55
341.39	221.16
341.78	222.17
342.16	223.51
342.54	224.26
342.93	212.21
343.31	222.94
343.69	223.49
344.07	223.93
344.46	224.37
344.84	224.71
345.22	224.96
345.60	225.19
345.99	225.35
346.37	225.44
346.75	225.50
347.13	225.55
347.52	225.62
347.90	225.69
348.28	225.69
348.66	225.70
349.05	225.68
349.43	225.73
349.81	225.78
350.19	225.82
350.57	225.84
350.96	225.95
351.34	225.99
351.72	226.08
352.10	226.20
352.48	226.25
352.87	226.33
353.25	226.39
353.63	226.44
354.01	226.52
354.39	226.63
354.77	226.72
355.15	226.84
355.54	226.89
355.92	226.93
356.30	227.02
356.68	227.16
357.06	227.25
357.44	227.33
357.82	227.37
358.20	227.48
358.58	227.58
358.97	227.63
359.35	227.73
359.73	227.79
360.11	227.86
360.49	227.92
360.87	227.96
361.25	228.03
361.63	228.11
362.01	228.15
362.39	228.21
362.77	228.22
363.15	228.21
363.53	228.24
363.91	228.27
364.29	228.31
364.67	228.27
365.05	228.29
365.43	228.25
365.81	228.28
366.19	228.29
366.57	228.32
366.95	228.37
367.33	228.34
367.71	228.36
368.09	228.34
368.47	228.32
368.85	228.33
369.23	228.33
369.61	228.29
369.99	228.31
370.37	228.28
370.75	228.34
371.13	228.32
371.51	228.31
371.89	228.28
372.27	228.22
372.65	228.14
373.03	228.10
373.41	228.08
373.78	228.03
374.16	227.95
374.54	227.85
374.92	227.73
375.30	227.71
375.68	227.60
376.06	227.57
376.44	227.52
376.82	227.46
377.19	227.37
377.57	227.30
377.95	227.18
378.33	227.12
378.71	226.96
379.09	226.90
379.47	226.82
379.84	226.75
380.22	226.70
380.60	226.64
380.98	226.54
381.36	226.50
381.73	226.42
382.11	226.36
382.49	226.31
382.87	226.28
383.25	226.20
383.62	226.28
384.00	226.20
384.38	226.16
384.76	226.10
385.13	226.07
385.51	226.00
385.89	225.92
386.27	225.88
386.64	225.89
387.02	225.85
387.40	225.80
387.78	225.78
388.15	225.74
388.53	225.67
388.91	225.66
389.29	225.59
389.66	225.60
390.04	225.56
390.42	225.55
390.79	225.52
391.17	225.53
391.55	225.39
391.92	225.37
392.30	225.36
392.68	225.31
393.05	225.35
393.43	225.35
393.81	225.36
394.18	225.33
394.56	225.33
394.94	225.34
395.31	225.35
395.69	225.41
396.06	225.43
396.44	225.49
396.82	225.49
397.19	225.57
397.57	225.60
397.95	225.65
398.32	225.67
398.70	225.71
399.07	225.72
399.45	225.77
399.82	225.82
400.20	225.86
400.58	225.93
400.95	225.95
401.33	226.07
401.70	226.24
402.08	226.35
402.45	226.47
402.83	226.58
403.20	226.68
403.58	226.77
403.95	226.90
404.33	227.05
404.71	227.20
405.08	227.36
405.46	227.47
405.83	227.65
406.21	227.78
406.58	227.98
406.96	228.17
407.33	228.33
407.70	228.55
408.08	228.85
408.45	229.07
408.83	229.31
409.20	229.53
409.58	229.69
409.95	229.96
410.33	230.20
410.70	230.46
411.08	230.77
411.45	231.07
411.82	231.34
412.20	231.68
412.57	232.13
412.95	232.45
413.32	232.89
413.69	233.28
414.07	233.74
414.44	234.19
414.82	234.70
415.19	235.26
415.56	235.78
415.94	236.32
416.31	236.97
416.68	237.60
417.06	238.29
417.43	238.99
417.81	239.76
418.18	240.55
418.55	241.37
418.93	242.24
419.30	243.14
419.67	244.09
420.04	245.02
420.42	245.98
420.79	247.18
421.16	248.33
421.54	249.51
421.91	250.71
422.28	251.94
422.66	253.26
423.03	254.58
423.40	255.95
423.77	257.34
424.15	258.77
424.52	260.27
424.89	261.87
425.26	263.43
425.64	264.83
426.01	266.42
426.38	268.10
426.75	269.77
427.13	271.50
427.50	273.33
427.87	275.22
428.24	277.04
428.61	278.74
428.99	280.67
429.36	282.76
429.73	284.84
430.10	286.89
430.47	288.92
430.85	291.06
431.22	293.29
431.59	295.67
431.96	297.87
432.33	300.30
432.70	302.71
433.08	305.53
433.45	308.19
433.82	310.79
434.19	313.66
434.56	316.41
434.93	319.05
435.30	321.65
435.68	324.53
436.05	327.32
436.42	330.13
436.79	332.65
437.16	335.33
437.53	338.14
437.90	340.90
438.27	343.61
438.64	346.41
439.01	349.00
439.38	351.22
439.75	353.40
440.13	355.95
440.50	358.28
440.87	360.09
441.24	362.00
441.61	364.14
441.98	365.64
442.35	367.48
442.72	369.34
443.09	371.11
443.46	372.16
443.83	372.78
444.20	373.30
444.57	374.10
444.94	374.42
445.31	374.74
445.68	375.13
446.05	375.24
446.42	374.79
446.79	374.33
447.16	373.83
447.53	373.55
447.90	372.37
448.27	371.14
448.64	369.57
449.01	368.43
449.37	366.48
449.74	364.55
450.11	362.29
450.48	359.78
450.85	357.32
451.22	355.14
451.59	353.14
451.96	351.16
452.33	348.58
452.70	346.20
453.07	343.37
453.43	340.48
453.80	337.71
454.17	335.09
454.54	332.57
454.91	329.86
455.28	327.15
455.65	324.60
456.02	322.20
456.38	320.01
456.75	317.38
457.12	315.09
457.49	312.87
457.86	310.70
458.23	308.91
458.59	306.82
458.96	304.73
459.33	302.87
459.70	301.06
460.07	299.52
460.43	297.84
460.80	296.24
461.17	294.81
461.54	293.33
461.91	291.88
462.27	290.43
462.64	289.23
463.01	287.92
463.38	286.67
463.74	285.31
464.11	284.19
464.48	283.14
464.85	282.08
465.21	281.23
465.58	280.35
465.95	279.22
466.32	278.31
466.68	277.38
467.05	276.47
467.42	275.59
467.78	274.74
468.15	273.86
468.52	273.24
468.88	272.34
469.25	271.58
469.62	270.99
469.98	270.33
470.35	269.72
470.72	269.11
471.08	268.48
471.45	267.95
471.82	267.39
472.18	266.81
472.55	266.41
472.92	265.92
473.28	265.45
473.65	265.04
474.02	264.62
474.38	264.31
474.75	264.01
475.11	263.65
475.48	263.37
475.85	263.16
476.21	262.90
476.58	262.75
476.94	262.64
477.31	262.46
477.67	262.32
478.04	262.20
478.41	262.15
478.77	262.19
479.14	262.14
479.50	262.16
479.87	262.24
480.23	262.33
480.60	262.37
480.96	262.46
481.33	262.66
481.69	262.85
482.06	263.06
482.42	263.29
482.79	263.54
483.15	263.85
483.52	264.21
483.88	264.55
484.25	264.95
484.61	265.35
484.98	265.82
485.34	266.37
485.71	266.95
486.07	267.57
486.44	268.14
486.80	268.85
487.17	269.57
487.53	270.40
487.90	271.24
488.26	272.18
488.62	273.17
488.99	274.13
489.35	275.16
489.72	276.28
490.08	277.47
490.44	278.73
490.81	280.04
491.17	281.39
491.54	282.87
491.90	284.40
492.26	286.04
492.63	287.75
492.99	289.56
493.36	291.44
493.72	293.44
494.08	295.52
494.45	297.80
494.81	300.20
495.17	302.68
495.54	305.23
495.90	307.93
496.26	310.74
496.63	313.72
496.99	316.87
497.35	320.11
497.72	323.47
498.08	327.01
498.44	330.67
498.80	334.60
499.17	338.68
499.53	342.89
499.89	347.29
500.26	351.78
500.62	356.45
500.98	361.46
501.34	366.60
501.71	371.98
502.07	377.40
502.43	383.04
502.79	388.81
503.16	394.92
503.52	401.25
503.88	407.66
504.24	414.30
504.60	421.22
504.97	428.39
505.33	435.74
505.69	443.42
506.05	451.21
506.41	459.10
506.78	467.29
507.14	475.77
507.50	484.47
507.86	493.56
508.22	502.73
508.59	511.91
508.95	521.49
509.31	531.33
509.67	541.48
510.03	551.84
510.39	562.40
510.75	573.19
511.12	584.05
511.48	595.39
511.84	606.82
512.20	618.31
512.56	630.27
512.92	642.48
513.28	654.83
513.64	667.35
514.00	680.08
514.37	693.02
514.73	706.00
515.09	719.05
515.45	732.30
515.81	745.96
516.17	759.96
516.53	774.11
516.89	788.24
517.25	802.32
517.61	816.70
517.97	831.28
518.33	845.64
518.69	860.49
519.05	875.42
519.41	890.65
519.77	906.12
520.13	921.50
520.49	936.84
520.85	952.22
521.21	967.84
521.57	984.05
521.93	999.76
522.29	1016.17
522.65	1032.36
523.01	1048.54
523.37	1064.58
523.73	1080.74
524.09	1096.72
524.45	1113.00
524.81	1129.66
525.17	1146.40
525.53	1163.08
525.89	1179.93
526.25	1196.63
526.61	1213.07
526.97	1229.65
527.33	1246.09
527.68	1262.70
528.04	1279.16
528.40	1295.73
528.76	1312.75
529.12	1329.26
529.48	1345.96
529.84	1361.82
530.20	1378.46
530.56	1395.51
530.91	1412.74
531.27	1429.43
531.63	1445.86
531.99	1462.37
532.35	1478.24
532.71	1494.09
533.07	1510.25
533.42	1526.17
533.78	1542.13
534.14	1558.33
534.50	1573.64
534.86	1589.48
535.21	1604.57
535.57	1620.42
535.93	1635.84
536.29	1650.70
536.65	1665.68
537.00	1680.40
537.36	1695.74
537.72	1710.20
538.08	1724.55
538.44	1738.33
538.79	1752.24
539.15	1765.80
539.51	1779.52
539.87	1793.81
540.22	1807.50
540.58	1821.22
540.94	1834.36
541.29	1847.22
541.65	1859.80
542.01	1872.93
542.37	1885.26
542.72	1897.68
543.08	1909.42
543.44	1921.76
543.79	1932.90
544.15	1943.96
544.51	1955.60
544.87	1966.51
545.22	1977.23
545.58	1987.37
545.94	1997.00
546.29	2006.71
546.65	2016.62
547.01	2025.78
547.36	2034.43
547.72	2042.75
548.07	2050.59
548.43	2058.79
548.79	2066.75
549.14	2074.33
549.50	2081.64
549.86	2089.19
550.21	2096.43
550.57	2103.56
550.92	2110.19
551.28	2117.28
551.64	2124.19
551.99	2130.64
552.35	2136.74
552.70	2142.94
553.06	2148.92
553.41	2155.23
553.77	2161.27
554.13	2167.12
554.48	2173.28
554.84	2178.73
555.19	2184.02
555.55	2189.17
555.90	2193.60
556.26	2198.51
556.61	2203.06
556.97	2207.38
557.32	2211.66
557.68	2215.85
558.03	2220.03
558.39	2223.48
558.74	2228.06
559.10	2231.95
559.45	2235.62
559.81	2239.94
560.16	2243.66
560.52	2246.80
560.87	2250.23
561.23	2252.95
561.58	2256.07
561.94	2258.47
562.29	2260.81
562.64	2263.62
563.00	2266.16
563.35	2269.65
563.71	2272.82
564.06	2276.20
564.42	2279.08
564.77	2281.38
565.12	2283.66
565.48	2285.71
565.83	2287.87
566.19	2289.14
566.54	2290.06
566.89	2291.29
567.25	2291.89
567.60	2293.23
567.96	2295.08
568.31	2295.85
568.66	2297.00
569.02	2297.64
569.37	2297.98
569.72	2298.95
570.08	2299.07
570.43	2299.27
570.78	2298.83
571.14	2297.20
571.49	2295.78
571.84	2295.50
572.20	2294.51
572.55	2293.43
572.90	2291.84
573.26	2290.31
573.61	2288.52
573.96	2287.02
574.31	2284.08
574.67	2281.15
575.02	2277.71
575.37	2274.35
575.72	2270.70
576.08	2267.24
576.43	2263.91
576.78	2260.42
577.13	2257.28
577.49	2254.18
577.84	2250.65
578.19	2247.03
578.54	2243.60
578.90	2239.52
579.25	2233.96
579.60	2229.20
579.95	2224.27
580.30	2219.44
580.66	2214.38
581.01	2209.61
581.36	2204.54
581.71	2200.40
582.06	2196.03
582.42	2191.58
582.77	2186.25
583.12	2181.68
583.47	2177.20
583.82	2172.26
584.17	2166.97
584.53	2161.50
584.88	2155.90
585.23	2150.19
585.58	2144.74
585.93	2139.27
586.28	2134.39
586.63	2129.39
586.98	2124.27
587.34	2119.57
587.69	2114.56
588.04	2109.29
588.39	2103.76
588.74	2097.42
589.09	2091.22
589.44	2084.45
589.79	2078.44
590.14	2072.88
590.49	2066.40
590.84	2059.91
591.19	2053.84
591.54	2047.45
591.89	2040.10
592.25	2033.35
592.60	2026.17
592.95	2018.49
593.30	2011.19
593.65	2003.55
594.00	1996.55
594.35	1989.23
594.70	1981.15
595.05	1974.08
595.40	1966.82
595.75	1959.32
596.10	1953.25
596.45	1946.62
596.80	1940.51
597.15	1933.93
597.50	1927.01
597.85	1920.61
598.19	1913.94
598.54	1906.98
598.89	1900.34
599.24	1894.51
599.59	1887.89
599.94	1881.75
600.29	1875.49
600.64	1868.87
600.99	1861.67
601.34	1854.96
601.69	1848.09
602.04	1841.28
602.39	1833.83
602.74	1827.15
603.08	1820.33
603.43	1813.42
603.78	1806.06
604.13	1798.98
604.48	1791.70
604.83	1784.75
605.18	1777.84
605.53	1769.90
605.87	1761.86
606.22	1754.63
606.57	1746.64
606.92	1739.41
607.27	1732.25
607.62	1725.33
607.96	1718.17
608.31	1711.54
608.66	1703.82
609.01	1696.16
609.36	1688.63
609.70	1680.64
610.05	1672.55
610.40	1664.85
610.75	1656.52
611.10	1648.91
611.44	1640.23
611.79	1632.23
612.14	1623.45
612.49	1614.28
612.83	1605.97
613.18	1597.80
613.53	1589.75
613.88	1581.29
614.22	1572.94
614.57	1564.30
614.92	1556.28
615.27	1548.63
615.61	1540.22
615.96	1532.26
616.31	1524.73
616.65	1517.45
617.00	1509.96
617.35	1502.28
617.70	1493.99
618.04	1485.47
618.39	1477.21
618.74	1469.74
619.08	1461.42
619.43	1453.92
619.78	1446.97
620.12	1439.76
620.47	1432.34
620.82	1424.14
621.16	1416.63
621.51	1409.07
621.85	1401.55
622.20	1393.02
622.55	1384.65
622.89	1376.84
623.24	1369.16
623.59	1361.69
623.93	1354.19
624.28	1346.90
624.62	1339.40
624.97	1332.19
625.32	1325.41
625.66	1318.43
626.01	1311.31
626.35	1303.88
626.70	1296.09
627.04	1288.26
627.39	1280.54
627.73	1273.10
628.08	1266.18
628.43	1258.99
628.77	1251.59
629.12	1243.91
629.46	1236.77
629.81	1229.36
630.15	1222.07
630.50	1214.66
630.84	1206.48
631.19	1198.46
631.53	1190.97
631.88	1183.39
632.22	1175.74
632.57	1168.45
632.91	1160.90
633.26	1153.45
633.60	1146.00
633.95	1139.01
634.29	1132.10
634.64	1125.44
634.98	1118.05
635.32	1110.88
635.67	1104.21
636.01	1097.50
636.36	1090.69
636.70	1084.08
637.05	1077.51
637.39	1071.05
637.73	1064.45
638.08	1058.59
638.42	1052.53
638.77	1046.10
639.11	1039.54
639.45	1033.11
639.80	1026.40
640.14	1019.89
640.49	1013.33
640.83	1007.09
641.17	1000.70
641.52	994.28
641.86	987.70
642.20	981.83
642.55	975.53
642.89	969.03
643.23	962.56
643.58	956.78
643.92	950.60
644.26	944.48
644.61	938.49
644.95	932.57
645.29	926.00
645.64	919.33
645.98	913.01
646.32	907.11
646.66	901.16
647.01	895.41
647.35	889.68
647.69	883.76
648.04	878.10
648.38	872.28
648.72	866.38
649.06	860.40
649.41	854.54
649.75	848.55
650.09	842.55
650.43	836.77
650.78	830.65
651.12	824.73
651.46	819.06
651.80	813.25
652.14	807.81
652.49	802.38
652.83	797.12
653.17	791.41
653.51	785.65
653.85	780.19
654.20	774.54
654.54	768.62
654.88	762.98
655.22	757.11
655.56	751.50
655.90	746.04
656.25	740.76
656.59	735.28
656.93	730.24
657.27	725.10
657.61	719.64
657.95	714.51
658.29	709.41
658.64	704.17
658.98	698.89
659.32	693.41
659.66	688.27
660.00	682.97
660.34	678.02
660.68	673.13
661.02	668.12
661.36	663.44
661.70	658.91
662.05	654.44
662.39	650.12
662.73	645.63
663.07	641.16
663.41	636.69
663.75	632.29
664.09	627.73
664.43	623.32
664.77	619.14
665.11	614.78
665.45	610.63
665.79	606.50
666.13	602.42
666.47	598.33
666.81	594.14
667.15	590.07
667.49	586.13
667.83	582.28
668.17	578.36
668.51	574.21
668.85	570.17
669.19	566.36
669.53	562.52
669.87	558.66
670.21	554.95
670.55	551.26
670.89	547.86
671.23	544.35
671.57	540.82
671.91	537.29
672.25	533.89
672.58	530.38
672.92	526.91
673.26	523.71
673.60	520.57
673.94	517.45
674.28	514.48
674.62	511.58
674.96	508.44
675.30	505.52
675.64	502.64
675.97	499.77
676.31	496.93
676.65	493.96
676.99	491.29
677.33	488.44
677.67	485.62
678.01	482.53
678.34	479.59
678.68	476.72
679.02	473.89
679.36	471.11
679.70	468.36
680.04	465.65
680.37	462.69
680.71	459.80
681.05	457.16
681.39	454.48
681.73	451.77
682.06	449.27
682.40	446.68
682.74	444.09
683.08	441.62
683.42	439.03
683.75	436.57
684.09	433.96
684.43	431.49
684.77	429.04
685.10	426.67
685.44	424.32
685.78	422.08
686.12	419.84
686.45	417.54
686.79	415.26
687.13	413.07
687.46	410.96
687.80	408.87
688.14	406.65
688.48	404.53
688.81	402.33
689.15	400.18
689.49	398.06
689.82	396.02
690.16	393.95
690.50	391.98
690.83	390.06
691.17	388.05
691.51	386.17
691.84	384.29
692.18	382.36
692.52	380.42
692.85	378.45
693.19	376.59
693.52	374.78
693.86	372.96
694.20	371.16
694.53	369.41
694.87	367.51
695.21	365.71
695.54	363.91
695.88	362.14
696.21	360.42
696.55	358.76
696.88	357.05
697.22	355.36
697.56	353.75
697.89	352.07
698.23	350.50
698.56	348.92
698.90	347.39
699.23	345.77
699.57	344.24
699.90	342.71
700.24	341.18
700.58	339.65
700.91	338.10
701.25	336.65
701.58	335.24
701.92	333.92
702.25	332.56
702.59	331.23
702.92	329.97
703.26	328.66
703.59	327.34
703.93	326.19
704.26	324.97
704.60	323.63
704.93	322.36
705.26	321.10
705.60	319.88
705.93	318.69
706.27	317.64
706.60	316.62
706.94	315.51
707.27	314.36
707.61	313.29
707.94	312.28
708.27	311.21
708.61	310.13
708.94	309.16
709.28	308.17
709.61	307.21
709.94	306.21
710.28	305.17
710.61	304.23
710.95	303.12
711.28	302.22
711.61	301.29
711.95	300.37
712.28	299.40
712.61	298.37
712.95	297.41
713.28	296.50
713.61	295.53
713.95	294.63
714.28	293.76
714.61	292.88
714.95	292.06
715.28	291.20
715.61	290.33
715.95	289.41
716.28	288.53
716.61	287.67
716.95	286.84
717.28	286.09
717.61	285.31
717.94	284.58
718.28	283.76
718.61	282.98
718.94	282.28
719.27	281.64
719.61	281.02
719.94	280.36
720.27	279.66
720.60	279.01
720.94	278.38
721.27	277.78
721.60	277.20
721.93	276.56
722.27	275.97
722.60	275.40
722.93	274.84
723.26	274.34
723.59	273.77
723.93	273.22
724.26	272.66
724.59	272.08
724.92	271.59
725.25	271.11
725.59	270.62
725.92	270.12
726.25	269.61
726.58	269.11
726.91	268.64
727.24	268.16
727.57	267.69
727.91	267.18
728.24	266.74
728.57	266.25
728.90	265.84
729.23	265.36
729.56	264.98
729.89	264.52
730.22	264.01
730.55	263.57
730.89	263.13
731.22	262.68
731.55	262.26
731.88	261.82
732.21	261.39
732.54	260.93
732.87	260.49
733.20	260.09
733.53	259.70
733.86	259.28
734.19	258.88
734.52	258.50
734.85	258.20
735.18	257.76
735.51	257.41
735.84	257.04
736.17	256.69
736.50	256.26
736.83	256.03
737.16	255.70
737.49	255.35
737.82	254.97
738.15	254.64
738.48	254.30
738.81	253.92
739.14	253.60
739.47	253.33
739.80	253.04
740.13	252.72
740.46	252.44
740.79	252.15
741.12	251.88
741.45	251.57
741.78	251.22
742.11	250.95
742.44	250.63
742.77	250.34
743.10	250.09
743.43	249.80
743.75	249.43
744.08	249.29
744.41	249.03
744.74	248.77
745.07	248.50
745.40	248.26
745.73	248.03
746.06	247.77
746.39	247.53
746.71	247.24
747.04	246.97
747.37	246.64
747.70	246.39
748.03	246.16
748.36	245.93
748.68	245.69
749.01	245.44
749.34	245.21
749.67	245.00
750.00	244.76
750.33	244.60
750.65	244.37
750.98	244.02
751.31	243.80
751.64	243.61
751.97	243.45
752.29	243.22
752.62	242.97
752.95	242.75
753.28	242.51
753.60	242.33
753.93	242.15
754.26	241.97
754.59	241.77
754.91	241.54
755.24	241.33
755.57	241.12
755.90	240.93
756.22	240.77
756.55	240.54
756.88	240.32
757.20	240.07
757.53	239.88
757.86	239.72
758.19	239.56
758.51	239.39
758.84	239.19
759.17	239.02
759.49	238.87
759.82	238.74
760.15	238.58
760.47	238.43
760.80	238.28
761.13	238.14
761.45	237.93
761.78	237.79
762.11	237.62
762.43	237.49
762.76	237.31
763.08	237.15
763.41	237.05
763.74	236.94
764.06	236.80
764.39	236.64
764.71	236.46
765.04	236.32
765.37	236.16
765.69	236.01
766.02	235.89
766.34	235.78
766.67	235.62
767.00	235.54
767.32	235.45
767.65	235.38
767.97	235.25
768.30	235.15
768.62	235.02
768.95	234.87
769.27	234.75
769.60	234.69
769.92	234.56
770.25	234.43
770.57	234.30
770.90	234.19
771.22	234.14
771.55	234.08
771.87	233.99
772.20	233.93
772.52	233.94
772.85	233.96
773.17	233.88
773.50	233.77
773.82	233.64
774.15	233.52
774.47	233.38
774.80	233.31
775.12	233.27
775.45	233.19
775.77	233.18
776.09	233.12
776.42	233.04
776.74	232.99
777.07	232.93
777.39	232.86
777.72	232.79
778.04	232.69
778.36	232.61
778.69	232.55
779.01	232.47
779.33	232.31
779.66	232.14
779.98	232.08
780.31	232.03
780.63	232.02
780.95	231.98
781.28	231.89
781.60	231.84
781.92	231.76
782.25	231.73
782.57	231.64
782.89	231.60
783.22	231.52
783.54	231.44
783.86	231.37
784.19	231.30
784.51	231.28
784.83	231.22
785.16	231.17
785.48	231.14
785.80	231.08
786.12	231.05
786.45	230.98
786.77	230.93
787.09	230.87
787.42	230.80
787.74	230.72
788.06	230.68
788.38	230.62
788.71	230.56
789.03	230.53
789.35	230.49
789.67	230.39
789.99	230.38
790.32	230.35
790.64	230.34
790.96	230.40
791.28	230.34
791.61	230.29
791.93	230.27
792.25	230.19
792.57	230.22
792.89	230.15
793.21	230.13
793.54	230.07
793.86	230.02
794.18	229.96
794.50	229.90
794.82	229.88
795.14	229.84
795.47	229.82
795.79	229.76
796.11	229.73
796.43	229.73
796.75	229.69
797.07	229.63
797.39	229.57
797.71	229.45
798.04	229.39
798.36	229.38
798.68	229.31
799.00	229.28
799.32	229.19
799.64	229.19
799.96	229.12
800.28	229.12
800.60	229.07
800.92	229.09
801.24	229.04
801.56	229.01
801.89	229.02
802.21	228.97
802.53	228.94
802.85	228.91
803.17	228.92
803.49	228.86
803.81	228.83
804.13	228.78
804.45	228.74
804.77	228.73
805.09	228.68
805.41	228.67
805.73	228.60
806.05	228.55
806.37	228.48
806.69	228.46
807.01	228.39
807.33	228.39
807.65	228.30
807.97	228.35
808.28	228.31
808.60	228.24
808.92	228.21
809.24	228.24
809.56	228.22
809.88	228.14
810.20	228.10
810.52	228.08
810.84	228.07
811.16	228.03
811.48	228.00
811.80	228.01
812.12	227.96
812.43	227.98
812.75	227.97
813.07	227.96
813.39	227.96
813.71	227.99
814.03	227.98
814.35	227.98
814.67	227.94
814.98	227.89
815.30	227.88
815.62	227.86
815.94	227.77
816.26	227.80
816.58	227.75
816.89	227.79
817.21	227.73
817.53	227.71
817.85	227.71
818.17	227.69
818.48	227.63
818.80	227.63
819.12	227.59
819.44	227.58
819.76	227.55
820.07	227.54
820.39	227.49
820.71	227.47
821.03	227.41
821.34	227.37
821.66	227.37
821.98	227.41
822.30	227.38
822.61	227.43
822.93	227.35
823.25	227.38
823.57	227.35
823.88	227.39
824.20	227.38
824.52	227.38
824.83	227.36
825.15	227.35
825.47	227.34
825.79	227.35
826.10	227.33
826.42	227.33
826.74	227.30
827.05	227.32
827.37	227.33
827.69	227.38
828.00	227.37
828.32	227.36
828.64	227.36
828.95	227.42
829.27	227.40
829.58	227.42
829.90	227.42
830.22	227.39
830.53	227.38
830.85	227.36
831.17	227.31
831.48	227.30
831.80	227.32
832.11	227.32
832.43	227.31
832.75	227.28
833.06	227.30
833.38	227.28
833.69	227.26
834.01	227.22
834.32	227.17
834.64	227.17
834.96	227.16
835.27	227.11
835.59	227.07
835.90	227.02
836.22	226.96
836.53	226.94
836.85	226.97
837.16	227.05
837.48	227.05
837.79	227.07
838.11	227.08
838.42	227.05
838.74	227.02
839.05	226.99
839.37	226.97
839.68	226.94
840.00	226.92
840.31	226.91
840.63	226.89
840.94	226.89
841.26	226.86
841.57	226.85
841.88	226.82
842.20	226.80
842.51	226.77
842.83	226.77
843.14	226.83
843.46	226.81
843.77	226.76
844.08	226.73
844.40	226.67
844.71	226.66
845.03	226.63
845.34	226.64
845.65	226.65
845.97	226.67
846.28	226.68
846.60	226.66
846.91	226.61
847.22	226.63
847.54	226.60
847.85	226.61
848.16	226.59
848.48	226.59
848.79	226.60
849.10	226.59
849.42	226.61
849.73	226.54
850.04	226.47
850.36	226.40
850.67	226.41
850.98	226.42
851.30	226.41
851.61	226.44
851.92	226.40
852.23	226.42
852.55	226.42
852.86	226.41
853.17	226.41
853.49	226.48
853.80	226.48
854.11	226.50
854.42	226.50
854.74	226.49
855.05	226.47
855.36	226.46
855.67	226.49
855.99	226.49
856.30	226.58
856.61	226.63
856.92	226.64
857.23	226.67
857.55	226.69
857.86	226.68
858.17	226.67
858.48	226.71
858.79	226.68
859.11	226.68
859.42	226.67
859.73	226.69
860.04	226.64
860.35	226.64
860.66	226.64
860.98	226.66
861.29	226.70
861.60	226.74
861.91	226.73
862.22	226.72
862.53	226.69
862.84	226.58
863.16	226.60
863.47	226.59
863.78	226.60
864.09	226.58
864.40	226.58
864.71	226.59
865.02	226.59
865.33	226.59
865.64	226.60
865.95	226.59
866.27	226.68
866.58	226.67
866.89	226.63
867.20	226.62
867.51	226.58
867.82	226.56
868.13	226.56
868.44	226.54
868.75	226.57
869.06	226.59
869.37	226.60
869.68	226.55
869.99	226.55
870.30	226.51
870.61	226.51
870.92	226.53
871.23	226.50
871.54	226.51
871.85	226.52
872.16	226.52
872.47	226.50
872.78	226.43
873.09	226.45
873.40	226.44
873.71	226.43
874.02	226.40
874.33	226.39
874.64	226.37
874.95	226.38
875.26	226.37
875.56	226.39
875.87	226.35
876.18	226.35
876.49	226.43
876.80	226.44
877.11	226.41
877.42	226.38
877.73	226.36
878.04	226.33
878.35	226.34
878.66	226.31
878.96	226.29
879.27	226.28
879.58	226.23
879.89	226.24
880.20	226.26
880.51	226.26
880.82	226.25
881.12	226.22
881.43	226.20
881.74	226.18
882.05	226.14
882.36	226.18
882.67	226.16
882.97	226.08
883.28	226.05
883.59	226.06
883.90	226.08
884.21	226.10
884.51	226.08
884.82	226.04
885.13	226.03
885.44	226.04
885.74	225.99
886.05	226.00
886.36	226.01
886.67	225.97
886.98	225.99
887.28	225.98
887.59	225.99
887.90	225.96
888.20	225.96
888.51	225.97
888.82	225.91
889.13	225.95
889.43	226.03
889.74	226.02
890.05	226.00
890.35	225.99
890.66	225.97
890.97	225.95
891.28	225.96
891.58	226.00
891.89	226.02
892.20	226.03
892.50	226.04
892.81	226.05
893.12	226.06
893.42	226.07
893.73	226.10
894.04	226.11
894.34	226.14
894.65	226.15
894.95	226.15
895.26	226.17
895.57	226.18
895.87	226.09
896.18	226.13
896.48	226.12
896.79	226.13
897.10	226.18
897.40	226.22
897.71	226.21
898.01	226.19
898.32	226.22
898.63	226.24
898.93	226.25
899.24	226.24
899.54	226.24
899.85	226.22
900.15	226.22
900.46	226.23
900.76	226.28
901.07	226.27
901.38	226.25
901.68	226.26
901.99	226.23
902.29	226.23
902.60	226.22
902.90	226.26
903.21	226.22
903.51	226.18
903.82	226.20
904.12	226.22
904.43	226.23
904.73	226.18
905.03	226.17
905.34	226.28
905.64	226.25
905.95	226.24
906.25	226.22
906.56	226.19
906.86	226.21
907.17	226.14
907.47	226.15
907.77	226.14
908.08	226.13
908.38	226.14
908.69	226.12
908.99	226.10
909.30	226.09
909.60	226.11
909.90	226.14
910.21	226.10
910.51	226.06
910.81	226.05
911.12	226.07
911.42	226.08
911.73	225.95
912.03	225.96
912.33	225.97
912.64	225.96
912.94	225.95
913.24	225.91
913.55	225.87
913.85	225.85
914.15	225.86
914.46	225.85
914.76	225.84
915.06	225.83
915.37	225.82
915.67	225.80
915.97	225.80
916.27	225.75
916.58	225.71
916.88	225.71
917.18	225.69
917.49	225.74
917.79	225.72
918.09	225.73
918.39	225.75
918.70	225.74
919.00	225.76
919.30	225.81
919.60	225.81
919.91	225.82
920.21	225.82
920.51	225.82
920.81	225.83
921.12	225.84
921.42	225.84
921.72	225.85
922.02	225.85
922.32	225.89
922.63	225.89
922.93	225.96
923.23	226.00
923.53	226.01
923.83	225.96
924.13	225.98
924.44	225.97
924.74	225.99
925.04	226.04
925.34	226.01
925.64	225.96
925.94	225.97
926.24	226.03
926.55	226.02
926.85	226.03
927.15	226.02
927.45	226.01
927.75	226.02
928.05	226.02
928.35	226.04
928.65	226.00
928.95	226.01
929.26	225.98
929.56	225.98
929.86	225.99
930.16	225.97
930.46	225.97
930.76	225.99
931.06	225.96
931.36	225.94
931.66	225.96
931.96	225.98
932.26	225.99
932.56	225.98
932.86	225.99
933.16	225.96
933.46	225.96
933.76	225.99
934.06	226.02
934.36	226.09
934.66	226.10
934.96	226.12
935.26	226.13
935.56	226.14
935.86	226.10
936.16	226.09
936.46	226.09
936.76	226.07
937.06	226.06
937.36	226.06
937.66	226.07
937.96	226.11
938.26	226.07
938.56	226.05
938.86	226.03
939.16	226.05
939.46	226.08
939.76	226.09
940.06	226.07
940.35	226.04
940.65	225.96
940.95	225.99
941.25	225.99
941.55	226.01
941.85	226.02
942.15	226.07
942.45	226.08
942.75	226.07
943.04	226.11
943.34	226.11
943.64	226.10
943.94	226.08
944.24	226.08
944.54	226.06
944.84	226.08
945.13	226.10
945.43	226.10
945.73	226.11
946.03	226.09
946.33	226.07
946.62	226.07
946.92	226.08
947.22	226.05
947.52	226.03
947.82	226.00
948.11	226.01
948.41	225.96
948.71	225.91
949.01	225.93
949.31	225.89
949.60	225.87
949.90	225.87
950.20	225.84
950.50	225.79
950.79	225.81
951.09	225.81
951.39	225.79
951.69	225.72
951.98	225.73
952.28	225.71
952.58	225.70
952.87	225.65
953.17	225.68
953.47	225.66
953.76	225.65
954.06	225.64
954.36	225.58
954.66	225.59
954.95	225.63
955.25	225.63
955.55	225.65
955.84	225.66
956.14	225.65
956.44	225.65
956.73	225.64
957.03	225.65
957.32	225.65
957.62	225.63
957.92	225.68
958.21	225.68
958.51	225.84
958.81	225.84
959.10	225.89
959.40	225.89
959.69	225.89
959.99	225.94
960.29	225.92
960.58	225.93
960.88	225.97
961.17	225.95
961.47	225.96
961.76	225.96
962.06	225.99
962.36	226.00
962.65	225.97
962.95	226.00
963.24	225.99
963.54	225.99
963.83	226.03
964.13	226.04
964.42	226.00
964.72	225.93
965.01	226.00
965.31	225.98
965.60	225.95
965.90	226.03
966.19	226.00
966.49	226.03
966.78	226.05
967.08	226.06
967.37	226.03
967.67	225.98
967.96	226.01
968.26	225.98
968.55	225.99
968.85	226.03
969.14	226.03
969.43	226.06
969.73	226.05
970.02	226.05
970.32	226.04
970.61	226.05
970.91	226.02
971.20	225.97
971.49	225.94
971.79	225.98
972.08	225.90
972.38	225.91
972.67	225.91
972.96	225.91
973.26	225.90
973.55	225.96
973.85	225.99
974.14	225.97
974.43	225.98
974.73	225.96
975.02	225.95
975.31	225.93
975.61	225.90
975.90	225.91
976.19	225.89
976.49	225.89
976.78	225.87
977.07	225.86
977.37	225.85
977.66	225.87
977.95	225.83
978.24	225.85
978.54	225.88
978.83	225.88
979.12	225.85
979.42	225.86
979.71	225.83
980.00	225.82
980.29	225.83
980.59	225.78
980.88	225.83
981.17	225.85
981.46	225.86
981.76	225.87
982.05	225.87
982.34	225.90
982.63	225.87
982.93	225.86
983.22	225.89
983.51	225.90
983.80	225.94
984.09	225.98
984.39	225.92
984.68	225.87
984.97	225.85
985.26	225.87
985.55	225.85
985.85	225.78
986.14	225.81
986.43	225.77
986.72	225.79
987.01	225.75
987.30	225.71
987.59	225.69
987.89	225.69
988.18	225.67
988.47	225.62
988.76	225.63
989.05	225.65
989.34	225.64
989.63	225.62
989.92	225.59
990.22	225.55
990.51	225.55
990.80	225.58
991.09	225.59
991.38	225.57
991.67	225.56
991.96	225.58
992.25	225.56
992.54	225.58
992.83	225.58
993.12	225.55
993.41	225.60
993.70	225.66
993.99	225.64
994.28	225.67
994.58	225.71
994.87	225.71
995.16	225.71
995.45	225.67
995.74	225.67
996.03	225.70
996.32	225.72
996.61	225.76
996.90	225.72
997.19	225.71
997.48	225.71
997.77	225.70
998.06	225.72
998.34	225.69
998.63	225.68
998.92	225.68
999.21	225.72
999.50	225.68
999.79	225.66
1000.08	225.64
1000.37	225.62
1000.66	225.59
1000.95	225.62
1001.24	225.57
1001.53	225.58
1001.82	225.59
1002.11	225.54
1002.40	225.56
1002.68	225.56
1002.97	225.68
1003.26	225.70
1003.55	225.68
1003.84	225.68
1004.13	225.70
1004.42	225.74
1004.71	225.73
1004.99	225.72
1005.28	225.71
1005.57	225.73
1005.86	225.72
1006.15	225.75
1006.44	225.74
1006.72	225.77
1007.01	225.75
1007.30	225.78
1007.59	225.79
1007.88	225.82
1008.17	225.85
1008.45	225.85
1008.74	225.87
1009.03	225.80
1009.32	225.79
1009.60	225.82
1009.89	225.85
1010.18	225.85
1010.47	225.86
1010.76	225.91
1011.04	225.93
1011.33	225.96
1011.62	226.00
1011.91	226.03
1012.19	226.05
1012.48	226.06
1012.77	226.08
1013.05	226.11
1013.34	226.17
1013.63	226.17
1013.92	226.17
1014.20	226.17
1014.49	226.15
1014.78	226.13
1015.06	226.14
1015.35	226.14
1015.64	226.14
1015.92	226.15
1016.21	226.14
1016.50	226.16
1016.78	226.16
1017.07	226.18
1017.36	226.14
1017.64	226.07
1017.93	226.03
1018.22	226.08
1018.50	226.11
1018.79	226.12
1019.08	226.09
1019.36	226.07
1019.65	226.10
1019.93	226.09
1020.22	226.09
1020.51	226.15
1020.79	226.14
1021.08	227.04
1021.36	226.33
1021.65	226.43
1021.94	225.98
1022.22	226.34
1022.51	226.19
1022.79	226.16
1023.08	226.10
1023.36	227.06
1023.65	225.75
>>>>>End Processed Spectral Data<<<<<
