SpectraSuite Data File
++++++++++++++++++++++++++++++++++++
Date: Fri Feb 01 16:06:30 EST 2013
User: group
Dark Spectrum Present: No
Reference Spectrum Present: No
Number of Sampled Component Spectra: 1
Spectrometers: USB2E7196
Integration Time (usec): 35000 (USB2E7196)
Spectra Averaged: 100 (USB2E7196)
Boxcar Smoothing: 10 (USB2E7196)
Correct for Electrical Dark: No (USB2E7196)
Strobe/Lamp Enabled: No (USB2E7196)
Correct for Detector Non-linearity: No (USB2E7196)
Correct for Stray Light: No (USB2E7196)
Number of Pixels in Processed Spectrum: 2048
>>>>>Begin Processed Spectral Data<<<<<
339.09	0.00
339.48	214.68
339.86	216.24
340.24	217.13
340.63	218.12
341.01	221.68
341.39	221.57
341.78	223.26
342.16	223.28
342.54	224.21
342.93	212.94
343.31	223.73
343.69	224.27
344.07	224.73
344.46	225.20
344.84	225.63
345.22	225.88
345.60	226.14
345.99	226.31
346.37	226.49
346.75	226.59
347.13	226.64
347.52	226.73
347.90	226.78
348.28	226.77
348.66	226.84
349.05	226.85
349.43	226.89
349.81	226.91
350.19	226.98
350.57	227.03
350.96	227.13
351.34	227.19
351.72	227.28
352.10	227.36
352.48	227.44
352.87	227.48
353.25	227.54
353.63	227.60
354.01	227.67
354.39	227.76
354.77	227.87
355.15	228.03
355.54	228.06
355.92	228.14
356.30	228.23
356.68	228.36
357.06	228.41
357.44	228.47
357.82	228.52
358.20	228.60
358.58	228.66
358.97	228.75
359.35	228.82
359.73	228.92
360.11	228.97
360.49	228.99
360.87	229.05
361.25	229.12
361.63	229.20
362.01	229.27
362.39	229.27
362.77	229.29
363.15	229.32
363.53	229.37
363.91	229.33
364.29	229.34
364.67	229.25
365.05	229.28
365.43	229.28
365.81	229.30
366.19	229.31
366.57	229.35
366.95	229.29
367.33	229.26
367.71	229.22
368.09	229.23
368.47	229.21
368.85	229.20
369.23	229.19
369.61	229.10
369.99	229.08
370.37	229.06
370.75	229.10
371.13	229.01
371.51	228.94
371.89	228.94
372.27	228.91
372.65	228.85
373.03	228.80
373.41	228.77
373.78	228.71
374.16	228.61
374.54	228.54
374.92	228.51
375.30	228.43
375.68	228.36
376.06	228.29
376.44	228.22
376.82	228.13
377.19	228.05
377.57	228.01
377.95	227.90
378.33	227.81
378.71	227.65
379.09	227.59
379.47	227.54
379.84	227.47
380.22	227.40
380.60	227.35
380.98	227.28
381.36	227.22
381.73	227.14
382.11	227.10
382.49	227.02
382.87	226.93
383.25	226.89
383.62	226.97
384.00	226.90
384.38	226.84
384.76	226.83
385.13	226.79
385.51	226.72
385.89	226.68
386.27	226.63
386.64	226.63
387.02	226.60
387.40	226.57
387.78	226.53
388.15	226.49
388.53	226.45
388.91	226.42
389.29	226.36
389.66	226.32
390.04	226.29
390.42	226.29
390.79	226.30
391.17	226.29
391.55	226.16
391.92	226.15
392.30	226.14
392.68	226.11
393.05	226.12
393.43	226.16
393.81	226.18
394.18	226.22
394.56	226.22
394.94	226.22
395.31	226.22
395.69	226.26
396.06	226.29
396.44	226.35
396.82	226.36
397.19	226.50
397.57	226.57
397.95	226.69
398.32	226.71
398.70	226.78
399.07	226.82
399.45	226.89
399.82	226.96
400.20	227.01
400.58	227.07
400.95	227.10
401.33	227.19
401.70	227.34
402.08	227.44
402.45	227.52
402.83	227.66
403.20	227.77
403.58	227.88
403.95	228.01
404.33	228.11
404.71	228.23
405.08	228.39
405.46	228.50
405.83	228.61
406.21	228.78
406.58	228.93
406.96	229.12
407.33	229.28
407.70	229.47
408.08	229.78
408.45	230.03
408.83	230.27
409.20	230.49
409.58	230.67
409.95	230.90
410.33	231.17
410.70	231.44
411.08	231.77
411.45	232.07
411.82	232.37
412.20	232.73
412.57	233.17
412.95	233.42
413.32	233.86
413.69	234.22
414.07	234.66
414.44	235.12
414.82	235.58
415.19	236.14
415.56	236.71
415.94	237.26
416.31	237.86
416.68	238.49
417.06	239.20
417.43	239.87
417.81	240.65
418.18	241.45
418.55	242.26
418.93	243.08
419.30	243.96
419.67	244.89
420.04	245.83
420.42	246.78
420.79	248.02
421.16	249.17
421.54	250.35
421.91	251.54
422.28	252.80
422.66	254.14
423.03	255.43
423.40	256.70
423.77	258.09
424.15	259.53
424.52	261.00
424.89	262.55
425.26	264.08
425.64	265.53
426.01	267.09
426.38	268.74
426.75	270.45
427.13	272.17
427.50	274.02
427.87	275.91
428.24	277.78
428.61	279.49
428.99	281.40
429.36	283.49
429.73	285.55
430.10	287.54
430.47	289.62
430.85	291.73
431.22	294.00
431.59	296.38
431.96	298.61
432.33	301.08
432.70	303.46
433.08	306.27
433.45	308.89
433.82	311.53
434.19	314.43
434.56	317.18
434.93	319.89
435.30	322.48
435.68	325.36
436.05	328.19
436.42	330.95
436.79	333.48
437.16	336.22
437.53	339.05
437.90	341.90
438.27	344.59
438.64	347.43
439.01	349.99
439.38	352.25
439.75	354.41
440.13	356.92
440.50	359.26
440.87	361.11
441.24	363.06
441.61	365.17
441.98	366.64
442.35	368.51
442.72	370.38
443.09	372.16
443.46	373.14
443.83	373.73
444.20	374.24
444.57	375.07
444.94	375.35
445.31	375.71
445.68	376.07
446.05	376.14
446.42	375.75
446.79	375.34
447.16	374.83
447.53	374.52
447.90	373.35
448.27	372.19
448.64	370.62
449.01	369.44
449.37	367.47
449.74	365.54
450.11	363.22
450.48	360.68
450.85	358.18
451.22	356.03
451.59	354.00
451.96	352.05
452.33	349.42
452.70	347.06
453.07	344.22
453.43	341.32
453.80	338.57
454.17	335.91
454.54	333.35
454.91	330.69
455.28	328.01
455.65	325.52
456.02	323.10
456.38	320.97
456.75	318.32
457.12	316.08
457.49	313.86
457.86	311.74
458.23	309.90
458.59	307.85
458.96	305.75
459.33	303.93
459.70	302.11
460.07	300.61
460.43	298.87
460.80	297.26
461.17	295.82
461.54	294.30
461.91	292.87
462.27	291.46
462.64	290.18
463.01	288.83
463.38	287.49
463.74	286.13
464.11	284.94
464.48	283.91
464.85	282.82
465.21	281.95
465.58	281.02
465.95	279.91
466.32	278.98
466.68	278.12
467.05	277.20
467.42	276.30
467.78	275.42
468.15	274.57
468.52	273.88
468.88	272.98
469.25	272.21
469.62	271.58
469.98	270.90
470.35	270.27
470.72	269.69
471.08	269.09
471.45	268.51
471.82	267.97
472.18	267.36
472.55	266.96
472.92	266.46
473.28	265.98
473.65	265.55
474.02	265.10
474.38	264.72
474.75	264.40
475.11	264.05
475.48	263.76
475.85	263.50
476.21	263.27
476.58	263.10
476.94	262.97
477.31	262.79
477.67	262.61
478.04	262.48
478.41	262.44
478.77	262.49
479.14	262.43
479.50	262.46
479.87	262.54
480.23	262.58
480.60	262.65
480.96	262.77
481.33	262.98
481.69	263.19
482.06	263.40
482.42	263.62
482.79	263.84
483.15	264.18
483.52	264.59
483.88	264.95
484.25	265.29
484.61	265.74
484.98	266.20
485.34	266.79
485.71	267.41
486.07	268.00
486.44	268.52
486.80	269.26
487.17	269.97
487.53	270.78
487.90	271.65
488.26	272.61
488.62	273.62
488.99	274.60
489.35	275.67
489.72	276.78
490.08	277.96
490.44	279.22
490.81	280.53
491.17	281.88
491.54	283.40
491.90	285.00
492.26	286.64
492.63	288.39
492.99	290.16
493.36	292.04
493.72	294.08
494.08	296.19
494.45	298.41
494.81	300.80
495.17	303.22
495.54	305.81
495.90	308.44
496.26	311.18
496.63	314.15
496.99	317.26
497.35	320.54
497.72	323.97
498.08	327.54
498.44	331.25
498.80	335.17
499.17	339.22
499.53	343.41
499.89	347.84
500.26	352.33
500.62	357.04
500.98	362.02
501.34	367.14
501.71	372.50
502.07	378.01
502.43	383.66
502.79	389.51
503.16	395.55
503.52	401.89
503.88	408.34
504.24	414.98
504.60	421.93
504.97	429.05
505.33	436.45
505.69	444.17
506.05	451.96
506.41	459.88
506.78	468.07
507.14	476.47
507.50	485.20
507.86	494.27
508.22	503.44
508.59	512.74
508.95	522.35
509.31	532.21
509.67	542.30
510.03	552.62
510.39	563.21
510.75	574.07
511.12	585.06
511.48	596.40
511.84	607.85
512.20	619.33
512.56	631.27
512.92	643.46
513.28	655.76
513.64	668.25
514.00	680.95
514.37	693.84
514.73	706.89
515.09	719.93
515.45	733.20
515.81	746.86
516.17	760.78
516.53	774.88
516.89	789.01
517.25	803.14
517.61	817.55
517.97	832.00
518.33	846.44
518.69	861.12
519.05	876.00
519.41	891.18
519.77	906.69
520.13	922.14
520.49	937.44
520.85	952.92
521.21	968.58
521.57	984.78
521.93	1000.49
522.29	1016.99
522.65	1033.19
523.01	1049.39
523.37	1065.39
523.73	1081.53
524.09	1097.50
524.45	1113.84
524.81	1130.48
525.17	1147.27
525.53	1164.16
525.89	1180.94
526.25	1197.86
526.61	1214.34
526.97	1231.00
527.33	1247.41
527.68	1263.84
528.04	1280.27
528.40	1296.81
528.76	1313.84
529.12	1330.23
529.48	1347.08
529.84	1362.98
530.20	1379.65
530.56	1396.49
530.91	1413.87
531.27	1430.63
531.63	1447.09
531.99	1463.65
532.35	1479.61
532.71	1495.38
533.07	1511.59
533.42	1527.44
533.78	1543.37
534.14	1559.54
534.50	1574.89
534.86	1590.77
535.21	1606.03
535.57	1622.03
535.93	1637.43
536.29	1652.21
536.65	1667.32
537.00	1682.09
537.36	1697.31
537.72	1711.76
538.08	1726.22
538.44	1739.85
538.79	1753.64
539.15	1767.26
539.51	1780.89
539.87	1795.18
540.22	1808.90
540.58	1822.52
540.94	1835.75
541.29	1848.55
541.65	1861.21
542.01	1874.36
542.37	1886.69
542.72	1899.02
543.08	1910.76
543.44	1923.20
543.79	1934.43
544.15	1945.40
544.51	1956.92
544.87	1967.92
545.22	1978.61
545.58	1988.79
545.94	1998.60
546.29	2008.45
546.65	2018.36
547.01	2027.50
547.36	2036.21
547.72	2044.67
548.07	2052.56
548.43	2060.77
548.79	2068.85
549.14	2076.50
549.50	2083.79
549.86	2091.46
550.21	2098.78
550.57	2105.88
550.92	2112.34
551.28	2119.32
551.64	2126.37
551.99	2132.85
552.35	2138.97
552.70	2145.07
553.06	2151.10
553.41	2157.33
553.77	2163.26
554.13	2169.28
554.48	2175.54
554.84	2180.94
555.19	2186.12
555.55	2191.28
555.90	2195.74
556.26	2200.63
556.61	2205.30
556.97	2209.73
557.32	2213.73
557.68	2217.84
558.03	2222.10
558.39	2225.97
558.74	2230.46
559.10	2234.39
559.45	2238.06
559.81	2242.41
560.16	2246.33
560.52	2249.66
560.87	2253.04
561.23	2255.82
561.58	2258.69
561.94	2261.13
562.29	2263.50
562.64	2266.32
563.00	2268.86
563.35	2272.50
563.71	2275.60
564.06	2278.72
564.42	2281.48
564.77	2284.14
565.12	2286.46
565.48	2288.33
565.83	2290.03
566.19	2291.36
566.54	2292.31
566.89	2293.45
567.25	2294.15
567.60	2295.37
567.96	2296.89
568.31	2297.89
568.66	2299.04
569.02	2299.75
569.37	2300.14
569.72	2300.96
570.08	2301.13
570.43	2301.19
570.78	2300.48
571.14	2299.02
571.49	2297.68
571.84	2297.34
572.20	2296.09
572.55	2295.02
572.90	2293.45
573.26	2292.17
573.61	2290.57
573.96	2288.79
574.31	2285.87
574.67	2282.77
575.02	2279.25
575.37	2275.98
575.72	2272.15
576.08	2268.87
576.43	2265.55
576.78	2261.88
577.13	2258.74
577.49	2255.68
577.84	2252.28
578.19	2248.61
578.54	2244.97
578.90	2240.77
579.25	2235.34
579.60	2230.45
579.95	2225.53
580.30	2220.52
580.66	2215.21
581.01	2210.25
581.36	2205.29
581.71	2201.10
582.06	2196.61
582.42	2192.21
582.77	2186.98
583.12	2182.55
583.47	2177.84
583.82	2172.80
584.17	2167.58
584.53	2162.03
584.88	2156.40
585.23	2150.66
585.58	2145.15
585.93	2139.67
586.28	2134.91
586.63	2129.80
586.98	2124.82
587.34	2120.13
587.69	2115.26
588.04	2110.19
588.39	2104.69
588.74	2098.22
589.09	2092.22
589.44	2085.47
589.79	2079.39
590.14	2073.76
590.49	2067.17
590.84	2060.78
591.19	2054.84
591.54	2048.38
591.89	2041.21
592.25	2034.31
592.60	2027.02
592.95	2019.46
593.30	2012.03
593.65	2004.44
594.00	1997.38
594.35	1990.07
594.70	1982.14
595.05	1975.06
595.40	1967.79
595.75	1960.24
596.10	1954.16
596.45	1947.50
596.80	1941.35
597.15	1934.80
597.50	1927.62
597.85	1921.21
598.19	1914.39
598.54	1907.33
598.89	1900.64
599.24	1894.75
599.59	1888.06
599.94	1881.93
600.29	1875.70
600.64	1869.27
600.99	1861.96
601.34	1855.20
601.69	1848.21
602.04	1841.33
602.39	1833.94
602.74	1827.15
603.08	1820.30
603.43	1813.44
603.78	1806.08
604.13	1798.95
604.48	1791.65
604.83	1784.87
605.18	1777.90
605.53	1770.10
605.87	1761.96
606.22	1754.68
606.57	1746.58
606.92	1739.43
607.27	1732.23
607.62	1725.30
607.96	1718.07
608.31	1711.44
608.66	1703.80
609.01	1696.36
609.36	1688.65
609.70	1680.73
610.05	1672.70
610.40	1665.10
610.75	1656.84
611.10	1649.08
611.44	1640.71
611.79	1632.65
612.14	1623.98
612.49	1614.77
612.83	1606.30
613.18	1598.26
613.53	1590.25
613.88	1581.75
614.22	1573.41
614.57	1564.80
614.92	1556.73
615.27	1549.12
615.61	1540.78
615.96	1532.73
616.31	1525.06
616.65	1517.75
617.00	1510.01
617.35	1502.15
617.70	1493.82
618.04	1485.34
618.39	1477.11
618.74	1469.38
619.08	1461.16
619.43	1453.64
619.78	1446.71
620.12	1439.55
620.47	1432.02
620.82	1423.84
621.16	1416.49
621.51	1408.88
621.85	1401.31
622.20	1392.80
622.55	1384.33
622.89	1376.41
623.24	1368.79
623.59	1361.33
623.93	1353.73
624.28	1346.56
624.62	1339.18
624.97	1331.97
625.32	1325.26
625.66	1318.15
626.01	1311.05
626.35	1303.57
626.70	1295.75
627.04	1288.07
627.39	1280.22
627.73	1272.79
628.08	1265.93
628.43	1258.72
628.77	1251.21
629.12	1243.64
629.46	1236.41
629.81	1229.05
630.15	1221.91
630.50	1214.49
630.84	1206.33
631.19	1198.45
631.53	1190.97
631.88	1183.30
632.22	1175.73
632.57	1168.27
632.91	1160.80
633.26	1153.30
633.60	1145.90
633.95	1138.81
634.29	1131.69
634.64	1125.07
634.98	1117.80
635.32	1110.60
635.67	1103.90
636.01	1097.39
636.36	1090.51
636.70	1083.97
637.05	1077.45
637.39	1070.96
637.73	1064.48
638.08	1058.52
638.42	1052.52
638.77	1046.04
639.11	1039.62
639.45	1033.24
639.80	1026.65
640.14	1020.17
640.49	1013.62
640.83	1007.32
641.17	1001.05
641.52	994.80
641.86	988.30
642.20	982.38
642.55	976.07
642.89	969.58
643.23	963.02
643.58	957.27
643.92	951.22
644.26	945.13
644.61	939.01
644.95	933.02
645.29	926.40
645.64	919.61
645.98	913.31
646.32	907.32
646.66	901.30
647.01	895.50
647.35	889.84
647.69	884.03
648.04	878.47
648.38	872.61
648.72	866.54
649.06	860.44
649.41	854.60
649.75	848.64
650.09	842.65
650.43	836.87
650.78	830.74
651.12	824.65
651.46	818.85
651.80	813.13
652.14	807.73
652.49	802.44
652.83	797.37
653.17	791.70
653.51	786.07
653.85	780.53
654.20	774.81
654.54	768.81
654.88	763.01
655.22	757.14
655.56	751.50
655.90	746.00
656.25	740.80
656.59	735.31
656.93	730.25
657.27	725.18
657.61	719.73
657.95	714.58
658.29	709.54
658.64	704.27
658.98	698.92
659.32	693.40
659.66	688.19
660.00	682.85
660.34	677.92
660.68	672.96
661.02	667.99
661.36	663.35
661.70	658.84
662.05	654.51
662.39	650.21
662.73	645.74
663.07	641.38
663.41	636.95
663.75	632.54
664.09	627.97
664.43	623.54
664.77	619.43
665.11	615.20
665.45	611.04
665.79	607.04
666.13	602.91
666.47	598.85
666.81	594.67
667.15	590.56
667.49	586.61
667.83	582.81
668.17	578.92
668.51	574.83
668.85	570.82
669.19	566.99
669.53	563.14
669.87	559.34
670.21	555.70
670.55	552.04
670.89	548.68
671.23	545.16
671.57	541.64
671.91	538.09
672.25	534.58
672.58	531.09
672.92	527.69
673.26	524.50
673.60	521.40
673.94	518.35
674.28	515.43
674.62	512.46
674.96	509.37
675.30	506.51
675.64	503.54
675.97	500.75
676.31	497.85
676.65	494.89
676.99	492.13
677.33	489.24
677.67	486.42
678.01	483.21
678.34	480.26
678.68	477.34
679.02	474.52
679.36	471.75
679.70	469.04
680.04	466.23
680.37	463.34
680.71	460.48
681.05	457.82
681.39	455.02
681.73	452.35
682.06	449.78
682.40	447.15
682.74	444.64
683.08	442.07
683.42	439.50
683.75	437.01
684.09	434.47
684.43	431.96
684.77	429.49
685.10	427.19
685.44	424.90
685.78	422.63
686.12	420.38
686.45	418.11
686.79	415.74
687.13	413.51
687.46	411.39
687.80	409.21
688.14	406.97
688.48	404.93
688.81	402.70
689.15	400.57
689.49	398.39
689.82	396.28
690.16	394.21
690.50	392.25
690.83	390.31
691.17	388.30
691.51	386.43
691.84	384.56
692.18	382.63
692.52	380.67
692.85	378.72
693.19	376.84
693.52	375.02
693.86	373.21
694.20	371.46
694.53	369.66
694.87	367.84
695.21	366.07
695.54	364.22
695.88	362.54
696.21	360.79
696.55	359.12
696.88	357.48
697.22	355.80
697.56	354.16
697.89	352.52
698.23	350.93
698.56	349.32
698.90	347.76
699.23	346.17
699.57	344.60
699.90	343.04
700.24	341.45
700.58	339.93
700.91	338.46
701.25	337.02
701.58	335.60
701.92	334.22
702.25	332.86
702.59	331.51
702.92	330.14
703.26	328.83
703.59	327.57
703.93	326.36
704.26	325.15
704.60	323.85
704.93	322.59
705.26	321.32
705.60	320.17
705.93	319.01
706.27	317.97
706.60	316.90
706.94	315.86
707.27	314.74
707.61	313.73
707.94	312.74
708.27	311.64
708.61	310.63
708.94	309.63
709.28	308.66
709.61	307.78
709.94	306.86
710.28	305.89
710.61	304.89
710.95	303.83
711.28	302.92
711.61	302.00
711.95	301.04
712.28	300.14
712.61	299.16
712.95	298.20
713.28	297.33
713.61	296.41
713.95	295.53
714.28	294.74
714.61	293.82
714.95	292.96
715.28	292.11
715.61	291.16
715.95	290.29
716.28	289.40
716.61	288.54
716.95	287.68
717.28	286.91
717.61	286.16
717.94	285.43
718.28	284.63
718.61	283.91
718.94	283.25
719.27	282.58
719.61	281.94
719.94	281.31
720.27	280.59
720.60	279.94
720.94	279.32
721.27	278.67
721.60	278.09
721.93	277.45
722.27	276.92
722.60	276.44
722.93	275.87
723.26	275.33
723.59	274.78
723.93	274.23
724.26	273.67
724.59	273.10
724.92	272.57
725.25	272.08
725.59	271.58
725.92	271.06
726.25	270.52
726.58	270.01
726.91	269.49
727.24	268.98
727.57	268.54
727.91	268.01
728.24	267.57
728.57	267.11
728.90	266.69
729.23	266.15
729.56	265.71
729.89	265.23
730.22	264.73
730.55	264.23
730.89	263.81
731.22	263.36
731.55	262.92
731.88	262.50
732.21	262.06
732.54	261.62
732.87	261.16
733.20	260.75
733.53	260.35
733.86	260.00
734.19	259.60
734.52	259.19
734.85	258.87
735.18	258.42
735.51	258.04
735.84	257.65
736.17	257.31
736.50	256.89
736.83	256.69
737.16	256.37
737.49	256.05
737.82	255.69
738.15	255.31
738.48	254.96
738.81	254.66
739.14	254.32
739.47	253.97
739.80	253.68
740.13	253.38
740.46	253.08
740.79	252.72
741.12	252.42
741.45	252.13
741.78	251.82
742.11	251.57
742.44	251.24
742.77	250.98
743.10	250.67
743.43	250.37
743.75	249.99
744.08	249.88
744.41	249.61
744.74	249.35
745.07	249.10
745.40	248.88
745.73	248.61
746.06	248.34
746.39	248.08
746.71	247.83
747.04	247.56
747.37	247.26
747.70	247.00
748.03	246.78
748.36	246.54
748.68	246.31
749.01	246.02
749.34	245.81
749.67	245.56
750.00	245.36
750.33	245.21
750.65	244.97
750.98	244.62
751.31	244.38
751.64	244.16
751.97	244.03
752.29	243.79
752.62	243.54
752.95	243.35
753.28	243.16
753.60	242.93
753.93	242.75
754.26	242.60
754.59	242.40
754.91	242.18
755.24	241.99
755.57	241.78
755.90	241.63
756.22	241.44
756.55	241.26
756.88	241.05
757.20	240.84
757.53	240.67
757.86	240.50
758.19	240.38
758.51	240.25
758.84	240.01
759.17	239.86
759.49	239.77
759.82	239.65
760.15	239.51
760.47	239.35
760.80	239.19
761.13	239.05
761.45	238.92
761.78	238.80
762.11	238.65
762.43	238.51
762.76	238.38
763.08	238.26
763.41	238.09
763.74	237.95
764.06	237.78
764.39	237.64
764.71	237.51
765.04	237.37
765.37	237.25
765.69	237.14
766.02	237.01
766.34	236.84
766.67	236.68
767.00	236.54
767.32	236.48
767.65	236.42
767.97	236.29
768.30	236.18
768.62	236.05
768.95	235.94
769.27	235.80
769.60	235.69
769.92	235.55
770.25	235.47
770.57	235.36
770.90	235.28
771.22	235.14
771.55	235.06
771.87	234.95
772.20	234.82
772.52	234.84
772.85	234.83
773.17	234.75
773.50	234.66
773.82	234.56
774.15	234.45
774.47	234.28
774.80	234.18
775.12	234.06
775.45	233.98
775.77	233.90
776.09	233.85
776.42	233.77
776.74	233.73
777.07	233.63
777.39	233.55
777.72	233.44
778.04	233.40
778.36	233.32
778.69	233.24
779.01	233.19
779.33	233.00
779.66	232.85
779.98	232.76
780.31	232.67
780.63	232.67
780.95	232.60
781.28	232.53
781.60	232.47
781.92	232.42
782.25	232.37
782.57	232.27
782.89	232.16
783.22	232.10
783.54	232.01
783.86	231.99
784.19	231.93
784.51	231.93
784.83	231.84
785.16	231.76
785.48	231.73
785.80	231.68
786.12	231.64
786.45	231.60
786.77	231.57
787.09	231.53
787.42	231.43
787.74	231.39
788.06	231.37
788.38	231.33
788.71	231.29
789.03	231.21
789.35	231.21
789.67	231.20
789.99	231.11
790.32	231.06
790.64	230.98
790.96	231.03
791.28	230.97
791.61	230.96
791.93	230.92
792.25	230.87
792.57	230.90
792.89	230.84
793.21	230.76
793.54	230.70
793.86	230.62
794.18	230.57
794.50	230.49
794.82	230.43
795.14	230.41
795.47	230.37
795.79	230.36
796.11	230.25
796.43	230.18
796.75	230.20
797.07	230.21
797.39	230.22
797.71	230.10
798.04	230.06
798.36	230.01
798.68	229.97
799.00	229.92
799.32	229.82
799.64	229.83
799.96	229.82
800.28	229.80
800.60	229.79
800.92	229.78
801.24	229.77
801.56	229.75
801.89	229.69
802.21	229.67
802.53	229.62
802.85	229.67
803.17	229.67
803.49	229.55
803.81	229.49
804.13	229.41
804.45	229.39
804.77	229.38
805.09	229.36
805.41	229.35
805.73	229.31
806.05	229.28
806.37	229.21
806.69	229.18
807.01	229.14
807.33	229.11
807.65	229.05
807.97	229.07
808.28	229.04
808.60	229.02
808.92	228.98
809.24	229.01
809.56	228.95
809.88	228.90
810.20	228.93
810.52	228.92
810.84	228.88
811.16	228.85
811.48	228.80
811.80	228.80
812.12	228.77
812.43	228.78
812.75	228.74
813.07	228.70
813.39	228.67
813.71	228.62
814.03	228.58
814.35	228.57
814.67	228.53
814.98	228.52
815.30	228.49
815.62	228.41
815.94	228.34
816.26	228.36
816.58	228.34
816.89	228.30
817.21	228.28
817.53	228.25
817.85	228.20
818.17	228.17
818.48	228.13
818.80	228.11
819.12	228.08
819.44	228.03
819.76	227.99
820.07	227.98
820.39	227.99
820.71	228.00
821.03	227.95
821.34	227.90
821.66	227.87
821.98	227.87
822.30	227.88
822.61	227.92
822.93	227.86
823.25	227.87
823.57	227.82
823.88	227.83
824.20	227.84
824.52	227.85
824.83	227.84
825.15	227.79
825.47	227.78
825.79	227.76
826.10	227.75
826.42	227.77
826.74	227.76
827.05	227.74
827.37	227.72
827.69	227.75
828.00	227.74
828.32	227.74
828.64	227.72
828.95	227.77
829.27	227.74
829.58	227.74
829.90	227.75
830.22	227.81
830.53	227.77
830.85	227.75
831.17	227.73
831.48	227.74
831.80	227.73
832.11	227.70
832.43	227.70
832.75	227.70
833.06	227.74
833.38	227.70
833.69	227.71
834.01	227.73
834.32	227.72
834.64	227.74
834.96	227.73
835.27	227.75
835.59	227.72
835.90	227.71
836.22	227.70
836.53	227.65
836.85	227.63
837.16	227.73
837.48	227.75
837.79	227.79
838.11	227.81
838.42	227.81
838.74	227.83
839.05	227.82
839.37	227.85
839.68	227.80
840.00	227.85
840.31	227.84
840.63	227.82
840.94	227.80
841.26	227.78
841.57	227.78
841.88	227.78
842.20	227.77
842.51	227.74
842.83	227.76
843.14	227.86
843.46	227.85
843.77	227.81
844.08	227.79
844.40	227.79
844.71	227.76
845.03	227.76
845.34	227.77
845.65	227.78
845.97	227.72
846.28	227.71
846.60	227.68
846.91	227.70
847.22	227.66
847.54	227.66
847.85	227.63
848.16	227.62
848.48	227.59
848.79	227.62
849.10	227.61
849.42	227.61
849.73	227.52
850.04	227.50
850.36	227.42
850.67	227.41
850.98	227.40
851.30	227.40
851.61	227.39
851.92	227.34
852.23	227.31
852.55	227.34
852.86	227.32
853.17	227.32
853.49	227.32
853.80	227.35
854.11	227.37
854.42	227.38
854.74	227.35
855.05	227.28
855.36	227.23
855.67	227.24
855.99	227.20
856.30	227.29
856.61	227.30
856.92	227.28
857.23	227.30
857.55	227.27
857.86	227.22
858.17	227.23
858.48	227.21
858.79	227.23
859.11	227.20
859.42	227.20
859.73	227.18
860.04	227.15
860.35	227.13
860.66	227.06
860.98	227.09
861.29	227.11
861.60	227.13
861.91	227.14
862.22	227.10
862.53	227.06
862.84	226.92
863.16	226.93
863.47	226.91
863.78	226.87
864.09	226.86
864.40	226.90
864.71	226.89
865.02	226.89
865.33	226.85
865.64	226.86
865.95	226.86
866.27	226.92
866.58	226.90
866.89	226.90
867.20	226.91
867.51	226.85
867.82	226.86
868.13	226.88
868.44	226.84
868.75	226.88
869.06	226.93
869.37	226.95
869.68	226.92
869.99	226.95
870.30	226.97
870.61	226.97
870.92	226.94
871.23	226.93
871.54	226.95
871.85	227.00
872.16	226.98
872.47	226.95
872.78	226.90
873.09	226.92
873.40	226.91
873.71	226.97
874.02	227.01
874.33	226.95
874.64	226.93
874.95	226.96
875.26	226.93
875.56	226.90
875.87	226.92
876.18	226.94
876.49	227.02
876.80	227.00
877.11	227.01
877.42	226.99
877.73	226.97
878.04	226.97
878.35	226.98
878.66	226.99
878.96	226.98
879.27	226.94
879.58	226.93
879.89	226.93
880.20	226.92
880.51	226.92
880.82	226.97
881.12	227.00
881.43	226.99
881.74	226.97
882.05	226.99
882.36	226.99
882.67	227.00
882.97	226.89
883.28	226.91
883.59	226.92
883.90	226.94
884.21	226.96
884.51	226.94
884.82	226.89
885.13	226.91
885.44	226.94
885.74	226.99
886.05	227.00
886.36	226.96
886.67	226.92
886.98	226.96
887.28	226.95
887.59	226.94
887.90	227.00
888.20	227.01
888.51	227.02
888.82	226.99
889.13	226.99
889.43	227.10
889.74	227.05
890.05	227.02
890.35	227.07
890.66	227.07
890.97	227.08
891.28	227.07
891.58	227.06
891.89	227.05
892.20	227.00
892.50	227.01
892.81	227.02
893.12	227.01
893.42	226.93
893.73	226.94
894.04	226.91
894.34	226.86
894.65	226.82
894.95	226.80
895.26	226.81
895.57	226.82
895.87	226.69
896.18	226.70
896.48	226.74
896.79	226.68
897.10	226.72
897.40	226.68
897.71	226.71
898.01	226.71
898.32	226.73
898.63	226.74
898.93	226.74
899.24	226.75
899.54	226.74
899.85	226.74
900.15	226.72
900.46	226.75
900.76	226.76
901.07	226.81
901.38	226.82
901.68	226.80
901.99	226.78
902.29	226.82
902.60	226.82
902.90	226.79
903.21	226.81
903.51	226.79
903.82	226.84
904.12	226.82
904.43	226.82
904.73	226.77
905.03	226.75
905.34	226.84
905.64	226.84
905.95	226.86
906.25	226.87
906.56	226.86
906.86	226.85
907.17	226.84
907.47	226.81
907.77	226.80
908.08	226.81
908.38	226.82
908.69	226.81
908.99	226.83
909.30	226.82
909.60	226.83
909.90	226.82
910.21	226.77
910.51	226.76
910.81	226.76
911.12	226.76
911.42	226.80
911.73	226.67
912.03	226.69
912.33	226.69
912.64	226.67
912.94	226.67
913.24	226.64
913.55	226.63
913.85	226.63
914.15	226.63
914.46	226.61
914.76	226.60
915.06	226.62
915.37	226.63
915.67	226.62
915.97	226.59
916.27	226.58
916.58	226.59
916.88	226.60
917.18	226.59
917.49	226.68
917.79	226.65
918.09	226.69
918.39	226.72
918.70	226.73
919.00	226.75
919.30	226.77
919.60	226.80
919.91	226.81
920.21	226.82
920.51	226.84
920.81	226.85
921.12	226.88
921.42	226.85
921.72	226.82
922.02	226.85
922.32	226.89
922.63	226.85
922.93	226.92
923.23	226.93
923.53	226.92
923.83	226.84
924.13	226.85
924.44	226.85
924.74	226.85
925.04	226.89
925.34	226.87
925.64	226.86
925.94	226.85
926.24	226.86
926.55	226.84
926.85	226.81
927.15	226.82
927.45	226.79
927.75	226.78
928.05	226.78
928.35	226.78
928.65	226.78
928.95	226.84
929.26	226.79
929.56	226.79
929.86	226.82
930.16	226.81
930.46	226.81
930.76	226.81
931.06	226.76
931.36	226.72
931.66	226.72
931.96	226.72
932.26	226.72
932.56	226.72
932.86	226.73
933.16	226.75
933.46	226.75
933.76	226.73
934.06	226.72
934.36	226.77
934.66	226.76
934.96	226.75
935.26	226.73
935.56	226.73
935.86	226.68
936.16	226.69
936.46	226.67
936.76	226.66
937.06	226.61
937.36	226.61
937.66	226.60
937.96	226.61
938.26	226.56
938.56	226.57
938.86	226.59
939.16	226.61
939.46	226.59
939.76	226.60
940.06	226.62
940.35	226.66
940.65	226.59
940.95	226.57
941.25	226.55
941.55	226.52
941.85	226.51
942.15	226.56
942.45	226.54
942.75	226.56
943.04	226.57
943.34	226.62
943.64	226.60
943.94	226.58
944.24	226.57
944.54	226.62
944.84	226.63
945.13	226.60
945.43	226.59
945.73	226.59
946.03	226.54
946.33	226.51
946.62	226.48
946.92	226.51
947.22	226.52
947.52	226.51
947.82	226.56
948.11	226.55
948.41	226.54
948.71	226.58
949.01	226.57
949.31	226.58
949.60	226.58
949.90	226.61
950.20	226.62
950.50	226.63
950.79	226.60
951.09	226.59
951.39	226.58
951.69	226.55
951.98	226.59
952.28	226.63
952.58	226.64
952.87	226.66
953.17	226.70
953.47	226.69
953.76	226.72
954.06	226.68
954.36	226.67
954.66	226.64
954.95	226.61
955.25	226.67
955.55	226.66
955.84	226.63
956.14	226.65
956.44	226.69
956.73	226.67
957.03	226.70
957.32	226.72
957.62	226.75
957.92	226.76
958.21	226.74
958.51	226.84
958.81	226.86
959.10	226.89
959.40	226.87
959.69	226.90
959.99	226.90
960.29	226.93
960.58	226.93
960.88	226.98
961.17	226.97
961.47	226.94
961.76	226.95
962.06	226.95
962.36	226.93
962.65	226.91
962.95	226.92
963.24	226.90
963.54	226.90
963.83	226.88
964.13	226.87
964.42	226.84
964.72	226.79
965.01	226.75
965.31	226.70
965.60	226.67
965.90	226.71
966.19	226.68
966.49	226.65
966.78	226.62
967.08	226.62
967.37	226.63
967.67	226.59
967.96	226.60
968.26	226.60
968.55	226.63
968.85	226.62
969.14	226.62
969.43	226.60
969.73	226.58
970.02	226.57
970.32	226.59
970.61	226.61
970.91	226.58
971.20	226.58
971.49	226.59
971.79	226.58
972.08	226.52
972.38	226.53
972.67	226.52
972.96	226.52
973.26	226.50
973.55	226.55
973.85	226.53
974.14	226.51
974.43	226.53
974.73	226.52
975.02	226.53
975.31	226.53
975.61	226.52
975.90	226.51
976.19	226.50
976.49	226.46
976.78	226.48
977.07	226.46
977.37	226.46
977.66	226.49
977.95	226.53
978.24	226.52
978.54	226.53
978.83	226.55
979.12	226.57
979.42	226.56
979.71	226.51
980.00	226.52
980.29	226.52
980.59	226.49
980.88	226.47
981.17	226.46
981.46	226.46
981.76	226.47
982.05	226.53
982.34	226.57
982.63	226.59
982.93	226.60
983.22	226.61
983.51	226.64
983.80	226.65
984.09	226.60
984.39	226.60
984.68	226.63
984.97	226.64
985.26	226.63
985.55	226.64
985.85	226.64
986.14	226.68
986.43	226.72
986.72	226.74
987.01	226.73
987.30	226.72
987.59	226.71
987.89	226.74
988.18	226.68
988.47	226.65
988.76	226.67
989.05	226.64
989.34	226.67
989.63	226.69
989.92	226.67
990.22	226.68
990.51	226.72
990.80	226.72
991.09	226.70
991.38	226.74
991.67	226.73
991.96	226.75
992.25	226.73
992.54	226.72
992.83	226.70
993.12	226.72
993.41	226.77
993.70	226.82
993.99	226.84
994.28	226.89
994.58	226.88
994.87	226.84
995.16	226.84
995.45	226.79
995.74	226.75
996.03	226.76
996.32	226.79
996.61	226.76
996.90	226.75
997.19	226.79
997.48	226.78
997.77	226.79
998.06	226.79
998.34	226.78
998.63	226.76
998.92	226.75
999.21	226.77
999.50	226.75
999.79	226.71
1000.08	226.68
1000.37	226.63
1000.66	226.61
1000.95	226.65
1001.24	226.65
1001.53	226.66
1001.82	226.67
1002.11	226.63
1002.40	226.65
1002.68	226.68
1002.97	226.71
1003.26	226.65
1003.55	226.67
1003.84	226.67
1004.13	226.70
1004.42	226.69
1004.71	226.71
1004.99	226.69
1005.28	226.68
1005.57	226.66
1005.86	226.62
1006.15	226.66
1006.44	226.65
1006.72	226.67
1007.01	226.65
1007.30	226.63
1007.59	226.63
1007.88	226.60
1008.17	226.62
1008.45	226.59
1008.74	226.54
1009.03	226.51
1009.32	226.54
1009.60	226.52
1009.89	226.51
1010.18	226.46
1010.47	226.44
1010.76	226.40
1011.04	226.43
1011.33	226.52
1011.62	226.52
1011.91	226.58
1012.19	226.56
1012.48	226.56
1012.77	226.58
1013.05	226.63
1013.34	226.64
1013.63	226.65
1013.92	226.66
1014.20	226.66
1014.49	226.67
1014.78	226.69
1015.06	226.64
1015.35	226.65
1015.64	226.66
1015.92	226.66
1016.21	226.67
1016.50	226.71
1016.78	226.78
1017.07	226.76
1017.36	226.64
1017.64	226.66
1017.93	226.67
1018.22	226.65
1018.50	226.66
1018.79	226.65
1019.08	226.61
1019.36	226.62
1019.65	226.58
1019.93	226.61
1020.22	226.61
1020.51	226.64
1020.79	226.62
1021.08	226.30
1021.36	226.52
1021.65	226.49
1021.94	226.70
1022.22	226.47
1022.51	226.06
1022.79	227.01
1023.08	226.57
1023.36	227.52
1023.65	226.22
>>>>>End Processed Spectral Data<<<<<
