SpectraSuite Data File
++++++++++++++++++++++++++++++++++++
Date: Fri Feb 01 16:19:17 EST 2013
User: group
Dark Spectrum Present: No
Reference Spectrum Present: No
Number of Sampled Component Spectra: 1
Spectrometers: USB2E7196
Integration Time (usec): 35000 (USB2E7196)
Spectra Averaged: 100 (USB2E7196)
Boxcar Smoothing: 10 (USB2E7196)
Correct for Electrical Dark: No (USB2E7196)
Strobe/Lamp Enabled: No (USB2E7196)
Correct for Detector Non-linearity: No (USB2E7196)
Correct for Stray Light: No (USB2E7196)
Number of Pixels in Processed Spectrum: 2048
>>>>>Begin Processed Spectral Data<<<<<
339.09	0.00
339.48	214.36
339.86	215.14
340.24	216.90
340.63	218.81
341.01	221.86
341.39	221.12
341.78	222.18
342.16	223.81
342.54	224.39
342.93	212.67
343.31	223.43
343.69	223.96
344.07	224.45
344.46	224.90
344.84	225.27
345.22	225.48
345.60	225.72
345.99	225.93
346.37	226.05
346.75	226.13
347.13	226.18
347.52	226.22
347.90	226.30
348.28	226.32
348.66	226.40
349.05	226.40
349.43	226.41
349.81	226.47
350.19	226.49
350.57	226.52
350.96	226.59
351.34	226.68
351.72	226.78
352.10	226.87
352.48	226.92
352.87	226.95
353.25	227.03
353.63	227.09
354.01	227.13
354.39	227.21
354.77	227.28
355.15	227.38
355.54	227.43
355.92	227.45
356.30	227.55
356.68	227.63
357.06	227.67
357.44	227.73
357.82	227.76
358.20	227.80
358.58	227.88
358.97	227.93
359.35	227.97
359.73	228.03
360.11	228.06
360.49	228.10
360.87	228.16
361.25	228.17
361.63	228.20
362.01	228.23
362.39	228.22
362.77	228.26
363.15	228.25
363.53	228.30
363.91	228.33
364.29	228.30
364.67	228.23
365.05	228.26
365.43	228.27
365.81	228.29
366.19	228.33
366.57	228.34
366.95	228.34
367.33	228.30
367.71	228.26
368.09	228.25
368.47	228.23
368.85	228.19
369.23	228.18
369.61	228.16
369.99	228.16
370.37	228.15
370.75	228.17
371.13	228.11
371.51	228.04
371.89	227.99
372.27	227.95
372.65	227.89
373.03	227.80
373.41	227.76
373.78	227.72
374.16	227.63
374.54	227.51
374.92	227.42
375.30	227.35
375.68	227.31
376.06	227.27
376.44	227.23
376.82	227.17
377.19	227.12
377.57	227.05
377.95	226.97
378.33	226.89
378.71	226.76
379.09	226.73
379.47	226.66
379.84	226.58
380.22	226.51
380.60	226.43
380.98	226.40
381.36	226.32
381.73	226.26
382.11	226.23
382.49	226.19
382.87	226.12
383.25	226.09
383.62	226.11
384.00	226.03
384.38	225.95
384.76	225.92
385.13	225.90
385.51	225.84
385.89	225.80
386.27	225.76
386.64	225.74
387.02	225.69
387.40	225.67
387.78	225.64
388.15	225.60
388.53	225.56
388.91	225.55
389.29	225.52
389.66	225.52
390.04	225.48
390.42	225.48
390.79	225.50
391.17	225.48
391.55	225.39
391.92	225.39
392.30	225.41
392.68	225.43
393.05	225.44
393.43	225.45
393.81	225.48
394.18	225.50
394.56	225.51
394.94	225.57
395.31	225.61
395.69	225.68
396.06	225.73
396.44	225.81
396.82	225.81
397.19	225.91
397.57	225.93
397.95	226.02
398.32	226.07
398.70	226.12
399.07	226.19
399.45	226.27
399.82	226.32
400.20	226.41
400.58	226.44
400.95	226.47
401.33	226.55
401.70	226.68
402.08	226.77
402.45	226.83
402.83	226.92
403.20	227.01
403.58	227.09
403.95	227.22
404.33	227.37
404.71	227.47
405.08	227.62
405.46	227.72
405.83	227.83
406.21	227.96
406.58	228.11
406.96	228.25
407.33	228.41
407.70	228.64
408.08	228.87
408.45	229.07
408.83	229.33
409.20	229.55
409.58	229.73
409.95	229.96
410.33	230.25
410.70	230.51
411.08	230.79
411.45	231.07
411.82	231.36
412.20	231.67
412.57	232.10
412.95	232.39
413.32	232.81
413.69	233.19
414.07	233.63
414.44	234.08
414.82	234.56
415.19	235.11
415.56	235.61
415.94	236.17
416.31	236.81
416.68	237.41
417.06	238.13
417.43	238.79
417.81	239.60
418.18	240.36
418.55	241.21
418.93	242.08
419.30	243.00
419.67	243.97
420.04	244.91
420.42	245.88
420.79	247.08
421.16	248.22
421.54	249.41
421.91	250.64
422.28	251.91
422.66	253.25
423.03	254.54
423.40	255.92
423.77	257.33
424.15	258.78
424.52	260.27
424.89	261.88
425.26	263.45
425.64	264.86
426.01	266.49
426.38	268.14
426.75	269.77
427.13	271.51
427.50	273.31
427.87	275.19
428.24	277.08
428.61	278.84
428.99	280.80
429.36	282.95
429.73	285.03
430.10	287.04
430.47	289.09
430.85	291.20
431.22	293.42
431.59	295.77
431.96	298.01
432.33	300.53
432.70	302.91
433.08	305.70
433.45	308.33
433.82	310.96
434.19	313.83
434.56	316.67
434.93	319.32
435.30	321.96
435.68	324.84
436.05	327.67
436.42	330.45
436.79	332.96
437.16	335.62
437.53	338.43
437.90	341.23
438.27	344.00
438.64	346.83
439.01	349.41
439.38	351.72
439.75	353.86
440.13	356.32
440.50	358.67
440.87	360.56
441.24	362.48
441.61	364.56
441.98	366.06
442.35	367.85
442.72	369.75
443.09	371.53
443.46	372.48
443.83	373.09
444.20	373.57
444.57	374.42
444.94	374.72
445.31	375.00
445.68	375.39
446.05	375.45
446.42	375.03
446.79	374.60
447.16	374.09
447.53	373.79
447.90	372.58
448.27	371.38
448.64	369.74
449.01	368.65
449.37	366.68
449.74	364.81
450.11	362.57
450.48	360.02
450.85	357.51
451.22	355.41
451.59	353.37
451.96	351.45
452.33	348.82
452.70	346.47
453.07	343.66
453.43	340.73
453.80	337.93
454.17	335.30
454.54	332.75
454.91	329.98
455.28	327.29
455.65	324.83
456.02	322.42
456.38	320.27
456.75	317.57
457.12	315.36
457.49	313.11
457.86	310.96
458.23	309.16
458.59	307.15
458.96	305.05
459.33	303.22
459.70	301.35
460.07	299.84
460.43	298.11
460.80	296.54
461.17	295.13
461.54	293.65
461.91	292.22
462.27	290.80
462.64	289.55
463.01	288.20
463.38	286.90
463.74	285.51
464.11	284.37
464.48	283.36
464.85	282.26
465.21	281.39
465.58	280.48
465.95	279.35
466.32	278.40
466.68	277.53
467.05	276.63
467.42	275.75
467.78	274.86
468.15	274.01
468.52	273.37
468.88	272.54
469.25	271.79
469.62	271.17
469.98	270.48
470.35	269.90
470.72	269.30
471.08	268.65
471.45	268.13
471.82	267.61
472.18	267.03
472.55	266.60
472.92	266.08
473.28	265.60
473.65	265.19
474.02	264.73
474.38	264.37
474.75	264.07
475.11	263.70
475.48	263.44
475.85	263.21
476.21	262.94
476.58	262.74
476.94	262.62
477.31	262.44
477.67	262.35
478.04	262.29
478.41	262.22
478.77	262.29
479.14	262.18
479.50	262.17
479.87	262.26
480.23	262.38
480.60	262.47
480.96	262.57
481.33	262.75
481.69	262.98
482.06	263.20
482.42	263.42
482.79	263.71
483.15	263.99
483.52	264.39
483.88	264.74
484.25	265.11
484.61	265.53
484.98	265.99
485.34	266.54
485.71	267.06
486.07	267.72
486.44	268.32
486.80	269.12
487.17	269.86
487.53	270.66
487.90	271.46
488.26	272.45
488.62	273.42
488.99	274.40
489.35	275.44
489.72	276.56
490.08	277.76
490.44	279.01
490.81	280.36
491.17	281.69
491.54	283.22
491.90	284.74
492.26	286.39
492.63	288.11
492.99	289.90
493.36	291.82
493.72	293.86
494.08	295.90
494.45	298.13
494.81	300.51
495.17	302.93
495.54	305.50
495.90	308.14
496.26	310.98
496.63	313.98
496.99	317.11
497.35	320.33
497.72	323.70
498.08	327.24
498.44	330.89
498.80	334.87
499.17	338.90
499.53	343.14
499.89	347.48
500.26	352.01
500.62	356.71
500.98	361.65
501.34	366.70
501.71	372.09
502.07	377.54
502.43	383.12
502.79	388.93
503.16	395.05
503.52	401.38
503.88	407.79
504.24	414.37
504.60	421.24
504.97	428.41
505.33	435.78
505.69	443.49
506.05	451.33
506.41	459.16
506.78	467.33
507.14	475.74
507.50	484.48
507.86	493.52
508.22	502.68
508.59	511.96
508.95	521.58
509.31	531.39
509.67	541.50
510.03	551.84
510.39	562.41
510.75	573.21
511.12	584.12
511.48	595.41
511.84	606.88
512.20	618.44
512.56	630.39
512.92	642.50
513.28	654.72
513.64	667.10
514.00	679.86
514.37	692.85
514.73	705.93
515.09	718.98
515.45	732.30
515.81	745.91
516.17	759.90
516.53	774.01
516.89	788.12
517.25	802.35
517.61	816.79
517.97	831.26
518.33	845.70
518.69	860.48
519.05	875.49
519.41	890.71
519.77	906.20
520.13	921.68
520.49	937.16
520.85	952.68
521.21	968.42
521.57	984.61
521.93	1000.25
522.29	1016.60
522.65	1032.83
523.01	1048.98
523.37	1064.98
523.73	1081.09
524.09	1097.10
524.45	1113.43
524.81	1129.93
525.17	1146.65
525.53	1163.42
525.89	1180.20
526.25	1197.10
526.61	1213.38
526.97	1230.09
527.33	1246.60
527.68	1263.15
528.04	1279.49
528.40	1296.17
528.76	1313.28
529.12	1329.88
529.48	1346.63
529.84	1362.53
530.20	1379.11
530.56	1395.95
530.91	1413.32
531.27	1430.01
531.63	1446.42
531.99	1462.95
532.35	1478.94
532.71	1494.75
533.07	1511.02
533.42	1526.87
533.78	1542.75
534.14	1559.03
534.50	1574.29
534.86	1590.06
535.21	1605.18
535.57	1621.06
535.93	1636.46
536.29	1651.20
536.65	1666.03
537.00	1680.82
537.36	1696.05
537.72	1710.53
538.08	1725.00
538.44	1738.62
538.79	1752.40
539.15	1766.10
539.51	1779.72
539.87	1793.92
540.22	1807.73
540.58	1821.34
540.94	1834.52
541.29	1847.30
541.65	1859.94
542.01	1873.05
542.37	1885.28
542.72	1897.61
543.08	1909.26
543.44	1921.53
543.79	1932.74
544.15	1943.63
544.51	1955.14
544.87	1966.18
545.22	1976.97
545.58	1987.13
545.94	1996.85
546.29	2006.66
546.65	2016.47
547.01	2025.76
547.36	2034.53
547.72	2042.74
548.07	2050.65
548.43	2058.83
548.79	2066.90
549.14	2074.26
549.50	2081.57
549.86	2089.19
550.21	2096.46
550.57	2103.70
550.92	2110.27
551.28	2117.28
551.64	2124.50
551.99	2130.99
552.35	2136.94
552.70	2143.00
553.06	2148.97
553.41	2155.39
553.77	2161.44
554.13	2167.48
554.48	2173.59
554.84	2179.04
555.19	2184.43
555.55	2189.65
555.90	2194.16
556.26	2198.95
556.61	2203.66
556.97	2207.98
557.32	2212.08
557.68	2216.13
558.03	2220.48
558.39	2224.09
558.74	2228.62
559.10	2232.47
559.45	2236.09
559.81	2240.52
560.16	2244.43
560.52	2247.74
560.87	2251.13
561.23	2253.78
561.58	2256.72
561.94	2259.22
562.29	2261.43
562.64	2264.11
563.00	2266.77
563.35	2270.38
563.71	2273.44
564.06	2276.82
564.42	2279.68
564.77	2282.25
565.12	2284.68
565.48	2286.55
565.83	2288.53
566.19	2289.82
566.54	2290.66
566.89	2291.92
567.25	2292.55
567.60	2293.78
567.96	2295.49
568.31	2296.48
568.66	2297.73
569.02	2298.33
569.37	2298.69
569.72	2299.69
570.08	2299.85
570.43	2299.85
570.78	2299.22
571.14	2297.79
571.49	2296.38
571.84	2296.10
572.20	2295.05
572.55	2294.16
572.90	2292.59
573.26	2291.21
573.61	2289.62
573.96	2288.05
574.31	2285.21
574.67	2282.27
575.02	2278.82
575.37	2275.45
575.72	2271.64
576.08	2268.33
576.43	2265.04
576.78	2261.37
577.13	2258.24
577.49	2255.22
577.84	2251.63
578.19	2247.89
578.54	2244.45
578.90	2240.30
579.25	2234.90
579.60	2229.99
579.95	2224.73
580.30	2219.72
580.66	2214.59
581.01	2209.63
581.36	2204.73
581.71	2200.54
582.06	2196.13
582.42	2191.70
582.77	2186.61
583.12	2182.12
583.47	2177.33
583.82	2172.27
584.17	2167.07
584.53	2161.57
584.88	2155.93
585.23	2150.32
585.58	2144.90
585.93	2139.41
586.28	2134.75
586.63	2129.64
586.98	2124.67
587.34	2120.06
587.69	2115.25
588.04	2109.95
588.39	2104.41
588.74	2097.85
589.09	2091.75
589.44	2084.98
589.79	2078.89
590.14	2073.19
590.49	2066.56
590.84	2060.31
591.19	2054.45
591.54	2048.05
591.89	2040.68
592.25	2033.97
592.60	2026.68
592.95	2019.20
593.30	2011.70
593.65	2004.12
594.00	1997.03
594.35	1989.70
594.70	1981.80
595.05	1974.64
595.40	1967.39
595.75	1959.85
596.10	1953.77
596.45	1947.08
596.80	1940.89
597.15	1934.30
597.50	1927.37
597.85	1921.14
598.19	1914.46
598.54	1907.35
598.89	1900.76
599.24	1894.96
599.59	1888.30
599.94	1882.30
600.29	1875.97
600.64	1869.58
600.99	1862.19
601.34	1855.40
601.69	1848.56
602.04	1841.68
602.39	1834.39
602.74	1827.64
603.08	1820.86
603.43	1814.08
603.78	1806.74
604.13	1799.51
604.48	1792.22
604.83	1785.12
605.18	1777.99
605.53	1769.98
605.87	1761.98
606.22	1754.67
606.57	1746.74
606.92	1739.40
607.27	1732.15
607.62	1725.18
607.96	1717.92
608.31	1711.30
608.66	1703.80
609.01	1696.19
609.36	1688.63
609.70	1680.71
610.05	1672.71
610.40	1665.05
610.75	1656.73
611.10	1649.08
611.44	1640.83
611.79	1632.84
612.14	1624.27
612.49	1615.09
612.83	1606.80
613.18	1598.68
613.53	1590.64
613.88	1582.07
614.22	1573.81
614.57	1565.19
614.92	1557.16
615.27	1549.58
615.61	1541.13
615.96	1533.11
616.31	1525.52
616.65	1518.14
617.00	1510.44
617.35	1502.83
617.70	1494.49
618.04	1486.00
618.39	1477.80
618.74	1470.14
619.08	1461.78
619.43	1454.11
619.78	1447.31
620.12	1440.09
620.47	1432.58
620.82	1424.42
621.16	1417.10
621.51	1409.52
621.85	1401.92
622.20	1393.35
622.55	1385.00
622.89	1377.24
623.24	1369.57
623.59	1362.09
623.93	1354.61
624.28	1347.41
624.62	1339.72
624.97	1332.56
625.32	1325.84
625.66	1318.86
626.01	1311.72
626.35	1304.34
626.70	1296.68
627.04	1288.90
627.39	1281.09
627.73	1273.74
628.08	1266.89
628.43	1259.52
628.77	1252.11
629.12	1244.52
629.46	1237.38
629.81	1230.03
630.15	1222.78
630.50	1215.37
630.84	1207.19
631.19	1199.23
631.53	1191.72
631.88	1184.25
632.22	1176.66
632.57	1169.29
632.91	1161.61
633.26	1154.04
633.60	1146.66
633.95	1139.51
634.29	1132.45
634.64	1125.79
634.98	1118.35
635.32	1111.04
635.67	1104.44
636.01	1097.79
636.36	1090.97
636.70	1084.47
637.05	1077.83
637.39	1071.33
637.73	1064.73
638.08	1058.75
638.42	1052.73
638.77	1046.30
639.11	1039.67
639.45	1033.23
639.80	1026.58
640.14	1020.16
640.49	1013.66
640.83	1007.32
641.17	1001.05
641.52	994.64
641.86	988.11
642.20	982.25
642.55	975.95
642.89	969.40
643.23	962.83
643.58	957.05
643.92	950.86
644.26	944.79
644.61	938.74
644.95	932.76
645.29	926.27
645.64	919.54
645.98	913.12
646.32	907.22
646.66	901.12
647.01	895.32
647.35	889.61
647.69	883.78
648.04	878.23
648.38	872.43
648.72	866.46
649.06	860.43
649.41	854.47
649.75	848.62
650.09	842.78
650.43	836.99
650.78	830.84
651.12	824.87
651.46	819.11
651.80	813.34
652.14	807.93
652.49	802.57
652.83	797.37
653.17	791.70
653.51	785.99
653.85	780.60
654.20	775.03
654.54	769.02
654.88	763.29
655.22	757.43
655.56	751.78
655.90	746.27
656.25	740.98
656.59	735.65
656.93	730.55
657.27	725.34
657.61	719.92
657.95	714.82
658.29	709.74
658.64	704.47
658.98	699.15
659.32	693.69
659.66	688.46
660.00	683.09
660.34	678.13
660.68	673.26
661.02	668.28
661.36	663.48
661.70	658.97
662.05	654.60
662.39	650.32
662.73	645.85
663.07	641.55
663.41	637.15
663.75	632.65
664.09	628.06
664.43	623.69
664.77	619.57
665.11	615.30
665.45	611.12
665.79	606.98
666.13	602.89
666.47	598.83
666.81	594.68
667.15	590.59
667.49	586.68
667.83	582.82
668.17	578.86
668.51	574.74
668.85	570.70
669.19	566.85
669.53	562.96
669.87	559.08
670.21	555.32
670.55	551.70
670.89	548.27
671.23	544.81
671.57	541.27
671.91	537.70
672.25	534.22
672.58	530.69
672.92	527.29
673.26	524.16
673.60	520.95
673.94	517.80
674.28	514.93
674.62	511.92
674.96	508.81
675.30	505.92
675.64	503.04
675.97	500.27
676.31	497.39
676.65	494.44
676.99	491.72
677.33	488.86
677.67	486.00
678.01	482.98
678.34	479.99
678.68	477.05
679.02	474.22
679.36	471.42
679.70	468.76
680.04	466.02
680.37	463.02
680.71	460.16
681.05	457.52
681.39	454.73
681.73	452.15
682.06	449.59
682.40	446.98
682.74	444.44
683.08	441.87
683.42	439.27
683.75	436.76
684.09	434.21
684.43	431.74
684.77	429.23
685.10	426.83
685.44	424.53
685.78	422.23
686.12	419.97
686.45	417.69
686.79	415.32
687.13	413.09
687.46	410.98
687.80	408.84
688.14	406.64
688.48	404.58
688.81	402.32
689.15	400.16
689.49	398.05
689.82	395.95
690.16	393.86
690.50	391.87
690.83	389.91
691.17	387.89
691.51	385.96
691.84	384.14
692.18	382.23
692.52	380.25
692.85	378.36
693.19	376.45
693.52	374.58
693.86	372.77
694.20	371.03
694.53	369.21
694.87	367.39
695.21	365.58
695.54	363.75
695.88	362.00
696.21	360.24
696.55	358.56
696.88	356.87
697.22	355.24
697.56	353.68
697.89	352.04
698.23	350.46
698.56	348.82
698.90	347.24
699.23	345.59
699.57	344.06
699.90	342.55
700.24	341.03
700.58	339.53
700.91	338.07
701.25	336.64
701.58	335.26
701.92	333.91
702.25	332.54
702.59	331.23
702.92	329.93
703.26	328.63
703.59	327.36
703.93	326.19
704.26	324.95
704.60	323.66
704.93	322.37
705.26	321.13
705.60	320.00
705.93	318.86
706.27	317.79
706.60	316.71
706.94	315.59
707.27	314.47
707.61	313.39
707.94	312.34
708.27	311.21
708.61	310.15
708.94	309.10
709.28	308.15
709.61	307.19
709.94	306.20
710.28	305.25
710.61	304.30
710.95	303.22
711.28	302.33
711.61	301.35
711.95	300.44
712.28	299.50
712.61	298.48
712.95	297.56
713.28	296.70
713.61	295.79
713.95	294.92
714.28	294.09
714.61	293.23
714.95	292.40
715.28	291.55
715.61	290.66
715.95	289.84
716.28	289.00
716.61	288.12
716.95	287.34
717.28	286.55
717.61	285.78
717.94	285.02
718.28	284.15
718.61	283.45
718.94	282.74
719.27	282.09
719.61	281.48
719.94	280.81
720.27	280.07
720.60	279.39
720.94	278.75
721.27	278.14
721.60	277.57
721.93	276.97
722.27	276.41
722.60	275.86
722.93	275.29
723.26	274.70
723.59	274.16
723.93	273.58
724.26	273.03
724.59	272.44
724.92	271.90
725.25	271.45
725.59	270.91
725.92	270.43
726.25	269.91
726.58	269.41
726.91	268.88
727.24	268.45
727.57	267.99
727.91	267.47
728.24	266.99
728.57	266.50
728.90	266.01
729.23	265.54
729.56	265.08
729.89	264.58
730.22	264.12
730.55	263.62
730.89	263.17
731.22	262.72
731.55	262.27
731.88	261.86
732.21	261.38
732.54	260.95
732.87	260.50
733.20	260.09
733.53	259.71
733.86	259.28
734.19	258.85
734.52	258.47
734.85	258.16
735.18	257.77
735.51	257.38
735.84	257.00
736.17	256.66
736.50	256.25
736.83	256.03
737.16	255.66
737.49	255.32
737.82	254.96
738.15	254.63
738.48	254.29
738.81	253.95
739.14	253.64
739.47	253.30
739.80	253.01
740.13	252.67
740.46	252.32
740.79	252.04
741.12	251.73
741.45	251.44
741.78	251.09
742.11	250.80
742.44	250.48
742.77	250.18
743.10	249.90
743.43	249.64
743.75	249.26
744.08	249.13
744.41	248.88
744.74	248.61
745.07	248.31
745.40	248.08
745.73	247.84
746.06	247.54
746.39	247.30
746.71	247.02
747.04	246.77
747.37	246.48
747.70	246.23
748.03	245.98
748.36	245.74
748.68	245.49
749.01	245.25
749.34	245.04
749.67	244.85
750.00	244.61
750.33	244.44
750.65	244.24
750.98	243.87
751.31	243.68
751.64	243.51
751.97	243.37
752.29	243.17
752.62	242.95
752.95	242.78
753.28	242.57
753.60	242.35
753.93	242.19
754.26	242.05
754.59	241.81
754.91	241.62
755.24	241.42
755.57	241.24
755.90	241.08
756.22	240.88
756.55	240.68
756.88	240.48
757.20	240.25
757.53	240.06
757.86	239.91
758.19	239.72
758.51	239.55
758.84	239.36
759.17	239.17
759.49	239.00
759.82	238.88
760.15	238.73
760.47	238.62
760.80	238.43
761.13	238.29
761.45	238.16
761.78	238.03
762.11	237.87
762.43	237.75
762.76	237.57
763.08	237.43
763.41	237.32
763.74	237.18
764.06	237.04
764.39	236.87
764.71	236.73
765.04	236.57
765.37	236.43
765.69	236.29
766.02	236.18
766.34	236.05
766.67	235.88
767.00	235.79
767.32	235.69
767.65	235.64
767.97	235.50
768.30	235.39
768.62	235.24
768.95	235.11
769.27	234.98
769.60	234.89
769.92	234.79
770.25	234.66
770.57	234.53
770.90	234.42
771.22	234.36
771.55	234.27
771.87	234.17
772.20	234.05
772.52	234.05
772.85	234.05
773.17	233.96
773.50	233.87
773.82	233.75
774.15	233.60
774.47	233.44
774.80	233.35
775.12	233.27
775.45	233.19
775.77	233.13
776.09	233.05
776.42	232.96
776.74	232.86
777.07	232.78
777.39	232.71
777.72	232.61
778.04	232.47
778.36	232.38
778.69	232.32
779.01	232.27
779.33	232.09
779.66	231.93
779.98	231.83
780.31	231.77
780.63	231.73
780.95	231.73
781.28	231.67
781.60	231.60
781.92	231.52
782.25	231.47
782.57	231.39
782.89	231.32
783.22	231.28
783.54	231.22
783.86	231.16
784.19	231.11
784.51	231.09
784.83	231.08
785.16	231.03
785.48	230.97
785.80	230.95
786.12	230.90
786.45	230.85
786.77	230.82
787.09	230.71
787.42	230.67
787.74	230.60
788.06	230.54
788.38	230.53
788.71	230.50
789.03	230.46
789.35	230.47
789.67	230.46
789.99	230.39
790.32	230.36
790.64	230.34
790.96	230.35
791.28	230.28
791.61	230.22
791.93	230.15
792.25	230.16
792.57	230.17
792.89	230.13
793.21	230.06
793.54	230.03
793.86	230.02
794.18	229.95
794.50	229.89
794.82	229.90
795.14	229.85
795.47	229.84
795.79	229.79
796.11	229.72
796.43	229.67
796.75	229.65
797.07	229.62
797.39	229.58
797.71	229.52
798.04	229.48
798.36	229.45
798.68	229.42
799.00	229.37
799.32	229.28
799.64	229.28
799.96	229.26
800.28	229.22
800.60	229.18
800.92	229.18
801.24	229.14
801.56	229.09
801.89	229.06
802.21	229.02
802.53	228.96
802.85	228.92
803.17	228.90
803.49	228.85
803.81	228.80
804.13	228.77
804.45	228.70
804.77	228.69
805.09	228.65
805.41	228.63
805.73	228.59
806.05	228.51
806.37	228.43
806.69	228.40
807.01	228.39
807.33	228.34
807.65	228.27
807.97	228.27
808.28	228.22
808.60	228.16
808.92	228.12
809.24	228.16
809.56	228.15
809.88	228.10
810.20	228.09
810.52	228.09
810.84	228.06
811.16	228.06
811.48	228.03
811.80	228.06
812.12	228.00
812.43	227.98
812.75	228.02
813.07	228.01
813.39	228.00
813.71	227.96
814.03	227.94
814.35	227.93
814.67	227.90
814.98	227.86
815.30	227.85
815.62	227.85
815.94	227.75
816.26	227.74
816.58	227.73
816.89	227.69
817.21	227.64
817.53	227.63
817.85	227.59
818.17	227.57
818.48	227.52
818.80	227.55
819.12	227.53
819.44	227.47
819.76	227.45
820.07	227.42
820.39	227.41
820.71	227.40
821.03	227.37
821.34	227.34
821.66	227.35
821.98	227.35
822.30	227.30
822.61	227.37
822.93	227.34
823.25	227.32
823.57	227.28
823.88	227.28
824.20	227.30
824.52	227.31
824.83	227.29
825.15	227.28
825.47	227.23
825.79	227.22
826.10	227.19
826.42	227.16
826.74	227.17
827.05	227.14
827.37	227.14
827.69	227.15
828.00	227.16
828.32	227.13
828.64	227.11
828.95	227.14
829.27	227.10
829.58	227.09
829.90	227.09
830.22	227.14
830.53	227.13
830.85	227.07
831.17	227.02
831.48	227.02
831.80	227.04
832.11	227.05
832.43	227.04
832.75	227.03
833.06	227.11
833.38	227.08
833.69	227.12
834.01	227.09
834.32	227.11
834.64	227.10
834.96	227.12
835.27	227.08
835.59	227.07
835.90	227.05
836.22	227.04
836.53	227.02
836.85	226.97
837.16	227.05
837.48	227.05
837.79	227.10
838.11	227.11
838.42	227.08
838.74	227.10
839.05	227.11
839.37	227.09
839.68	227.02
840.00	227.00
840.31	227.01
840.63	227.00
840.94	226.97
841.26	226.92
841.57	226.90
841.88	226.90
842.20	226.89
842.51	226.85
842.83	226.84
843.14	226.91
843.46	226.91
843.77	226.84
844.08	226.83
844.40	226.81
844.71	226.76
845.03	226.74
845.34	226.69
845.65	226.68
845.97	226.71
846.28	226.70
846.60	226.69
846.91	226.65
847.22	226.66
847.54	226.66
847.85	226.65
848.16	226.65
848.48	226.66
848.79	226.65
849.10	226.67
849.42	226.64
849.73	226.55
850.04	226.57
850.36	226.52
850.67	226.54
850.98	226.53
851.30	226.56
851.61	226.58
851.92	226.59
852.23	226.60
852.55	226.58
852.86	226.60
853.17	226.62
853.49	226.66
853.80	226.66
854.11	226.67
854.42	226.71
854.74	226.70
855.05	226.66
855.36	226.65
855.67	226.66
855.99	226.69
856.30	226.80
856.61	226.76
856.92	226.77
857.23	226.77
857.55	226.73
857.86	226.75
858.17	226.76
858.48	226.74
858.79	226.74
859.11	226.78
859.42	226.76
859.73	226.75
860.04	226.71
860.35	226.66
860.66	226.65
860.98	226.63
861.29	226.64
861.60	226.66
861.91	226.67
862.22	226.64
862.53	226.63
862.84	226.52
863.16	226.54
863.47	226.55
863.78	226.52
864.09	226.53
864.40	226.52
864.71	226.54
865.02	226.57
865.33	226.52
865.64	226.48
865.95	226.48
866.27	226.54
866.58	226.53
866.89	226.54
867.20	226.53
867.51	226.51
867.82	226.50
868.13	226.54
868.44	226.51
868.75	226.54
869.06	226.54
869.37	226.55
869.68	226.53
869.99	226.55
870.30	226.55
870.61	226.56
870.92	226.54
871.23	226.49
871.54	226.50
871.85	226.56
872.16	226.58
872.47	226.59
872.78	226.54
873.09	226.54
873.40	226.54
873.71	226.57
874.02	226.59
874.33	226.63
874.64	226.60
874.95	226.60
875.26	226.59
875.56	226.61
875.87	226.58
876.18	226.60
876.49	226.68
876.80	226.65
877.11	226.66
877.42	226.65
877.73	226.66
878.04	226.66
878.35	226.64
878.66	226.64
878.96	226.60
879.27	226.58
879.58	226.59
879.89	226.59
880.20	226.58
880.51	226.57
880.82	226.55
881.12	226.56
881.43	226.57
881.74	226.59
882.05	226.57
882.36	226.57
882.67	226.56
882.97	226.45
883.28	226.46
883.59	226.43
883.90	226.44
884.21	226.46
884.51	226.43
884.82	226.41
885.13	226.41
885.44	226.41
885.74	226.39
886.05	226.37
886.36	226.39
886.67	226.35
886.98	226.37
887.28	226.35
887.59	226.33
887.90	226.32
888.20	226.31
888.51	226.34
888.82	226.34
889.13	226.38
889.43	226.43
889.74	226.42
890.05	226.44
890.35	226.43
890.66	226.42
890.97	226.42
891.28	226.40
891.58	226.40
891.89	226.41
892.20	226.40
892.50	226.42
892.81	226.39
893.12	226.40
893.42	226.33
893.73	226.37
894.04	226.39
894.34	226.40
894.65	226.32
894.95	226.30
895.26	226.31
895.57	226.29
895.87	226.20
896.18	226.21
896.48	226.22
896.79	226.26
897.10	226.24
897.40	226.26
897.71	226.24
898.01	226.24
898.32	226.22
898.63	226.22
898.93	226.21
899.24	226.20
899.54	226.19
899.85	226.22
900.15	226.16
900.46	226.13
900.76	226.11
901.07	226.16
901.38	226.15
901.68	226.16
901.99	226.12
902.29	226.14
902.60	226.10
902.90	226.06
903.21	226.03
903.51	226.00
903.82	226.00
904.12	226.03
904.43	226.01
904.73	226.02
905.03	226.04
905.34	226.12
905.64	226.12
905.95	226.12
906.25	226.13
906.56	226.15
906.86	226.13
907.17	226.16
907.47	226.18
907.77	226.16
908.08	226.10
908.38	226.11
908.69	226.15
908.99	226.18
909.30	226.20
909.60	226.20
909.90	226.27
910.21	226.27
910.51	226.25
910.81	226.27
911.12	226.28
911.42	226.30
911.73	226.20
912.03	226.27
912.33	226.30
912.64	226.28
912.94	226.29
913.24	226.29
913.55	226.26
913.85	226.23
914.15	226.29
914.46	226.32
914.76	226.33
915.06	226.27
915.37	226.26
915.67	226.25
915.97	226.26
916.27	226.21
916.58	226.18
916.88	226.20
917.18	226.16
917.49	226.22
917.79	226.20
918.09	226.19
918.39	226.16
918.70	226.12
919.00	226.15
919.30	226.20
919.60	226.21
919.91	226.20
920.21	226.24
920.51	226.21
920.81	226.22
921.12	226.24
921.42	226.25
921.72	226.26
922.02	226.23
922.32	226.23
922.63	226.23
922.93	226.26
923.23	226.24
923.53	226.27
923.83	226.21
924.13	226.20
924.44	226.21
924.74	226.27
925.04	226.30
925.34	226.30
925.64	226.25
925.94	226.25
926.24	226.31
926.55	226.29
926.85	226.30
927.15	226.28
927.45	226.28
927.75	226.27
928.05	226.27
928.35	226.30
928.65	226.28
928.95	226.30
929.26	226.30
929.56	226.32
929.86	226.31
930.16	226.34
930.46	226.34
930.76	226.33
931.06	226.25
931.36	226.20
931.66	226.18
931.96	226.17
932.26	226.16
932.56	226.07
932.86	226.07
933.16	226.08
933.46	226.09
933.76	226.08
934.06	226.10
934.36	226.15
934.66	226.13
934.96	226.13
935.26	226.08
935.56	226.10
935.86	226.07
936.16	226.08
936.46	226.05
936.76	226.07
937.06	226.07
937.36	226.10
937.66	226.10
937.96	226.09
938.26	226.06
938.56	226.07
938.86	226.08
939.16	226.09
939.46	226.08
939.76	226.06
940.06	226.06
940.35	226.07
940.65	226.00
940.95	226.04
941.25	226.03
941.55	226.05
941.85	226.03
942.15	226.04
942.45	226.06
942.75	226.06
943.04	226.04
943.34	226.05
943.64	226.02
943.94	226.05
944.24	226.07
944.54	226.12
944.84	226.09
945.13	226.09
945.43	226.10
945.73	226.09
946.03	226.06
946.33	226.04
946.62	226.02
946.92	226.00
947.22	226.00
947.52	226.01
947.82	225.99
948.11	225.98
948.41	225.97
948.71	225.92
949.01	225.90
949.31	225.91
949.60	225.90
949.90	225.93
950.20	225.89
950.50	225.88
950.79	225.87
951.09	225.92
951.39	225.93
951.69	225.91
951.98	225.93
952.28	225.97
952.58	225.98
952.87	225.98
953.17	226.01
953.47	225.99
953.76	225.99
954.06	225.97
954.36	225.96
954.66	225.96
954.95	225.98
955.25	225.99
955.55	225.97
955.84	225.95
956.14	225.95
956.44	225.97
956.73	225.96
957.03	225.96
957.32	225.93
957.62	225.95
957.92	225.93
958.21	225.91
958.51	225.99
958.81	225.97
959.10	225.99
959.40	225.99
959.69	225.99
959.99	225.98
960.29	226.00
960.58	225.99
960.88	226.01
961.17	226.01
961.47	226.06
961.76	226.06
962.06	226.08
962.36	226.04
962.65	226.07
962.95	226.08
963.24	226.04
963.54	226.05
963.83	226.03
964.13	226.02
964.42	226.02
964.72	225.97
965.01	226.02
965.31	226.00
965.60	225.97
965.90	226.05
966.19	226.05
966.49	226.08
966.78	226.07
967.08	226.10
967.37	226.09
967.67	226.05
967.96	226.08
968.26	226.09
968.55	226.13
968.85	226.09
969.14	226.10
969.43	226.12
969.73	226.13
970.02	226.15
970.32	226.16
970.61	226.14
970.91	226.12
971.20	226.06
971.49	226.07
971.79	226.09
972.08	226.00
972.38	225.96
972.67	225.93
972.96	226.00
973.26	225.98
973.55	226.02
973.85	225.99
974.14	226.01
974.43	226.00
974.73	226.00
975.02	226.00
975.31	225.99
975.61	225.96
975.90	225.95
976.19	225.93
976.49	225.94
976.78	225.97
977.07	225.96
977.37	225.97
977.66	225.97
977.95	225.98
978.24	226.00
978.54	226.06
978.83	226.08
979.12	226.03
979.42	226.01
979.71	226.01
980.00	226.04
980.29	226.03
980.59	226.06
980.88	226.05
981.17	226.07
981.46	226.05
981.76	226.11
982.05	226.15
982.34	226.15
982.63	226.13
982.93	226.15
983.22	226.13
983.51	226.14
983.80	226.14
984.09	226.17
984.39	226.15
984.68	226.14
984.97	226.11
985.26	226.09
985.55	226.09
985.85	226.05
986.14	226.09
986.43	226.06
986.72	226.02
987.01	226.01
987.30	225.98
987.59	226.00
987.89	225.96
988.18	225.90
988.47	225.89
988.76	225.90
989.05	225.83
989.34	225.85
989.63	225.88
989.92	225.86
990.22	225.83
990.51	225.82
990.80	225.81
991.09	225.80
991.38	225.83
991.67	225.83
991.96	225.80
992.25	225.79
992.54	225.79
992.83	225.79
993.12	225.79
993.41	225.82
993.70	225.83
993.99	225.85
994.28	225.88
994.58	225.90
994.87	225.88
995.16	225.90
995.45	225.90
995.74	225.85
996.03	225.86
996.32	225.88
996.61	225.93
996.90	225.92
997.19	225.92
997.48	225.92
997.77	225.92
998.06	225.94
998.34	225.91
998.63	225.92
998.92	225.97
999.21	225.97
999.50	225.96
999.79	225.95
1000.08	225.96
1000.37	225.96
1000.66	225.95
1000.95	225.98
1001.24	225.99
1001.53	226.02
1001.82	226.03
1002.11	226.01
1002.40	226.00
1002.68	225.99
1002.97	226.07
1003.26	226.08
1003.55	226.07
1003.84	226.07
1004.13	226.09
1004.42	226.09
1004.71	226.06
1004.99	226.03
1005.28	226.01
1005.57	225.96
1005.86	225.92
1006.15	225.89
1006.44	225.88
1006.72	225.89
1007.01	225.89
1007.30	225.88
1007.59	225.83
1007.88	225.86
1008.17	225.85
1008.45	225.83
1008.74	225.79
1009.03	225.70
1009.32	225.72
1009.60	225.71
1009.89	225.68
1010.18	225.66
1010.47	225.64
1010.76	225.64
1011.04	225.62
1011.33	225.62
1011.62	225.65
1011.91	225.69
1012.19	225.71
1012.48	225.72
1012.77	225.72
1013.05	225.71
1013.34	225.73
1013.63	225.74
1013.92	225.72
1014.20	225.72
1014.49	225.73
1014.78	225.75
1015.06	225.72
1015.35	225.73
1015.64	225.74
1015.92	225.75
1016.21	225.74
1016.50	225.77
1016.78	225.77
1017.07	225.78
1017.36	225.78
1017.64	225.76
1017.93	225.75
1018.22	225.73
1018.50	225.71
1018.79	225.67
1019.08	225.67
1019.36	225.66
1019.65	225.65
1019.93	225.63
1020.22	225.64
1020.51	225.69
1020.79	225.67
1021.08	225.82
1021.36	225.50
1021.65	225.23
1021.94	226.02
1022.22	225.73
1022.51	225.56
1022.79	225.21
1023.08	226.02
1023.36	227.08
1023.65	225.31
>>>>>End Processed Spectral Data<<<<<
