SpectraSuite Data File
++++++++++++++++++++++++++++++++++++
Date: Fri Feb 01 17:36:58 EST 2013
User: group
Dark Spectrum Present: No
Reference Spectrum Present: No
Number of Sampled Component Spectra: 1
Spectrometers: USB2E7196
Integration Time (usec): 35000 (USB2E7196)
Spectra Averaged: 100 (USB2E7196)
Boxcar Smoothing: 10 (USB2E7196)
Correct for Electrical Dark: No (USB2E7196)
Strobe/Lamp Enabled: No (USB2E7196)
Correct for Detector Non-linearity: No (USB2E7196)
Correct for Stray Light: No (USB2E7196)
Number of Pixels in Processed Spectrum: 2048
>>>>>Begin Processed Spectral Data<<<<<
339.09	0.00
339.48	213.09
339.86	214.70
340.24	215.58
340.63	217.16
341.01	219.34
341.39	219.76
341.78	220.96
342.16	222.71
342.54	223.28
342.93	211.40
343.31	222.08
343.69	222.61
344.07	223.07
344.46	223.51
344.84	223.89
345.22	224.15
345.60	224.40
345.99	224.60
346.37	224.73
346.75	224.82
347.13	224.90
347.52	224.98
347.90	225.06
348.28	225.08
348.66	225.11
349.05	225.06
349.43	225.12
349.81	225.18
350.19	225.21
350.57	225.25
350.96	225.31
351.34	225.37
351.72	225.48
352.10	225.55
352.48	225.60
352.87	225.68
353.25	225.74
353.63	225.83
354.01	225.91
354.39	225.96
354.77	226.03
355.15	226.13
355.54	226.16
355.92	226.22
356.30	226.30
356.68	226.45
357.06	226.55
357.44	226.57
357.82	226.61
358.20	226.69
358.58	226.77
358.97	226.83
359.35	226.92
359.73	226.99
360.11	227.07
360.49	227.15
360.87	227.16
361.25	227.22
361.63	227.26
362.01	227.29
362.39	227.32
362.77	227.38
363.15	227.39
363.53	227.43
363.91	227.44
364.29	227.45
364.67	227.34
365.05	227.38
365.43	227.41
365.81	227.46
366.19	227.50
366.57	227.52
366.95	227.51
367.33	227.49
367.71	227.48
368.09	227.48
368.47	227.44
368.85	227.45
369.23	227.46
369.61	227.41
369.99	227.43
370.37	227.41
370.75	227.43
371.13	227.35
371.51	227.33
371.89	227.32
372.27	227.30
372.65	227.31
373.03	227.27
373.41	227.22
373.78	227.17
374.16	227.07
374.54	227.00
374.92	226.94
375.30	226.91
375.68	226.82
376.06	226.77
376.44	226.76
376.82	226.68
377.19	226.59
377.57	226.55
377.95	226.44
378.33	226.39
378.71	226.28
379.09	226.25
379.47	226.19
379.84	226.11
380.22	226.03
380.60	225.94
380.98	225.85
381.36	225.77
381.73	225.71
382.11	225.69
382.49	225.67
382.87	225.60
383.25	225.53
383.62	225.61
384.00	225.51
384.38	225.45
384.76	225.43
385.13	225.44
385.51	225.39
385.89	225.34
386.27	225.30
386.64	225.24
387.02	225.20
387.40	225.15
387.78	225.11
388.15	225.04
388.53	225.02
388.91	224.99
389.29	224.99
389.66	224.97
390.04	224.92
390.42	224.89
390.79	224.88
391.17	224.87
391.55	224.73
391.92	224.75
392.30	224.74
392.68	224.72
393.05	224.68
393.43	224.68
393.81	224.69
394.18	224.66
394.56	224.67
394.94	224.69
395.31	224.68
395.69	224.73
396.06	224.79
396.44	224.80
396.82	224.82
397.19	224.89
397.57	224.88
397.95	224.93
398.32	224.93
398.70	224.96
399.07	225.03
399.45	225.05
399.82	225.09
400.20	225.12
400.58	225.15
400.95	225.19
401.33	225.27
401.70	225.38
402.08	225.46
402.45	225.53
402.83	225.65
403.20	225.78
403.58	225.89
403.95	226.01
404.33	226.16
404.71	226.29
405.08	226.47
405.46	226.58
405.83	226.70
406.21	226.88
406.58	227.04
406.96	227.18
407.33	227.39
407.70	227.60
408.08	227.84
408.45	228.07
408.83	228.28
409.20	228.53
409.58	228.73
409.95	229.04
410.33	229.32
410.70	229.56
411.08	229.85
411.45	230.13
411.82	230.42
412.20	230.75
412.57	231.17
412.95	231.47
413.32	231.93
413.69	232.37
414.07	232.80
414.44	233.28
414.82	233.76
415.19	234.32
415.56	234.88
415.94	235.49
416.31	236.15
416.68	236.83
417.06	237.56
417.43	238.27
417.81	239.03
418.18	239.88
418.55	240.73
418.93	241.67
419.30	242.60
419.67	243.62
420.04	244.62
420.42	245.66
420.79	246.87
421.16	248.08
421.54	249.32
421.91	250.56
422.28	251.86
422.66	253.30
423.03	254.68
423.40	256.09
423.77	257.54
424.15	259.02
424.52	260.61
424.89	262.29
425.26	263.86
425.64	265.39
426.01	267.02
426.38	268.77
426.75	270.50
427.13	272.32
427.50	274.18
427.87	276.18
428.24	278.11
428.61	279.96
428.99	281.98
429.36	284.17
429.73	286.36
430.10	288.48
430.47	290.60
430.85	292.76
431.22	295.08
431.59	297.57
431.96	299.94
432.33	302.49
432.70	304.98
433.08	307.96
433.45	310.67
433.82	313.38
434.19	316.38
434.56	319.31
434.93	322.08
435.30	324.81
435.68	327.79
436.05	330.76
436.42	333.66
436.79	336.27
437.16	339.08
437.53	342.04
437.90	344.97
438.27	347.87
438.64	350.87
439.01	353.55
439.38	355.92
439.75	358.17
440.13	360.77
440.50	363.18
440.87	365.13
441.24	367.17
441.61	369.44
441.98	371.00
442.35	372.89
442.72	374.84
443.09	376.73
443.46	377.79
443.83	378.40
444.20	378.92
444.57	379.78
444.94	380.10
445.31	380.46
445.68	380.85
446.05	380.90
446.42	380.53
446.79	380.16
447.16	379.68
447.53	379.36
447.90	378.19
448.27	376.97
448.64	375.36
449.01	374.20
449.37	372.18
449.74	370.23
450.11	367.86
450.48	365.28
450.85	362.67
451.22	360.45
451.59	358.32
451.96	356.36
452.33	353.67
452.70	351.18
453.07	348.24
453.43	345.17
453.80	342.30
454.17	339.47
454.54	336.79
454.91	333.91
455.28	331.12
455.65	328.48
456.02	325.97
456.38	323.72
456.75	320.92
457.12	318.55
457.49	316.25
457.86	313.99
458.23	312.02
458.59	309.89
458.96	307.68
459.33	305.76
459.70	303.80
460.07	302.22
460.43	300.43
460.80	298.74
461.17	297.28
461.54	295.70
461.91	294.23
462.27	292.72
462.64	291.48
463.01	290.06
463.38	288.72
463.74	287.28
464.11	286.02
464.48	284.95
464.85	283.78
465.21	282.83
465.58	281.91
465.95	280.77
466.32	279.82
466.68	278.91
467.05	277.96
467.42	277.04
467.78	276.08
468.15	275.18
468.52	274.47
468.88	273.55
469.25	272.76
469.62	272.11
469.98	271.39
470.35	270.76
470.72	270.13
471.08	269.46
471.45	268.90
471.82	268.38
472.18	267.80
472.55	267.37
472.92	266.87
473.28	266.35
473.65	265.91
474.02	265.46
474.38	265.09
474.75	264.77
475.11	264.40
475.48	264.12
475.85	263.89
476.21	263.65
476.58	263.51
476.94	263.37
477.31	263.17
477.67	263.03
478.04	262.87
478.41	262.81
478.77	262.86
479.14	262.80
479.50	262.77
479.87	262.83
480.23	262.90
480.60	262.93
480.96	263.03
481.33	263.24
481.69	263.41
482.06	263.61
482.42	263.84
482.79	264.09
483.15	264.43
483.52	264.81
483.88	265.17
484.25	265.52
484.61	265.96
484.98	266.44
485.34	267.03
485.71	267.63
486.07	268.28
486.44	268.82
486.80	269.53
487.17	270.30
487.53	271.13
487.90	271.97
488.26	272.97
488.62	273.96
488.99	274.91
489.35	275.97
489.72	277.06
490.08	278.22
490.44	279.49
490.81	280.79
491.17	282.12
491.54	283.61
491.90	285.16
492.26	286.78
492.63	288.47
492.99	290.18
493.36	292.06
493.72	294.06
494.08	296.17
494.45	298.39
494.81	300.71
495.17	303.08
495.54	305.64
495.90	308.25
496.26	311.05
496.63	313.94
496.99	317.02
497.35	320.24
497.72	323.62
498.08	327.06
498.44	330.69
498.80	334.60
499.17	338.58
499.53	342.66
499.89	346.99
500.26	351.45
500.62	356.07
500.98	360.99
501.34	366.01
501.71	371.26
502.07	376.67
502.43	382.18
502.79	387.93
503.16	393.88
503.52	400.08
503.88	406.37
504.24	412.95
504.60	419.70
504.97	426.75
505.33	433.90
505.69	441.51
506.05	449.18
506.41	456.87
506.78	464.83
507.14	473.15
507.50	481.67
507.86	490.53
508.22	499.49
508.59	508.46
508.95	517.77
509.31	527.31
509.67	537.18
510.03	547.29
510.39	557.60
510.75	568.11
511.12	578.67
511.48	589.63
511.84	600.81
512.20	612.09
512.56	623.67
512.92	635.56
513.28	647.61
513.64	659.71
514.00	672.11
514.37	684.74
514.73	697.39
515.09	710.00
515.45	722.80
515.81	736.03
516.17	749.63
516.53	763.37
516.89	777.23
517.25	790.90
517.61	804.86
517.97	818.85
518.33	832.79
518.69	847.18
519.05	861.68
519.41	876.36
519.77	891.39
520.13	906.42
520.49	921.29
520.85	936.06
521.21	951.20
521.57	966.85
521.93	982.07
522.29	997.90
522.65	1013.74
523.01	1029.36
523.37	1044.88
523.73	1060.51
524.09	1076.07
524.45	1091.73
524.81	1107.80
525.17	1124.00
525.53	1140.29
525.89	1156.63
526.25	1172.94
526.61	1188.83
526.97	1204.98
527.33	1220.97
527.68	1236.99
528.04	1252.91
528.40	1268.89
528.76	1285.46
529.12	1301.52
529.48	1318.00
529.84	1333.52
530.20	1349.65
530.56	1366.18
530.91	1382.99
531.27	1399.33
531.63	1415.23
531.99	1431.40
532.35	1446.96
532.71	1462.45
533.07	1478.28
533.42	1493.86
533.78	1509.54
534.14	1525.31
534.50	1540.37
534.86	1555.63
535.21	1570.53
535.57	1586.11
535.93	1601.33
536.29	1615.63
536.65	1630.42
537.00	1644.79
537.36	1659.89
537.72	1673.95
538.08	1688.15
538.44	1701.66
538.79	1715.25
539.15	1728.70
539.51	1742.07
539.87	1756.11
540.22	1769.56
540.58	1783.05
540.94	1796.01
541.29	1808.49
541.65	1821.02
542.01	1833.83
542.37	1846.15
542.72	1858.41
543.08	1870.11
543.44	1882.47
543.79	1893.68
544.15	1904.51
544.51	1915.92
544.87	1926.69
545.22	1937.52
545.58	1947.70
545.94	1957.55
546.29	1967.44
546.65	1977.36
547.01	1986.75
547.36	1995.50
547.72	2004.08
548.07	2012.20
548.43	2020.44
548.79	2028.47
549.14	2036.30
549.50	2043.95
549.86	2051.54
550.21	2058.91
550.57	2066.21
550.92	2072.96
551.28	2080.33
551.64	2087.63
551.99	2094.37
552.35	2100.89
552.70	2107.39
553.06	2113.65
553.41	2120.22
553.77	2126.28
554.13	2132.50
554.48	2138.81
554.84	2144.74
555.19	2150.18
555.55	2155.62
555.90	2160.55
556.26	2166.04
556.61	2171.02
556.97	2175.63
557.32	2180.27
557.68	2184.73
558.03	2189.34
558.39	2193.27
558.74	2198.12
559.10	2202.38
559.45	2206.30
559.81	2210.84
560.16	2215.03
560.52	2218.73
560.87	2222.44
561.23	2225.63
561.58	2228.91
561.94	2231.94
562.29	2234.48
562.64	2237.93
563.00	2240.90
563.35	2244.79
563.71	2248.22
564.06	2251.53
564.42	2254.93
564.77	2258.05
565.12	2260.96
565.48	2263.37
565.83	2265.87
566.19	2267.80
566.54	2269.00
566.89	2270.86
567.25	2272.00
567.60	2273.70
567.96	2275.82
568.31	2277.09
568.66	2278.71
569.02	2279.85
569.37	2280.69
569.72	2282.19
570.08	2282.76
570.43	2283.22
570.78	2283.16
571.14	2282.21
571.49	2281.57
571.84	2281.41
572.20	2280.68
572.55	2279.97
572.90	2278.73
573.26	2277.71
573.61	2276.39
573.96	2275.35
574.31	2272.78
574.67	2270.15
575.02	2266.97
575.37	2263.84
575.72	2260.69
576.08	2257.58
576.43	2254.48
576.78	2251.35
577.13	2248.49
577.49	2245.43
577.84	2242.43
578.19	2238.98
578.54	2235.84
578.90	2232.18
579.25	2227.28
579.60	2222.76
579.95	2218.21
580.30	2213.61
580.66	2208.86
581.01	2203.98
581.36	2199.23
581.71	2195.60
582.06	2191.66
582.42	2187.55
582.77	2182.88
583.12	2178.69
583.47	2174.60
583.82	2170.24
584.17	2165.36
584.53	2160.20
584.88	2155.10
585.23	2149.76
585.58	2144.59
585.93	2139.21
586.28	2134.35
586.63	2129.47
586.98	2124.54
587.34	2119.94
587.69	2115.30
588.04	2110.41
588.39	2105.28
588.74	2099.11
589.09	2092.99
589.44	2086.47
589.79	2080.41
590.14	2074.94
590.49	2068.45
590.84	2062.05
591.19	2056.25
591.54	2049.99
591.89	2042.96
592.25	2036.57
592.60	2029.42
592.95	2022.18
593.30	2015.17
593.65	2007.93
594.00	2001.15
594.35	1994.18
594.70	1986.40
595.05	1979.60
595.40	1972.45
595.75	1965.15
596.10	1959.29
596.45	1952.87
596.80	1946.83
597.15	1940.57
597.50	1933.86
597.85	1927.66
598.19	1921.28
598.54	1914.46
598.89	1907.75
599.24	1901.92
599.59	1895.47
599.94	1889.33
600.29	1883.23
600.64	1876.69
600.99	1869.49
601.34	1862.75
601.69	1855.79
602.04	1849.23
602.39	1841.93
602.74	1835.26
603.08	1828.66
603.43	1821.87
603.78	1814.59
604.13	1807.35
604.48	1800.38
604.83	1793.50
605.18	1786.68
605.53	1778.84
605.87	1770.83
606.22	1763.64
606.57	1755.72
606.92	1748.15
607.27	1741.20
607.62	1734.30
607.96	1727.25
608.31	1720.90
608.66	1713.43
609.01	1706.02
609.36	1698.39
609.70	1690.43
610.05	1682.35
610.40	1674.74
610.75	1666.56
611.10	1658.94
611.44	1650.57
611.79	1642.32
612.14	1633.62
612.49	1624.38
612.83	1616.01
613.18	1607.70
613.53	1599.60
613.88	1591.18
614.22	1582.93
614.57	1574.20
614.92	1566.00
615.27	1558.42
615.61	1549.97
615.96	1541.86
616.31	1534.18
616.65	1526.69
617.00	1518.95
617.35	1511.17
617.70	1502.78
618.04	1494.25
618.39	1485.90
618.74	1478.31
619.08	1470.06
619.43	1462.40
619.78	1455.38
620.12	1448.18
620.47	1440.69
620.82	1432.39
621.16	1424.76
621.51	1416.90
621.85	1409.12
622.20	1400.64
622.55	1392.12
622.89	1384.05
623.24	1376.20
623.59	1368.49
623.93	1360.94
624.28	1353.79
624.62	1346.29
624.97	1338.85
625.32	1331.88
625.66	1324.60
626.01	1317.37
626.35	1309.96
626.70	1302.07
627.04	1294.35
627.39	1286.34
627.73	1278.81
628.08	1271.90
628.43	1264.62
628.77	1257.35
629.12	1249.82
629.46	1242.48
629.81	1234.83
630.15	1227.44
630.50	1220.06
630.84	1211.97
631.19	1203.84
631.53	1196.03
631.88	1188.29
632.22	1180.72
632.57	1173.30
632.91	1165.74
633.26	1158.14
633.60	1150.49
633.95	1143.22
634.29	1135.96
634.64	1129.20
634.98	1121.83
635.32	1114.62
635.67	1107.86
636.01	1101.14
636.36	1094.32
636.70	1087.69
637.05	1081.05
637.39	1074.57
637.73	1068.02
638.08	1062.00
638.42	1055.94
638.77	1049.56
639.11	1042.95
639.45	1036.50
639.80	1029.78
640.14	1023.41
640.49	1016.95
640.83	1010.68
641.17	1004.55
641.52	998.27
641.86	991.72
642.20	985.76
642.55	979.33
642.89	972.91
643.23	966.24
643.58	960.34
643.92	954.17
644.26	948.25
644.61	942.13
644.95	936.05
645.29	929.54
645.64	922.83
645.98	916.42
646.32	910.45
646.66	904.36
647.01	898.57
647.35	892.81
647.69	886.85
648.04	881.25
648.38	875.38
648.72	869.40
649.06	863.44
649.41	857.51
649.75	851.58
650.09	845.58
650.43	839.89
650.78	833.80
651.12	827.89
651.46	822.04
651.80	816.38
652.14	810.97
652.49	805.60
652.83	800.40
653.17	794.79
653.51	789.17
653.85	783.75
654.20	778.17
654.54	772.16
654.88	766.37
655.22	760.45
655.56	754.73
655.90	749.23
656.25	743.89
656.59	738.54
656.93	733.45
657.27	728.30
657.61	722.78
657.95	717.63
658.29	712.46
658.64	707.20
658.98	701.83
659.32	696.36
659.66	691.11
660.00	685.86
660.34	680.83
660.68	675.88
661.02	670.83
661.36	666.10
661.70	661.63
662.05	657.36
662.39	653.11
662.73	648.66
663.07	644.19
663.41	639.79
663.75	635.32
664.09	630.74
664.43	626.31
664.77	622.23
665.11	618.02
665.45	613.88
665.79	609.83
666.13	605.74
666.47	601.67
666.81	597.57
667.15	593.38
667.49	589.42
667.83	585.62
668.17	581.73
668.51	577.66
668.85	573.55
669.19	569.69
669.53	565.85
669.87	561.98
670.21	558.30
670.55	554.64
670.89	551.19
671.23	547.74
671.57	544.21
671.91	540.70
672.25	537.08
672.58	533.55
672.92	530.06
673.26	526.86
673.60	523.62
673.94	520.51
674.28	517.61
674.62	514.74
674.96	511.60
675.30	508.65
675.64	505.68
675.97	502.90
676.31	499.98
676.65	497.01
676.99	494.29
677.33	491.45
677.67	488.65
678.01	485.66
678.34	482.74
678.68	479.82
679.02	476.91
679.36	474.16
679.70	471.35
680.04	468.60
680.37	465.71
680.71	462.87
681.05	460.15
681.39	457.40
681.73	454.62
682.06	452.04
682.40	449.48
682.74	446.89
683.08	444.29
683.42	441.65
683.75	439.12
684.09	436.44
684.43	433.91
684.77	431.37
685.10	428.88
685.44	426.45
685.78	424.12
686.12	421.83
686.45	419.48
686.79	417.25
687.13	415.01
687.46	412.84
687.80	410.67
688.14	408.42
688.48	406.32
688.81	404.13
689.15	401.92
689.49	399.69
689.82	397.60
690.16	395.47
690.50	393.47
690.83	391.51
691.17	389.53
691.51	387.61
691.84	385.77
692.18	383.93
692.52	382.02
692.85	380.07
693.19	378.20
693.52	376.38
693.86	374.52
694.20	372.69
694.53	370.85
694.87	368.99
695.21	367.17
695.54	365.27
695.88	363.49
696.21	361.76
696.55	360.07
696.88	358.35
697.22	356.69
697.56	355.01
697.89	353.31
698.23	351.70
698.56	350.09
698.90	348.48
699.23	346.81
699.57	345.22
699.90	343.66
700.24	342.06
700.58	340.51
700.91	339.03
701.25	337.59
701.58	336.25
701.92	334.90
702.25	333.52
702.59	332.19
702.92	330.86
703.26	329.56
703.59	328.30
703.93	327.15
704.26	325.95
704.60	324.67
704.93	323.42
705.26	322.17
705.60	320.95
705.93	319.77
706.27	318.72
706.60	317.63
706.94	316.55
707.27	315.47
707.61	314.38
707.94	313.33
708.27	312.25
708.61	311.13
708.94	310.10
709.28	309.16
709.61	308.17
709.94	307.21
710.28	306.20
710.61	305.18
710.95	304.09
711.28	303.14
711.61	302.16
711.95	301.23
712.28	300.28
712.61	299.31
712.95	298.35
713.28	297.46
713.61	296.57
713.95	295.67
714.28	294.84
714.61	293.96
714.95	293.09
715.28	292.23
715.61	291.37
715.95	290.52
716.28	289.61
716.61	288.74
716.95	287.88
717.28	287.11
717.61	286.33
717.94	285.57
718.28	284.74
718.61	284.02
718.94	283.32
719.27	282.65
719.61	281.96
719.94	281.29
720.27	280.50
720.60	279.79
720.94	279.13
721.27	278.46
721.60	277.89
721.93	277.26
722.27	276.66
722.60	276.06
722.93	275.39
723.26	274.80
723.59	274.23
723.93	273.69
724.26	273.09
724.59	272.54
724.92	271.99
725.25	271.46
725.59	270.93
725.92	270.35
726.25	269.82
726.58	269.30
726.91	268.78
727.24	268.32
727.57	267.82
727.91	267.28
728.24	266.79
728.57	266.25
728.90	265.75
729.23	265.21
729.56	264.74
729.89	264.28
730.22	263.80
730.55	263.30
730.89	262.82
731.22	262.35
731.55	261.89
731.88	261.42
732.21	260.98
732.54	260.52
732.87	260.08
733.20	259.62
733.53	259.22
733.86	258.80
734.19	258.37
734.52	257.99
734.85	257.63
735.18	257.21
735.51	256.83
735.84	256.47
736.17	256.12
736.50	255.69
736.83	255.47
737.16	255.14
737.49	254.83
737.82	254.47
738.15	254.15
738.48	253.79
738.81	253.44
739.14	253.07
739.47	252.76
739.80	252.46
740.13	252.16
740.46	251.83
740.79	251.55
741.12	251.24
741.45	250.90
741.78	250.57
742.11	250.27
742.44	249.95
742.77	249.67
743.10	249.38
743.43	249.11
743.75	248.75
744.08	248.58
744.41	248.31
744.74	248.07
745.07	247.74
745.40	247.53
745.73	247.32
746.06	247.07
746.39	246.78
746.71	246.50
747.04	246.25
747.37	245.98
747.70	245.71
748.03	245.47
748.36	245.25
748.68	245.02
749.01	244.79
749.34	244.57
749.67	244.34
750.00	244.12
750.33	243.98
750.65	243.74
750.98	243.41
751.31	243.16
751.64	242.95
751.97	242.79
752.29	242.53
752.62	242.26
752.95	242.01
753.28	241.82
753.60	241.63
753.93	241.47
754.26	241.31
754.59	241.08
754.91	240.86
755.24	240.66
755.57	240.45
755.90	240.25
756.22	240.04
756.55	239.82
756.88	239.62
757.20	239.34
757.53	239.15
757.86	238.98
758.19	238.83
758.51	238.63
758.84	238.46
759.17	238.31
759.49	238.17
759.82	238.08
760.15	237.90
760.47	237.74
760.80	237.53
761.13	237.34
761.45	237.19
761.78	237.03
762.11	236.91
762.43	236.76
762.76	236.60
763.08	236.49
763.41	236.35
763.74	236.20
764.06	236.08
764.39	235.91
764.71	235.74
765.04	235.60
765.37	235.46
765.69	235.29
766.02	235.13
766.34	235.00
766.67	234.81
767.00	234.73
767.32	234.63
767.65	234.58
767.97	234.50
768.30	234.39
768.62	234.28
768.95	234.10
769.27	233.99
769.60	233.89
769.92	233.75
770.25	233.61
770.57	233.47
770.90	233.34
771.22	233.26
771.55	233.16
771.87	233.06
772.20	232.95
772.52	232.97
772.85	232.99
773.17	232.88
773.50	232.78
773.82	232.68
774.15	232.52
774.47	232.37
774.80	232.26
775.12	232.17
775.45	232.09
775.77	232.03
776.09	231.99
776.42	231.90
776.74	231.85
777.07	231.80
777.39	231.78
777.72	231.74
778.04	231.67
778.36	231.61
778.69	231.55
779.01	231.51
779.33	231.33
779.66	231.18
779.98	231.12
780.31	231.11
780.63	231.10
780.95	231.05
781.28	231.00
781.60	230.91
781.92	230.85
782.25	230.79
782.57	230.73
782.89	230.62
783.22	230.57
783.54	230.53
783.86	230.44
784.19	230.37
784.51	230.33
784.83	230.25
785.16	230.17
785.48	230.12
785.80	230.02
786.12	229.97
786.45	229.91
786.77	229.86
787.09	229.78
787.42	229.67
787.74	229.67
788.06	229.62
788.38	229.59
788.71	229.58
789.03	229.56
789.35	229.53
789.67	229.49
789.99	229.47
790.32	229.43
790.64	229.40
790.96	229.47
791.28	229.40
791.61	229.34
791.93	229.35
792.25	229.31
792.57	229.38
792.89	229.35
793.21	229.28
793.54	229.23
793.86	229.19
794.18	229.17
794.50	229.12
794.82	229.07
795.14	229.03
795.47	229.00
795.79	228.93
796.11	228.87
796.43	228.84
796.75	228.80
797.07	228.76
797.39	228.72
797.71	228.59
798.04	228.55
798.36	228.53
798.68	228.45
799.00	228.42
799.32	228.33
799.64	228.31
799.96	228.27
800.28	228.26
800.60	228.22
800.92	228.18
801.24	228.11
801.56	228.09
801.89	228.04
802.21	227.97
802.53	227.93
802.85	227.93
803.17	227.94
803.49	227.88
803.81	227.82
804.13	227.76
804.45	227.72
804.77	227.71
805.09	227.66
805.41	227.67
805.73	227.60
806.05	227.53
806.37	227.47
806.69	227.45
807.01	227.39
807.33	227.35
807.65	227.29
807.97	227.26
808.28	227.23
808.60	227.20
808.92	227.18
809.24	227.23
809.56	227.18
809.88	227.12
810.20	227.09
810.52	227.07
810.84	227.05
811.16	227.01
811.48	226.98
811.80	227.00
812.12	226.96
812.43	226.96
812.75	226.96
813.07	226.93
813.39	226.90
813.71	226.87
814.03	226.84
814.35	226.81
814.67	226.77
814.98	226.73
815.30	226.70
815.62	226.67
815.94	226.56
816.26	226.58
816.58	226.53
816.89	226.55
817.21	226.53
817.53	226.53
817.85	226.51
818.17	226.49
818.48	226.45
818.80	226.45
819.12	226.44
819.44	226.39
819.76	226.40
820.07	226.40
820.39	226.44
820.71	226.45
821.03	226.45
821.34	226.45
821.66	226.43
821.98	226.43
822.30	226.42
822.61	226.49
822.93	226.44
823.25	226.45
823.57	226.41
823.88	226.42
824.20	226.40
824.52	226.43
824.83	226.41
825.15	226.36
825.47	226.34
825.79	226.29
826.10	226.31
826.42	226.29
826.74	226.29
827.05	226.23
827.37	226.21
827.69	226.19
828.00	226.21
828.32	226.24
828.64	226.24
828.95	226.28
829.27	226.24
829.58	226.24
829.90	226.24
830.22	226.22
830.53	226.17
830.85	226.17
831.17	226.08
831.48	226.07
831.80	226.08
832.11	226.06
832.43	226.05
832.75	226.04
833.06	226.07
833.38	226.02
833.69	226.01
834.01	226.00
834.32	226.01
834.64	225.99
834.96	225.98
835.27	225.98
835.59	225.93
835.90	225.90
836.22	225.88
836.53	225.84
836.85	225.84
837.16	225.95
837.48	225.93
837.79	226.01
838.11	226.02
838.42	225.99
838.74	225.99
839.05	226.00
839.37	225.97
839.68	225.91
840.00	225.92
840.31	225.95
840.63	225.94
840.94	225.88
841.26	225.86
841.57	225.90
841.88	225.87
842.20	225.86
842.51	225.84
842.83	225.85
843.14	225.92
843.46	225.92
843.77	225.81
844.08	225.80
844.40	225.75
844.71	225.71
845.03	225.69
845.34	225.69
845.65	225.66
845.97	225.65
846.28	225.65
846.60	225.64
846.91	225.59
847.22	225.57
847.54	225.58
847.85	225.57
848.16	225.53
848.48	225.49
848.79	225.52
849.10	225.53
849.42	225.51
849.73	225.43
850.04	225.44
850.36	225.43
850.67	225.42
850.98	225.39
851.30	225.42
851.61	225.42
851.92	225.43
852.23	225.49
852.55	225.51
852.86	225.49
853.17	225.51
853.49	225.56
853.80	225.58
854.11	225.64
854.42	225.65
854.74	225.62
855.05	225.62
855.36	225.57
855.67	225.56
855.99	225.58
856.30	225.69
856.61	225.66
856.92	225.69
857.23	225.71
857.55	225.71
857.86	225.69
858.17	225.72
858.48	225.68
858.79	225.66
859.11	225.66
859.42	225.69
859.73	225.65
860.04	225.60
860.35	225.58
860.66	225.53
860.98	225.52
861.29	225.52
861.60	225.54
861.91	225.56
862.22	225.56
862.53	225.53
862.84	225.40
863.16	225.46
863.47	225.40
863.78	225.39
864.09	225.43
864.40	225.41
864.71	225.45
865.02	225.46
865.33	225.46
865.64	225.42
865.95	225.41
866.27	225.48
866.58	225.49
866.89	225.50
867.20	225.49
867.51	225.45
867.82	225.44
868.13	225.45
868.44	225.41
868.75	225.41
869.06	225.40
869.37	225.43
869.68	225.39
869.99	225.42
870.30	225.39
870.61	225.37
870.92	225.38
871.23	225.36
871.54	225.37
871.85	225.38
872.16	225.38
872.47	225.35
872.78	225.31
873.09	225.30
873.40	225.28
873.71	225.30
874.02	225.33
874.33	225.31
874.64	225.29
874.95	225.30
875.26	225.28
875.56	225.29
875.87	225.28
876.18	225.24
876.49	225.34
876.80	225.35
877.11	225.32
877.42	225.32
877.73	225.29
878.04	225.27
878.35	225.25
878.66	225.28
878.96	225.29
879.27	225.29
879.58	225.30
879.89	225.29
880.20	225.32
880.51	225.33
880.82	225.33
881.12	225.36
881.43	225.33
881.74	225.33
882.05	225.32
882.36	225.34
882.67	225.36
882.97	225.26
883.28	225.24
883.59	225.24
883.90	225.24
884.21	225.28
884.51	225.27
884.82	225.28
885.13	225.24
885.44	225.25
885.74	225.23
886.05	225.23
886.36	225.22
886.67	225.17
886.98	225.20
887.28	225.22
887.59	225.19
887.90	225.22
888.20	225.22
888.51	225.24
888.82	225.24
889.13	225.28
889.43	225.34
889.74	225.35
890.05	225.40
890.35	225.44
890.66	225.42
890.97	225.41
891.28	225.38
891.58	225.42
891.89	225.38
892.20	225.38
892.50	225.40
892.81	225.46
893.12	225.49
893.42	225.45
893.73	225.50
894.04	225.51
894.34	225.51
894.65	225.54
894.95	225.52
895.26	225.51
895.57	225.57
895.87	225.49
896.18	225.50
896.48	225.48
896.79	225.43
897.10	225.42
897.40	225.45
897.71	225.48
898.01	225.49
898.32	225.53
898.63	225.54
898.93	225.50
899.24	225.48
899.54	225.50
899.85	225.52
900.15	225.49
900.46	225.50
900.76	225.50
901.07	225.50
901.38	225.51
901.68	225.50
901.99	225.39
902.29	225.39
902.60	225.38
902.90	225.38
903.21	225.38
903.51	225.41
903.82	225.41
904.12	225.38
904.43	225.36
904.73	225.34
905.03	225.36
905.34	225.47
905.64	225.45
905.95	225.41
906.25	225.38
906.56	225.37
906.86	225.38
907.17	225.36
907.47	225.37
907.77	225.36
908.08	225.36
908.38	225.37
908.69	225.37
908.99	225.39
909.30	225.39
909.60	225.39
909.90	225.36
910.21	225.34
910.51	225.32
910.81	225.30
911.12	225.32
911.42	225.29
911.73	225.17
912.03	225.18
912.33	225.18
912.64	225.19
912.94	225.18
913.24	225.16
913.55	225.12
913.85	225.09
914.15	225.08
914.46	225.07
914.76	225.06
915.06	225.06
915.37	225.05
915.67	225.05
915.97	225.05
916.27	225.04
916.58	225.01
916.88	225.00
917.18	225.00
917.49	225.06
917.79	225.04
918.09	225.03
918.39	225.04
918.70	225.03
919.00	225.03
919.30	225.05
919.60	225.01
919.91	225.03
920.21	225.04
920.51	224.99
920.81	224.99
921.12	225.01
921.42	224.98
921.72	224.92
922.02	224.91
922.32	224.94
922.63	224.94
922.93	225.01
923.23	225.03
923.53	225.03
923.83	224.95
924.13	224.98
924.44	225.00
924.74	225.04
925.04	225.03
925.34	225.04
925.64	225.01
925.94	225.00
926.24	225.04
926.55	225.03
926.85	225.10
927.15	225.11
927.45	225.11
927.75	225.11
928.05	225.15
928.35	225.12
928.65	225.12
928.95	225.14
929.26	225.10
929.56	225.14
929.86	225.19
930.16	225.18
930.46	225.17
930.76	225.16
931.06	225.11
931.36	225.13
931.66	225.14
931.96	225.14
932.26	225.17
932.56	225.15
932.86	225.18
933.16	225.15
933.46	225.14
933.76	225.14
934.06	225.18
934.36	225.22
934.66	225.24
934.96	225.25
935.26	225.22
935.56	225.26
935.86	225.21
936.16	225.15
936.46	225.14
936.76	225.12
937.06	225.10
937.36	225.13
937.66	225.15
937.96	225.13
938.26	225.13
938.56	225.12
938.86	225.13
939.16	225.15
939.46	225.14
939.76	225.17
940.06	225.15
940.35	225.11
940.65	225.06
940.95	225.07
941.25	225.02
941.55	225.06
941.85	225.01
942.15	225.03
942.45	225.07
942.75	225.08
943.04	225.11
943.34	225.15
943.64	225.09
943.94	225.05
944.24	225.07
944.54	225.07
944.84	225.06
945.13	225.03
945.43	225.01
945.73	225.01
946.03	224.96
946.33	224.97
946.62	224.96
946.92	224.96
947.22	224.97
947.52	225.01
947.82	224.98
948.11	224.98
948.41	224.93
948.71	224.90
949.01	224.89
949.31	224.87
949.60	224.85
949.90	224.90
950.20	224.91
950.50	224.87
950.79	224.87
951.09	224.90
951.39	224.91
951.69	224.89
951.98	224.92
952.28	224.93
952.58	224.90
952.87	224.93
953.17	224.92
953.47	224.91
953.76	224.91
954.06	224.88
954.36	224.87
954.66	224.92
954.95	224.94
955.25	224.98
955.55	224.97
955.84	224.92
956.14	224.92
956.44	224.92
956.73	224.93
957.03	224.92
957.32	224.92
957.62	224.92
957.92	224.93
958.21	224.88
958.51	224.97
958.81	225.01
959.10	225.03
959.40	225.06
959.69	225.05
959.99	225.04
960.29	225.04
960.58	225.03
960.88	225.05
961.17	225.03
961.47	225.05
961.76	225.06
962.06	225.11
962.36	225.09
962.65	225.07
962.95	225.06
963.24	225.05
963.54	225.04
963.83	225.04
964.13	225.04
964.42	225.03
964.72	224.93
965.01	224.91
965.31	224.87
965.60	224.85
965.90	224.92
966.19	224.90
966.49	224.91
966.78	224.92
967.08	224.92
967.37	224.95
967.67	224.91
967.96	224.90
968.26	224.91
968.55	224.91
968.85	224.95
969.14	224.95
969.43	224.94
969.73	224.96
970.02	224.96
970.32	224.98
970.61	224.98
970.91	224.95
971.20	224.96
971.49	224.96
971.79	224.95
972.08	224.87
972.38	224.89
972.67	224.91
972.96	224.92
973.26	224.89
973.55	224.92
973.85	224.88
974.14	224.88
974.43	224.88
974.73	224.87
975.02	224.83
975.31	224.81
975.61	224.84
975.90	224.84
976.19	224.82
976.49	224.81
976.78	224.84
977.07	224.88
977.37	224.87
977.66	224.91
977.95	224.91
978.24	224.93
978.54	224.93
978.83	224.90
979.12	224.90
979.42	224.90
979.71	224.85
980.00	224.87
980.29	224.89
980.59	224.85
980.88	224.88
981.17	224.90
981.46	224.92
981.76	224.87
982.05	224.87
982.34	224.90
982.63	224.92
982.93	224.93
983.22	224.93
983.51	224.93
983.80	224.89
984.09	224.92
984.39	224.91
984.68	224.91
984.97	224.93
985.26	224.91
985.55	224.89
985.85	224.89
986.14	224.90
986.43	224.92
986.72	224.93
987.01	224.90
987.30	224.88
987.59	224.85
987.89	224.87
988.18	224.83
988.47	224.82
988.76	224.78
989.05	224.75
989.34	224.73
989.63	224.75
989.92	224.80
990.22	224.77
990.51	224.80
990.80	224.75
991.09	224.76
991.38	224.77
991.67	224.81
991.96	224.76
992.25	224.81
992.54	224.74
992.83	224.74
993.12	224.73
993.41	224.76
993.70	224.82
993.99	224.85
994.28	224.87
994.58	224.88
994.87	224.83
995.16	224.88
995.45	224.85
995.74	224.80
996.03	224.80
996.32	224.81
996.61	224.82
996.90	224.81
997.19	224.81
997.48	224.82
997.77	224.77
998.06	224.81
998.34	224.74
998.63	224.74
998.92	224.75
999.21	224.76
999.50	224.74
999.79	224.71
1000.08	224.71
1000.37	224.69
1000.66	224.66
1000.95	224.72
1001.24	224.68
1001.53	224.74
1001.82	224.74
1002.11	224.73
1002.40	224.72
1002.68	224.73
1002.97	224.82
1003.26	224.80
1003.55	224.80
1003.84	224.81
1004.13	224.84
1004.42	224.84
1004.71	224.87
1004.99	224.85
1005.28	224.88
1005.57	224.90
1005.86	224.86
1006.15	224.87
1006.44	224.86
1006.72	224.88
1007.01	224.85
1007.30	224.89
1007.59	224.89
1007.88	224.93
1008.17	224.90
1008.45	224.92
1008.74	224.86
1009.03	224.82
1009.32	224.84
1009.60	224.82
1009.89	224.83
1010.18	224.79
1010.47	224.80
1010.76	224.80
1011.04	224.81
1011.33	224.81
1011.62	224.80
1011.91	224.85
1012.19	224.84
1012.48	224.90
1012.77	224.89
1013.05	224.98
1013.34	224.98
1013.63	224.95
1013.92	224.95
1014.20	224.97
1014.49	224.96
1014.78	225.00
1015.06	224.98
1015.35	224.99
1015.64	225.04
1015.92	225.06
1016.21	225.08
1016.50	225.09
1016.78	225.09
1017.07	225.10
1017.36	225.09
1017.64	225.11
1017.93	225.08
1018.22	225.05
1018.50	225.02
1018.79	225.04
1019.08	225.00
1019.36	225.01
1019.65	225.03
1019.93	225.02
1020.22	225.03
1020.51	225.08
1020.79	225.07
1021.08	224.43
1021.36	224.66
1021.65	225.31
1021.94	225.54
1022.22	225.35
1022.51	225.25
1022.79	224.92
1023.08	224.91
1023.36	226.31
1023.65	224.72
>>>>>End Processed Spectral Data<<<<<
