SpectraSuite Data File
++++++++++++++++++++++++++++++++++++
Date: Fri Feb 01 15:50:06 EST 2013
User: group
Dark Spectrum Present: No
Reference Spectrum Present: No
Number of Sampled Component Spectra: 1
Spectrometers: USB2E7196
Integration Time (usec): 35000 (USB2E7196)
Spectra Averaged: 100 (USB2E7196)
Boxcar Smoothing: 10 (USB2E7196)
Correct for Electrical Dark: No (USB2E7196)
Strobe/Lamp Enabled: No (USB2E7196)
Correct for Detector Non-linearity: No (USB2E7196)
Correct for Stray Light: No (USB2E7196)
Number of Pixels in Processed Spectrum: 2048
>>>>>Begin Processed Spectral Data<<<<<
339.09	0.00
339.48	214.93
339.86	216.46
340.24	217.77
340.63	218.98
341.01	222.37
341.39	221.55
341.78	223.33
342.16	224.29
342.54	224.74
342.93	213.16
343.31	223.96
343.69	224.49
344.07	224.92
344.46	225.34
344.84	225.72
345.22	225.93
345.60	226.20
345.99	226.37
346.37	226.51
346.75	226.60
347.13	226.69
347.52	226.77
347.90	226.85
348.28	226.87
348.66	226.92
349.05	226.90
349.43	226.95
349.81	226.98
350.19	227.06
350.57	227.12
350.96	227.19
351.34	227.25
351.72	227.35
352.10	227.45
352.48	227.55
352.87	227.58
353.25	227.67
353.63	227.74
354.01	227.81
354.39	227.87
354.77	227.97
355.15	228.08
355.54	228.14
355.92	228.18
356.30	228.25
356.68	228.37
357.06	228.45
357.44	228.49
357.82	228.56
358.20	228.60
358.58	228.69
358.97	228.74
359.35	228.86
359.73	228.92
360.11	229.01
360.49	229.06
360.87	229.11
361.25	229.14
361.63	229.18
362.01	229.24
362.39	229.26
362.77	229.29
363.15	229.28
363.53	229.32
363.91	229.33
364.29	229.39
364.67	229.34
365.05	229.38
365.43	229.42
365.81	229.41
366.19	229.44
366.57	229.48
366.95	229.46
367.33	229.39
367.71	229.39
368.09	229.36
368.47	229.32
368.85	229.31
369.23	229.32
369.61	229.28
369.99	229.26
370.37	229.24
370.75	229.25
371.13	229.19
371.51	229.14
371.89	229.09
372.27	229.02
372.65	228.96
373.03	228.85
373.41	228.80
373.78	228.72
374.16	228.60
374.54	228.50
374.92	228.42
375.30	228.34
375.68	228.23
376.06	228.17
376.44	228.06
376.82	228.01
377.19	227.91
377.57	227.86
377.95	227.77
378.33	227.69
378.71	227.56
379.09	227.52
379.47	227.46
379.84	227.41
380.22	227.30
380.60	227.21
380.98	227.15
381.36	227.06
381.73	227.01
382.11	226.99
382.49	226.92
382.87	226.86
383.25	226.80
383.62	226.89
384.00	226.81
384.38	226.79
384.76	226.77
385.13	226.74
385.51	226.68
385.89	226.59
386.27	226.59
386.64	226.53
387.02	226.46
387.40	226.39
387.78	226.37
388.15	226.35
388.53	226.34
388.91	226.33
389.29	226.28
389.66	226.27
390.04	226.22
390.42	226.21
390.79	226.22
391.17	226.21
391.55	226.09
391.92	226.12
392.30	226.09
392.68	226.07
393.05	226.08
393.43	226.06
393.81	226.08
394.18	226.07
394.56	226.11
394.94	226.18
395.31	226.22
395.69	226.24
396.06	226.28
396.44	226.30
396.82	226.35
397.19	226.46
397.57	226.51
397.95	226.60
398.32	226.64
398.70	226.71
399.07	226.84
399.45	226.90
399.82	226.95
400.20	227.07
400.58	227.13
400.95	227.19
401.33	227.33
401.70	227.49
402.08	227.57
402.45	227.66
402.83	227.75
403.20	227.89
403.58	228.01
403.95	228.17
404.33	228.31
404.71	228.41
405.08	228.61
405.46	228.76
405.83	228.93
406.21	229.10
406.58	229.25
406.96	229.41
407.33	229.59
407.70	229.79
408.08	230.06
408.45	230.28
408.83	230.54
409.20	230.76
409.58	230.95
409.95	231.22
410.33	231.51
410.70	231.79
411.08	232.09
411.45	232.39
411.82	232.70
412.20	233.07
412.57	233.49
412.95	233.76
413.32	234.16
413.69	234.55
414.07	234.99
414.44	235.46
414.82	235.91
415.19	236.44
415.56	236.99
415.94	237.54
416.31	238.18
416.68	238.79
417.06	239.51
417.43	240.21
417.81	240.97
418.18	241.79
418.55	242.59
418.93	243.47
419.30	244.37
419.67	245.33
420.04	246.28
420.42	247.28
420.79	248.46
421.16	249.63
421.54	250.82
421.91	252.04
422.28	253.29
422.66	254.61
423.03	255.93
423.40	257.26
423.77	258.66
424.15	260.05
424.52	261.53
424.89	263.13
425.26	264.68
425.64	266.13
426.01	267.66
426.38	269.32
426.75	270.98
427.13	272.69
427.50	274.46
427.87	276.34
428.24	278.19
428.61	279.93
428.99	281.89
429.36	284.00
429.73	286.01
430.10	288.05
430.47	290.11
430.85	292.24
431.22	294.51
431.59	296.85
431.96	299.12
432.33	301.59
432.70	303.99
433.08	306.78
433.45	309.42
433.82	312.01
434.19	314.93
434.56	317.73
434.93	320.36
435.30	322.95
435.68	325.84
436.05	328.66
436.42	331.45
436.79	333.94
437.16	336.64
437.53	339.51
437.90	342.25
438.27	345.00
438.64	347.79
439.01	350.35
439.38	352.57
439.75	354.75
440.13	357.23
440.50	359.50
440.87	361.35
441.24	363.26
441.61	365.44
441.98	366.89
442.35	368.67
442.72	370.51
443.09	372.36
443.46	373.35
443.83	373.92
444.20	374.42
444.57	375.21
444.94	375.45
445.31	375.74
445.68	376.10
446.05	376.17
446.42	375.86
446.79	375.40
447.16	374.97
447.53	374.64
447.90	373.48
448.27	372.30
448.64	370.70
449.01	369.56
449.37	367.60
449.74	365.72
450.11	363.44
450.48	360.98
450.85	358.44
451.22	356.28
451.59	354.26
451.96	352.35
452.33	349.78
452.70	347.42
453.07	344.63
453.43	341.76
453.80	339.00
454.17	336.29
454.54	333.75
454.91	331.04
455.28	328.40
455.65	325.94
456.02	323.49
456.38	321.35
456.75	318.72
457.12	316.47
457.49	314.22
457.86	312.14
458.23	310.28
458.59	308.21
458.96	306.16
459.33	304.33
459.70	302.45
460.07	300.95
460.43	299.24
460.80	297.59
461.17	296.17
461.54	294.67
461.91	293.22
462.27	291.80
462.64	290.54
463.01	289.17
463.38	287.85
463.74	286.53
464.11	285.33
464.48	284.28
464.85	283.15
465.21	282.31
465.58	281.34
465.95	280.32
466.32	279.43
466.68	278.51
467.05	277.62
467.42	276.75
467.78	275.81
468.15	274.94
468.52	274.29
468.88	273.44
469.25	272.65
469.62	272.05
469.98	271.36
470.35	270.70
470.72	270.05
471.08	269.43
471.45	268.88
471.82	268.37
472.18	267.80
472.55	267.38
472.92	266.91
473.28	266.45
473.65	265.93
474.02	265.46
474.38	265.09
474.75	264.77
475.11	264.38
475.48	264.09
475.85	263.86
476.21	263.60
476.58	263.40
476.94	263.26
477.31	263.08
477.67	262.95
478.04	262.84
478.41	262.82
478.77	262.83
479.14	262.79
479.50	262.77
479.87	262.83
480.23	262.92
480.60	262.90
480.96	263.00
481.33	263.22
481.69	263.43
482.06	263.62
482.42	263.82
482.79	264.11
483.15	264.44
483.52	264.85
483.88	265.24
484.25	265.60
484.61	266.04
484.98	266.50
485.34	267.07
485.71	267.72
486.07	268.34
486.44	268.90
486.80	269.61
487.17	270.35
487.53	271.19
487.90	272.05
488.26	272.99
488.62	273.96
488.99	274.97
489.35	276.04
489.72	277.15
490.08	278.36
490.44	279.61
490.81	280.96
491.17	282.31
491.54	283.79
491.90	285.37
492.26	286.99
492.63	288.74
492.99	290.49
493.36	292.36
493.72	294.41
494.08	296.49
494.45	298.77
494.81	301.11
495.17	303.54
495.54	306.11
495.90	308.82
496.26	311.67
496.63	314.62
496.99	317.73
497.35	321.03
497.72	324.42
498.08	327.90
498.44	331.56
498.80	335.46
499.17	339.48
499.53	343.66
499.89	348.06
500.26	352.53
500.62	357.20
500.98	362.18
501.34	367.23
501.71	372.61
502.07	378.04
502.43	383.71
502.79	389.51
503.16	395.61
503.52	401.89
503.88	408.23
504.24	414.88
504.60	421.77
504.97	428.92
505.33	436.36
505.69	444.07
506.05	451.86
506.41	459.74
506.78	467.94
507.14	476.39
507.50	485.07
507.86	494.10
508.22	503.31
508.59	512.49
508.95	522.13
509.31	531.96
509.67	542.11
510.03	552.37
510.39	562.89
510.75	573.64
511.12	584.60
511.48	595.93
511.84	607.38
512.20	618.92
512.56	630.85
512.92	642.94
513.28	655.27
513.64	667.78
514.00	680.48
514.37	693.43
514.73	706.50
515.09	719.55
515.45	732.85
515.81	746.42
516.17	760.37
516.53	774.50
516.89	788.72
517.25	802.78
517.61	817.23
517.97	831.80
518.33	846.24
518.69	860.99
519.05	875.94
519.41	891.12
519.77	906.52
520.13	921.97
520.49	937.28
520.85	952.70
521.21	968.48
521.57	984.81
521.93	1000.55
522.29	1016.99
522.65	1033.22
523.01	1049.43
523.37	1065.45
523.73	1081.62
524.09	1097.64
524.45	1113.90
524.81	1130.61
525.17	1147.39
525.53	1164.25
525.89	1181.16
526.25	1197.95
526.61	1214.39
526.97	1231.11
527.33	1247.64
527.68	1264.24
528.04	1280.84
528.40	1297.41
528.76	1314.40
529.12	1330.91
529.48	1347.86
529.84	1363.80
530.20	1380.46
530.56	1397.60
530.91	1415.08
531.27	1431.77
531.63	1448.31
531.99	1464.81
532.35	1480.67
532.71	1496.55
533.07	1512.78
533.42	1528.59
533.78	1544.69
534.14	1560.93
534.50	1576.31
534.86	1592.22
535.21	1607.41
535.57	1623.15
535.93	1638.62
536.29	1653.45
536.65	1668.50
537.00	1683.10
537.36	1698.35
537.72	1712.96
538.08	1727.26
538.44	1741.00
538.79	1754.96
539.15	1768.52
539.51	1782.23
539.87	1796.65
540.22	1810.39
540.58	1824.16
540.94	1837.63
541.29	1850.61
541.65	1863.36
542.01	1876.58
542.37	1888.86
542.72	1901.21
543.08	1913.05
543.44	1925.43
543.79	1936.56
544.15	1947.61
544.51	1959.30
544.87	1970.36
545.22	1981.05
545.58	1991.31
545.94	2001.06
546.29	2010.95
546.65	2020.83
547.01	2030.15
547.36	2038.86
547.72	2047.28
548.07	2055.10
548.43	2063.20
548.79	2071.13
549.14	2078.54
549.50	2085.80
549.86	2093.62
550.21	2100.92
550.57	2108.18
550.92	2114.77
551.28	2121.76
551.64	2128.80
551.99	2135.20
552.35	2141.26
552.70	2147.36
553.06	2153.17
553.41	2159.45
553.77	2165.40
554.13	2171.54
554.48	2177.75
554.84	2183.10
555.19	2188.50
555.55	2193.60
555.90	2197.96
556.26	2202.90
556.61	2207.80
556.97	2212.07
557.32	2216.16
557.68	2220.37
558.03	2224.65
558.39	2228.41
558.74	2233.06
559.10	2236.90
559.45	2240.65
559.81	2245.05
560.16	2248.76
560.52	2252.01
560.87	2255.46
561.23	2258.12
561.58	2260.98
561.94	2263.47
562.29	2265.87
562.64	2268.50
563.00	2271.23
563.35	2274.80
563.71	2277.76
564.06	2280.87
564.42	2283.65
564.77	2286.06
565.12	2288.24
565.48	2290.09
565.83	2291.88
566.19	2293.30
566.54	2294.20
566.89	2295.27
567.25	2295.70
567.60	2297.11
567.96	2298.86
568.31	2299.70
568.66	2300.70
569.02	2301.27
569.37	2301.45
569.72	2302.32
570.08	2302.44
570.43	2302.42
570.78	2301.87
571.14	2300.34
571.49	2298.97
571.84	2298.67
572.20	2297.61
572.55	2296.65
572.90	2295.12
573.26	2293.73
573.61	2291.96
573.96	2290.23
574.31	2287.25
574.67	2284.27
575.02	2280.69
575.37	2277.44
575.72	2273.61
576.08	2270.42
576.43	2267.13
576.78	2263.54
577.13	2260.54
577.49	2257.39
577.84	2253.77
578.19	2249.96
578.54	2246.32
578.90	2241.97
579.25	2236.44
579.60	2231.30
579.95	2226.07
580.30	2221.04
580.66	2215.90
581.01	2210.93
581.36	2206.03
581.71	2201.98
582.06	2197.49
582.42	2192.94
582.77	2187.56
583.12	2183.04
583.47	2178.27
583.82	2173.20
584.17	2167.86
584.53	2162.20
584.88	2156.60
585.23	2150.88
585.58	2145.43
585.93	2140.14
586.28	2135.55
586.63	2130.57
586.98	2125.67
587.34	2121.02
587.69	2116.10
588.04	2110.66
588.39	2105.01
588.74	2098.50
589.09	2092.28
589.44	2085.46
589.79	2079.61
590.14	2074.04
590.49	2067.57
590.84	2061.33
591.19	2055.41
591.54	2049.01
591.89	2041.73
592.25	2034.87
592.60	2027.62
592.95	2020.01
593.30	2012.62
593.65	2005.02
594.00	1998.00
594.35	1990.60
594.70	1982.59
595.05	1975.26
595.40	1968.21
595.75	1960.76
596.10	1954.54
596.45	1947.82
596.80	1941.70
597.15	1934.96
597.50	1927.78
597.85	1921.28
598.19	1914.55
598.54	1907.36
598.89	1900.74
599.24	1894.76
599.59	1888.09
599.94	1881.96
600.29	1875.77
600.64	1869.22
600.99	1861.78
601.34	1854.78
601.69	1847.93
602.04	1841.13
602.39	1833.96
602.74	1826.97
603.08	1820.24
603.43	1813.53
603.78	1806.07
604.13	1798.88
604.48	1791.54
604.83	1784.62
605.18	1777.49
605.53	1769.46
605.87	1761.41
606.22	1754.33
606.57	1746.40
606.92	1739.04
607.27	1731.84
607.62	1724.80
607.96	1717.53
608.31	1710.81
608.66	1703.18
609.01	1695.50
609.36	1687.78
609.70	1679.73
610.05	1671.69
610.40	1663.90
610.75	1655.43
611.10	1647.93
611.44	1639.62
611.79	1631.69
612.14	1622.98
612.49	1613.82
612.83	1605.42
613.18	1597.35
613.53	1589.06
613.88	1580.46
614.22	1572.21
614.57	1563.50
614.92	1555.36
615.27	1547.58
615.61	1539.29
615.96	1531.35
616.31	1523.79
616.65	1516.44
617.00	1508.90
617.35	1501.21
617.70	1492.87
618.04	1484.47
618.39	1476.15
618.74	1468.40
619.08	1460.14
619.43	1452.53
619.78	1445.67
620.12	1438.50
620.47	1431.00
620.82	1422.90
621.16	1415.64
621.51	1408.06
621.85	1400.46
622.20	1392.00
622.55	1383.68
622.89	1375.80
623.24	1368.18
623.59	1360.76
623.93	1353.28
624.28	1346.05
624.62	1338.46
624.97	1331.24
625.32	1324.44
625.66	1317.46
626.01	1310.27
626.35	1302.78
626.70	1295.15
627.04	1287.38
627.39	1279.64
627.73	1272.18
628.08	1265.17
628.43	1257.77
628.77	1250.42
629.12	1242.99
629.46	1235.78
629.81	1228.39
630.15	1221.07
630.50	1213.62
630.84	1205.46
631.19	1197.58
631.53	1190.01
631.88	1182.61
632.22	1175.07
632.57	1167.74
632.91	1160.25
633.26	1152.86
633.60	1145.49
633.95	1138.43
634.29	1131.50
634.64	1124.85
634.98	1117.47
635.32	1110.36
635.67	1103.71
636.01	1097.03
636.36	1090.13
636.70	1083.61
637.05	1076.96
637.39	1070.61
637.73	1064.07
638.08	1058.18
638.42	1052.14
638.77	1045.69
639.11	1039.05
639.45	1032.65
639.80	1026.04
640.14	1019.56
640.49	1012.99
640.83	1006.71
641.17	1000.44
641.52	994.06
641.86	987.51
642.20	981.69
642.55	975.35
642.89	968.83
643.23	962.36
643.58	956.66
643.92	950.52
644.26	944.55
644.61	938.52
644.95	932.47
645.29	925.85
645.64	919.11
645.98	912.85
646.32	907.07
646.66	901.07
647.01	895.25
647.35	889.42
647.69	883.71
648.04	878.16
648.38	872.40
648.72	866.30
649.06	860.25
649.41	854.40
649.75	848.43
650.09	842.54
650.43	836.74
650.78	830.56
651.12	824.60
651.46	818.85
651.80	813.04
652.14	807.76
652.49	802.45
652.83	797.30
653.17	791.51
653.51	785.76
653.85	780.32
654.20	774.60
654.54	768.64
654.88	762.84
655.22	756.91
655.56	751.11
655.90	745.74
656.25	740.48
656.59	735.05
656.93	729.96
657.27	724.79
657.61	719.27
657.95	714.19
658.29	709.09
658.64	703.85
658.98	698.62
659.32	693.09
659.66	687.83
660.00	682.50
660.34	677.58
660.68	672.64
661.02	667.56
661.36	662.84
661.70	658.39
662.05	654.02
662.39	649.66
662.73	645.26
663.07	640.90
663.41	636.44
663.75	631.99
664.09	627.42
664.43	623.06
664.77	618.96
665.11	614.73
665.45	610.59
665.79	606.48
666.13	602.31
666.47	598.21
666.81	594.10
667.15	590.01
667.49	586.11
667.83	582.26
668.17	578.39
668.51	574.41
668.85	570.36
669.19	566.50
669.53	562.72
669.87	558.82
670.21	555.10
670.55	551.54
670.89	548.04
671.23	544.64
671.57	541.13
671.91	537.60
672.25	534.03
672.58	530.52
672.92	527.11
673.26	523.90
673.60	520.81
673.94	517.66
674.28	514.81
674.62	511.86
674.96	508.77
675.30	505.80
675.64	502.84
675.97	500.13
676.31	497.30
676.65	494.33
676.99	491.65
677.33	488.78
677.67	485.93
678.01	482.94
678.34	479.91
678.68	477.03
679.02	474.19
679.36	471.51
679.70	468.80
680.04	466.04
680.37	463.21
680.71	460.39
681.05	457.78
681.39	455.03
681.73	452.40
682.06	449.89
682.40	447.38
682.74	444.88
683.08	442.30
683.42	439.71
683.75	437.25
684.09	434.72
684.43	432.26
684.77	429.81
685.10	427.49
685.44	425.29
685.78	422.98
686.12	420.75
686.45	418.44
686.79	416.16
687.13	413.95
687.46	411.78
687.80	409.61
688.14	407.38
688.48	405.34
688.81	403.05
689.15	400.94
689.49	398.83
689.82	396.73
690.16	394.67
690.50	392.72
690.83	390.77
691.17	388.80
691.51	386.91
691.84	385.07
692.18	383.13
692.52	381.07
692.85	379.17
693.19	377.29
693.52	375.44
693.86	373.59
694.20	371.84
694.53	370.08
694.87	368.30
695.21	366.55
695.54	364.67
695.88	362.97
696.21	361.24
696.55	359.56
696.88	357.87
697.22	356.16
697.56	354.52
697.89	352.89
698.23	351.25
698.56	349.64
698.90	348.01
699.23	346.37
699.57	344.84
699.90	343.27
700.24	341.72
700.58	340.16
700.91	338.64
701.25	337.20
701.58	335.79
701.92	334.40
702.25	332.98
702.59	331.60
702.92	330.25
703.26	328.89
703.59	327.58
703.93	326.41
704.26	325.23
704.60	323.94
704.93	322.60
705.26	321.33
705.60	320.15
705.93	318.98
706.27	317.93
706.60	316.87
706.94	315.81
707.27	314.67
707.61	313.62
707.94	312.64
708.27	311.52
708.61	310.47
708.94	309.46
709.28	308.50
709.61	307.55
709.94	306.62
710.28	305.58
710.61	304.64
710.95	303.57
711.28	302.60
711.61	301.66
711.95	300.76
712.28	299.81
712.61	298.80
712.95	297.87
713.28	296.99
713.61	296.12
713.95	295.24
714.28	294.37
714.61	293.53
714.95	292.70
715.28	291.89
715.61	290.97
715.95	290.13
716.28	289.28
716.61	288.45
716.95	287.64
717.28	286.93
717.61	286.13
717.94	285.38
718.28	284.58
718.61	283.84
718.94	283.17
719.27	282.54
719.61	281.94
719.94	281.28
720.27	280.58
720.60	279.88
720.94	279.21
721.27	278.64
721.60	278.08
721.93	277.46
722.27	276.90
722.60	276.37
722.93	275.80
723.26	275.26
723.59	274.74
723.93	274.18
724.26	273.63
724.59	273.10
724.92	272.58
725.25	272.09
725.59	271.57
725.92	271.09
726.25	270.58
726.58	270.07
726.91	269.59
727.24	269.14
727.57	268.72
727.91	268.24
728.24	267.76
728.57	267.25
728.90	266.80
729.23	266.33
729.56	265.94
729.89	265.45
730.22	264.97
730.55	264.50
730.89	264.06
731.22	263.63
731.55	263.21
731.88	262.82
732.21	262.42
732.54	262.01
732.87	261.55
733.20	261.14
733.53	260.73
733.86	260.37
734.19	259.95
734.52	259.55
734.85	259.25
735.18	258.84
735.51	258.48
735.84	258.10
736.17	257.72
736.50	257.27
736.83	257.04
737.16	256.72
737.49	256.41
737.82	256.06
738.15	255.74
738.48	255.37
738.81	255.02
739.14	254.64
739.47	254.31
739.80	254.00
740.13	253.72
740.46	253.39
740.79	253.05
741.12	252.75
741.45	252.43
741.78	252.10
742.11	251.82
742.44	251.50
742.77	251.20
743.10	250.92
743.43	250.64
743.75	250.24
744.08	250.11
744.41	249.81
744.74	249.54
745.07	249.22
745.40	248.97
745.73	248.70
746.06	248.44
746.39	248.21
746.71	247.94
747.04	247.66
747.37	247.41
747.70	247.18
748.03	246.95
748.36	246.71
748.68	246.47
749.01	246.22
749.34	245.98
749.67	245.76
750.00	245.48
750.33	245.34
750.65	245.16
750.98	244.78
751.31	244.54
751.64	244.33
751.97	244.18
752.29	243.97
752.62	243.73
752.95	243.55
753.28	243.34
753.60	243.12
753.93	242.95
754.26	242.76
754.59	242.52
754.91	242.28
755.24	242.10
755.57	241.92
755.90	241.77
756.22	241.60
756.55	241.40
756.88	241.24
757.20	240.99
757.53	240.79
757.86	240.63
758.19	240.49
758.51	240.31
758.84	240.13
759.17	239.97
759.49	239.82
759.82	239.70
760.15	239.52
760.47	239.40
760.80	239.22
761.13	239.07
761.45	238.92
761.78	238.81
762.11	238.66
762.43	238.50
762.76	238.32
763.08	238.19
763.41	238.05
763.74	237.93
764.06	237.79
764.39	237.67
764.71	237.51
765.04	237.39
765.37	237.29
765.69	237.17
766.02	237.04
766.34	236.91
766.67	236.74
767.00	236.65
767.32	236.56
767.65	236.48
767.97	236.37
768.30	236.30
768.62	236.19
768.95	236.06
769.27	235.94
769.60	235.86
769.92	235.70
770.25	235.61
770.57	235.50
770.90	235.45
771.22	235.30
771.55	235.23
771.87	235.13
772.20	234.99
772.52	234.97
772.85	234.99
773.17	234.89
773.50	234.81
773.82	234.72
774.15	234.56
774.47	234.43
774.80	234.36
775.12	234.25
775.45	234.13
775.77	234.06
776.09	234.01
776.42	233.91
776.74	233.89
777.07	233.79
777.39	233.69
777.72	233.59
778.04	233.54
778.36	233.45
778.69	233.34
779.01	233.29
779.33	233.13
779.66	232.97
779.98	232.88
780.31	232.80
780.63	232.77
780.95	232.72
781.28	232.67
781.60	232.59
781.92	232.52
782.25	232.47
782.57	232.39
782.89	232.29
783.22	232.23
783.54	232.16
783.86	232.12
784.19	232.08
784.51	232.04
784.83	231.95
785.16	231.88
785.48	231.86
785.80	231.81
786.12	231.75
786.45	231.67
786.77	231.66
787.09	231.61
787.42	231.49
787.74	231.47
788.06	231.38
788.38	231.35
788.71	231.31
789.03	231.28
789.35	231.27
789.67	231.25
789.99	231.20
790.32	231.12
790.64	231.06
790.96	231.11
791.28	231.04
791.61	231.06
791.93	231.04
792.25	231.01
792.57	231.05
792.89	231.01
793.21	231.02
793.54	230.97
793.86	230.93
794.18	230.91
794.50	230.87
794.82	230.84
795.14	230.85
795.47	230.84
795.79	230.82
796.11	230.77
796.43	230.73
796.75	230.71
797.07	230.71
797.39	230.72
797.71	230.62
798.04	230.57
798.36	230.54
798.68	230.51
799.00	230.47
799.32	230.35
799.64	230.34
799.96	230.27
800.28	230.25
800.60	230.21
800.92	230.18
801.24	230.13
801.56	230.13
801.89	230.07
802.21	230.03
802.53	229.97
802.85	229.98
803.17	230.00
803.49	229.98
803.81	229.94
804.13	229.88
804.45	229.85
804.77	229.83
805.09	229.80
805.41	229.79
805.73	229.75
806.05	229.70
806.37	229.65
806.69	229.62
807.01	229.57
807.33	229.58
807.65	229.53
807.97	229.53
808.28	229.49
808.60	229.44
808.92	229.42
809.24	229.47
809.56	229.40
809.88	229.34
810.20	229.33
810.52	229.29
810.84	229.24
811.16	229.19
811.48	229.16
811.80	229.16
812.12	229.13
812.43	229.13
812.75	229.11
813.07	229.10
813.39	229.09
813.71	229.06
814.03	229.01
814.35	229.00
814.67	228.96
814.98	228.90
815.30	228.86
815.62	228.78
815.94	228.67
816.26	228.66
816.58	228.63
816.89	228.58
817.21	228.53
817.53	228.55
817.85	228.53
818.17	228.50
818.48	228.47
818.80	228.42
819.12	228.39
819.44	228.37
819.76	228.35
820.07	228.32
820.39	228.28
820.71	228.30
821.03	228.27
821.34	228.26
821.66	228.28
821.98	228.29
822.30	228.29
822.61	228.33
822.93	228.29
823.25	228.27
823.57	228.24
823.88	228.22
824.20	228.20
824.52	228.17
824.83	228.13
825.15	228.09
825.47	228.11
825.79	228.07
826.10	228.05
826.42	228.02
826.74	228.04
827.05	228.02
827.37	227.99
827.69	227.96
828.00	227.97
828.32	227.97
828.64	227.94
828.95	227.98
829.27	227.94
829.58	227.91
829.90	227.92
830.22	227.94
830.53	227.94
830.85	227.94
831.17	227.95
831.48	227.99
831.80	227.99
832.11	227.96
832.43	227.97
832.75	227.96
833.06	228.03
833.38	228.00
833.69	228.05
834.01	228.06
834.32	228.10
834.64	228.08
834.96	228.07
835.27	228.11
835.59	228.07
835.90	228.06
836.22	228.10
836.53	228.08
836.85	228.08
837.16	228.19
837.48	228.19
837.79	228.21
838.11	228.22
838.42	228.21
838.74	228.23
839.05	228.22
839.37	228.23
839.68	228.15
840.00	228.16
840.31	228.12
840.63	228.10
840.94	228.09
841.26	228.09
841.57	228.08
841.88	228.07
842.20	228.08
842.51	228.08
842.83	228.06
843.14	228.13
843.46	228.11
843.77	228.02
844.08	228.01
844.40	227.95
844.71	227.90
845.03	227.87
845.34	227.85
845.65	227.86
845.97	227.84
846.28	227.84
846.60	227.85
846.91	227.83
847.22	227.81
847.54	227.81
847.85	227.81
848.16	227.78
848.48	227.76
848.79	227.77
849.10	227.77
849.42	227.79
849.73	227.70
850.04	227.69
850.36	227.67
850.67	227.67
850.98	227.70
851.30	227.74
851.61	227.77
851.92	227.76
852.23	227.80
852.55	227.79
852.86	227.80
853.17	227.76
853.49	227.77
853.80	227.80
854.11	227.75
854.42	227.76
854.74	227.75
855.05	227.74
855.36	227.69
855.67	227.68
855.99	227.63
856.30	227.74
856.61	227.72
856.92	227.73
857.23	227.68
857.55	227.66
857.86	227.61
858.17	227.59
858.48	227.59
858.79	227.54
859.11	227.52
859.42	227.51
859.73	227.49
860.04	227.49
860.35	227.45
860.66	227.45
860.98	227.42
861.29	227.39
861.60	227.36
861.91	227.37
862.22	227.35
862.53	227.33
862.84	227.20
863.16	227.22
863.47	227.24
863.78	227.21
864.09	227.18
864.40	227.18
864.71	227.18
865.02	227.18
865.33	227.13
865.64	227.14
865.95	227.11
866.27	227.19
866.58	227.18
866.89	227.16
867.20	227.15
867.51	227.10
867.82	227.08
868.13	227.11
868.44	227.07
868.75	227.05
869.06	227.01
869.37	227.01
869.68	226.98
869.99	226.95
870.30	226.96
870.61	226.97
870.92	226.96
871.23	226.92
871.54	226.93
871.85	226.98
872.16	226.98
872.47	227.00
872.78	226.91
873.09	226.93
873.40	226.93
873.71	226.98
874.02	227.04
874.33	227.07
874.64	227.05
874.95	227.04
875.26	227.06
875.56	227.08
875.87	227.06
876.18	227.07
876.49	227.18
876.80	227.17
877.11	227.15
877.42	227.17
877.73	227.19
878.04	227.14
878.35	227.14
878.66	227.17
878.96	227.17
879.27	227.19
879.58	227.17
879.89	227.18
880.20	227.18
880.51	227.17
880.82	227.17
881.12	227.20
881.43	227.23
881.74	227.25
882.05	227.27
882.36	227.28
882.67	227.28
882.97	227.15
883.28	227.17
883.59	227.19
883.90	227.20
884.21	227.21
884.51	227.21
884.82	227.18
885.13	227.16
885.44	227.15
885.74	227.15
886.05	227.13
886.36	227.13
886.67	227.09
886.98	227.12
887.28	227.14
887.59	227.13
887.90	227.15
888.20	227.14
888.51	227.17
888.82	227.18
889.13	227.19
889.43	227.29
889.74	227.26
890.05	227.23
890.35	227.21
890.66	227.19
890.97	227.17
891.28	227.17
891.58	227.18
891.89	227.18
892.20	227.15
892.50	227.16
892.81	227.12
893.12	227.13
893.42	227.11
893.73	227.07
894.04	227.05
894.34	227.04
894.65	227.01
894.95	226.97
895.26	226.97
895.57	226.97
895.87	226.89
896.18	226.92
896.48	226.94
896.79	226.92
897.10	226.94
897.40	226.97
897.71	227.01
898.01	226.95
898.32	226.96
898.63	226.95
898.93	226.95
899.24	226.97
899.54	226.96
899.85	226.90
900.15	226.88
900.46	226.91
900.76	226.90
901.07	226.89
901.38	226.86
901.68	226.87
901.99	226.84
902.29	226.85
902.60	226.84
902.90	226.83
903.21	226.85
903.51	226.84
903.82	226.86
904.12	226.81
904.43	226.84
904.73	226.82
905.03	226.84
905.34	226.90
905.64	226.87
905.95	226.85
906.25	226.88
906.56	226.92
906.86	226.89
907.17	226.87
907.47	226.86
907.77	226.87
908.08	226.83
908.38	226.84
908.69	226.83
908.99	226.86
909.30	226.89
909.60	226.89
909.90	226.87
910.21	226.82
910.51	226.84
910.81	226.86
911.12	226.86
911.42	226.88
911.73	226.78
912.03	226.82
912.33	226.86
912.64	226.87
912.94	226.86
913.24	226.84
913.55	226.85
913.85	226.88
914.15	226.90
914.46	226.93
914.76	226.91
915.06	226.92
915.37	226.87
915.67	226.85
915.97	226.87
916.27	226.84
916.58	226.85
916.88	226.86
917.18	226.86
917.49	226.93
917.79	226.90
918.09	226.94
918.39	226.97
918.70	227.00
919.00	226.99
919.30	227.04
919.60	227.04
919.91	227.02
920.21	227.03
920.51	226.99
920.81	226.98
921.12	227.00
921.42	226.99
921.72	227.01
922.02	227.03
922.32	226.99
922.63	227.03
922.93	227.07
923.23	227.10
923.53	227.03
923.83	226.99
924.13	227.01
924.44	226.99
924.74	227.00
925.04	227.00
925.34	227.00
925.64	226.94
925.94	226.96
926.24	227.01
926.55	226.96
926.85	227.00
927.15	227.00
927.45	227.01
927.75	227.01
928.05	226.98
928.35	226.98
928.65	227.00
928.95	227.02
929.26	226.95
929.56	226.94
929.86	226.99
930.16	226.95
930.46	226.93
930.76	226.94
931.06	226.87
931.36	226.82
931.66	226.83
931.96	226.82
932.26	226.83
932.56	226.81
932.86	226.85
933.16	226.85
933.46	226.84
933.76	226.82
934.06	226.84
934.36	226.89
934.66	226.87
934.96	226.86
935.26	226.87
935.56	226.89
935.86	226.85
936.16	226.82
936.46	226.82
936.76	226.84
937.06	226.83
937.36	226.84
937.66	226.85
937.96	226.84
938.26	226.83
938.56	226.83
938.86	226.84
939.16	226.85
939.46	226.86
939.76	226.88
940.06	226.90
940.35	226.91
940.65	226.84
940.95	226.85
941.25	226.82
941.55	226.80
941.85	226.83
942.15	226.86
942.45	226.91
942.75	226.88
943.04	226.88
943.34	226.91
943.64	226.93
943.94	226.92
944.24	226.93
944.54	226.96
944.84	226.94
945.13	226.92
945.43	226.93
945.73	226.90
946.03	226.88
946.33	226.86
946.62	226.80
946.92	226.81
947.22	226.83
947.52	226.85
947.82	226.88
948.11	226.83
948.41	226.79
948.71	226.76
949.01	226.78
949.31	226.75
949.60	226.71
949.90	226.69
950.20	226.72
950.50	226.68
950.79	226.68
951.09	226.65
951.39	226.62
951.69	226.57
951.98	226.61
952.28	226.62
952.58	226.61
952.87	226.59
953.17	226.61
953.47	226.58
953.76	226.58
954.06	226.54
954.36	226.55
954.66	226.59
954.95	226.63
955.25	226.63
955.55	226.65
955.84	226.64
956.14	226.67
956.44	226.66
956.73	226.66
957.03	226.65
957.32	226.66
957.62	226.68
957.92	226.72
958.21	226.70
958.51	226.77
958.81	226.81
959.10	226.84
959.40	226.88
959.69	226.88
959.99	226.89
960.29	226.90
960.58	226.88
960.88	226.91
961.17	226.88
961.47	226.89
961.76	226.87
962.06	226.90
962.36	226.87
962.65	226.85
962.95	226.85
963.24	226.87
963.54	226.88
963.83	226.85
964.13	226.84
964.42	226.79
964.72	226.73
965.01	226.69
965.31	226.67
965.60	226.65
965.90	226.71
966.19	226.69
966.49	226.69
966.78	226.72
967.08	226.71
967.37	226.73
967.67	226.72
967.96	226.77
968.26	226.76
968.55	226.79
968.85	226.79
969.14	226.81
969.43	226.79
969.73	226.80
970.02	226.79
970.32	226.80
970.61	226.81
970.91	226.81
971.20	226.81
971.49	226.84
971.79	226.84
972.08	226.76
972.38	226.79
972.67	226.77
972.96	226.76
973.26	226.73
973.55	226.73
973.85	226.72
974.14	226.75
974.43	226.75
974.73	226.73
975.02	226.77
975.31	226.75
975.61	226.78
975.90	226.79
976.19	226.84
976.49	226.85
976.78	226.89
977.07	226.89
977.37	226.90
977.66	226.92
977.95	226.93
978.24	226.96
978.54	226.94
978.83	226.97
979.12	226.97
979.42	226.97
979.71	226.97
980.00	226.98
980.29	226.96
980.59	226.95
980.88	226.98
981.17	226.95
981.46	226.96
981.76	226.97
982.05	226.97
982.34	226.96
982.63	226.96
982.93	226.95
983.22	226.95
983.51	226.96
983.80	226.97
984.09	226.94
984.39	226.92
984.68	226.92
984.97	226.95
985.26	226.92
985.55	226.93
985.85	226.91
986.14	226.92
986.43	226.91
986.72	226.90
987.01	226.85
987.30	226.84
987.59	226.84
987.89	226.81
988.18	226.82
988.47	226.79
988.76	226.78
989.05	226.79
989.34	226.81
989.63	226.85
989.92	226.85
990.22	226.83
990.51	226.85
990.80	226.84
991.09	226.83
991.38	226.85
991.67	226.82
991.96	226.78
992.25	226.76
992.54	226.74
992.83	226.74
993.12	226.73
993.41	226.73
993.70	226.77
993.99	226.75
994.28	226.72
994.58	226.75
994.87	226.74
995.16	226.67
995.45	226.62
995.74	226.54
996.03	226.51
996.32	226.56
996.61	226.57
996.90	226.56
997.19	226.50
997.48	226.51
997.77	226.49
998.06	226.49
998.34	226.50
998.63	226.53
998.92	226.53
999.21	226.54
999.50	226.56
999.79	226.53
1000.08	226.57
1000.37	226.56
1000.66	226.54
1000.95	226.55
1001.24	226.58
1001.53	226.60
1001.82	226.63
1002.11	226.63
1002.40	226.61
1002.68	226.61
1002.97	226.63
1003.26	226.67
1003.55	226.62
1003.84	226.65
1004.13	226.69
1004.42	226.66
1004.71	226.64
1004.99	226.65
1005.28	226.68
1005.57	226.64
1005.86	226.59
1006.15	226.58
1006.44	226.58
1006.72	226.59
1007.01	226.55
1007.30	226.56
1007.59	226.53
1007.88	226.52
1008.17	226.51
1008.45	226.50
1008.74	226.46
1009.03	226.47
1009.32	226.47
1009.60	226.48
1009.89	226.48
1010.18	226.46
1010.47	226.48
1010.76	226.46
1011.04	226.48
1011.33	226.48
1011.62	226.50
1011.91	226.53
1012.19	226.55
1012.48	226.53
1012.77	226.56
1013.05	226.64
1013.34	226.64
1013.63	226.66
1013.92	226.67
1014.20	226.67
1014.49	226.71
1014.78	226.73
1015.06	226.69
1015.35	226.69
1015.64	226.70
1015.92	226.71
1016.21	226.70
1016.50	226.70
1016.78	226.71
1017.07	226.71
1017.36	226.72
1017.64	226.74
1017.93	226.76
1018.22	226.76
1018.50	226.81
1018.79	226.78
1019.08	226.74
1019.36	226.75
1019.65	226.75
1019.93	226.77
1020.22	226.79
1020.51	226.82
1020.79	226.81
1021.08	226.97
1021.36	227.02
1021.65	226.90
1021.94	226.87
1022.22	226.81
1022.51	226.67
1022.79	227.05
1023.08	226.87
1023.36	227.50
1023.65	226.53
>>>>>End Processed Spectral Data<<<<<
