SpectraSuite Data File
++++++++++++++++++++++++++++++++++++
Date: Fri Feb 01 15:05:31 EST 2013
User: group
Dark Spectrum Present: No
Reference Spectrum Present: No
Number of Sampled Component Spectra: 1
Spectrometers: USB2E7196
Integration Time (usec): 35000 (USB2E7196)
Spectra Averaged: 100 (USB2E7196)
Boxcar Smoothing: 10 (USB2E7196)
Correct for Electrical Dark: No (USB2E7196)
Strobe/Lamp Enabled: No (USB2E7196)
Correct for Detector Non-linearity: No (USB2E7196)
Correct for Stray Light: No (USB2E7196)
Number of Pixels in Processed Spectrum: 2048
>>>>>Begin Processed Spectral Data<<<<<
339.09	0.00
339.48	215.07
339.86	216.51
340.24	217.97
340.63	218.79
341.01	222.22
341.39	222.03
341.78	223.32
342.16	224.48
342.54	225.11
342.93	213.38
343.31	224.15
343.69	224.70
344.07	225.18
344.46	225.61
344.84	226.01
345.22	226.23
345.60	226.47
345.99	226.66
346.37	226.80
346.75	226.90
347.13	226.94
347.52	226.97
347.90	227.06
348.28	227.12
348.66	227.17
349.05	227.18
349.43	227.18
349.81	227.20
350.19	227.28
350.57	227.39
350.96	227.45
351.34	227.56
351.72	227.61
352.10	227.70
352.48	227.77
352.87	227.84
353.25	227.90
353.63	227.97
354.01	228.06
354.39	228.16
354.77	228.23
355.15	228.34
355.54	228.41
355.92	228.44
356.30	228.50
356.68	228.63
357.06	228.70
357.44	228.78
357.82	228.84
358.20	228.89
358.58	228.94
358.97	229.03
359.35	229.09
359.73	229.21
360.11	229.24
360.49	229.31
360.87	229.33
361.25	229.41
361.63	229.50
362.01	229.52
362.39	229.53
362.77	229.58
363.15	229.59
363.53	229.63
363.91	229.65
364.29	229.68
364.67	229.59
365.05	229.57
365.43	229.59
365.81	229.62
366.19	229.64
366.57	229.65
366.95	229.65
367.33	229.61
367.71	229.58
368.09	229.58
368.47	229.56
368.85	229.56
369.23	229.54
369.61	229.47
369.99	229.48
370.37	229.45
370.75	229.44
371.13	229.39
371.51	229.33
371.89	229.32
372.27	229.25
372.65	229.18
373.03	229.13
373.41	229.08
373.78	228.99
374.16	228.90
374.54	228.79
374.92	228.71
375.30	228.64
375.68	228.53
376.06	228.49
376.44	228.40
376.82	228.35
377.19	228.26
377.57	228.16
377.95	228.03
378.33	227.92
378.71	227.78
379.09	227.71
379.47	227.65
379.84	227.56
380.22	227.50
380.60	227.46
380.98	227.39
381.36	227.28
381.73	227.22
382.11	227.15
382.49	227.10
382.87	227.02
383.25	226.97
383.62	227.02
384.00	226.93
384.38	226.86
384.76	226.80
385.13	226.78
385.51	226.75
385.89	226.70
386.27	226.67
386.64	226.65
387.02	226.60
387.40	226.54
387.78	226.48
388.15	226.43
388.53	226.36
388.91	226.35
389.29	226.36
389.66	226.34
390.04	226.31
390.42	226.36
390.79	226.33
391.17	226.30
391.55	226.23
391.92	226.22
392.30	226.24
392.68	226.23
393.05	226.22
393.43	226.24
393.81	226.27
394.18	226.28
394.56	226.31
394.94	226.36
395.31	226.39
395.69	226.46
396.06	226.50
396.44	226.58
396.82	226.61
397.19	226.67
397.57	226.72
397.95	226.82
398.32	226.84
398.70	226.94
399.07	227.03
399.45	227.07
399.82	227.18
400.20	227.24
400.58	227.33
400.95	227.43
401.33	227.55
401.70	227.72
402.08	227.81
402.45	227.93
402.83	228.04
403.20	228.18
403.58	228.29
403.95	228.46
404.33	228.55
404.71	228.69
405.08	228.93
405.46	229.07
405.83	229.19
406.21	229.31
406.58	229.48
406.96	229.65
407.33	229.86
407.70	230.05
408.08	230.35
408.45	230.58
408.83	230.80
409.20	230.97
409.58	231.16
409.95	231.42
410.33	231.66
410.70	231.93
411.08	232.22
411.45	232.51
411.82	232.80
412.20	233.19
412.57	233.63
412.95	233.89
413.32	234.30
413.69	234.74
414.07	235.23
414.44	235.70
414.82	236.20
415.19	236.73
415.56	237.28
415.94	237.78
416.31	238.43
416.68	239.05
417.06	239.80
417.43	240.45
417.81	241.25
418.18	242.03
418.55	242.82
418.93	243.71
419.30	244.58
419.67	245.53
420.04	246.49
420.42	247.46
420.79	248.61
421.16	249.79
421.54	250.98
421.91	252.14
422.28	253.39
422.66	254.68
423.03	256.00
423.40	257.31
423.77	258.72
424.15	260.11
424.52	261.58
424.89	263.19
425.26	264.76
425.64	266.16
426.01	267.75
426.38	269.44
426.75	271.08
427.13	272.85
427.50	274.64
427.87	276.51
428.24	278.37
428.61	280.11
428.99	281.97
429.36	284.05
429.73	286.09
430.10	288.09
430.47	290.14
430.85	292.24
431.22	294.44
431.59	296.78
431.96	299.03
432.33	301.52
432.70	303.86
433.08	306.70
433.45	309.39
433.82	312.00
434.19	314.90
434.56	317.74
434.93	320.41
435.30	323.06
435.68	325.92
436.05	328.77
436.42	331.59
436.79	334.15
437.16	336.86
437.53	339.74
437.90	342.59
438.27	345.35
438.64	348.21
439.01	350.85
439.38	353.08
439.75	355.26
440.13	357.75
440.50	360.12
440.87	361.96
441.24	363.88
441.61	366.04
441.98	367.46
442.35	369.26
442.72	371.10
443.09	372.89
443.46	373.90
443.83	374.47
444.20	374.99
444.57	375.85
444.94	376.14
445.31	376.49
445.68	376.86
446.05	376.91
446.42	376.48
446.79	376.12
447.16	375.71
447.53	375.42
447.90	374.29
448.27	373.11
448.64	371.49
449.01	370.37
449.37	368.40
449.74	366.52
450.11	364.25
450.48	361.78
450.85	359.26
451.22	357.12
451.59	355.11
451.96	353.14
452.33	350.56
452.70	348.19
453.07	345.35
453.43	342.44
453.80	339.69
454.17	337.07
454.54	334.48
454.91	331.75
455.28	329.05
455.65	326.52
456.02	324.07
456.38	321.94
456.75	319.29
457.12	317.03
457.49	314.84
457.86	312.68
458.23	310.81
458.59	308.78
458.96	306.68
459.33	304.85
459.70	302.97
460.07	301.41
460.43	299.68
460.80	298.07
461.17	296.63
461.54	295.12
461.91	293.68
462.27	292.22
462.64	290.98
463.01	289.62
463.38	288.33
463.74	286.96
464.11	285.81
464.48	284.75
464.85	283.68
465.21	282.78
465.58	281.83
465.95	280.75
466.32	279.84
466.68	278.92
467.05	277.97
467.42	277.11
467.78	276.20
468.15	275.33
468.52	274.64
468.88	273.76
469.25	273.00
469.62	272.33
469.98	271.66
470.35	270.97
470.72	270.34
471.08	269.65
471.45	269.10
471.82	268.52
472.18	267.91
472.55	267.41
472.92	266.86
473.28	266.39
473.65	265.92
474.02	265.42
474.38	265.06
474.75	264.71
475.11	264.35
475.48	264.06
475.85	263.82
476.21	263.58
476.58	263.38
476.94	263.19
477.31	263.00
477.67	262.83
478.04	262.78
478.41	262.73
478.77	262.80
479.14	262.76
479.50	262.78
479.87	262.85
480.23	262.94
480.60	263.01
480.96	263.11
481.33	263.30
481.69	263.51
482.06	263.67
482.42	263.89
482.79	264.12
483.15	264.46
483.52	264.82
483.88	265.17
484.25	265.53
484.61	265.94
484.98	266.39
485.34	266.93
485.71	267.47
486.07	268.06
486.44	268.59
486.80	269.27
487.17	269.96
487.53	270.74
487.90	271.58
488.26	272.51
488.62	273.51
488.99	274.49
489.35	275.55
489.72	276.68
490.08	277.88
490.44	279.14
490.81	280.43
491.17	281.76
491.54	283.23
491.90	284.75
492.26	286.41
492.63	288.14
492.99	289.93
493.36	291.85
493.72	293.90
494.08	296.00
494.45	298.23
494.81	300.60
495.17	303.05
495.54	305.63
495.90	308.30
496.26	311.05
496.63	314.01
496.99	317.07
497.35	320.31
497.72	323.72
498.08	327.18
498.44	330.88
498.80	334.79
499.17	338.83
499.53	343.06
499.89	347.41
500.26	351.94
500.62	356.60
500.98	361.55
501.34	366.61
501.71	371.95
502.07	377.37
502.43	382.92
502.79	388.70
503.16	394.77
503.52	400.97
503.88	407.41
504.24	413.97
504.60	420.87
504.97	428.03
505.33	435.32
505.69	442.99
506.05	450.73
506.41	458.62
506.78	466.73
507.14	475.08
507.50	483.76
507.86	492.81
508.22	501.93
508.59	511.06
508.95	520.60
509.31	530.32
509.67	540.41
510.03	550.76
510.39	561.35
510.75	572.14
511.12	583.13
511.48	594.34
511.84	605.85
512.20	617.36
512.56	629.27
512.92	641.45
513.28	653.74
513.64	666.17
514.00	678.83
514.37	691.76
514.73	704.88
515.09	717.95
515.45	731.27
515.81	744.90
516.17	758.95
516.53	773.11
516.89	787.37
517.25	801.54
517.61	816.00
517.97	830.40
518.33	844.89
518.69	859.71
519.05	874.86
519.41	889.96
519.77	905.55
520.13	921.06
520.49	936.52
520.85	952.03
521.21	967.86
521.57	984.15
521.93	1000.01
522.29	1016.44
522.65	1032.65
523.01	1048.84
523.37	1064.94
523.73	1081.23
524.09	1097.43
524.45	1113.76
524.81	1130.52
525.17	1147.34
525.53	1164.39
525.89	1181.29
526.25	1198.08
526.61	1214.39
526.97	1231.25
527.33	1247.76
527.68	1264.44
528.04	1280.92
528.40	1297.61
528.76	1314.77
529.12	1331.46
529.48	1348.39
529.84	1364.45
530.20	1381.24
530.56	1398.34
530.91	1415.84
531.27	1432.62
531.63	1449.16
531.99	1465.77
532.35	1481.73
532.71	1497.73
533.07	1513.99
533.42	1529.93
533.78	1546.21
534.14	1562.53
534.50	1577.93
534.86	1593.86
535.21	1608.96
535.57	1625.05
535.93	1640.65
536.29	1655.47
536.65	1670.75
537.00	1685.67
537.36	1701.12
537.72	1715.78
538.08	1730.17
538.44	1744.09
538.79	1758.05
539.15	1771.81
539.51	1785.73
539.87	1800.20
540.22	1813.99
540.58	1827.81
540.94	1841.40
541.29	1854.34
541.65	1867.22
542.01	1880.65
542.37	1892.95
542.72	1905.52
543.08	1917.33
543.44	1929.81
543.79	1941.03
544.15	1952.07
544.51	1963.49
544.87	1974.48
545.22	1985.38
545.58	1995.72
545.94	2005.52
546.29	2015.34
546.65	2025.13
547.01	2034.26
547.36	2043.08
547.72	2051.62
548.07	2059.57
548.43	2067.68
548.79	2075.59
549.14	2083.07
549.50	2090.45
549.86	2098.36
550.21	2105.79
550.57	2112.89
550.92	2119.42
551.28	2126.69
551.64	2133.68
551.99	2140.48
552.35	2146.69
552.70	2152.77
553.06	2158.69
553.41	2165.04
553.77	2171.04
554.13	2177.28
554.48	2183.45
554.84	2188.82
555.19	2194.10
555.55	2199.14
555.90	2203.55
556.26	2208.31
556.61	2213.15
556.97	2217.24
557.32	2221.31
557.68	2225.40
558.03	2229.65
558.39	2233.49
558.74	2237.96
559.10	2241.73
559.45	2245.17
559.81	2249.54
560.16	2253.15
560.52	2256.37
560.87	2259.64
561.23	2262.26
561.58	2265.04
561.94	2267.55
562.29	2269.85
562.64	2272.42
563.00	2275.09
563.35	2278.58
563.71	2281.79
564.06	2284.81
564.42	2287.70
564.77	2290.11
565.12	2292.23
565.48	2294.08
565.83	2295.79
566.19	2296.97
566.54	2297.86
566.89	2298.95
567.25	2299.27
567.60	2300.78
567.96	2302.50
568.31	2303.30
568.66	2304.30
569.02	2304.70
569.37	2305.02
569.72	2305.67
570.08	2305.64
570.43	2305.43
570.78	2304.41
571.14	2302.82
571.49	2301.36
571.84	2300.82
572.20	2299.38
572.55	2298.27
572.90	2296.80
573.26	2295.05
573.61	2293.36
573.96	2291.36
574.31	2288.27
574.67	2285.12
575.02	2281.29
575.37	2277.60
575.72	2273.57
576.08	2270.33
576.43	2267.01
576.78	2263.21
577.13	2260.01
577.49	2256.81
577.84	2253.11
578.19	2249.48
578.54	2245.57
578.90	2241.23
579.25	2235.62
579.60	2230.62
579.95	2225.36
580.30	2220.11
580.66	2215.02
581.01	2209.90
581.36	2204.81
581.71	2200.44
582.06	2195.86
582.42	2191.23
582.77	2186.00
583.12	2181.39
583.47	2176.28
583.82	2171.04
584.17	2165.70
584.53	2160.15
584.88	2154.40
585.23	2148.57
585.58	2143.04
585.93	2137.59
586.28	2132.77
586.63	2127.46
586.98	2122.36
587.34	2117.62
587.69	2112.55
588.04	2107.22
588.39	2101.24
588.74	2094.87
589.09	2088.62
589.44	2081.67
589.79	2075.45
590.14	2069.59
590.49	2062.84
590.84	2056.37
591.19	2050.24
591.54	2043.53
591.89	2035.92
592.25	2029.12
592.60	2021.84
592.95	2014.02
593.30	2006.54
593.65	1998.79
594.00	1991.72
594.35	1984.32
594.70	1976.22
595.05	1968.91
595.40	1961.47
595.75	1954.09
596.10	1947.64
596.45	1940.85
596.80	1934.61
597.15	1927.89
597.50	1920.58
597.85	1914.26
598.19	1907.55
598.54	1900.49
598.89	1894.02
599.24	1888.09
599.59	1881.21
599.94	1875.12
600.29	1868.89
600.64	1862.34
600.99	1854.89
601.34	1848.00
601.69	1841.03
602.04	1834.03
602.39	1826.71
602.74	1819.94
603.08	1813.10
603.43	1806.38
603.78	1799.11
604.13	1791.88
604.48	1784.65
604.83	1778.00
605.18	1770.83
605.53	1762.83
605.87	1754.69
606.22	1747.42
606.57	1739.53
606.92	1732.38
607.27	1725.08
607.62	1718.17
607.96	1710.82
608.31	1704.06
608.66	1696.46
609.01	1688.96
609.36	1681.52
609.70	1673.45
610.05	1665.33
610.40	1657.67
610.75	1649.31
611.10	1641.55
611.44	1633.24
611.79	1625.27
612.14	1616.56
612.49	1607.58
612.83	1599.40
613.18	1591.34
613.53	1583.15
613.88	1574.69
614.22	1566.39
614.57	1557.72
614.92	1549.54
615.27	1542.01
615.61	1533.78
615.96	1525.88
616.31	1518.21
616.65	1510.81
617.00	1503.28
617.35	1495.60
617.70	1487.20
618.04	1478.79
618.39	1470.58
618.74	1462.96
619.08	1454.65
619.43	1447.11
619.78	1440.04
620.12	1432.75
620.47	1425.24
620.82	1417.09
621.16	1409.63
621.51	1401.95
621.85	1394.56
622.20	1386.20
622.55	1377.83
622.89	1370.03
623.24	1362.37
623.59	1355.14
623.93	1347.63
624.28	1340.44
624.62	1332.97
624.97	1325.85
625.32	1319.09
625.66	1312.10
626.01	1304.87
626.35	1297.47
626.70	1289.70
627.04	1282.15
627.39	1274.48
627.73	1267.06
628.08	1260.13
628.43	1252.80
628.77	1245.43
629.12	1237.81
629.46	1230.54
629.81	1223.25
630.15	1216.04
630.50	1208.62
630.84	1200.31
631.19	1192.36
631.53	1184.82
631.88	1177.21
632.22	1169.63
632.57	1162.38
632.91	1154.97
633.26	1147.69
633.60	1140.40
633.95	1133.43
634.29	1126.36
634.64	1119.65
634.98	1112.28
635.32	1105.29
635.67	1098.86
636.01	1092.31
636.36	1085.48
636.70	1079.10
637.05	1072.59
637.39	1066.22
637.73	1059.84
638.08	1054.03
638.42	1048.16
638.77	1041.80
639.11	1035.28
639.45	1029.01
639.80	1022.40
640.14	1015.96
640.49	1009.48
640.83	1003.19
641.17	996.98
641.52	990.74
641.86	984.37
642.20	978.68
642.55	972.35
642.89	965.84
643.23	959.37
643.58	953.72
643.92	947.53
644.26	941.48
644.61	935.45
644.95	929.34
645.29	922.75
645.64	916.07
645.98	909.78
646.32	904.01
646.66	898.01
647.01	892.13
647.35	886.48
647.69	880.64
648.04	875.13
648.38	869.32
648.72	863.23
649.06	857.18
649.41	851.35
649.75	845.37
650.09	839.47
650.43	833.59
650.78	827.37
651.12	821.45
651.46	815.68
651.80	809.92
652.14	804.66
652.49	799.27
652.83	794.08
653.17	788.36
653.51	782.62
653.85	777.18
654.20	771.60
654.54	765.62
654.88	759.95
655.22	754.11
655.56	748.42
655.90	743.09
656.25	737.89
656.59	732.39
656.93	727.36
657.27	722.11
657.61	716.76
657.95	711.77
658.29	706.76
658.64	701.58
658.98	696.29
659.32	690.81
659.66	685.71
660.00	680.39
660.34	675.44
660.68	670.59
661.02	665.68
661.36	660.97
661.70	656.50
662.05	652.06
662.39	647.72
662.73	643.34
663.07	638.95
663.41	634.49
663.75	630.10
664.09	625.48
664.43	621.19
664.77	617.08
665.11	612.77
665.45	608.59
665.79	604.51
666.13	600.44
666.47	596.28
666.81	592.15
667.15	588.03
667.49	584.22
667.83	580.42
668.17	576.45
668.51	572.42
668.85	568.40
669.19	564.63
669.53	560.80
669.87	556.89
670.21	553.16
670.55	549.54
670.89	546.10
671.23	542.70
671.57	539.28
671.91	535.80
672.25	532.41
672.58	528.92
672.92	525.50
673.26	522.36
673.60	519.30
673.94	516.19
674.28	513.34
674.62	510.34
674.96	507.21
675.30	504.31
675.64	501.46
675.97	498.70
676.31	495.84
676.65	492.93
676.99	490.24
677.33	487.48
677.67	484.66
678.01	481.62
678.34	478.67
678.68	475.74
679.02	472.92
679.36	470.16
679.70	467.49
680.04	464.76
680.37	461.88
680.71	459.10
681.05	456.54
681.39	453.85
681.73	451.26
682.06	448.81
682.40	446.25
682.74	443.71
683.08	441.20
683.42	438.64
683.75	436.21
684.09	433.71
684.43	431.24
684.77	428.82
685.10	426.52
685.44	424.30
685.78	422.08
686.12	419.85
686.45	417.62
686.79	415.30
687.13	413.12
687.46	410.98
687.80	408.84
688.14	406.62
688.48	404.62
688.81	402.40
689.15	400.23
689.49	398.13
689.82	396.06
690.16	393.93
690.50	392.01
690.83	390.05
691.17	388.11
691.51	386.24
691.84	384.41
692.18	382.52
692.52	380.56
692.85	378.62
693.19	376.76
693.52	374.90
693.86	373.12
694.20	371.37
694.53	369.65
694.87	367.89
695.21	366.10
695.54	364.31
695.88	362.60
696.21	360.90
696.55	359.27
696.88	357.65
697.22	356.05
697.56	354.39
697.89	352.76
698.23	351.20
698.56	349.60
698.90	348.01
699.23	346.38
699.57	344.83
699.90	343.35
700.24	341.80
700.58	340.28
700.91	338.79
701.25	337.36
701.58	335.93
701.92	334.50
702.25	333.15
702.59	331.72
702.92	330.41
703.26	329.09
703.59	327.79
703.93	326.59
704.26	325.37
704.60	324.11
704.93	322.84
705.26	321.55
705.60	320.34
705.93	319.22
706.27	318.20
706.60	317.13
706.94	316.00
707.27	314.85
707.61	313.80
707.94	312.80
708.27	311.70
708.61	310.63
708.94	309.64
709.28	308.65
709.61	307.72
709.94	306.74
710.28	305.75
710.61	304.78
710.95	303.68
711.28	302.73
711.61	301.78
711.95	300.82
712.28	299.89
712.61	298.95
712.95	297.97
713.28	297.08
713.61	296.21
713.95	295.34
714.28	294.50
714.61	293.62
714.95	292.78
715.28	291.91
715.61	291.02
715.95	290.20
716.28	289.33
716.61	288.50
716.95	287.71
717.28	286.98
717.61	286.20
717.94	285.47
718.28	284.68
718.61	284.00
718.94	283.35
719.27	282.69
719.61	282.04
719.94	281.40
720.27	280.67
720.60	279.95
720.94	279.32
721.27	278.72
721.60	278.17
721.93	277.56
722.27	277.03
722.60	276.52
722.93	275.91
723.26	275.38
723.59	274.82
723.93	274.26
724.26	273.68
724.59	273.11
724.92	272.60
725.25	272.10
725.59	271.57
725.92	271.07
726.25	270.56
726.58	270.09
726.91	269.56
727.24	269.12
727.57	268.70
727.91	268.19
728.24	267.73
728.57	267.25
728.90	266.79
729.23	266.30
729.56	265.87
729.89	265.41
730.22	264.93
730.55	264.46
730.89	264.04
731.22	263.59
731.55	263.17
731.88	262.75
732.21	262.32
732.54	261.87
732.87	261.46
733.20	261.07
733.53	260.66
733.86	260.33
734.19	259.90
734.52	259.50
734.85	259.21
735.18	258.81
735.51	258.40
735.84	258.05
736.17	257.71
736.50	257.33
736.83	257.12
737.16	256.82
737.49	256.53
737.82	256.17
738.15	255.87
738.48	255.52
738.81	255.17
739.14	254.84
739.47	254.54
739.80	254.22
740.13	253.90
740.46	253.56
740.79	253.22
741.12	252.93
741.45	252.60
741.78	252.30
742.11	252.05
742.44	251.78
742.77	251.47
743.10	251.15
743.43	250.84
743.75	250.45
744.08	250.30
744.41	250.00
744.74	249.73
745.07	249.44
745.40	249.21
745.73	249.02
746.06	248.75
746.39	248.50
746.71	248.23
747.04	247.93
747.37	247.64
747.70	247.40
748.03	247.14
748.36	246.94
748.68	246.65
749.01	246.38
749.34	246.16
749.67	245.92
750.00	245.68
750.33	245.50
750.65	245.28
750.98	244.93
751.31	244.71
751.64	244.53
751.97	244.40
752.29	244.18
752.62	243.90
752.95	243.70
753.28	243.48
753.60	243.27
753.93	243.14
754.26	243.00
754.59	242.78
754.91	242.59
755.24	242.36
755.57	242.13
755.90	241.94
756.22	241.71
756.55	241.50
756.88	241.34
757.20	241.10
757.53	240.88
757.86	240.72
758.19	240.55
758.51	240.36
758.84	240.11
759.17	239.95
759.49	239.79
759.82	239.63
760.15	239.49
760.47	239.33
760.80	239.14
761.13	238.98
761.45	238.80
761.78	238.67
762.11	238.54
762.43	238.39
762.76	238.25
763.08	238.11
763.41	238.00
763.74	237.85
764.06	237.69
764.39	237.59
764.71	237.43
765.04	237.30
765.37	237.18
765.69	237.04
766.02	236.91
766.34	236.79
766.67	236.68
767.00	236.59
767.32	236.50
767.65	236.45
767.97	236.35
768.30	236.23
768.62	236.16
768.95	236.05
769.27	235.97
769.60	235.90
769.92	235.81
770.25	235.68
770.57	235.61
770.90	235.56
771.22	235.43
771.55	235.34
771.87	235.26
772.20	235.17
772.52	235.18
772.85	235.21
773.17	235.14
773.50	234.99
773.82	234.91
774.15	234.78
774.47	234.63
774.80	234.54
775.12	234.45
775.45	234.32
775.77	234.24
776.09	234.16
776.42	234.10
776.74	234.05
777.07	233.99
777.39	233.89
777.72	233.81
778.04	233.76
778.36	233.71
778.69	233.66
779.01	233.60
779.33	233.46
779.66	233.29
779.98	233.24
780.31	233.24
780.63	233.18
780.95	233.14
781.28	233.09
781.60	233.02
781.92	232.98
782.25	232.92
782.57	232.86
782.89	232.79
783.22	232.71
783.54	232.66
783.86	232.61
784.19	232.56
784.51	232.53
784.83	232.47
785.16	232.37
785.48	232.28
785.80	232.22
786.12	232.15
786.45	232.11
786.77	232.05
787.09	231.97
787.42	231.90
787.74	231.83
788.06	231.76
788.38	231.72
788.71	231.67
789.03	231.66
789.35	231.63
789.67	231.59
789.99	231.56
790.32	231.49
790.64	231.45
790.96	231.45
791.28	231.39
791.61	231.38
791.93	231.38
792.25	231.36
792.57	231.39
792.89	231.33
793.21	231.29
793.54	231.22
793.86	231.18
794.18	231.13
794.50	231.07
794.82	231.06
795.14	231.01
795.47	230.98
795.79	230.96
796.11	230.87
796.43	230.82
796.75	230.76
797.07	230.72
797.39	230.65
797.71	230.54
798.04	230.49
798.36	230.45
798.68	230.37
799.00	230.35
799.32	230.24
799.64	230.22
799.96	230.17
800.28	230.18
800.60	230.15
800.92	230.13
801.24	230.08
801.56	230.06
801.89	230.04
802.21	230.01
802.53	229.96
802.85	229.98
803.17	229.99
803.49	229.93
803.81	229.88
804.13	229.91
804.45	229.89
804.77	229.86
805.09	229.82
805.41	229.78
805.73	229.73
806.05	229.76
806.37	229.73
806.69	229.72
807.01	229.68
807.33	229.66
807.65	229.62
807.97	229.67
808.28	229.65
808.60	229.61
808.92	229.60
809.24	229.63
809.56	229.59
809.88	229.56
810.20	229.56
810.52	229.59
810.84	229.51
811.16	229.49
811.48	229.46
811.80	229.49
812.12	229.46
812.43	229.42
812.75	229.35
813.07	229.32
813.39	229.30
813.71	229.27
814.03	229.26
814.35	229.24
814.67	229.17
814.98	229.13
815.30	229.12
815.62	229.07
815.94	228.97
816.26	228.99
816.58	228.92
816.89	228.91
817.21	228.88
817.53	228.88
817.85	228.89
818.17	228.89
818.48	228.79
818.80	228.82
819.12	228.81
819.44	228.81
819.76	228.81
820.07	228.79
820.39	228.78
820.71	228.77
821.03	228.74
821.34	228.75
821.66	228.75
821.98	228.80
822.30	228.79
822.61	228.84
822.93	228.79
823.25	228.77
823.57	228.76
823.88	228.75
824.20	228.72
824.52	228.70
824.83	228.67
825.15	228.67
825.47	228.64
825.79	228.62
826.10	228.59
826.42	228.53
826.74	228.53
827.05	228.50
827.37	228.50
827.69	228.49
828.00	228.46
828.32	228.45
828.64	228.37
828.95	228.41
829.27	228.39
829.58	228.36
829.90	228.40
830.22	228.38
830.53	228.34
830.85	228.36
831.17	228.34
831.48	228.34
831.80	228.33
832.11	228.33
832.43	228.33
832.75	228.32
833.06	228.38
833.38	228.33
833.69	228.32
834.01	228.29
834.32	228.27
834.64	228.26
834.96	228.24
835.27	228.24
835.59	228.18
835.90	228.16
836.22	228.15
836.53	228.13
836.85	228.09
837.16	228.20
837.48	228.16
837.79	228.18
838.11	228.17
838.42	228.19
838.74	228.19
839.05	228.14
839.37	228.13
839.68	228.05
840.00	228.04
840.31	228.09
840.63	228.06
840.94	228.05
841.26	228.01
841.57	228.01
841.88	228.01
842.20	227.99
842.51	227.97
842.83	227.97
843.14	228.04
843.46	228.05
843.77	227.99
844.08	227.95
844.40	227.91
844.71	227.88
845.03	227.88
845.34	227.87
845.65	227.89
845.97	227.89
846.28	227.90
846.60	227.89
846.91	227.85
847.22	227.86
847.54	227.86
847.85	227.87
848.16	227.86
848.48	227.84
848.79	227.86
849.10	227.84
849.42	227.83
849.73	227.73
850.04	227.73
850.36	227.68
850.67	227.72
850.98	227.70
851.30	227.74
851.61	227.72
851.92	227.71
852.23	227.70
852.55	227.69
852.86	227.70
853.17	227.69
853.49	227.69
853.80	227.73
854.11	227.73
854.42	227.78
854.74	227.76
855.05	227.78
855.36	227.75
855.67	227.76
855.99	227.77
856.30	227.92
856.61	227.90
856.92	227.94
857.23	227.92
857.55	227.93
857.86	227.91
858.17	227.92
858.48	227.91
858.79	227.92
859.11	227.93
859.42	227.94
859.73	227.96
860.04	227.93
860.35	227.88
860.66	227.89
860.98	227.88
861.29	227.94
861.60	227.90
861.91	227.91
862.22	227.91
862.53	227.87
862.84	227.73
863.16	227.75
863.47	227.70
863.78	227.71
864.09	227.73
864.40	227.77
864.71	227.76
865.02	227.77
865.33	227.74
865.64	227.70
865.95	227.66
866.27	227.71
866.58	227.71
866.89	227.69
867.20	227.68
867.51	227.61
867.82	227.54
868.13	227.55
868.44	227.51
868.75	227.50
869.06	227.53
869.37	227.52
869.68	227.47
869.99	227.51
870.30	227.49
870.61	227.47
870.92	227.40
871.23	227.39
871.54	227.37
871.85	227.38
872.16	227.40
872.47	227.38
872.78	227.32
873.09	227.31
873.40	227.32
873.71	227.32
874.02	227.35
874.33	227.35
874.64	227.33
874.95	227.34
875.26	227.35
875.56	227.32
875.87	227.31
876.18	227.32
876.49	227.37
876.80	227.37
877.11	227.34
877.42	227.35
877.73	227.36
878.04	227.35
878.35	227.38
878.66	227.39
878.96	227.40
879.27	227.40
879.58	227.43
879.89	227.44
880.20	227.44
880.51	227.39
880.82	227.37
881.12	227.38
881.43	227.35
881.74	227.30
882.05	227.29
882.36	227.33
882.67	227.31
882.97	227.24
883.28	227.24
883.59	227.25
883.90	227.26
884.21	227.26
884.51	227.27
884.82	227.25
885.13	227.26
885.44	227.24
885.74	227.26
886.05	227.20
886.36	227.23
886.67	227.19
886.98	227.27
887.28	227.30
887.59	227.35
887.90	227.36
888.20	227.38
888.51	227.41
888.82	227.40
889.13	227.42
889.43	227.48
889.74	227.48
890.05	227.47
890.35	227.45
890.66	227.43
890.97	227.42
891.28	227.37
891.58	227.35
891.89	227.37
892.20	227.35
892.50	227.36
892.81	227.34
893.12	227.33
893.42	227.27
893.73	227.27
894.04	227.25
894.34	227.26
894.65	227.28
894.95	227.26
895.26	227.26
895.57	227.31
895.87	227.22
896.18	227.21
896.48	227.20
896.79	227.21
897.10	227.22
897.40	227.22
897.71	227.26
898.01	227.28
898.32	227.27
898.63	227.28
898.93	227.26
899.24	227.25
899.54	227.27
899.85	227.25
900.15	227.25
900.46	227.24
900.76	227.23
901.07	227.21
901.38	227.18
901.68	227.19
901.99	227.13
902.29	227.14
902.60	227.15
902.90	227.13
903.21	227.14
903.51	227.13
903.82	227.14
904.12	227.11
904.43	227.11
904.73	227.11
905.03	227.10
905.34	227.25
905.64	227.28
905.95	227.28
906.25	227.31
906.56	227.29
906.86	227.30
907.17	227.30
907.47	227.31
907.77	227.32
908.08	227.29
908.38	227.30
908.69	227.30
908.99	227.30
909.30	227.33
909.60	227.30
909.90	227.30
910.21	227.27
910.51	227.24
910.81	227.25
911.12	227.25
911.42	227.25
911.73	227.11
912.03	227.10
912.33	227.11
912.64	227.11
912.94	227.11
913.24	227.08
913.55	227.05
913.85	227.05
914.15	227.07
914.46	227.10
914.76	227.08
915.06	227.09
915.37	227.07
915.67	227.07
915.97	227.11
916.27	227.06
916.58	227.08
916.88	227.11
917.18	227.10
917.49	227.17
917.79	227.17
918.09	227.18
918.39	227.20
918.70	227.20
919.00	227.21
919.30	227.26
919.60	227.29
919.91	227.30
920.21	227.32
920.51	227.31
920.81	227.28
921.12	227.33
921.42	227.32
921.72	227.36
922.02	227.36
922.32	227.39
922.63	227.42
922.93	227.48
923.23	227.49
923.53	227.48
923.83	227.41
924.13	227.44
924.44	227.48
924.74	227.49
925.04	227.53
925.34	227.52
925.64	227.50
925.94	227.52
926.24	227.59
926.55	227.57
926.85	227.61
927.15	227.63
927.45	227.60
927.75	227.62
928.05	227.61
928.35	227.61
928.65	227.61
928.95	227.64
929.26	227.61
929.56	227.65
929.86	227.66
930.16	227.65
930.46	227.65
930.76	227.64
931.06	227.62
931.36	227.59
931.66	227.61
931.96	227.61
932.26	227.59
932.56	227.52
932.86	227.55
933.16	227.49
933.46	227.46
933.76	227.44
934.06	227.48
934.36	227.51
934.66	227.53
934.96	227.51
935.26	227.51
935.56	227.51
935.86	227.47
936.16	227.47
936.46	227.45
936.76	227.44
937.06	227.42
937.36	227.39
937.66	227.40
937.96	227.38
938.26	227.34
938.56	227.32
938.86	227.33
939.16	227.35
939.46	227.37
939.76	227.38
940.06	227.38
940.35	227.35
940.65	227.32
940.95	227.29
941.25	227.29
941.55	227.26
941.85	227.25
942.15	227.26
942.45	227.28
942.75	227.24
943.04	227.21
943.34	227.21
943.64	227.22
943.94	227.19
944.24	227.18
944.54	227.15
944.84	227.14
945.13	227.11
945.43	227.06
945.73	227.06
946.03	227.04
946.33	227.05
946.62	227.00
946.92	226.96
947.22	226.98
947.52	227.01
947.82	226.99
948.11	227.00
948.41	226.97
948.71	226.93
949.01	226.98
949.31	226.98
949.60	226.99
949.90	226.98
950.20	226.99
950.50	226.99
950.79	227.02
951.09	227.06
951.39	227.08
951.69	227.09
951.98	227.10
952.28	227.11
952.58	227.08
952.87	227.10
953.17	227.14
953.47	227.09
953.76	227.05
954.06	227.02
954.36	226.96
954.66	226.99
954.95	227.04
955.25	227.04
955.55	227.08
955.84	227.05
956.14	227.07
956.44	227.09
956.73	227.07
957.03	227.08
957.32	227.07
957.62	227.09
957.92	227.09
958.21	227.08
958.51	227.18
958.81	227.21
959.10	227.21
959.40	227.20
959.69	227.23
959.99	227.24
960.29	227.26
960.58	227.31
960.88	227.35
961.17	227.33
961.47	227.33
961.76	227.28
962.06	227.30
962.36	227.28
962.65	227.24
962.95	227.24
963.24	227.26
963.54	227.25
963.83	227.25
964.13	227.25
964.42	227.21
964.72	227.15
965.01	227.15
965.31	227.16
965.60	227.13
965.90	227.18
966.19	227.18
966.49	227.20
966.78	227.20
967.08	227.18
967.37	227.17
967.67	227.13
967.96	227.16
968.26	227.14
968.55	227.15
968.85	227.16
969.14	227.17
969.43	227.16
969.73	227.14
970.02	227.12
970.32	227.09
970.61	227.09
970.91	227.05
971.20	227.01
971.49	226.99
971.79	227.01
972.08	226.95
972.38	226.95
972.67	226.92
972.96	226.93
973.26	226.86
973.55	226.89
973.85	226.91
974.14	226.88
974.43	226.89
974.73	226.86
975.02	226.85
975.31	226.83
975.61	226.81
975.90	226.81
976.19	226.81
976.49	226.82
976.78	226.84
977.07	226.83
977.37	226.82
977.66	226.84
977.95	226.81
978.24	226.81
978.54	226.82
978.83	226.83
979.12	226.82
979.42	226.82
979.71	226.78
980.00	226.78
980.29	226.80
980.59	226.78
980.88	226.79
981.17	226.84
981.46	226.84
981.76	226.83
982.05	226.87
982.34	226.86
982.63	226.90
982.93	226.91
983.22	226.95
983.51	226.95
983.80	226.98
984.09	227.03
984.39	227.02
984.68	227.00
984.97	227.00
985.26	226.97
985.55	227.02
985.85	226.99
986.14	227.00
986.43	227.01
986.72	227.01
987.01	227.02
987.30	226.98
987.59	227.03
987.89	227.07
988.18	227.04
988.47	227.01
988.76	227.02
989.05	227.00
989.34	227.01
989.63	227.05
989.92	227.04
990.22	227.02
990.51	227.02
990.80	227.00
991.09	227.00
991.38	227.05
991.67	227.03
991.96	227.07
992.25	227.05
992.54	227.07
992.83	227.07
993.12	227.05
993.41	227.09
993.70	227.10
993.99	227.10
994.28	227.12
994.58	227.15
994.87	227.14
995.16	227.14
995.45	227.09
995.74	227.05
996.03	227.07
996.32	227.07
996.61	227.09
996.90	227.12
997.19	227.13
997.48	227.09
997.77	227.08
998.06	227.08
998.34	227.10
998.63	227.09
998.92	227.11
999.21	227.15
999.50	227.15
999.79	227.11
1000.08	227.11
1000.37	227.08
1000.66	227.10
1000.95	227.10
1001.24	227.11
1001.53	227.14
1001.82	227.14
1002.11	227.09
1002.40	227.09
1002.68	227.09
1002.97	227.13
1003.26	227.09
1003.55	227.09
1003.84	227.09
1004.13	227.11
1004.42	227.09
1004.71	227.05
1004.99	227.04
1005.28	227.04
1005.57	227.02
1005.86	227.02
1006.15	227.00
1006.44	227.00
1006.72	226.99
1007.01	226.94
1007.30	226.94
1007.59	226.94
1007.88	226.91
1008.17	226.92
1008.45	226.91
1008.74	226.88
1009.03	226.85
1009.32	226.86
1009.60	226.85
1009.89	226.81
1010.18	226.76
1010.47	226.74
1010.76	226.74
1011.04	226.70
1011.33	226.71
1011.62	226.71
1011.91	226.69
1012.19	226.68
1012.48	226.69
1012.77	226.71
1013.05	226.75
1013.34	226.75
1013.63	226.74
1013.92	226.79
1014.20	226.81
1014.49	226.81
1014.78	226.82
1015.06	226.76
1015.35	226.82
1015.64	226.82
1015.92	226.83
1016.21	226.84
1016.50	226.83
1016.78	226.84
1017.07	226.87
1017.36	226.84
1017.64	226.83
1017.93	226.86
1018.22	226.85
1018.50	226.86
1018.79	226.85
1019.08	226.81
1019.36	226.82
1019.65	226.79
1019.93	226.81
1020.22	226.80
1020.51	226.89
1020.79	226.84
1021.08	226.47
1021.36	227.20
1021.65	227.14
1021.94	226.54
1022.22	227.27
1022.51	226.22
1022.79	227.51
1023.08	226.91
1023.36	228.61
1023.65	225.90
>>>>>End Processed Spectral Data<<<<<
