SpectraSuite Data File
++++++++++++++++++++++++++++++++++++
Date: Fri Feb 01 16:30:34 EST 2013
User: group
Dark Spectrum Present: No
Reference Spectrum Present: No
Number of Sampled Component Spectra: 1
Spectrometers: USB2E7196
Integration Time (usec): 35000 (USB2E7196)
Spectra Averaged: 100 (USB2E7196)
Boxcar Smoothing: 10 (USB2E7196)
Correct for Electrical Dark: No (USB2E7196)
Strobe/Lamp Enabled: No (USB2E7196)
Correct for Detector Non-linearity: No (USB2E7196)
Correct for Stray Light: No (USB2E7196)
Number of Pixels in Processed Spectrum: 2048
>>>>>Begin Processed Spectral Data<<<<<
339.09	0.00
339.48	213.96
339.86	215.55
340.24	216.73
340.63	217.85
341.01	221.00
341.39	220.80
341.78	222.50
342.16	223.52
342.54	224.14
342.93	212.30
343.31	223.01
343.69	223.56
344.07	224.03
344.46	224.46
344.84	224.84
345.22	225.05
345.60	225.28
345.99	225.46
346.37	225.58
346.75	225.67
347.13	225.74
347.52	225.83
347.90	225.91
348.28	225.93
348.66	225.97
349.05	225.97
349.43	226.02
349.81	226.10
350.19	226.13
350.57	226.17
350.96	226.26
351.34	226.35
351.72	226.40
352.10	226.49
352.48	226.57
352.87	226.64
353.25	226.72
353.63	226.79
354.01	226.87
354.39	226.96
354.77	227.05
355.15	227.13
355.54	227.17
355.92	227.19
356.30	227.24
356.68	227.37
357.06	227.43
357.44	227.50
357.82	227.55
358.20	227.63
358.58	227.69
358.97	227.76
359.35	227.86
359.73	227.95
360.11	228.00
360.49	228.04
360.87	228.09
361.25	228.16
361.63	228.26
362.01	228.30
362.39	228.30
362.77	228.33
363.15	228.33
363.53	228.38
363.91	228.42
364.29	228.47
364.67	228.40
365.05	228.40
365.43	228.39
365.81	228.42
366.19	228.47
366.57	228.53
366.95	228.56
367.33	228.57
367.71	228.59
368.09	228.60
368.47	228.61
368.85	228.59
369.23	228.59
369.61	228.51
369.99	228.53
370.37	228.53
370.75	228.56
371.13	228.57
371.51	228.52
371.89	228.49
372.27	228.46
372.65	228.44
373.03	228.40
373.41	228.36
373.78	228.31
374.16	228.24
374.54	228.16
374.92	228.06
375.30	227.99
375.68	227.89
376.06	227.81
376.44	227.74
376.82	227.70
377.19	227.65
377.57	227.61
377.95	227.53
378.33	227.47
378.71	227.34
379.09	227.28
379.47	227.21
379.84	227.14
380.22	227.05
380.60	227.00
380.98	226.94
381.36	226.84
381.73	226.77
382.11	226.71
382.49	226.63
382.87	226.54
383.25	226.49
383.62	226.53
384.00	226.50
384.38	226.47
384.76	226.41
385.13	226.38
385.51	226.32
385.89	226.24
386.27	226.18
386.64	226.14
387.02	226.06
387.40	226.02
387.78	225.98
388.15	225.94
388.53	225.88
388.91	225.85
389.29	225.85
389.66	225.81
390.04	225.76
390.42	225.74
390.79	225.74
391.17	225.71
391.55	225.59
391.92	225.54
392.30	225.50
392.68	225.45
393.05	225.41
393.43	225.41
393.81	225.39
394.18	225.39
394.56	225.40
394.94	225.43
395.31	225.46
395.69	225.52
396.06	225.54
396.44	225.56
396.82	225.55
397.19	225.62
397.57	225.65
397.95	225.71
398.32	225.75
398.70	225.80
399.07	225.84
399.45	225.91
399.82	225.98
400.20	226.06
400.58	226.15
400.95	226.19
401.33	226.29
401.70	226.47
402.08	226.55
402.45	226.63
402.83	226.75
403.20	226.83
403.58	226.91
403.95	227.05
404.33	227.19
404.71	227.33
405.08	227.51
405.46	227.64
405.83	227.76
406.21	227.90
406.58	228.05
406.96	228.21
407.33	228.37
407.70	228.55
408.08	228.80
408.45	229.03
408.83	229.28
409.20	229.49
409.58	229.63
409.95	229.90
410.33	230.16
410.70	230.40
411.08	230.70
411.45	231.03
411.82	231.33
412.20	231.66
412.57	232.11
412.95	232.41
413.32	232.85
413.69	233.25
414.07	233.67
414.44	234.16
414.82	234.65
415.19	235.19
415.56	235.77
415.94	236.32
416.31	236.96
416.68	237.57
417.06	238.29
417.43	238.99
417.81	239.71
418.18	240.48
418.55	241.33
418.93	242.20
419.30	243.10
419.67	244.04
420.04	245.05
420.42	245.99
420.79	247.15
421.16	248.26
421.54	249.45
421.91	250.70
422.28	251.98
422.66	253.30
423.03	254.62
423.40	255.92
423.77	257.34
424.15	258.75
424.52	260.23
424.89	261.85
425.26	263.38
425.64	264.84
426.01	266.47
426.38	268.13
426.75	269.81
427.13	271.48
427.50	273.23
427.87	275.05
428.24	276.93
428.61	278.67
428.99	280.61
429.36	282.70
429.73	284.74
430.10	286.74
430.47	288.77
430.85	290.89
431.22	293.13
431.59	295.46
431.96	297.67
432.33	300.15
432.70	302.49
433.08	305.29
433.45	307.90
433.82	310.49
434.19	313.36
434.56	316.14
434.93	318.84
435.30	321.46
435.68	324.34
436.05	327.16
436.42	329.92
436.79	332.43
437.16	335.07
437.53	337.88
437.90	340.63
438.27	343.38
438.64	346.19
439.01	348.74
439.38	350.97
439.75	353.16
440.13	355.65
440.50	357.94
440.87	359.80
441.24	361.72
441.61	363.82
441.98	365.29
442.35	367.09
442.72	368.87
443.09	370.66
443.46	371.65
443.83	372.23
444.20	372.73
444.57	373.53
444.94	373.85
445.31	374.17
445.68	374.57
446.05	374.56
446.42	374.16
446.79	373.72
447.16	373.28
447.53	372.93
447.90	371.68
448.27	370.54
448.64	368.92
449.01	367.83
449.37	365.90
449.74	364.01
450.11	361.77
450.48	359.33
450.85	356.82
451.22	354.68
451.59	352.65
451.96	350.72
452.33	348.11
452.70	345.78
453.07	342.99
453.43	340.09
453.80	337.38
454.17	334.72
454.54	332.21
454.91	329.49
455.28	326.80
455.65	324.39
456.02	321.99
456.38	319.87
456.75	317.19
457.12	314.94
457.49	312.72
457.86	310.56
458.23	308.72
458.59	306.69
458.96	304.59
459.33	302.76
459.70	300.91
460.07	299.47
460.43	297.76
460.80	296.11
461.17	294.67
461.54	293.19
461.91	291.76
462.27	290.30
462.64	289.06
463.01	287.75
463.38	286.46
463.74	285.08
464.11	283.91
464.48	282.89
464.85	281.81
465.21	280.96
465.58	280.03
465.95	278.95
466.32	278.06
466.68	277.15
467.05	276.26
467.42	275.40
467.78	274.44
468.15	273.55
468.52	272.93
468.88	272.10
469.25	271.34
469.62	270.80
469.98	270.18
470.35	269.58
470.72	268.97
471.08	268.33
471.45	267.83
471.82	267.34
472.18	266.77
472.55	266.32
472.92	265.82
473.28	265.39
473.65	264.94
474.02	264.51
474.38	264.18
474.75	263.88
475.11	263.57
475.48	263.35
475.85	263.15
476.21	262.94
476.58	262.78
476.94	262.68
477.31	262.46
477.67	262.34
478.04	262.22
478.41	262.23
478.77	262.29
479.14	262.22
479.50	262.25
479.87	262.31
480.23	262.43
480.60	262.52
480.96	262.62
481.33	262.85
481.69	263.05
482.06	263.30
482.42	263.52
482.79	263.74
483.15	264.08
483.52	264.50
483.88	264.84
484.25	265.21
484.61	265.60
484.98	266.04
485.34	266.59
485.71	267.20
486.07	267.82
486.44	268.41
486.80	269.11
487.17	269.84
487.53	270.68
487.90	271.52
488.26	272.43
488.62	273.41
488.99	274.38
489.35	275.46
489.72	276.55
490.08	277.74
490.44	278.99
490.81	280.26
491.17	281.58
491.54	283.10
491.90	284.65
492.26	286.33
492.63	288.08
492.99	289.85
493.36	291.75
493.72	293.78
494.08	295.84
494.45	298.09
494.81	300.44
495.17	302.90
495.54	305.46
495.90	308.15
496.26	310.96
496.63	313.91
496.99	317.04
497.35	320.31
497.72	323.69
498.08	327.20
498.44	330.88
498.80	334.81
499.17	338.84
499.53	342.99
499.89	347.36
500.26	351.89
500.62	356.60
500.98	361.56
501.34	366.62
501.71	371.97
502.07	377.40
502.43	383.01
502.79	388.80
503.16	394.88
503.52	401.20
503.88	407.61
504.24	414.30
504.60	421.12
504.97	428.22
505.33	435.59
505.69	443.33
506.05	451.08
506.41	458.97
506.78	467.11
507.14	475.59
507.50	484.33
507.86	493.29
508.22	502.46
508.59	511.71
508.95	521.32
509.31	531.12
509.67	541.23
510.03	551.57
510.39	562.19
510.75	572.98
511.12	583.91
511.48	595.20
511.84	606.57
512.20	618.07
512.56	630.05
512.92	642.19
513.28	654.55
513.64	667.13
514.00	679.88
514.37	692.78
514.73	705.89
515.09	718.88
515.45	732.17
515.81	745.81
516.17	759.73
516.53	773.85
516.89	788.01
517.25	802.11
517.61	816.53
517.97	830.92
518.33	845.30
518.69	860.09
519.05	874.99
519.41	890.12
519.77	905.62
520.13	921.02
520.49	936.37
520.85	951.80
521.21	967.45
521.57	983.64
521.93	999.39
522.29	1015.69
522.65	1031.89
523.01	1048.03
523.37	1063.91
523.73	1080.01
524.09	1095.92
524.45	1112.21
524.81	1128.79
525.17	1145.49
525.53	1162.36
525.89	1179.19
526.25	1195.92
526.61	1212.20
526.97	1228.94
527.33	1245.36
527.68	1261.88
528.04	1278.42
528.40	1294.82
528.76	1311.70
529.12	1328.16
529.48	1344.90
529.84	1360.72
530.20	1377.32
530.56	1394.29
530.91	1411.65
531.27	1428.24
531.63	1444.74
531.99	1461.16
532.35	1477.01
532.71	1492.76
533.07	1508.75
533.42	1524.53
533.78	1540.43
534.14	1556.75
534.50	1571.98
534.86	1587.85
535.21	1602.94
535.57	1618.67
535.93	1634.02
536.29	1648.80
536.65	1663.70
537.00	1678.36
537.36	1693.67
537.72	1708.03
538.08	1722.35
538.44	1736.05
538.79	1749.97
539.15	1763.48
539.51	1777.05
539.87	1791.30
540.22	1805.03
540.58	1818.74
540.94	1831.95
541.29	1844.68
541.65	1857.18
542.01	1870.34
542.37	1882.47
542.72	1894.77
543.08	1906.27
543.44	1918.64
543.79	1929.73
544.15	1940.74
544.51	1952.25
544.87	1963.07
545.22	1973.85
545.58	1983.94
545.94	1993.54
546.29	2003.20
546.65	2013.06
547.01	2022.37
547.36	2031.00
547.72	2039.29
548.07	2047.09
548.43	2055.35
548.79	2063.38
549.14	2070.90
549.50	2078.11
549.86	2085.75
550.21	2092.99
550.57	2100.24
550.92	2106.69
551.28	2113.67
551.64	2120.53
551.99	2126.97
552.35	2133.12
552.70	2139.14
553.06	2145.10
553.41	2151.48
553.77	2157.50
554.13	2163.36
554.48	2169.53
554.84	2175.09
555.19	2180.33
555.55	2185.57
555.90	2189.88
556.26	2194.68
556.61	2199.38
556.97	2203.66
557.32	2207.77
557.68	2211.87
558.03	2216.11
558.39	2219.84
558.74	2224.51
559.10	2228.50
559.45	2232.21
559.81	2236.52
560.16	2240.41
560.52	2243.78
560.87	2247.19
561.23	2249.87
561.58	2252.92
561.94	2255.19
562.29	2257.50
562.64	2260.22
563.00	2262.77
563.35	2266.32
563.71	2269.44
564.06	2272.65
564.42	2275.62
564.77	2278.08
565.12	2280.40
565.48	2282.51
565.83	2284.45
566.19	2285.79
566.54	2286.69
566.89	2287.88
567.25	2288.48
567.60	2289.90
567.96	2291.48
568.31	2292.20
568.66	2293.44
569.02	2294.08
569.37	2294.57
569.72	2295.51
570.08	2295.76
570.43	2295.83
570.78	2295.32
571.14	2293.93
571.49	2292.88
571.84	2292.56
572.20	2291.52
572.55	2290.53
572.90	2289.07
573.26	2287.82
573.61	2286.24
573.96	2284.60
574.31	2281.69
574.67	2278.86
575.02	2275.22
575.37	2271.93
575.72	2268.33
576.08	2264.98
576.43	2261.74
576.78	2258.11
577.13	2254.90
577.49	2251.85
577.84	2248.43
578.19	2244.72
578.54	2241.24
578.90	2236.89
579.25	2231.30
579.60	2226.47
579.95	2221.59
580.30	2216.52
580.66	2211.34
581.01	2206.34
581.36	2201.48
581.71	2197.36
582.06	2192.94
582.42	2188.53
582.77	2183.43
583.12	2179.01
583.47	2174.44
583.82	2169.39
584.17	2164.39
584.53	2159.05
584.88	2153.51
585.23	2147.81
585.58	2142.39
585.93	2136.96
586.28	2132.22
586.63	2127.19
586.98	2122.25
587.34	2117.54
587.69	2112.61
588.04	2107.33
588.39	2101.88
588.74	2095.37
589.09	2089.29
589.44	2082.38
589.79	2076.53
590.14	2070.93
590.49	2064.38
590.84	2058.07
591.19	2052.13
591.54	2045.66
591.89	2038.37
592.25	2031.55
592.60	2024.41
592.95	2016.91
593.30	2009.50
593.65	2001.97
594.00	1995.17
594.35	1987.97
594.70	1979.97
595.05	1972.81
595.40	1965.68
595.75	1958.22
596.10	1952.23
596.45	1945.50
596.80	1939.56
597.15	1932.82
597.50	1925.81
597.85	1919.58
598.19	1912.81
598.54	1905.73
598.89	1899.06
599.24	1893.36
599.59	1886.70
599.94	1880.57
600.29	1874.21
600.64	1867.74
600.99	1860.49
601.34	1853.59
601.69	1846.63
602.04	1839.88
602.39	1832.66
602.74	1825.87
603.08	1819.00
603.43	1812.27
603.78	1805.01
604.13	1797.81
604.48	1790.61
604.83	1783.71
605.18	1776.63
605.53	1768.76
605.87	1760.85
606.22	1753.72
606.57	1745.68
606.92	1738.48
607.27	1731.28
607.62	1724.44
607.96	1717.12
608.31	1710.33
608.66	1702.73
609.01	1695.17
609.36	1687.49
609.70	1679.49
610.05	1671.54
610.40	1663.88
610.75	1655.44
611.10	1647.75
611.44	1639.28
611.79	1631.30
612.14	1622.62
612.49	1613.39
612.83	1605.09
613.18	1597.07
613.53	1588.96
613.88	1580.41
614.22	1572.11
614.57	1563.52
614.92	1555.48
615.27	1547.95
615.61	1539.67
615.96	1531.78
616.31	1524.26
616.65	1516.93
617.00	1509.38
617.35	1501.71
617.70	1493.40
618.04	1485.00
618.39	1476.81
618.74	1469.26
619.08	1460.96
619.43	1453.37
619.78	1446.55
620.12	1439.30
620.47	1431.70
620.82	1423.50
621.16	1416.16
621.51	1408.61
621.85	1400.97
622.20	1392.45
622.55	1384.10
622.89	1376.31
623.24	1368.55
623.59	1361.11
623.93	1353.61
624.28	1346.42
624.62	1338.81
624.97	1331.67
625.32	1324.93
625.66	1318.01
626.01	1310.87
626.35	1303.40
626.70	1295.71
627.04	1288.00
627.39	1280.25
627.73	1272.83
628.08	1266.00
628.43	1258.66
628.77	1251.23
629.12	1243.64
629.46	1236.49
629.81	1229.08
630.15	1221.86
630.50	1214.43
630.84	1206.21
631.19	1198.31
631.53	1190.76
631.88	1183.17
632.22	1175.57
632.57	1168.19
632.91	1160.60
633.26	1153.09
633.60	1145.75
633.95	1138.67
634.29	1131.69
634.64	1125.03
634.98	1117.63
635.32	1110.36
635.67	1103.67
636.01	1096.96
636.36	1090.19
636.70	1083.59
637.05	1076.97
637.39	1070.38
637.73	1063.79
638.08	1057.87
638.42	1051.86
638.77	1045.38
639.11	1038.77
639.45	1032.33
639.80	1025.66
640.14	1019.26
640.49	1012.75
640.83	1006.38
641.17	1000.09
641.52	993.61
641.86	987.04
642.20	981.28
642.55	974.97
642.89	968.50
643.23	962.02
643.58	956.24
643.92	950.11
644.26	944.04
644.61	938.07
644.95	932.18
645.29	925.53
645.64	918.85
645.98	912.49
646.32	906.70
646.66	900.71
647.01	894.89
647.35	889.11
647.69	883.36
648.04	877.87
648.38	872.02
648.72	866.04
649.06	860.00
649.41	854.03
649.75	848.12
650.09	842.21
650.43	836.49
650.78	830.35
651.12	824.41
651.46	818.75
651.80	813.01
652.14	807.57
652.49	802.32
652.83	797.07
653.17	791.42
653.51	785.67
653.85	780.31
654.20	774.68
654.54	768.60
654.88	762.73
655.22	756.83
655.56	751.15
655.90	745.73
656.25	740.47
656.59	735.10
656.93	729.99
657.27	724.84
657.61	719.32
657.95	714.31
658.29	709.24
658.64	703.98
658.98	698.71
659.32	693.23
659.66	687.98
660.00	682.66
660.34	677.73
660.68	672.85
661.02	667.80
661.36	663.10
661.70	658.70
662.05	654.40
662.39	650.11
662.73	645.67
663.07	641.25
663.41	636.82
663.75	632.36
664.09	627.74
664.43	623.36
664.77	619.30
665.11	615.01
665.45	610.80
665.79	606.75
666.13	602.52
666.47	598.44
666.81	594.25
667.15	590.16
667.49	586.27
667.83	582.41
668.17	578.45
668.51	574.40
668.85	570.37
669.19	566.58
669.53	562.67
669.87	558.79
670.21	555.09
670.55	551.48
670.89	548.03
671.23	544.64
671.57	541.06
671.91	537.49
672.25	533.94
672.58	530.43
672.92	526.99
673.26	523.86
673.60	520.75
673.94	517.70
674.28	514.81
674.62	511.81
674.96	508.70
675.30	505.80
675.64	502.84
675.97	500.03
676.31	497.09
676.65	494.17
676.99	491.43
677.33	488.61
677.67	485.82
678.01	482.81
678.34	479.82
678.68	476.91
679.02	474.07
679.36	471.29
679.70	468.59
680.04	465.83
680.37	462.95
680.71	460.11
681.05	457.45
681.39	454.70
681.73	452.08
682.06	449.58
682.40	446.97
682.74	444.44
683.08	441.88
683.42	439.27
683.75	436.78
684.09	434.26
684.43	431.75
684.77	429.24
685.10	426.87
685.44	424.57
685.78	422.33
686.12	420.06
686.45	417.81
686.79	415.49
687.13	413.28
687.46	411.11
687.80	408.95
688.14	406.72
688.48	404.64
688.81	402.32
689.15	400.09
689.49	398.00
689.82	395.90
690.16	393.82
690.50	391.87
690.83	389.90
691.17	387.89
691.51	386.00
691.84	384.19
692.18	382.25
692.52	380.27
692.85	378.32
693.19	376.49
693.52	374.59
693.86	372.78
694.20	371.02
694.53	369.22
694.87	367.37
695.21	365.63
695.54	363.81
695.88	362.11
696.21	360.38
696.55	358.67
696.88	356.98
697.22	355.31
697.56	353.70
697.89	352.05
698.23	350.50
698.56	348.85
698.90	347.25
699.23	345.60
699.57	344.00
699.90	342.47
700.24	340.90
700.58	339.40
700.91	337.89
701.25	336.42
701.58	335.06
701.92	333.70
702.25	332.29
702.59	330.92
702.92	329.62
703.26	328.36
703.59	327.08
703.93	325.93
704.26	324.71
704.60	323.44
704.93	322.18
705.26	320.89
705.60	319.71
705.93	318.53
706.27	317.52
706.60	316.49
706.94	315.41
707.27	314.29
707.61	313.24
707.94	312.20
708.27	311.14
708.61	310.08
708.94	309.09
709.28	308.12
709.61	307.16
709.94	306.22
710.28	305.20
710.61	304.20
710.95	303.12
711.28	302.22
711.61	301.26
711.95	300.37
712.28	299.41
712.61	298.46
712.95	297.51
713.28	296.62
713.61	295.71
713.95	294.78
714.28	293.94
714.61	293.10
714.95	292.25
715.28	291.38
715.61	290.48
715.95	289.66
716.28	288.78
716.61	287.94
716.95	287.11
717.28	286.37
717.61	285.62
717.94	284.86
718.28	284.04
718.61	283.32
718.94	282.62
719.27	281.97
719.61	281.35
719.94	280.69
720.27	279.95
720.60	279.29
720.94	278.72
721.27	278.12
721.60	277.53
721.93	276.95
722.27	276.42
722.60	275.87
722.93	275.26
723.26	274.72
723.59	274.17
723.93	273.60
724.26	273.02
724.59	272.42
724.92	271.89
725.25	271.38
725.59	270.85
725.92	270.34
726.25	269.86
726.58	269.30
726.91	268.82
727.24	268.40
727.57	267.94
727.91	267.43
728.24	266.97
728.57	266.43
728.90	265.97
729.23	265.46
729.56	265.02
729.89	264.54
730.22	264.04
730.55	263.57
730.89	263.14
731.22	262.71
731.55	262.30
731.88	261.87
732.21	261.43
732.54	260.99
732.87	260.55
733.20	260.15
733.53	259.75
733.86	259.32
734.19	258.90
734.52	258.53
734.85	258.23
735.18	257.82
735.51	257.48
735.84	257.10
736.17	256.76
736.50	256.32
736.83	256.12
737.16	255.79
737.49	255.46
737.82	255.12
738.15	254.79
738.48	254.46
738.81	254.15
739.14	253.82
739.47	253.54
739.80	253.24
740.13	252.91
740.46	252.59
740.79	252.31
741.12	252.02
741.45	251.66
741.78	251.28
742.11	251.00
742.44	250.70
742.77	250.43
743.10	250.14
743.43	249.88
743.75	249.48
744.08	249.36
744.41	249.09
744.74	248.83
745.07	248.60
745.40	248.35
745.73	248.12
746.06	247.83
746.39	247.55
746.71	247.28
747.04	247.02
747.37	246.80
747.70	246.55
748.03	246.32
748.36	246.10
748.68	245.85
749.01	245.61
749.34	245.34
749.67	245.11
750.00	244.90
750.33	244.74
750.65	244.52
750.98	244.13
751.31	243.92
751.64	243.73
751.97	243.54
752.29	243.31
752.62	243.04
752.95	242.86
753.28	242.62
753.60	242.43
753.93	242.26
754.26	242.06
754.59	241.86
754.91	241.62
755.24	241.45
755.57	241.26
755.90	241.08
756.22	240.91
756.55	240.71
756.88	240.48
757.20	240.29
757.53	240.10
757.86	239.95
758.19	239.79
758.51	239.61
758.84	239.38
759.17	239.21
759.49	239.08
759.82	238.97
760.15	238.84
760.47	238.69
760.80	238.50
761.13	238.32
761.45	238.12
761.78	237.99
762.11	237.84
762.43	237.70
762.76	237.53
763.08	237.38
763.41	237.24
763.74	237.13
764.06	236.94
764.39	236.81
764.71	236.69
765.04	236.56
765.37	236.43
765.69	236.30
766.02	236.18
766.34	236.03
766.67	235.87
767.00	235.77
767.32	235.69
767.65	235.61
767.97	235.54
768.30	235.45
768.62	235.30
768.95	235.19
769.27	235.07
769.60	234.98
769.92	234.87
770.25	234.74
770.57	234.59
770.90	234.51
771.22	234.41
771.55	234.30
771.87	234.20
772.20	234.09
772.52	234.08
772.85	234.11
773.17	234.01
773.50	233.93
773.82	233.85
774.15	233.69
774.47	233.59
774.80	233.47
775.12	233.39
775.45	233.33
775.77	233.24
776.09	233.18
776.42	233.10
776.74	233.03
777.07	232.97
777.39	232.92
777.72	232.85
778.04	232.81
778.36	232.73
778.69	232.69
779.01	232.61
779.33	232.47
779.66	232.30
779.98	232.23
780.31	232.19
780.63	232.16
780.95	232.17
781.28	232.09
781.60	232.04
781.92	232.00
782.25	231.94
782.57	231.88
782.89	231.82
783.22	231.76
783.54	231.69
783.86	231.64
784.19	231.56
784.51	231.51
784.83	231.44
785.16	231.37
785.48	231.31
785.80	231.26
786.12	231.22
786.45	231.16
786.77	231.17
787.09	231.11
787.42	231.00
787.74	230.96
788.06	230.90
788.38	230.88
788.71	230.82
789.03	230.78
789.35	230.75
789.67	230.71
789.99	230.69
790.32	230.64
790.64	230.60
790.96	230.65
791.28	230.56
791.61	230.53
791.93	230.49
792.25	230.42
792.57	230.44
792.89	230.38
793.21	230.36
793.54	230.28
793.86	230.19
794.18	230.18
794.50	230.08
794.82	230.05
795.14	230.01
795.47	229.96
795.79	229.89
796.11	229.80
796.43	229.72
796.75	229.66
797.07	229.63
797.39	229.62
797.71	229.50
798.04	229.50
798.36	229.47
798.68	229.43
799.00	229.43
799.32	229.35
799.64	229.35
799.96	229.30
800.28	229.28
800.60	229.26
800.92	229.21
801.24	229.14
801.56	229.10
801.89	229.07
802.21	229.02
802.53	228.96
802.85	228.96
803.17	228.99
803.49	228.94
803.81	228.89
804.13	228.85
804.45	228.81
804.77	228.77
805.09	228.74
805.41	228.69
805.73	228.63
806.05	228.56
806.37	228.51
806.69	228.49
807.01	228.45
807.33	228.43
807.65	228.40
807.97	228.44
808.28	228.41
808.60	228.37
808.92	228.37
809.24	228.43
809.56	228.36
809.88	228.28
810.20	228.28
810.52	228.29
810.84	228.24
811.16	228.21
811.48	228.20
811.80	228.19
812.12	228.21
812.43	228.20
812.75	228.20
813.07	228.14
813.39	228.11
813.71	228.06
814.03	228.07
814.35	228.03
814.67	227.95
814.98	227.91
815.30	227.87
815.62	227.85
815.94	227.73
816.26	227.79
816.58	227.79
816.89	227.78
817.21	227.74
817.53	227.74
817.85	227.71
818.17	227.71
818.48	227.66
818.80	227.65
819.12	227.62
819.44	227.59
819.76	227.59
820.07	227.58
820.39	227.57
820.71	227.56
821.03	227.58
821.34	227.59
821.66	227.62
821.98	227.63
822.30	227.62
822.61	227.71
822.93	227.63
823.25	227.62
823.57	227.61
823.88	227.63
824.20	227.60
824.52	227.63
824.83	227.61
825.15	227.56
825.47	227.52
825.79	227.54
826.10	227.49
826.42	227.48
826.74	227.47
827.05	227.47
827.37	227.45
827.69	227.43
828.00	227.44
828.32	227.42
828.64	227.37
828.95	227.40
829.27	227.35
829.58	227.35
829.90	227.34
830.22	227.34
830.53	227.29
830.85	227.27
831.17	227.22
831.48	227.20
831.80	227.20
832.11	227.19
832.43	227.15
832.75	227.20
833.06	227.27
833.38	227.24
833.69	227.23
834.01	227.22
834.32	227.21
834.64	227.17
834.96	227.13
835.27	227.15
835.59	227.13
835.90	227.11
836.22	227.11
836.53	227.09
836.85	227.03
837.16	227.13
837.48	227.14
837.79	227.16
838.11	227.15
838.42	227.15
838.74	227.13
839.05	227.14
839.37	227.08
839.68	227.01
840.00	227.00
840.31	226.99
840.63	226.96
840.94	226.91
841.26	226.92
841.57	226.91
841.88	226.90
842.20	226.86
842.51	226.86
842.83	226.82
843.14	226.91
843.46	226.92
843.77	226.82
844.08	226.81
844.40	226.78
844.71	226.78
845.03	226.77
845.34	226.75
845.65	226.73
845.97	226.72
846.28	226.68
846.60	226.68
846.91	226.67
847.22	226.66
847.54	226.71
847.85	226.69
848.16	226.71
848.48	226.69
848.79	226.77
849.10	226.75
849.42	226.75
849.73	226.63
850.04	226.66
850.36	226.65
850.67	226.64
850.98	226.64
851.30	226.66
851.61	226.68
851.92	226.71
852.23	226.73
852.55	226.74
852.86	226.79
853.17	226.80
853.49	226.82
853.80	226.86
854.11	226.84
854.42	226.85
854.74	226.82
855.05	226.83
855.36	226.74
855.67	226.76
855.99	226.78
856.30	226.90
856.61	226.87
856.92	226.85
857.23	226.87
857.55	226.87
857.86	226.85
858.17	226.86
858.48	226.86
858.79	226.83
859.11	226.85
859.42	226.82
859.73	226.79
860.04	226.78
860.35	226.75
860.66	226.71
860.98	226.70
861.29	226.73
861.60	226.72
861.91	226.75
862.22	226.72
862.53	226.70
862.84	226.59
863.16	226.61
863.47	226.63
863.78	226.61
864.09	226.63
864.40	226.61
864.71	226.62
865.02	226.62
865.33	226.64
865.64	226.59
865.95	226.60
866.27	226.66
866.58	226.64
866.89	226.64
867.20	226.64
867.51	226.60
867.82	226.56
868.13	226.57
868.44	226.56
868.75	226.56
869.06	226.58
869.37	226.58
869.68	226.53
869.99	226.52
870.30	226.51
870.61	226.49
870.92	226.45
871.23	226.42
871.54	226.40
871.85	226.39
872.16	226.41
872.47	226.37
872.78	226.34
873.09	226.38
873.40	226.35
873.71	226.37
874.02	226.37
874.33	226.39
874.64	226.35
874.95	226.34
875.26	226.34
875.56	226.32
875.87	226.33
876.18	226.32
876.49	226.40
876.80	226.37
877.11	226.36
877.42	226.40
877.73	226.37
878.04	226.38
878.35	226.38
878.66	226.35
878.96	226.36
879.27	226.33
879.58	226.28
879.89	226.29
880.20	226.28
880.51	226.27
880.82	226.26
881.12	226.28
881.43	226.26
881.74	226.22
882.05	226.20
882.36	226.19
882.67	226.21
882.97	226.10
883.28	226.10
883.59	226.08
883.90	226.09
884.21	226.11
884.51	226.08
884.82	226.07
885.13	226.06
885.44	226.07
885.74	226.08
886.05	226.07
886.36	226.04
886.67	226.00
886.98	226.06
887.28	226.06
887.59	226.06
887.90	226.04
888.20	226.08
888.51	226.12
888.82	226.12
889.13	226.15
889.43	226.26
889.74	226.28
890.05	226.30
890.35	226.30
890.66	226.31
890.97	226.36
891.28	226.36
891.58	226.37
891.89	226.37
892.20	226.34
892.50	226.34
892.81	226.37
893.12	226.37
893.42	226.35
893.73	226.35
894.04	226.35
894.34	226.40
894.65	226.42
894.95	226.37
895.26	226.39
895.57	226.42
895.87	226.31
896.18	226.34
896.48	226.31
896.79	226.31
897.10	226.35
897.40	226.30
897.71	226.31
898.01	226.31
898.32	226.34
898.63	226.37
898.93	226.37
899.24	226.39
899.54	226.40
899.85	226.36
900.15	226.35
900.46	226.37
900.76	226.35
901.07	226.32
901.38	226.36
901.68	226.37
901.99	226.33
902.29	226.33
902.60	226.30
902.90	226.30
903.21	226.28
903.51	226.21
903.82	226.28
904.12	226.27
904.43	226.28
904.73	226.27
905.03	226.25
905.34	226.35
905.64	226.34
905.95	226.31
906.25	226.35
906.56	226.36
906.86	226.35
907.17	226.35
907.47	226.34
907.77	226.33
908.08	226.24
908.38	226.23
908.69	226.25
908.99	226.24
909.30	226.26
909.60	226.30
909.90	226.32
910.21	226.25
910.51	226.23
910.81	226.20
911.12	226.17
911.42	226.19
911.73	226.10
912.03	226.10
912.33	226.14
912.64	226.11
912.94	226.08
913.24	226.05
913.55	226.01
913.85	225.99
914.15	226.00
914.46	226.04
914.76	226.03
915.06	226.02
915.37	226.00
915.67	225.96
915.97	225.93
916.27	225.91
916.58	225.92
916.88	225.91
917.18	225.89
917.49	225.95
917.79	225.94
918.09	225.94
918.39	225.96
918.70	225.95
919.00	225.97
919.30	226.02
919.60	225.99
919.91	225.98
920.21	226.04
920.51	226.00
920.81	225.97
921.12	225.99
921.42	225.95
921.72	225.97
922.02	225.97
922.32	225.96
922.63	225.92
922.93	225.94
923.23	225.95
923.53	225.96
923.83	225.89
924.13	225.88
924.44	225.87
924.74	225.85
925.04	225.87
925.34	225.85
925.64	225.83
925.94	225.85
926.24	225.91
926.55	225.87
926.85	225.89
927.15	225.92
927.45	225.89
927.75	225.94
928.05	225.92
928.35	225.94
928.65	225.95
928.95	226.00
929.26	225.99
929.56	226.03
929.86	226.04
930.16	226.04
930.46	226.04
930.76	226.04
931.06	226.03
931.36	226.02
931.66	226.02
931.96	226.03
932.26	226.08
932.56	226.04
932.86	226.04
933.16	226.09
933.46	226.08
933.76	226.09
934.06	226.12
934.36	226.20
934.66	226.20
934.96	226.21
935.26	226.19
935.56	226.22
935.86	226.20
936.16	226.20
936.46	226.19
936.76	226.21
937.06	226.20
937.36	226.21
937.66	226.22
937.96	226.25
938.26	226.22
938.56	226.19
938.86	226.20
939.16	226.20
939.46	226.18
939.76	226.19
940.06	226.19
940.35	226.16
940.65	226.07
940.95	226.08
941.25	226.06
941.55	226.08
941.85	226.05
942.15	226.08
942.45	226.12
942.75	226.14
943.04	226.16
943.34	226.16
943.64	226.17
943.94	226.13
944.24	226.10
944.54	226.12
944.84	226.09
945.13	226.09
945.43	226.10
945.73	226.12
946.03	226.11
946.33	226.10
946.62	226.07
946.92	226.11
947.22	226.11
947.52	226.11
947.82	226.11
948.11	226.11
948.41	226.07
948.71	226.05
949.01	226.04
949.31	226.01
949.60	226.02
949.90	226.00
950.20	226.00
950.50	226.01
950.79	226.00
951.09	226.04
951.39	226.06
951.69	226.04
951.98	226.03
952.28	226.03
952.58	226.03
952.87	226.06
953.17	226.07
953.47	226.02
953.76	226.01
954.06	226.00
954.36	226.01
954.66	226.01
954.95	226.02
955.25	226.01
955.55	225.99
955.84	225.97
956.14	225.98
956.44	225.98
956.73	225.96
957.03	225.96
957.32	225.95
957.62	225.91
957.92	225.91
958.21	225.93
958.51	226.01
958.81	226.03
959.10	226.02
959.40	226.04
959.69	226.08
959.99	226.08
960.29	226.04
960.58	226.02
960.88	226.04
961.17	226.02
961.47	226.02
961.76	226.04
962.06	226.05
962.36	226.03
962.65	226.04
962.95	226.01
963.24	225.99
963.54	225.99
963.83	226.00
964.13	225.99
964.42	225.94
964.72	225.90
965.01	225.86
965.31	225.85
965.60	225.80
965.90	225.85
966.19	225.85
966.49	225.87
966.78	225.87
967.08	225.86
967.37	225.86
967.67	225.87
967.96	225.86
968.26	225.86
968.55	225.84
968.85	225.83
969.14	225.87
969.43	225.87
969.73	225.85
970.02	225.82
970.32	225.83
970.61	225.83
970.91	225.78
971.20	225.82
971.49	225.80
971.79	225.81
972.08	225.73
972.38	225.74
972.67	225.74
972.96	225.77
973.26	225.77
973.55	225.80
973.85	225.79
974.14	225.82
974.43	225.85
974.73	225.84
975.02	225.85
975.31	225.85
975.61	225.83
975.90	225.83
976.19	225.86
976.49	225.85
976.78	225.87
977.07	225.87
977.37	225.85
977.66	225.88
977.95	225.87
978.24	225.87
978.54	225.89
978.83	225.90
979.12	225.89
979.42	225.86
979.71	225.83
980.00	225.82
980.29	225.79
980.59	225.76
980.88	225.80
981.17	225.78
981.46	225.76
981.76	225.77
982.05	225.82
982.34	225.81
982.63	225.82
982.93	225.82
983.22	225.86
983.51	225.87
983.80	225.86
984.09	225.90
984.39	225.90
984.68	225.88
984.97	225.88
985.26	225.86
985.55	225.90
985.85	225.89
986.14	225.92
986.43	225.95
986.72	225.97
987.01	225.92
987.30	225.95
987.59	225.92
987.89	225.92
988.18	225.88
988.47	225.90
988.76	225.91
989.05	225.91
989.34	225.86
989.63	225.88
989.92	225.90
990.22	225.88
990.51	225.87
990.80	225.87
991.09	225.86
991.38	225.87
991.67	225.86
991.96	225.86
992.25	225.87
992.54	225.87
992.83	225.85
993.12	225.88
993.41	225.88
993.70	225.97
993.99	226.03
994.28	226.05
994.58	226.06
994.87	226.03
995.16	226.04
995.45	226.07
995.74	226.07
996.03	226.09
996.32	226.11
996.61	226.13
996.90	226.13
997.19	226.14
997.48	226.15
997.77	226.14
998.06	226.16
998.34	226.15
998.63	226.15
998.92	226.17
999.21	226.18
999.50	226.21
999.79	226.15
1000.08	226.12
1000.37	226.11
1000.66	226.12
1000.95	226.12
1001.24	226.10
1001.53	226.10
1001.82	226.05
1002.11	226.02
1002.40	226.00
1002.68	226.03
1002.97	226.11
1003.26	226.08
1003.55	226.08
1003.84	226.06
1004.13	226.08
1004.42	226.09
1004.71	226.08
1004.99	226.06
1005.28	226.06
1005.57	226.06
1005.86	226.05
1006.15	226.08
1006.44	226.07
1006.72	226.06
1007.01	226.07
1007.30	226.09
1007.59	226.08
1007.88	226.11
1008.17	226.10
1008.45	226.09
1008.74	226.04
1009.03	225.99
1009.32	226.01
1009.60	225.97
1009.89	225.99
1010.18	225.96
1010.47	225.93
1010.76	225.92
1011.04	225.92
1011.33	225.94
1011.62	225.94
1011.91	225.95
1012.19	225.94
1012.48	225.93
1012.77	225.93
1013.05	226.00
1013.34	225.98
1013.63	225.98
1013.92	225.98
1014.20	225.98
1014.49	225.98
1014.78	225.98
1015.06	225.98
1015.35	225.98
1015.64	225.98
1015.92	225.98
1016.21	225.97
1016.50	225.96
1016.78	225.98
1017.07	225.98
1017.36	225.95
1017.64	225.90
1017.93	225.90
1018.22	225.87
1018.50	225.87
1018.79	225.85
1019.08	225.76
1019.36	225.78
1019.65	225.77
1019.93	225.76
1020.22	225.81
1020.51	225.84
1020.79	225.84
1021.08	225.60
1021.36	225.90
1021.65	225.64
1021.94	225.21
1022.22	225.93
1022.51	225.95
1022.79	225.87
1023.08	226.51
1023.36	226.75
1023.65	225.86
>>>>>End Processed Spectral Data<<<<<
