SpectraSuite Data File
++++++++++++++++++++++++++++++++++++
Date: Fri Feb 01 16:31:50 EST 2013
User: group
Dark Spectrum Present: No
Reference Spectrum Present: No
Number of Sampled Component Spectra: 1
Spectrometers: USB2E7196
Integration Time (usec): 35000 (USB2E7196)
Spectra Averaged: 100 (USB2E7196)
Boxcar Smoothing: 10 (USB2E7196)
Correct for Electrical Dark: No (USB2E7196)
Strobe/Lamp Enabled: No (USB2E7196)
Correct for Detector Non-linearity: No (USB2E7196)
Correct for Stray Light: No (USB2E7196)
Number of Pixels in Processed Spectrum: 2048
>>>>>Begin Processed Spectral Data<<<<<
339.09	0.00
339.48	213.95
339.86	215.41
340.24	217.33
340.63	218.55
341.01	220.64
341.39	221.01
341.78	221.98
342.16	223.61
342.54	224.32
342.93	212.42
343.31	223.14
343.69	223.69
344.07	224.12
344.46	224.51
344.84	224.88
345.22	225.08
345.60	225.31
345.99	225.52
346.37	225.63
346.75	225.71
347.13	225.78
347.52	225.87
347.90	225.96
348.28	225.96
348.66	226.02
349.05	225.97
349.43	226.04
349.81	226.02
350.19	226.04
350.57	226.12
350.96	226.18
351.34	226.25
351.72	226.31
352.10	226.45
352.48	226.54
352.87	226.58
353.25	226.70
353.63	226.78
354.01	226.82
354.39	226.90
354.77	227.01
355.15	227.08
355.54	227.12
355.92	227.17
356.30	227.24
356.68	227.35
357.06	227.48
357.44	227.51
357.82	227.65
358.20	227.74
358.58	227.80
358.97	227.84
359.35	227.95
359.73	228.03
360.11	228.09
360.49	228.13
360.87	228.19
361.25	228.25
361.63	228.31
362.01	228.38
362.39	228.42
362.77	228.45
363.15	228.48
363.53	228.54
363.91	228.56
364.29	228.60
364.67	228.56
365.05	228.54
365.43	228.56
365.81	228.55
366.19	228.59
366.57	228.65
366.95	228.62
367.33	228.59
367.71	228.60
368.09	228.60
368.47	228.61
368.85	228.61
369.23	228.60
369.61	228.57
369.99	228.56
370.37	228.54
370.75	228.54
371.13	228.50
371.51	228.43
371.89	228.38
372.27	228.34
372.65	228.31
373.03	228.27
373.41	228.20
373.78	228.15
374.16	228.03
374.54	227.91
374.92	227.88
375.30	227.83
375.68	227.76
376.06	227.71
376.44	227.61
376.82	227.56
377.19	227.49
377.57	227.42
377.95	227.35
378.33	227.28
378.71	227.14
379.09	227.08
379.47	227.01
379.84	226.91
380.22	226.84
380.60	226.76
380.98	226.70
381.36	226.65
381.73	226.59
382.11	226.59
382.49	226.57
382.87	226.48
383.25	226.41
383.62	226.43
384.00	226.34
384.38	226.28
384.76	226.25
385.13	226.22
385.51	226.16
385.89	226.06
386.27	226.00
386.64	225.99
387.02	225.98
387.40	225.96
387.78	225.94
388.15	225.88
388.53	225.83
388.91	225.75
389.29	225.72
389.66	225.70
390.04	225.63
390.42	225.60
390.79	225.62
391.17	225.61
391.55	225.49
391.92	225.47
392.30	225.48
392.68	225.43
393.05	225.43
393.43	225.43
393.81	225.46
394.18	225.46
394.56	225.46
394.94	225.46
395.31	225.47
395.69	225.53
396.06	225.59
396.44	225.61
396.82	225.69
397.19	225.78
397.57	225.77
397.95	225.85
398.32	225.86
398.70	225.91
399.07	225.95
399.45	226.01
399.82	226.08
400.20	226.14
400.58	226.20
400.95	226.26
401.33	226.36
401.70	226.50
402.08	226.61
402.45	226.72
402.83	226.83
403.20	226.93
403.58	226.99
403.95	227.15
404.33	227.29
404.71	227.39
405.08	227.58
405.46	227.72
405.83	227.84
406.21	228.02
406.58	228.18
406.96	228.34
407.33	228.52
407.70	228.71
408.08	228.97
408.45	229.22
408.83	229.42
409.20	229.63
409.58	229.82
409.95	230.08
410.33	230.33
410.70	230.58
411.08	230.87
411.45	231.18
411.82	231.45
412.20	231.83
412.57	232.23
412.95	232.50
413.32	232.96
413.69	233.40
414.07	233.82
414.44	234.28
414.82	234.76
415.19	235.30
415.56	235.85
415.94	236.42
416.31	237.04
416.68	237.69
417.06	238.41
417.43	239.13
417.81	239.89
418.18	240.68
418.55	241.54
418.93	242.42
419.30	243.35
419.67	244.25
420.04	245.20
420.42	246.20
420.79	247.40
421.16	248.50
421.54	249.67
421.91	250.85
422.28	252.08
422.66	253.43
423.03	254.75
423.40	256.09
423.77	257.46
424.15	258.85
424.52	260.34
424.89	261.93
425.26	263.40
425.64	264.87
426.01	266.41
426.38	268.04
426.75	269.67
427.13	271.35
427.50	273.16
427.87	275.06
428.24	276.89
428.61	278.63
428.99	280.54
429.36	282.63
429.73	284.70
430.10	286.72
430.47	288.72
430.85	290.83
431.22	293.04
431.59	295.41
431.96	297.63
432.33	300.07
432.70	302.44
433.08	305.24
433.45	307.86
433.82	310.44
434.19	313.30
434.56	316.13
434.93	318.82
435.30	321.44
435.68	324.28
436.05	327.12
436.42	329.85
436.79	332.34
437.16	335.03
437.53	337.88
437.90	340.63
438.27	343.35
438.64	346.12
439.01	348.71
439.38	350.93
439.75	353.12
440.13	355.64
440.50	357.98
440.87	359.84
441.24	361.71
441.61	363.89
441.98	365.33
442.35	367.11
442.72	368.95
443.09	370.71
443.46	371.69
443.83	372.27
444.20	372.78
444.57	373.63
444.94	373.88
445.31	374.20
445.68	374.62
446.05	374.73
446.42	374.39
446.79	373.99
447.16	373.55
447.53	373.26
447.90	372.05
448.27	370.83
448.64	369.27
449.01	368.13
449.37	366.16
449.74	364.30
450.11	362.05
450.48	359.54
450.85	357.07
451.22	354.94
451.59	352.93
451.96	351.02
452.33	348.43
452.70	346.09
453.07	343.28
453.43	340.38
453.80	337.62
454.17	334.97
454.54	332.43
454.91	329.73
455.28	327.07
455.65	324.66
456.02	322.25
456.38	320.09
456.75	317.51
457.12	315.28
457.49	313.10
457.86	310.99
458.23	309.17
458.59	307.12
458.96	305.04
459.33	303.21
459.70	301.38
460.07	299.89
460.43	298.22
460.80	296.65
461.17	295.20
461.54	293.71
461.91	292.26
462.27	290.82
462.64	289.57
463.01	288.22
463.38	286.88
463.74	285.52
464.11	284.39
464.48	283.35
464.85	282.22
465.21	281.37
465.58	280.42
465.95	279.32
466.32	278.46
466.68	277.59
467.05	276.71
467.42	275.79
467.78	274.89
468.15	274.02
468.52	273.36
468.88	272.53
469.25	271.80
469.62	271.17
469.98	270.51
470.35	269.88
470.72	269.26
471.08	268.61
471.45	268.08
471.82	267.54
472.18	266.93
472.55	266.50
472.92	265.97
473.28	265.54
473.65	265.12
474.02	264.65
474.38	264.29
474.75	263.94
475.11	263.60
475.48	263.30
475.85	263.06
476.21	262.82
476.58	262.66
476.94	262.47
477.31	262.35
477.67	262.23
478.04	262.15
478.41	262.12
478.77	262.19
479.14	262.16
479.50	262.21
479.87	262.28
480.23	262.41
480.60	262.48
480.96	262.60
481.33	262.80
481.69	262.99
482.06	263.19
482.42	263.39
482.79	263.69
483.15	264.05
483.52	264.42
483.88	264.79
484.25	265.13
484.61	265.61
484.98	266.06
485.34	266.61
485.71	267.19
486.07	267.79
486.44	268.35
486.80	269.00
487.17	269.70
487.53	270.50
487.90	271.36
488.26	272.32
488.62	273.28
488.99	274.23
489.35	275.26
489.72	276.41
490.08	277.63
490.44	278.86
490.81	280.21
491.17	281.57
491.54	283.02
491.90	284.61
492.26	286.26
492.63	287.96
492.99	289.77
493.36	291.68
493.72	293.73
494.08	295.84
494.45	298.15
494.81	300.58
495.17	303.04
495.54	305.60
495.90	308.28
496.26	311.06
496.63	314.07
496.99	317.20
497.35	320.45
497.72	323.90
498.08	327.43
498.44	331.07
498.80	334.99
499.17	339.03
499.53	343.19
499.89	347.57
500.26	352.05
500.62	356.72
500.98	361.66
501.34	366.74
501.71	372.03
502.07	377.45
502.43	383.01
502.79	388.84
503.16	394.95
503.52	401.19
503.88	407.64
504.24	414.22
504.60	421.09
504.97	428.22
505.33	435.53
505.69	443.26
506.05	451.05
506.41	458.89
506.78	467.13
507.14	475.56
507.50	484.29
507.86	493.31
508.22	502.49
508.59	511.73
508.95	521.37
509.31	531.18
509.67	541.32
510.03	551.61
510.39	562.18
510.75	572.96
511.12	583.89
511.48	595.13
511.84	606.64
512.20	618.16
512.56	630.11
512.92	642.30
513.28	654.59
513.64	667.12
514.00	679.85
514.37	692.67
514.73	705.71
515.09	718.73
515.45	732.03
515.81	745.61
516.17	759.57
516.53	773.64
516.89	787.84
517.25	801.91
517.61	816.29
517.97	830.75
518.33	845.06
518.69	859.87
519.05	874.84
519.41	889.99
519.77	905.47
520.13	920.88
520.49	936.19
520.85	951.55
521.21	967.22
521.57	983.46
521.93	999.18
522.29	1015.48
522.65	1031.68
523.01	1047.80
523.37	1063.72
523.73	1079.79
524.09	1095.78
524.45	1112.03
524.81	1128.56
525.17	1145.21
525.53	1162.03
525.89	1178.91
526.25	1195.68
526.61	1212.04
526.97	1228.63
527.33	1245.11
527.68	1261.57
528.04	1277.92
528.40	1294.33
528.76	1311.21
529.12	1327.65
529.48	1344.46
529.84	1360.31
530.20	1376.82
530.56	1393.76
530.91	1411.12
531.27	1427.67
531.63	1444.01
531.99	1460.49
532.35	1476.34
532.71	1492.35
533.07	1508.42
533.42	1524.17
533.78	1540.06
534.14	1556.21
534.50	1571.54
534.86	1587.29
535.21	1602.35
535.57	1618.14
535.93	1633.70
536.29	1648.50
536.65	1663.41
537.00	1677.90
537.36	1693.29
537.72	1707.66
538.08	1722.03
538.44	1735.61
538.79	1749.55
539.15	1763.11
539.51	1776.76
539.87	1791.22
540.22	1804.79
540.58	1818.51
540.94	1831.79
541.29	1844.58
541.65	1857.10
542.01	1870.15
542.37	1882.40
542.72	1894.64
543.08	1906.38
543.44	1918.53
543.79	1929.59
544.15	1940.49
544.51	1952.08
544.87	1962.96
545.22	1973.81
545.58	1983.86
545.94	1993.71
546.29	2003.38
546.65	2013.30
547.01	2022.44
547.36	2030.94
547.72	2039.29
548.07	2047.13
548.43	2055.08
548.79	2063.11
549.14	2070.60
549.50	2077.85
549.86	2085.43
550.21	2092.75
550.57	2099.92
550.92	2106.39
551.28	2113.44
551.64	2120.49
551.99	2126.96
552.35	2133.07
552.70	2139.12
553.06	2145.14
553.41	2151.57
553.77	2157.62
554.13	2163.76
554.48	2169.88
554.84	2175.43
555.19	2180.66
555.55	2185.78
555.90	2190.36
556.26	2195.05
556.61	2199.74
556.97	2204.02
557.32	2208.05
557.68	2212.24
558.03	2216.32
558.39	2220.18
558.74	2224.78
559.10	2228.62
559.45	2232.29
559.81	2236.42
560.16	2240.25
560.52	2243.46
560.87	2246.68
561.23	2249.44
561.58	2252.24
561.94	2254.83
562.29	2257.08
562.64	2259.83
563.00	2262.35
563.35	2265.78
563.71	2269.07
564.06	2272.40
564.42	2275.30
564.77	2277.92
565.12	2280.21
565.48	2282.38
565.83	2284.28
566.19	2285.53
566.54	2286.43
566.89	2287.73
567.25	2288.41
567.60	2289.76
567.96	2291.44
568.31	2292.39
568.66	2293.50
569.02	2294.03
569.37	2294.38
569.72	2295.37
570.08	2295.65
570.43	2295.86
570.78	2295.41
571.14	2293.78
571.49	2292.42
571.84	2292.09
572.20	2291.10
572.55	2290.20
572.90	2288.58
573.26	2287.42
573.61	2285.90
573.96	2284.33
574.31	2281.47
574.67	2278.58
575.02	2275.07
575.37	2271.80
575.72	2268.11
576.08	2264.77
576.43	2261.66
576.78	2258.00
577.13	2254.78
577.49	2251.69
577.84	2248.18
578.19	2244.54
578.54	2241.14
578.90	2237.15
579.25	2231.79
579.60	2226.81
579.95	2221.88
580.30	2216.86
580.66	2211.61
581.01	2206.73
581.36	2201.91
581.71	2197.70
582.06	2193.34
582.42	2188.92
582.77	2183.86
583.12	2179.32
583.47	2174.69
583.82	2169.64
584.17	2164.65
584.53	2159.19
584.88	2153.65
585.23	2147.85
585.58	2142.44
585.93	2136.92
586.28	2132.08
586.63	2127.00
586.98	2122.12
587.34	2117.42
587.69	2112.72
588.04	2107.51
588.39	2101.91
588.74	2095.41
589.09	2089.40
589.44	2082.63
589.79	2076.62
590.14	2070.98
590.49	2064.55
590.84	2058.23
591.19	2052.36
591.54	2045.86
591.89	2038.63
592.25	2031.85
592.60	2024.72
592.95	2017.25
593.30	2009.99
593.65	2002.48
594.00	1995.56
594.35	1988.29
594.70	1980.31
595.05	1973.15
595.40	1965.94
595.75	1958.41
596.10	1952.35
596.45	1945.70
596.80	1939.68
597.15	1933.14
597.50	1926.12
597.85	1919.65
598.19	1912.96
598.54	1905.66
598.89	1899.10
599.24	1893.28
599.59	1886.64
599.94	1880.58
600.29	1874.24
600.64	1867.68
600.99	1860.22
601.34	1853.38
601.69	1846.50
602.04	1839.62
602.39	1832.31
602.74	1825.55
603.08	1818.88
603.43	1812.10
603.78	1804.77
604.13	1797.58
604.48	1790.30
604.83	1783.40
605.18	1776.49
605.53	1768.58
605.87	1760.77
606.22	1753.54
606.57	1745.61
606.92	1738.18
607.27	1731.00
607.62	1724.06
607.96	1716.92
608.31	1710.44
608.66	1702.81
609.01	1695.21
609.36	1687.66
609.70	1679.67
610.05	1671.54
610.40	1663.85
610.75	1655.53
611.10	1647.88
611.44	1639.43
611.79	1631.47
612.14	1622.73
612.49	1613.58
612.83	1605.19
613.18	1597.09
613.53	1588.97
613.88	1580.38
614.22	1572.25
614.57	1563.66
614.92	1555.53
615.27	1547.91
615.61	1539.49
615.96	1531.50
616.31	1523.83
616.65	1516.47
617.00	1508.96
617.35	1501.35
617.70	1493.02
618.04	1484.53
618.39	1476.30
618.74	1468.66
619.08	1460.40
619.43	1452.93
619.78	1445.93
620.12	1438.73
620.47	1431.23
620.82	1423.08
621.16	1415.75
621.51	1408.15
621.85	1400.55
622.20	1392.14
622.55	1383.84
622.89	1375.99
623.24	1368.27
623.59	1360.91
623.93	1353.45
624.28	1346.16
624.62	1338.61
624.97	1331.48
625.32	1324.70
625.66	1317.71
626.01	1310.65
626.35	1303.10
626.70	1295.32
627.04	1287.62
627.39	1279.81
627.73	1272.46
628.08	1265.52
628.43	1258.19
628.77	1250.70
629.12	1243.12
629.46	1235.97
629.81	1228.41
630.15	1221.26
630.50	1213.99
630.84	1205.84
631.19	1197.90
631.53	1190.46
631.88	1182.95
632.22	1175.35
632.57	1168.02
632.91	1160.40
633.26	1152.95
633.60	1145.74
633.95	1138.58
634.29	1131.63
634.64	1124.99
634.98	1117.58
635.32	1110.39
635.67	1103.72
636.01	1097.18
636.36	1090.42
636.70	1083.88
637.05	1077.42
637.39	1070.87
637.73	1064.31
638.08	1058.37
638.42	1052.35
638.77	1045.93
639.11	1039.22
639.45	1032.73
639.80	1026.11
640.14	1019.72
640.49	1013.10
640.83	1006.66
641.17	1000.46
641.52	994.03
641.86	987.56
642.20	981.61
642.55	975.25
642.89	968.81
643.23	962.27
643.58	956.39
643.92	950.24
644.26	944.16
644.61	938.14
644.95	932.10
645.29	925.43
645.64	918.69
645.98	912.27
646.32	906.51
646.66	900.52
647.01	894.77
647.35	889.01
647.69	883.31
648.04	877.74
648.38	871.93
648.72	865.99
649.06	859.99
649.41	854.23
649.75	848.27
650.09	842.42
650.43	836.65
650.78	830.54
651.12	824.59
651.46	818.89
651.80	813.14
652.14	807.76
652.49	802.48
652.83	797.24
653.17	791.54
653.51	785.81
653.85	780.41
654.20	774.71
654.54	768.77
654.88	762.92
655.22	757.04
655.56	751.39
655.90	745.91
656.25	740.66
656.59	735.26
656.93	730.19
657.27	725.02
657.61	719.50
657.95	714.43
658.29	709.32
658.64	704.00
658.98	698.67
659.32	693.26
659.66	688.03
660.00	682.80
660.34	677.87
660.68	672.91
661.02	667.91
661.36	663.24
661.70	658.66
662.05	654.37
662.39	650.06
662.73	645.60
663.07	641.24
663.41	636.82
663.75	632.27
664.09	627.76
664.43	623.37
664.77	619.28
665.11	615.00
665.45	610.90
665.79	606.87
666.13	602.76
666.47	598.67
666.81	594.54
667.15	590.45
667.49	586.52
667.83	582.71
668.17	578.77
668.51	574.66
668.85	570.67
669.19	566.80
669.53	562.97
669.87	559.00
670.21	555.29
670.55	551.62
670.89	548.21
671.23	544.77
671.57	541.20
671.91	537.63
672.25	534.17
672.58	530.67
672.92	527.22
673.26	524.07
673.60	520.85
673.94	517.72
674.28	514.81
674.62	511.87
674.96	508.79
675.30	505.85
675.64	502.93
675.97	500.11
676.31	497.22
676.65	494.25
676.99	491.57
677.33	488.67
677.67	485.85
678.01	482.82
678.34	479.82
678.68	476.96
679.02	474.14
679.36	471.32
679.70	468.54
680.04	465.80
680.37	462.90
680.71	460.11
681.05	457.43
681.39	454.64
681.73	451.96
682.06	449.41
682.40	446.90
682.74	444.35
683.08	441.82
683.42	439.20
683.75	436.73
684.09	434.17
684.43	431.69
684.77	429.20
685.10	426.81
685.44	424.47
685.78	422.11
686.12	419.81
686.45	417.53
686.79	415.22
687.13	413.02
687.46	410.83
687.80	408.68
688.14	406.51
688.48	404.51
688.81	402.26
689.15	400.09
689.49	397.89
689.82	395.80
690.16	393.69
690.50	391.75
690.83	389.79
691.17	387.81
691.51	385.92
691.84	384.12
692.18	382.17
692.52	380.19
692.85	378.32
693.19	376.49
693.52	374.65
693.86	372.84
694.20	371.07
694.53	369.31
694.87	367.43
695.21	365.65
695.54	363.81
695.88	362.11
696.21	360.38
696.55	358.73
696.88	357.06
697.22	355.39
697.56	353.78
697.89	352.16
698.23	350.55
698.56	348.92
698.90	347.31
699.23	345.69
699.57	344.17
699.90	342.60
700.24	341.08
700.58	339.58
700.91	338.09
701.25	336.63
701.58	335.26
701.92	333.93
702.25	332.52
702.59	331.17
702.92	329.82
703.26	328.58
703.59	327.30
703.93	326.15
704.26	324.93
704.60	323.62
704.93	322.36
705.26	321.11
705.60	319.95
705.93	318.77
706.27	317.75
706.60	316.74
706.94	315.68
707.27	314.55
707.61	313.48
707.94	312.45
708.27	311.36
708.61	310.26
708.94	309.26
709.28	308.34
709.61	307.39
709.94	306.45
710.28	305.39
710.61	304.43
710.95	303.34
711.28	302.44
711.61	301.49
711.95	300.57
712.28	299.60
712.61	298.63
712.95	297.74
713.28	296.84
713.61	295.89
713.95	294.97
714.28	294.12
714.61	293.24
714.95	292.39
715.28	291.52
715.61	290.67
715.95	289.78
716.28	288.89
716.61	287.98
716.95	287.14
717.28	286.36
717.61	285.56
717.94	284.79
718.28	283.96
718.61	283.25
718.94	282.56
719.27	281.94
719.61	281.26
719.94	280.58
720.27	279.84
720.60	279.16
720.94	278.54
721.27	277.93
721.60	277.34
721.93	276.70
722.27	276.14
722.60	275.56
722.93	275.00
723.26	274.47
723.59	273.92
723.93	273.38
724.26	272.81
724.59	272.23
724.92	271.74
725.25	271.20
725.59	270.63
725.92	270.10
726.25	269.53
726.58	269.06
726.91	268.56
727.24	268.08
727.57	267.61
727.91	267.07
728.24	266.59
728.57	266.12
728.90	265.71
729.23	265.23
729.56	264.80
729.89	264.30
730.22	263.81
730.55	263.35
730.89	262.92
731.22	262.50
731.55	262.08
731.88	261.62
732.21	261.18
732.54	260.76
732.87	260.33
733.20	259.97
733.53	259.56
733.86	259.16
734.19	258.77
734.52	258.42
734.85	258.13
735.18	257.74
735.51	257.34
735.84	256.96
736.17	256.62
736.50	256.22
736.83	256.02
737.16	255.67
737.49	255.35
737.82	254.96
738.15	254.61
738.48	254.28
738.81	253.98
739.14	253.67
739.47	253.33
739.80	253.06
740.13	252.71
740.46	252.39
740.79	252.10
741.12	251.79
741.45	251.47
741.78	251.14
742.11	250.86
742.44	250.56
742.77	250.29
743.10	249.99
743.43	249.69
743.75	249.31
744.08	249.16
744.41	248.90
744.74	248.69
745.07	248.41
745.40	248.19
745.73	247.97
746.06	247.70
746.39	247.45
746.71	247.14
747.04	246.89
747.37	246.66
747.70	246.38
748.03	246.12
748.36	245.90
748.68	245.65
749.01	245.40
749.34	245.20
749.67	244.97
750.00	244.74
750.33	244.57
750.65	244.36
750.98	244.03
751.31	243.83
751.64	243.60
751.97	243.47
752.29	243.22
752.62	242.94
752.95	242.74
753.28	242.56
753.60	242.37
753.93	242.25
754.26	242.05
754.59	241.82
754.91	241.64
755.24	241.44
755.57	241.27
755.90	241.08
756.22	240.87
756.55	240.64
756.88	240.45
757.20	240.22
757.53	240.05
757.86	239.88
758.19	239.70
758.51	239.53
758.84	239.30
759.17	239.15
759.49	239.00
759.82	238.88
760.15	238.73
760.47	238.58
760.80	238.38
761.13	238.22
761.45	238.09
761.78	237.95
762.11	237.80
762.43	237.64
762.76	237.50
763.08	237.38
763.41	237.29
763.74	237.14
764.06	236.98
764.39	236.83
764.71	236.66
765.04	236.53
765.37	236.35
765.69	236.22
766.02	236.06
766.34	235.93
766.67	235.77
767.00	235.65
767.32	235.58
767.65	235.53
767.97	235.40
768.30	235.29
768.62	235.15
768.95	235.01
769.27	234.87
769.60	234.76
769.92	234.66
770.25	234.48
770.57	234.38
770.90	234.30
771.22	234.19
771.55	234.09
771.87	234.00
772.20	233.92
772.52	233.91
772.85	233.96
773.17	233.88
773.50	233.79
773.82	233.68
774.15	233.54
774.47	233.36
774.80	233.26
775.12	233.17
775.45	233.11
775.77	233.04
776.09	232.95
776.42	232.88
776.74	232.79
777.07	232.75
777.39	232.69
777.72	232.60
778.04	232.56
778.36	232.52
778.69	232.43
779.01	232.38
779.33	232.23
779.66	232.06
779.98	231.96
780.31	231.89
780.63	231.87
780.95	231.81
781.28	231.76
781.60	231.69
781.92	231.63
782.25	231.56
782.57	231.52
782.89	231.48
783.22	231.43
783.54	231.34
783.86	231.30
784.19	231.24
784.51	231.22
784.83	231.15
785.16	231.08
785.48	231.04
785.80	230.99
786.12	230.96
786.45	230.91
786.77	230.89
787.09	230.85
787.42	230.81
787.74	230.75
788.06	230.73
788.38	230.73
788.71	230.70
789.03	230.66
789.35	230.64
789.67	230.60
789.99	230.56
790.32	230.54
790.64	230.46
790.96	230.50
791.28	230.44
791.61	230.40
791.93	230.35
792.25	230.33
792.57	230.36
792.89	230.28
793.21	230.26
793.54	230.21
793.86	230.18
794.18	230.11
794.50	230.08
794.82	230.04
795.14	230.00
795.47	229.99
795.79	229.97
796.11	229.92
796.43	229.88
796.75	229.88
797.07	229.83
797.39	229.84
797.71	229.71
798.04	229.67
798.36	229.64
798.68	229.61
799.00	229.58
799.32	229.52
799.64	229.50
799.96	229.47
800.28	229.47
800.60	229.41
800.92	229.38
801.24	229.35
801.56	229.31
801.89	229.25
802.21	229.23
802.53	229.19
802.85	229.18
803.17	229.21
803.49	229.14
803.81	229.09
804.13	229.04
804.45	229.01
804.77	228.95
805.09	228.93
805.41	228.90
805.73	228.83
806.05	228.75
806.37	228.73
806.69	228.70
807.01	228.69
807.33	228.70
807.65	228.67
807.97	228.66
808.28	228.63
808.60	228.61
808.92	228.56
809.24	228.55
809.56	228.49
809.88	228.41
810.20	228.36
810.52	228.37
810.84	228.31
811.16	228.28
811.48	228.26
811.80	228.29
812.12	228.27
812.43	228.24
812.75	228.20
813.07	228.19
813.39	228.16
813.71	228.10
814.03	228.04
814.35	228.01
814.67	227.95
814.98	227.94
815.30	227.92
815.62	227.86
815.94	227.80
816.26	227.82
816.58	227.77
816.89	227.80
817.21	227.76
817.53	227.73
817.85	227.73
818.17	227.73
818.48	227.67
818.80	227.68
819.12	227.66
819.44	227.65
819.76	227.61
820.07	227.60
820.39	227.56
820.71	227.56
821.03	227.55
821.34	227.54
821.66	227.55
821.98	227.55
822.30	227.58
822.61	227.65
822.93	227.61
823.25	227.59
823.57	227.55
823.88	227.55
824.20	227.56
824.52	227.58
824.83	227.57
825.15	227.54
825.47	227.53
825.79	227.54
826.10	227.53
826.42	227.53
826.74	227.51
827.05	227.55
827.37	227.56
827.69	227.57
828.00	227.57
828.32	227.55
828.64	227.52
828.95	227.55
829.27	227.49
829.58	227.47
829.90	227.51
830.22	227.53
830.53	227.51
830.85	227.52
831.17	227.49
831.48	227.47
831.80	227.48
832.11	227.45
832.43	227.44
832.75	227.44
833.06	227.46
833.38	227.44
833.69	227.44
834.01	227.42
834.32	227.39
834.64	227.37
834.96	227.35
835.27	227.32
835.59	227.24
835.90	227.23
836.22	227.24
836.53	227.21
836.85	227.20
837.16	227.28
837.48	227.26
837.79	227.28
838.11	227.27
838.42	227.27
838.74	227.28
839.05	227.25
839.37	227.25
839.68	227.24
840.00	227.20
840.31	227.18
840.63	227.15
840.94	227.11
841.26	227.09
841.57	227.11
841.88	227.12
842.20	227.15
842.51	227.09
842.83	227.06
843.14	227.10
843.46	227.09
843.77	227.03
844.08	227.02
844.40	226.98
844.71	226.96
845.03	226.93
845.34	226.88
845.65	226.87
845.97	226.84
846.28	226.80
846.60	226.79
846.91	226.76
847.22	226.76
847.54	226.81
847.85	226.79
848.16	226.74
848.48	226.74
848.79	226.74
849.10	226.79
849.42	226.79
849.73	226.70
850.04	226.66
850.36	226.62
850.67	226.64
850.98	226.60
851.30	226.59
851.61	226.60
851.92	226.61
852.23	226.63
852.55	226.62
852.86	226.61
853.17	226.62
853.49	226.62
853.80	226.62
854.11	226.62
854.42	226.64
854.74	226.62
855.05	226.59
855.36	226.54
855.67	226.48
855.99	226.46
856.30	226.54
856.61	226.53
856.92	226.54
857.23	226.52
857.55	226.52
857.86	226.51
858.17	226.52
858.48	226.50
858.79	226.45
859.11	226.47
859.42	226.47
859.73	226.46
860.04	226.45
860.35	226.43
860.66	226.40
860.98	226.39
861.29	226.42
861.60	226.40
861.91	226.41
862.22	226.42
862.53	226.42
862.84	226.33
863.16	226.34
863.47	226.28
863.78	226.25
864.09	226.24
864.40	226.25
864.71	226.24
865.02	226.25
865.33	226.28
865.64	226.22
865.95	226.23
866.27	226.29
866.58	226.28
866.89	226.29
867.20	226.27
867.51	226.27
867.82	226.25
868.13	226.29
868.44	226.30
868.75	226.33
869.06	226.35
869.37	226.36
869.68	226.36
869.99	226.38
870.30	226.40
870.61	226.43
870.92	226.43
871.23	226.41
871.54	226.43
871.85	226.47
872.16	226.50
872.47	226.47
872.78	226.44
873.09	226.47
873.40	226.48
873.71	226.49
874.02	226.47
874.33	226.46
874.64	226.45
874.95	226.44
875.26	226.43
875.56	226.43
875.87	226.46
876.18	226.45
876.49	226.56
876.80	226.56
877.11	226.55
877.42	226.57
877.73	226.57
878.04	226.55
878.35	226.54
878.66	226.53
878.96	226.57
879.27	226.56
879.58	226.54
879.89	226.51
880.20	226.51
880.51	226.53
880.82	226.55
881.12	226.51
881.43	226.50
881.74	226.48
882.05	226.49
882.36	226.48
882.67	226.53
882.97	226.43
883.28	226.42
883.59	226.42
883.90	226.39
884.21	226.43
884.51	226.45
884.82	226.44
885.13	226.44
885.44	226.43
885.74	226.42
886.05	226.45
886.36	226.48
886.67	226.46
886.98	226.50
887.28	226.51
887.59	226.51
887.90	226.47
888.20	226.47
888.51	226.46
888.82	226.43
889.13	226.38
889.43	226.47
889.74	226.46
890.05	226.42
890.35	226.42
890.66	226.36
890.97	226.34
891.28	226.32
891.58	226.30
891.89	226.28
892.20	226.23
892.50	226.18
892.81	226.14
893.12	226.15
893.42	226.08
893.73	226.07
894.04	226.09
894.34	226.17
894.65	226.13
894.95	226.10
895.26	226.07
895.57	226.13
895.87	226.02
896.18	226.03
896.48	226.05
896.79	226.05
897.10	226.07
897.40	226.05
897.71	226.04
898.01	226.04
898.32	226.05
898.63	226.08
898.93	226.11
899.24	226.13
899.54	226.12
899.85	226.11
900.15	226.10
900.46	226.10
900.76	226.07
901.07	226.07
901.38	226.09
901.68	226.13
901.99	226.06
902.29	226.07
902.60	226.05
902.90	226.04
903.21	226.07
903.51	226.05
903.82	226.06
904.12	226.06
904.43	226.08
904.73	226.13
905.03	226.12
905.34	226.18
905.64	226.17
905.95	226.15
906.25	226.16
906.56	226.15
906.86	226.14
907.17	226.15
907.47	226.18
907.77	226.19
908.08	226.19
908.38	226.20
908.69	226.16
908.99	226.21
909.30	226.24
909.60	226.22
909.90	226.23
910.21	226.20
910.51	226.19
910.81	226.17
911.12	226.14
911.42	226.15
911.73	226.07
912.03	226.10
912.33	226.13
912.64	226.15
912.94	226.18
913.24	226.18
913.55	226.16
913.85	226.15
914.15	226.17
914.46	226.15
914.76	226.12
915.06	226.18
915.37	226.13
915.67	226.10
915.97	226.09
916.27	226.07
916.58	226.12
916.88	226.11
917.18	226.14
917.49	226.20
917.79	226.22
918.09	226.26
918.39	226.24
918.70	226.25
919.00	226.25
919.30	226.28
919.60	226.26
919.91	226.26
920.21	226.27
920.51	226.25
920.81	226.28
921.12	226.30
921.42	226.27
921.72	226.31
922.02	226.33
922.32	226.34
922.63	226.32
922.93	226.34
923.23	226.38
923.53	226.34
923.83	226.28
924.13	226.26
924.44	226.25
924.74	226.29
925.04	226.29
925.34	226.26
925.64	226.23
925.94	226.22
926.24	226.28
926.55	226.25
926.85	226.25
927.15	226.24
927.45	226.27
927.75	226.27
928.05	226.28
928.35	226.27
928.65	226.30
928.95	226.30
929.26	226.26
929.56	226.26
929.86	226.25
930.16	226.24
930.46	226.26
930.76	226.27
931.06	226.21
931.36	226.21
931.66	226.23
931.96	226.20
932.26	226.21
932.56	226.16
932.86	226.17
933.16	226.16
933.46	226.14
933.76	226.13
934.06	226.16
934.36	226.16
934.66	226.17
934.96	226.15
935.26	226.20
935.56	226.21
935.86	226.19
936.16	226.18
936.46	226.14
936.76	226.10
937.06	226.05
937.36	226.06
937.66	226.05
937.96	226.03
938.26	226.03
938.56	226.04
938.86	226.03
939.16	226.03
939.46	226.01
939.76	226.02
940.06	225.98
940.35	225.94
940.65	225.90
940.95	225.90
941.25	225.85
941.55	225.82
941.85	225.81
942.15	225.82
942.45	225.85
942.75	225.86
943.04	225.88
943.34	225.89
943.64	225.87
943.94	225.86
944.24	225.86
944.54	225.85
944.84	225.85
945.13	225.83
945.43	225.84
945.73	225.83
946.03	225.82
946.33	225.83
946.62	225.85
946.92	225.82
947.22	225.80
947.52	225.80
947.82	225.81
948.11	225.82
948.41	225.81
948.71	225.78
949.01	225.79
949.31	225.80
949.60	225.77
949.90	225.78
950.20	225.78
950.50	225.78
950.79	225.78
951.09	225.80
951.39	225.80
951.69	225.80
951.98	225.83
952.28	225.84
952.58	225.86
952.87	225.87
953.17	225.88
953.47	225.90
953.76	225.92
954.06	225.91
954.36	225.85
954.66	225.87
954.95	225.90
955.25	225.92
955.55	225.92
955.84	225.94
956.14	225.94
956.44	225.96
956.73	225.94
957.03	225.96
957.32	225.94
957.62	225.91
957.92	225.91
958.21	225.91
958.51	226.01
958.81	226.01
959.10	226.01
959.40	226.06
959.69	226.05
959.99	226.09
960.29	226.08
960.58	226.13
960.88	226.17
961.17	226.14
961.47	226.14
961.76	226.15
962.06	226.15
962.36	226.15
962.65	226.14
962.95	226.17
963.24	226.15
963.54	226.18
963.83	226.23
964.13	226.23
964.42	226.21
964.72	226.13
965.01	226.11
965.31	226.07
965.60	226.02
965.90	226.07
966.19	226.01
966.49	226.05
966.78	226.03
967.08	225.98
967.37	225.99
967.67	225.97
967.96	225.98
968.26	226.01
968.55	226.03
968.85	226.02
969.14	225.98
969.43	225.96
969.73	225.93
970.02	225.92
970.32	225.92
970.61	225.92
970.91	225.94
971.20	225.93
971.49	225.93
971.79	225.94
972.08	225.90
972.38	225.94
972.67	225.93
972.96	225.93
973.26	225.92
973.55	225.95
973.85	225.95
974.14	225.99
974.43	225.97
974.73	225.92
975.02	225.92
975.31	225.94
975.61	225.97
975.90	225.97
976.19	225.95
976.49	225.97
976.78	225.99
977.07	225.95
977.37	225.99
977.66	226.02
977.95	226.03
978.24	226.00
978.54	226.01
978.83	225.99
979.12	225.99
979.42	225.98
979.71	225.94
980.00	225.93
980.29	225.89
980.59	225.88
980.88	225.90
981.17	225.91
981.46	225.90
981.76	225.90
982.05	225.96
982.34	225.96
982.63	225.94
982.93	225.94
983.22	225.98
983.51	225.98
983.80	225.98
984.09	225.98
984.39	225.98
984.68	225.96
984.97	225.98
985.26	225.99
985.55	226.02
985.85	226.01
986.14	226.05
986.43	226.05
986.72	226.04
987.01	226.05
987.30	226.04
987.59	226.04
987.89	226.03
988.18	225.99
988.47	226.01
988.76	226.02
989.05	226.02
989.34	226.02
989.63	226.03
989.92	226.02
990.22	226.03
990.51	226.04
990.80	226.04
991.09	226.01
991.38	226.02
991.67	226.02
991.96	226.01
992.25	226.01
992.54	226.02
992.83	226.02
993.12	226.01
993.41	226.04
993.70	226.09
993.99	226.13
994.28	226.13
994.58	226.15
994.87	226.14
995.16	226.11
995.45	226.09
995.74	226.04
996.03	226.08
996.32	226.08
996.61	226.10
996.90	226.11
997.19	226.12
997.48	226.12
997.77	226.10
998.06	226.11
998.34	226.11
998.63	226.12
998.92	226.13
999.21	226.14
999.50	226.14
999.79	226.10
1000.08	226.06
1000.37	226.07
1000.66	226.03
1000.95	226.07
1001.24	226.09
1001.53	226.09
1001.82	226.11
1002.11	226.09
1002.40	226.09
1002.68	226.10
1002.97	226.17
1003.26	226.17
1003.55	226.14
1003.84	226.17
1004.13	226.21
1004.42	226.19
1004.71	226.20
1004.99	226.18
1005.28	226.21
1005.57	226.19
1005.86	226.20
1006.15	226.21
1006.44	226.21
1006.72	226.23
1007.01	226.18
1007.30	226.19
1007.59	226.20
1007.88	226.19
1008.17	226.16
1008.45	226.16
1008.74	226.16
1009.03	226.12
1009.32	226.12
1009.60	226.14
1009.89	226.11
1010.18	226.05
1010.47	226.04
1010.76	226.03
1011.04	226.06
1011.33	226.05
1011.62	226.09
1011.91	226.09
1012.19	226.11
1012.48	226.12
1012.77	226.11
1013.05	226.17
1013.34	226.16
1013.63	226.13
1013.92	226.15
1014.20	226.16
1014.49	226.15
1014.78	226.13
1015.06	226.08
1015.35	226.07
1015.64	226.05
1015.92	226.05
1016.21	226.07
1016.50	226.06
1016.78	226.08
1017.07	226.09
1017.36	226.06
1017.64	226.03
1017.93	226.02
1018.22	225.99
1018.50	225.95
1018.79	225.95
1019.08	225.87
1019.36	225.84
1019.65	225.86
1019.93	225.87
1020.22	225.87
1020.51	225.89
1020.79	225.87
1021.08	225.74
1021.36	225.47
1021.65	225.88
1021.94	225.60
1022.22	225.40
1022.51	226.13
1022.79	226.36
1023.08	225.89
1023.36	226.49
1023.65	225.43
>>>>>End Processed Spectral Data<<<<<
