SpectraSuite Data File
++++++++++++++++++++++++++++++++++++
Date: Fri Feb 01 15:19:14 EST 2013
User: group
Dark Spectrum Present: No
Reference Spectrum Present: No
Number of Sampled Component Spectra: 1
Spectrometers: USB2E7196
Integration Time (usec): 35000 (USB2E7196)
Spectra Averaged: 100 (USB2E7196)
Boxcar Smoothing: 10 (USB2E7196)
Correct for Electrical Dark: No (USB2E7196)
Strobe/Lamp Enabled: No (USB2E7196)
Correct for Detector Non-linearity: No (USB2E7196)
Correct for Stray Light: No (USB2E7196)
Number of Pixels in Processed Spectrum: 2048
>>>>>Begin Processed Spectral Data<<<<<
339.09	0.00
339.48	215.37
339.86	216.49
340.24	218.09
340.63	219.47
341.01	221.96
341.39	221.51
341.78	223.36
342.16	224.32
342.54	224.26
342.93	213.32
343.31	224.12
343.69	224.66
344.07	225.14
344.46	225.56
344.84	225.93
345.22	226.17
345.60	226.42
345.99	226.62
346.37	226.75
346.75	226.90
347.13	227.00
347.52	227.06
347.90	227.14
348.28	227.17
348.66	227.23
349.05	227.25
349.43	227.32
349.81	227.40
350.19	227.41
350.57	227.46
350.96	227.55
351.34	227.63
351.72	227.71
352.10	227.81
352.48	227.88
352.87	227.95
353.25	228.04
353.63	228.13
354.01	228.18
354.39	228.27
354.77	228.36
355.15	228.44
355.54	228.50
355.92	228.52
356.30	228.59
356.68	228.74
357.06	228.80
357.44	228.83
357.82	228.88
358.20	228.96
358.58	229.03
358.97	229.07
359.35	229.13
359.73	229.22
360.11	229.25
360.49	229.31
360.87	229.35
361.25	229.39
361.63	229.46
362.01	229.50
362.39	229.52
362.77	229.55
363.15	229.57
363.53	229.58
363.91	229.60
364.29	229.62
364.67	229.55
365.05	229.57
365.43	229.59
365.81	229.61
366.19	229.65
366.57	229.68
366.95	229.65
367.33	229.61
367.71	229.56
368.09	229.55
368.47	229.54
368.85	229.51
369.23	229.50
369.61	229.42
369.99	229.44
370.37	229.41
370.75	229.38
371.13	229.32
371.51	229.24
371.89	229.19
372.27	229.16
372.65	229.08
373.03	229.02
373.41	228.97
373.78	228.86
374.16	228.75
374.54	228.67
374.92	228.61
375.30	228.55
375.68	228.47
376.06	228.39
376.44	228.30
376.82	228.21
377.19	228.13
377.57	228.07
377.95	227.96
378.33	227.88
378.71	227.80
379.09	227.74
379.47	227.69
379.84	227.64
380.22	227.56
380.60	227.51
380.98	227.43
381.36	227.36
381.73	227.33
382.11	227.28
382.49	227.24
382.87	227.16
383.25	227.10
383.62	227.18
384.00	227.13
384.38	227.07
384.76	227.05
385.13	227.01
385.51	226.96
385.89	226.88
386.27	226.83
386.64	226.77
387.02	226.72
387.40	226.70
387.78	226.67
388.15	226.63
388.53	226.58
388.91	226.56
389.29	226.51
389.66	226.46
390.04	226.43
390.42	226.39
390.79	226.37
391.17	226.35
391.55	226.22
391.92	226.21
392.30	226.25
392.68	226.22
393.05	226.23
393.43	226.26
393.81	226.34
394.18	226.38
394.56	226.43
394.94	226.48
395.31	226.50
395.69	226.55
396.06	226.58
396.44	226.62
396.82	226.68
397.19	226.82
397.57	226.90
397.95	226.98
398.32	227.02
398.70	227.12
399.07	227.22
399.45	227.27
399.82	227.37
400.20	227.41
400.58	227.49
400.95	227.54
401.33	227.63
401.70	227.76
402.08	227.85
402.45	227.94
402.83	228.04
403.20	228.16
403.58	228.26
403.95	228.42
404.33	228.54
404.71	228.66
405.08	228.80
405.46	228.92
405.83	229.05
406.21	229.22
406.58	229.39
406.96	229.56
407.33	229.72
407.70	229.90
408.08	230.14
408.45	230.36
408.83	230.60
409.20	230.80
409.58	230.94
409.95	231.16
410.33	231.43
410.70	231.68
411.08	231.95
411.45	232.24
411.82	232.51
412.20	232.87
412.57	233.28
412.95	233.55
413.32	233.97
413.69	234.40
414.07	234.79
414.44	235.21
414.82	235.67
415.19	236.26
415.56	236.77
415.94	237.33
416.31	237.98
416.68	238.59
417.06	239.31
417.43	239.99
417.81	240.75
418.18	241.53
418.55	242.34
418.93	243.23
419.30	244.13
419.67	245.10
420.04	246.06
420.42	247.05
420.79	248.24
421.16	249.39
421.54	250.57
421.91	251.80
422.28	253.09
422.66	254.44
423.03	255.69
423.40	257.08
423.77	258.48
424.15	259.91
424.52	261.37
424.89	263.00
425.26	264.55
425.64	266.03
426.01	267.62
426.38	269.29
426.75	270.98
427.13	272.69
427.50	274.48
427.87	276.35
428.24	278.21
428.61	279.99
428.99	281.92
429.36	284.03
429.73	286.13
430.10	288.12
430.47	290.18
430.85	292.32
431.22	294.55
431.59	296.97
431.96	299.24
432.33	301.76
432.70	304.12
433.08	306.97
433.45	309.63
433.82	312.25
434.19	315.15
434.56	317.97
434.93	320.67
435.30	323.34
435.68	326.22
436.05	329.02
436.42	331.77
436.79	334.30
437.16	336.96
437.53	339.83
437.90	342.71
438.27	345.51
438.64	348.37
439.01	350.94
439.38	353.18
439.75	355.32
440.13	357.82
440.50	360.21
440.87	362.06
441.24	364.01
441.61	366.18
441.98	367.67
442.35	369.49
442.72	371.28
443.09	373.12
443.46	374.15
443.83	374.77
444.20	375.31
444.57	376.20
444.94	376.54
445.31	376.82
445.68	377.16
446.05	377.20
446.42	376.80
446.79	376.42
447.16	375.96
447.53	375.68
447.90	374.52
448.27	373.32
448.64	371.71
449.01	370.55
449.37	368.57
449.74	366.67
450.11	364.42
450.48	362.00
450.85	359.41
451.22	357.28
451.59	355.29
451.96	353.35
452.33	350.71
452.70	348.34
453.07	345.49
453.43	342.57
453.80	339.79
454.17	337.14
454.54	334.56
454.91	331.84
455.28	329.13
455.65	326.64
456.02	324.21
456.38	322.09
456.75	319.42
457.12	317.17
457.49	314.94
457.86	312.74
458.23	310.86
458.59	308.82
458.96	306.74
459.33	304.85
459.70	302.96
460.07	301.46
460.43	299.75
460.80	298.13
461.17	296.67
461.54	295.16
461.91	293.72
462.27	292.25
462.64	290.96
463.01	289.62
463.38	288.32
463.74	286.94
464.11	285.74
464.48	284.70
464.85	283.62
465.21	282.74
465.58	281.80
465.95	280.71
466.32	279.80
466.68	278.87
467.05	277.97
467.42	277.08
467.78	276.14
468.15	275.21
468.52	274.58
468.88	273.71
469.25	272.90
469.62	272.26
469.98	271.60
470.35	270.98
470.72	270.34
471.08	269.69
471.45	269.14
471.82	268.57
472.18	267.98
472.55	267.53
472.92	267.01
473.28	266.53
473.65	266.03
474.02	265.55
474.38	265.18
474.75	264.85
475.11	264.49
475.48	264.19
475.85	263.97
476.21	263.72
476.58	263.55
476.94	263.42
477.31	263.26
477.67	263.11
478.04	262.96
478.41	262.93
478.77	262.95
479.14	262.86
479.50	262.86
479.87	262.91
480.23	262.94
480.60	263.01
480.96	263.11
481.33	263.33
481.69	263.54
482.06	263.72
482.42	263.90
482.79	264.15
483.15	264.48
483.52	264.87
483.88	265.21
484.25	265.57
484.61	265.98
484.98	266.42
485.34	266.93
485.71	267.53
486.07	268.15
486.44	268.71
486.80	269.44
487.17	270.16
487.53	270.99
487.90	271.88
488.26	272.81
488.62	273.81
488.99	274.78
489.35	275.78
489.72	276.91
490.08	278.13
490.44	279.39
490.81	280.71
491.17	282.02
491.54	283.50
491.90	285.05
492.26	286.72
492.63	288.44
492.99	290.27
493.36	292.17
493.72	294.21
494.08	296.32
494.45	298.52
494.81	300.91
495.17	303.31
495.54	305.90
495.90	308.58
496.26	311.38
496.63	314.32
496.99	317.48
497.35	320.75
497.72	324.15
498.08	327.66
498.44	331.32
498.80	335.31
499.17	339.31
499.53	343.50
499.89	347.82
500.26	352.33
500.62	356.98
500.98	361.96
501.34	366.97
501.71	372.28
502.07	377.66
502.43	383.26
502.79	389.11
503.16	395.13
503.52	401.37
503.88	407.81
504.24	414.49
504.60	421.38
504.97	428.46
505.33	435.77
505.69	443.46
506.05	451.23
506.41	459.06
506.78	467.25
507.14	475.70
507.50	484.44
507.86	493.46
508.22	502.63
508.59	511.84
508.95	521.47
509.31	531.28
509.67	541.44
510.03	551.71
510.39	562.27
510.75	573.09
511.12	584.03
511.48	595.31
511.84	606.73
512.20	618.27
512.56	630.19
512.92	642.36
513.28	654.61
513.64	667.11
514.00	679.71
514.37	692.69
514.73	705.74
515.09	718.74
515.45	732.06
515.81	745.73
516.17	759.69
516.53	773.81
516.89	788.04
517.25	802.21
517.61	816.67
517.97	831.10
518.33	845.52
518.69	860.26
519.05	875.23
519.41	890.46
519.77	906.01
520.13	921.53
520.49	936.98
520.85	952.56
521.21	968.36
521.57	984.80
521.93	1000.51
522.29	1016.93
522.65	1033.28
523.01	1049.52
523.37	1065.55
523.73	1081.71
524.09	1097.89
524.45	1114.28
524.81	1131.04
525.17	1147.90
525.53	1164.94
525.89	1181.86
526.25	1198.85
526.61	1215.31
526.97	1232.06
527.33	1248.53
527.68	1265.16
528.04	1281.79
528.40	1298.43
528.76	1315.47
529.12	1331.95
529.48	1348.92
529.84	1364.96
530.20	1381.66
530.56	1398.86
530.91	1416.40
531.27	1433.35
531.63	1449.77
531.99	1466.39
532.35	1482.41
532.71	1498.36
533.07	1514.65
533.42	1530.64
533.78	1546.64
534.14	1563.07
534.50	1578.52
534.86	1594.54
535.21	1609.79
535.57	1625.69
535.93	1641.21
536.29	1656.09
536.65	1671.44
537.00	1686.46
537.36	1701.94
537.72	1716.61
538.08	1731.01
538.44	1744.87
538.79	1758.83
539.15	1772.77
539.51	1786.48
539.87	1800.95
540.22	1814.80
540.58	1828.71
540.94	1842.28
541.29	1855.42
541.65	1868.16
542.01	1881.43
542.37	1893.69
542.72	1906.21
543.08	1918.16
543.44	1930.72
543.79	1942.11
544.15	1953.06
544.51	1964.58
544.87	1975.58
545.22	1986.34
545.58	1996.51
545.94	2006.33
546.29	2016.17
546.65	2025.83
547.01	2035.20
547.36	2043.93
547.72	2052.53
548.07	2060.38
548.43	2068.53
548.79	2076.61
549.14	2084.09
549.50	2091.56
549.86	2099.49
550.21	2106.88
550.57	2113.93
550.92	2120.48
551.28	2127.51
551.64	2134.57
551.99	2141.07
552.35	2147.26
552.70	2153.48
553.06	2159.54
553.41	2165.86
553.77	2172.02
554.13	2178.26
554.48	2184.39
554.84	2189.77
555.19	2194.96
555.55	2200.00
555.90	2204.42
556.26	2209.08
556.61	2213.89
556.97	2218.01
557.32	2221.96
557.68	2226.14
558.03	2230.54
558.39	2234.26
558.74	2238.85
559.10	2242.67
559.45	2246.31
559.81	2250.65
560.16	2254.48
560.52	2257.66
560.87	2261.12
561.23	2263.64
561.58	2266.53
561.94	2269.12
562.29	2271.59
562.64	2274.30
563.00	2276.95
563.35	2280.49
563.71	2283.68
564.06	2286.88
564.42	2289.78
564.77	2292.22
565.12	2294.23
565.48	2295.99
565.83	2297.70
566.19	2299.02
566.54	2300.07
566.89	2301.08
567.25	2301.51
567.60	2302.80
567.96	2304.42
568.31	2305.29
568.66	2306.32
569.02	2306.88
569.37	2307.03
569.72	2307.72
570.08	2307.84
570.43	2307.75
570.78	2307.02
571.14	2305.46
571.49	2303.94
571.84	2303.53
572.20	2302.35
572.55	2301.38
572.90	2299.90
573.26	2298.54
573.61	2296.67
573.96	2294.73
574.31	2291.72
574.67	2288.59
575.02	2284.85
575.37	2281.35
575.72	2277.33
576.08	2273.96
576.43	2270.55
576.78	2266.75
577.13	2263.58
577.49	2260.43
577.84	2257.03
578.19	2253.33
578.54	2249.55
578.90	2245.15
579.25	2239.51
579.60	2234.44
579.95	2229.32
580.30	2224.01
580.66	2218.70
581.01	2213.68
581.36	2208.57
581.71	2204.31
582.06	2199.81
582.42	2195.23
582.77	2189.91
583.12	2185.31
583.47	2180.50
583.82	2175.28
584.17	2169.98
584.53	2164.41
584.88	2158.46
585.23	2152.47
585.58	2146.78
585.93	2141.26
586.28	2136.56
586.63	2131.42
586.98	2126.33
587.34	2121.62
587.69	2116.81
588.04	2111.54
588.39	2105.85
588.74	2099.52
589.09	2093.25
589.44	2086.28
589.79	2080.18
590.14	2074.47
590.49	2067.75
590.84	2061.29
591.19	2055.20
591.54	2048.67
591.89	2041.06
592.25	2034.28
592.60	2027.04
592.95	2019.35
593.30	2011.85
593.65	2004.22
594.00	1997.05
594.35	1989.76
594.70	1981.51
595.05	1974.04
595.40	1966.74
595.75	1959.24
596.10	1952.81
596.45	1945.91
596.80	1939.78
597.15	1933.05
597.50	1925.93
597.85	1919.59
598.19	1912.89
598.54	1905.80
598.89	1899.16
599.24	1893.40
599.59	1886.56
599.94	1880.34
600.29	1874.02
600.64	1867.47
600.99	1859.89
601.34	1852.97
601.69	1845.97
602.04	1839.01
602.39	1831.68
602.74	1824.73
603.08	1817.91
603.43	1811.21
603.78	1804.14
604.13	1796.87
604.48	1789.52
604.83	1782.60
605.18	1775.36
605.53	1767.23
605.87	1759.05
606.22	1751.82
606.57	1743.76
606.92	1736.49
607.27	1729.21
607.62	1722.19
607.96	1714.89
608.31	1708.10
608.66	1700.49
609.01	1692.91
609.36	1685.43
609.70	1677.48
610.05	1669.29
610.40	1661.48
610.75	1653.11
611.10	1645.31
611.44	1637.00
611.79	1629.04
612.14	1620.37
612.49	1611.34
612.83	1603.01
613.18	1595.04
613.53	1586.96
613.88	1578.50
614.22	1570.24
614.57	1561.72
614.92	1553.78
615.27	1546.11
615.61	1537.86
615.96	1529.91
616.31	1522.28
616.65	1514.88
617.00	1507.33
617.35	1499.68
617.70	1491.38
618.04	1482.86
618.39	1474.57
618.74	1466.80
619.08	1458.55
619.43	1451.04
619.78	1444.04
620.12	1436.87
620.47	1429.30
620.82	1421.02
621.16	1413.48
621.51	1405.85
621.85	1398.27
622.20	1389.74
622.55	1381.49
622.89	1373.71
623.24	1366.05
623.59	1358.71
623.93	1351.16
624.28	1343.77
624.62	1336.40
624.97	1329.19
625.32	1322.43
625.66	1315.50
626.01	1308.32
626.35	1300.83
626.70	1293.04
627.04	1285.26
627.39	1277.44
627.73	1270.00
628.08	1263.17
628.43	1255.87
628.77	1248.51
629.12	1240.76
629.46	1233.47
629.81	1225.98
630.15	1218.66
630.50	1211.19
630.84	1202.97
631.19	1195.05
631.53	1187.66
631.88	1180.04
632.22	1172.47
632.57	1165.19
632.91	1157.67
633.26	1150.36
633.60	1143.00
633.95	1135.94
634.29	1129.03
634.64	1122.41
634.98	1115.13
635.32	1107.94
635.67	1101.49
636.01	1094.82
636.36	1088.12
636.70	1081.76
637.05	1075.30
637.39	1068.96
637.73	1062.58
638.08	1056.69
638.42	1050.86
638.77	1044.30
639.11	1037.69
639.45	1031.32
639.80	1024.62
640.14	1018.16
640.49	1011.63
640.83	1005.33
641.17	999.07
641.52	992.69
641.86	986.29
642.20	980.44
642.55	974.23
642.89	967.66
643.23	961.21
643.58	955.38
643.92	949.12
644.26	942.89
644.61	936.95
644.95	930.88
645.29	924.30
645.64	917.46
645.98	911.23
646.32	905.45
646.66	899.42
647.01	893.67
647.35	888.01
647.69	882.23
648.04	876.73
648.38	870.95
648.72	864.93
649.06	858.90
649.41	853.05
649.75	847.02
650.09	841.03
650.43	835.19
650.78	829.11
651.12	823.12
651.46	817.48
651.80	811.65
652.14	806.27
652.49	800.90
652.83	795.72
653.17	789.99
653.51	784.24
653.85	778.86
654.20	773.21
654.54	767.15
654.88	761.38
655.22	755.46
655.56	749.78
655.90	744.40
656.25	739.15
656.59	733.77
656.93	728.71
657.27	723.58
657.61	718.22
657.95	713.06
658.29	707.99
658.64	702.78
658.98	697.49
659.32	692.00
659.66	686.81
660.00	681.52
660.34	676.62
660.68	671.66
661.02	666.61
661.36	661.87
661.70	657.42
662.05	653.06
662.39	648.79
662.73	644.34
663.07	639.94
663.41	635.41
663.75	630.91
664.09	626.36
664.43	622.01
664.77	617.85
665.11	613.65
665.45	609.57
665.79	605.51
666.13	601.41
666.47	597.40
666.81	593.24
667.15	589.12
667.49	585.27
667.83	581.56
668.17	577.68
668.51	573.65
668.85	569.68
669.19	565.85
669.53	562.04
669.87	558.13
670.21	554.44
670.55	550.91
670.89	547.52
671.23	544.07
671.57	540.51
671.91	537.02
672.25	533.54
672.58	530.07
672.92	526.68
673.26	523.51
673.60	520.40
673.94	517.29
674.28	514.48
674.62	511.52
674.96	508.43
675.30	505.46
675.64	502.48
675.97	499.69
676.31	496.82
676.65	493.85
676.99	491.13
677.33	488.28
677.67	485.43
678.01	482.41
678.34	479.45
678.68	476.65
679.02	473.81
679.36	471.07
679.70	468.35
680.04	465.58
680.37	462.64
680.71	459.83
681.05	457.23
681.39	454.48
681.73	451.82
682.06	449.24
682.40	446.74
682.74	444.29
683.08	441.73
683.42	439.17
683.75	436.67
684.09	434.19
684.43	431.70
684.77	429.26
685.10	426.92
685.44	424.62
685.78	422.30
686.12	420.05
686.45	417.75
686.79	415.45
687.13	413.28
687.46	411.24
687.80	409.08
688.14	406.87
688.48	404.75
688.81	402.54
689.15	400.40
689.49	398.28
689.82	396.14
690.16	394.12
690.50	392.19
690.83	390.26
691.17	388.29
691.51	386.44
691.84	384.62
692.18	382.67
692.52	380.67
692.85	378.77
693.19	376.91
693.52	375.09
693.86	373.30
694.20	371.50
694.53	369.68
694.87	367.86
695.21	366.13
695.54	364.34
695.88	362.58
696.21	360.85
696.55	359.18
696.88	357.57
697.22	355.89
697.56	354.27
697.89	352.62
698.23	351.01
698.56	349.41
698.90	347.78
699.23	346.12
699.57	344.62
699.90	343.09
700.24	341.53
700.58	340.04
700.91	338.51
701.25	337.12
701.58	335.75
701.92	334.38
702.25	333.01
702.59	331.66
702.92	330.32
703.26	329.07
703.59	327.79
703.93	326.61
704.26	325.36
704.60	324.03
704.93	322.76
705.26	321.52
705.60	320.37
705.93	319.21
706.27	318.20
706.60	317.17
706.94	316.09
707.27	315.02
707.61	313.95
707.94	312.95
708.27	311.84
708.61	310.74
708.94	309.78
709.28	308.80
709.61	307.86
709.94	306.99
710.28	305.97
710.61	304.99
710.95	303.91
711.28	302.98
711.61	302.06
711.95	301.14
712.28	300.19
712.61	299.18
712.95	298.31
713.28	297.44
713.61	296.51
713.95	295.63
714.28	294.76
714.61	293.89
714.95	293.04
715.28	292.19
715.61	291.35
715.95	290.46
716.28	289.62
716.61	288.86
716.95	288.03
717.28	287.30
717.61	286.52
717.94	285.80
718.28	285.01
718.61	284.29
718.94	283.58
719.27	282.97
719.61	282.32
719.94	281.68
720.27	280.93
720.60	280.29
720.94	279.62
721.27	279.06
721.60	278.48
721.93	277.85
722.27	277.29
722.60	276.75
722.93	276.18
723.26	275.59
723.59	274.98
723.93	274.39
724.26	273.80
724.59	273.25
724.92	272.67
725.25	272.16
725.59	271.65
725.92	271.16
726.25	270.61
726.58	270.15
726.91	269.61
727.24	269.15
727.57	268.67
727.91	268.19
728.24	267.69
728.57	267.21
728.90	266.76
729.23	266.24
729.56	265.80
729.89	265.33
730.22	264.86
730.55	264.38
730.89	263.95
731.22	263.51
731.55	263.09
731.88	262.69
732.21	262.24
732.54	261.77
732.87	261.35
733.20	260.94
733.53	260.53
733.86	260.13
734.19	259.71
734.52	259.33
734.85	259.02
735.18	258.61
735.51	258.26
735.84	257.89
736.17	257.58
736.50	257.14
736.83	256.93
737.16	256.62
737.49	256.29
737.82	255.93
738.15	255.59
738.48	255.22
738.81	254.91
739.14	254.60
739.47	254.33
739.80	254.04
740.13	253.75
740.46	253.39
740.79	253.09
741.12	252.81
741.45	252.49
741.78	252.18
742.11	251.88
742.44	251.56
742.77	251.27
743.10	250.99
743.43	250.68
743.75	250.29
744.08	250.15
744.41	249.90
744.74	249.63
745.07	249.36
745.40	249.14
745.73	248.87
746.06	248.60
746.39	248.32
746.71	248.05
747.04	247.78
747.37	247.55
747.70	247.32
748.03	247.06
748.36	246.85
748.68	246.58
749.01	246.34
749.34	246.08
749.67	245.83
750.00	245.58
750.33	245.48
750.65	245.27
750.98	244.90
751.31	244.66
751.64	244.45
751.97	244.29
752.29	244.10
752.62	243.88
752.95	243.66
753.28	243.47
753.60	243.26
753.93	243.10
754.26	242.92
754.59	242.72
754.91	242.51
755.24	242.33
755.57	242.15
755.90	241.98
756.22	241.80
756.55	241.63
756.88	241.46
757.20	241.20
757.53	241.03
757.86	240.87
758.19	240.72
758.51	240.59
758.84	240.38
759.17	240.23
759.49	240.10
759.82	240.01
760.15	239.84
760.47	239.73
760.80	239.57
761.13	239.44
761.45	239.24
761.78	239.10
762.11	238.94
762.43	238.80
762.76	238.66
763.08	238.56
763.41	238.40
763.74	238.27
764.06	238.14
764.39	237.98
764.71	237.85
765.04	237.71
765.37	237.58
765.69	237.48
766.02	237.32
766.34	237.18
766.67	237.03
767.00	236.92
767.32	236.84
767.65	236.75
767.97	236.63
768.30	236.55
768.62	236.46
768.95	236.32
769.27	236.24
769.60	236.14
769.92	236.03
770.25	235.93
770.57	235.78
770.90	235.66
771.22	235.57
771.55	235.47
771.87	235.37
772.20	235.24
772.52	235.21
772.85	235.25
773.17	235.12
773.50	234.98
773.82	234.87
774.15	234.69
774.47	234.54
774.80	234.45
775.12	234.37
775.45	234.29
775.77	234.24
776.09	234.15
776.42	234.06
776.74	233.98
777.07	233.91
777.39	233.87
777.72	233.80
778.04	233.69
778.36	233.59
778.69	233.53
779.01	233.49
779.33	233.30
779.66	233.11
779.98	233.04
780.31	233.02
780.63	232.97
780.95	232.90
781.28	232.82
781.60	232.73
781.92	232.64
782.25	232.57
782.57	232.48
782.89	232.40
783.22	232.34
783.54	232.32
783.86	232.27
784.19	232.19
784.51	232.13
784.83	232.11
785.16	232.03
785.48	231.95
785.80	231.89
786.12	231.88
786.45	231.84
786.77	231.82
787.09	231.74
787.42	231.69
787.74	231.69
788.06	231.66
788.38	231.64
788.71	231.60
789.03	231.54
789.35	231.52
789.67	231.44
789.99	231.40
790.32	231.28
790.64	231.24
790.96	231.31
791.28	231.28
791.61	231.25
791.93	231.26
792.25	231.22
792.57	231.27
792.89	231.18
793.21	231.15
793.54	231.10
793.86	231.05
794.18	231.02
794.50	230.94
794.82	230.92
795.14	230.89
795.47	230.87
795.79	230.87
796.11	230.82
796.43	230.85
796.75	230.80
797.07	230.81
797.39	230.78
797.71	230.66
798.04	230.63
798.36	230.59
798.68	230.55
799.00	230.53
799.32	230.41
799.64	230.41
799.96	230.38
800.28	230.38
800.60	230.34
800.92	230.31
801.24	230.29
801.56	230.27
801.89	230.25
802.21	230.24
802.53	230.19
802.85	230.18
803.17	230.16
803.49	230.10
803.81	230.04
804.13	229.99
804.45	229.96
804.77	229.93
805.09	229.90
805.41	229.87
805.73	229.84
806.05	229.79
806.37	229.75
806.69	229.72
807.01	229.69
807.33	229.68
807.65	229.65
807.97	229.67
808.28	229.61
808.60	229.60
808.92	229.54
809.24	229.56
809.56	229.49
809.88	229.44
810.20	229.43
810.52	229.47
810.84	229.41
811.16	229.39
811.48	229.34
811.80	229.36
812.12	229.33
812.43	229.33
812.75	229.28
813.07	229.24
813.39	229.20
813.71	229.19
814.03	229.17
814.35	229.16
814.67	229.13
814.98	229.08
815.30	229.01
815.62	228.97
815.94	228.88
816.26	228.94
816.58	228.90
816.89	228.89
817.21	228.81
817.53	228.84
817.85	228.80
818.17	228.75
818.48	228.70
818.80	228.71
819.12	228.70
819.44	228.69
819.76	228.67
820.07	228.66
820.39	228.60
820.71	228.56
821.03	228.51
821.34	228.45
821.66	228.47
821.98	228.49
822.30	228.47
822.61	228.50
822.93	228.42
823.25	228.43
823.57	228.42
823.88	228.44
824.20	228.42
824.52	228.42
824.83	228.42
825.15	228.42
825.47	228.39
825.79	228.33
826.10	228.35
826.42	228.35
826.74	228.36
827.05	228.37
827.37	228.37
827.69	228.35
828.00	228.37
828.32	228.36
828.64	228.35
828.95	228.41
829.27	228.41
829.58	228.41
829.90	228.39
830.22	228.39
830.53	228.39
830.85	228.38
831.17	228.35
831.48	228.34
831.80	228.30
832.11	228.28
832.43	228.26
832.75	228.25
833.06	228.31
833.38	228.27
833.69	228.24
834.01	228.24
834.32	228.27
834.64	228.24
834.96	228.23
835.27	228.23
835.59	228.20
835.90	228.12
836.22	228.10
836.53	228.10
836.85	228.08
837.16	228.13
837.48	228.09
837.79	228.12
838.11	228.10
838.42	228.13
838.74	228.14
839.05	228.16
839.37	228.15
839.68	228.07
840.00	228.06
840.31	228.08
840.63	228.07
840.94	228.04
841.26	228.03
841.57	228.03
841.88	228.03
842.20	227.99
842.51	228.01
842.83	228.03
843.14	228.10
843.46	228.10
843.77	228.03
844.08	228.03
844.40	228.01
844.71	228.05
845.03	228.00
845.34	228.00
845.65	227.97
845.97	227.96
846.28	227.95
846.60	227.95
846.91	227.93
847.22	227.91
847.54	227.91
847.85	227.89
848.16	227.88
848.48	227.83
848.79	227.90
849.10	227.87
849.42	227.86
849.73	227.75
850.04	227.71
850.36	227.63
850.67	227.64
850.98	227.62
851.30	227.56
851.61	227.59
851.92	227.53
852.23	227.57
852.55	227.55
852.86	227.54
853.17	227.55
853.49	227.51
853.80	227.53
854.11	227.51
854.42	227.52
854.74	227.49
855.05	227.49
855.36	227.38
855.67	227.38
855.99	227.33
856.30	227.40
856.61	227.42
856.92	227.44
857.23	227.43
857.55	227.44
857.86	227.48
858.17	227.48
858.48	227.47
858.79	227.42
859.11	227.44
859.42	227.44
859.73	227.44
860.04	227.46
860.35	227.43
860.66	227.43
860.98	227.43
861.29	227.44
861.60	227.42
861.91	227.45
862.22	227.45
862.53	227.48
862.84	227.38
863.16	227.39
863.47	227.39
863.78	227.35
864.09	227.35
864.40	227.34
864.71	227.32
865.02	227.31
865.33	227.32
865.64	227.31
865.95	227.33
866.27	227.37
866.58	227.34
866.89	227.37
867.20	227.36
867.51	227.34
867.82	227.33
868.13	227.40
868.44	227.39
868.75	227.40
869.06	227.39
869.37	227.42
869.68	227.41
869.99	227.42
870.30	227.44
870.61	227.44
870.92	227.40
871.23	227.39
871.54	227.45
871.85	227.46
872.16	227.48
872.47	227.48
872.78	227.42
873.09	227.45
873.40	227.42
873.71	227.45
874.02	227.44
874.33	227.43
874.64	227.41
874.95	227.43
875.26	227.42
875.56	227.45
875.87	227.42
876.18	227.40
876.49	227.52
876.80	227.52
877.11	227.55
877.42	227.58
877.73	227.58
878.04	227.57
878.35	227.62
878.66	227.63
878.96	227.64
879.27	227.64
879.58	227.69
879.89	227.65
880.20	227.70
880.51	227.72
880.82	227.76
881.12	227.77
881.43	227.74
881.74	227.75
882.05	227.73
882.36	227.74
882.67	227.77
882.97	227.64
883.28	227.66
883.59	227.59
883.90	227.60
884.21	227.62
884.51	227.62
884.82	227.58
885.13	227.57
885.44	227.55
885.74	227.55
886.05	227.50
886.36	227.54
886.67	227.47
886.98	227.50
887.28	227.46
887.59	227.44
887.90	227.43
888.20	227.41
888.51	227.45
888.82	227.43
889.13	227.42
889.43	227.48
889.74	227.46
890.05	227.46
890.35	227.43
890.66	227.41
890.97	227.38
891.28	227.36
891.58	227.34
891.89	227.31
892.20	227.31
892.50	227.28
892.81	227.24
893.12	227.23
893.42	227.16
893.73	227.17
894.04	227.16
894.34	227.19
894.65	227.18
894.95	227.15
895.26	227.15
895.57	227.21
895.87	227.12
896.18	227.14
896.48	227.14
896.79	227.15
897.10	227.14
897.40	227.16
897.71	227.16
898.01	227.14
898.32	227.15
898.63	227.12
898.93	227.12
899.24	227.14
899.54	227.14
899.85	227.13
900.15	227.10
900.46	227.11
900.76	227.08
901.07	227.05
901.38	227.05
901.68	227.06
901.99	226.97
902.29	226.95
902.60	226.90
902.90	226.91
903.21	226.89
903.51	226.88
903.82	226.86
904.12	226.86
904.43	226.88
904.73	226.88
905.03	226.90
905.34	226.98
905.64	226.96
905.95	226.95
906.25	226.98
906.56	227.02
906.86	227.01
907.17	227.02
907.47	227.05
907.77	227.05
908.08	227.01
908.38	227.04
908.69	227.08
908.99	227.13
909.30	227.15
909.60	227.14
909.90	227.13
910.21	227.13
910.51	227.11
910.81	227.12
911.12	227.14
911.42	227.15
911.73	227.07
912.03	227.08
912.33	227.11
912.64	227.11
912.94	227.10
913.24	227.10
913.55	227.08
913.85	227.06
914.15	227.09
914.46	227.12
914.76	227.12
915.06	227.12
915.37	227.13
915.67	227.08
915.97	227.10
916.27	227.09
916.58	227.10
916.88	227.11
917.18	227.11
917.49	227.17
917.79	227.18
918.09	227.19
918.39	227.21
918.70	227.24
919.00	227.22
919.30	227.29
919.60	227.28
919.91	227.28
920.21	227.28
920.51	227.27
920.81	227.25
921.12	227.26
921.42	227.26
921.72	227.27
922.02	227.29
922.32	227.31
922.63	227.33
922.93	227.39
923.23	227.40
923.53	227.36
923.83	227.31
924.13	227.29
924.44	227.27
924.74	227.30
925.04	227.30
925.34	227.31
925.64	227.24
925.94	227.25
926.24	227.29
926.55	227.32
926.85	227.32
927.15	227.33
927.45	227.31
927.75	227.33
928.05	227.33
928.35	227.34
928.65	227.34
928.95	227.33
929.26	227.29
929.56	227.28
929.86	227.30
930.16	227.27
930.46	227.26
930.76	227.27
931.06	227.25
931.36	227.21
931.66	227.21
931.96	227.20
932.26	227.21
932.56	227.20
932.86	227.19
933.16	227.16
933.46	227.15
933.76	227.12
934.06	227.12
934.36	227.12
934.66	227.07
934.96	227.05
935.26	227.08
935.56	227.08
935.86	227.05
936.16	227.03
936.46	227.02
936.76	227.01
937.06	227.04
937.36	227.02
937.66	227.01
937.96	227.00
938.26	227.03
938.56	227.03
938.86	227.01
939.16	227.03
939.46	227.06
939.76	227.09
940.06	227.10
940.35	227.09
940.65	227.05
940.95	227.11
941.25	227.08
941.55	227.07
941.85	227.11
942.15	227.13
942.45	227.16
942.75	227.18
943.04	227.22
943.34	227.23
943.64	227.23
943.94	227.24
944.24	227.25
944.54	227.21
944.84	227.21
945.13	227.19
945.43	227.17
945.73	227.16
946.03	227.17
946.33	227.18
946.62	227.17
946.92	227.17
947.22	227.15
947.52	227.17
947.82	227.15
948.11	227.12
948.41	227.10
948.71	227.08
949.01	227.07
949.31	227.06
949.60	227.03
949.90	227.03
950.20	227.02
950.50	227.00
950.79	226.99
951.09	227.01
951.39	227.00
951.69	227.01
951.98	227.00
952.28	226.96
952.58	226.95
952.87	226.93
953.17	226.94
953.47	226.93
953.76	226.95
954.06	226.96
954.36	226.94
954.66	226.96
954.95	226.96
955.25	226.96
955.55	226.97
955.84	226.98
956.14	227.02
956.44	226.97
956.73	226.96
957.03	227.00
957.32	227.00
957.62	226.96
957.92	226.97
958.21	226.98
958.51	227.08
958.81	227.11
959.10	227.13
959.40	227.14
959.69	227.14
959.99	227.12
960.29	227.09
960.58	227.09
960.88	227.10
961.17	227.11
961.47	227.11
961.76	227.13
962.06	227.10
962.36	227.07
962.65	227.15
962.95	227.18
963.24	227.19
963.54	227.15
963.83	227.20
964.13	227.20
964.42	227.17
964.72	227.11
965.01	227.07
965.31	227.06
965.60	227.04
965.90	227.11
966.19	227.08
966.49	227.09
966.78	227.09
967.08	227.09
967.37	227.10
967.67	227.10
967.96	227.08
968.26	227.08
968.55	227.07
968.85	227.04
969.14	227.01
969.43	226.98
969.73	226.97
970.02	226.98
970.32	226.95
970.61	226.97
970.91	226.97
971.20	226.98
971.49	226.99
971.79	227.01
972.08	226.94
972.38	226.95
972.67	226.98
972.96	227.02
973.26	226.98
973.55	226.99
973.85	226.97
974.14	226.97
974.43	226.97
974.73	226.99
975.02	226.99
975.31	226.99
975.61	227.03
975.90	227.03
976.19	227.00
976.49	227.03
976.78	227.02
977.07	227.02
977.37	226.99
977.66	226.97
977.95	226.95
978.24	226.99
978.54	227.00
978.83	226.99
979.12	226.97
979.42	226.99
979.71	226.99
980.00	227.02
980.29	227.02
980.59	227.02
980.88	227.02
981.17	227.00
981.46	227.02
981.76	226.96
982.05	227.01
982.34	227.02
982.63	227.00
982.93	226.99
983.22	226.99
983.51	227.01
983.80	227.00
984.09	227.01
984.39	226.98
984.68	226.94
984.97	226.94
985.26	226.92
985.55	226.90
985.85	226.85
986.14	226.84
986.43	226.83
986.72	226.81
987.01	226.79
987.30	226.78
987.59	226.77
987.89	226.81
988.18	226.79
988.47	226.77
988.76	226.75
989.05	226.75
989.34	226.75
989.63	226.77
989.92	226.80
990.22	226.80
990.51	226.78
990.80	226.80
991.09	226.81
991.38	226.81
991.67	226.79
991.96	226.81
992.25	226.83
992.54	226.81
992.83	226.81
993.12	226.77
993.41	226.78
993.70	226.79
993.99	226.79
994.28	226.75
994.58	226.74
994.87	226.75
995.16	226.75
995.45	226.71
995.74	226.68
996.03	226.68
996.32	226.68
996.61	226.68
996.90	226.69
997.19	226.69
997.48	226.69
997.77	226.67
998.06	226.68
998.34	226.66
998.63	226.68
998.92	226.68
999.21	226.74
999.50	226.73
999.79	226.72
1000.08	226.71
1000.37	226.74
1000.66	226.74
1000.95	226.78
1001.24	226.76
1001.53	226.83
1001.82	226.84
1002.11	226.82
1002.40	226.83
1002.68	226.88
1002.97	226.94
1003.26	226.92
1003.55	226.90
1003.84	226.92
1004.13	226.95
1004.42	226.97
1004.71	226.96
1004.99	226.94
1005.28	226.92
1005.57	226.94
1005.86	226.93
1006.15	226.94
1006.44	226.93
1006.72	226.96
1007.01	226.94
1007.30	226.96
1007.59	226.92
1007.88	226.90
1008.17	226.91
1008.45	226.87
1008.74	226.83
1009.03	226.79
1009.32	226.77
1009.60	226.79
1009.89	226.76
1010.18	226.74
1010.47	226.72
1010.76	226.72
1011.04	226.73
1011.33	226.74
1011.62	226.76
1011.91	226.75
1012.19	226.77
1012.48	226.77
1012.77	226.77
1013.05	226.82
1013.34	226.81
1013.63	226.80
1013.92	226.85
1014.20	226.84
1014.49	226.88
1014.78	226.88
1015.06	226.82
1015.35	226.83
1015.64	226.85
1015.92	226.90
1016.21	226.86
1016.50	226.88
1016.78	226.89
1017.07	226.93
1017.36	226.93
1017.64	226.88
1017.93	226.90
1018.22	226.86
1018.50	226.87
1018.79	226.86
1019.08	226.81
1019.36	226.82
1019.65	226.82
1019.93	226.83
1020.22	226.85
1020.51	226.87
1020.79	226.88
1021.08	226.83
1021.36	226.96
1021.65	226.96
1021.94	226.80
1022.22	227.00
1022.51	226.59
1022.79	227.50
1023.08	227.02
1023.36	227.77
1023.65	226.74
>>>>>End Processed Spectral Data<<<<<
