SpectraSuite Data File
++++++++++++++++++++++++++++++++++++
Date: Fri Feb 01 15:14:36 EST 2013
User: group
Dark Spectrum Present: No
Reference Spectrum Present: No
Number of Sampled Component Spectra: 1
Spectrometers: USB2E7196
Integration Time (usec): 35000 (USB2E7196)
Spectra Averaged: 100 (USB2E7196)
Boxcar Smoothing: 10 (USB2E7196)
Correct for Electrical Dark: No (USB2E7196)
Strobe/Lamp Enabled: No (USB2E7196)
Correct for Detector Non-linearity: No (USB2E7196)
Correct for Stray Light: No (USB2E7196)
Number of Pixels in Processed Spectrum: 2048
>>>>>Begin Processed Spectral Data<<<<<
339.09	0.00
339.48	215.77
339.86	216.81
340.24	218.48
340.63	219.57
341.01	222.58
341.39	221.96
341.78	223.43
342.16	225.54
342.54	225.73
342.93	213.80
343.31	224.60
343.69	225.15
344.07	225.59
344.46	225.99
344.84	226.36
345.22	226.59
345.60	226.85
345.99	227.05
346.37	227.16
346.75	227.25
347.13	227.31
347.52	227.37
347.90	227.44
348.28	227.48
348.66	227.52
349.05	227.49
349.43	227.55
349.81	227.58
350.19	227.58
350.57	227.62
350.96	227.68
351.34	227.77
351.72	227.78
352.10	227.89
352.48	227.94
352.87	227.97
353.25	228.02
353.63	228.07
354.01	228.13
354.39	228.20
354.77	228.27
355.15	228.35
355.54	228.40
355.92	228.46
356.30	228.53
356.68	228.67
357.06	228.74
357.44	228.75
357.82	228.82
358.20	228.90
358.58	229.00
358.97	229.06
359.35	229.13
359.73	229.24
360.11	229.30
360.49	229.36
360.87	229.43
361.25	229.49
361.63	229.58
362.01	229.62
362.39	229.63
362.77	229.61
363.15	229.64
363.53	229.68
363.91	229.68
364.29	229.68
364.67	229.58
365.05	229.58
365.43	229.58
365.81	229.60
366.19	229.65
366.57	229.66
366.95	229.63
367.33	229.59
367.71	229.54
368.09	229.54
368.47	229.51
368.85	229.47
369.23	229.46
369.61	229.37
369.99	229.36
370.37	229.33
370.75	229.36
371.13	229.28
371.51	229.20
371.89	229.18
372.27	229.14
372.65	229.07
373.03	229.03
373.41	228.97
373.78	228.89
374.16	228.77
374.54	228.70
374.92	228.62
375.30	228.58
375.68	228.51
376.06	228.44
376.44	228.40
376.82	228.33
377.19	228.26
377.57	228.20
377.95	228.12
378.33	228.02
378.71	227.89
379.09	227.86
379.47	227.82
379.84	227.70
380.22	227.59
380.60	227.52
380.98	227.44
381.36	227.39
381.73	227.32
382.11	227.23
382.49	227.17
382.87	227.10
383.25	227.03
383.62	227.09
384.00	227.00
384.38	226.95
384.76	226.94
385.13	226.91
385.51	226.84
385.89	226.76
386.27	226.75
386.64	226.69
387.02	226.62
387.40	226.59
387.78	226.55
388.15	226.53
388.53	226.50
388.91	226.48
389.29	226.43
389.66	226.42
390.04	226.42
390.42	226.40
390.79	226.40
391.17	226.40
391.55	226.30
391.92	226.33
392.30	226.34
392.68	226.31
393.05	226.32
393.43	226.35
393.81	226.38
394.18	226.36
394.56	226.42
394.94	226.49
395.31	226.50
395.69	226.60
396.06	226.66
396.44	226.70
396.82	226.72
397.19	226.83
397.57	226.87
397.95	226.93
398.32	226.98
398.70	227.05
399.07	227.12
399.45	227.17
399.82	227.21
400.20	227.28
400.58	227.36
400.95	227.39
401.33	227.50
401.70	227.68
402.08	227.78
402.45	227.90
402.83	227.99
403.20	228.10
403.58	228.21
403.95	228.31
404.33	228.46
404.71	228.60
405.08	228.78
405.46	228.91
405.83	229.09
406.21	229.26
406.58	229.41
406.96	229.59
407.33	229.77
407.70	229.98
408.08	230.22
408.45	230.41
408.83	230.64
409.20	230.88
409.58	231.04
409.95	231.32
410.33	231.60
410.70	231.87
411.08	232.19
411.45	232.48
411.82	232.79
412.20	233.16
412.57	233.58
412.95	233.87
413.32	234.27
413.69	234.64
414.07	235.05
414.44	235.52
414.82	235.95
415.19	236.50
415.56	237.04
415.94	237.58
416.31	238.23
416.68	238.85
417.06	239.52
417.43	240.18
417.81	240.94
418.18	241.70
418.55	242.52
418.93	243.38
419.30	244.30
419.67	245.24
420.04	246.15
420.42	247.16
420.79	248.34
421.16	249.49
421.54	250.71
421.91	251.92
422.28	253.20
422.66	254.58
423.03	255.90
423.40	257.20
423.77	258.62
424.15	260.04
424.52	261.55
424.89	263.16
425.26	264.73
425.64	266.18
426.01	267.78
426.38	269.41
426.75	271.07
427.13	272.76
427.50	274.58
427.87	276.46
428.24	278.33
428.61	280.08
428.99	282.06
429.36	284.19
429.73	286.27
430.10	288.27
430.47	290.29
430.85	292.40
431.22	294.71
431.59	297.10
431.96	299.35
432.33	301.86
432.70	304.25
433.08	307.07
433.45	309.71
433.82	312.33
434.19	315.24
434.56	318.06
434.93	320.71
435.30	323.37
435.68	326.29
436.05	329.10
436.42	331.87
436.79	334.37
437.16	337.06
437.53	339.89
437.90	342.76
438.27	345.54
438.64	348.39
439.01	350.95
439.38	353.16
439.75	355.36
440.13	357.85
440.50	360.23
440.87	362.07
441.24	364.02
441.61	366.16
441.98	367.66
442.35	369.46
442.72	371.39
443.09	373.20
443.46	374.20
443.83	374.83
444.20	375.41
444.57	376.29
444.94	376.61
445.31	376.97
445.68	377.28
446.05	377.38
446.42	377.00
446.79	376.61
447.16	376.21
447.53	375.87
447.90	374.68
448.27	373.52
448.64	371.98
449.01	370.85
449.37	368.90
449.74	367.03
450.11	364.80
450.48	362.30
450.85	359.72
451.22	357.54
451.59	355.47
451.96	353.47
452.33	350.86
452.70	348.48
453.07	345.63
453.43	342.74
453.80	340.01
454.17	337.32
454.54	334.75
454.91	332.00
455.28	329.34
455.65	326.89
456.02	324.40
456.38	322.25
456.75	319.60
457.12	317.34
457.49	315.11
457.86	312.95
458.23	311.08
458.59	309.06
458.96	307.00
459.33	305.18
459.70	303.32
460.07	301.78
460.43	300.05
460.80	298.42
461.17	296.96
461.54	295.40
461.91	293.94
462.27	292.48
462.64	291.28
463.01	289.88
463.38	288.55
463.74	287.23
464.11	286.07
464.48	285.03
464.85	283.92
465.21	283.01
465.58	282.06
465.95	280.96
466.32	280.03
466.68	279.13
467.05	278.20
467.42	277.30
467.78	276.35
468.15	275.45
468.52	274.75
468.88	273.89
469.25	273.11
469.62	272.48
469.98	271.79
470.35	271.10
470.72	270.51
471.08	269.84
471.45	269.23
471.82	268.64
472.18	268.03
472.55	267.56
472.92	267.03
473.28	266.56
473.65	266.09
474.02	265.62
474.38	265.24
474.75	264.93
475.11	264.58
475.48	264.30
475.85	264.06
476.21	263.82
476.58	263.62
476.94	263.48
477.31	263.34
477.67	263.16
478.04	263.04
478.41	262.98
478.77	263.00
479.14	262.93
479.50	262.93
479.87	262.96
480.23	263.02
480.60	263.09
480.96	263.20
481.33	263.39
481.69	263.60
482.06	263.77
482.42	263.95
482.79	264.20
483.15	264.52
483.52	264.90
483.88	265.23
484.25	265.63
484.61	266.05
484.98	266.47
485.34	267.06
485.71	267.62
486.07	268.19
486.44	268.75
486.80	269.45
487.17	270.20
487.53	271.06
487.90	271.93
488.26	272.88
488.62	273.87
488.99	274.86
489.35	275.91
489.72	277.05
490.08	278.28
490.44	279.49
490.81	280.83
491.17	282.17
491.54	283.72
491.90	285.24
492.26	286.89
492.63	288.64
492.99	290.44
493.36	292.35
493.72	294.44
494.08	296.56
494.45	298.82
494.81	301.18
495.17	303.56
495.54	306.14
495.90	308.81
496.26	311.58
496.63	314.50
496.99	317.59
497.35	320.86
497.72	324.20
498.08	327.78
498.44	331.43
498.80	335.33
499.17	339.31
499.53	343.48
499.89	347.82
500.26	352.30
500.62	356.92
500.98	361.88
501.34	366.94
501.71	372.33
502.07	377.77
502.43	383.34
502.79	389.16
503.16	395.17
503.52	401.44
503.88	407.84
504.24	414.55
504.60	421.45
504.97	428.52
505.33	435.87
505.69	443.51
506.05	451.27
506.41	459.16
506.78	467.35
507.14	475.81
507.50	484.54
507.86	493.53
508.22	502.74
508.59	511.99
508.95	521.54
509.31	531.27
509.67	541.35
510.03	551.63
510.39	562.19
510.75	573.04
511.12	584.00
511.48	595.25
511.84	606.63
512.20	618.18
512.56	630.17
512.92	642.29
513.28	654.60
513.64	667.15
514.00	679.90
514.37	692.81
514.73	705.84
515.09	718.87
515.45	732.20
515.81	745.81
516.17	759.80
516.53	774.00
516.89	788.23
517.25	802.39
517.61	816.92
517.97	831.38
518.33	845.79
518.69	860.61
519.05	875.73
519.41	891.01
519.77	906.51
520.13	922.01
520.49	937.43
520.85	952.98
521.21	968.68
521.57	985.01
521.93	1000.89
522.29	1017.39
522.65	1033.73
523.01	1049.98
523.37	1066.02
523.73	1082.17
524.09	1098.28
524.45	1114.58
524.81	1131.28
525.17	1148.10
525.53	1165.15
525.89	1182.10
526.25	1198.95
526.61	1215.34
526.97	1232.02
527.33	1248.52
527.68	1265.28
528.04	1281.87
528.40	1298.51
528.76	1315.65
529.12	1332.28
529.48	1349.27
529.84	1365.32
530.20	1382.10
530.56	1399.12
530.91	1416.51
531.27	1433.47
531.63	1449.83
531.99	1466.55
532.35	1482.62
532.71	1498.58
533.07	1514.83
533.42	1530.78
533.78	1546.79
534.14	1563.14
534.50	1578.59
534.86	1594.59
535.21	1609.66
535.57	1625.69
535.93	1641.30
536.29	1656.16
536.65	1671.23
537.00	1686.01
537.36	1701.34
537.72	1715.91
538.08	1730.46
538.44	1744.52
538.79	1758.41
539.15	1772.38
539.51	1786.26
539.87	1800.73
540.22	1814.64
540.58	1828.54
540.94	1842.03
541.29	1855.07
541.65	1867.89
542.01	1881.36
542.37	1893.69
542.72	1906.20
543.08	1917.91
543.44	1930.33
543.79	1941.62
544.15	1952.77
544.51	1964.33
544.87	1975.28
545.22	1986.16
545.58	1996.36
545.94	2006.21
546.29	2016.15
546.65	2026.04
547.01	2035.20
547.36	2043.98
547.72	2052.30
548.07	2060.18
548.43	2068.31
548.79	2076.41
549.14	2083.90
549.50	2091.25
549.86	2099.01
550.21	2106.46
550.57	2113.78
550.92	2120.37
551.28	2127.50
551.64	2134.48
551.99	2141.00
552.35	2147.27
552.70	2153.42
553.06	2159.28
553.41	2165.45
553.77	2171.47
554.13	2177.47
554.48	2183.55
554.84	2188.95
555.19	2194.41
555.55	2199.53
555.90	2204.01
556.26	2208.85
556.61	2213.54
556.97	2217.65
557.32	2221.74
557.68	2225.70
558.03	2230.05
558.39	2233.72
558.74	2238.20
559.10	2242.11
559.45	2245.85
559.81	2250.17
560.16	2253.86
560.52	2257.37
560.87	2260.88
561.23	2263.55
561.58	2266.65
561.94	2269.13
562.29	2271.64
562.64	2274.22
563.00	2276.85
563.35	2280.31
563.71	2283.47
564.06	2286.55
564.42	2289.44
564.77	2291.96
565.12	2294.29
565.48	2296.00
565.83	2297.86
566.19	2299.00
566.54	2299.89
566.89	2300.87
567.25	2301.28
567.60	2302.63
567.96	2304.09
568.31	2304.82
568.66	2305.73
569.02	2306.02
569.37	2306.40
569.72	2306.91
570.08	2306.81
570.43	2306.68
570.78	2305.87
571.14	2304.20
571.49	2302.92
571.84	2302.40
572.20	2300.96
572.55	2299.76
572.90	2298.23
573.26	2296.67
573.61	2295.15
573.96	2293.15
574.31	2290.08
574.67	2287.02
575.02	2283.23
575.37	2279.73
575.72	2275.78
576.08	2272.47
576.43	2269.08
576.78	2265.22
577.13	2262.19
577.49	2259.13
577.84	2255.53
578.19	2251.87
578.54	2248.08
578.90	2243.68
579.25	2238.12
579.60	2233.12
579.95	2228.01
580.30	2222.81
580.66	2217.60
581.01	2212.53
581.36	2207.55
581.71	2203.31
582.06	2198.76
582.42	2194.25
582.77	2188.88
583.12	2184.26
583.47	2179.31
583.82	2174.10
584.17	2168.84
584.53	2163.22
584.88	2157.50
585.23	2151.59
585.58	2146.04
585.93	2140.49
586.28	2135.75
586.63	2130.60
586.98	2125.54
587.34	2120.90
587.69	2116.04
588.04	2110.65
588.39	2104.79
588.74	2098.24
589.09	2092.01
589.44	2085.04
589.79	2078.92
590.14	2073.24
590.49	2066.64
590.84	2060.26
591.19	2054.29
591.54	2047.66
591.89	2039.99
592.25	2033.07
592.60	2025.84
592.95	2018.01
593.30	2010.60
593.65	2002.95
594.00	1995.97
594.35	1988.71
594.70	1980.50
595.05	1973.15
595.40	1965.78
595.75	1958.26
596.10	1951.95
596.45	1945.10
596.80	1939.04
597.15	1932.25
597.50	1925.16
597.85	1918.59
598.19	1911.80
598.54	1904.71
598.89	1898.12
599.24	1892.27
599.59	1885.47
599.94	1879.26
600.29	1873.03
600.64	1866.41
600.99	1858.82
601.34	1851.75
601.69	1844.74
602.04	1837.79
602.39	1830.32
602.74	1823.51
603.08	1816.72
603.43	1810.03
603.78	1802.80
604.13	1795.57
604.48	1788.15
604.83	1781.21
605.18	1774.10
605.53	1766.10
605.87	1758.09
606.22	1750.77
606.57	1742.68
606.92	1735.46
607.27	1728.14
607.62	1721.20
607.96	1713.91
608.31	1707.21
608.66	1699.48
609.01	1691.84
609.36	1684.28
609.70	1676.27
610.05	1668.12
610.40	1660.36
610.75	1651.97
611.10	1644.24
611.44	1635.83
611.79	1627.99
612.14	1619.36
612.49	1610.40
612.83	1602.05
613.18	1593.90
613.53	1585.80
613.88	1577.42
614.22	1569.16
614.57	1560.62
614.92	1552.53
615.27	1544.96
615.61	1536.71
615.96	1528.81
616.31	1521.27
616.65	1513.88
617.00	1506.39
617.35	1498.78
617.70	1490.36
618.04	1481.80
618.39	1473.55
618.74	1465.96
619.08	1457.65
619.43	1450.05
619.78	1443.06
620.12	1435.85
620.47	1428.25
620.82	1420.12
621.16	1412.64
621.51	1405.06
621.85	1397.37
622.20	1388.78
622.55	1380.50
622.89	1372.68
623.24	1365.17
623.59	1357.73
623.93	1350.29
624.28	1342.97
624.62	1335.41
624.97	1328.35
625.32	1321.64
625.66	1314.70
626.01	1307.45
626.35	1299.84
626.70	1292.15
627.04	1284.41
627.39	1276.69
627.73	1269.35
628.08	1262.45
628.43	1255.12
628.77	1247.62
629.12	1240.17
629.46	1233.09
629.81	1225.69
630.15	1218.43
630.50	1210.96
630.84	1202.86
631.19	1194.94
631.53	1187.51
631.88	1180.08
632.22	1172.52
632.57	1165.24
632.91	1157.68
633.26	1150.33
633.60	1143.18
633.95	1136.09
634.29	1129.22
634.64	1122.59
634.98	1115.28
635.32	1108.12
635.67	1101.64
636.01	1095.07
636.36	1088.25
636.70	1081.77
637.05	1075.16
637.39	1068.77
637.73	1062.22
638.08	1056.37
638.42	1050.34
638.77	1043.89
639.11	1037.24
639.45	1030.88
639.80	1024.28
640.14	1017.79
640.49	1011.26
640.83	1004.92
641.17	998.77
641.52	992.38
641.86	985.93
642.20	980.06
642.55	973.86
642.89	967.42
643.23	960.90
643.58	955.18
643.92	948.94
644.26	942.88
644.61	936.86
644.95	930.80
645.29	924.12
645.64	917.39
645.98	911.11
646.32	905.36
646.66	899.33
647.01	893.64
647.35	887.97
647.69	882.15
648.04	876.69
648.38	870.85
648.72	864.76
649.06	858.60
649.41	852.62
649.75	846.51
650.09	840.45
650.43	834.62
650.78	828.47
651.12	822.54
651.46	816.83
651.80	811.00
652.14	805.67
652.49	800.36
652.83	795.15
653.17	789.36
653.51	783.56
653.85	778.16
654.20	772.36
654.54	766.42
654.88	760.71
655.22	754.77
655.56	749.07
655.90	743.65
656.25	738.54
656.59	733.28
656.93	728.28
657.27	723.21
657.61	717.82
657.95	712.74
658.29	707.75
658.64	702.51
658.98	697.29
659.32	691.80
659.66	686.58
660.00	681.34
660.34	676.50
660.68	671.60
661.02	666.64
661.36	662.05
661.70	657.49
662.05	653.16
662.39	648.82
662.73	644.42
663.07	640.05
663.41	635.53
663.75	631.00
664.09	626.41
664.43	622.04
664.77	617.89
665.11	613.69
665.45	609.53
665.79	605.49
666.13	601.37
666.47	597.36
666.81	593.21
667.15	589.09
667.49	585.24
667.83	581.45
668.17	577.44
668.51	573.28
668.85	569.36
669.19	565.53
669.53	561.67
669.87	557.76
670.21	554.10
670.55	550.52
670.89	547.19
671.23	543.82
671.57	540.32
671.91	536.87
672.25	533.34
672.58	529.82
672.92	526.47
673.26	523.35
673.60	520.21
673.94	517.12
674.28	514.21
674.62	511.20
674.96	508.18
675.30	505.22
675.64	502.38
675.97	499.56
676.31	496.62
676.65	493.76
676.99	491.08
677.33	488.23
677.67	485.39
678.01	482.26
678.34	479.29
678.68	476.42
679.02	473.57
679.36	470.85
679.70	468.13
680.04	465.32
680.37	462.38
680.71	459.61
681.05	456.99
681.39	454.26
681.73	451.61
682.06	449.02
682.40	446.60
682.74	444.04
683.08	441.50
683.42	439.02
683.75	436.56
684.09	434.05
684.43	431.59
684.77	429.19
685.10	426.91
685.44	424.60
685.78	422.33
686.12	420.10
686.45	417.81
686.79	415.54
687.13	413.36
687.46	411.26
687.80	409.10
688.14	406.88
688.48	404.88
688.81	402.66
689.15	400.52
689.49	398.34
689.82	396.28
690.16	394.20
690.50	392.19
690.83	390.26
691.17	388.24
691.51	386.33
691.84	384.50
692.18	382.55
692.52	380.59
692.85	378.71
693.19	376.84
693.52	375.03
693.86	373.19
694.20	371.43
694.53	369.61
694.87	367.76
695.21	366.02
695.54	364.16
695.88	362.45
696.21	360.75
696.55	359.07
696.88	357.41
697.22	355.78
697.56	354.15
697.89	352.47
698.23	350.89
698.56	349.28
698.90	347.68
699.23	346.05
699.57	344.46
699.90	342.89
700.24	341.37
700.58	339.81
700.91	338.34
701.25	336.88
701.58	335.51
701.92	334.13
702.25	332.75
702.59	331.42
702.92	330.13
703.26	328.81
703.59	327.55
703.93	326.36
704.26	325.11
704.60	323.83
704.93	322.59
705.26	321.36
705.60	320.22
705.93	319.06
706.27	318.04
706.60	317.05
706.94	315.98
707.27	314.87
707.61	313.80
707.94	312.81
708.27	311.75
708.61	310.71
708.94	309.75
709.28	308.77
709.61	307.82
709.94	306.87
710.28	305.91
710.61	304.95
710.95	303.91
711.28	303.01
711.61	302.10
711.95	301.16
712.28	300.24
712.61	299.24
712.95	298.32
713.28	297.46
713.61	296.55
713.95	295.64
714.28	294.83
714.61	294.00
714.95	293.15
715.28	292.27
715.61	291.42
715.95	290.57
716.28	289.74
716.61	288.92
716.95	288.13
717.28	287.39
717.61	286.63
717.94	285.89
718.28	285.08
718.61	284.33
718.94	283.64
719.27	282.99
719.61	282.36
719.94	281.70
720.27	280.99
720.60	280.30
720.94	279.70
721.27	279.09
721.60	278.53
721.93	277.96
722.27	277.40
722.60	276.85
722.93	276.28
723.26	275.74
723.59	275.13
723.93	274.60
724.26	274.01
724.59	273.47
724.92	272.95
725.25	272.49
725.59	271.96
725.92	271.42
726.25	270.87
726.58	270.36
726.91	269.87
727.24	269.36
727.57	268.92
727.91	268.38
728.24	267.88
728.57	267.33
728.90	266.86
729.23	266.35
729.56	265.93
729.89	265.47
730.22	264.97
730.55	264.53
730.89	264.08
731.22	263.62
731.55	263.17
731.88	262.75
732.21	262.28
732.54	261.83
732.87	261.42
733.20	261.06
733.53	260.67
733.86	260.29
734.19	259.91
734.52	259.51
734.85	259.24
735.18	258.86
735.51	258.55
735.84	258.17
736.17	257.84
736.50	257.41
736.83	257.18
737.16	256.86
737.49	256.55
737.82	256.16
738.15	255.86
738.48	255.52
738.81	255.18
739.14	254.85
739.47	254.55
739.80	254.23
740.13	253.87
740.46	253.55
740.79	253.22
741.12	252.89
741.45	252.60
741.78	252.23
742.11	251.93
742.44	251.57
742.77	251.33
743.10	251.04
743.43	250.74
743.75	250.32
744.08	250.20
744.41	249.90
744.74	249.66
745.07	249.36
745.40	249.12
745.73	248.87
746.06	248.62
746.39	248.39
746.71	248.14
747.04	247.90
747.37	247.65
747.70	247.37
748.03	247.11
748.36	246.86
748.68	246.61
749.01	246.37
749.34	246.15
749.67	245.87
750.00	245.63
750.33	245.49
750.65	245.29
750.98	244.93
751.31	244.70
751.64	244.51
751.97	244.35
752.29	244.12
752.62	243.88
752.95	243.69
753.28	243.45
753.60	243.28
753.93	243.13
754.26	242.94
754.59	242.75
754.91	242.56
755.24	242.38
755.57	242.23
755.90	242.02
756.22	241.82
756.55	241.61
756.88	241.44
757.20	241.21
757.53	241.02
757.86	240.84
758.19	240.71
758.51	240.55
758.84	240.37
759.17	240.20
759.49	240.06
759.82	239.94
760.15	239.82
760.47	239.66
760.80	239.49
761.13	239.38
761.45	239.23
761.78	239.10
762.11	238.98
762.43	238.84
762.76	238.73
763.08	238.63
763.41	238.54
763.74	238.40
764.06	238.26
764.39	238.14
764.71	238.01
765.04	237.85
765.37	237.68
765.69	237.53
766.02	237.43
766.34	237.27
766.67	237.11
767.00	237.01
767.32	236.93
767.65	236.87
767.97	236.72
768.30	236.64
768.62	236.53
768.95	236.37
769.27	236.25
769.60	236.14
769.92	236.01
770.25	235.85
770.57	235.74
770.90	235.65
771.22	235.52
771.55	235.40
771.87	235.34
772.20	235.25
772.52	235.27
772.85	235.27
773.17	235.22
773.50	235.13
773.82	235.03
774.15	234.89
774.47	234.72
774.80	234.63
775.12	234.53
775.45	234.43
775.77	234.37
776.09	234.28
776.42	234.18
776.74	234.11
777.07	234.03
777.39	233.96
777.72	233.86
778.04	233.83
778.36	233.77
778.69	233.68
779.01	233.62
779.33	233.43
779.66	233.25
779.98	233.12
780.31	233.02
780.63	232.97
780.95	232.95
781.28	232.94
781.60	232.85
781.92	232.76
782.25	232.70
782.57	232.62
782.89	232.55
783.22	232.50
783.54	232.43
783.86	232.39
784.19	232.37
784.51	232.36
784.83	232.26
785.16	232.19
785.48	232.11
785.80	232.06
786.12	232.03
786.45	231.99
786.77	231.99
787.09	231.99
787.42	231.92
787.74	231.84
788.06	231.75
788.38	231.72
788.71	231.70
789.03	231.67
789.35	231.65
789.67	231.62
789.99	231.59
790.32	231.58
790.64	231.54
790.96	231.57
791.28	231.51
791.61	231.51
791.93	231.50
792.25	231.50
792.57	231.54
792.89	231.48
793.21	231.46
793.54	231.40
793.86	231.33
794.18	231.29
794.50	231.23
794.82	231.19
795.14	231.20
795.47	231.16
795.79	231.15
796.11	231.10
796.43	231.08
796.75	231.04
797.07	230.99
797.39	230.98
797.71	230.87
798.04	230.84
798.36	230.80
798.68	230.77
799.00	230.74
799.32	230.66
799.64	230.70
799.96	230.66
800.28	230.67
800.60	230.62
800.92	230.59
801.24	230.59
801.56	230.55
801.89	230.48
802.21	230.47
802.53	230.41
802.85	230.38
803.17	230.36
803.49	230.30
803.81	230.29
804.13	230.24
804.45	230.17
804.77	230.15
805.09	230.09
805.41	230.06
805.73	230.00
806.05	229.92
806.37	229.86
806.69	229.82
807.01	229.76
807.33	229.73
807.65	229.67
807.97	229.72
808.28	229.70
808.60	229.69
808.92	229.63
809.24	229.63
809.56	229.60
809.88	229.57
810.20	229.58
810.52	229.54
810.84	229.50
811.16	229.50
811.48	229.46
811.80	229.47
812.12	229.45
812.43	229.44
812.75	229.45
813.07	229.40
813.39	229.36
813.71	229.36
814.03	229.36
814.35	229.36
814.67	229.26
814.98	229.23
815.30	229.19
815.62	229.15
815.94	229.10
816.26	229.11
816.58	229.04
816.89	228.99
817.21	228.93
817.53	228.91
817.85	228.89
818.17	228.87
818.48	228.79
818.80	228.74
819.12	228.69
819.44	228.66
819.76	228.63
820.07	228.62
820.39	228.60
820.71	228.58
821.03	228.57
821.34	228.52
821.66	228.51
821.98	228.49
822.30	228.49
822.61	228.55
822.93	228.51
823.25	228.48
823.57	228.43
823.88	228.49
824.20	228.48
824.52	228.45
824.83	228.41
825.15	228.40
825.47	228.39
825.79	228.40
826.10	228.37
826.42	228.36
826.74	228.32
827.05	228.30
827.37	228.27
827.69	228.24
828.00	228.22
828.32	228.21
828.64	228.20
828.95	228.23
829.27	228.17
829.58	228.14
829.90	228.18
830.22	228.19
830.53	228.15
830.85	228.12
831.17	228.11
831.48	228.12
831.80	228.13
832.11	228.12
832.43	228.09
832.75	228.10
833.06	228.15
833.38	228.13
833.69	228.14
834.01	228.13
834.32	228.14
834.64	228.15
834.96	228.16
835.27	228.15
835.59	228.12
835.90	228.11
836.22	228.11
836.53	228.07
836.85	228.11
837.16	228.18
837.48	228.18
837.79	228.20
838.11	228.20
838.42	228.20
838.74	228.23
839.05	228.24
839.37	228.23
839.68	228.16
840.00	228.15
840.31	228.13
840.63	228.11
840.94	228.09
841.26	228.08
841.57	228.06
841.88	228.05
842.20	228.05
842.51	228.03
842.83	228.02
843.14	228.11
843.46	228.10
843.77	228.05
844.08	228.05
844.40	228.03
844.71	228.01
845.03	228.02
845.34	227.98
845.65	227.98
845.97	227.97
846.28	227.94
846.60	227.97
846.91	227.95
847.22	227.96
847.54	227.96
847.85	227.97
848.16	227.98
848.48	227.97
848.79	227.98
849.10	227.98
849.42	228.00
849.73	227.94
850.04	227.92
850.36	227.88
850.67	227.88
850.98	227.87
851.30	227.87
851.61	227.84
851.92	227.82
852.23	227.87
852.55	227.87
852.86	227.92
853.17	227.91
853.49	227.94
853.80	227.95
854.11	227.98
854.42	227.97
854.74	227.93
855.05	227.89
855.36	227.83
855.67	227.81
855.99	227.83
856.30	227.91
856.61	227.90
856.92	227.89
857.23	227.91
857.55	227.89
857.86	227.89
858.17	227.92
858.48	227.92
858.79	227.89
859.11	227.89
859.42	227.87
859.73	227.84
860.04	227.82
860.35	227.78
860.66	227.75
860.98	227.74
861.29	227.76
861.60	227.78
861.91	227.80
862.22	227.79
862.53	227.74
862.84	227.60
863.16	227.62
863.47	227.60
863.78	227.57
864.09	227.59
864.40	227.59
864.71	227.56
865.02	227.58
865.33	227.55
865.64	227.50
865.95	227.47
866.27	227.56
866.58	227.59
866.89	227.60
867.20	227.58
867.51	227.57
867.82	227.57
868.13	227.64
868.44	227.63
868.75	227.66
869.06	227.69
869.37	227.71
869.68	227.68
869.99	227.73
870.30	227.68
870.61	227.66
870.92	227.61
871.23	227.62
871.54	227.62
871.85	227.65
872.16	227.68
872.47	227.68
872.78	227.61
873.09	227.60
873.40	227.59
873.71	227.60
874.02	227.62
874.33	227.60
874.64	227.52
874.95	227.53
875.26	227.50
875.56	227.47
875.87	227.46
876.18	227.45
876.49	227.53
876.80	227.57
877.11	227.57
877.42	227.63
877.73	227.66
878.04	227.67
878.35	227.64
878.66	227.67
878.96	227.64
879.27	227.63
879.58	227.60
879.89	227.61
880.20	227.63
880.51	227.63
880.82	227.64
881.12	227.68
881.43	227.63
881.74	227.62
882.05	227.62
882.36	227.65
882.67	227.68
882.97	227.58
883.28	227.57
883.59	227.58
883.90	227.56
884.21	227.57
884.51	227.54
884.82	227.53
885.13	227.47
885.44	227.49
885.74	227.49
886.05	227.51
886.36	227.53
886.67	227.48
886.98	227.51
887.28	227.51
887.59	227.48
887.90	227.53
888.20	227.52
888.51	227.53
888.82	227.50
889.13	227.50
889.43	227.55
889.74	227.56
890.05	227.54
890.35	227.52
890.66	227.48
890.97	227.51
891.28	227.51
891.58	227.52
891.89	227.52
892.20	227.50
892.50	227.47
892.81	227.43
893.12	227.46
893.42	227.43
893.73	227.42
894.04	227.41
894.34	227.37
894.65	227.38
894.95	227.39
895.26	227.37
895.57	227.37
895.87	227.30
896.18	227.30
896.48	227.32
896.79	227.34
897.10	227.36
897.40	227.34
897.71	227.36
898.01	227.36
898.32	227.37
898.63	227.39
898.93	227.42
899.24	227.43
899.54	227.42
899.85	227.41
900.15	227.41
900.46	227.44
900.76	227.44
901.07	227.45
901.38	227.44
901.68	227.46
901.99	227.46
902.29	227.45
902.60	227.44
902.90	227.45
903.21	227.47
903.51	227.44
903.82	227.46
904.12	227.41
904.43	227.46
904.73	227.45
905.03	227.43
905.34	227.51
905.64	227.51
905.95	227.49
906.25	227.51
906.56	227.50
906.86	227.49
907.17	227.52
907.47	227.52
907.77	227.50
908.08	227.47
908.38	227.48
908.69	227.50
908.99	227.49
909.30	227.46
909.60	227.42
909.90	227.42
910.21	227.39
910.51	227.41
910.81	227.40
911.12	227.42
911.42	227.45
911.73	227.36
912.03	227.37
912.33	227.43
912.64	227.41
912.94	227.44
913.24	227.43
913.55	227.41
913.85	227.42
914.15	227.45
914.46	227.49
914.76	227.45
915.06	227.44
915.37	227.44
915.67	227.46
915.97	227.48
916.27	227.45
916.58	227.45
916.88	227.48
917.18	227.45
917.49	227.49
917.79	227.46
918.09	227.48
918.39	227.49
918.70	227.46
919.00	227.45
919.30	227.49
919.60	227.45
919.91	227.45
920.21	227.42
920.51	227.39
920.81	227.36
921.12	227.40
921.42	227.39
921.72	227.38
922.02	227.38
922.32	227.39
922.63	227.40
922.93	227.45
923.23	227.41
923.53	227.41
923.83	227.34
924.13	227.36
924.44	227.34
924.74	227.35
925.04	227.37
925.34	227.37
925.64	227.30
925.94	227.35
926.24	227.42
926.55	227.44
926.85	227.43
927.15	227.43
927.45	227.39
927.75	227.38
928.05	227.40
928.35	227.37
928.65	227.35
928.95	227.35
929.26	227.35
929.56	227.35
929.86	227.34
930.16	227.33
930.46	227.29
930.76	227.27
931.06	227.21
931.36	227.17
931.66	227.16
931.96	227.16
932.26	227.12
932.56	227.03
932.86	227.04
933.16	227.06
933.46	227.02
933.76	227.03
934.06	227.04
934.36	227.05
934.66	227.05
934.96	227.05
935.26	227.03
935.56	227.01
935.86	226.99
936.16	226.96
936.46	226.96
936.76	226.94
937.06	226.93
937.36	226.96
937.66	226.93
937.96	226.91
938.26	226.90
938.56	226.92
938.86	226.94
939.16	226.91
939.46	226.89
939.76	226.93
940.06	226.93
940.35	226.92
940.65	226.87
940.95	226.89
941.25	226.91
941.55	226.93
941.85	226.93
942.15	226.96
942.45	226.98
942.75	227.02
943.04	227.07
943.34	227.13
943.64	227.10
943.94	227.13
944.24	227.12
944.54	227.14
944.84	227.12
945.13	227.12
945.43	227.09
945.73	227.11
946.03	227.11
946.33	227.12
946.62	227.11
946.92	227.11
947.22	227.11
947.52	227.11
947.82	227.11
948.11	227.12
948.41	227.12
948.71	227.13
949.01	227.12
949.31	227.08
949.60	227.06
949.90	227.08
950.20	227.12
950.50	227.18
950.79	227.15
951.09	227.17
951.39	227.19
951.69	227.22
951.98	227.27
952.28	227.27
952.58	227.26
952.87	227.31
953.17	227.34
953.47	227.33
953.76	227.32
954.06	227.31
954.36	227.27
954.66	227.27
954.95	227.30
955.25	227.32
955.55	227.35
955.84	227.35
956.14	227.38
956.44	227.36
956.73	227.33
957.03	227.36
957.32	227.39
957.62	227.38
957.92	227.41
958.21	227.40
958.51	227.50
958.81	227.55
959.10	227.51
959.40	227.55
959.69	227.54
959.99	227.55
960.29	227.57
960.58	227.56
960.88	227.58
961.17	227.58
961.47	227.55
961.76	227.56
962.06	227.57
962.36	227.53
962.65	227.54
962.95	227.56
963.24	227.56
963.54	227.55
963.83	227.56
964.13	227.56
964.42	227.52
964.72	227.42
965.01	227.36
965.31	227.38
965.60	227.34
965.90	227.39
966.19	227.37
966.49	227.37
966.78	227.37
967.08	227.35
967.37	227.33
967.67	227.33
967.96	227.33
968.26	227.32
968.55	227.33
968.85	227.31
969.14	227.27
969.43	227.23
969.73	227.23
970.02	227.20
970.32	227.18
970.61	227.18
970.91	227.13
971.20	227.09
971.49	227.07
971.79	227.06
972.08	227.00
972.38	227.00
972.67	226.96
972.96	226.98
973.26	226.95
973.55	226.96
973.85	226.95
974.14	226.90
974.43	226.91
974.73	226.88
975.02	226.86
975.31	226.88
975.61	226.89
975.90	226.87
976.19	226.87
976.49	226.88
976.78	226.87
977.07	226.86
977.37	226.90
977.66	226.89
977.95	226.89
978.24	226.91
978.54	226.91
978.83	226.92
979.12	226.90
979.42	226.87
979.71	226.88
980.00	226.86
980.29	226.87
980.59	226.85
980.88	226.89
981.17	226.90
981.46	226.88
981.76	226.89
982.05	226.92
982.34	226.91
982.63	226.89
982.93	226.92
983.22	226.99
983.51	226.99
983.80	227.04
984.09	227.05
984.39	227.06
984.68	227.07
984.97	227.07
985.26	227.09
985.55	227.16
985.85	227.12
986.14	227.15
986.43	227.20
986.72	227.21
987.01	227.19
987.30	227.19
987.59	227.19
987.89	227.19
988.18	227.15
988.47	227.16
988.76	227.15
989.05	227.15
989.34	227.13
989.63	227.18
989.92	227.14
990.22	227.18
990.51	227.17
990.80	227.20
991.09	227.19
991.38	227.22
991.67	227.19
991.96	227.20
992.25	227.21
992.54	227.18
992.83	227.19
993.12	227.21
993.41	227.21
993.70	227.25
993.99	227.26
994.28	227.27
994.58	227.29
994.87	227.29
995.16	227.27
995.45	227.26
995.74	227.23
996.03	227.25
996.32	227.23
996.61	227.26
996.90	227.22
997.19	227.23
997.48	227.23
997.77	227.22
998.06	227.21
998.34	227.22
998.63	227.22
998.92	227.21
999.21	227.20
999.50	227.19
999.79	227.18
1000.08	227.15
1000.37	227.16
1000.66	227.16
1000.95	227.19
1001.24	227.19
1001.53	227.22
1001.82	227.18
1002.11	227.17
1002.40	227.15
1002.68	227.18
1002.97	227.22
1003.26	227.23
1003.55	227.20
1003.84	227.20
1004.13	227.25
1004.42	227.19
1004.71	227.16
1004.99	227.12
1005.28	227.14
1005.57	227.17
1005.86	227.15
1006.15	227.17
1006.44	227.16
1006.72	227.16
1007.01	227.16
1007.30	227.16
1007.59	227.11
1007.88	227.14
1008.17	227.12
1008.45	227.10
1008.74	227.04
1009.03	227.00
1009.32	226.99
1009.60	226.97
1009.89	226.95
1010.18	226.90
1010.47	226.90
1010.76	226.89
1011.04	226.93
1011.33	226.93
1011.62	226.90
1011.91	226.91
1012.19	226.91
1012.48	226.89
1012.77	226.88
1013.05	226.91
1013.34	226.93
1013.63	226.91
1013.92	226.90
1014.20	226.89
1014.49	226.89
1014.78	226.88
1015.06	226.86
1015.35	226.84
1015.64	226.85
1015.92	226.86
1016.21	226.85
1016.50	226.86
1016.78	226.89
1017.07	226.88
1017.36	226.88
1017.64	226.88
1017.93	226.87
1018.22	226.86
1018.50	226.89
1018.79	226.89
1019.08	226.82
1019.36	226.81
1019.65	226.84
1019.93	226.84
1020.22	226.86
1020.51	226.89
1020.79	226.90
1021.08	226.77
1021.36	227.30
1021.65	226.90
1021.94	226.53
1022.22	226.97
1022.51	227.12
1022.79	226.79
1023.08	226.82
1023.36	227.65
1023.65	226.84
>>>>>End Processed Spectral Data<<<<<
