SpectraSuite Data File
++++++++++++++++++++++++++++++++++++
Date: Fri Feb 01 17:44:38 EST 2013
User: group
Dark Spectrum Present: No
Reference Spectrum Present: No
Number of Sampled Component Spectra: 1
Spectrometers: USB2E7196
Integration Time (usec): 35000 (USB2E7196)
Spectra Averaged: 100 (USB2E7196)
Boxcar Smoothing: 10 (USB2E7196)
Correct for Electrical Dark: No (USB2E7196)
Strobe/Lamp Enabled: No (USB2E7196)
Correct for Detector Non-linearity: No (USB2E7196)
Correct for Stray Light: No (USB2E7196)
Number of Pixels in Processed Spectrum: 2048
>>>>>Begin Processed Spectral Data<<<<<
339.09	0.00
339.48	212.64
339.86	213.97
340.24	215.12
340.63	216.73
341.01	219.88
341.39	220.08
341.78	220.90
342.16	222.28
342.54	222.35
342.93	211.05
343.31	221.72
343.69	222.28
344.07	222.76
344.46	223.21
344.84	223.60
345.22	223.83
345.60	224.07
345.99	224.24
346.37	224.36
346.75	224.45
347.13	224.53
347.52	224.57
347.90	224.62
348.28	224.63
348.66	224.71
349.05	224.70
349.43	224.77
349.81	224.83
350.19	224.91
350.57	224.96
350.96	224.99
351.34	225.10
351.72	225.13
352.10	225.23
352.48	225.25
352.87	225.31
353.25	225.36
353.63	225.43
354.01	225.49
354.39	225.53
354.77	225.65
355.15	225.72
355.54	225.76
355.92	225.80
356.30	225.87
356.68	226.01
357.06	226.07
357.44	226.10
357.82	226.14
358.20	226.19
358.58	226.27
358.97	226.35
359.35	226.40
359.73	226.49
360.11	226.54
360.49	226.62
360.87	226.65
361.25	226.69
361.63	226.72
362.01	226.77
362.39	226.83
362.77	226.84
363.15	226.90
363.53	226.97
363.91	227.04
364.29	227.05
364.67	226.95
365.05	226.96
365.43	227.00
365.81	227.02
366.19	227.05
366.57	227.07
366.95	227.03
367.33	227.01
367.71	227.01
368.09	227.00
368.47	227.02
368.85	226.98
369.23	227.01
369.61	226.95
369.99	226.98
370.37	226.97
370.75	226.98
371.13	226.91
371.51	226.85
371.89	226.80
372.27	226.78
372.65	226.77
373.03	226.75
373.41	226.72
373.78	226.67
374.16	226.59
374.54	226.54
374.92	226.50
375.30	226.44
375.68	226.38
376.06	226.30
376.44	226.21
376.82	226.20
377.19	226.13
377.57	226.09
377.95	226.03
378.33	225.96
378.71	225.86
379.09	225.83
379.47	225.78
379.84	225.69
380.22	225.63
380.60	225.53
380.98	225.47
381.36	225.41
381.73	225.36
382.11	225.29
382.49	225.24
382.87	225.19
383.25	225.14
383.62	225.20
384.00	225.16
384.38	225.11
384.76	225.07
385.13	225.05
385.51	225.01
385.89	224.94
386.27	224.93
386.64	224.88
387.02	224.83
387.40	224.79
387.78	224.77
388.15	224.72
388.53	224.70
388.91	224.64
389.29	224.60
389.66	224.58
390.04	224.57
390.42	224.57
390.79	224.51
391.17	224.48
391.55	224.35
391.92	224.35
392.30	224.34
392.68	224.31
393.05	224.32
393.43	224.31
393.81	224.31
394.18	224.29
394.56	224.32
394.94	224.35
395.31	224.36
395.69	224.41
396.06	224.45
396.44	224.45
396.82	224.47
397.19	224.54
397.57	224.55
397.95	224.63
398.32	224.61
398.70	224.67
399.07	224.74
399.45	224.79
399.82	224.87
400.20	224.94
400.58	224.99
400.95	225.01
401.33	225.13
401.70	225.25
402.08	225.33
402.45	225.41
402.83	225.52
403.20	225.62
403.58	225.71
403.95	225.84
404.33	226.00
404.71	226.12
405.08	226.31
405.46	226.47
405.83	226.59
406.21	226.79
406.58	226.98
406.96	227.15
407.33	227.34
407.70	227.54
408.08	227.85
408.45	228.10
408.83	228.39
409.20	228.62
409.58	228.88
409.95	229.19
410.33	229.50
410.70	229.79
411.08	230.15
411.45	230.57
411.82	230.94
412.20	231.39
412.57	231.92
412.95	232.29
413.32	232.77
413.69	233.34
414.07	233.86
414.44	234.41
414.82	235.02
415.19	235.71
415.56	236.37
415.94	237.04
416.31	237.80
416.68	238.55
417.06	239.43
417.43	240.23
417.81	241.19
418.18	242.17
418.55	243.23
418.93	244.31
419.30	245.35
419.67	246.51
420.04	247.65
420.42	248.86
420.79	250.30
421.16	251.71
421.54	253.13
421.91	254.62
422.28	256.21
422.66	257.85
423.03	259.44
423.40	261.11
423.77	262.84
424.15	264.64
424.52	266.47
424.89	268.49
425.26	270.42
425.64	272.19
426.01	274.16
426.38	276.18
426.75	278.23
427.13	280.42
427.50	282.67
427.87	285.05
428.24	287.38
428.61	289.57
428.99	291.98
429.36	294.60
429.73	297.17
430.10	299.63
430.47	302.18
430.85	304.81
431.22	307.60
431.59	310.54
431.96	313.33
432.33	316.43
432.70	319.38
433.08	322.85
433.45	326.10
433.82	329.28
434.19	332.84
434.56	336.28
434.93	339.54
435.30	342.73
435.68	346.24
436.05	349.73
436.42	353.18
436.79	356.27
437.16	359.59
437.53	363.06
437.90	366.56
438.27	369.92
438.64	373.43
439.01	376.63
439.38	379.40
439.75	382.08
440.13	385.14
440.50	387.96
440.87	390.25
441.24	392.72
441.61	395.40
441.98	397.29
442.35	399.58
442.72	401.89
443.09	404.18
443.46	405.47
443.83	406.16
444.20	406.84
444.57	407.89
444.94	408.28
445.31	408.75
445.68	409.17
446.05	409.34
446.42	408.92
446.79	408.44
447.16	407.95
447.53	407.56
447.90	406.14
448.27	404.79
448.64	402.87
449.01	401.47
449.37	399.08
449.74	396.72
450.11	393.95
450.48	390.91
450.85	387.78
451.22	385.13
451.59	382.69
451.96	380.29
452.33	377.13
452.70	374.21
453.07	370.73
453.43	367.21
453.80	363.75
454.17	360.44
454.54	357.27
454.91	353.84
455.28	350.56
455.65	347.50
456.02	344.40
456.38	341.76
456.75	338.45
457.12	335.68
457.49	332.93
457.86	330.24
458.23	327.91
458.59	325.35
458.96	322.75
459.33	320.43
459.70	318.05
460.07	316.15
460.43	314.00
460.80	311.95
461.17	310.14
461.54	308.29
461.91	306.50
462.27	304.68
462.64	303.14
463.01	301.43
463.38	299.78
463.74	298.10
464.11	296.61
464.48	295.31
464.85	293.90
465.21	292.82
465.58	291.64
465.95	290.29
466.32	289.18
466.68	288.07
467.05	286.95
467.42	285.87
467.78	284.72
468.15	283.63
468.52	282.78
468.88	281.69
469.25	280.73
469.62	279.93
469.98	279.09
470.35	278.29
470.72	277.51
471.08	276.68
471.45	276.04
471.82	275.36
472.18	274.61
472.55	274.06
472.92	273.39
473.28	272.79
473.65	272.25
474.02	271.65
474.38	271.17
474.75	270.74
475.11	270.30
475.48	269.91
475.85	269.60
476.21	269.29
476.58	269.03
476.94	268.80
477.31	268.56
477.67	268.34
478.04	268.18
478.41	268.08
478.77	268.11
479.14	267.97
479.50	267.92
479.87	267.96
480.23	267.98
480.60	268.01
480.96	268.10
481.33	268.24
481.69	268.40
482.06	268.58
482.42	268.73
482.79	268.98
483.15	269.30
483.52	269.69
483.88	270.00
484.25	270.37
484.61	270.77
484.98	271.17
485.34	271.74
485.71	272.31
486.07	272.91
486.44	273.46
486.80	274.15
487.17	274.88
487.53	275.69
487.90	276.57
488.26	277.52
488.62	278.52
488.99	279.52
489.35	280.60
489.72	281.71
490.08	282.95
490.44	284.18
490.81	285.55
491.17	286.90
491.54	288.44
491.90	290.00
492.26	291.70
492.63	293.48
492.99	295.31
493.36	297.24
493.72	299.36
494.08	301.53
494.45	303.86
494.81	306.29
495.17	308.77
495.54	311.42
495.90	314.17
496.26	317.07
496.63	320.10
496.99	323.29
497.35	326.68
497.72	330.17
498.08	333.83
498.44	337.57
498.80	341.63
499.17	345.80
499.53	350.14
499.89	354.65
500.26	359.33
500.62	364.12
500.98	369.25
501.34	374.49
501.71	379.94
502.07	385.53
502.43	391.31
502.79	397.33
503.16	403.59
503.52	410.07
503.88	416.68
504.24	423.49
504.60	430.62
504.97	437.99
505.33	445.55
505.69	453.53
506.05	461.68
506.41	469.85
506.78	478.24
507.14	487.02
507.50	496.02
507.86	505.31
508.22	514.87
508.59	524.42
508.95	534.32
509.31	544.51
509.67	555.02
510.03	565.70
510.39	576.68
510.75	587.88
511.12	599.28
511.48	611.04
511.84	622.99
512.20	635.03
512.56	647.46
512.92	660.11
513.28	672.97
513.64	685.91
514.00	699.15
514.37	712.73
514.73	726.31
515.09	739.88
515.45	753.82
515.81	767.95
516.17	782.60
516.53	797.42
516.89	812.35
517.25	827.22
517.61	842.29
517.97	857.48
518.33	872.61
518.69	888.02
519.05	903.66
519.41	919.61
519.77	935.89
520.13	952.01
520.49	968.25
520.85	984.37
521.21	1000.76
521.57	1017.84
521.93	1034.33
522.29	1051.53
522.65	1068.82
523.01	1085.89
523.37	1102.77
523.73	1119.72
524.09	1136.64
524.45	1153.70
524.81	1171.25
525.17	1188.98
525.53	1206.75
525.89	1224.63
526.25	1242.47
526.61	1259.81
526.97	1277.54
527.33	1294.91
527.68	1312.53
528.04	1329.98
528.40	1347.60
528.76	1365.87
529.12	1383.51
529.48	1401.57
529.84	1418.60
530.20	1436.24
530.56	1454.23
530.91	1472.83
531.27	1490.92
531.63	1508.53
531.99	1526.37
532.35	1543.63
532.71	1560.73
533.07	1578.24
533.42	1595.40
533.78	1612.76
534.14	1630.31
534.50	1646.98
534.86	1664.23
535.21	1680.82
535.57	1698.13
535.93	1714.96
536.29	1731.13
536.65	1747.52
537.00	1763.69
537.36	1780.52
537.72	1796.30
538.08	1812.16
538.44	1827.34
538.79	1842.58
539.15	1857.62
539.51	1872.82
539.87	1888.48
540.22	1903.61
540.58	1918.78
540.94	1933.38
541.29	1947.54
541.65	1961.69
542.01	1976.27
542.37	1990.02
542.72	2003.92
543.08	2017.26
543.44	2031.07
543.79	2043.71
544.15	2056.08
544.51	2069.12
544.87	2081.36
545.22	2093.74
545.58	2105.55
545.94	2116.76
546.29	2128.11
546.65	2139.50
547.01	2150.12
547.36	2160.26
547.72	2170.26
548.07	2179.69
548.43	2189.21
548.79	2198.46
549.14	2207.49
549.50	2216.11
549.86	2225.05
550.21	2233.77
550.57	2242.16
550.92	2250.14
551.28	2258.60
551.64	2267.00
551.99	2274.77
552.35	2282.51
552.70	2290.06
553.06	2297.40
553.41	2305.08
553.77	2312.18
554.13	2319.55
554.48	2326.99
554.84	2333.94
555.19	2340.27
555.55	2346.59
555.90	2352.43
556.26	2358.92
556.61	2364.79
556.97	2370.52
557.32	2376.01
557.68	2381.17
558.03	2386.77
558.39	2391.63
558.74	2397.38
559.10	2402.54
559.45	2407.27
559.81	2412.60
560.16	2417.56
560.52	2421.82
560.87	2426.40
561.23	2430.23
561.58	2433.87
561.94	2437.42
562.29	2440.52
562.64	2444.58
563.00	2448.21
563.35	2452.64
563.71	2456.75
564.06	2460.83
564.42	2464.74
564.77	2468.29
565.12	2471.84
565.48	2474.72
565.83	2477.71
566.19	2480.02
566.54	2481.72
566.89	2483.91
567.25	2485.40
567.60	2487.35
567.96	2489.93
568.31	2491.33
568.66	2493.30
569.02	2494.94
569.37	2496.01
569.72	2497.72
570.08	2498.47
570.43	2499.15
570.78	2499.35
571.14	2498.21
571.49	2497.48
571.84	2497.55
572.20	2496.79
572.55	2496.02
572.90	2494.71
573.26	2493.70
573.61	2492.20
573.96	2491.01
574.31	2488.28
574.67	2485.54
575.02	2482.24
575.37	2479.07
575.72	2475.68
576.08	2472.33
576.43	2469.03
576.78	2465.71
577.13	2462.56
577.49	2459.41
577.84	2456.05
578.19	2452.30
578.54	2448.86
578.90	2444.86
579.25	2439.38
579.60	2434.59
579.95	2429.66
580.30	2424.58
580.66	2419.25
581.01	2414.16
581.36	2409.00
581.71	2404.91
582.06	2400.52
582.42	2396.01
582.77	2390.52
583.12	2385.81
583.47	2381.25
583.82	2376.45
584.17	2370.98
584.53	2365.30
584.88	2359.48
585.23	2353.36
585.58	2347.68
585.93	2341.89
586.28	2336.65
586.63	2331.26
586.98	2325.80
587.34	2320.72
587.69	2315.51
588.04	2310.08
588.39	2304.18
588.74	2297.27
589.09	2290.55
589.44	2283.34
589.79	2276.68
590.14	2270.57
590.49	2263.51
590.84	2256.39
591.19	2249.67
591.54	2242.76
591.89	2235.14
592.25	2228.19
592.60	2220.55
592.95	2212.48
593.30	2204.76
593.65	2196.60
594.00	2189.04
594.35	2181.09
594.70	2172.29
595.05	2164.78
595.40	2156.82
595.75	2148.74
596.10	2142.18
596.45	2134.81
596.80	2127.94
597.15	2120.90
597.50	2113.60
597.85	2106.59
598.19	2099.48
598.54	2092.06
598.89	2084.78
599.24	2078.23
599.59	2070.89
599.94	2063.94
600.29	2057.03
600.64	2049.67
600.99	2041.65
601.34	2034.18
601.69	2026.43
602.04	2019.10
602.39	2010.89
602.74	2003.46
603.08	1996.14
603.43	1988.63
603.78	1980.80
604.13	1972.95
604.48	1965.11
604.83	1957.44
605.18	1950.06
605.53	1941.42
605.87	1932.45
606.22	1924.32
606.57	1915.45
606.92	1906.99
607.27	1899.35
607.62	1891.68
607.96	1883.74
608.31	1876.61
608.66	1868.30
609.01	1860.17
609.36	1851.77
609.70	1842.95
610.05	1833.97
610.40	1825.47
610.75	1816.25
611.10	1807.70
611.44	1798.17
611.79	1789.10
612.14	1779.36
612.49	1768.97
612.83	1759.49
613.18	1750.34
613.53	1741.36
613.88	1731.93
614.22	1722.83
614.57	1712.95
614.92	1703.98
615.27	1695.57
615.61	1686.22
615.96	1677.01
616.31	1668.38
616.65	1660.04
617.00	1651.58
617.35	1642.88
617.70	1633.52
618.04	1624.02
618.39	1614.67
618.74	1606.26
619.08	1597.03
619.43	1588.60
619.78	1580.80
620.12	1572.88
620.47	1564.55
620.82	1555.46
621.16	1546.88
621.51	1538.34
621.85	1529.88
622.20	1520.32
622.55	1510.80
622.89	1501.86
623.24	1493.30
623.59	1484.92
623.93	1476.48
624.28	1468.28
624.62	1459.88
624.97	1451.80
625.32	1444.08
625.66	1436.20
626.01	1428.16
626.35	1419.87
626.70	1411.24
627.04	1402.59
627.39	1393.72
627.73	1385.30
628.08	1377.38
628.43	1369.39
628.77	1361.26
629.12	1352.77
629.46	1344.73
629.81	1336.38
630.15	1328.18
630.50	1319.97
630.84	1311.00
631.19	1302.08
631.53	1293.67
631.88	1285.18
632.22	1276.69
632.57	1268.45
632.91	1260.05
633.26	1251.82
633.60	1243.55
633.95	1235.40
634.29	1227.45
634.64	1219.94
634.98	1211.82
635.32	1204.02
635.67	1196.65
636.01	1189.16
636.36	1181.73
636.70	1174.43
637.05	1167.10
637.39	1159.99
637.73	1152.81
638.08	1146.18
638.42	1139.49
638.77	1132.31
639.11	1125.05
639.45	1117.86
639.80	1110.58
640.14	1103.51
640.49	1096.24
640.83	1089.14
641.17	1082.34
641.52	1075.32
641.86	1068.22
642.20	1061.57
642.55	1054.42
642.89	1047.17
643.23	1039.84
643.58	1033.35
643.92	1026.49
644.26	1019.97
644.61	1013.15
644.95	1006.37
645.29	999.17
645.64	991.77
645.98	984.73
646.32	978.12
646.66	971.47
647.01	965.02
647.35	958.69
647.69	952.09
648.04	945.94
648.38	939.54
648.72	932.99
649.06	926.31
649.41	919.76
649.75	913.24
650.09	906.70
650.43	900.32
650.78	893.48
651.12	886.89
651.46	880.38
651.80	874.16
652.14	868.13
652.49	862.12
652.83	856.30
653.17	850.16
653.51	843.99
653.85	837.94
654.20	831.73
654.54	825.07
654.88	818.77
655.22	812.26
655.56	805.87
655.90	799.75
656.25	793.91
656.59	788.06
656.93	782.38
657.27	776.69
657.61	770.57
657.95	764.92
658.29	759.25
658.64	753.45
658.98	747.55
659.32	741.51
659.66	735.74
660.00	729.96
660.34	724.41
660.68	718.96
661.02	713.45
661.36	708.17
661.70	703.23
662.05	698.39
662.39	693.69
662.73	688.76
663.07	683.93
663.41	679.05
663.75	674.11
664.09	669.04
664.43	664.18
664.77	659.70
665.11	655.06
665.45	650.54
665.79	646.10
666.13	641.55
666.47	637.01
666.81	632.48
667.15	627.90
667.49	623.63
667.83	619.36
668.17	614.96
668.51	610.59
668.85	606.12
669.19	601.85
669.53	597.59
669.87	593.35
670.21	589.26
670.55	585.20
670.89	581.41
671.23	577.64
671.57	573.77
671.91	569.93
672.25	565.99
672.58	562.06
672.92	558.24
673.26	554.76
673.60	551.31
673.94	547.91
674.28	544.72
674.62	541.41
674.96	537.99
675.30	534.84
675.64	531.58
675.97	528.47
676.31	525.35
676.65	522.11
676.99	519.10
677.33	515.90
677.67	512.79
678.01	509.49
678.34	506.26
678.68	503.07
679.02	499.90
679.36	496.84
679.70	493.87
680.04	490.82
680.37	487.71
680.71	484.60
681.05	481.62
681.39	478.57
681.73	475.59
682.06	472.79
682.40	469.96
682.74	467.16
683.08	464.38
683.42	461.46
683.75	458.70
684.09	455.87
684.43	453.16
684.77	450.46
685.10	447.84
685.44	445.21
685.78	442.66
686.12	440.19
686.45	437.65
686.79	435.14
687.13	432.72
687.46	430.28
687.80	427.93
688.14	425.45
688.48	423.19
688.81	420.75
689.15	418.33
689.49	415.95
689.82	413.53
690.16	411.14
690.50	408.95
690.83	406.78
691.17	404.54
691.51	402.43
691.84	400.40
692.18	398.25
692.52	396.09
692.85	393.89
693.19	391.82
693.52	389.78
693.86	387.71
694.20	385.73
694.53	383.69
694.87	381.58
695.21	379.61
695.54	377.57
695.88	375.63
696.21	373.75
696.55	371.87
696.88	370.06
697.22	368.20
697.56	366.39
697.89	364.50
698.23	362.74
698.56	360.91
698.90	359.09
699.23	357.27
699.57	355.57
699.90	353.88
700.24	352.13
700.58	350.42
700.91	348.78
701.25	347.17
701.58	345.69
701.92	344.25
702.25	342.71
702.59	341.21
702.92	339.78
703.26	338.33
703.59	336.90
703.93	335.60
704.26	334.27
704.60	332.89
704.93	331.53
705.26	330.16
705.60	328.88
705.93	327.58
706.27	326.44
706.60	325.27
706.94	324.11
707.27	322.87
707.61	321.68
707.94	320.54
708.27	319.32
708.61	318.09
708.94	316.95
709.28	315.86
709.61	314.82
709.94	313.68
710.28	312.53
710.61	311.43
710.95	310.24
711.28	309.19
711.61	308.12
711.95	307.14
712.28	306.12
712.61	305.04
712.95	304.02
713.28	303.01
713.61	301.98
713.95	300.95
714.28	300.01
714.61	299.09
714.95	298.12
715.28	297.18
715.61	296.20
715.95	295.25
716.28	294.31
716.61	293.37
716.95	292.48
717.28	291.65
717.61	290.80
717.94	289.97
718.28	289.13
718.61	288.30
718.94	287.47
719.27	286.73
719.61	286.00
719.94	285.32
720.27	284.50
720.60	283.79
720.94	283.08
721.27	282.43
721.60	281.78
721.93	281.14
722.27	280.54
722.60	279.96
722.93	279.30
723.26	278.70
723.59	278.07
723.93	277.48
724.26	276.89
724.59	276.27
724.92	275.68
725.25	275.11
725.59	274.56
725.92	274.01
726.25	273.45
726.58	272.91
726.91	272.35
727.24	271.86
727.57	271.30
727.91	270.75
728.24	270.24
728.57	269.69
728.90	269.16
729.23	268.63
729.56	268.15
729.89	267.66
730.22	267.09
730.55	266.57
730.89	266.08
731.22	265.57
731.55	265.12
731.88	264.62
732.21	264.16
732.54	263.66
732.87	263.21
733.20	262.72
733.53	262.26
733.86	261.83
734.19	261.39
734.52	260.97
734.85	260.67
735.18	260.18
735.51	259.77
735.84	259.37
736.17	258.94
736.50	258.47
736.83	258.21
737.16	257.87
737.49	257.50
737.82	257.10
738.15	256.74
738.48	256.31
738.81	255.97
739.14	255.58
739.47	255.23
739.80	254.84
740.13	254.51
740.46	254.15
740.79	253.76
741.12	253.42
741.45	253.06
741.78	252.62
742.11	252.37
742.44	252.00
742.77	251.67
743.10	251.37
743.43	251.04
743.75	250.59
744.08	250.43
744.41	250.12
744.74	249.81
745.07	249.50
745.40	249.26
745.73	248.99
746.06	248.68
746.39	248.39
746.71	248.10
747.04	247.80
747.37	247.50
747.70	247.21
748.03	246.92
748.36	246.66
748.68	246.43
749.01	246.14
749.34	245.86
749.67	245.61
750.00	245.34
750.33	245.17
750.65	244.94
750.98	244.55
751.31	244.29
751.64	244.08
751.97	243.87
752.29	243.62
752.62	243.36
752.95	243.13
753.28	242.91
753.60	242.69
753.93	242.50
754.26	242.31
754.59	242.08
754.91	241.88
755.24	241.65
755.57	241.42
755.90	241.19
756.22	241.01
756.55	240.77
756.88	240.56
757.20	240.29
757.53	240.08
757.86	239.87
758.19	239.70
758.51	239.52
758.84	239.30
759.17	239.13
759.49	238.95
759.82	238.85
760.15	238.70
760.47	238.54
760.80	238.34
761.13	238.20
761.45	238.02
761.78	237.86
762.11	237.75
762.43	237.59
762.76	237.42
763.08	237.29
763.41	237.19
763.74	237.05
764.06	236.91
764.39	236.76
764.71	236.65
765.04	236.49
765.37	236.33
765.69	236.20
766.02	236.03
766.34	235.90
766.67	235.69
767.00	235.57
767.32	235.46
767.65	235.38
767.97	235.25
768.30	235.18
768.62	235.03
768.95	234.83
769.27	234.69
769.60	234.60
769.92	234.44
770.25	234.29
770.57	234.17
770.90	234.05
771.22	233.94
771.55	233.78
771.87	233.66
772.20	233.56
772.52	233.55
772.85	233.58
773.17	233.48
773.50	233.35
773.82	233.21
774.15	233.09
774.47	232.96
774.80	232.83
775.12	232.69
775.45	232.60
775.77	232.57
776.09	232.47
776.42	232.39
776.74	232.35
777.07	232.25
777.39	232.14
777.72	232.06
778.04	232.00
778.36	231.93
778.69	231.86
779.01	231.77
779.33	231.57
779.66	231.34
779.98	231.25
780.31	231.20
780.63	231.20
780.95	231.14
781.28	231.05
781.60	230.95
781.92	230.89
782.25	230.84
782.57	230.75
782.89	230.68
783.22	230.62
783.54	230.52
783.86	230.42
784.19	230.33
784.51	230.29
784.83	230.18
785.16	230.11
785.48	230.07
785.80	230.01
786.12	229.99
786.45	229.97
786.77	229.91
787.09	229.82
787.42	229.72
787.74	229.68
788.06	229.61
788.38	229.56
788.71	229.50
789.03	229.47
789.35	229.41
789.67	229.37
789.99	229.32
790.32	229.27
790.64	229.28
790.96	229.31
791.28	229.23
791.61	229.20
791.93	229.19
792.25	229.16
792.57	229.17
792.89	229.08
793.21	229.02
793.54	228.94
793.86	228.90
794.18	228.86
794.50	228.78
794.82	228.77
795.14	228.73
795.47	228.70
795.79	228.65
796.11	228.62
796.43	228.58
796.75	228.52
797.07	228.48
797.39	228.40
797.71	228.36
798.04	228.32
798.36	228.29
798.68	228.23
799.00	228.19
799.32	228.11
799.64	228.11
799.96	228.06
800.28	228.07
800.60	228.05
800.92	228.02
801.24	227.98
801.56	227.94
801.89	227.91
802.21	227.85
802.53	227.78
802.85	227.74
803.17	227.76
803.49	227.69
803.81	227.65
804.13	227.63
804.45	227.59
804.77	227.55
805.09	227.51
805.41	227.49
805.73	227.44
806.05	227.39
806.37	227.36
806.69	227.34
807.01	227.30
807.33	227.28
807.65	227.21
807.97	227.22
808.28	227.20
808.60	227.20
808.92	227.20
809.24	227.25
809.56	227.23
809.88	227.14
810.20	227.17
810.52	227.14
810.84	227.13
811.16	227.08
811.48	227.10
811.80	227.11
812.12	227.07
812.43	227.08
812.75	227.04
813.07	227.03
813.39	227.00
813.71	226.99
814.03	226.99
814.35	226.99
814.67	226.94
814.98	226.89
815.30	226.85
815.62	226.82
815.94	226.71
816.26	226.76
816.58	226.76
816.89	226.74
817.21	226.70
817.53	226.66
817.85	226.64
818.17	226.57
818.48	226.53
818.80	226.54
819.12	226.48
819.44	226.47
819.76	226.46
820.07	226.44
820.39	226.41
820.71	226.39
821.03	226.36
821.34	226.35
821.66	226.35
821.98	226.36
822.30	226.38
822.61	226.44
822.93	226.35
823.25	226.30
823.57	226.26
823.88	226.28
824.20	226.29
824.52	226.30
824.83	226.30
825.15	226.27
825.47	226.26
825.79	226.27
826.10	226.25
826.42	226.21
826.74	226.20
827.05	226.18
827.37	226.15
827.69	226.18
828.00	226.15
828.32	226.13
828.64	226.08
828.95	226.10
829.27	226.04
829.58	226.02
829.90	226.03
830.22	226.05
830.53	225.98
830.85	225.92
831.17	225.90
831.48	225.87
831.80	225.87
832.11	225.85
832.43	225.84
832.75	225.82
833.06	225.85
833.38	225.80
833.69	225.76
834.01	225.77
834.32	225.74
834.64	225.73
834.96	225.71
835.27	225.72
835.59	225.64
835.90	225.60
836.22	225.59
836.53	225.57
836.85	225.53
837.16	225.64
837.48	225.65
837.79	225.65
838.11	225.64
838.42	225.63
838.74	225.61
839.05	225.56
839.37	225.56
839.68	225.50
840.00	225.54
840.31	225.57
840.63	225.53
840.94	225.52
841.26	225.48
841.57	225.50
841.88	225.50
842.20	225.49
842.51	225.49
842.83	225.49
843.14	225.53
843.46	225.52
843.77	225.46
844.08	225.45
844.40	225.42
844.71	225.42
845.03	225.37
845.34	225.36
845.65	225.36
845.97	225.36
846.28	225.36
846.60	225.32
846.91	225.28
847.22	225.29
847.54	225.26
847.85	225.29
848.16	225.24
848.48	225.20
848.79	225.23
849.10	225.23
849.42	225.24
849.73	225.15
850.04	225.13
850.36	225.08
850.67	225.08
850.98	225.06
851.30	225.08
851.61	225.10
851.92	225.12
852.23	225.16
852.55	225.15
852.86	225.15
853.17	225.17
853.49	225.22
853.80	225.21
854.11	225.26
854.42	225.26
854.74	225.25
855.05	225.26
855.36	225.20
855.67	225.20
855.99	225.18
856.30	225.33
856.61	225.35
856.92	225.36
857.23	225.35
857.55	225.34
857.86	225.30
858.17	225.29
858.48	225.26
858.79	225.22
859.11	225.24
859.42	225.21
859.73	225.19
860.04	225.15
860.35	225.14
860.66	225.07
860.98	225.04
861.29	225.07
861.60	225.07
861.91	225.11
862.22	225.10
862.53	225.11
862.84	224.98
863.16	224.98
863.47	225.00
863.78	225.00
864.09	225.04
864.40	225.07
864.71	225.10
865.02	225.09
865.33	225.09
865.64	225.07
865.95	225.08
866.27	225.15
866.58	225.16
866.89	225.17
867.20	225.20
867.51	225.21
867.82	225.20
868.13	225.20
868.44	225.16
868.75	225.17
869.06	225.17
869.37	225.18
869.68	225.17
869.99	225.19
870.30	225.20
870.61	225.17
870.92	225.11
871.23	225.09
871.54	225.08
871.85	225.11
872.16	225.08
872.47	225.06
872.78	224.99
873.09	225.00
873.40	224.96
873.71	224.97
874.02	224.97
874.33	224.93
874.64	224.95
874.95	224.94
875.26	224.94
875.56	224.92
875.87	224.94
876.18	224.93
876.49	225.03
876.80	225.03
877.11	225.05
877.42	225.07
877.73	225.08
878.04	225.13
878.35	225.12
878.66	225.15
878.96	225.14
879.27	225.13
879.58	225.11
879.89	225.13
880.20	225.16
880.51	225.13
880.82	225.16
881.12	225.17
881.43	225.15
881.74	225.11
882.05	225.12
882.36	225.07
882.67	225.06
882.97	224.91
883.28	224.88
883.59	224.89
883.90	224.89
884.21	224.90
884.51	224.86
884.82	224.86
885.13	224.84
885.44	224.86
885.74	224.88
886.05	224.89
886.36	224.91
886.67	224.85
886.98	224.91
887.28	224.93
887.59	224.93
887.90	224.95
888.20	224.95
888.51	224.95
888.82	224.98
889.13	225.00
889.43	225.08
889.74	225.06
890.05	225.06
890.35	225.04
890.66	225.00
890.97	224.99
891.28	224.95
891.58	224.97
891.89	225.00
892.20	224.97
892.50	224.93
892.81	224.89
893.12	224.89
893.42	224.84
893.73	224.81
894.04	224.77
894.34	224.81
894.65	224.84
894.95	224.82
895.26	224.82
895.57	224.87
895.87	224.82
896.18	224.82
896.48	224.80
896.79	224.81
897.10	224.84
897.40	224.84
897.71	224.90
898.01	224.86
898.32	224.89
898.63	224.90
898.93	224.93
899.24	224.94
899.54	224.95
899.85	224.96
900.15	224.97
900.46	225.02
900.76	224.98
901.07	224.95
901.38	224.96
901.68	224.96
901.99	224.88
902.29	224.87
902.60	224.87
902.90	224.88
903.21	224.91
903.51	224.88
903.82	224.89
904.12	224.84
904.43	224.87
904.73	224.81
905.03	224.83
905.34	224.91
905.64	224.91
905.95	224.94
906.25	224.95
906.56	224.93
906.86	224.87
907.17	224.85
907.47	224.86
907.77	224.85
908.08	224.80
908.38	224.82
908.69	224.81
908.99	224.81
909.30	224.79
909.60	224.73
909.90	224.74
910.21	224.70
910.51	224.69
910.81	224.68
911.12	224.69
911.42	224.65
911.73	224.57
912.03	224.57
912.33	224.52
912.64	224.48
912.94	224.48
913.24	224.46
913.55	224.49
913.85	224.48
914.15	224.51
914.46	224.52
914.76	224.51
915.06	224.49
915.37	224.48
915.67	224.48
915.97	224.50
916.27	224.49
916.58	224.53
916.88	224.53
917.18	224.51
917.49	224.57
917.79	224.57
918.09	224.56
918.39	224.58
918.70	224.62
919.00	224.65
919.30	224.66
919.60	224.66
919.91	224.64
920.21	224.62
920.51	224.59
920.81	224.59
921.12	224.59
921.42	224.58
921.72	224.63
922.02	224.66
922.32	224.67
922.63	224.69
922.93	224.73
923.23	224.75
923.53	224.77
923.83	224.73
924.13	224.75
924.44	224.75
924.74	224.76
925.04	224.78
925.34	224.78
925.64	224.77
925.94	224.79
926.24	224.86
926.55	224.88
926.85	224.87
927.15	224.89
927.45	224.92
927.75	224.96
928.05	224.92
928.35	224.91
928.65	224.94
928.95	224.94
929.26	224.88
929.56	224.93
929.86	224.94
930.16	224.93
930.46	224.91
930.76	224.91
931.06	224.85
931.36	224.81
931.66	224.85
931.96	224.84
932.26	224.88
932.56	224.85
932.86	224.87
933.16	224.87
933.46	224.87
933.76	224.84
934.06	224.86
934.36	224.90
934.66	224.89
934.96	224.86
935.26	224.88
935.56	224.91
935.86	224.87
936.16	224.85
936.46	224.83
936.76	224.83
937.06	224.81
937.36	224.82
937.66	224.83
937.96	224.80
938.26	224.80
938.56	224.75
938.86	224.73
939.16	224.77
939.46	224.75
939.76	224.77
940.06	224.76
940.35	224.74
940.65	224.68
940.95	224.69
941.25	224.66
941.55	224.66
941.85	224.67
942.15	224.70
942.45	224.74
942.75	224.74
943.04	224.74
943.34	224.75
943.64	224.77
943.94	224.75
944.24	224.79
944.54	224.77
944.84	224.80
945.13	224.78
945.43	224.71
945.73	224.72
946.03	224.68
946.33	224.68
946.62	224.64
946.92	224.66
947.22	224.67
947.52	224.67
947.82	224.63
948.11	224.59
948.41	224.53
948.71	224.47
949.01	224.47
949.31	224.46
949.60	224.45
949.90	224.43
950.20	224.43
950.50	224.38
950.79	224.39
951.09	224.38
951.39	224.37
951.69	224.36
951.98	224.42
952.28	224.42
952.58	224.42
952.87	224.42
953.17	224.42
953.47	224.40
953.76	224.40
954.06	224.40
954.36	224.37
954.66	224.39
954.95	224.42
955.25	224.44
955.55	224.44
955.84	224.42
956.14	224.41
956.44	224.44
956.73	224.44
957.03	224.46
957.32	224.46
957.62	224.45
957.92	224.49
958.21	224.45
958.51	224.56
958.81	224.55
959.10	224.56
959.40	224.57
959.69	224.58
959.99	224.58
960.29	224.60
960.58	224.60
960.88	224.61
961.17	224.59
961.47	224.59
961.76	224.59
962.06	224.60
962.36	224.62
962.65	224.62
962.95	224.62
963.24	224.60
963.54	224.61
963.83	224.63
964.13	224.58
964.42	224.53
964.72	224.45
965.01	224.48
965.31	224.47
965.60	224.46
965.90	224.52
966.19	224.51
966.49	224.52
966.78	224.50
967.08	224.51
967.37	224.51
967.67	224.50
967.96	224.53
968.26	224.55
968.55	224.56
968.85	224.56
969.14	224.57
969.43	224.56
969.73	224.54
970.02	224.55
970.32	224.59
970.61	224.59
970.91	224.59
971.20	224.57
971.49	224.53
971.79	224.57
972.08	224.52
972.38	224.52
972.67	224.54
972.96	224.59
973.26	224.55
973.55	224.59
973.85	224.58
974.14	224.57
974.43	224.57
974.73	224.54
975.02	224.52
975.31	224.50
975.61	224.48
975.90	224.47
976.19	224.46
976.49	224.48
976.78	224.49
977.07	224.51
977.37	224.51
977.66	224.58
977.95	224.53
978.24	224.53
978.54	224.56
978.83	224.52
979.12	224.49
979.42	224.51
979.71	224.52
980.00	224.51
980.29	224.52
980.59	224.50
980.88	224.54
981.17	224.56
981.46	224.56
981.76	224.58
982.05	224.65
982.34	224.67
982.63	224.66
982.93	224.69
983.22	224.69
983.51	224.71
983.80	224.72
984.09	224.72
984.39	224.69
984.68	224.66
984.97	224.70
985.26	224.68
985.55	224.65
985.85	224.59
986.14	224.63
986.43	224.63
986.72	224.63
987.01	224.60
987.30	224.56
987.59	224.56
987.89	224.55
988.18	224.50
988.47	224.50
988.76	224.49
989.05	224.47
989.34	224.44
989.63	224.46
989.92	224.42
990.22	224.42
990.51	224.43
990.80	224.44
991.09	224.42
991.38	224.45
991.67	224.46
991.96	224.49
992.25	224.48
992.54	224.44
992.83	224.41
993.12	224.43
993.41	224.45
993.70	224.48
993.99	224.50
994.28	224.51
994.58	224.50
994.87	224.50
995.16	224.46
995.45	224.45
995.74	224.41
996.03	224.43
996.32	224.45
996.61	224.48
996.90	224.45
997.19	224.45
997.48	224.46
997.77	224.42
998.06	224.40
998.34	224.39
998.63	224.37
998.92	224.39
999.21	224.34
999.50	224.32
999.79	224.31
1000.08	224.29
1000.37	224.26
1000.66	224.26
1000.95	224.26
1001.24	224.27
1001.53	224.29
1001.82	224.29
1002.11	224.24
1002.40	224.22
1002.68	224.25
1002.97	224.34
1003.26	224.30
1003.55	224.28
1003.84	224.30
1004.13	224.34
1004.42	224.27
1004.71	224.32
1004.99	224.31
1005.28	224.37
1005.57	224.39
1005.86	224.36
1006.15	224.35
1006.44	224.38
1006.72	224.40
1007.01	224.41
1007.30	224.44
1007.59	224.42
1007.88	224.40
1008.17	224.43
1008.45	224.41
1008.74	224.36
1009.03	224.32
1009.32	224.35
1009.60	224.33
1009.89	224.35
1010.18	224.31
1010.47	224.36
1010.76	224.32
1011.04	224.32
1011.33	224.30
1011.62	224.31
1011.91	224.34
1012.19	224.34
1012.48	224.33
1012.77	224.30
1013.05	224.36
1013.34	224.33
1013.63	224.35
1013.92	224.35
1014.20	224.33
1014.49	224.35
1014.78	224.35
1015.06	224.27
1015.35	224.27
1015.64	224.28
1015.92	224.26
1016.21	224.26
1016.50	224.26
1016.78	224.29
1017.07	224.34
1017.36	224.34
1017.64	224.34
1017.93	224.31
1018.22	224.29
1018.50	224.31
1018.79	224.32
1019.08	224.23
1019.36	224.26
1019.65	224.22
1019.93	224.28
1020.22	224.27
1020.51	224.34
1020.79	224.32
1021.08	223.90
1021.36	224.54
1021.65	224.25
1021.94	223.79
1022.22	224.60
1022.51	223.97
1022.79	225.02
1023.08	224.05
1023.36	225.86
1023.65	223.65
>>>>>End Processed Spectral Data<<<<<
