SpectraSuite Data File
++++++++++++++++++++++++++++++++++++
Date: Fri Feb 01 14:50:35 EST 2013
User: group
Dark Spectrum Present: No
Reference Spectrum Present: No
Number of Sampled Component Spectra: 1
Spectrometers: USB2E7196
Integration Time (usec): 35000 (USB2E7196)
Spectra Averaged: 100 (USB2E7196)
Boxcar Smoothing: 10 (USB2E7196)
Correct for Electrical Dark: No (USB2E7196)
Strobe/Lamp Enabled: No (USB2E7196)
Correct for Detector Non-linearity: No (USB2E7196)
Correct for Stray Light: No (USB2E7196)
Number of Pixels in Processed Spectrum: 2048
>>>>>Begin Processed Spectral Data<<<<<
339.09	0.00
339.48	215.73
339.86	216.97
340.24	218.56
340.63	219.98
341.01	222.57
341.39	222.52
341.78	223.19
342.16	225.15
342.54	225.88
342.93	213.93
343.31	224.72
343.69	225.26
344.07	225.71
344.46	226.13
344.84	226.52
345.22	226.75
345.60	227.01
345.99	227.23
346.37	227.34
346.75	227.45
347.13	227.50
347.52	227.54
347.90	227.62
348.28	227.67
348.66	227.67
349.05	227.67
349.43	227.71
349.81	227.75
350.19	227.83
350.57	227.88
350.96	227.93
351.34	228.05
351.72	228.14
352.10	228.27
352.48	228.33
352.87	228.39
353.25	228.46
353.63	228.50
354.01	228.58
354.39	228.67
354.77	228.74
355.15	228.85
355.54	228.90
355.92	228.93
356.30	228.98
356.68	229.15
357.06	229.24
357.44	229.26
357.82	229.33
358.20	229.40
358.58	229.47
358.97	229.56
359.35	229.64
359.73	229.70
360.11	229.74
360.49	229.78
360.87	229.81
361.25	229.86
361.63	229.91
362.01	229.93
362.39	229.93
362.77	229.96
363.15	229.96
363.53	229.96
363.91	230.00
364.29	230.00
364.67	229.89
365.05	229.86
365.43	229.90
365.81	229.90
366.19	229.91
366.57	229.92
366.95	229.89
367.33	229.83
367.71	229.80
368.09	229.81
368.47	229.79
368.85	229.74
369.23	229.74
369.61	229.71
369.99	229.70
370.37	229.67
370.75	229.65
371.13	229.60
371.51	229.56
371.89	229.50
372.27	229.47
372.65	229.44
373.03	229.41
373.41	229.33
373.78	229.26
374.16	229.13
374.54	229.03
374.92	228.97
375.30	228.90
375.68	228.81
376.06	228.71
376.44	228.62
376.82	228.57
377.19	228.45
377.57	228.37
377.95	228.27
378.33	228.22
378.71	228.08
379.09	228.01
379.47	227.92
379.84	227.85
380.22	227.74
380.60	227.67
380.98	227.56
381.36	227.50
381.73	227.42
382.11	227.38
382.49	227.31
382.87	227.20
383.25	227.13
383.62	227.20
384.00	227.11
384.38	227.05
384.76	226.97
385.13	226.96
385.51	226.92
385.89	226.83
386.27	226.78
386.64	226.76
387.02	226.71
387.40	226.68
387.78	226.64
388.15	226.62
388.53	226.54
388.91	226.54
389.29	226.49
389.66	226.47
390.04	226.44
390.42	226.42
390.79	226.44
391.17	226.45
391.55	226.31
391.92	226.34
392.30	226.36
392.68	226.37
393.05	226.39
393.43	226.42
393.81	226.47
394.18	226.51
394.56	226.53
394.94	226.58
395.31	226.62
395.69	226.68
396.06	226.74
396.44	226.79
396.82	226.85
397.19	226.97
397.57	227.07
397.95	227.19
398.32	227.26
398.70	227.36
399.07	227.44
399.45	227.51
399.82	227.58
400.20	227.66
400.58	227.77
400.95	227.83
401.33	227.95
401.70	228.13
402.08	228.21
402.45	228.34
402.83	228.46
403.20	228.58
403.58	228.71
403.95	228.84
404.33	229.01
404.71	229.14
405.08	229.33
405.46	229.47
405.83	229.60
406.21	229.79
406.58	229.97
406.96	230.14
407.33	230.38
407.70	230.62
408.08	230.93
408.45	231.14
408.83	231.40
409.20	231.60
409.58	231.77
409.95	232.06
410.33	232.36
410.70	232.65
411.08	232.92
411.45	233.24
411.82	233.56
412.20	233.93
412.57	234.32
412.95	234.61
413.32	235.01
413.69	235.41
414.07	235.80
414.44	236.24
414.82	236.70
415.19	237.21
415.56	237.72
415.94	238.20
416.31	238.81
416.68	239.43
417.06	240.14
417.43	240.80
417.81	241.57
418.18	242.31
418.55	243.11
418.93	243.99
419.30	244.89
419.67	245.81
420.04	246.72
420.42	247.72
420.79	248.92
421.16	250.03
421.54	251.20
421.91	252.40
422.28	253.63
422.66	254.97
423.03	256.25
423.40	257.55
423.77	258.98
424.15	260.39
424.52	261.85
424.89	263.43
425.26	264.98
425.64	266.37
426.01	267.93
426.38	269.57
426.75	271.21
427.13	272.90
427.50	274.68
427.87	276.56
428.24	278.40
428.61	280.07
428.99	282.05
429.36	284.15
429.73	286.25
430.10	288.26
430.47	290.29
430.85	292.35
431.22	294.60
431.59	296.96
431.96	299.22
432.33	301.68
432.70	304.07
433.08	306.88
433.45	309.56
433.82	312.19
434.19	315.07
434.56	317.89
434.93	320.53
435.30	323.14
435.68	326.05
436.05	328.88
436.42	331.73
436.79	334.21
437.16	336.91
437.53	339.71
437.90	342.56
438.27	345.29
438.64	348.20
439.01	350.79
439.38	353.01
439.75	355.15
440.13	357.65
440.50	359.97
440.87	361.82
441.24	363.77
441.61	365.95
441.98	367.42
442.35	369.23
442.72	371.12
443.09	372.94
443.46	373.91
443.83	374.52
444.20	375.00
444.57	375.88
444.94	376.11
445.31	376.46
445.68	376.83
446.05	376.93
446.42	376.56
446.79	376.15
447.16	375.72
447.53	375.41
447.90	374.31
448.27	373.18
448.64	371.62
449.01	370.41
449.37	368.40
449.74	366.53
450.11	364.29
450.48	361.80
450.85	359.28
451.22	357.19
451.59	355.13
451.96	353.23
452.33	350.60
452.70	348.30
453.07	345.50
453.43	342.56
453.80	339.82
454.17	337.10
454.54	334.57
454.91	331.85
455.28	329.20
455.65	326.66
456.02	324.20
456.38	322.02
456.75	319.40
457.12	317.17
457.49	314.92
457.86	312.78
458.23	310.92
458.59	308.90
458.96	306.82
459.33	304.97
459.70	303.09
460.07	301.54
460.43	299.83
460.80	298.19
461.17	296.78
461.54	295.29
461.91	293.89
462.27	292.48
462.64	291.25
463.01	289.90
463.38	288.63
463.74	287.22
464.11	286.08
464.48	285.04
464.85	283.93
465.21	283.11
465.58	282.15
465.95	281.04
466.32	280.11
466.68	279.20
467.05	278.31
467.42	277.39
467.78	276.48
468.15	275.58
468.52	274.90
468.88	274.01
469.25	273.20
469.62	272.56
469.98	271.85
470.35	271.17
470.72	270.55
471.08	269.89
471.45	269.35
471.82	268.76
472.18	268.13
472.55	267.67
472.92	267.10
473.28	266.65
473.65	266.20
474.02	265.74
474.38	265.34
474.75	265.01
475.11	264.65
475.48	264.40
475.85	264.17
476.21	263.93
476.58	263.74
476.94	263.62
477.31	263.40
477.67	263.22
478.04	263.11
478.41	263.04
478.77	263.05
479.14	263.00
479.50	263.02
479.87	263.10
480.23	263.19
480.60	263.22
480.96	263.31
481.33	263.52
481.69	263.71
482.06	263.89
482.42	264.08
482.79	264.35
483.15	264.64
483.52	265.04
483.88	265.38
484.25	265.74
484.61	266.16
484.98	266.63
485.34	267.19
485.71	267.81
486.07	268.40
486.44	268.95
486.80	269.60
487.17	270.36
487.53	271.18
487.90	272.02
488.26	273.00
488.62	273.95
488.99	274.91
489.35	275.95
489.72	277.05
490.08	278.21
490.44	279.42
490.81	280.73
491.17	282.02
491.54	283.53
491.90	285.09
492.26	286.74
492.63	288.42
492.99	290.19
493.36	292.04
493.72	294.06
494.08	296.19
494.45	298.45
494.81	300.78
495.17	303.17
495.54	305.71
495.90	308.33
496.26	311.12
496.63	314.06
496.99	317.17
497.35	320.42
497.72	323.83
498.08	327.30
498.44	330.97
498.80	334.89
499.17	338.87
499.53	342.94
499.89	347.30
500.26	351.77
500.62	356.38
500.98	361.31
501.34	366.35
501.71	371.60
502.07	376.99
502.43	382.53
502.79	388.31
503.16	394.38
503.52	400.62
503.88	406.95
504.24	413.49
504.60	420.32
504.97	427.33
505.33	434.54
505.69	442.20
506.05	449.96
506.41	457.77
506.78	465.89
507.14	474.29
507.50	482.96
507.86	491.97
508.22	501.15
508.59	510.29
508.95	519.83
509.31	529.61
509.67	539.69
510.03	549.92
510.39	560.38
510.75	571.14
511.12	582.05
511.48	593.37
511.84	604.79
512.20	616.18
512.56	628.03
512.92	640.13
513.28	652.38
513.64	664.83
514.00	677.50
514.37	690.35
514.73	703.37
515.09	716.34
515.45	729.57
515.81	743.08
516.17	756.98
516.53	771.07
516.89	785.27
517.25	799.43
517.61	813.94
517.97	828.38
518.33	842.78
518.69	857.44
519.05	872.41
519.41	887.53
519.77	903.13
520.13	918.69
520.49	934.16
520.85	949.59
521.21	965.23
521.57	981.54
521.93	997.35
522.29	1013.79
522.65	1030.07
523.01	1046.35
523.37	1062.42
523.73	1078.76
524.09	1094.92
524.45	1111.20
524.81	1127.86
525.17	1144.68
525.53	1161.61
525.89	1178.48
526.25	1195.29
526.61	1211.60
526.97	1228.42
527.33	1244.99
527.68	1261.75
528.04	1278.38
528.40	1295.15
528.76	1312.36
529.12	1328.91
529.48	1345.83
529.84	1361.93
530.20	1378.66
530.56	1395.69
530.91	1413.11
531.27	1429.84
531.63	1446.44
531.99	1463.06
532.35	1479.03
532.71	1494.93
533.07	1511.39
533.42	1527.46
533.78	1543.70
534.14	1560.15
534.50	1575.49
534.86	1591.37
535.21	1606.52
535.57	1622.46
535.93	1638.05
536.29	1652.98
536.65	1668.16
537.00	1683.11
537.36	1698.55
537.72	1713.13
538.08	1727.56
538.44	1741.59
538.79	1755.65
539.15	1769.37
539.51	1783.25
539.87	1797.68
540.22	1811.53
540.58	1825.20
540.94	1838.53
541.29	1851.55
541.65	1864.41
542.01	1877.78
542.37	1890.10
542.72	1902.62
543.08	1914.49
543.44	1926.99
543.79	1938.18
544.15	1949.21
544.51	1960.66
544.87	1971.57
545.22	1982.45
545.58	1992.75
545.94	2002.38
546.29	2012.25
546.65	2022.02
547.01	2031.17
547.36	2039.94
547.72	2048.25
548.07	2056.18
548.43	2064.36
548.79	2072.20
549.14	2079.71
549.50	2087.10
549.86	2094.88
550.21	2102.08
550.57	2109.12
550.92	2115.54
551.28	2122.63
551.64	2129.73
551.99	2136.30
552.35	2142.45
552.70	2148.59
553.06	2154.46
553.41	2160.75
553.77	2166.77
554.13	2172.73
554.48	2178.83
554.84	2184.08
555.19	2189.39
555.55	2194.44
555.90	2198.79
556.26	2203.68
556.61	2208.30
556.97	2212.35
557.32	2216.42
557.68	2220.45
558.03	2224.76
558.39	2228.42
558.74	2232.77
559.10	2236.25
559.45	2239.72
559.81	2243.79
560.16	2247.13
560.52	2250.16
560.87	2253.56
561.23	2255.92
561.58	2258.68
561.94	2260.98
562.29	2263.38
562.64	2265.96
563.00	2268.41
563.35	2271.68
563.71	2274.68
564.06	2277.55
564.42	2280.41
564.77	2282.71
565.12	2284.87
565.48	2286.50
565.83	2288.06
566.19	2289.19
566.54	2290.23
566.89	2291.15
567.25	2291.45
567.60	2292.78
567.96	2294.27
568.31	2294.69
568.66	2295.59
569.02	2295.94
569.37	2296.12
569.72	2296.61
570.08	2296.41
570.43	2296.11
570.78	2295.17
571.14	2293.28
571.49	2291.76
571.84	2291.00
572.20	2289.48
572.55	2288.05
572.90	2286.22
573.26	2284.53
573.61	2282.64
573.96	2280.45
574.31	2277.27
574.67	2274.12
575.02	2270.19
575.37	2266.49
575.72	2262.66
576.08	2259.04
576.43	2255.63
576.78	2251.73
577.13	2248.33
577.49	2245.19
577.84	2241.49
578.19	2237.74
578.54	2233.88
578.90	2229.41
579.25	2223.78
579.60	2218.72
579.95	2213.54
580.30	2208.29
580.66	2202.93
581.01	2197.73
581.36	2192.61
581.71	2188.26
582.06	2183.66
582.42	2179.09
582.77	2173.73
583.12	2168.83
583.47	2164.00
583.82	2158.80
584.17	2153.54
584.53	2147.87
584.88	2142.00
585.23	2136.03
585.58	2130.41
585.93	2124.86
586.28	2120.03
586.63	2114.70
586.98	2109.50
587.34	2104.73
587.69	2099.57
588.04	2094.22
588.39	2088.34
588.74	2081.74
589.09	2075.49
589.44	2068.58
589.79	2062.21
590.14	2056.39
590.49	2049.76
590.84	2043.03
591.19	2036.81
591.54	2030.10
591.89	2022.59
592.25	2015.69
592.60	2008.49
592.95	2000.65
593.30	1993.20
593.65	1985.32
594.00	1978.15
594.35	1970.83
594.70	1962.64
595.05	1955.40
595.40	1948.04
595.75	1940.49
596.10	1934.15
596.45	1927.11
596.80	1920.83
597.15	1914.21
597.50	1907.12
597.85	1900.49
598.19	1893.93
598.54	1886.78
598.89	1880.15
599.24	1874.26
599.59	1867.40
599.94	1861.12
600.29	1854.81
600.64	1848.15
600.99	1840.76
601.34	1833.97
601.69	1826.80
602.04	1819.87
602.39	1812.62
602.74	1805.81
603.08	1799.20
603.43	1792.59
603.78	1785.35
604.13	1778.11
604.48	1771.02
604.83	1764.26
605.18	1757.44
605.53	1749.49
605.87	1741.31
606.22	1734.06
606.57	1726.07
606.92	1718.85
607.27	1711.68
607.62	1704.82
607.96	1697.69
608.31	1691.24
608.66	1683.62
609.01	1676.24
609.36	1668.85
609.70	1660.92
610.05	1652.88
610.40	1645.18
610.75	1636.81
611.10	1629.19
611.44	1620.96
611.79	1612.98
612.14	1604.35
612.49	1595.33
612.83	1587.13
613.18	1579.33
613.53	1571.30
613.88	1562.98
614.22	1554.85
614.57	1546.38
614.92	1538.45
615.27	1530.92
615.61	1522.59
615.96	1514.73
616.31	1507.18
616.65	1499.73
617.00	1492.17
617.35	1484.64
617.70	1476.33
618.04	1467.88
618.39	1459.79
618.74	1452.28
619.08	1444.09
619.43	1436.68
619.78	1429.80
620.12	1422.57
620.47	1415.17
620.82	1407.09
621.16	1399.71
621.51	1392.05
621.85	1384.64
622.20	1376.22
622.55	1368.02
622.89	1360.34
623.24	1352.75
623.59	1345.56
623.93	1338.17
624.28	1331.12
624.62	1323.68
624.97	1316.58
625.32	1310.01
625.66	1303.17
626.01	1296.04
626.35	1288.69
626.70	1280.97
627.04	1273.37
627.39	1265.78
627.73	1258.37
628.08	1251.65
628.43	1244.43
628.77	1237.23
629.12	1229.68
629.46	1222.60
629.81	1215.29
630.15	1208.16
630.50	1200.92
630.84	1192.74
631.19	1184.98
631.53	1177.57
631.88	1170.17
632.22	1162.74
632.57	1155.60
632.91	1148.17
633.26	1140.88
633.60	1133.60
633.95	1126.71
634.29	1119.70
634.64	1113.12
634.98	1105.87
635.32	1098.81
635.67	1092.35
636.01	1085.94
636.36	1079.22
636.70	1072.82
637.05	1066.43
637.39	1060.03
637.73	1053.71
638.08	1047.93
638.42	1042.09
638.77	1035.76
639.11	1029.16
639.45	1022.93
639.80	1016.32
640.14	1009.99
640.49	1003.59
640.83	997.30
641.17	991.13
641.52	984.92
641.86	978.60
642.20	972.92
642.55	966.64
642.89	960.18
643.23	953.72
643.58	948.07
643.92	941.94
644.26	935.92
644.61	929.88
644.95	923.81
645.29	917.26
645.64	910.50
645.98	904.24
646.32	898.48
646.66	892.44
647.01	886.73
647.35	881.01
647.69	875.20
648.04	869.78
648.38	864.02
648.72	858.07
649.06	852.06
649.41	846.20
649.75	840.30
650.09	834.43
650.43	828.61
650.78	822.49
651.12	816.64
651.46	810.90
651.80	805.26
652.14	799.92
652.49	794.63
652.83	789.61
653.17	783.91
653.51	778.30
653.85	772.99
654.20	767.33
654.54	761.47
654.88	755.75
655.22	749.95
655.56	744.32
655.90	738.93
656.25	733.78
656.59	728.48
656.93	723.47
657.27	718.40
657.61	713.08
657.95	708.09
658.29	703.04
658.64	697.89
658.98	692.69
659.32	687.32
659.66	682.28
660.00	676.97
660.34	672.14
660.68	667.35
661.02	662.36
661.36	657.81
661.70	653.38
662.05	649.13
662.39	644.82
662.73	640.45
663.07	636.20
663.41	631.75
663.75	627.32
664.09	622.84
664.43	618.56
664.77	614.45
665.11	610.18
665.45	606.12
665.79	602.15
666.13	598.08
666.47	593.97
666.81	589.79
667.15	585.80
667.49	581.94
667.83	578.13
668.17	574.22
668.51	570.13
668.85	566.17
669.19	562.39
669.53	558.69
669.87	554.90
670.21	551.26
670.55	547.69
670.89	544.34
671.23	540.94
671.57	537.49
671.91	534.03
672.25	530.65
672.58	527.20
672.92	523.86
673.26	520.73
673.60	517.72
673.94	514.63
674.28	511.71
674.62	508.84
674.96	505.76
675.30	502.96
675.64	500.15
675.97	497.47
676.31	494.66
676.65	491.72
676.99	489.02
677.33	486.15
677.67	483.40
678.01	480.36
678.34	477.41
678.68	474.59
679.02	471.81
679.36	469.08
679.70	466.36
680.04	463.56
680.37	460.76
680.71	457.97
681.05	455.40
681.39	452.77
681.73	450.16
682.06	447.69
682.40	445.16
682.74	442.64
683.08	440.09
683.42	437.53
683.75	435.12
684.09	432.56
684.43	430.11
684.77	427.61
685.10	425.31
685.44	423.09
685.78	420.85
686.12	418.64
686.45	416.35
686.79	414.14
687.13	411.93
687.46	409.79
687.80	407.69
688.14	405.51
688.48	403.47
688.81	401.18
689.15	399.05
689.49	396.94
689.82	394.92
690.16	392.83
690.50	390.88
690.83	388.94
691.17	387.08
691.51	385.21
691.84	383.43
692.18	381.54
692.52	379.56
692.85	377.62
693.19	375.74
693.52	373.98
693.86	372.17
694.20	370.46
694.53	368.68
694.87	366.89
695.21	365.13
695.54	363.32
695.88	361.70
696.21	359.96
696.55	358.27
696.88	356.60
697.22	355.01
697.56	353.41
697.89	351.82
698.23	350.18
698.56	348.61
698.90	347.05
699.23	345.44
699.57	343.90
699.90	342.36
700.24	340.86
700.58	339.32
700.91	337.88
701.25	336.47
701.58	335.17
701.92	333.79
702.25	332.46
702.59	331.14
702.92	329.79
703.26	328.51
703.59	327.26
703.93	326.07
704.26	324.82
704.60	323.58
704.93	322.29
705.26	321.08
705.60	319.91
705.93	318.84
706.27	317.86
706.60	316.82
706.94	315.80
707.27	314.71
707.61	313.68
707.94	312.64
708.27	311.57
708.61	310.47
708.94	309.51
709.28	308.53
709.61	307.61
709.94	306.69
710.28	305.69
710.61	304.76
710.95	303.73
711.28	302.85
711.61	301.89
711.95	301.00
712.28	300.07
712.61	299.11
712.95	298.10
713.28	297.20
713.61	296.34
713.95	295.46
714.28	294.61
714.61	293.77
714.95	292.94
715.28	292.10
715.61	291.21
715.95	290.37
716.28	289.54
716.61	288.71
716.95	287.92
717.28	287.26
717.61	286.49
717.94	285.77
718.28	284.97
718.61	284.30
718.94	283.65
719.27	282.99
719.61	282.33
719.94	281.71
720.27	281.00
720.60	280.32
720.94	279.69
721.27	279.06
721.60	278.51
721.93	277.93
722.27	277.37
722.60	276.85
722.93	276.29
723.26	275.74
723.59	275.23
723.93	274.67
724.26	274.08
724.59	273.53
724.92	273.02
725.25	272.57
725.59	271.98
725.92	271.44
726.25	270.95
726.58	270.46
726.91	269.96
727.24	269.52
727.57	269.10
727.91	268.61
728.24	268.18
728.57	267.68
728.90	267.23
729.23	266.78
729.56	266.38
729.89	265.93
730.22	265.46
730.55	264.96
730.89	264.56
731.22	264.12
731.55	263.70
731.88	263.26
732.21	262.81
732.54	262.46
732.87	262.03
733.20	261.63
733.53	261.24
733.86	260.86
734.19	260.45
734.52	260.02
734.85	259.69
735.18	259.25
735.51	258.90
735.84	258.52
736.17	258.13
736.50	257.71
736.83	257.44
737.16	257.09
737.49	256.75
737.82	256.38
738.15	256.03
738.48	255.68
738.81	255.34
739.14	254.99
739.47	254.63
739.80	254.30
740.13	254.00
740.46	253.70
740.79	253.39
741.12	253.09
741.45	252.77
741.78	252.45
742.11	252.18
742.44	251.83
742.77	251.55
743.10	251.24
743.43	250.96
743.75	250.58
744.08	250.44
744.41	250.18
744.74	249.91
745.07	249.67
745.40	249.43
745.73	249.21
746.06	248.96
746.39	248.73
746.71	248.47
747.04	248.17
747.37	247.91
747.70	247.67
748.03	247.39
748.36	247.19
748.68	246.93
749.01	246.67
749.34	246.49
749.67	246.27
750.00	246.07
750.33	245.90
750.65	245.69
750.98	245.37
751.31	245.13
751.64	244.91
751.97	244.74
752.29	244.51
752.62	244.25
752.95	244.03
753.28	243.80
753.60	243.63
753.93	243.48
754.26	243.29
754.59	243.06
754.91	242.86
755.24	242.67
755.57	242.49
755.90	242.33
756.22	242.08
756.55	241.89
756.88	241.69
757.20	241.43
757.53	241.25
757.86	241.07
758.19	240.94
758.51	240.79
758.84	240.58
759.17	240.43
759.49	240.28
759.82	240.19
760.15	240.06
760.47	239.93
760.80	239.78
761.13	239.65
761.45	239.50
761.78	239.38
762.11	239.25
762.43	239.11
762.76	238.94
763.08	238.86
763.41	238.76
763.74	238.62
764.06	238.53
764.39	238.38
764.71	238.25
765.04	238.10
765.37	237.96
765.69	237.86
766.02	237.72
766.34	237.59
766.67	237.40
767.00	237.32
767.32	237.23
767.65	237.15
767.97	237.03
768.30	236.92
768.62	236.80
768.95	236.68
769.27	236.56
769.60	236.47
769.92	236.33
770.25	236.14
770.57	236.02
770.90	235.89
771.22	235.77
771.55	235.67
771.87	235.58
772.20	235.49
772.52	235.45
772.85	235.47
773.17	235.39
773.50	235.30
773.82	235.17
774.15	235.04
774.47	234.92
774.80	234.83
775.12	234.74
775.45	234.67
775.77	234.58
776.09	234.52
776.42	234.45
776.74	234.42
777.07	234.36
777.39	234.28
777.72	234.21
778.04	234.17
778.36	234.10
778.69	233.99
779.01	233.95
779.33	233.79
779.66	233.63
779.98	233.54
780.31	233.49
780.63	233.49
780.95	233.46
781.28	233.37
781.60	233.29
781.92	233.24
782.25	233.19
782.57	233.13
782.89	233.07
783.22	232.99
783.54	232.92
783.86	232.89
784.19	232.83
784.51	232.79
784.83	232.71
785.16	232.65
785.48	232.60
785.80	232.52
786.12	232.46
786.45	232.39
786.77	232.35
787.09	232.30
787.42	232.22
787.74	232.14
788.06	232.11
788.38	232.07
788.71	232.03
789.03	231.96
789.35	231.91
789.67	231.85
789.99	231.84
790.32	231.76
790.64	231.70
790.96	231.76
791.28	231.71
791.61	231.68
791.93	231.64
792.25	231.60
792.57	231.64
792.89	231.60
793.21	231.60
793.54	231.54
793.86	231.46
794.18	231.40
794.50	231.37
794.82	231.32
795.14	231.32
795.47	231.30
795.79	231.30
796.11	231.28
796.43	231.27
796.75	231.22
797.07	231.20
797.39	231.20
797.71	231.12
798.04	231.08
798.36	231.06
798.68	231.03
799.00	231.04
799.32	230.93
799.64	230.93
799.96	230.90
800.28	230.91
800.60	230.90
800.92	230.87
801.24	230.86
801.56	230.82
801.89	230.76
802.21	230.73
802.53	230.68
802.85	230.69
803.17	230.72
803.49	230.69
803.81	230.70
804.13	230.64
804.45	230.60
804.77	230.58
805.09	230.58
805.41	230.55
805.73	230.49
806.05	230.48
806.37	230.47
806.69	230.46
807.01	230.42
807.33	230.42
807.65	230.38
807.97	230.41
808.28	230.43
808.60	230.43
808.92	230.39
809.24	230.41
809.56	230.36
809.88	230.30
810.20	230.27
810.52	230.23
810.84	230.23
811.16	230.22
811.48	230.20
811.80	230.18
812.12	230.14
812.43	230.16
812.75	230.14
813.07	230.10
813.39	230.06
813.71	230.00
814.03	229.96
814.35	229.93
814.67	229.82
814.98	229.78
815.30	229.71
815.62	229.67
815.94	229.58
816.26	229.59
816.58	229.53
816.89	229.53
817.21	229.48
817.53	229.44
817.85	229.39
818.17	229.40
818.48	229.33
818.80	229.36
819.12	229.32
819.44	229.27
819.76	229.24
820.07	229.19
820.39	229.18
820.71	229.14
821.03	229.12
821.34	229.12
821.66	229.11
821.98	229.11
822.30	229.12
822.61	229.16
822.93	229.08
823.25	229.03
823.57	228.98
823.88	229.00
824.20	229.00
824.52	229.02
824.83	228.97
825.15	228.92
825.47	228.89
825.79	228.89
826.10	228.85
826.42	228.84
826.74	228.85
827.05	228.84
827.37	228.87
827.69	228.89
828.00	228.86
828.32	228.84
828.64	228.83
828.95	228.83
829.27	228.78
829.58	228.80
829.90	228.82
830.22	228.82
830.53	228.75
830.85	228.73
831.17	228.67
831.48	228.63
831.80	228.66
832.11	228.63
832.43	228.57
832.75	228.60
833.06	228.63
833.38	228.58
833.69	228.55
834.01	228.53
834.32	228.51
834.64	228.51
834.96	228.52
835.27	228.50
835.59	228.47
835.90	228.46
836.22	228.45
836.53	228.44
836.85	228.45
837.16	228.54
837.48	228.52
837.79	228.55
838.11	228.56
838.42	228.56
838.74	228.60
839.05	228.63
839.37	228.62
839.68	228.57
840.00	228.59
840.31	228.61
840.63	228.59
840.94	228.59
841.26	228.58
841.57	228.56
841.88	228.59
842.20	228.58
842.51	228.59
842.83	228.59
843.14	228.64
843.46	228.63
843.77	228.61
844.08	228.62
844.40	228.59
844.71	228.58
845.03	228.57
845.34	228.52
845.65	228.51
845.97	228.50
846.28	228.49
846.60	228.52
846.91	228.51
847.22	228.53
847.54	228.52
847.85	228.55
848.16	228.54
848.48	228.52
848.79	228.54
849.10	228.54
849.42	228.54
849.73	228.50
850.04	228.48
850.36	228.44
850.67	228.42
850.98	228.43
851.30	228.48
851.61	228.45
851.92	228.44
852.23	228.49
852.55	228.49
852.86	228.50
853.17	228.47
853.49	228.49
853.80	228.49
854.11	228.51
854.42	228.50
854.74	228.51
855.05	228.50
855.36	228.44
855.67	228.45
855.99	228.41
856.30	228.49
856.61	228.48
856.92	228.46
857.23	228.46
857.55	228.43
857.86	228.39
858.17	228.42
858.48	228.39
858.79	228.34
859.11	228.31
859.42	228.29
859.73	228.28
860.04	228.23
860.35	228.21
860.66	228.13
860.98	228.11
861.29	228.10
861.60	228.07
861.91	228.11
862.22	228.07
862.53	228.04
862.84	227.93
863.16	227.99
863.47	227.97
863.78	227.97
864.09	227.94
864.40	227.93
864.71	227.90
865.02	227.92
865.33	227.93
865.64	227.94
865.95	227.93
866.27	228.00
866.58	228.01
866.89	227.99
867.20	228.01
867.51	227.99
867.82	227.96
868.13	227.96
868.44	227.92
868.75	227.92
869.06	227.92
869.37	227.92
869.68	227.84
869.99	227.85
870.30	227.83
870.61	227.85
870.92	227.85
871.23	227.86
871.54	227.89
871.85	227.85
872.16	227.84
872.47	227.82
872.78	227.75
873.09	227.76
873.40	227.77
873.71	227.79
874.02	227.78
874.33	227.78
874.64	227.80
874.95	227.81
875.26	227.82
875.56	227.84
875.87	227.86
876.18	227.89
876.49	228.00
876.80	227.97
877.11	227.97
877.42	227.98
877.73	227.99
878.04	227.98
878.35	228.01
878.66	228.04
878.96	228.05
879.27	228.06
879.58	228.06
879.89	228.06
880.20	228.09
880.51	228.08
880.82	228.09
881.12	228.11
881.43	228.09
881.74	228.08
882.05	228.10
882.36	228.09
882.67	228.10
882.97	228.00
883.28	228.01
883.59	228.03
883.90	228.06
884.21	228.08
884.51	228.07
884.82	228.09
885.13	228.07
885.44	228.07
885.74	228.09
886.05	228.08
886.36	228.07
886.67	228.02
886.98	228.09
887.28	228.10
887.59	228.08
887.90	228.10
888.20	228.08
888.51	228.08
888.82	228.04
889.13	228.03
889.43	228.09
889.74	228.09
890.05	228.07
890.35	228.06
890.66	228.02
890.97	227.98
891.28	227.95
891.58	227.96
891.89	227.97
892.20	227.91
892.50	227.88
892.81	227.89
893.12	227.86
893.42	227.83
893.73	227.83
894.04	227.84
894.34	227.81
894.65	227.80
894.95	227.79
895.26	227.82
895.57	227.87
895.87	227.80
896.18	227.80
896.48	227.80
896.79	227.77
897.10	227.76
897.40	227.78
897.71	227.77
898.01	227.75
898.32	227.72
898.63	227.73
898.93	227.75
899.24	227.71
899.54	227.71
899.85	227.68
900.15	227.62
900.46	227.59
900.76	227.60
901.07	227.59
901.38	227.58
901.68	227.56
901.99	227.48
902.29	227.45
902.60	227.43
902.90	227.44
903.21	227.43
903.51	227.43
903.82	227.42
904.12	227.44
904.43	227.44
904.73	227.45
905.03	227.46
905.34	227.52
905.64	227.53
905.95	227.51
906.25	227.51
906.56	227.53
906.86	227.53
907.17	227.53
907.47	227.54
907.77	227.53
908.08	227.51
908.38	227.54
908.69	227.54
908.99	227.60
909.30	227.58
909.60	227.58
909.90	227.59
910.21	227.57
910.51	227.54
910.81	227.57
911.12	227.60
911.42	227.58
911.73	227.49
912.03	227.52
912.33	227.57
912.64	227.56
912.94	227.56
913.24	227.57
913.55	227.58
913.85	227.58
914.15	227.60
914.46	227.66
914.76	227.67
915.06	227.69
915.37	227.66
915.67	227.66
915.97	227.70
916.27	227.71
916.58	227.70
916.88	227.70
917.18	227.70
917.49	227.76
917.79	227.75
918.09	227.81
918.39	227.82
918.70	227.84
919.00	227.84
919.30	227.92
919.60	227.93
919.91	227.92
920.21	227.94
920.51	227.94
920.81	227.93
921.12	227.92
921.42	227.87
921.72	227.90
922.02	227.94
922.32	227.91
922.63	227.95
922.93	228.04
923.23	228.07
923.53	228.04
923.83	227.99
924.13	228.03
924.44	228.01
924.74	228.07
925.04	228.10
925.34	228.11
925.64	228.03
925.94	228.03
926.24	228.07
926.55	228.06
926.85	228.05
927.15	228.04
927.45	228.04
927.75	228.09
928.05	228.08
928.35	228.03
928.65	228.05
928.95	228.01
929.26	227.95
929.56	227.96
929.86	227.97
930.16	227.93
930.46	227.91
930.76	227.88
931.06	227.80
931.36	227.76
931.66	227.73
931.96	227.73
932.26	227.71
932.56	227.70
932.86	227.67
933.16	227.67
933.46	227.66
933.76	227.66
934.06	227.67
934.36	227.65
934.66	227.65
934.96	227.61
935.26	227.63
935.56	227.66
935.86	227.61
936.16	227.55
936.46	227.54
936.76	227.55
937.06	227.54
937.36	227.52
937.66	227.51
937.96	227.55
938.26	227.53
938.56	227.55
938.86	227.52
939.16	227.53
939.46	227.53
939.76	227.52
940.06	227.50
940.35	227.48
940.65	227.45
940.95	227.44
941.25	227.45
941.55	227.42
941.85	227.39
942.15	227.42
942.45	227.48
942.75	227.46
943.04	227.45
943.34	227.48
943.64	227.46
943.94	227.43
944.24	227.41
944.54	227.43
944.84	227.39
945.13	227.38
945.43	227.39
945.73	227.39
946.03	227.39
946.33	227.38
946.62	227.36
946.92	227.37
947.22	227.40
947.52	227.43
947.82	227.45
948.11	227.45
948.41	227.44
948.71	227.39
949.01	227.43
949.31	227.39
949.60	227.37
949.90	227.42
950.20	227.44
950.50	227.43
950.79	227.42
951.09	227.45
951.39	227.45
951.69	227.43
951.98	227.45
952.28	227.45
952.58	227.45
952.87	227.45
953.17	227.46
953.47	227.45
953.76	227.44
954.06	227.41
954.36	227.41
954.66	227.45
954.95	227.49
955.25	227.50
955.55	227.54
955.84	227.54
956.14	227.53
956.44	227.54
956.73	227.53
957.03	227.51
957.32	227.54
957.62	227.56
957.92	227.61
958.21	227.60
958.51	227.71
958.81	227.72
959.10	227.76
959.40	227.80
959.69	227.80
959.99	227.83
960.29	227.86
960.58	227.83
960.88	227.86
961.17	227.85
961.47	227.84
961.76	227.85
962.06	227.86
962.36	227.85
962.65	227.90
962.95	227.92
963.24	227.96
963.54	227.93
963.83	227.93
964.13	227.92
964.42	227.88
964.72	227.84
965.01	227.83
965.31	227.82
965.60	227.79
965.90	227.84
966.19	227.80
966.49	227.80
966.78	227.81
967.08	227.75
967.37	227.73
967.67	227.70
967.96	227.71
968.26	227.72
968.55	227.73
968.85	227.69
969.14	227.66
969.43	227.63
969.73	227.60
970.02	227.58
970.32	227.56
970.61	227.58
970.91	227.52
971.20	227.47
971.49	227.44
971.79	227.45
972.08	227.36
972.38	227.37
972.67	227.36
972.96	227.39
973.26	227.39
973.55	227.42
973.85	227.43
974.14	227.38
974.43	227.40
974.73	227.36
975.02	227.33
975.31	227.36
975.61	227.36
975.90	227.38
976.19	227.38
976.49	227.37
976.78	227.39
977.07	227.39
977.37	227.40
977.66	227.39
977.95	227.33
978.24	227.32
978.54	227.32
978.83	227.29
979.12	227.27
979.42	227.26
979.71	227.24
980.00	227.23
980.29	227.23
980.59	227.17
980.88	227.20
981.17	227.20
981.46	227.19
981.76	227.18
982.05	227.18
982.34	227.16
982.63	227.16
982.93	227.11
983.22	227.17
983.51	227.16
983.80	227.18
984.09	227.22
984.39	227.24
984.68	227.23
984.97	227.26
985.26	227.21
985.55	227.24
985.85	227.22
986.14	227.26
986.43	227.27
986.72	227.30
987.01	227.28
987.30	227.31
987.59	227.29
987.89	227.28
988.18	227.28
988.47	227.26
988.76	227.27
989.05	227.27
989.34	227.20
989.63	227.27
989.92	227.28
990.22	227.26
990.51	227.28
990.80	227.29
991.09	227.29
991.38	227.32
991.67	227.30
991.96	227.29
992.25	227.29
992.54	227.29
992.83	227.32
993.12	227.33
993.41	227.33
993.70	227.39
993.99	227.44
994.28	227.46
994.58	227.51
994.87	227.51
995.16	227.56
995.45	227.60
995.74	227.57
996.03	227.57
996.32	227.59
996.61	227.61
996.90	227.62
997.19	227.61
997.48	227.64
997.77	227.66
998.06	227.67
998.34	227.68
998.63	227.71
998.92	227.68
999.21	227.69
999.50	227.68
999.79	227.62
1000.08	227.62
1000.37	227.62
1000.66	227.63
1000.95	227.63
1001.24	227.60
1001.53	227.59
1001.82	227.55
1002.11	227.54
1002.40	227.55
1002.68	227.58
1002.97	227.64
1003.26	227.66
1003.55	227.62
1003.84	227.62
1004.13	227.66
1004.42	227.62
1004.71	227.59
1004.99	227.59
1005.28	227.60
1005.57	227.61
1005.86	227.64
1006.15	227.61
1006.44	227.62
1006.72	227.61
1007.01	227.62
1007.30	227.64
1007.59	227.66
1007.88	227.67
1008.17	227.67
1008.45	227.66
1008.74	227.59
1009.03	227.54
1009.32	227.52
1009.60	227.48
1009.89	227.48
1010.18	227.43
1010.47	227.43
1010.76	227.42
1011.04	227.41
1011.33	227.40
1011.62	227.41
1011.91	227.37
1012.19	227.35
1012.48	227.34
1012.77	227.30
1013.05	227.32
1013.34	227.31
1013.63	227.26
1013.92	227.25
1014.20	227.25
1014.49	227.25
1014.78	227.25
1015.06	227.21
1015.35	227.22
1015.64	227.27
1015.92	227.28
1016.21	227.28
1016.50	227.28
1016.78	227.29
1017.07	227.25
1017.36	227.23
1017.64	227.21
1017.93	227.24
1018.22	227.25
1018.50	227.21
1018.79	227.23
1019.08	227.18
1019.36	227.20
1019.65	227.19
1019.93	227.21
1020.22	227.22
1020.51	227.26
1020.79	227.25
1021.08	226.95
1021.36	226.66
1021.65	227.36
1021.94	226.90
1022.22	227.72
1022.51	226.91
1022.79	227.68
1023.08	227.43
1023.36	228.49
1023.65	226.84
>>>>>End Processed Spectral Data<<<<<
