SpectraSuite Data File
++++++++++++++++++++++++++++++++++++
Date: Fri Feb 01 16:43:25 EST 2013
User: group
Dark Spectrum Present: No
Reference Spectrum Present: No
Number of Sampled Component Spectra: 1
Spectrometers: USB2E7196
Integration Time (usec): 35000 (USB2E7196)
Spectra Averaged: 100 (USB2E7196)
Boxcar Smoothing: 10 (USB2E7196)
Correct for Electrical Dark: No (USB2E7196)
Strobe/Lamp Enabled: No (USB2E7196)
Correct for Detector Non-linearity: No (USB2E7196)
Correct for Stray Light: No (USB2E7196)
Number of Pixels in Processed Spectrum: 2048
>>>>>Begin Processed Spectral Data<<<<<
339.09	0.00
339.48	213.45
339.86	215.19
340.24	216.41
340.63	217.72
341.01	220.76
341.39	220.46
341.78	222.43
342.16	223.01
342.54	222.86
342.93	212.02
343.31	222.75
343.69	223.28
344.07	223.75
344.46	224.16
344.84	224.55
345.22	224.76
345.60	225.01
345.99	225.17
346.37	225.28
346.75	225.38
347.13	225.42
347.52	225.51
347.90	225.57
348.28	225.56
348.66	225.60
349.05	225.57
349.43	225.57
349.81	225.60
350.19	225.64
350.57	225.69
350.96	225.77
351.34	225.86
351.72	225.94
352.10	226.00
352.48	226.06
352.87	226.11
353.25	226.19
353.63	226.25
354.01	226.30
354.39	226.42
354.77	226.52
355.15	226.64
355.54	226.68
355.92	226.76
356.30	226.86
356.68	226.99
357.06	227.07
357.44	227.17
357.82	227.22
358.20	227.31
358.58	227.38
358.97	227.42
359.35	227.50
359.73	227.61
360.11	227.67
360.49	227.73
360.87	227.78
361.25	227.83
361.63	227.91
362.01	227.95
362.39	227.95
362.77	228.00
363.15	227.99
363.53	228.01
363.91	228.00
364.29	228.02
364.67	227.97
365.05	227.97
365.43	227.97
365.81	228.00
366.19	228.03
366.57	228.08
366.95	228.07
367.33	228.02
367.71	227.98
368.09	228.00
368.47	227.97
368.85	227.94
369.23	227.94
369.61	227.88
369.99	227.90
370.37	227.90
370.75	227.88
371.13	227.84
371.51	227.80
371.89	227.79
372.27	227.75
372.65	227.73
373.03	227.72
373.41	227.70
373.78	227.62
374.16	227.52
374.54	227.43
374.92	227.36
375.30	227.30
375.68	227.25
376.06	227.20
376.44	227.18
376.82	227.15
377.19	227.09
377.57	227.03
377.95	226.94
378.33	226.85
378.71	226.72
379.09	226.68
379.47	226.64
379.84	226.58
380.22	226.50
380.60	226.40
380.98	226.33
381.36	226.25
381.73	226.20
382.11	226.16
382.49	226.11
382.87	226.05
383.25	226.00
383.62	226.06
384.00	225.99
384.38	225.92
384.76	225.87
385.13	225.87
385.51	225.81
385.89	225.77
386.27	225.75
386.64	225.76
387.02	225.69
387.40	225.65
387.78	225.60
388.15	225.58
388.53	225.55
388.91	225.53
389.29	225.49
389.66	225.48
390.04	225.45
390.42	225.43
390.79	225.44
391.17	225.42
391.55	225.29
391.92	225.29
392.30	225.29
392.68	225.25
393.05	225.23
393.43	225.25
393.81	225.25
394.18	225.22
394.56	225.23
394.94	225.27
395.31	225.28
395.69	225.36
396.06	225.38
396.44	225.38
396.82	225.37
397.19	225.44
397.57	225.47
397.95	225.50
398.32	225.51
398.70	225.50
399.07	225.56
399.45	225.61
399.82	225.64
400.20	225.66
400.58	225.75
400.95	225.78
401.33	225.87
401.70	225.98
402.08	226.08
402.45	226.14
402.83	226.24
403.20	226.31
403.58	226.33
403.95	226.45
404.33	226.57
404.71	226.66
405.08	226.86
405.46	226.96
405.83	227.13
406.21	227.27
406.58	227.49
406.96	227.62
407.33	227.79
407.70	227.97
408.08	228.26
408.45	228.49
408.83	228.70
409.20	228.89
409.58	229.06
409.95	229.30
410.33	229.56
410.70	229.79
411.08	230.10
411.45	230.41
411.82	230.71
412.20	231.06
412.57	231.51
412.95	231.77
413.32	232.21
413.69	232.58
414.07	233.02
414.44	233.46
414.82	233.95
415.19	234.53
415.56	235.07
415.94	235.61
416.31	236.25
416.68	236.86
417.06	237.58
417.43	238.28
417.81	239.01
418.18	239.80
418.55	240.67
418.93	241.56
419.30	242.44
419.67	243.38
420.04	244.34
420.42	245.34
420.79	246.52
421.16	247.62
421.54	248.85
421.91	250.07
422.28	251.31
422.66	252.63
423.03	253.91
423.40	255.24
423.77	256.64
424.15	258.04
424.52	259.52
424.89	261.09
425.26	262.60
425.64	264.08
426.01	265.66
426.38	267.28
426.75	268.91
427.13	270.67
427.50	272.45
427.87	274.34
428.24	276.16
428.61	277.90
428.99	279.85
429.36	281.92
429.73	283.95
430.10	285.97
430.47	287.99
430.85	290.13
431.22	292.36
431.59	294.73
431.96	296.95
432.33	299.43
432.70	301.83
433.08	304.64
433.45	307.22
433.82	309.80
434.19	312.67
434.56	315.45
434.93	318.02
435.30	320.59
435.68	323.42
436.05	326.19
436.42	328.95
436.79	331.42
437.16	334.10
437.53	336.93
437.90	339.70
438.27	342.41
438.64	345.16
439.01	347.67
439.38	349.85
439.75	352.01
440.13	354.47
440.50	356.77
440.87	358.59
441.24	360.54
441.61	362.67
441.98	364.12
442.35	365.90
442.72	367.80
443.09	369.59
443.46	370.59
443.83	371.20
444.20	371.69
444.57	372.54
444.94	372.81
445.31	373.12
445.68	373.54
446.05	373.61
446.42	373.24
446.79	372.86
447.16	372.44
447.53	372.09
447.90	370.96
448.27	369.82
448.64	368.26
449.01	367.14
449.37	365.19
449.74	363.34
450.11	361.12
450.48	358.64
450.85	356.17
451.22	354.07
451.59	352.08
451.96	350.18
452.33	347.58
452.70	345.24
453.07	342.47
453.43	339.55
453.80	336.84
454.17	334.18
454.54	331.66
454.91	328.99
455.28	326.36
455.65	323.87
456.02	321.48
456.38	319.35
456.75	316.73
457.12	314.54
457.49	312.36
457.86	310.22
458.23	308.38
458.59	306.32
458.96	304.25
459.33	302.43
459.70	300.59
460.07	299.11
460.43	297.40
460.80	295.77
461.17	294.39
461.54	292.89
461.91	291.51
462.27	290.11
462.64	288.86
463.01	287.52
463.38	286.26
463.74	284.88
464.11	283.74
464.48	282.71
464.85	281.58
465.21	280.73
465.58	279.86
465.95	278.80
466.32	277.94
466.68	277.04
467.05	276.13
467.42	275.25
467.78	274.32
468.15	273.45
468.52	272.80
468.88	271.93
469.25	271.23
469.62	270.63
469.98	269.95
470.35	269.36
470.72	268.77
471.08	268.16
471.45	267.60
471.82	267.09
472.18	266.54
472.55	266.14
472.92	265.61
473.28	265.16
473.65	264.71
474.02	264.28
474.38	263.95
474.75	263.66
475.11	263.35
475.48	263.15
475.85	262.97
476.21	262.80
476.58	262.63
476.94	262.44
477.31	262.28
477.67	262.12
478.04	262.01
478.41	261.98
478.77	262.03
479.14	261.99
479.50	262.00
479.87	262.04
480.23	262.14
480.60	262.23
480.96	262.31
481.33	262.54
481.69	262.78
482.06	263.00
482.42	263.19
482.79	263.44
483.15	263.76
483.52	264.16
483.88	264.43
484.25	264.80
484.61	265.26
484.98	265.76
485.34	266.34
485.71	266.96
486.07	267.55
486.44	268.11
486.80	268.85
487.17	269.60
487.53	270.41
487.90	271.24
488.26	272.20
488.62	273.20
488.99	274.21
489.35	275.20
489.72	276.30
490.08	277.49
490.44	278.74
490.81	280.06
491.17	281.40
491.54	282.93
491.90	284.51
492.26	286.16
492.63	287.84
492.99	289.62
493.36	291.47
493.72	293.49
494.08	295.59
494.45	297.83
494.81	300.20
495.17	302.63
495.54	305.22
495.90	307.90
496.26	310.71
496.63	313.62
496.99	316.74
497.35	320.00
497.72	323.41
498.08	326.94
498.44	330.57
498.80	334.51
499.17	338.52
499.53	342.74
499.89	347.08
500.26	351.55
500.62	356.19
500.98	361.14
501.34	366.29
501.71	371.61
502.07	377.03
502.43	382.61
502.79	388.42
503.16	394.43
503.52	400.63
503.88	407.03
504.24	413.65
504.60	420.54
504.97	427.66
505.33	434.97
505.69	442.65
506.05	450.44
506.41	458.27
506.78	466.43
507.14	474.79
507.50	483.48
507.86	492.53
508.22	501.73
508.59	510.94
508.95	520.40
509.31	530.15
509.67	540.24
510.03	550.48
510.39	561.02
510.75	571.74
511.12	582.60
511.48	593.77
511.84	605.15
512.20	616.66
512.56	628.53
512.92	640.66
513.28	653.03
513.64	665.38
514.00	678.06
514.37	690.83
514.73	703.83
515.09	716.78
515.45	729.96
515.81	743.43
516.17	757.30
516.53	771.34
516.89	785.49
517.25	799.53
517.61	813.93
517.97	828.30
518.33	842.71
518.69	857.50
519.05	872.46
519.41	887.57
519.77	902.95
520.13	918.32
520.49	933.60
520.85	948.70
521.21	964.35
521.57	980.47
521.93	996.15
522.29	1012.33
522.65	1028.52
523.01	1044.61
523.37	1060.55
523.73	1076.60
524.09	1092.57
524.45	1108.71
524.81	1125.26
525.17	1141.80
525.53	1158.53
525.89	1175.15
526.25	1191.84
526.61	1208.06
526.97	1224.66
527.33	1240.98
527.68	1257.31
528.04	1273.62
528.40	1290.15
528.76	1307.11
529.12	1323.51
529.48	1340.34
529.84	1356.29
530.20	1372.70
530.56	1389.39
530.91	1406.63
531.27	1423.24
531.63	1439.49
531.99	1455.90
532.35	1471.69
532.71	1487.49
533.07	1503.54
533.42	1519.52
533.78	1535.42
534.14	1551.48
534.50	1566.64
534.86	1582.26
535.21	1597.36
535.57	1613.23
535.93	1628.45
536.29	1643.08
536.65	1658.03
537.00	1672.57
537.36	1687.72
537.72	1702.10
538.08	1716.60
538.44	1730.26
538.79	1743.93
539.15	1757.47
539.51	1771.03
539.87	1785.23
540.22	1798.78
540.58	1812.34
540.94	1825.20
541.29	1837.73
541.65	1850.23
542.01	1863.25
542.37	1875.64
542.72	1887.90
543.08	1899.47
543.44	1911.77
543.79	1922.95
544.15	1933.67
544.51	1945.00
544.87	1955.72
545.22	1966.52
545.58	1976.61
545.94	1986.24
546.29	1996.16
546.65	2005.97
547.01	2015.19
547.36	2023.81
547.72	2032.25
548.07	2040.30
548.43	2048.39
548.79	2056.32
549.14	2064.00
549.50	2071.28
549.86	2078.66
550.21	2085.86
550.57	2092.97
550.92	2099.61
551.28	2106.58
551.64	2113.65
551.99	2120.14
552.35	2126.27
552.70	2132.26
553.06	2138.18
553.41	2144.46
553.77	2150.11
554.13	2155.99
554.48	2161.93
554.84	2167.54
555.19	2172.64
555.55	2177.54
555.90	2182.11
556.26	2187.25
556.61	2191.72
556.97	2196.11
557.32	2200.23
557.68	2204.41
558.03	2208.59
558.39	2212.13
558.74	2216.62
559.10	2220.44
559.45	2224.19
559.81	2228.40
560.16	2232.11
560.52	2235.29
560.87	2238.58
561.23	2241.44
561.58	2244.40
561.94	2246.99
562.29	2249.08
562.64	2252.01
563.00	2254.70
563.35	2258.15
563.71	2261.14
564.06	2264.41
564.42	2267.33
564.77	2269.98
565.12	2272.45
565.48	2274.42
565.83	2276.44
566.19	2277.93
566.54	2278.76
566.89	2279.99
567.25	2280.80
567.60	2282.23
567.96	2284.08
568.31	2285.08
568.66	2286.27
569.02	2287.01
569.37	2287.45
569.72	2288.59
570.08	2288.73
570.43	2288.74
570.78	2288.43
571.14	2286.99
571.49	2285.72
571.84	2285.37
572.20	2284.44
572.55	2283.31
572.90	2281.75
573.26	2280.37
573.61	2278.50
573.96	2277.14
574.31	2274.24
574.67	2271.34
575.02	2267.85
575.37	2264.45
575.72	2260.84
576.08	2257.52
576.43	2254.14
576.78	2250.69
577.13	2247.40
577.49	2244.18
577.84	2240.84
578.19	2237.10
578.54	2233.68
578.90	2229.64
579.25	2224.18
579.60	2219.32
579.95	2214.57
580.30	2209.70
580.66	2204.73
581.01	2199.94
581.36	2195.00
581.71	2191.03
582.06	2186.81
582.42	2182.51
582.77	2177.36
583.12	2172.99
583.47	2168.50
583.82	2163.78
584.17	2158.63
584.53	2153.29
584.88	2147.93
585.23	2142.29
585.58	2136.85
585.93	2131.30
586.28	2126.39
586.63	2121.46
586.98	2116.37
587.34	2111.58
587.69	2106.81
588.04	2101.77
588.39	2096.11
588.74	2089.63
589.09	2083.50
589.44	2076.73
589.79	2070.61
590.14	2064.96
590.49	2058.21
590.84	2051.63
591.19	2045.59
591.54	2039.11
591.89	2031.95
592.25	2025.29
592.60	2018.07
592.95	2010.75
593.30	2003.53
593.65	1996.02
594.00	1989.01
594.35	1981.72
594.70	1973.73
595.05	1966.67
595.40	1959.37
595.75	1952.12
596.10	1946.17
596.45	1939.59
596.80	1933.57
597.15	1927.10
597.50	1920.37
597.85	1914.16
598.19	1907.86
598.54	1901.13
598.89	1894.67
599.24	1888.79
599.59	1882.34
599.94	1876.22
600.29	1869.86
600.64	1863.31
600.99	1856.03
601.34	1849.31
601.69	1842.47
602.04	1835.87
602.39	1828.55
602.74	1821.82
603.08	1815.18
603.43	1808.38
603.78	1801.01
604.13	1793.70
604.48	1786.62
604.83	1779.67
605.18	1772.94
605.53	1765.09
605.87	1757.05
606.22	1749.65
606.57	1741.68
606.92	1734.15
607.27	1727.22
607.62	1720.47
607.96	1713.42
608.31	1707.09
608.66	1699.55
609.01	1692.16
609.36	1684.69
609.70	1676.70
610.05	1668.69
610.40	1661.09
610.75	1653.02
611.10	1645.47
611.44	1637.02
611.79	1628.96
612.14	1620.35
612.49	1611.10
612.83	1602.61
613.18	1594.46
613.53	1586.55
613.88	1577.99
614.22	1569.84
614.57	1561.11
614.92	1553.09
615.27	1545.68
615.61	1537.45
615.96	1529.36
616.31	1521.73
616.65	1514.22
617.00	1506.78
617.35	1499.08
617.70	1490.82
618.04	1482.32
618.39	1474.02
618.74	1466.67
619.08	1458.30
619.43	1450.75
619.78	1443.76
620.12	1436.72
620.47	1429.27
620.82	1421.11
621.16	1413.80
621.51	1406.18
621.85	1398.58
622.20	1390.02
622.55	1381.47
622.89	1373.46
623.24	1365.86
623.59	1358.33
623.93	1350.75
624.28	1343.52
624.62	1336.05
624.97	1328.78
625.32	1321.91
625.66	1314.89
626.01	1307.74
626.35	1300.47
626.70	1292.78
627.04	1285.21
627.39	1277.41
627.73	1269.92
628.08	1262.94
628.43	1255.78
628.77	1248.46
629.12	1240.83
629.46	1233.78
629.81	1226.29
630.15	1219.08
630.50	1211.68
630.84	1203.66
631.19	1195.84
631.53	1188.23
631.88	1180.57
632.22	1173.06
632.57	1165.67
632.91	1158.15
633.26	1150.71
633.60	1143.18
633.95	1135.92
634.29	1128.77
634.64	1121.94
634.98	1114.63
635.32	1107.50
635.67	1100.86
636.01	1094.28
636.36	1087.61
636.70	1080.99
637.05	1074.42
637.39	1067.97
637.73	1061.50
638.08	1055.67
638.42	1049.69
638.77	1043.33
639.11	1036.90
639.45	1030.41
639.80	1023.80
640.14	1017.50
640.49	1011.03
640.83	1004.84
641.17	998.69
641.52	992.42
641.86	986.01
642.20	980.19
642.55	973.83
642.89	967.41
643.23	960.75
643.58	955.02
643.92	948.89
644.26	943.02
644.61	936.98
644.95	931.03
645.29	924.43
645.64	917.68
645.98	911.36
646.32	905.43
646.66	899.42
647.01	893.69
647.35	887.98
647.69	882.08
648.04	876.59
648.38	870.87
648.72	864.86
649.06	858.84
649.41	852.92
649.75	847.14
650.09	841.19
650.43	835.50
650.78	829.29
651.12	823.29
651.46	817.49
651.80	811.85
652.14	806.45
652.49	801.13
652.83	795.97
653.17	790.36
653.51	784.74
653.85	779.34
654.20	773.69
654.54	767.71
654.88	761.98
655.22	756.02
655.56	750.32
655.90	744.85
656.25	739.63
656.59	734.33
656.93	729.18
657.27	723.96
657.61	718.49
657.95	713.43
658.29	708.41
658.64	703.13
658.98	697.73
659.32	692.25
659.66	687.00
660.00	681.75
660.34	676.83
660.68	671.84
661.02	666.87
661.36	662.19
661.70	657.66
662.05	653.31
662.39	649.12
662.73	644.62
663.07	640.29
663.41	635.82
663.75	631.29
664.09	626.75
664.43	622.39
664.77	618.31
665.11	614.09
665.45	609.92
665.79	605.93
666.13	601.89
666.47	597.76
666.81	593.62
667.15	589.42
667.49	585.44
667.83	581.57
668.17	577.60
668.51	573.56
668.85	569.56
669.19	565.64
669.53	561.76
669.87	557.93
670.21	554.26
670.55	550.64
670.89	547.25
671.23	543.80
671.57	540.23
671.91	536.76
672.25	533.20
672.58	529.71
672.92	526.23
673.26	523.00
673.60	519.88
673.94	516.84
674.28	513.96
674.62	511.04
674.96	508.02
675.30	505.11
675.64	502.17
675.97	499.37
676.31	496.49
676.65	493.56
676.99	490.83
677.33	487.90
677.67	485.04
678.01	482.02
678.34	479.11
678.68	476.24
679.02	473.37
679.36	470.58
679.70	467.79
680.04	465.05
680.37	462.19
680.71	459.42
681.05	456.69
681.39	453.98
681.73	451.27
682.06	448.79
682.40	446.27
682.74	443.72
683.08	441.16
683.42	438.61
683.75	436.14
684.09	433.57
684.43	431.17
684.77	428.79
685.10	426.42
685.44	424.08
685.78	421.82
686.12	419.52
686.45	417.25
686.79	414.99
687.13	412.80
687.46	410.64
687.80	408.44
688.14	406.21
688.48	404.17
688.81	401.97
689.15	399.81
689.49	397.60
689.82	395.52
690.16	393.46
690.50	391.47
690.83	389.53
691.17	387.53
691.51	385.57
691.84	383.70
692.18	381.78
692.52	379.86
692.85	377.96
693.19	376.12
693.52	374.31
693.86	372.51
694.20	370.75
694.53	369.00
694.87	367.15
695.21	365.42
695.54	363.58
695.88	361.85
696.21	360.09
696.55	358.42
696.88	356.73
697.22	355.03
697.56	353.42
697.89	351.76
698.23	350.19
698.56	348.60
698.90	347.04
699.23	345.40
699.57	343.77
699.90	342.17
700.24	340.61
700.58	339.09
700.91	337.63
701.25	336.17
701.58	334.79
701.92	333.43
702.25	332.02
702.59	330.63
702.92	329.32
703.26	327.98
703.59	326.74
703.93	325.56
704.26	324.37
704.60	323.06
704.93	321.74
705.26	320.48
705.60	319.31
705.93	318.12
706.27	317.10
706.60	316.07
706.94	315.05
707.27	313.96
707.61	312.89
707.94	311.84
708.27	310.77
708.61	309.62
708.94	308.62
709.28	307.62
709.61	306.69
709.94	305.71
710.28	304.71
710.61	303.73
710.95	302.63
711.28	301.68
711.61	300.75
711.95	299.88
712.28	298.97
712.61	297.98
712.95	297.05
713.28	296.15
713.61	295.21
713.95	294.30
714.28	293.45
714.61	292.53
714.95	291.66
715.28	290.78
715.61	289.93
715.95	289.07
716.28	288.21
716.61	287.39
716.95	286.57
717.28	285.83
717.61	285.06
717.94	284.32
718.28	283.51
718.61	282.73
718.94	282.01
719.27	281.35
719.61	280.71
719.94	280.06
720.27	279.33
720.60	278.70
720.94	278.06
721.27	277.43
721.60	276.86
721.93	276.29
722.27	275.75
722.60	275.14
722.93	274.56
723.26	274.02
723.59	273.47
723.93	272.90
724.26	272.39
724.59	271.79
724.92	271.25
725.25	270.77
725.59	270.22
725.92	269.76
726.25	269.21
726.58	268.73
726.91	268.22
727.24	267.77
727.57	267.30
727.91	266.76
728.24	266.32
728.57	265.85
728.90	265.39
729.23	264.88
729.56	264.54
729.89	264.12
730.22	263.66
730.55	263.13
730.89	262.70
731.22	262.24
731.55	261.81
731.88	261.41
732.21	260.96
732.54	260.58
732.87	260.12
733.20	259.74
733.53	259.34
733.86	258.96
734.19	258.54
734.52	258.13
734.85	257.87
735.18	257.43
735.51	257.07
735.84	256.70
736.17	256.35
736.50	255.90
736.83	255.67
737.16	255.37
737.49	255.09
737.82	254.77
738.15	254.42
738.48	254.12
738.81	253.81
739.14	253.50
739.47	253.19
739.80	252.86
740.13	252.55
740.46	252.23
740.79	251.91
741.12	251.59
741.45	251.28
741.78	250.92
742.11	250.66
742.44	250.33
742.77	250.02
743.10	249.74
743.43	249.45
743.75	249.04
744.08	248.88
744.41	248.58
744.74	248.27
745.07	248.00
745.40	247.77
745.73	247.54
746.06	247.26
746.39	247.00
746.71	246.75
747.04	246.49
747.37	246.23
747.70	246.01
748.03	245.76
748.36	245.55
748.68	245.32
749.01	245.06
749.34	244.86
749.67	244.64
750.00	244.39
750.33	244.27
750.65	244.07
750.98	243.68
751.31	243.49
751.64	243.29
751.97	243.08
752.29	242.83
752.62	242.58
752.95	242.38
753.28	242.16
753.60	241.96
753.93	241.77
754.26	241.54
754.59	241.30
754.91	241.09
755.24	240.88
755.57	240.70
755.90	240.50
756.22	240.29
756.55	240.08
756.88	239.87
757.20	239.59
757.53	239.39
757.86	239.20
758.19	239.06
758.51	238.92
758.84	238.71
759.17	238.55
759.49	238.36
759.82	238.22
760.15	238.06
760.47	237.89
760.80	237.72
761.13	237.58
761.45	237.40
761.78	237.27
762.11	237.13
762.43	236.95
762.76	236.80
763.08	236.68
763.41	236.57
763.74	236.45
764.06	236.29
764.39	236.13
764.71	236.02
765.04	235.84
765.37	235.68
765.69	235.56
766.02	235.45
766.34	235.33
766.67	235.20
767.00	235.13
767.32	235.05
767.65	234.99
767.97	234.91
768.30	234.81
768.62	234.69
768.95	234.55
769.27	234.42
769.60	234.36
769.92	234.23
770.25	234.08
770.57	233.95
770.90	233.87
771.22	233.76
771.55	233.66
771.87	233.55
772.20	233.45
772.52	233.45
772.85	233.45
773.17	233.32
773.50	233.18
773.82	233.03
774.15	232.88
774.47	232.73
774.80	232.60
775.12	232.48
775.45	232.41
775.77	232.34
776.09	232.31
776.42	232.21
776.74	232.16
777.07	232.06
777.39	232.01
777.72	231.93
778.04	231.85
778.36	231.78
778.69	231.75
779.01	231.70
779.33	231.55
779.66	231.37
779.98	231.32
780.31	231.31
780.63	231.29
780.95	231.26
781.28	231.22
781.60	231.16
781.92	231.13
782.25	231.06
782.57	231.02
782.89	230.91
783.22	230.83
783.54	230.76
783.86	230.72
784.19	230.64
784.51	230.62
784.83	230.57
785.16	230.52
785.48	230.47
785.80	230.40
786.12	230.34
786.45	230.30
786.77	230.25
787.09	230.17
787.42	230.09
787.74	230.05
788.06	230.03
788.38	229.96
788.71	229.92
789.03	229.88
789.35	229.81
789.67	229.80
789.99	229.76
790.32	229.74
790.64	229.72
790.96	229.76
791.28	229.72
791.61	229.67
791.93	229.63
792.25	229.57
792.57	229.62
792.89	229.60
793.21	229.55
793.54	229.52
793.86	229.50
794.18	229.49
794.50	229.44
794.82	229.40
795.14	229.39
795.47	229.39
795.79	229.34
796.11	229.34
796.43	229.29
796.75	229.27
797.07	229.24
797.39	229.20
797.71	229.13
798.04	229.10
798.36	229.11
798.68	229.09
799.00	229.11
799.32	229.03
799.64	229.01
799.96	229.05
800.28	229.06
800.60	229.03
800.92	229.00
801.24	228.98
801.56	228.95
801.89	228.92
802.21	228.89
802.53	228.85
802.85	228.84
803.17	228.87
803.49	228.83
803.81	228.79
804.13	228.77
804.45	228.73
804.77	228.72
805.09	228.68
805.41	228.66
805.73	228.62
806.05	228.56
806.37	228.54
806.69	228.48
807.01	228.42
807.33	228.40
807.65	228.34
807.97	228.33
808.28	228.29
808.60	228.29
808.92	228.26
809.24	228.30
809.56	228.26
809.88	228.18
810.20	228.15
810.52	228.13
810.84	228.10
811.16	228.06
811.48	228.02
811.80	228.02
812.12	227.95
812.43	227.92
812.75	227.94
813.07	227.88
813.39	227.84
813.71	227.83
814.03	227.78
814.35	227.76
814.67	227.72
814.98	227.71
815.30	227.67
815.62	227.61
815.94	227.53
816.26	227.53
816.58	227.50
816.89	227.48
817.21	227.44
817.53	227.42
817.85	227.41
818.17	227.39
818.48	227.36
818.80	227.40
819.12	227.36
819.44	227.29
819.76	227.25
820.07	227.25
820.39	227.20
820.71	227.23
821.03	227.21
821.34	227.14
821.66	227.11
821.98	227.12
822.30	227.11
822.61	227.16
822.93	227.11
823.25	227.09
823.57	227.07
823.88	227.08
824.20	227.07
824.52	227.03
824.83	226.98
825.15	226.95
825.47	226.88
825.79	226.91
826.10	226.88
826.42	226.91
826.74	226.89
827.05	226.88
827.37	226.82
827.69	226.84
828.00	226.84
828.32	226.86
828.64	226.82
828.95	226.84
829.27	226.81
829.58	226.78
829.90	226.81
830.22	226.83
830.53	226.77
830.85	226.74
831.17	226.70
831.48	226.71
831.80	226.69
832.11	226.70
832.43	226.66
832.75	226.66
833.06	226.72
833.38	226.67
833.69	226.67
834.01	226.69
834.32	226.63
834.64	226.64
834.96	226.61
835.27	226.60
835.59	226.57
835.90	226.55
836.22	226.55
836.53	226.49
836.85	226.49
837.16	226.57
837.48	226.57
837.79	226.63
838.11	226.61
838.42	226.64
838.74	226.62
839.05	226.59
839.37	226.61
839.68	226.51
840.00	226.53
840.31	226.55
840.63	226.54
840.94	226.57
841.26	226.55
841.57	226.55
841.88	226.56
842.20	226.55
842.51	226.51
842.83	226.49
843.14	226.59
843.46	226.58
843.77	226.52
844.08	226.50
844.40	226.46
844.71	226.46
845.03	226.42
845.34	226.41
845.65	226.40
845.97	226.40
846.28	226.38
846.60	226.40
846.91	226.36
847.22	226.36
847.54	226.35
847.85	226.36
848.16	226.35
848.48	226.31
848.79	226.37
849.10	226.39
849.42	226.40
849.73	226.31
850.04	226.31
850.36	226.29
850.67	226.34
850.98	226.35
851.30	226.36
851.61	226.37
851.92	226.37
852.23	226.41
852.55	226.41
852.86	226.44
853.17	226.42
853.49	226.43
853.80	226.43
854.11	226.45
854.42	226.45
854.74	226.43
855.05	226.46
855.36	226.41
855.67	226.40
855.99	226.41
856.30	226.54
856.61	226.53
856.92	226.54
857.23	226.50
857.55	226.49
857.86	226.47
858.17	226.47
858.48	226.45
858.79	226.44
859.11	226.41
859.42	226.40
859.73	226.39
860.04	226.42
860.35	226.40
860.66	226.39
860.98	226.40
861.29	226.41
861.60	226.39
861.91	226.37
862.22	226.34
862.53	226.30
862.84	226.14
863.16	226.18
863.47	226.16
863.78	226.16
864.09	226.14
864.40	226.12
864.71	226.12
865.02	226.10
865.33	226.08
865.64	226.08
865.95	226.06
866.27	226.11
866.58	226.10
866.89	226.10
867.20	226.06
867.51	226.03
867.82	226.02
868.13	226.02
868.44	226.00
868.75	226.03
869.06	226.06
869.37	226.08
869.68	226.06
869.99	226.05
870.30	226.07
870.61	226.10
870.92	226.15
871.23	226.14
871.54	226.18
871.85	226.22
872.16	226.24
872.47	226.24
872.78	226.21
873.09	226.20
873.40	226.18
873.71	226.19
874.02	226.19
874.33	226.20
874.64	226.19
874.95	226.23
875.26	226.19
875.56	226.20
875.87	226.24
876.18	226.19
876.49	226.31
876.80	226.31
877.11	226.27
877.42	226.25
877.73	226.23
878.04	226.23
878.35	226.19
878.66	226.19
878.96	226.16
879.27	226.13
879.58	226.11
879.89	226.11
880.20	226.17
880.51	226.18
880.82	226.16
881.12	226.15
881.43	226.12
881.74	226.16
882.05	226.11
882.36	226.10
882.67	226.13
882.97	226.02
883.28	226.01
883.59	226.00
883.90	226.04
884.21	226.04
884.51	226.03
884.82	226.02
885.13	226.03
885.44	226.04
885.74	226.03
886.05	226.03
886.36	226.02
886.67	226.01
886.98	226.04
887.28	226.04
887.59	226.06
887.90	226.07
888.20	226.03
888.51	226.06
888.82	226.01
889.13	226.02
889.43	226.06
889.74	226.05
890.05	226.05
890.35	225.99
890.66	225.99
890.97	225.98
891.28	225.95
891.58	225.96
891.89	225.94
892.20	225.93
892.50	225.93
892.81	225.95
893.12	225.93
893.42	225.86
893.73	225.87
894.04	225.86
894.34	225.86
894.65	225.87
894.95	225.82
895.26	225.86
895.57	225.89
895.87	225.82
896.18	225.84
896.48	225.86
896.79	225.85
897.10	225.84
897.40	225.85
897.71	225.89
898.01	225.86
898.32	225.88
898.63	225.88
898.93	225.88
899.24	225.91
899.54	225.91
899.85	225.91
900.15	225.91
900.46	225.91
900.76	225.87
901.07	225.84
901.38	225.85
901.68	225.87
901.99	225.81
902.29	225.80
902.60	225.77
902.90	225.75
903.21	225.76
903.51	225.75
903.82	225.79
904.12	225.77
904.43	225.78
904.73	225.76
905.03	225.75
905.34	225.86
905.64	225.80
905.95	225.78
906.25	225.75
906.56	225.74
906.86	225.72
907.17	225.73
907.47	225.74
907.77	225.74
908.08	225.70
908.38	225.67
908.69	225.71
908.99	225.75
909.30	225.74
909.60	225.74
909.90	225.72
910.21	225.64
910.51	225.62
910.81	225.63
911.12	225.64
911.42	225.64
911.73	225.52
912.03	225.52
912.33	225.54
912.64	225.55
912.94	225.53
913.24	225.54
913.55	225.53
913.85	225.51
914.15	225.50
914.46	225.50
914.76	225.50
915.06	225.47
915.37	225.42
915.67	225.43
915.97	225.42
916.27	225.41
916.58	225.46
916.88	225.45
917.18	225.39
917.49	225.47
917.79	225.45
918.09	225.47
918.39	225.52
918.70	225.49
919.00	225.52
919.30	225.57
919.60	225.56
919.91	225.52
920.21	225.55
920.51	225.52
920.81	225.49
921.12	225.51
921.42	225.51
921.72	225.52
922.02	225.52
922.32	225.52
922.63	225.51
922.93	225.52
923.23	225.53
923.53	225.56
923.83	225.47
924.13	225.51
924.44	225.47
924.74	225.43
925.04	225.47
925.34	225.40
925.64	225.38
925.94	225.38
926.24	225.44
926.55	225.43
926.85	225.47
927.15	225.50
927.45	225.48
927.75	225.46
928.05	225.48
928.35	225.45
928.65	225.49
928.95	225.53
929.26	225.48
929.56	225.52
929.86	225.52
930.16	225.52
930.46	225.48
930.76	225.51
931.06	225.51
931.36	225.47
931.66	225.53
931.96	225.52
932.26	225.54
932.56	225.51
932.86	225.52
933.16	225.54
933.46	225.51
933.76	225.50
934.06	225.52
934.36	225.55
934.66	225.58
934.96	225.56
935.26	225.55
935.56	225.61
935.86	225.60
936.16	225.60
936.46	225.59
936.76	225.61
937.06	225.64
937.36	225.63
937.66	225.63
937.96	225.61
938.26	225.58
938.56	225.57
938.86	225.54
939.16	225.56
939.46	225.55
939.76	225.59
940.06	225.62
940.35	225.64
940.65	225.59
940.95	225.60
941.25	225.55
941.55	225.54
941.85	225.53
942.15	225.53
942.45	225.56
942.75	225.55
943.04	225.53
943.34	225.51
943.64	225.51
943.94	225.49
944.24	225.51
944.54	225.54
944.84	225.53
945.13	225.56
945.43	225.53
945.73	225.53
946.03	225.51
946.33	225.49
946.62	225.45
946.92	225.44
947.22	225.47
947.52	225.48
947.82	225.49
948.11	225.45
948.41	225.40
948.71	225.34
949.01	225.36
949.31	225.36
949.60	225.34
949.90	225.33
950.20	225.36
950.50	225.33
950.79	225.32
951.09	225.32
951.39	225.31
951.69	225.27
951.98	225.28
952.28	225.28
952.58	225.28
952.87	225.27
953.17	225.27
953.47	225.23
953.76	225.22
954.06	225.19
954.36	225.17
954.66	225.19
954.95	225.25
955.25	225.25
955.55	225.26
955.84	225.26
956.14	225.29
956.44	225.29
956.73	225.29
957.03	225.30
957.32	225.29
957.62	225.29
957.92	225.38
958.21	225.37
958.51	225.49
958.81	225.50
959.10	225.54
959.40	225.57
959.69	225.58
959.99	225.61
960.29	225.65
960.58	225.66
960.88	225.73
961.17	225.71
961.47	225.70
961.76	225.69
962.06	225.72
962.36	225.70
962.65	225.67
962.95	225.70
963.24	225.71
963.54	225.74
963.83	225.74
964.13	225.71
964.42	225.71
964.72	225.63
965.01	225.62
965.31	225.60
965.60	225.59
965.90	225.66
966.19	225.65
966.49	225.65
966.78	225.66
967.08	225.64
967.37	225.65
967.67	225.66
967.96	225.69
968.26	225.68
968.55	225.67
968.85	225.72
969.14	225.73
969.43	225.71
969.73	225.72
970.02	225.72
970.32	225.72
970.61	225.70
970.91	225.68
971.20	225.69
971.49	225.69
971.79	225.70
972.08	225.65
972.38	225.66
972.67	225.65
972.96	225.67
973.26	225.65
973.55	225.65
973.85	225.64
974.14	225.63
974.43	225.63
974.73	225.64
975.02	225.62
975.31	225.61
975.61	225.61
975.90	225.55
976.19	225.55
976.49	225.56
976.78	225.55
977.07	225.56
977.37	225.56
977.66	225.56
977.95	225.56
978.24	225.51
978.54	225.52
978.83	225.53
979.12	225.51
979.42	225.49
979.71	225.51
980.00	225.51
980.29	225.53
980.59	225.49
980.88	225.50
981.17	225.50
981.46	225.48
981.76	225.46
982.05	225.51
982.34	225.52
982.63	225.49
982.93	225.50
983.22	225.52
983.51	225.49
983.80	225.52
984.09	225.50
984.39	225.48
984.68	225.47
984.97	225.46
985.26	225.42
985.55	225.40
985.85	225.37
986.14	225.37
986.43	225.33
986.72	225.35
987.01	225.30
987.30	225.30
987.59	225.28
987.89	225.28
988.18	225.25
988.47	225.22
988.76	225.22
989.05	225.22
989.34	225.21
989.63	225.24
989.92	225.19
990.22	225.20
990.51	225.23
990.80	225.18
991.09	225.16
991.38	225.20
991.67	225.21
991.96	225.17
992.25	225.18
992.54	225.18
992.83	225.16
993.12	225.18
993.41	225.20
993.70	225.27
993.99	225.32
994.28	225.36
994.58	225.41
994.87	225.42
995.16	225.44
995.45	225.42
995.74	225.40
996.03	225.45
996.32	225.48
996.61	225.49
996.90	225.50
997.19	225.54
997.48	225.52
997.77	225.53
998.06	225.53
998.34	225.51
998.63	225.55
998.92	225.54
999.21	225.56
999.50	225.54
999.79	225.49
1000.08	225.48
1000.37	225.47
1000.66	225.45
1000.95	225.47
1001.24	225.45
1001.53	225.45
1001.82	225.43
1002.11	225.40
1002.40	225.39
1002.68	225.41
1002.97	225.52
1003.26	225.50
1003.55	225.49
1003.84	225.48
1004.13	225.51
1004.42	225.50
1004.71	225.51
1004.99	225.52
1005.28	225.52
1005.57	225.51
1005.86	225.51
1006.15	225.49
1006.44	225.46
1006.72	225.49
1007.01	225.44
1007.30	225.45
1007.59	225.45
1007.88	225.45
1008.17	225.45
1008.45	225.43
1008.74	225.41
1009.03	225.36
1009.32	225.35
1009.60	225.39
1009.89	225.37
1010.18	225.36
1010.47	225.35
1010.76	225.34
1011.04	225.34
1011.33	225.40
1011.62	225.43
1011.91	225.40
1012.19	225.39
1012.48	225.39
1012.77	225.32
1013.05	225.37
1013.34	225.35
1013.63	225.32
1013.92	225.30
1014.20	225.28
1014.49	225.27
1014.78	225.24
1015.06	225.20
1015.35	225.19
1015.64	225.18
1015.92	225.20
1016.21	225.20
1016.50	225.20
1016.78	225.18
1017.07	225.18
1017.36	225.12
1017.64	225.08
1017.93	225.09
1018.22	225.05
1018.50	225.05
1018.79	225.06
1019.08	225.01
1019.36	225.02
1019.65	225.02
1019.93	225.10
1020.22	225.13
1020.51	225.17
1020.79	225.17
1021.08	224.48
1021.36	225.21
1021.65	224.70
1021.94	224.92
1022.22	225.15
1022.51	225.07
1022.79	226.16
1023.08	225.68
1023.36	226.03
1023.65	224.90
>>>>>End Processed Spectral Data<<<<<
