SpectraSuite Data File
++++++++++++++++++++++++++++++++++++
Date: Fri Feb 01 15:16:00 EST 2013
User: group
Dark Spectrum Present: No
Reference Spectrum Present: No
Number of Sampled Component Spectra: 1
Spectrometers: USB2E7196
Integration Time (usec): 35000 (USB2E7196)
Spectra Averaged: 100 (USB2E7196)
Boxcar Smoothing: 10 (USB2E7196)
Correct for Electrical Dark: No (USB2E7196)
Strobe/Lamp Enabled: No (USB2E7196)
Correct for Detector Non-linearity: No (USB2E7196)
Correct for Stray Light: No (USB2E7196)
Number of Pixels in Processed Spectrum: 2048
>>>>>Begin Processed Spectral Data<<<<<
339.09	0.00
339.48	214.48
339.86	216.13
340.24	218.10
340.63	219.66
341.01	222.33
341.39	221.38
341.78	222.82
342.16	224.36
342.54	225.17
342.93	213.41
343.31	224.20
343.69	224.76
344.07	225.27
344.46	225.69
344.84	226.04
345.22	226.28
345.60	226.54
345.99	226.75
346.37	226.91
346.75	226.99
347.13	227.02
347.52	227.07
347.90	227.16
348.28	227.21
348.66	227.22
349.05	227.21
349.43	227.26
349.81	227.31
350.19	227.37
350.57	227.45
350.96	227.51
351.34	227.63
351.72	227.72
352.10	227.79
352.48	227.86
352.87	227.94
353.25	228.00
353.63	228.05
354.01	228.15
354.39	228.19
354.77	228.27
355.15	228.37
355.54	228.44
355.92	228.40
356.30	228.46
356.68	228.60
357.06	228.70
357.44	228.74
357.82	228.76
358.20	228.82
358.58	228.85
358.97	228.91
359.35	228.93
359.73	229.02
360.11	229.06
360.49	229.13
360.87	229.18
361.25	229.24
361.63	229.35
362.01	229.35
362.39	229.36
362.77	229.42
363.15	229.45
363.53	229.47
363.91	229.53
364.29	229.55
364.67	229.50
365.05	229.51
365.43	229.50
365.81	229.51
366.19	229.56
366.57	229.57
366.95	229.57
367.33	229.53
367.71	229.49
368.09	229.46
368.47	229.42
368.85	229.37
369.23	229.33
369.61	229.25
369.99	229.27
370.37	229.29
370.75	229.27
371.13	229.15
371.51	229.08
371.89	229.01
372.27	228.95
372.65	228.84
373.03	228.77
373.41	228.74
373.78	228.68
374.16	228.58
374.54	228.48
374.92	228.41
375.30	228.36
375.68	228.28
376.06	228.23
376.44	228.14
376.82	228.07
377.19	228.00
377.57	227.91
377.95	227.79
378.33	227.69
378.71	227.56
379.09	227.55
379.47	227.49
379.84	227.41
380.22	227.35
380.60	227.30
380.98	227.20
381.36	227.10
381.73	227.00
382.11	226.94
382.49	226.89
382.87	226.81
383.25	226.73
383.62	226.77
384.00	226.69
384.38	226.64
384.76	226.61
385.13	226.61
385.51	226.55
385.89	226.52
386.27	226.46
386.64	226.48
387.02	226.41
387.40	226.39
387.78	226.37
388.15	226.32
388.53	226.32
388.91	226.28
389.29	226.27
389.66	226.27
390.04	226.25
390.42	226.24
390.79	226.24
391.17	226.24
391.55	226.14
391.92	226.16
392.30	226.16
392.68	226.15
393.05	226.14
393.43	226.18
393.81	226.18
394.18	226.22
394.56	226.21
394.94	226.26
395.31	226.27
395.69	226.32
396.06	226.39
396.44	226.45
396.82	226.52
397.19	226.62
397.57	226.69
397.95	226.78
398.32	226.79
398.70	226.87
399.07	226.94
399.45	227.01
399.82	227.05
400.20	227.15
400.58	227.23
400.95	227.25
401.33	227.38
401.70	227.53
402.08	227.60
402.45	227.70
402.83	227.80
403.20	227.92
403.58	228.04
403.95	228.16
404.33	228.28
404.71	228.40
405.08	228.58
405.46	228.70
405.83	228.83
406.21	229.01
406.58	229.18
406.96	229.37
407.33	229.54
407.70	229.80
408.08	230.07
408.45	230.30
408.83	230.55
409.20	230.73
409.58	230.88
409.95	231.14
410.33	231.43
410.70	231.69
411.08	231.96
411.45	232.27
411.82	232.57
412.20	232.92
412.57	233.31
412.95	233.60
413.32	234.06
413.69	234.48
414.07	234.93
414.44	235.40
414.82	235.86
415.19	236.45
415.56	236.94
415.94	237.49
416.31	238.13
416.68	238.74
417.06	239.48
417.43	240.16
417.81	240.95
418.18	241.71
418.55	242.55
418.93	243.45
419.30	244.35
419.67	245.27
420.04	246.22
420.42	247.20
420.79	248.39
421.16	249.51
421.54	250.69
421.91	251.89
422.28	253.14
422.66	254.47
423.03	255.72
423.40	257.05
423.77	258.46
424.15	259.87
424.52	261.39
424.89	262.97
425.26	264.56
425.64	266.00
426.01	267.62
426.38	269.31
426.75	271.01
427.13	272.75
427.50	274.56
427.87	276.47
428.24	278.35
428.61	280.08
428.99	282.04
429.36	284.14
429.73	286.20
430.10	288.25
430.47	290.32
430.85	292.47
431.22	294.74
431.59	297.09
431.96	299.33
432.33	301.82
432.70	304.23
433.08	307.04
433.45	309.68
433.82	312.24
434.19	315.15
434.56	317.94
434.93	320.60
435.30	323.25
435.68	326.12
436.05	328.97
436.42	331.78
436.79	334.27
437.16	336.97
437.53	339.81
437.90	342.60
438.27	345.36
438.64	348.16
439.01	350.77
439.38	353.07
439.75	355.28
440.13	357.78
440.50	360.16
440.87	362.04
441.24	364.04
441.61	366.24
441.98	367.69
442.35	369.46
442.72	371.31
443.09	373.12
443.46	374.10
443.83	374.71
444.20	375.20
444.57	376.05
444.94	376.34
445.31	376.65
445.68	377.03
446.05	377.10
446.42	376.74
446.79	376.33
447.16	375.85
447.53	375.53
447.90	374.36
448.27	373.12
448.64	371.51
449.01	370.33
449.37	368.36
449.74	366.50
450.11	364.28
450.48	361.82
450.85	359.28
451.22	357.12
451.59	355.07
451.96	353.14
452.33	350.52
452.70	348.16
453.07	345.37
453.43	342.47
453.80	339.71
454.17	336.99
454.54	334.43
454.91	331.70
455.28	329.00
455.65	326.51
456.02	324.06
456.38	321.90
456.75	319.26
457.12	316.99
457.49	314.73
457.86	312.54
458.23	310.69
458.59	308.67
458.96	306.59
459.33	304.73
459.70	302.87
460.07	301.39
460.43	299.66
460.80	298.05
461.17	296.60
461.54	295.08
461.91	293.67
462.27	292.20
462.64	290.93
463.01	289.60
463.38	288.31
463.74	286.95
464.11	285.77
464.48	284.70
464.85	283.60
465.21	282.73
465.58	281.84
465.95	280.71
466.32	279.81
466.68	278.93
467.05	278.03
467.42	277.15
467.78	276.22
468.15	275.35
468.52	274.67
468.88	273.80
469.25	273.04
469.62	272.41
469.98	271.75
470.35	271.14
470.72	270.51
471.08	269.85
471.45	269.29
471.82	268.78
472.18	268.20
472.55	267.75
472.92	267.25
473.28	266.77
473.65	266.31
474.02	265.86
474.38	265.49
474.75	265.17
475.11	264.78
475.48	264.51
475.85	264.30
476.21	264.05
476.58	263.89
476.94	263.74
477.31	263.57
477.67	263.41
478.04	263.27
478.41	263.20
478.77	263.20
479.14	263.16
479.50	263.16
479.87	263.22
480.23	263.30
480.60	263.33
480.96	263.38
481.33	263.60
481.69	263.78
482.06	263.93
482.42	264.12
482.79	264.42
483.15	264.70
483.52	265.03
483.88	265.36
484.25	265.69
484.61	266.14
484.98	266.57
485.34	267.13
485.71	267.73
486.07	268.31
486.44	268.88
486.80	269.55
487.17	270.27
487.53	271.05
487.90	271.90
488.26	272.84
488.62	273.85
488.99	274.78
489.35	275.83
489.72	276.98
490.08	278.15
490.44	279.38
490.81	280.70
491.17	282.04
491.54	283.53
491.90	285.12
492.26	286.74
492.63	288.46
492.99	290.22
493.36	292.10
493.72	294.18
494.08	296.29
494.45	298.58
494.81	300.89
495.17	303.29
495.54	305.87
495.90	308.53
496.26	311.31
496.63	314.26
496.99	317.36
497.35	320.59
497.72	323.91
498.08	327.43
498.44	331.10
498.80	335.02
499.17	339.02
499.53	343.16
499.89	347.55
500.26	352.08
500.62	356.71
500.98	361.62
501.34	366.66
501.71	371.98
502.07	377.40
502.43	383.00
502.79	388.85
503.16	394.88
503.52	401.17
503.88	407.55
504.24	414.21
504.60	421.07
504.97	428.15
505.33	435.58
505.69	443.24
506.05	451.01
506.41	458.86
506.78	467.11
507.14	475.55
507.50	484.23
507.86	493.23
508.22	502.47
508.59	511.79
508.95	521.39
509.31	531.14
509.67	541.21
510.03	551.54
510.39	562.10
510.75	572.93
511.12	583.87
511.48	595.18
511.84	606.58
512.20	618.17
512.56	630.17
512.92	642.37
513.28	654.71
513.64	667.19
514.00	679.93
514.37	692.82
514.73	705.86
515.09	718.88
515.45	732.18
515.81	745.77
516.17	759.65
516.53	773.76
516.89	788.02
517.25	802.30
517.61	816.80
517.97	831.24
518.33	845.79
518.69	860.53
519.05	875.61
519.41	890.88
519.77	906.41
520.13	921.83
520.49	937.21
520.85	952.65
521.21	968.41
521.57	984.74
521.93	1000.58
522.29	1017.06
522.65	1033.41
523.01	1049.75
523.37	1065.82
523.73	1082.11
524.09	1098.32
524.45	1114.78
524.81	1131.38
525.17	1148.20
525.53	1165.19
525.89	1182.14
526.25	1199.10
526.61	1215.55
526.97	1232.29
527.33	1248.93
527.68	1265.65
528.04	1282.22
528.40	1298.94
528.76	1316.14
529.12	1332.78
529.48	1349.60
529.84	1365.67
530.20	1382.44
530.56	1399.54
530.91	1417.09
531.27	1433.83
531.63	1450.36
531.99	1466.88
532.35	1482.93
532.71	1498.91
533.07	1515.34
533.42	1531.08
533.78	1547.12
534.14	1563.43
534.50	1578.92
534.86	1594.84
535.21	1610.06
535.57	1626.03
535.93	1641.63
536.29	1656.43
536.65	1671.62
537.00	1686.65
537.36	1702.10
537.72	1716.60
538.08	1731.04
538.44	1744.89
538.79	1759.07
539.15	1772.79
539.51	1786.67
539.87	1801.20
540.22	1814.93
540.58	1828.77
540.94	1842.45
541.29	1855.53
541.65	1868.31
542.01	1881.60
542.37	1893.89
542.72	1906.54
543.08	1918.39
543.44	1930.88
543.79	1942.18
544.15	1953.23
544.51	1964.81
544.87	1975.90
545.22	1986.77
545.58	1996.94
545.94	2006.73
546.29	2016.47
546.65	2026.36
547.01	2035.63
547.36	2044.38
547.72	2052.95
548.07	2060.76
548.43	2068.94
548.79	2077.00
549.14	2084.57
549.50	2092.08
549.86	2099.93
550.21	2107.07
550.57	2114.36
550.92	2120.89
551.28	2127.94
551.64	2135.01
551.99	2141.51
552.35	2147.57
552.70	2153.64
553.06	2159.61
553.41	2165.90
553.77	2171.96
554.13	2178.10
554.48	2184.28
554.84	2189.51
555.19	2194.88
555.55	2200.01
555.90	2204.38
556.26	2209.23
556.61	2213.86
556.97	2217.86
557.32	2221.81
557.68	2226.09
558.03	2230.34
558.39	2234.11
558.74	2238.80
559.10	2242.59
559.45	2246.26
559.81	2250.64
560.16	2254.50
560.52	2257.82
560.87	2261.16
561.23	2263.81
561.58	2266.57
561.94	2269.00
562.29	2271.49
562.64	2274.10
563.00	2276.61
563.35	2280.02
563.71	2283.06
564.06	2286.35
564.42	2289.16
564.77	2291.72
565.12	2293.75
565.48	2295.55
565.83	2297.28
566.19	2298.37
566.54	2299.32
566.89	2300.34
567.25	2300.81
567.60	2302.08
567.96	2303.64
568.31	2304.57
568.66	2305.48
569.02	2306.10
569.37	2306.50
569.72	2307.24
570.08	2307.17
570.43	2307.21
570.78	2306.57
571.14	2304.97
571.49	2303.57
571.84	2303.33
572.20	2301.90
572.55	2300.84
572.90	2299.28
573.26	2297.77
573.61	2296.13
573.96	2294.22
574.31	2291.26
574.67	2288.20
575.02	2284.71
575.37	2281.32
575.72	2277.39
576.08	2273.96
576.43	2270.49
576.78	2266.61
577.13	2263.30
577.49	2260.29
577.84	2256.66
578.19	2252.98
578.54	2249.12
578.90	2244.71
579.25	2238.97
579.60	2234.05
579.95	2229.02
580.30	2223.95
580.66	2218.79
581.01	2213.69
581.36	2208.61
581.71	2204.27
582.06	2199.61
582.42	2194.82
582.77	2189.42
583.12	2184.69
583.47	2179.87
583.82	2174.77
584.17	2169.43
584.53	2163.84
584.88	2158.03
585.23	2152.01
585.58	2146.44
585.93	2141.06
586.28	2136.29
586.63	2131.13
586.98	2126.03
587.34	2121.29
587.69	2116.26
588.04	2110.83
588.39	2105.02
588.74	2098.60
589.09	2092.27
589.44	2085.33
589.79	2079.28
590.14	2073.69
590.49	2067.10
590.84	2060.77
591.19	2054.62
591.54	2048.07
591.89	2040.69
592.25	2033.79
592.60	2026.70
592.95	2018.93
593.30	2011.43
593.65	2003.61
594.00	1996.58
594.35	1989.22
594.70	1981.02
595.05	1973.51
595.40	1966.11
595.75	1958.54
596.10	1952.08
596.45	1945.22
596.80	1939.10
597.15	1932.37
597.50	1925.02
597.85	1918.57
598.19	1911.80
598.54	1904.78
598.89	1898.06
599.24	1892.17
599.59	1885.38
599.94	1878.97
600.29	1872.62
600.64	1866.04
600.99	1858.53
601.34	1851.54
601.69	1844.50
602.04	1837.51
602.39	1830.29
602.74	1823.53
603.08	1816.86
603.43	1810.22
603.78	1803.01
604.13	1795.75
604.48	1788.29
604.83	1781.45
605.18	1774.26
605.53	1766.14
605.87	1758.08
606.22	1750.76
606.57	1742.75
606.92	1735.48
607.27	1728.30
607.62	1721.34
607.96	1713.89
608.31	1707.25
608.66	1699.62
609.01	1692.02
609.36	1684.52
609.70	1676.44
610.05	1668.19
610.40	1660.34
610.75	1652.02
611.10	1644.35
611.44	1636.00
611.79	1628.03
612.14	1619.32
612.49	1610.34
612.83	1602.07
613.18	1593.99
613.53	1586.02
613.88	1577.49
614.22	1569.19
614.57	1560.74
614.92	1552.70
615.27	1545.14
615.61	1536.96
615.96	1528.99
616.31	1521.45
616.65	1514.02
617.00	1506.51
617.35	1498.95
617.70	1490.67
618.04	1481.98
618.39	1473.77
618.74	1466.02
619.08	1457.76
619.43	1450.20
619.78	1443.29
620.12	1436.10
620.47	1428.51
620.82	1420.24
621.16	1412.94
621.51	1405.39
621.85	1397.77
622.20	1389.22
622.55	1381.05
622.89	1373.13
623.24	1365.57
623.59	1358.21
623.93	1350.72
624.28	1343.46
624.62	1335.95
624.97	1328.79
625.32	1322.22
625.66	1315.17
626.01	1308.06
626.35	1300.62
626.70	1292.94
627.04	1285.11
627.39	1277.43
627.73	1270.00
628.08	1263.18
628.43	1255.67
628.77	1248.25
629.12	1240.62
629.46	1233.42
629.81	1225.96
630.15	1218.75
630.50	1211.27
630.84	1203.15
631.19	1195.27
631.53	1187.80
631.88	1180.31
632.22	1172.67
632.57	1165.39
632.91	1157.92
633.26	1150.48
633.60	1143.15
633.95	1136.10
634.29	1129.16
634.64	1122.49
634.98	1115.24
635.32	1108.01
635.67	1101.57
636.01	1095.01
636.36	1088.26
636.70	1081.88
637.05	1075.34
637.39	1069.01
637.73	1062.59
638.08	1056.64
638.42	1050.65
638.77	1044.21
639.11	1037.65
639.45	1031.35
639.80	1024.67
640.14	1018.16
640.49	1011.72
640.83	1005.45
641.17	999.16
641.52	992.82
641.86	986.38
642.20	980.53
642.55	974.30
642.89	967.76
643.23	961.25
643.58	955.40
643.92	949.15
644.26	942.98
644.61	936.89
644.95	930.81
645.29	924.13
645.64	917.36
645.98	911.07
646.32	905.18
646.66	899.24
647.01	893.35
647.35	887.70
647.69	881.86
648.04	876.32
648.38	870.60
648.72	864.62
649.06	858.51
649.41	852.57
649.75	846.60
650.09	840.65
650.43	834.79
650.78	828.70
651.12	822.80
651.46	817.11
651.80	811.35
652.14	806.04
652.49	800.70
652.83	795.55
653.17	789.80
653.51	784.06
653.85	778.58
654.20	773.02
654.54	767.03
654.88	761.27
655.22	755.43
655.56	749.70
655.90	744.20
656.25	738.95
656.59	733.64
656.93	728.57
657.27	723.42
657.61	718.01
657.95	712.88
658.29	707.75
658.64	702.55
658.98	697.25
659.32	691.71
659.66	686.55
660.00	681.25
660.34	676.34
660.68	671.45
661.02	666.41
661.36	661.71
661.70	657.20
662.05	652.90
662.39	648.57
662.73	644.15
663.07	639.82
663.41	635.43
663.75	630.96
664.09	626.43
664.43	622.08
664.77	617.99
665.11	613.77
665.45	609.69
665.79	605.56
666.13	601.40
666.47	597.29
666.81	593.13
667.15	589.07
667.49	585.19
667.83	581.42
668.17	577.54
668.51	573.45
668.85	569.48
669.19	565.64
669.53	561.80
669.87	557.89
670.21	554.18
670.55	550.53
670.89	547.02
671.23	543.57
671.57	539.99
671.91	536.45
672.25	532.96
672.58	529.44
672.92	526.16
673.26	523.08
673.60	519.97
673.94	516.87
674.28	513.94
674.62	511.04
674.96	507.91
675.30	504.97
675.64	502.04
675.97	499.28
676.31	496.42
676.65	493.48
676.99	490.83
677.33	487.96
677.67	485.11
678.01	482.14
678.34	479.18
678.68	476.42
679.02	473.62
679.36	470.91
679.70	468.24
680.04	465.42
680.37	462.50
680.71	459.76
681.05	457.17
681.39	454.45
681.73	451.79
682.06	449.30
682.40	446.74
682.74	444.22
683.08	441.69
683.42	439.10
683.75	436.57
684.09	434.05
684.43	431.66
684.77	429.24
685.10	426.95
685.44	424.68
685.78	422.38
686.12	420.14
686.45	417.84
686.79	415.58
687.13	413.41
687.46	411.26
687.80	409.11
688.14	406.92
688.48	404.88
688.81	402.62
689.15	400.47
689.49	398.39
689.82	396.36
690.16	394.28
690.50	392.33
690.83	390.44
691.17	388.47
691.51	386.55
691.84	384.73
692.18	382.74
692.52	380.75
692.85	378.84
693.19	377.01
693.52	375.22
693.86	373.39
694.20	371.64
694.53	369.89
694.87	368.06
695.21	366.28
695.54	364.49
695.88	362.77
696.21	361.05
696.55	359.35
696.88	357.71
697.22	356.06
697.56	354.43
697.89	352.80
698.23	351.17
698.56	349.54
698.90	347.92
699.23	346.30
699.57	344.72
699.90	343.14
700.24	341.52
700.58	339.97
700.91	338.47
701.25	337.01
701.58	335.67
701.92	334.34
702.25	332.92
702.59	331.56
702.92	330.26
703.26	328.98
703.59	327.68
703.93	326.48
704.26	325.25
704.60	323.99
704.93	322.71
705.26	321.49
705.60	320.34
705.93	319.18
706.27	318.15
706.60	317.14
706.94	316.11
707.27	315.02
707.61	313.97
707.94	312.96
708.27	311.85
708.61	310.73
708.94	309.71
709.28	308.75
709.61	307.79
709.94	306.88
710.28	305.83
710.61	304.89
710.95	303.82
711.28	302.90
711.61	301.93
711.95	301.03
712.28	300.05
712.61	299.05
712.95	298.15
713.28	297.24
713.61	296.37
713.95	295.44
714.28	294.61
714.61	293.72
714.95	292.88
715.28	292.04
715.61	291.16
715.95	290.32
716.28	289.43
716.61	288.59
716.95	287.76
717.28	287.03
717.61	286.25
717.94	285.50
718.28	284.68
718.61	283.96
718.94	283.25
719.27	282.64
719.61	281.99
719.94	281.34
720.27	280.66
720.60	279.96
720.94	279.35
721.27	278.74
721.60	278.18
721.93	277.58
722.27	277.04
722.60	276.49
722.93	275.89
723.26	275.42
723.59	274.88
723.93	274.32
724.26	273.78
724.59	273.23
724.92	272.72
725.25	272.24
725.59	271.70
725.92	271.22
726.25	270.69
726.58	270.25
726.91	269.72
727.24	269.28
727.57	268.84
727.91	268.34
728.24	267.91
728.57	267.42
728.90	266.98
729.23	266.51
729.56	266.11
729.89	265.66
730.22	265.16
730.55	264.71
730.89	264.28
731.22	263.84
731.55	263.40
731.88	262.95
732.21	262.52
732.54	262.12
732.87	261.68
733.20	261.31
733.53	260.89
733.86	260.52
734.19	260.09
734.52	259.71
734.85	259.38
735.18	258.94
735.51	258.57
735.84	258.20
736.17	257.86
736.50	257.47
736.83	257.21
737.16	256.85
737.49	256.49
737.82	256.14
738.15	255.80
738.48	255.44
738.81	255.11
739.14	254.77
739.47	254.45
739.80	254.12
740.13	253.80
740.46	253.48
740.79	253.15
741.12	252.82
741.45	252.47
741.78	252.12
742.11	251.85
742.44	251.52
742.77	251.21
743.10	250.89
743.43	250.56
743.75	250.18
744.08	250.04
744.41	249.77
744.74	249.49
745.07	249.16
745.40	248.93
745.73	248.70
746.06	248.45
746.39	248.17
746.71	247.91
747.04	247.61
747.37	247.32
747.70	247.04
748.03	246.80
748.36	246.57
748.68	246.33
749.01	246.07
749.34	245.84
749.67	245.60
750.00	245.33
750.33	245.19
750.65	245.00
750.98	244.65
751.31	244.40
751.64	244.18
751.97	244.04
752.29	243.83
752.62	243.60
752.95	243.37
753.28	243.14
753.60	242.93
753.93	242.76
754.26	242.55
754.59	242.36
754.91	242.15
755.24	241.96
755.57	241.77
755.90	241.60
756.22	241.38
756.55	241.18
756.88	241.00
757.20	240.76
757.53	240.52
757.86	240.35
758.19	240.21
758.51	240.07
758.84	239.87
759.17	239.71
759.49	239.56
759.82	239.44
760.15	239.31
760.47	239.18
760.80	239.04
761.13	238.92
761.45	238.76
761.78	238.63
762.11	238.50
762.43	238.37
762.76	238.22
763.08	238.12
763.41	238.02
763.74	237.90
764.06	237.75
764.39	237.66
764.71	237.56
765.04	237.43
765.37	237.28
765.69	237.19
766.02	237.05
766.34	236.93
766.67	236.80
767.00	236.70
767.32	236.64
767.65	236.59
767.97	236.50
768.30	236.41
768.62	236.29
768.95	236.19
769.27	236.07
769.60	235.98
769.92	235.88
770.25	235.75
770.57	235.61
770.90	235.54
771.22	235.41
771.55	235.30
771.87	235.19
772.20	235.11
772.52	235.07
772.85	235.09
773.17	235.01
773.50	234.91
773.82	234.83
774.15	234.68
774.47	234.52
774.80	234.44
775.12	234.37
775.45	234.29
775.77	234.22
776.09	234.17
776.42	234.09
776.74	234.04
777.07	233.99
777.39	233.97
777.72	233.87
778.04	233.84
778.36	233.78
778.69	233.71
779.01	233.67
779.33	233.52
779.66	233.36
779.98	233.27
780.31	233.19
780.63	233.14
780.95	233.07
781.28	232.98
781.60	232.90
781.92	232.85
782.25	232.77
782.57	232.69
782.89	232.61
783.22	232.55
783.54	232.45
783.86	232.37
784.19	232.30
784.51	232.28
784.83	232.20
785.16	232.14
785.48	232.09
785.80	232.02
786.12	231.97
786.45	231.91
786.77	231.85
787.09	231.81
787.42	231.73
787.74	231.72
788.06	231.67
788.38	231.64
788.71	231.55
789.03	231.55
789.35	231.54
789.67	231.47
789.99	231.43
790.32	231.39
790.64	231.38
790.96	231.41
791.28	231.32
791.61	231.30
791.93	231.24
792.25	231.20
792.57	231.24
792.89	231.20
793.21	231.18
793.54	231.15
793.86	231.12
794.18	231.07
794.50	231.02
794.82	231.00
795.14	230.95
795.47	230.93
795.79	230.85
796.11	230.80
796.43	230.77
796.75	230.74
797.07	230.73
797.39	230.70
797.71	230.60
798.04	230.61
798.36	230.57
798.68	230.57
799.00	230.55
799.32	230.46
799.64	230.43
799.96	230.41
800.28	230.42
800.60	230.36
800.92	230.36
801.24	230.34
801.56	230.31
801.89	230.30
802.21	230.27
802.53	230.26
802.85	230.25
803.17	230.25
803.49	230.18
803.81	230.14
804.13	230.11
804.45	230.09
804.77	230.04
805.09	230.00
805.41	229.97
805.73	229.92
806.05	229.86
806.37	229.87
806.69	229.85
807.01	229.80
807.33	229.81
807.65	229.72
807.97	229.74
808.28	229.72
808.60	229.69
808.92	229.66
809.24	229.67
809.56	229.63
809.88	229.56
810.20	229.58
810.52	229.59
810.84	229.54
811.16	229.48
811.48	229.44
811.80	229.45
812.12	229.38
812.43	229.39
812.75	229.37
813.07	229.31
813.39	229.29
813.71	229.25
814.03	229.22
814.35	229.20
814.67	229.09
814.98	229.05
815.30	229.04
815.62	228.99
815.94	228.95
816.26	228.98
816.58	228.98
816.89	228.94
817.21	228.89
817.53	228.87
817.85	228.85
818.17	228.81
818.48	228.78
818.80	228.78
819.12	228.77
819.44	228.72
819.76	228.67
820.07	228.61
820.39	228.57
820.71	228.55
821.03	228.56
821.34	228.56
821.66	228.55
821.98	228.55
822.30	228.50
822.61	228.51
822.93	228.44
823.25	228.42
823.57	228.41
823.88	228.38
824.20	228.39
824.52	228.42
824.83	228.40
825.15	228.34
825.47	228.34
825.79	228.31
826.10	228.32
826.42	228.32
826.74	228.32
827.05	228.33
827.37	228.32
827.69	228.31
828.00	228.30
828.32	228.31
828.64	228.30
828.95	228.40
829.27	228.39
829.58	228.38
829.90	228.35
830.22	228.35
830.53	228.32
830.85	228.28
831.17	228.24
831.48	228.26
831.80	228.29
832.11	228.28
832.43	228.24
832.75	228.25
833.06	228.28
833.38	228.27
833.69	228.25
834.01	228.25
834.32	228.22
834.64	228.22
834.96	228.17
835.27	228.13
835.59	228.05
835.90	228.00
836.22	227.95
836.53	227.93
836.85	227.93
837.16	228.06
837.48	228.07
837.79	228.11
838.11	228.10
838.42	228.06
838.74	228.07
839.05	228.08
839.37	228.05
839.68	228.01
840.00	228.02
840.31	228.00
840.63	227.99
840.94	228.00
841.26	227.98
841.57	228.01
841.88	228.03
842.20	228.01
842.51	228.02
842.83	228.03
843.14	228.13
843.46	228.11
843.77	228.02
844.08	227.99
844.40	227.94
844.71	227.95
845.03	227.97
845.34	227.94
845.65	227.92
845.97	227.91
846.28	227.91
846.60	227.90
846.91	227.91
847.22	227.88
847.54	227.84
847.85	227.85
848.16	227.84
848.48	227.81
848.79	227.87
849.10	227.86
849.42	227.87
849.73	227.80
850.04	227.77
850.36	227.73
850.67	227.73
850.98	227.71
851.30	227.67
851.61	227.67
851.92	227.65
852.23	227.66
852.55	227.67
852.86	227.67
853.17	227.65
853.49	227.66
853.80	227.67
854.11	227.68
854.42	227.68
854.74	227.63
855.05	227.63
855.36	227.56
855.67	227.55
855.99	227.53
856.30	227.63
856.61	227.64
856.92	227.65
857.23	227.66
857.55	227.65
857.86	227.64
858.17	227.64
858.48	227.65
858.79	227.63
859.11	227.62
859.42	227.61
859.73	227.62
860.04	227.61
860.35	227.59
860.66	227.55
860.98	227.56
861.29	227.60
861.60	227.57
861.91	227.60
862.22	227.57
862.53	227.58
862.84	227.44
863.16	227.47
863.47	227.42
863.78	227.42
864.09	227.46
864.40	227.49
864.71	227.48
865.02	227.45
865.33	227.44
865.64	227.42
865.95	227.42
866.27	227.47
866.58	227.44
866.89	227.49
867.20	227.52
867.51	227.50
867.82	227.50
868.13	227.55
868.44	227.54
868.75	227.56
869.06	227.57
869.37	227.59
869.68	227.55
869.99	227.59
870.30	227.61
870.61	227.59
870.92	227.58
871.23	227.56
871.54	227.61
871.85	227.63
872.16	227.65
872.47	227.61
872.78	227.58
873.09	227.61
873.40	227.59
873.71	227.60
874.02	227.59
874.33	227.57
874.64	227.56
874.95	227.57
875.26	227.57
875.56	227.57
875.87	227.55
876.18	227.55
876.49	227.63
876.80	227.60
877.11	227.58
877.42	227.58
877.73	227.56
878.04	227.52
878.35	227.53
878.66	227.52
878.96	227.52
879.27	227.47
879.58	227.43
879.89	227.38
880.20	227.37
880.51	227.37
880.82	227.35
881.12	227.37
881.43	227.37
881.74	227.33
882.05	227.30
882.36	227.34
882.67	227.34
882.97	227.24
883.28	227.22
883.59	227.21
883.90	227.22
884.21	227.24
884.51	227.28
884.82	227.22
885.13	227.23
885.44	227.21
885.74	227.23
886.05	227.26
886.36	227.30
886.67	227.31
886.98	227.32
887.28	227.35
887.59	227.31
887.90	227.29
888.20	227.27
888.51	227.30
888.82	227.25
889.13	227.25
889.43	227.32
889.74	227.33
890.05	227.35
890.35	227.32
890.66	227.28
890.97	227.25
891.28	227.25
891.58	227.25
891.89	227.28
892.20	227.27
892.50	227.26
892.81	227.25
893.12	227.20
893.42	227.16
893.73	227.14
894.04	227.15
894.34	227.16
894.65	227.16
894.95	227.11
895.26	227.11
895.57	227.15
895.87	227.05
896.18	227.05
896.48	227.06
896.79	227.06
897.10	227.04
897.40	227.02
897.71	227.03
898.01	227.02
898.32	227.02
898.63	226.99
898.93	226.97
899.24	226.96
899.54	226.98
899.85	226.99
900.15	226.97
900.46	226.97
900.76	226.95
901.07	226.96
901.38	226.96
901.68	227.03
901.99	226.99
902.29	227.03
902.60	227.04
902.90	227.01
903.21	227.05
903.51	227.08
903.82	227.10
904.12	227.12
904.43	227.08
904.73	227.06
905.03	227.10
905.34	227.22
905.64	227.23
905.95	227.22
906.25	227.24
906.56	227.25
906.86	227.24
907.17	227.21
907.47	227.21
907.77	227.24
908.08	227.20
908.38	227.19
908.69	227.17
908.99	227.19
909.30	227.19
909.60	227.17
909.90	227.16
910.21	227.15
910.51	227.11
910.81	227.16
911.12	227.16
911.42	227.13
911.73	227.00
912.03	226.99
912.33	227.02
912.64	227.02
912.94	227.04
913.24	227.02
913.55	227.02
913.85	227.04
914.15	227.03
914.46	227.02
914.76	227.01
915.06	227.04
915.37	227.00
915.67	227.01
915.97	227.01
916.27	227.00
916.58	227.03
916.88	227.05
917.18	227.03
917.49	227.13
917.79	227.16
918.09	227.18
918.39	227.22
918.70	227.22
919.00	227.19
919.30	227.22
919.60	227.25
919.91	227.28
920.21	227.30
920.51	227.30
920.81	227.31
921.12	227.33
921.42	227.31
921.72	227.33
922.02	227.32
922.32	227.31
922.63	227.31
922.93	227.33
923.23	227.35
923.53	227.37
923.83	227.29
924.13	227.26
924.44	227.25
924.74	227.26
925.04	227.30
925.34	227.30
925.64	227.23
925.94	227.19
926.24	227.21
926.55	227.17
926.85	227.18
927.15	227.19
927.45	227.17
927.75	227.18
928.05	227.17
928.35	227.16
928.65	227.19
928.95	227.22
929.26	227.19
929.56	227.21
929.86	227.18
930.16	227.15
930.46	227.16
930.76	227.14
931.06	227.08
931.36	227.02
931.66	227.03
931.96	227.05
932.26	227.07
932.56	227.02
932.86	227.05
933.16	227.05
933.46	227.04
933.76	227.02
934.06	226.98
934.36	227.01
934.66	227.03
934.96	227.01
935.26	226.99
935.56	226.99
935.86	226.97
936.16	226.98
936.46	226.95
936.76	226.98
937.06	227.01
937.36	227.01
937.66	226.99
937.96	226.98
938.26	226.97
938.56	226.92
938.86	226.95
939.16	227.00
939.46	226.98
939.76	226.98
940.06	227.01
940.35	227.02
940.65	226.96
940.95	226.97
941.25	226.95
941.55	226.94
941.85	226.94
942.15	226.95
942.45	226.98
942.75	227.00
943.04	227.02
943.34	227.05
943.64	227.03
943.94	227.04
944.24	227.08
944.54	227.09
944.84	227.12
945.13	227.12
945.43	227.08
945.73	227.08
946.03	227.09
946.33	227.06
946.62	227.07
946.92	227.11
947.22	227.13
947.52	227.12
947.82	227.13
948.11	227.14
948.41	227.12
948.71	227.09
949.01	227.11
949.31	227.07
949.60	227.05
949.90	227.10
950.20	227.10
950.50	227.09
950.79	227.07
951.09	227.11
951.39	227.08
951.69	227.07
951.98	227.08
952.28	227.08
952.58	227.07
952.87	227.05
953.17	227.09
953.47	227.08
953.76	227.11
954.06	227.08
954.36	227.08
954.66	227.09
954.95	227.12
955.25	227.13
955.55	227.14
955.84	227.14
956.14	227.14
956.44	227.16
956.73	227.15
957.03	227.17
957.32	227.17
957.62	227.19
957.92	227.21
958.21	227.22
958.51	227.33
958.81	227.34
959.10	227.35
959.40	227.31
959.69	227.31
959.99	227.30
960.29	227.32
960.58	227.28
960.88	227.31
961.17	227.29
961.47	227.31
961.76	227.28
962.06	227.31
962.36	227.30
962.65	227.26
962.95	227.27
963.24	227.27
963.54	227.25
963.83	227.26
964.13	227.24
964.42	227.21
964.72	227.13
965.01	227.14
965.31	227.16
965.60	227.15
965.90	227.21
966.19	227.16
966.49	227.18
966.78	227.17
967.08	227.16
967.37	227.16
967.67	227.12
967.96	227.16
968.26	227.15
968.55	227.16
968.85	227.17
969.14	227.14
969.43	227.15
969.73	227.13
970.02	227.13
970.32	227.14
970.61	227.13
970.91	227.11
971.20	227.06
971.49	227.05
971.79	227.03
972.08	226.97
972.38	227.01
972.67	227.02
972.96	227.03
973.26	227.00
973.55	227.01
973.85	227.00
974.14	226.96
974.43	226.95
974.73	226.93
975.02	226.93
975.31	226.93
975.61	226.89
975.90	226.89
976.19	226.87
976.49	226.89
976.78	226.89
977.07	226.88
977.37	226.90
977.66	226.89
977.95	226.87
978.24	226.85
978.54	226.85
978.83	226.81
979.12	226.81
979.42	226.81
979.71	226.84
980.00	226.82
980.29	226.83
980.59	226.83
980.88	226.82
981.17	226.84
981.46	226.83
981.76	226.86
982.05	226.89
982.34	226.92
982.63	226.89
982.93	226.87
983.22	226.90
983.51	226.94
983.80	226.96
984.09	227.00
984.39	227.03
984.68	227.05
984.97	227.07
985.26	227.09
985.55	227.10
985.85	227.07
986.14	227.11
986.43	227.15
986.72	227.12
987.01	227.12
987.30	227.11
987.59	227.11
987.89	227.11
988.18	227.07
988.47	227.03
988.76	227.04
989.05	227.07
989.34	227.05
989.63	227.07
989.92	227.06
990.22	227.01
990.51	226.97
990.80	226.95
991.09	226.96
991.38	226.98
991.67	226.99
991.96	226.97
992.25	226.98
992.54	226.96
992.83	226.95
993.12	226.91
993.41	226.96
993.70	227.02
993.99	227.05
994.28	227.08
994.58	227.12
994.87	227.11
995.16	227.10
995.45	227.08
995.74	227.04
996.03	227.05
996.32	227.10
996.61	227.14
996.90	227.13
997.19	227.09
997.48	227.07
997.77	227.05
998.06	227.05
998.34	227.01
998.63	227.01
998.92	227.05
999.21	227.11
999.50	227.11
999.79	227.06
1000.08	227.04
1000.37	227.02
1000.66	227.02
1000.95	227.03
1001.24	227.06
1001.53	227.06
1001.82	227.07
1002.11	227.03
1002.40	227.03
1002.68	227.07
1002.97	227.14
1003.26	227.16
1003.55	227.10
1003.84	227.11
1004.13	227.16
1004.42	227.18
1004.71	227.17
1004.99	227.14
1005.28	227.15
1005.57	227.13
1005.86	227.14
1006.15	227.12
1006.44	227.08
1006.72	227.07
1007.01	227.04
1007.30	227.01
1007.59	227.01
1007.88	226.99
1008.17	227.04
1008.45	227.03
1008.74	226.98
1009.03	226.97
1009.32	226.96
1009.60	226.96
1009.89	226.94
1010.18	226.85
1010.47	226.82
1010.76	226.85
1011.04	226.88
1011.33	226.87
1011.62	226.87
1011.91	226.88
1012.19	226.93
1012.48	226.95
1012.77	226.95
1013.05	227.01
1013.34	227.03
1013.63	227.03
1013.92	227.06
1014.20	227.05
1014.49	227.07
1014.78	227.06
1015.06	227.01
1015.35	227.04
1015.64	227.11
1015.92	227.12
1016.21	227.14
1016.50	227.16
1016.78	227.15
1017.07	227.14
1017.36	227.12
1017.64	227.10
1017.93	227.07
1018.22	227.03
1018.50	227.02
1018.79	227.01
1019.08	226.94
1019.36	226.93
1019.65	226.91
1019.93	226.94
1020.22	226.92
1020.51	226.95
1020.79	226.95
1021.08	226.67
1021.36	226.69
1021.65	226.74
1021.94	226.35
1022.22	226.90
1022.51	226.51
1022.79	227.56
1023.08	227.02
1023.36	228.03
1023.65	226.84
>>>>>End Processed Spectral Data<<<<<
