SpectraSuite Data File
++++++++++++++++++++++++++++++++++++
Date: Fri Feb 01 17:59:01 EST 2013
User: group
Dark Spectrum Present: No
Reference Spectrum Present: No
Number of Sampled Component Spectra: 1
Spectrometers: USB2E7196
Integration Time (usec): 35000 (USB2E7196)
Spectra Averaged: 100 (USB2E7196)
Boxcar Smoothing: 10 (USB2E7196)
Correct for Electrical Dark: No (USB2E7196)
Strobe/Lamp Enabled: No (USB2E7196)
Correct for Detector Non-linearity: No (USB2E7196)
Correct for Stray Light: No (USB2E7196)
Number of Pixels in Processed Spectrum: 2048
>>>>>Begin Processed Spectral Data<<<<<
339.09	0.00
339.48	212.46
339.86	214.06
340.24	215.46
340.63	216.97
341.01	219.20
341.39	219.65
341.78	220.93
342.16	221.68
342.54	222.24
342.93	211.05
343.31	221.75
343.69	222.31
344.07	222.77
344.46	223.18
344.84	223.55
345.22	223.84
345.60	224.10
345.99	224.29
346.37	224.43
346.75	224.55
347.13	224.62
347.52	224.69
347.90	224.79
348.28	224.82
348.66	224.89
349.05	224.89
349.43	224.90
349.81	224.95
350.19	224.99
350.57	225.07
350.96	225.13
351.34	225.21
351.72	225.29
352.10	225.40
352.48	225.48
352.87	225.56
353.25	225.62
353.63	225.68
354.01	225.74
354.39	225.84
354.77	225.95
355.15	226.05
355.54	226.07
355.92	226.10
356.30	226.19
356.68	226.31
357.06	226.42
357.44	226.50
357.82	226.58
358.20	226.68
358.58	226.72
358.97	226.79
359.35	226.87
359.73	226.96
360.11	227.03
360.49	227.11
360.87	227.14
361.25	227.20
361.63	227.27
362.01	227.35
362.39	227.37
362.77	227.39
363.15	227.44
363.53	227.49
363.91	227.51
364.29	227.51
364.67	227.45
365.05	227.44
365.43	227.49
365.81	227.51
366.19	227.55
366.57	227.59
366.95	227.59
367.33	227.55
367.71	227.53
368.09	227.51
368.47	227.46
368.85	227.44
369.23	227.42
369.61	227.36
369.99	227.35
370.37	227.32
370.75	227.34
371.13	227.28
371.51	227.24
371.89	227.23
372.27	227.19
372.65	227.17
373.03	227.15
373.41	227.08
373.78	227.01
374.16	226.91
374.54	226.81
374.92	226.76
375.30	226.67
375.68	226.58
376.06	226.55
376.44	226.47
376.82	226.42
377.19	226.33
377.57	226.25
377.95	226.16
378.33	226.10
378.71	226.00
379.09	225.92
379.47	225.85
379.84	225.76
380.22	225.72
380.60	225.63
380.98	225.57
381.36	225.51
381.73	225.44
382.11	225.42
382.49	225.41
382.87	225.30
383.25	225.27
383.62	225.33
384.00	225.28
384.38	225.28
384.76	225.26
385.13	225.26
385.51	225.24
385.89	225.23
386.27	225.19
386.64	225.16
387.02	225.12
387.40	225.07
387.78	225.04
388.15	224.99
388.53	224.95
388.91	224.89
389.29	224.84
389.66	224.85
390.04	224.77
390.42	224.75
390.79	224.74
391.17	224.72
391.55	224.62
391.92	224.60
392.30	224.58
392.68	224.55
393.05	224.56
393.43	224.56
393.81	224.55
394.18	224.53
394.56	224.55
394.94	224.61
395.31	224.65
395.69	224.71
396.06	224.74
396.44	224.81
396.82	224.84
397.19	224.94
397.57	224.93
397.95	225.01
398.32	225.01
398.70	225.12
399.07	225.17
399.45	225.20
399.82	225.25
400.20	225.30
400.58	225.37
400.95	225.42
401.33	225.53
401.70	225.66
402.08	225.75
402.45	225.83
402.83	225.94
403.20	226.05
403.58	226.12
403.95	226.27
404.33	226.35
404.71	226.49
405.08	226.68
405.46	226.85
405.83	226.98
406.21	227.13
406.58	227.26
406.96	227.47
407.33	227.70
407.70	227.93
408.08	228.25
408.45	228.53
408.83	228.80
409.20	229.05
409.58	229.25
409.95	229.59
410.33	229.92
410.70	230.25
411.08	230.61
411.45	231.05
411.82	231.46
412.20	231.95
412.57	232.50
412.95	232.94
413.32	233.47
413.69	234.02
414.07	234.61
414.44	235.28
414.82	235.91
415.19	236.63
415.56	237.39
415.94	238.11
416.31	238.96
416.68	239.79
417.06	240.73
417.43	241.65
417.81	242.68
418.18	243.73
418.55	244.84
418.93	246.01
419.30	247.21
419.67	248.46
420.04	249.71
420.42	251.03
420.79	252.59
421.16	254.15
421.54	255.75
421.91	257.41
422.28	259.10
422.66	260.92
423.03	262.65
423.40	264.43
423.77	266.37
424.15	268.27
424.52	270.31
424.89	272.47
425.26	274.56
425.64	276.50
426.01	278.63
426.38	280.88
426.75	283.09
427.13	285.39
427.50	287.85
427.87	290.37
428.24	292.86
428.61	295.24
428.99	297.83
429.36	300.67
429.73	303.44
430.10	306.20
430.47	308.94
430.85	311.84
431.22	314.87
431.59	318.01
431.96	321.05
432.33	324.34
432.70	327.54
433.08	331.34
433.45	334.87
433.82	338.40
434.19	342.27
434.56	346.08
434.93	349.64
435.30	353.16
435.68	357.10
436.05	360.89
436.42	364.64
436.79	368.01
437.16	371.66
437.53	375.48
437.90	379.25
438.27	382.98
438.64	386.75
439.01	390.27
439.38	393.33
439.75	396.29
440.13	399.66
440.50	402.83
440.87	405.35
441.24	408.02
441.61	410.94
441.98	412.99
442.35	415.43
442.72	417.98
443.09	420.41
443.46	421.76
443.83	422.61
444.20	423.35
444.57	424.55
444.94	424.96
445.31	425.44
445.68	425.86
446.05	425.98
446.42	425.52
446.79	424.94
447.16	424.35
447.53	423.87
447.90	422.34
448.27	420.80
448.64	418.68
449.01	417.09
449.37	414.44
449.74	411.87
450.11	408.85
450.48	405.52
450.85	402.10
451.22	399.19
451.59	396.42
451.96	393.80
452.33	390.26
452.70	387.04
453.07	383.23
453.43	379.35
453.80	375.60
454.17	371.99
454.54	368.56
454.91	364.88
455.28	361.33
455.65	357.97
456.02	354.61
456.38	351.68
456.75	348.13
457.12	345.10
457.49	342.12
457.86	339.18
458.23	336.65
458.59	333.91
458.96	331.08
459.33	328.60
459.70	326.02
460.07	323.97
460.43	321.64
460.80	319.41
461.17	317.46
461.54	315.40
461.91	313.39
462.27	311.38
462.64	309.68
463.01	307.79
463.38	306.03
463.74	304.20
464.11	302.67
464.48	301.26
464.85	299.72
465.21	298.46
465.58	297.22
465.95	295.73
466.32	294.50
466.68	293.27
467.05	292.05
467.42	290.85
467.78	289.54
468.15	288.36
468.52	287.41
468.88	286.23
469.25	285.19
469.62	284.35
469.98	283.42
470.35	282.50
470.72	281.68
471.08	280.75
471.45	280.01
471.82	279.19
472.18	278.37
472.55	277.79
472.92	277.08
473.28	276.42
473.65	275.82
474.02	275.19
474.38	274.65
474.75	274.16
475.11	273.65
475.48	273.27
475.85	272.94
476.21	272.63
476.58	272.30
476.94	272.05
477.31	271.76
477.67	271.51
478.04	271.31
478.41	271.18
478.77	271.15
479.14	271.00
479.50	270.93
479.87	270.95
480.23	270.89
480.60	270.90
480.96	270.93
481.33	271.04
481.69	271.20
482.06	271.34
482.42	271.47
482.79	271.70
483.15	272.01
483.52	272.35
483.88	272.63
484.25	273.03
484.61	273.42
484.98	273.86
485.34	274.44
485.71	275.05
486.07	275.63
486.44	276.17
486.80	276.88
487.17	277.63
487.53	278.46
487.90	279.39
488.26	280.36
488.62	281.38
488.99	282.41
489.35	283.50
489.72	284.68
490.08	285.98
490.44	287.25
490.81	288.62
491.17	290.04
491.54	291.59
491.90	293.20
492.26	294.96
492.63	296.81
492.99	298.71
493.36	300.71
493.72	302.89
494.08	305.10
494.45	307.50
494.81	310.03
495.17	312.56
495.54	315.26
495.90	318.09
496.26	321.01
496.63	324.14
496.99	327.43
497.35	330.88
497.72	334.48
498.08	338.27
498.44	342.20
498.80	346.34
499.17	350.69
499.53	355.08
499.89	359.69
500.26	364.42
500.62	369.36
500.98	374.63
501.34	379.98
501.71	385.63
502.07	391.40
502.43	397.34
502.79	403.52
503.16	409.97
503.52	416.60
503.88	423.44
504.24	430.48
504.60	437.74
504.97	445.30
505.33	453.05
505.69	461.18
506.05	469.40
506.41	477.81
506.78	486.38
507.14	495.44
507.50	504.66
507.86	514.27
508.22	524.02
508.59	533.85
508.95	544.07
509.31	554.58
509.67	565.33
510.03	576.33
510.39	587.65
510.75	599.25
511.12	611.02
511.48	623.12
511.84	635.47
512.20	647.87
512.56	660.61
512.92	673.72
513.28	687.08
513.64	700.52
514.00	714.21
514.37	728.19
514.73	742.20
515.09	756.25
515.45	770.64
515.81	785.22
516.17	800.24
516.53	815.56
516.89	830.81
517.25	846.13
517.61	861.70
517.97	877.26
518.33	892.84
518.69	908.83
519.05	925.00
519.41	941.40
519.77	958.24
520.13	975.13
520.49	991.83
520.85	1008.46
521.21	1025.50
521.57	1043.14
521.93	1060.33
522.29	1078.22
522.65	1096.05
523.01	1113.71
523.37	1131.42
523.73	1149.22
524.09	1166.83
524.45	1184.72
524.81	1202.99
525.17	1221.46
525.53	1240.07
525.89	1258.65
526.25	1277.22
526.61	1295.40
526.97	1313.76
527.33	1332.06
527.68	1350.42
528.04	1368.70
528.40	1387.17
528.76	1406.19
529.12	1424.70
529.48	1443.51
529.84	1461.30
530.20	1479.89
530.56	1498.86
530.91	1518.18
531.27	1536.95
531.63	1555.38
531.99	1574.07
532.35	1592.08
532.71	1609.93
533.07	1628.33
533.42	1646.28
533.78	1664.37
534.14	1682.69
534.50	1700.21
534.86	1718.15
535.21	1735.48
535.57	1753.48
535.93	1771.07
536.29	1787.93
536.65	1805.19
537.00	1821.98
537.36	1839.65
537.72	1856.12
538.08	1872.96
538.44	1888.92
538.79	1904.93
539.15	1920.66
539.51	1936.54
539.87	1953.17
540.22	1969.09
540.58	1984.99
540.94	2000.45
541.29	2015.47
541.65	2030.45
542.01	2045.93
542.37	2060.37
542.72	2074.86
543.08	2089.00
543.44	2103.66
543.79	2117.04
544.15	2130.10
544.51	2144.03
544.87	2157.19
545.22	2170.48
545.58	2182.71
545.94	2194.68
546.29	2206.79
546.65	2219.01
547.01	2230.38
547.36	2241.21
547.72	2251.78
548.07	2261.72
548.43	2271.93
548.79	2282.02
549.14	2291.47
549.50	2300.75
549.86	2310.47
550.21	2319.75
550.57	2328.97
550.92	2337.49
551.28	2346.53
551.64	2355.52
551.99	2363.96
552.35	2371.84
552.70	2379.73
553.06	2387.51
553.41	2395.80
553.77	2403.48
554.13	2411.26
554.48	2419.33
554.84	2426.67
555.19	2433.56
555.55	2440.60
555.90	2446.86
556.26	2453.68
556.61	2460.23
556.97	2466.38
557.32	2472.27
557.68	2478.18
558.03	2483.88
558.39	2489.15
558.74	2495.53
559.10	2501.00
559.45	2506.22
559.81	2512.10
560.16	2517.44
560.52	2522.24
560.87	2526.97
561.23	2530.98
561.58	2535.33
561.94	2539.27
562.29	2542.86
562.64	2547.17
563.00	2551.05
563.35	2555.99
563.71	2560.21
564.06	2564.67
564.42	2568.66
564.77	2572.50
565.12	2576.06
565.48	2579.28
565.83	2582.43
566.19	2584.76
566.54	2586.76
566.89	2589.14
567.25	2590.81
567.60	2593.08
567.96	2595.92
568.31	2597.79
568.66	2599.98
569.02	2601.51
569.37	2602.44
569.72	2604.17
570.08	2605.16
570.43	2605.91
570.78	2606.04
571.14	2605.10
571.49	2604.15
571.84	2604.59
572.20	2603.93
572.55	2603.34
572.90	2602.02
573.26	2601.06
573.61	2599.63
573.96	2598.46
574.31	2595.52
574.67	2592.83
575.02	2589.53
575.37	2586.06
575.72	2582.42
576.08	2579.03
576.43	2575.80
576.78	2572.36
577.13	2569.19
577.49	2565.99
577.84	2562.61
578.19	2558.89
578.54	2555.39
578.90	2551.32
579.25	2545.43
579.60	2540.12
579.95	2534.93
580.30	2529.73
580.66	2524.38
581.01	2519.23
581.36	2513.69
581.71	2509.36
582.06	2504.57
582.42	2499.81
582.77	2494.11
583.12	2489.23
583.47	2484.41
583.82	2479.16
584.17	2473.48
584.53	2467.52
584.88	2461.60
585.23	2455.22
585.58	2449.14
585.93	2443.17
586.28	2437.80
586.63	2432.35
586.98	2427.06
587.34	2421.81
587.69	2416.44
588.04	2410.73
588.39	2404.52
588.74	2397.48
589.09	2390.65
589.44	2383.19
589.79	2376.38
590.14	2370.27
590.49	2362.83
590.84	2355.56
591.19	2348.79
591.54	2341.66
591.89	2333.51
592.25	2325.86
592.60	2317.91
592.95	2309.53
593.30	2301.16
593.65	2292.49
594.00	2284.43
594.35	2276.06
594.70	2266.97
595.05	2258.97
595.40	2250.54
595.75	2241.93
596.10	2234.90
596.45	2227.23
596.80	2220.14
597.15	2212.58
597.50	2204.59
597.85	2197.15
598.19	2189.56
598.54	2181.45
598.89	2173.74
599.24	2166.90
599.59	2159.23
599.94	2151.94
600.29	2144.41
600.64	2136.77
600.99	2128.50
601.34	2120.68
601.69	2112.58
602.04	2104.71
602.39	2096.25
602.74	2088.27
603.08	2080.64
603.43	2072.69
603.78	2064.15
604.13	2055.86
604.48	2047.60
604.83	2039.57
605.18	2031.71
605.53	2022.55
605.87	2013.08
606.22	2004.70
606.57	1995.38
606.92	1986.73
607.27	1978.50
607.62	1970.63
607.96	1962.26
608.31	1954.61
608.66	1945.73
609.01	1936.92
609.36	1928.05
609.70	1918.58
610.05	1909.30
610.40	1900.18
610.75	1890.64
611.10	1881.83
611.44	1871.89
611.79	1862.32
612.14	1852.19
612.49	1841.36
612.83	1831.44
613.18	1821.88
613.53	1812.35
613.88	1802.37
614.22	1792.67
614.57	1782.46
614.92	1773.04
615.27	1764.15
615.61	1754.29
615.96	1744.74
616.31	1735.74
616.65	1727.08
617.00	1718.29
617.35	1709.28
617.70	1699.50
618.04	1689.49
618.39	1679.73
618.74	1670.76
619.08	1661.12
619.43	1652.19
619.78	1643.98
620.12	1635.57
620.47	1626.81
620.82	1617.09
621.16	1608.35
621.51	1599.37
621.85	1590.26
622.20	1580.04
622.55	1570.09
622.89	1560.77
623.24	1551.78
623.59	1543.13
623.93	1534.26
624.28	1525.62
624.62	1516.70
624.97	1508.28
625.32	1500.24
625.66	1491.84
626.01	1483.44
626.35	1474.71
626.70	1465.59
627.04	1456.57
627.39	1447.47
627.73	1438.75
628.08	1430.72
628.43	1422.25
628.77	1413.63
629.12	1404.91
629.46	1396.58
629.81	1387.83
630.15	1379.26
630.50	1370.57
630.84	1360.88
631.19	1351.60
631.53	1342.63
631.88	1333.67
632.22	1324.93
632.57	1316.32
632.91	1307.47
633.26	1298.73
633.60	1289.94
633.95	1281.51
634.29	1273.23
634.64	1265.39
634.98	1256.83
635.32	1248.37
635.67	1240.65
636.01	1232.84
636.36	1224.73
636.70	1217.12
637.05	1209.49
637.39	1202.03
637.73	1194.48
638.08	1187.68
638.42	1180.65
638.77	1173.31
639.11	1165.78
639.45	1158.18
639.80	1150.38
640.14	1142.97
640.49	1135.46
640.83	1128.19
641.17	1120.96
641.52	1113.55
641.86	1105.99
642.20	1099.10
642.55	1091.70
642.89	1084.04
643.23	1076.40
643.58	1069.76
643.92	1062.57
644.26	1055.59
644.61	1048.45
644.95	1041.51
645.29	1033.94
645.64	1026.10
645.98	1018.65
646.32	1011.70
646.66	1004.62
647.01	997.94
647.35	991.26
647.69	984.39
648.04	977.95
648.38	971.29
648.72	964.40
649.06	957.46
649.41	950.69
649.75	943.91
650.09	937.11
650.43	930.45
650.78	923.32
651.12	916.43
651.46	909.82
651.80	903.32
652.14	897.01
652.49	890.83
652.83	884.83
653.17	878.30
653.51	871.86
653.85	865.66
654.20	859.20
654.54	852.32
654.88	845.68
655.22	838.88
655.56	832.26
655.90	825.93
656.25	819.94
656.59	813.65
656.93	807.79
657.27	801.75
657.61	795.41
657.95	789.59
658.29	783.73
658.64	777.55
658.98	771.33
659.32	764.99
659.66	758.90
660.00	752.83
660.34	747.14
660.68	741.37
661.02	735.57
661.36	730.09
661.70	724.90
662.05	719.87
662.39	714.83
662.73	709.62
663.07	704.50
663.41	699.29
663.75	694.13
664.09	688.73
664.43	683.67
664.77	678.98
665.11	674.05
665.45	669.23
665.79	664.55
666.13	659.82
666.47	655.16
666.81	650.32
667.15	645.48
667.49	640.99
667.83	636.59
668.17	632.07
668.51	627.43
668.85	622.71
669.19	618.30
669.53	613.91
669.87	609.49
670.21	605.16
670.55	600.92
670.89	596.94
671.23	593.05
671.57	588.96
671.91	584.88
672.25	580.83
672.58	576.76
672.92	572.84
673.26	569.16
673.60	565.42
673.94	561.85
674.28	558.50
674.62	555.07
674.96	551.43
675.30	548.09
675.64	544.63
675.97	541.51
676.31	538.21
676.65	534.88
676.99	531.79
677.33	528.55
677.67	525.29
678.01	521.84
678.34	518.46
678.68	515.16
679.02	511.92
679.36	508.72
679.70	505.64
680.04	502.50
680.37	499.21
680.71	496.01
681.05	493.03
681.39	489.90
681.73	486.83
682.06	483.95
682.40	481.04
682.74	478.12
683.08	475.10
683.42	472.08
683.75	469.13
684.09	466.14
684.43	463.29
684.77	460.51
685.10	457.81
685.44	455.09
685.78	452.45
686.12	449.86
686.45	447.22
686.79	444.57
687.13	442.01
687.46	439.48
687.80	437.02
688.14	434.41
688.48	432.08
688.81	429.47
689.15	427.01
689.49	424.47
689.82	422.10
690.16	419.72
690.50	417.44
690.83	415.20
691.17	412.92
691.51	410.73
691.84	408.53
692.18	406.29
692.52	404.08
692.85	401.81
693.19	399.59
693.52	397.43
693.86	395.22
694.20	393.13
694.53	391.04
694.87	388.92
695.21	386.83
695.54	384.67
695.88	382.68
696.21	380.64
696.55	378.67
696.88	376.65
697.22	374.69
697.56	372.83
697.89	370.95
698.23	369.03
698.56	367.13
698.90	365.33
699.23	363.39
699.57	361.52
699.90	359.73
700.24	357.92
700.58	356.18
700.91	354.49
701.25	352.81
701.58	351.23
701.92	349.58
702.25	348.03
702.59	346.48
702.92	344.95
703.26	343.48
703.59	342.05
703.93	340.70
704.26	339.29
704.60	337.80
704.93	336.30
705.26	334.92
705.60	333.56
705.93	332.21
706.27	331.06
706.60	329.84
706.94	328.59
707.27	327.32
707.61	326.08
707.94	324.86
708.27	323.58
708.61	322.32
708.94	321.18
709.28	320.03
709.61	318.89
709.94	317.74
710.28	316.52
710.61	315.32
710.95	314.05
711.28	313.01
711.61	311.90
711.95	310.84
712.28	309.74
712.61	308.60
712.95	307.48
713.28	306.38
713.61	305.32
713.95	304.27
714.28	303.30
714.61	302.31
714.95	301.32
715.28	300.37
715.61	299.37
715.95	298.36
716.28	297.35
716.61	296.34
716.95	295.39
717.28	294.55
717.61	293.70
717.94	292.84
718.28	291.89
718.61	291.01
718.94	290.22
719.27	289.45
719.61	288.70
719.94	287.93
720.27	287.15
720.60	286.35
720.94	285.66
721.27	284.96
721.60	284.27
721.93	283.59
722.27	282.90
722.60	282.22
722.93	281.58
723.26	280.95
723.59	280.32
723.93	279.66
724.26	278.98
724.59	278.30
724.92	277.68
725.25	277.10
725.59	276.51
725.92	275.89
726.25	275.28
726.58	274.67
726.91	274.07
727.24	273.53
727.57	272.99
727.91	272.40
728.24	271.84
728.57	271.27
728.90	270.73
729.23	270.16
729.56	269.71
729.89	269.14
730.22	268.59
730.55	268.04
730.89	267.55
731.22	267.06
731.55	266.52
731.88	266.03
732.21	265.53
732.54	265.02
732.87	264.52
733.20	264.04
733.53	263.64
733.86	263.25
734.19	262.76
734.52	262.33
734.85	261.96
735.18	261.50
735.51	261.10
735.84	260.71
736.17	260.32
736.50	259.84
736.83	259.54
737.16	259.14
737.49	258.77
737.82	258.35
738.15	257.92
738.48	257.58
738.81	257.21
739.14	256.83
739.47	256.49
739.80	256.13
740.13	255.75
740.46	255.34
740.79	254.92
741.12	254.56
741.45	254.19
741.78	253.75
742.11	253.43
742.44	253.02
742.77	252.67
743.10	252.32
743.43	251.98
743.75	251.60
744.08	251.41
744.41	251.11
744.74	250.81
745.07	250.49
745.40	250.21
745.73	249.93
746.06	249.61
746.39	249.27
746.71	248.98
747.04	248.67
747.37	248.40
747.70	248.16
748.03	247.88
748.36	247.64
748.68	247.38
749.01	247.07
749.34	246.82
749.67	246.52
750.00	246.26
750.33	246.07
750.65	245.84
750.98	245.46
751.31	245.20
751.64	244.97
751.97	244.78
752.29	244.56
752.62	244.29
752.95	244.06
753.28	243.83
753.60	243.59
753.93	243.40
754.26	243.18
754.59	242.89
754.91	242.64
755.24	242.42
755.57	242.20
755.90	242.01
756.22	241.77
756.55	241.56
756.88	241.33
757.20	241.07
757.53	240.82
757.86	240.62
758.19	240.43
758.51	240.26
758.84	240.00
759.17	239.78
759.49	239.62
759.82	239.47
760.15	239.31
760.47	239.15
760.80	238.93
761.13	238.80
761.45	238.63
761.78	238.48
762.11	238.28
762.43	238.09
762.76	237.90
763.08	237.78
763.41	237.64
763.74	237.48
764.06	237.32
764.39	237.13
764.71	236.98
765.04	236.81
765.37	236.62
765.69	236.45
766.02	236.26
766.34	236.10
766.67	235.90
767.00	235.74
767.32	235.62
767.65	235.56
767.97	235.39
768.30	235.25
768.62	235.10
768.95	234.98
769.27	234.86
769.60	234.76
769.92	234.61
770.25	234.47
770.57	234.31
770.90	234.18
771.22	234.07
771.55	233.93
771.87	233.85
772.20	233.74
772.52	233.73
772.85	233.73
773.17	233.62
773.50	233.51
773.82	233.39
774.15	233.23
774.47	233.06
774.80	232.94
775.12	232.86
775.45	232.78
775.77	232.66
776.09	232.57
776.42	232.47
776.74	232.42
777.07	232.34
777.39	232.30
777.72	232.22
778.04	232.16
778.36	232.10
778.69	232.00
779.01	231.95
779.33	231.84
779.66	231.67
779.98	231.58
780.31	231.53
780.63	231.51
780.95	231.50
781.28	231.47
781.60	231.40
781.92	231.34
782.25	231.28
782.57	231.25
782.89	231.19
783.22	231.08
783.54	231.00
783.86	230.96
784.19	230.87
784.51	230.84
784.83	230.77
785.16	230.71
785.48	230.68
785.80	230.58
786.12	230.51
786.45	230.46
786.77	230.42
787.09	230.37
787.42	230.30
787.74	230.20
788.06	230.15
788.38	230.11
788.71	230.03
789.03	229.98
789.35	229.93
789.67	229.89
789.99	229.89
790.32	229.84
790.64	229.80
790.96	229.88
791.28	229.77
791.61	229.70
791.93	229.68
792.25	229.63
792.57	229.67
792.89	229.61
793.21	229.56
793.54	229.50
793.86	229.44
794.18	229.41
794.50	229.39
794.82	229.31
795.14	229.31
795.47	229.29
795.79	229.27
796.11	229.21
796.43	229.14
796.75	229.08
797.07	229.04
797.39	228.98
797.71	228.83
798.04	228.81
798.36	228.80
798.68	228.72
799.00	228.68
799.32	228.61
799.64	228.60
799.96	228.55
800.28	228.53
800.60	228.52
800.92	228.48
801.24	228.43
801.56	228.43
801.89	228.37
802.21	228.31
802.53	228.24
802.85	228.23
803.17	228.24
803.49	228.19
803.81	228.16
804.13	228.09
804.45	228.04
804.77	228.04
805.09	227.97
805.41	227.94
805.73	227.85
806.05	227.79
806.37	227.72
806.69	227.72
807.01	227.68
807.33	227.61
807.65	227.53
807.97	227.55
808.28	227.51
808.60	227.45
808.92	227.41
809.24	227.45
809.56	227.41
809.88	227.34
810.20	227.34
810.52	227.34
810.84	227.34
811.16	227.29
811.48	227.24
811.80	227.28
812.12	227.28
812.43	227.28
812.75	227.26
813.07	227.23
813.39	227.22
813.71	227.16
814.03	227.13
814.35	227.12
814.67	227.05
814.98	227.03
815.30	227.00
815.62	226.98
815.94	226.89
816.26	226.90
816.58	226.85
816.89	226.84
817.21	226.81
817.53	226.78
817.85	226.79
818.17	226.80
818.48	226.73
818.80	226.70
819.12	226.67
819.44	226.64
819.76	226.61
820.07	226.58
820.39	226.58
820.71	226.58
821.03	226.54
821.34	226.49
821.66	226.47
821.98	226.46
822.30	226.45
822.61	226.50
822.93	226.47
823.25	226.45
823.57	226.39
823.88	226.36
824.20	226.31
824.52	226.30
824.83	226.25
825.15	226.23
825.47	226.23
825.79	226.22
826.10	226.23
826.42	226.20
826.74	226.21
827.05	226.15
827.37	226.14
827.69	226.11
828.00	226.10
828.32	226.09
828.64	226.08
828.95	226.11
829.27	226.08
829.58	226.06
829.90	226.08
830.22	226.11
830.53	226.07
830.85	226.06
831.17	226.02
831.48	226.04
831.80	226.03
832.11	226.02
832.43	226.02
832.75	226.01
833.06	226.08
833.38	226.00
833.69	226.03
834.01	226.03
834.32	226.06
834.64	226.08
834.96	226.04
835.27	226.04
835.59	225.99
835.90	225.95
836.22	225.94
836.53	225.89
836.85	225.86
837.16	225.99
837.48	226.00
837.79	226.03
838.11	226.01
838.42	225.98
838.74	225.96
839.05	225.95
839.37	225.92
839.68	225.84
840.00	225.89
840.31	225.86
840.63	225.83
840.94	225.79
841.26	225.76
841.57	225.76
841.88	225.76
842.20	225.74
842.51	225.75
842.83	225.76
843.14	225.87
843.46	225.87
843.77	225.74
844.08	225.72
844.40	225.70
844.71	225.68
845.03	225.67
845.34	225.65
845.65	225.65
845.97	225.67
846.28	225.68
846.60	225.65
846.91	225.66
847.22	225.68
847.54	225.72
847.85	225.70
848.16	225.69
848.48	225.64
848.79	225.69
849.10	225.71
849.42	225.70
849.73	225.59
850.04	225.59
850.36	225.60
850.67	225.62
850.98	225.63
851.30	225.65
851.61	225.68
851.92	225.68
852.23	225.72
852.55	225.67
852.86	225.66
853.17	225.63
853.49	225.64
853.80	225.61
854.11	225.61
854.42	225.62
854.74	225.61
855.05	225.62
855.36	225.56
855.67	225.50
855.99	225.49
856.30	225.59
856.61	225.54
856.92	225.55
857.23	225.55
857.55	225.53
857.86	225.51
858.17	225.52
858.48	225.49
858.79	225.44
859.11	225.46
859.42	225.44
859.73	225.45
860.04	225.43
860.35	225.43
860.66	225.38
860.98	225.37
861.29	225.38
861.60	225.40
861.91	225.41
862.22	225.41
862.53	225.39
862.84	225.27
863.16	225.31
863.47	225.26
863.78	225.24
864.09	225.24
864.40	225.21
864.71	225.19
865.02	225.20
865.33	225.22
865.64	225.18
865.95	225.17
866.27	225.23
866.58	225.24
866.89	225.26
867.20	225.27
867.51	225.27
867.82	225.25
868.13	225.27
868.44	225.23
868.75	225.27
869.06	225.27
869.37	225.29
869.68	225.25
869.99	225.28
870.30	225.27
870.61	225.25
870.92	225.23
871.23	225.19
871.54	225.18
871.85	225.18
872.16	225.23
872.47	225.20
872.78	225.15
873.09	225.15
873.40	225.12
873.71	225.12
874.02	225.12
874.33	225.12
874.64	225.07
874.95	225.11
875.26	225.04
875.56	225.02
875.87	224.99
876.18	224.98
876.49	225.08
876.80	225.05
877.11	225.05
877.42	225.06
877.73	225.08
878.04	225.09
878.35	225.09
878.66	225.05
878.96	225.08
879.27	225.05
879.58	225.03
879.89	225.01
880.20	225.04
880.51	225.03
880.82	225.02
881.12	225.04
881.43	225.00
881.74	225.02
882.05	225.03
882.36	225.06
882.67	225.07
882.97	224.96
883.28	224.95
883.59	224.96
883.90	224.99
884.21	225.01
884.51	225.00
884.82	224.97
885.13	224.97
885.44	224.99
885.74	224.98
886.05	225.00
886.36	225.01
886.67	224.94
886.98	224.98
887.28	224.99
887.59	224.96
887.90	224.93
888.20	224.90
888.51	224.93
888.82	224.90
889.13	224.89
889.43	224.99
889.74	224.97
890.05	224.95
890.35	224.91
890.66	224.88
890.97	224.84
891.28	224.85
891.58	224.88
891.89	224.84
892.20	224.81
892.50	224.78
892.81	224.78
893.12	224.82
893.42	224.76
893.73	224.73
894.04	224.75
894.34	224.81
894.65	224.84
894.95	224.81
895.26	224.81
895.57	224.87
895.87	224.77
896.18	224.83
896.48	224.84
896.79	224.86
897.10	224.85
897.40	224.87
897.71	224.87
898.01	224.82
898.32	224.86
898.63	224.88
898.93	224.91
899.24	224.92
899.54	224.88
899.85	224.90
900.15	224.93
900.46	224.90
900.76	224.86
901.07	224.85
901.38	224.85
901.68	224.85
901.99	224.77
902.29	224.76
902.60	224.74
902.90	224.72
903.21	224.69
903.51	224.69
903.82	224.73
904.12	224.74
904.43	224.75
904.73	224.75
905.03	224.75
905.34	224.84
905.64	224.80
905.95	224.81
906.25	224.81
906.56	224.80
906.86	224.79
907.17	224.82
907.47	224.82
907.77	224.82
908.08	224.82
908.38	224.85
908.69	224.85
908.99	224.86
909.30	224.89
909.60	224.89
909.90	224.90
910.21	224.86
910.51	224.83
910.81	224.82
911.12	224.81
911.42	224.84
911.73	224.71
912.03	224.71
912.33	224.73
912.64	224.70
912.94	224.68
913.24	224.66
913.55	224.66
913.85	224.66
914.15	224.67
914.46	224.67
914.76	224.61
915.06	224.59
915.37	224.55
915.67	224.50
915.97	224.54
916.27	224.55
916.58	224.56
916.88	224.54
917.18	224.55
917.49	224.64
917.79	224.63
918.09	224.66
918.39	224.68
918.70	224.65
919.00	224.68
919.30	224.73
919.60	224.72
919.91	224.70
920.21	224.70
920.51	224.69
920.81	224.71
921.12	224.76
921.42	224.78
921.72	224.81
922.02	224.82
922.32	224.80
922.63	224.77
922.93	224.84
923.23	224.87
923.53	224.86
923.83	224.79
924.13	224.80
924.44	224.79
924.74	224.80
925.04	224.82
925.34	224.85
925.64	224.86
925.94	224.92
926.24	225.00
926.55	224.99
926.85	225.01
927.15	224.99
927.45	224.99
927.75	224.99
928.05	224.96
928.35	224.96
928.65	224.98
928.95	225.00
929.26	224.93
929.56	224.92
929.86	224.93
930.16	224.92
930.46	224.91
930.76	224.90
931.06	224.88
931.36	224.83
931.66	224.80
931.96	224.77
932.26	224.74
932.56	224.65
932.86	224.68
933.16	224.68
933.46	224.67
933.76	224.67
934.06	224.70
934.36	224.77
934.66	224.79
934.96	224.81
935.26	224.81
935.56	224.82
935.86	224.81
936.16	224.77
936.46	224.75
936.76	224.73
937.06	224.73
937.36	224.77
937.66	224.79
937.96	224.83
938.26	224.84
938.56	224.81
938.86	224.80
939.16	224.81
939.46	224.80
939.76	224.79
940.06	224.78
940.35	224.78
940.65	224.72
940.95	224.72
941.25	224.67
941.55	224.69
941.85	224.70
942.15	224.74
942.45	224.80
942.75	224.81
943.04	224.83
943.34	224.87
943.64	224.85
943.94	224.85
944.24	224.84
944.54	224.83
944.84	224.85
945.13	224.84
945.43	224.83
945.73	224.82
946.03	224.82
946.33	224.82
946.62	224.80
946.92	224.83
947.22	224.86
947.52	224.86
947.82	224.87
948.11	224.84
948.41	224.79
948.71	224.79
949.01	224.81
949.31	224.79
949.60	224.77
949.90	224.77
950.20	224.74
950.50	224.73
950.79	224.72
951.09	224.77
951.39	224.79
951.69	224.81
951.98	224.81
952.28	224.85
952.58	224.84
952.87	224.84
953.17	224.84
953.47	224.80
953.76	224.82
954.06	224.79
954.36	224.81
954.66	224.81
954.95	224.79
955.25	224.77
955.55	224.77
955.84	224.76
956.14	224.76
956.44	224.78
956.73	224.76
957.03	224.75
957.32	224.74
957.62	224.71
957.92	224.71
958.21	224.71
958.51	224.78
958.81	224.78
959.10	224.75
959.40	224.76
959.69	224.74
959.99	224.74
960.29	224.74
960.58	224.68
960.88	224.74
961.17	224.74
961.47	224.72
961.76	224.70
962.06	224.70
962.36	224.69
962.65	224.70
962.95	224.73
963.24	224.70
963.54	224.68
963.83	224.68
964.13	224.68
964.42	224.64
964.72	224.56
965.01	224.56
965.31	224.54
965.60	224.51
965.90	224.60
966.19	224.57
966.49	224.55
966.78	224.56
967.08	224.50
967.37	224.50
967.67	224.48
967.96	224.50
968.26	224.51
968.55	224.54
968.85	224.53
969.14	224.49
969.43	224.51
969.73	224.51
970.02	224.53
970.32	224.51
970.61	224.52
970.91	224.47
971.20	224.45
971.49	224.47
971.79	224.48
972.08	224.39
972.38	224.41
972.67	224.42
972.96	224.44
973.26	224.44
973.55	224.49
973.85	224.51
974.14	224.53
974.43	224.52
974.73	224.45
975.02	224.43
975.31	224.41
975.61	224.39
975.90	224.39
976.19	224.38
976.49	224.40
976.78	224.43
977.07	224.46
977.37	224.48
977.66	224.54
977.95	224.54
978.24	224.55
978.54	224.59
978.83	224.60
979.12	224.60
979.42	224.62
979.71	224.58
980.00	224.58
980.29	224.58
980.59	224.60
980.88	224.66
981.17	224.70
981.46	224.71
981.76	224.73
982.05	224.73
982.34	224.74
982.63	224.74
982.93	224.72
983.22	224.77
983.51	224.76
983.80	224.75
984.09	224.77
984.39	224.76
984.68	224.75
984.97	224.76
985.26	224.77
985.55	224.75
985.85	224.75
986.14	224.80
986.43	224.80
986.72	224.79
987.01	224.75
987.30	224.71
987.59	224.73
987.89	224.70
988.18	224.71
988.47	224.70
988.76	224.72
989.05	224.73
989.34	224.69
989.63	224.71
989.92	224.68
990.22	224.65
990.51	224.67
990.80	224.64
991.09	224.63
991.38	224.64
991.67	224.65
991.96	224.60
992.25	224.60
992.54	224.55
992.83	224.55
993.12	224.56
993.41	224.62
993.70	224.64
993.99	224.68
994.28	224.70
994.58	224.72
994.87	224.67
995.16	224.65
995.45	224.65
995.74	224.61
996.03	224.61
996.32	224.63
996.61	224.62
996.90	224.62
997.19	224.62
997.48	224.61
997.77	224.60
998.06	224.62
998.34	224.60
998.63	224.66
998.92	224.68
999.21	224.69
999.50	224.67
999.79	224.63
1000.08	224.61
1000.37	224.60
1000.66	224.57
1000.95	224.61
1001.24	224.62
1001.53	224.62
1001.82	224.63
1002.11	224.62
1002.40	224.63
1002.68	224.67
1002.97	224.76
1003.26	224.77
1003.55	224.78
1003.84	224.78
1004.13	224.81
1004.42	224.80
1004.71	224.79
1004.99	224.77
1005.28	224.78
1005.57	224.75
1005.86	224.76
1006.15	224.77
1006.44	224.72
1006.72	224.75
1007.01	224.75
1007.30	224.73
1007.59	224.74
1007.88	224.74
1008.17	224.74
1008.45	224.72
1008.74	224.69
1009.03	224.60
1009.32	224.59
1009.60	224.57
1009.89	224.58
1010.18	224.53
1010.47	224.53
1010.76	224.50
1011.04	224.48
1011.33	224.49
1011.62	224.52
1011.91	224.54
1012.19	224.55
1012.48	224.60
1012.77	224.61
1013.05	224.65
1013.34	224.66
1013.63	224.63
1013.92	224.66
1014.20	224.66
1014.49	224.64
1014.78	224.65
1015.06	224.63
1015.35	224.61
1015.64	224.62
1015.92	224.61
1016.21	224.64
1016.50	224.64
1016.78	224.65
1017.07	224.63
1017.36	224.62
1017.64	224.58
1017.93	224.58
1018.22	224.54
1018.50	224.53
1018.79	224.50
1019.08	224.42
1019.36	224.41
1019.65	224.43
1019.93	224.42
1020.22	224.42
1020.51	224.48
1020.79	224.48
1021.08	224.07
1021.36	224.60
1021.65	224.41
1021.94	223.75
1022.22	224.55
1022.51	224.48
1022.79	224.76
1023.08	224.69
1023.36	225.60
1023.65	224.57
>>>>>End Processed Spectral Data<<<<<
