SpectraSuite Data File
++++++++++++++++++++++++++++++++++++
Date: Fri Feb 01 15:54:09 EST 2013
User: group
Dark Spectrum Present: No
Reference Spectrum Present: No
Number of Sampled Component Spectra: 1
Spectrometers: USB2E7196
Integration Time (usec): 35000 (USB2E7196)
Spectra Averaged: 100 (USB2E7196)
Boxcar Smoothing: 10 (USB2E7196)
Correct for Electrical Dark: No (USB2E7196)
Strobe/Lamp Enabled: No (USB2E7196)
Correct for Detector Non-linearity: No (USB2E7196)
Correct for Stray Light: No (USB2E7196)
Number of Pixels in Processed Spectrum: 2048
>>>>>Begin Processed Spectral Data<<<<<
339.09	0.00
339.48	214.28
339.86	215.70
340.24	217.27
340.63	218.82
341.01	221.55
341.39	221.56
341.78	222.75
342.16	224.16
342.54	224.66
342.93	212.88
343.31	223.64
343.69	224.18
344.07	224.63
344.46	225.05
344.84	225.42
345.22	225.68
345.60	225.93
345.99	226.12
346.37	226.22
346.75	226.35
347.13	226.42
347.52	226.46
347.90	226.54
348.28	226.58
348.66	226.63
349.05	226.63
349.43	226.64
349.81	226.66
350.19	226.72
350.57	226.77
350.96	226.88
351.34	226.97
351.72	227.07
352.10	227.18
352.48	227.27
352.87	227.34
353.25	227.40
353.63	227.46
354.01	227.53
354.39	227.64
354.77	227.69
355.15	227.81
355.54	227.88
355.92	227.95
356.30	228.08
356.68	228.21
357.06	228.29
357.44	228.36
357.82	228.42
358.20	228.47
358.58	228.53
358.97	228.57
359.35	228.65
359.73	228.75
360.11	228.80
360.49	228.86
360.87	228.90
361.25	228.95
361.63	229.01
362.01	229.09
362.39	229.14
362.77	229.16
363.15	229.17
363.53	229.21
363.91	229.24
364.29	229.22
364.67	229.14
365.05	229.16
365.43	229.19
365.81	229.24
366.19	229.31
366.57	229.35
366.95	229.37
367.33	229.34
367.71	229.29
368.09	229.31
368.47	229.30
368.85	229.27
369.23	229.26
369.61	229.25
369.99	229.22
370.37	229.18
370.75	229.21
371.13	229.11
371.51	229.06
371.89	228.98
372.27	228.93
372.65	228.86
373.03	228.83
373.41	228.78
373.78	228.74
374.16	228.64
374.54	228.55
374.92	228.47
375.30	228.43
375.68	228.33
376.06	228.27
376.44	228.19
376.82	228.16
377.19	228.09
377.57	227.97
377.95	227.89
378.33	227.79
378.71	227.67
379.09	227.65
379.47	227.57
379.84	227.50
380.22	227.44
380.60	227.37
380.98	227.29
381.36	227.18
381.73	227.08
382.11	227.03
382.49	226.95
382.87	226.86
383.25	226.75
383.62	226.82
384.00	226.70
384.38	226.63
384.76	226.60
385.13	226.61
385.51	226.52
385.89	226.46
386.27	226.41
386.64	226.39
387.02	226.33
387.40	226.29
387.78	226.27
388.15	226.22
388.53	226.18
388.91	226.13
389.29	226.13
389.66	226.10
390.04	226.06
390.42	226.06
390.79	226.07
391.17	226.05
391.55	225.95
391.92	225.98
392.30	226.02
392.68	225.99
393.05	225.96
393.43	226.01
393.81	226.03
394.18	226.02
394.56	226.00
394.94	226.03
395.31	226.03
395.69	226.10
396.06	226.11
396.44	226.17
396.82	226.18
397.19	226.26
397.57	226.29
397.95	226.40
398.32	226.43
398.70	226.48
399.07	226.59
399.45	226.63
399.82	226.70
400.20	226.77
400.58	226.81
400.95	226.85
401.33	226.94
401.70	227.06
402.08	227.18
402.45	227.28
402.83	227.41
403.20	227.53
403.58	227.58
403.95	227.75
404.33	227.84
404.71	227.97
405.08	228.15
405.46	228.33
405.83	228.45
406.21	228.60
406.58	228.79
406.96	228.94
407.33	229.12
407.70	229.29
408.08	229.53
408.45	229.76
408.83	230.02
409.20	230.25
409.58	230.47
409.95	230.70
410.33	230.99
410.70	231.23
411.08	231.55
411.45	231.87
411.82	232.16
412.20	232.55
412.57	233.01
412.95	233.32
413.32	233.69
413.69	234.11
414.07	234.54
414.44	234.97
414.82	235.43
415.19	235.96
415.56	236.54
415.94	237.12
416.31	237.75
416.68	238.38
417.06	239.09
417.43	239.74
417.81	240.56
418.18	241.32
418.55	242.17
418.93	243.03
419.30	243.95
419.67	244.88
420.04	245.81
420.42	246.79
420.79	247.97
421.16	249.17
421.54	250.36
421.91	251.60
422.28	252.87
422.66	254.22
423.03	255.52
423.40	256.85
423.77	258.22
424.15	259.68
424.52	261.13
424.89	262.72
425.26	264.28
425.64	265.69
426.01	267.29
426.38	268.94
426.75	270.60
427.13	272.32
427.50	274.11
427.87	275.98
428.24	277.86
428.61	279.57
428.99	281.49
429.36	283.55
429.73	285.58
430.10	287.57
430.47	289.61
430.85	291.77
431.22	293.98
431.59	296.37
431.96	298.58
432.33	301.08
432.70	303.46
433.08	306.24
433.45	308.91
433.82	311.54
434.19	314.43
434.56	317.24
434.93	319.89
435.30	322.52
435.68	325.46
436.05	328.27
436.42	331.03
436.79	333.51
437.16	336.25
437.53	339.09
437.90	341.96
438.27	344.74
438.64	347.58
439.01	350.17
439.38	352.38
439.75	354.55
440.13	357.04
440.50	359.38
440.87	361.25
441.24	363.17
441.61	365.32
441.98	366.79
442.35	368.58
442.72	370.42
443.09	372.22
443.46	373.16
443.83	373.74
444.20	374.29
444.57	375.11
444.94	375.37
445.31	375.73
445.68	376.04
446.05	376.09
446.42	375.66
446.79	375.26
447.16	374.84
447.53	374.54
447.90	373.33
448.27	372.20
448.64	370.58
449.01	369.48
449.37	367.54
449.74	365.63
450.11	363.39
450.48	360.93
450.85	358.39
451.22	356.25
451.59	354.24
451.96	352.33
452.33	349.77
452.70	347.46
453.07	344.60
453.43	341.74
453.80	338.98
454.17	336.32
454.54	333.78
454.91	331.06
455.28	328.38
455.65	325.93
456.02	323.49
456.38	321.39
456.75	318.71
457.12	316.44
457.49	314.22
457.86	312.08
458.23	310.26
458.59	308.24
458.96	306.13
459.33	304.29
459.70	302.41
460.07	300.91
460.43	299.14
460.80	297.54
461.17	296.11
461.54	294.64
461.91	293.23
462.27	291.79
462.64	290.55
463.01	289.19
463.38	287.90
463.74	286.53
464.11	285.36
464.48	284.33
464.85	283.22
465.21	282.40
465.58	281.51
465.95	280.41
466.32	279.49
466.68	278.66
467.05	277.75
467.42	276.86
467.78	275.92
468.15	275.02
468.52	274.36
468.88	273.47
469.25	272.69
469.62	272.06
469.98	271.39
470.35	270.76
470.72	270.19
471.08	269.52
471.45	268.98
471.82	268.42
472.18	267.83
472.55	267.39
472.92	266.83
473.28	266.33
473.65	265.89
474.02	265.46
474.38	265.04
474.75	264.71
475.11	264.38
475.48	264.11
475.85	263.94
476.21	263.71
476.58	263.54
476.94	263.40
477.31	263.24
477.67	263.08
478.04	262.96
478.41	262.87
478.77	262.90
479.14	262.81
479.50	262.82
479.87	262.87
480.23	262.92
480.60	263.00
480.96	263.06
481.33	263.26
481.69	263.45
482.06	263.63
482.42	263.82
482.79	264.06
483.15	264.42
483.52	264.77
483.88	265.12
484.25	265.50
484.61	265.86
484.98	266.32
485.34	266.87
485.71	267.47
486.07	268.10
486.44	268.66
486.80	269.37
487.17	270.09
487.53	270.89
487.90	271.76
488.26	272.68
488.62	273.67
488.99	274.62
489.35	275.64
489.72	276.78
490.08	278.00
490.44	279.27
490.81	280.57
491.17	281.91
491.54	283.38
491.90	284.90
492.26	286.57
492.63	288.28
492.99	290.08
493.36	291.96
493.72	294.00
494.08	296.16
494.45	298.40
494.81	300.81
495.17	303.29
495.54	305.84
495.90	308.56
496.26	311.38
496.63	314.36
496.99	317.52
497.35	320.77
497.72	324.17
498.08	327.67
498.44	331.37
498.80	335.28
499.17	339.36
499.53	343.58
499.89	347.97
500.26	352.48
500.62	357.17
500.98	362.16
501.34	367.27
501.71	372.55
502.07	377.98
502.43	383.56
502.79	389.38
503.16	395.49
503.52	401.73
503.88	408.13
504.24	414.76
504.60	421.64
504.97	428.75
505.33	436.05
505.69	443.73
506.05	451.54
506.41	459.44
506.78	467.53
507.14	475.98
507.50	484.77
507.86	493.80
508.22	502.98
508.59	512.17
508.95	521.76
509.31	531.60
509.67	541.78
510.03	552.06
510.39	562.60
510.75	573.41
511.12	584.33
511.48	595.72
511.84	607.10
512.20	618.59
512.56	630.62
512.92	642.85
513.28	655.21
513.64	667.64
514.00	680.40
514.37	693.41
514.73	706.44
515.09	719.44
515.45	732.73
515.81	746.31
516.17	760.26
516.53	774.38
516.89	788.51
517.25	802.64
517.61	817.07
517.97	831.55
518.33	845.93
518.69	860.70
519.05	875.60
519.41	890.87
519.77	906.40
520.13	921.78
520.49	937.18
520.85	952.68
521.21	968.41
521.57	984.61
521.93	1000.34
522.29	1016.73
522.65	1032.94
523.01	1049.18
523.37	1065.25
523.73	1081.43
524.09	1097.40
524.45	1113.66
524.81	1130.24
525.17	1147.14
525.53	1163.99
525.89	1180.88
526.25	1197.74
526.61	1214.16
526.97	1230.82
527.33	1247.31
527.68	1263.91
528.04	1280.31
528.40	1296.76
528.76	1313.76
529.12	1330.36
529.48	1347.25
529.84	1363.31
530.20	1379.89
530.56	1396.87
530.91	1414.25
531.27	1430.95
531.63	1447.45
531.99	1464.13
532.35	1480.14
532.71	1495.87
533.07	1512.08
533.42	1527.88
533.78	1543.84
534.14	1560.15
534.50	1575.45
534.86	1591.25
535.21	1606.44
535.57	1622.39
535.93	1637.92
536.29	1652.73
536.65	1667.82
537.00	1682.54
537.36	1697.87
537.72	1712.39
538.08	1726.68
538.44	1740.41
538.79	1754.24
539.15	1768.04
539.51	1781.69
539.87	1795.86
540.22	1809.61
540.58	1823.34
540.94	1836.70
541.29	1849.59
541.65	1862.17
542.01	1875.36
542.37	1887.67
542.72	1900.04
543.08	1911.69
543.44	1924.03
543.79	1935.24
544.15	1946.18
544.51	1957.60
544.87	1968.42
545.22	1979.12
545.58	1989.49
545.94	1999.13
546.29	2009.03
546.65	2018.80
547.01	2028.07
547.36	2036.80
547.72	2045.23
548.07	2053.00
548.43	2061.28
548.79	2069.33
549.14	2076.90
549.50	2084.31
549.86	2092.00
550.21	2099.21
550.57	2106.45
550.92	2113.04
551.28	2120.15
551.64	2127.05
551.99	2133.58
552.35	2139.82
552.70	2146.08
553.06	2152.22
553.41	2158.64
553.77	2164.69
554.13	2170.78
554.48	2176.98
554.84	2182.54
555.19	2187.91
555.55	2193.17
555.90	2197.40
556.26	2202.12
556.61	2206.73
556.97	2210.97
557.32	2215.07
557.68	2219.31
558.03	2223.58
558.39	2227.24
558.74	2231.78
559.10	2235.80
559.45	2239.61
559.81	2243.87
560.16	2247.53
560.52	2250.50
560.87	2253.88
561.23	2256.55
561.58	2259.41
561.94	2261.78
562.29	2264.03
562.64	2266.65
563.00	2269.07
563.35	2272.67
563.71	2275.93
564.06	2279.27
564.42	2282.09
564.77	2284.68
565.12	2286.97
565.48	2288.90
565.83	2290.80
566.19	2292.09
566.54	2293.02
566.89	2294.23
567.25	2294.60
567.60	2296.07
567.96	2297.76
568.31	2298.69
568.66	2299.77
569.02	2300.36
569.37	2300.75
569.72	2301.67
570.08	2301.85
570.43	2302.06
570.78	2301.55
571.14	2299.97
571.49	2298.52
571.84	2298.18
572.20	2297.01
572.55	2295.87
572.90	2294.32
573.26	2292.92
573.61	2291.24
573.96	2289.39
574.31	2286.23
574.67	2283.34
575.02	2279.76
575.37	2276.36
575.72	2272.43
576.08	2269.15
576.43	2265.85
576.78	2262.02
577.13	2258.97
577.49	2255.92
577.84	2252.38
578.19	2248.54
578.54	2244.87
578.90	2240.74
579.25	2235.29
579.60	2230.14
579.95	2225.26
580.30	2220.25
580.66	2215.21
581.01	2210.26
581.36	2205.30
581.71	2201.10
582.06	2196.68
582.42	2192.11
582.77	2186.94
583.12	2182.52
583.47	2177.69
583.82	2172.55
584.17	2167.38
584.53	2161.76
584.88	2155.96
585.23	2150.25
585.58	2144.94
585.93	2139.50
586.28	2134.65
586.63	2129.53
586.98	2124.60
587.34	2119.83
587.69	2114.96
588.04	2109.48
588.39	2103.79
588.74	2097.29
589.09	2091.32
589.44	2084.52
589.79	2078.58
590.14	2073.00
590.49	2066.27
590.84	2059.96
591.19	2054.13
591.54	2047.80
591.89	2040.39
592.25	2033.60
592.60	2026.36
592.95	2018.69
593.30	2011.32
593.65	2003.78
594.00	1996.72
594.35	1989.49
594.70	1981.44
595.05	1974.08
595.40	1966.89
595.75	1959.32
596.10	1953.18
596.45	1946.24
596.80	1940.22
597.15	1933.58
597.50	1926.35
597.85	1920.18
598.19	1913.50
598.54	1906.22
598.89	1899.51
599.24	1893.66
599.59	1886.90
599.94	1880.75
600.29	1874.37
600.64	1867.95
600.99	1860.41
601.34	1853.61
601.69	1846.67
602.04	1839.83
602.39	1832.61
602.74	1825.69
603.08	1819.08
603.43	1812.26
603.78	1805.13
604.13	1797.72
604.48	1790.30
604.83	1783.50
605.18	1776.39
605.53	1768.40
605.87	1760.52
606.22	1753.28
606.57	1745.45
606.92	1738.27
607.27	1730.95
607.62	1723.98
607.96	1716.64
608.31	1710.02
608.66	1702.42
609.01	1694.91
609.36	1687.23
609.70	1679.18
610.05	1671.28
610.40	1663.47
610.75	1655.20
611.10	1647.46
611.44	1639.07
611.79	1631.11
612.14	1622.43
612.49	1613.19
612.83	1604.81
613.18	1596.71
613.53	1588.70
613.88	1579.99
614.22	1571.79
614.57	1563.31
614.92	1555.36
615.27	1547.72
615.61	1539.48
615.96	1531.39
616.31	1523.73
616.65	1516.42
617.00	1508.87
617.35	1501.07
617.70	1492.74
618.04	1484.27
618.39	1476.08
618.74	1468.45
619.08	1460.12
619.43	1452.49
619.78	1445.75
620.12	1438.55
620.47	1430.93
620.82	1422.68
621.16	1415.40
621.51	1407.71
621.85	1400.04
622.20	1391.51
622.55	1383.25
622.89	1375.39
623.24	1367.77
623.59	1360.31
623.93	1352.85
624.28	1345.62
624.62	1338.15
624.97	1331.09
625.32	1324.32
625.66	1317.31
626.01	1310.19
626.35	1302.81
626.70	1295.07
627.04	1287.31
627.39	1279.58
627.73	1272.24
628.08	1265.32
628.43	1257.87
628.77	1250.48
629.12	1242.91
629.46	1235.84
629.81	1228.40
630.15	1221.23
630.50	1213.92
630.84	1205.76
631.19	1197.79
631.53	1190.31
631.88	1182.81
632.22	1175.19
632.57	1167.89
632.91	1160.31
633.26	1152.90
633.60	1145.67
633.95	1138.63
634.29	1131.58
634.64	1124.89
634.98	1117.47
635.32	1110.24
635.67	1103.80
636.01	1097.11
636.36	1090.26
636.70	1083.67
637.05	1077.00
637.39	1070.45
637.73	1063.86
638.08	1058.07
638.42	1052.02
638.77	1045.51
639.11	1038.84
639.45	1032.44
639.80	1025.80
640.14	1019.44
640.49	1012.95
640.83	1006.47
641.17	1000.14
641.52	993.73
641.86	987.33
642.20	981.41
642.55	975.24
642.89	968.63
643.23	962.13
643.58	956.33
643.92	950.12
644.26	944.10
644.61	938.07
644.95	932.10
645.29	925.47
645.64	918.85
645.98	912.55
646.32	906.72
646.66	900.65
647.01	894.87
647.35	889.08
647.69	883.17
648.04	877.68
648.38	871.98
648.72	865.95
649.06	859.86
649.41	854.10
649.75	848.06
650.09	842.23
650.43	836.51
650.78	830.48
651.12	824.52
651.46	818.79
651.80	813.08
652.14	807.62
652.49	802.17
652.83	797.00
653.17	791.26
653.51	785.58
653.85	780.17
654.20	774.53
654.54	768.58
654.88	762.93
655.22	757.01
655.56	751.31
655.90	745.91
656.25	740.65
656.59	735.26
656.93	730.17
657.27	724.96
657.61	719.57
657.95	714.47
658.29	709.36
658.64	704.14
658.98	698.85
659.32	693.38
659.66	688.29
660.00	682.92
660.34	678.05
660.68	673.15
661.02	668.11
661.36	663.33
661.70	658.76
662.05	654.36
662.39	650.03
662.73	645.58
663.07	641.20
663.41	636.76
663.75	632.19
664.09	627.66
664.43	623.28
664.77	619.07
665.11	614.82
665.45	610.78
665.79	606.70
666.13	602.56
666.47	598.48
666.81	594.29
667.15	590.18
667.49	586.24
667.83	582.41
668.17	578.50
668.51	574.48
668.85	570.44
669.19	566.56
669.53	562.75
669.87	558.79
670.21	555.09
670.55	551.44
670.89	548.07
671.23	544.64
671.57	541.11
671.91	537.60
672.25	534.08
672.58	530.49
672.92	527.10
673.26	523.94
673.60	520.80
673.94	517.69
674.28	514.82
674.62	511.86
674.96	508.77
675.30	505.86
675.64	502.86
675.97	500.15
676.31	497.31
676.65	494.38
676.99	491.74
677.33	488.88
677.67	486.07
678.01	483.02
678.34	479.98
678.68	477.12
679.02	474.33
679.36	471.56
679.70	468.89
680.04	466.11
680.37	463.28
680.71	460.50
681.05	457.84
681.39	455.05
681.73	452.39
682.06	449.84
682.40	447.31
682.74	444.81
683.08	442.21
683.42	439.64
683.75	437.12
684.09	434.57
684.43	432.04
684.77	429.56
685.10	427.21
685.44	424.95
685.78	422.61
686.12	420.36
686.45	418.08
686.79	415.72
687.13	413.51
687.46	411.31
687.80	409.14
688.14	406.90
688.48	404.92
688.81	402.65
689.15	400.52
689.49	398.34
689.82	396.26
690.16	394.18
690.50	392.27
690.83	390.34
691.17	388.35
691.51	386.46
691.84	384.63
692.18	382.73
692.52	380.72
692.85	378.82
693.19	376.90
693.52	375.05
693.86	373.25
694.20	371.45
694.53	369.65
694.87	367.82
695.21	366.08
695.54	364.24
695.88	362.52
696.21	360.81
696.55	359.13
696.88	357.46
697.22	355.85
697.56	354.16
697.89	352.48
698.23	350.91
698.56	349.32
698.90	347.72
699.23	346.04
699.57	344.50
699.90	342.97
700.24	341.44
700.58	339.94
700.91	338.47
701.25	337.05
701.58	335.64
701.92	334.25
702.25	332.85
702.59	331.46
702.92	330.18
703.26	328.89
703.59	327.59
703.93	326.39
704.26	325.14
704.60	323.86
704.93	322.64
705.26	321.38
705.60	320.20
705.93	319.03
706.27	318.04
706.60	317.00
706.94	315.90
707.27	314.79
707.61	313.75
707.94	312.71
708.27	311.59
708.61	310.55
708.94	309.55
709.28	308.61
709.61	307.64
709.94	306.67
710.28	305.63
710.61	304.66
710.95	303.58
711.28	302.65
711.61	301.75
711.95	300.85
712.28	299.88
712.61	298.93
712.95	298.00
713.28	297.08
713.61	296.17
713.95	295.32
714.28	294.50
714.61	293.57
714.95	292.74
715.28	291.89
715.61	291.01
715.95	290.17
716.28	289.29
716.61	288.47
716.95	287.69
717.28	286.92
717.61	286.15
717.94	285.45
718.28	284.66
718.61	283.91
718.94	283.20
719.27	282.53
719.61	281.88
719.94	281.21
720.27	280.48
720.60	279.85
720.94	279.21
721.27	278.59
721.60	278.07
721.93	277.47
722.27	276.95
722.60	276.40
722.93	275.82
723.26	275.29
723.59	274.71
723.93	274.14
724.26	273.57
724.59	273.01
724.92	272.48
725.25	271.97
725.59	271.47
725.92	270.96
726.25	270.46
726.58	269.96
726.91	269.46
727.24	268.99
727.57	268.49
727.91	267.99
728.24	267.53
728.57	267.04
728.90	266.60
729.23	266.10
729.56	265.65
729.89	265.18
730.22	264.70
730.55	264.24
730.89	263.80
731.22	263.36
731.55	262.92
731.88	262.47
732.21	262.09
732.54	261.63
732.87	261.20
733.20	260.81
733.53	260.45
733.86	260.11
734.19	259.71
734.52	259.35
734.85	259.04
735.18	258.64
735.51	258.24
735.84	257.87
736.17	257.54
736.50	257.15
736.83	256.94
737.16	256.62
737.49	256.29
737.82	255.96
738.15	255.64
738.48	255.36
738.81	255.04
739.14	254.70
739.47	254.39
739.80	254.09
740.13	253.78
740.46	253.43
740.79	253.12
741.12	252.86
741.45	252.55
741.78	252.17
742.11	251.88
742.44	251.59
742.77	251.30
743.10	250.96
743.43	250.68
743.75	250.27
744.08	250.10
744.41	249.84
744.74	249.55
745.07	249.27
745.40	248.99
745.73	248.77
746.06	248.48
746.39	248.23
746.71	247.94
747.04	247.68
747.37	247.41
747.70	247.15
748.03	246.87
748.36	246.64
748.68	246.42
749.01	246.14
749.34	245.91
749.67	245.68
750.00	245.48
750.33	245.32
750.65	245.11
750.98	244.76
751.31	244.51
751.64	244.28
751.97	244.12
752.29	243.93
752.62	243.67
752.95	243.47
753.28	243.23
753.60	243.06
753.93	242.88
754.26	242.73
754.59	242.48
754.91	242.27
755.24	242.08
755.57	241.88
755.90	241.70
756.22	241.54
756.55	241.30
756.88	241.13
757.20	240.92
757.53	240.73
757.86	240.58
758.19	240.43
758.51	240.26
758.84	240.02
759.17	239.84
759.49	239.69
759.82	239.57
760.15	239.47
760.47	239.32
760.80	239.12
761.13	238.97
761.45	238.80
761.78	238.66
762.11	238.53
762.43	238.39
762.76	238.26
763.08	238.10
763.41	238.03
763.74	237.89
764.06	237.72
764.39	237.57
764.71	237.42
765.04	237.30
765.37	237.19
765.69	237.12
766.02	237.01
766.34	236.88
766.67	236.70
767.00	236.57
767.32	236.50
767.65	236.44
767.97	236.30
768.30	236.19
768.62	236.09
768.95	235.96
769.27	235.83
769.60	235.74
769.92	235.63
770.25	235.46
770.57	235.30
770.90	235.23
771.22	235.12
771.55	235.02
771.87	234.92
772.20	234.83
772.52	234.81
772.85	234.79
773.17	234.69
773.50	234.60
773.82	234.49
774.15	234.34
774.47	234.19
774.80	234.12
775.12	234.05
775.45	233.94
775.77	233.84
776.09	233.75
776.42	233.67
776.74	233.59
777.07	233.50
777.39	233.46
777.72	233.36
778.04	233.31
778.36	233.23
778.69	233.19
779.01	233.12
779.33	232.96
779.66	232.77
779.98	232.70
780.31	232.66
780.63	232.63
780.95	232.61
781.28	232.55
781.60	232.46
781.92	232.41
782.25	232.36
782.57	232.33
782.89	232.29
783.22	232.21
783.54	232.15
783.86	232.11
784.19	232.05
784.51	232.02
784.83	231.98
785.16	231.96
785.48	231.89
785.80	231.81
786.12	231.76
786.45	231.73
786.77	231.69
787.09	231.64
787.42	231.58
787.74	231.53
788.06	231.49
788.38	231.46
788.71	231.40
789.03	231.38
789.35	231.33
789.67	231.31
789.99	231.26
790.32	231.23
790.64	231.19
790.96	231.23
791.28	231.18
791.61	231.10
791.93	231.06
792.25	230.99
792.57	231.01
792.89	230.95
793.21	230.92
793.54	230.85
793.86	230.79
794.18	230.73
794.50	230.66
794.82	230.63
795.14	230.60
795.47	230.56
795.79	230.52
796.11	230.47
796.43	230.40
796.75	230.38
797.07	230.35
797.39	230.31
797.71	230.22
798.04	230.15
798.36	230.14
798.68	230.09
799.00	230.06
799.32	230.00
799.64	229.98
799.96	229.95
800.28	229.96
800.60	229.95
800.92	229.91
801.24	229.88
801.56	229.88
801.89	229.83
802.21	229.82
802.53	229.75
802.85	229.73
803.17	229.76
803.49	229.71
803.81	229.66
804.13	229.65
804.45	229.58
804.77	229.57
805.09	229.56
805.41	229.50
805.73	229.47
806.05	229.41
806.37	229.38
806.69	229.34
807.01	229.32
807.33	229.27
807.65	229.22
807.97	229.22
808.28	229.18
808.60	229.14
808.92	229.12
809.24	229.17
809.56	229.12
809.88	229.06
810.20	229.04
810.52	229.04
810.84	228.98
811.16	228.96
811.48	228.90
811.80	228.90
812.12	228.87
812.43	228.88
812.75	228.87
813.07	228.82
813.39	228.83
813.71	228.78
814.03	228.75
814.35	228.73
814.67	228.66
814.98	228.63
815.30	228.63
815.62	228.60
815.94	228.53
816.26	228.56
816.58	228.50
816.89	228.52
817.21	228.49
817.53	228.47
817.85	228.45
818.17	228.42
818.48	228.36
818.80	228.38
819.12	228.33
819.44	228.30
819.76	228.30
820.07	228.28
820.39	228.27
820.71	228.26
821.03	228.22
821.34	228.20
821.66	228.22
821.98	228.19
822.30	228.16
822.61	228.18
822.93	228.13
823.25	228.14
823.57	228.12
823.88	228.10
824.20	228.08
824.52	228.13
824.83	228.12
825.15	228.14
825.47	228.13
825.79	228.14
826.10	228.13
826.42	228.11
826.74	228.10
827.05	228.09
827.37	228.05
827.69	228.07
828.00	228.08
828.32	228.05
828.64	228.07
828.95	228.12
829.27	228.09
829.58	228.06
829.90	228.05
830.22	228.01
830.53	228.01
830.85	228.04
831.17	227.96
831.48	227.97
831.80	227.94
832.11	227.94
832.43	227.92
832.75	227.92
833.06	227.98
833.38	227.93
833.69	227.92
834.01	227.96
834.32	227.92
834.64	227.90
834.96	227.89
835.27	227.88
835.59	227.82
835.90	227.81
836.22	227.81
836.53	227.79
836.85	227.78
837.16	227.86
837.48	227.84
837.79	227.86
838.11	227.83
838.42	227.81
838.74	227.81
839.05	227.78
839.37	227.76
839.68	227.67
840.00	227.68
840.31	227.68
840.63	227.63
840.94	227.63
841.26	227.63
841.57	227.60
841.88	227.59
842.20	227.58
842.51	227.57
842.83	227.55
843.14	227.62
843.46	227.61
843.77	227.52
844.08	227.49
844.40	227.46
844.71	227.46
845.03	227.46
845.34	227.41
845.65	227.41
845.97	227.40
846.28	227.41
846.60	227.44
846.91	227.41
847.22	227.39
847.54	227.42
847.85	227.42
848.16	227.41
848.48	227.40
848.79	227.43
849.10	227.43
849.42	227.47
849.73	227.39
850.04	227.40
850.36	227.41
850.67	227.42
850.98	227.45
851.30	227.45
851.61	227.41
851.92	227.44
852.23	227.47
852.55	227.47
852.86	227.44
853.17	227.39
853.49	227.39
853.80	227.40
854.11	227.41
854.42	227.42
854.74	227.39
855.05	227.38
855.36	227.31
855.67	227.30
855.99	227.27
856.30	227.36
856.61	227.38
856.92	227.36
857.23	227.35
857.55	227.32
857.86	227.30
858.17	227.33
858.48	227.31
858.79	227.31
859.11	227.31
859.42	227.31
859.73	227.29
860.04	227.32
860.35	227.32
860.66	227.32
860.98	227.32
861.29	227.32
861.60	227.33
861.91	227.39
862.22	227.37
862.53	227.36
862.84	227.25
863.16	227.25
863.47	227.22
863.78	227.22
864.09	227.24
864.40	227.25
864.71	227.24
865.02	227.25
865.33	227.23
865.64	227.22
865.95	227.24
866.27	227.34
866.58	227.33
866.89	227.31
867.20	227.29
867.51	227.28
867.82	227.28
868.13	227.26
868.44	227.26
868.75	227.27
869.06	227.26
869.37	227.23
869.68	227.20
869.99	227.26
870.30	227.27
870.61	227.28
870.92	227.25
871.23	227.26
871.54	227.28
871.85	227.31
872.16	227.32
872.47	227.32
872.78	227.27
873.09	227.25
873.40	227.24
873.71	227.24
874.02	227.22
874.33	227.22
874.64	227.23
874.95	227.22
875.26	227.24
875.56	227.26
875.87	227.29
876.18	227.28
876.49	227.32
876.80	227.33
877.11	227.27
877.42	227.32
877.73	227.31
878.04	227.28
878.35	227.28
878.66	227.24
878.96	227.25
879.27	227.21
879.58	227.21
879.89	227.23
880.20	227.26
880.51	227.27
880.82	227.28
881.12	227.26
881.43	227.25
881.74	227.22
882.05	227.24
882.36	227.26
882.67	227.27
882.97	227.18
883.28	227.15
883.59	227.16
883.90	227.14
884.21	227.16
884.51	227.14
884.82	227.11
885.13	227.12
885.44	227.09
885.74	227.09
886.05	227.08
886.36	227.08
886.67	227.05
886.98	227.09
887.28	227.08
887.59	227.11
887.90	227.11
888.20	227.12
888.51	227.08
888.82	227.06
889.13	227.01
889.43	227.10
889.74	227.11
890.05	227.10
890.35	227.09
890.66	227.07
890.97	227.06
891.28	227.06
891.58	227.06
891.89	227.07
892.20	227.09
892.50	227.08
892.81	227.07
893.12	227.07
893.42	227.02
893.73	227.02
894.04	227.03
894.34	227.03
894.65	227.02
894.95	227.04
895.26	227.03
895.57	227.11
895.87	227.00
896.18	227.00
896.48	227.01
896.79	227.01
897.10	227.02
897.40	227.04
897.71	227.05
898.01	227.03
898.32	227.04
898.63	226.99
898.93	226.99
899.24	227.00
899.54	226.99
899.85	226.97
900.15	226.98
900.46	226.95
900.76	226.95
901.07	226.94
901.38	226.92
901.68	226.93
901.99	226.88
902.29	226.88
902.60	226.88
902.90	226.92
903.21	226.91
903.51	226.91
903.82	226.93
904.12	226.93
904.43	226.95
904.73	226.94
905.03	226.95
905.34	227.07
905.64	227.06
905.95	227.04
906.25	227.04
906.56	227.00
906.86	227.02
907.17	226.99
907.47	227.01
907.77	227.00
908.08	227.00
908.38	227.01
908.69	227.05
908.99	227.09
909.30	227.06
909.60	227.01
909.90	227.01
910.21	226.98
910.51	226.96
910.81	226.97
911.12	226.99
911.42	227.00
911.73	226.91
912.03	226.92
912.33	226.95
912.64	226.94
912.94	226.96
913.24	226.95
913.55	226.95
913.85	226.91
914.15	226.95
914.46	226.96
914.76	226.94
915.06	226.90
915.37	226.88
915.67	226.89
915.97	226.95
916.27	226.95
916.58	226.95
916.88	226.94
917.18	226.90
917.49	226.95
917.79	226.93
918.09	226.93
918.39	226.94
918.70	226.95
919.00	226.98
919.30	227.01
919.60	227.02
919.91	227.02
920.21	227.03
920.51	227.00
920.81	227.02
921.12	227.02
921.42	227.01
921.72	226.99
922.02	226.97
922.32	226.94
922.63	226.95
922.93	227.00
923.23	227.01
923.53	227.01
923.83	226.95
924.13	226.96
924.44	226.95
924.74	226.98
925.04	226.97
925.34	226.99
925.64	226.94
925.94	226.90
926.24	226.93
926.55	226.94
926.85	226.96
927.15	226.90
927.45	226.90
927.75	226.90
928.05	226.92
928.35	226.92
928.65	226.95
928.95	226.97
929.26	226.92
929.56	226.94
929.86	226.95
930.16	226.95
930.46	226.95
930.76	226.95
931.06	226.88
931.36	226.86
931.66	226.86
931.96	226.87
932.26	226.91
932.56	226.88
932.86	226.90
933.16	226.89
933.46	226.89
933.76	226.88
934.06	226.91
934.36	226.94
934.66	226.93
934.96	226.92
935.26	226.93
935.56	226.92
935.86	226.87
936.16	226.85
936.46	226.81
936.76	226.77
937.06	226.76
937.36	226.80
937.66	226.82
937.96	226.80
938.26	226.81
938.56	226.80
938.86	226.80
939.16	226.80
939.46	226.81
939.76	226.82
940.06	226.83
940.35	226.81
940.65	226.78
940.95	226.78
941.25	226.73
941.55	226.70
941.85	226.72
942.15	226.79
942.45	226.83
942.75	226.86
943.04	226.87
943.34	226.87
943.64	226.86
943.94	226.83
944.24	226.83
944.54	226.82
944.84	226.82
945.13	226.80
945.43	226.77
945.73	226.76
946.03	226.75
946.33	226.73
946.62	226.74
946.92	226.74
947.22	226.77
947.52	226.80
947.82	226.81
948.11	226.81
948.41	226.76
948.71	226.75
949.01	226.75
949.31	226.76
949.60	226.76
949.90	226.76
950.20	226.74
950.50	226.72
950.79	226.70
951.09	226.69
951.39	226.69
951.69	226.70
951.98	226.69
952.28	226.71
952.58	226.68
952.87	226.66
953.17	226.67
953.47	226.66
953.76	226.65
954.06	226.62
954.36	226.61
954.66	226.62
954.95	226.65
955.25	226.66
955.55	226.67
955.84	226.65
956.14	226.68
956.44	226.67
956.73	226.66
957.03	226.67
957.32	226.70
957.62	226.69
957.92	226.72
958.21	226.72
958.51	226.83
958.81	226.86
959.10	226.85
959.40	226.88
959.69	226.85
959.99	226.87
960.29	226.90
960.58	226.91
960.88	226.94
961.17	226.92
961.47	226.94
961.76	226.91
962.06	226.96
962.36	226.94
962.65	226.98
962.95	226.99
963.24	226.98
963.54	226.94
963.83	226.94
964.13	226.96
964.42	226.92
964.72	226.86
965.01	226.88
965.31	226.88
965.60	226.85
965.90	226.92
966.19	226.88
966.49	226.88
966.78	226.84
967.08	226.82
967.37	226.81
967.67	226.78
967.96	226.79
968.26	226.78
968.55	226.76
968.85	226.78
969.14	226.81
969.43	226.80
969.73	226.81
970.02	226.85
970.32	226.81
970.61	226.84
970.91	226.77
971.20	226.74
971.49	226.72
971.79	226.71
972.08	226.64
972.38	226.66
972.67	226.66
972.96	226.67
973.26	226.62
973.55	226.65
973.85	226.65
974.14	226.66
974.43	226.64
974.73	226.65
975.02	226.62
975.31	226.58
975.61	226.59
975.90	226.57
976.19	226.54
976.49	226.51
976.78	226.49
977.07	226.52
977.37	226.53
977.66	226.55
977.95	226.55
978.24	226.55
978.54	226.56
978.83	226.53
979.12	226.50
979.42	226.54
979.71	226.50
980.00	226.49
980.29	226.49
980.59	226.45
980.88	226.47
981.17	226.46
981.46	226.49
981.76	226.48
982.05	226.50
982.34	226.50
982.63	226.54
982.93	226.57
983.22	226.57
983.51	226.59
983.80	226.59
984.09	226.63
984.39	226.64
984.68	226.64
984.97	226.69
985.26	226.73
985.55	226.75
985.85	226.75
986.14	226.80
986.43	226.84
986.72	226.85
987.01	226.81
987.30	226.82
987.59	226.82
987.89	226.84
988.18	226.82
988.47	226.85
988.76	226.83
989.05	226.83
989.34	226.81
989.63	226.83
989.92	226.85
990.22	226.80
990.51	226.81
990.80	226.78
991.09	226.75
991.38	226.75
991.67	226.73
991.96	226.73
992.25	226.71
992.54	226.67
992.83	226.70
993.12	226.72
993.41	226.76
993.70	226.78
993.99	226.79
994.28	226.82
994.58	226.83
994.87	226.84
995.16	226.82
995.45	226.80
995.74	226.78
996.03	226.78
996.32	226.80
996.61	226.80
996.90	226.82
997.19	226.83
997.48	226.85
997.77	226.86
998.06	226.85
998.34	226.83
998.63	226.86
998.92	226.86
999.21	226.89
999.50	226.87
999.79	226.82
1000.08	226.82
1000.37	226.80
1000.66	226.75
1000.95	226.77
1001.24	226.78
1001.53	226.81
1001.82	226.79
1002.11	226.75
1002.40	226.76
1002.68	226.78
1002.97	226.83
1003.26	226.80
1003.55	226.78
1003.84	226.75
1004.13	226.78
1004.42	226.79
1004.71	226.76
1004.99	226.70
1005.28	226.72
1005.57	226.70
1005.86	226.71
1006.15	226.68
1006.44	226.65
1006.72	226.65
1007.01	226.64
1007.30	226.59
1007.59	226.57
1007.88	226.55
1008.17	226.55
1008.45	226.51
1008.74	226.44
1009.03	226.37
1009.32	226.40
1009.60	226.40
1009.89	226.39
1010.18	226.36
1010.47	226.35
1010.76	226.35
1011.04	226.38
1011.33	226.30
1011.62	226.31
1011.91	226.32
1012.19	226.33
1012.48	226.35
1012.77	226.36
1013.05	226.39
1013.34	226.41
1013.63	226.42
1013.92	226.43
1014.20	226.47
1014.49	226.49
1014.78	226.51
1015.06	226.49
1015.35	226.49
1015.64	226.49
1015.92	226.51
1016.21	226.50
1016.50	226.50
1016.78	226.49
1017.07	226.50
1017.36	226.53
1017.64	226.49
1017.93	226.47
1018.22	226.46
1018.50	226.47
1018.79	226.46
1019.08	226.43
1019.36	226.45
1019.65	226.41
1019.93	226.46
1020.22	226.45
1020.51	226.50
1020.79	226.51
1021.08	226.35
1021.36	226.89
1021.65	226.24
1021.94	226.70
1022.22	226.50
1022.51	225.95
1022.79	227.11
1023.08	226.64
1023.36	227.53
1023.65	226.55
>>>>>End Processed Spectral Data<<<<<
