SpectraSuite Data File
++++++++++++++++++++++++++++++++++++
Date: Fri Feb 01 17:35:49 EST 2013
User: group
Dark Spectrum Present: No
Reference Spectrum Present: No
Number of Sampled Component Spectra: 1
Spectrometers: USB2E7196
Integration Time (usec): 35000 (USB2E7196)
Spectra Averaged: 100 (USB2E7196)
Boxcar Smoothing: 10 (USB2E7196)
Correct for Electrical Dark: No (USB2E7196)
Strobe/Lamp Enabled: No (USB2E7196)
Correct for Detector Non-linearity: No (USB2E7196)
Correct for Stray Light: No (USB2E7196)
Number of Pixels in Processed Spectrum: 2048
>>>>>Begin Processed Spectral Data<<<<<
339.09	0.00
339.48	212.94
339.86	214.86
340.24	215.36
340.63	216.97
341.01	219.89
341.39	220.73
341.78	221.56
342.16	222.07
342.54	222.80
342.93	211.44
343.31	222.09
343.69	222.62
344.07	223.07
344.46	223.52
344.84	223.89
345.22	224.13
345.60	224.33
345.99	224.48
346.37	224.64
346.75	224.74
347.13	224.83
347.52	224.90
347.90	224.97
348.28	224.97
348.66	225.00
349.05	224.95
349.43	224.96
349.81	224.99
350.19	225.00
350.57	225.05
350.96	225.12
351.34	225.20
351.72	225.29
352.10	225.37
352.48	225.44
352.87	225.51
353.25	225.58
353.63	225.65
354.01	225.73
354.39	225.80
354.77	225.87
355.15	225.95
355.54	226.00
355.92	226.03
356.30	226.11
356.68	226.26
357.06	226.36
357.44	226.44
357.82	226.50
358.20	226.60
358.58	226.69
358.97	226.74
359.35	226.87
359.73	226.93
360.11	227.01
360.49	227.08
360.87	227.16
361.25	227.21
361.63	227.30
362.01	227.34
362.39	227.42
362.77	227.50
363.15	227.55
363.53	227.61
363.91	227.63
364.29	227.69
364.67	227.63
365.05	227.63
365.43	227.68
365.81	227.72
366.19	227.75
366.57	227.78
366.95	227.79
367.33	227.76
367.71	227.77
368.09	227.78
368.47	227.75
368.85	227.73
369.23	227.76
369.61	227.72
369.99	227.74
370.37	227.72
370.75	227.71
371.13	227.67
371.51	227.61
371.89	227.62
372.27	227.57
372.65	227.51
373.03	227.46
373.41	227.40
373.78	227.35
374.16	227.27
374.54	227.18
374.92	227.14
375.30	227.09
375.68	227.02
376.06	226.94
376.44	226.88
376.82	226.82
377.19	226.75
377.57	226.68
377.95	226.58
378.33	226.48
378.71	226.39
379.09	226.33
379.47	226.28
379.84	226.20
380.22	226.13
380.60	226.05
380.98	226.00
381.36	225.95
381.73	225.90
382.11	225.85
382.49	225.78
382.87	225.71
383.25	225.62
383.62	225.67
384.00	225.59
384.38	225.52
384.76	225.47
385.13	225.44
385.51	225.33
385.89	225.29
386.27	225.24
386.64	225.17
387.02	225.11
387.40	225.06
387.78	225.01
388.15	224.98
388.53	224.98
388.91	224.97
389.29	224.93
389.66	224.91
390.04	224.88
390.42	224.86
390.79	224.84
391.17	224.83
391.55	224.70
391.92	224.72
392.30	224.74
392.68	224.72
393.05	224.71
393.43	224.75
393.81	224.76
394.18	224.76
394.56	224.75
394.94	224.79
395.31	224.76
395.69	224.80
396.06	224.82
396.44	224.83
396.82	224.84
397.19	224.90
397.57	224.94
397.95	225.01
398.32	225.02
398.70	225.06
399.07	225.13
399.45	225.17
399.82	225.18
400.20	225.21
400.58	225.27
400.95	225.27
401.33	225.36
401.70	225.47
402.08	225.51
402.45	225.60
402.83	225.71
403.20	225.82
403.58	225.91
403.95	226.04
404.33	226.15
404.71	226.27
405.08	226.44
405.46	226.54
405.83	226.64
406.21	226.81
406.58	227.00
406.96	227.15
407.33	227.34
407.70	227.53
408.08	227.81
408.45	228.04
408.83	228.28
409.20	228.50
409.58	228.70
409.95	229.00
410.33	229.28
410.70	229.52
411.08	229.86
411.45	230.18
411.82	230.49
412.20	230.89
412.57	231.30
412.95	231.60
413.32	232.03
413.69	232.46
414.07	232.91
414.44	233.39
414.82	233.91
415.19	234.48
415.56	235.06
415.94	235.64
416.31	236.31
416.68	236.98
417.06	237.73
417.43	238.41
417.81	239.20
418.18	240.02
418.55	240.91
418.93	241.82
419.30	242.78
419.67	243.75
420.04	244.71
420.42	245.75
420.79	246.99
421.16	248.18
421.54	249.40
421.91	250.71
422.28	252.01
422.66	253.40
423.03	254.75
423.40	256.16
423.77	257.64
424.15	259.10
424.52	260.65
424.89	262.32
425.26	263.98
425.64	265.52
426.01	267.21
426.38	268.94
426.75	270.68
427.13	272.47
427.50	274.37
427.87	276.38
428.24	278.31
428.61	280.10
428.99	282.16
429.36	284.36
429.73	286.48
430.10	288.58
430.47	290.69
430.85	292.92
431.22	295.28
431.59	297.73
431.96	300.11
432.33	302.67
432.70	305.17
433.08	308.08
433.45	310.80
433.82	313.47
434.19	316.48
434.56	319.43
434.93	322.20
435.30	324.93
435.68	327.89
436.05	330.85
436.42	333.77
436.79	336.41
437.16	339.21
437.53	342.19
437.90	345.13
438.27	347.96
438.64	350.90
439.01	353.59
439.38	355.91
439.75	358.17
440.13	360.78
440.50	363.19
440.87	365.07
441.24	367.11
441.61	369.38
441.98	370.91
442.35	372.78
442.72	374.69
443.09	376.58
443.46	377.65
443.83	378.30
444.20	378.83
444.57	379.69
444.94	379.99
445.31	380.34
445.68	380.70
446.05	380.86
446.42	380.45
446.79	379.99
447.16	379.55
447.53	379.19
447.90	378.00
448.27	376.76
448.64	375.15
449.01	373.96
449.37	371.91
449.74	369.96
450.11	367.60
450.48	365.03
450.85	362.39
451.22	360.17
451.59	358.03
451.96	356.04
452.33	353.30
452.70	350.87
453.07	347.90
453.43	344.87
453.80	341.98
454.17	339.18
454.54	336.56
454.91	333.68
455.28	330.92
455.65	328.35
456.02	325.85
456.38	323.62
456.75	320.87
457.12	318.53
457.49	316.19
457.86	313.94
458.23	312.00
458.59	309.87
458.96	307.67
459.33	305.73
459.70	303.77
460.07	302.20
460.43	300.43
460.80	298.76
461.17	297.26
461.54	295.69
461.91	294.26
462.27	292.74
462.64	291.44
463.01	290.01
463.38	288.63
463.74	287.18
464.11	285.96
464.48	284.84
464.85	283.70
465.21	282.80
465.58	281.86
465.95	280.75
466.32	279.81
466.68	278.90
467.05	277.96
467.42	277.07
467.78	276.11
468.15	275.20
468.52	274.50
468.88	273.61
469.25	272.81
469.62	272.14
469.98	271.44
470.35	270.83
470.72	270.23
471.08	269.59
471.45	269.04
471.82	268.47
472.18	267.86
472.55	267.41
472.92	266.90
473.28	266.39
473.65	265.93
474.02	265.51
474.38	265.10
474.75	264.76
475.11	264.35
475.48	264.11
475.85	263.85
476.21	263.60
476.58	263.40
476.94	263.27
477.31	263.10
477.67	262.97
478.04	262.84
478.41	262.74
478.77	262.78
479.14	262.73
479.50	262.75
479.87	262.85
480.23	262.90
480.60	262.94
480.96	263.05
481.33	263.27
481.69	263.42
482.06	263.64
482.42	263.88
482.79	264.16
483.15	264.45
483.52	264.88
483.88	265.21
484.25	265.61
484.61	265.98
484.98	266.44
485.34	266.98
485.71	267.62
486.07	268.21
486.44	268.73
486.80	269.42
487.17	270.14
487.53	270.96
487.90	271.80
488.26	272.72
488.62	273.68
488.99	274.62
489.35	275.65
489.72	276.77
490.08	277.96
490.44	279.15
490.81	280.45
491.17	281.77
491.54	283.23
491.90	284.75
492.26	286.40
492.63	288.07
492.99	289.84
493.36	291.67
493.72	293.72
494.08	295.81
494.45	298.01
494.81	300.35
495.17	302.75
495.54	305.29
495.90	307.94
496.26	310.71
496.63	313.65
496.99	316.77
497.35	319.97
497.72	323.37
498.08	326.87
498.44	330.50
498.80	334.41
499.17	338.43
499.53	342.56
499.89	346.87
500.26	351.32
500.62	355.90
500.98	360.81
501.34	365.79
501.71	371.05
502.07	376.40
502.43	381.95
502.79	387.66
503.16	393.63
503.52	399.83
503.88	406.18
504.24	412.68
504.60	419.39
504.97	426.42
505.33	433.48
505.69	441.10
506.05	448.74
506.41	456.44
506.78	464.45
507.14	472.72
507.50	481.25
507.86	490.07
508.22	499.09
508.59	508.08
508.95	517.50
509.31	527.10
509.67	536.98
510.03	546.98
510.39	557.29
510.75	567.78
511.12	578.41
511.48	589.32
511.84	600.51
512.20	611.76
512.56	623.37
512.92	635.23
513.28	647.20
513.64	659.30
514.00	671.62
514.37	684.20
514.73	696.86
515.09	709.53
515.45	722.45
515.81	735.67
516.17	749.29
516.53	763.02
516.89	776.78
517.25	790.56
517.61	804.59
517.97	818.77
518.33	832.88
518.69	847.24
519.05	861.87
519.41	876.57
519.77	891.56
520.13	906.53
520.49	921.53
520.85	936.45
521.21	951.63
521.57	967.37
521.93	982.64
522.29	998.51
522.65	1014.27
523.01	1029.93
523.37	1045.49
523.73	1061.02
524.09	1076.52
524.45	1092.33
524.81	1108.46
525.17	1124.70
525.53	1140.94
525.89	1157.25
526.25	1173.57
526.61	1189.40
526.97	1205.62
527.33	1221.73
527.68	1237.71
528.04	1253.64
528.40	1269.56
528.76	1286.19
529.12	1302.31
529.48	1318.71
529.84	1334.18
530.20	1350.38
530.56	1366.84
530.91	1383.58
531.27	1399.94
531.63	1415.98
531.99	1431.99
532.35	1447.58
532.71	1463.11
533.07	1478.87
533.42	1494.38
533.78	1510.00
534.14	1525.87
534.50	1540.77
534.86	1556.07
535.21	1570.95
535.57	1586.44
535.93	1601.62
536.29	1616.00
536.65	1630.63
537.00	1644.96
537.36	1660.01
537.72	1673.96
538.08	1688.08
538.44	1701.81
538.79	1715.40
539.15	1728.66
539.51	1742.08
539.87	1755.98
540.22	1769.34
540.58	1782.84
540.94	1795.75
541.29	1808.30
541.65	1820.75
542.01	1833.82
542.37	1846.01
542.72	1858.26
543.08	1870.02
543.44	1882.38
543.79	1893.70
544.15	1904.77
544.51	1916.34
544.87	1927.12
545.22	1938.18
545.58	1948.52
545.94	1958.22
546.29	1968.02
546.65	1978.14
547.01	1987.55
547.36	1996.46
547.72	2004.99
548.07	2013.15
548.43	2021.55
548.79	2029.61
549.14	2037.46
549.50	2044.92
549.86	2052.69
550.21	2060.26
550.57	2067.65
550.92	2074.48
551.28	2081.63
551.64	2088.89
551.99	2095.56
552.35	2102.03
552.70	2108.34
553.06	2114.61
553.41	2121.12
553.77	2127.38
554.13	2133.53
554.48	2139.85
554.84	2145.81
555.19	2151.46
555.55	2156.88
555.90	2161.65
556.26	2167.11
556.61	2171.93
556.97	2176.86
557.32	2181.37
557.68	2185.80
558.03	2190.26
558.39	2194.29
558.74	2199.22
559.10	2203.31
559.45	2207.47
559.81	2212.13
560.16	2216.36
560.52	2219.88
560.87	2223.63
561.23	2226.72
561.58	2229.85
561.94	2232.89
562.29	2235.48
562.64	2238.68
563.00	2241.55
563.35	2245.44
563.71	2248.91
564.06	2252.41
564.42	2255.42
564.77	2258.49
565.12	2261.30
565.48	2263.83
565.83	2266.13
566.19	2268.06
566.54	2269.37
566.89	2271.00
567.25	2272.23
567.60	2273.83
567.96	2276.12
568.31	2277.56
568.66	2279.27
569.02	2280.51
569.37	2281.37
569.72	2282.77
570.08	2283.52
570.43	2284.05
570.78	2284.06
571.14	2282.97
571.49	2282.09
571.84	2282.05
572.20	2281.27
572.55	2280.54
572.90	2279.24
573.26	2278.35
573.61	2276.84
573.96	2275.75
574.31	2273.06
574.67	2270.44
575.02	2267.37
575.37	2264.19
575.72	2260.90
576.08	2257.78
576.43	2254.73
576.78	2251.39
577.13	2248.39
577.49	2245.33
577.84	2242.40
578.19	2238.92
578.54	2235.66
578.90	2232.19
579.25	2227.10
579.60	2222.76
579.95	2218.25
580.30	2213.59
580.66	2208.78
581.01	2204.14
581.36	2199.47
581.71	2195.73
582.06	2191.77
582.42	2187.80
582.77	2182.97
583.12	2178.83
583.47	2174.73
583.82	2170.27
584.17	2165.37
584.53	2160.23
584.88	2155.03
585.23	2149.52
585.58	2144.34
585.93	2139.26
586.28	2134.31
586.63	2129.72
586.98	2124.80
587.34	2120.26
587.69	2115.63
588.04	2110.71
588.39	2105.50
588.74	2099.18
589.09	2093.39
589.44	2086.85
589.79	2080.67
590.14	2075.26
590.49	2068.81
590.84	2062.40
591.19	2056.66
591.54	2050.43
591.89	2043.43
592.25	2036.95
592.60	2029.92
592.95	2022.76
593.30	2015.70
593.65	2008.30
594.00	2001.35
594.35	1994.24
594.70	1986.32
595.05	1979.54
595.40	1972.31
595.75	1964.89
596.10	1959.09
596.45	1952.52
596.80	1946.39
597.15	1940.16
597.50	1933.53
597.85	1927.12
598.19	1920.71
598.54	1913.99
598.89	1907.50
599.24	1901.67
599.59	1895.29
599.94	1889.02
600.29	1882.66
600.64	1875.93
600.99	1868.95
601.34	1862.26
601.69	1855.31
602.04	1848.78
602.39	1841.43
602.74	1834.81
603.08	1828.27
603.43	1821.60
603.78	1814.29
604.13	1807.10
604.48	1799.97
604.83	1793.10
605.18	1786.50
605.53	1778.70
605.87	1770.57
606.22	1763.37
606.57	1755.47
606.92	1747.90
607.27	1741.01
607.62	1734.14
607.96	1727.10
608.31	1720.66
608.66	1713.15
609.01	1705.75
609.36	1698.18
609.70	1690.26
610.05	1682.35
610.40	1674.69
610.75	1666.42
611.10	1658.70
611.44	1650.25
611.79	1642.24
612.14	1633.61
612.49	1624.37
612.83	1615.85
613.18	1607.67
613.53	1599.57
613.88	1591.00
614.22	1582.71
614.57	1573.97
614.92	1565.90
615.27	1558.49
615.61	1550.13
615.96	1542.02
616.31	1534.34
616.65	1526.88
617.00	1519.27
617.35	1511.46
617.70	1503.08
618.04	1494.53
618.39	1486.31
618.74	1478.80
619.08	1470.32
619.43	1462.45
619.78	1455.37
620.12	1448.17
620.47	1440.52
620.82	1432.22
621.16	1424.63
621.51	1416.94
621.85	1409.15
622.20	1400.68
622.55	1392.13
622.89	1384.02
623.24	1376.21
623.59	1368.64
623.93	1361.08
624.28	1353.71
624.62	1346.02
624.97	1338.77
625.32	1331.78
625.66	1324.61
626.01	1317.30
626.35	1309.91
626.70	1302.08
627.04	1294.26
627.39	1286.34
627.73	1278.79
628.08	1271.85
628.43	1264.75
628.77	1257.54
629.12	1249.98
629.46	1242.74
629.81	1235.00
630.15	1227.72
630.50	1220.34
630.84	1212.17
631.19	1204.04
631.53	1196.38
631.88	1188.63
632.22	1181.05
632.57	1173.67
632.91	1166.12
633.26	1158.71
633.60	1151.12
633.95	1143.86
634.29	1136.61
634.64	1129.76
634.98	1122.40
635.32	1115.23
635.67	1108.36
636.01	1101.48
636.36	1094.68
636.70	1087.91
637.05	1081.36
637.39	1074.77
637.73	1068.34
638.08	1062.28
638.42	1056.30
638.77	1049.85
639.11	1043.40
639.45	1036.81
639.80	1030.09
640.14	1023.62
640.49	1016.96
640.83	1010.69
641.17	1004.57
641.52	998.32
641.86	991.84
642.20	985.93
642.55	979.45
642.89	972.91
643.23	966.22
643.58	960.39
643.92	954.31
644.26	948.33
644.61	942.23
644.95	936.05
645.29	929.62
645.64	922.85
645.98	916.46
646.32	910.41
646.66	904.37
647.01	898.55
647.35	892.81
647.69	886.94
648.04	881.31
648.38	875.54
648.72	869.61
649.06	863.60
649.41	857.70
649.75	851.87
650.09	845.94
650.43	840.25
650.78	834.09
651.12	828.11
651.46	822.33
651.80	816.73
652.14	811.29
652.49	805.86
652.83	800.66
653.17	795.08
653.51	789.54
653.85	784.07
654.20	778.46
654.54	772.37
654.88	766.62
655.22	760.72
655.56	754.83
655.90	749.18
656.25	743.96
656.59	738.58
656.93	733.39
657.27	728.35
657.61	722.85
657.95	717.72
658.29	712.60
658.64	707.27
658.98	701.82
659.32	696.28
659.66	691.05
660.00	685.78
660.34	680.78
660.68	675.75
661.02	670.69
661.36	666.06
661.70	661.59
662.05	657.27
662.39	652.95
662.73	648.53
663.07	644.20
663.41	639.74
663.75	635.28
664.09	630.69
664.43	626.19
664.77	622.08
665.11	617.83
665.45	613.64
665.79	609.59
666.13	605.56
666.47	601.48
666.81	597.31
667.15	593.14
667.49	589.13
667.83	585.20
668.17	581.23
668.51	577.12
668.85	573.04
669.19	569.09
669.53	565.32
669.87	561.49
670.21	557.78
670.55	554.09
670.89	550.67
671.23	547.19
671.57	543.67
671.91	540.20
672.25	536.63
672.58	533.11
672.92	529.66
673.26	526.43
673.60	523.29
673.94	520.16
674.28	517.18
674.62	514.25
674.96	511.18
675.30	508.25
675.64	505.29
675.97	502.45
676.31	499.57
676.65	496.57
676.99	493.80
677.33	490.91
677.67	488.13
678.01	485.00
678.34	482.08
678.68	479.16
679.02	476.26
679.36	473.49
679.70	470.76
680.04	467.97
680.37	465.11
680.71	462.28
681.05	459.60
681.39	456.87
681.73	454.22
682.06	451.65
682.40	449.14
682.74	446.59
683.08	444.03
683.42	441.40
683.75	438.87
684.09	436.27
684.43	433.80
684.77	431.26
685.10	428.91
685.44	426.56
685.78	424.29
686.12	422.03
686.45	419.71
686.79	417.35
687.13	415.17
687.46	412.94
687.80	410.75
688.14	408.47
688.48	406.39
688.81	404.18
689.15	402.04
689.49	399.83
689.82	397.70
690.16	395.59
690.50	393.61
690.83	391.65
691.17	389.67
691.51	387.72
691.84	385.87
692.18	383.97
692.52	381.99
692.85	379.97
693.19	378.01
693.52	376.19
693.86	374.37
694.20	372.55
694.53	370.71
694.87	368.84
695.21	367.11
695.54	365.24
695.88	363.45
696.21	361.69
696.55	360.01
696.88	358.31
697.22	356.67
697.56	354.95
697.89	353.32
698.23	351.70
698.56	350.06
698.90	348.46
699.23	346.78
699.57	345.24
699.90	343.72
700.24	342.19
700.58	340.64
700.91	339.21
701.25	337.75
701.58	336.41
701.92	335.03
702.25	333.57
702.59	332.23
702.92	330.90
703.26	329.58
703.59	328.28
703.93	327.08
704.26	325.82
704.60	324.59
704.93	323.29
705.26	322.06
705.60	320.85
705.93	319.68
706.27	318.63
706.60	317.52
706.94	316.42
707.27	315.27
707.61	314.16
707.94	313.05
708.27	311.94
708.61	310.79
708.94	309.78
709.28	308.82
709.61	307.83
709.94	306.86
710.28	305.80
710.61	304.76
710.95	303.65
711.28	302.69
711.61	301.69
711.95	300.80
712.28	299.81
712.61	298.80
712.95	297.82
713.28	296.89
713.61	295.97
713.95	295.03
714.28	294.20
714.61	293.32
714.95	292.43
715.28	291.52
715.61	290.66
715.95	289.79
716.28	288.88
716.61	288.01
716.95	287.16
717.28	286.42
717.61	285.66
717.94	284.87
718.28	284.07
718.61	283.30
718.94	282.53
719.27	281.86
719.61	281.23
719.94	280.54
720.27	279.80
720.60	279.12
720.94	278.46
721.27	277.86
721.60	277.29
721.93	276.72
722.27	276.17
722.60	275.59
722.93	274.99
723.26	274.44
723.59	273.88
723.93	273.29
724.26	272.70
724.59	272.17
724.92	271.66
725.25	271.17
725.59	270.63
725.92	270.14
726.25	269.60
726.58	269.08
726.91	268.56
727.24	268.09
727.57	267.61
727.91	267.14
728.24	266.62
728.57	266.05
728.90	265.57
729.23	265.05
729.56	264.61
729.89	264.13
730.22	263.66
730.55	263.19
730.89	262.73
731.22	262.28
731.55	261.82
731.88	261.36
732.21	260.88
732.54	260.45
732.87	260.03
733.20	259.61
733.53	259.22
733.86	258.80
734.19	258.39
734.52	257.99
734.85	257.66
735.18	257.24
735.51	256.89
735.84	256.51
736.17	256.16
736.50	255.74
736.83	255.50
737.16	255.17
737.49	254.84
737.82	254.49
738.15	254.18
738.48	253.84
738.81	253.56
739.14	253.24
739.47	252.93
739.80	252.58
740.13	252.29
740.46	252.00
740.79	251.72
741.12	251.44
741.45	251.12
741.78	250.76
742.11	250.52
742.44	250.19
742.77	249.90
743.10	249.60
743.43	249.33
743.75	248.97
744.08	248.82
744.41	248.55
744.74	248.31
745.07	248.01
745.40	247.77
745.73	247.50
746.06	247.28
746.39	247.06
746.71	246.80
747.04	246.50
747.37	246.19
747.70	245.97
748.03	245.72
748.36	245.50
748.68	245.25
749.01	245.01
749.34	244.79
749.67	244.57
750.00	244.38
750.33	244.21
750.65	243.99
750.98	243.62
751.31	243.41
751.64	243.18
751.97	243.04
752.29	242.80
752.62	242.55
752.95	242.32
753.28	242.10
753.60	241.90
753.93	241.80
754.26	241.63
754.59	241.38
754.91	241.14
755.24	240.97
755.57	240.79
755.90	240.59
756.22	240.38
756.55	240.17
756.88	239.95
757.20	239.71
757.53	239.50
757.86	239.35
758.19	239.20
758.51	239.02
758.84	238.77
759.17	238.61
759.49	238.44
759.82	238.30
760.15	238.12
760.47	237.96
760.80	237.73
761.13	237.59
761.45	237.43
761.78	237.29
762.11	237.10
762.43	236.94
762.76	236.78
763.08	236.64
763.41	236.50
763.74	236.35
764.06	236.17
764.39	236.02
764.71	235.87
765.04	235.69
765.37	235.55
765.69	235.43
766.02	235.31
766.34	235.16
766.67	235.01
767.00	234.91
767.32	234.81
767.65	234.76
767.97	234.63
768.30	234.51
768.62	234.38
768.95	234.24
769.27	234.14
769.60	234.02
769.92	233.90
770.25	233.77
770.57	233.66
770.90	233.58
771.22	233.46
771.55	233.38
771.87	233.26
772.20	233.16
772.52	233.15
772.85	233.14
773.17	233.02
773.50	232.92
773.82	232.82
774.15	232.67
774.47	232.54
774.80	232.45
775.12	232.36
775.45	232.29
775.77	232.24
776.09	232.14
776.42	232.07
776.74	231.99
777.07	231.93
777.39	231.82
777.72	231.73
778.04	231.69
778.36	231.59
778.69	231.54
779.01	231.49
779.33	231.35
779.66	231.20
779.98	231.16
780.31	231.10
780.63	231.04
780.95	230.99
781.28	230.87
781.60	230.79
781.92	230.71
782.25	230.62
782.57	230.57
782.89	230.49
783.22	230.43
783.54	230.40
783.86	230.37
784.19	230.33
784.51	230.30
784.83	230.26
785.16	230.19
785.48	230.13
785.80	230.07
786.12	230.00
786.45	229.90
786.77	229.86
787.09	229.79
787.42	229.73
787.74	229.71
788.06	229.69
788.38	229.66
788.71	229.63
789.03	229.65
789.35	229.61
789.67	229.61
789.99	229.58
790.32	229.50
790.64	229.44
790.96	229.46
791.28	229.40
791.61	229.33
791.93	229.31
792.25	229.30
792.57	229.32
792.89	229.26
793.21	229.25
793.54	229.19
793.86	229.10
794.18	229.08
794.50	229.03
794.82	229.00
795.14	228.98
795.47	228.96
795.79	228.92
796.11	228.83
796.43	228.76
796.75	228.69
797.07	228.66
797.39	228.65
797.71	228.57
798.04	228.54
798.36	228.53
798.68	228.48
799.00	228.44
799.32	228.39
799.64	228.41
799.96	228.37
800.28	228.32
800.60	228.35
800.92	228.33
801.24	228.28
801.56	228.26
801.89	228.20
802.21	228.14
802.53	228.09
802.85	228.08
803.17	228.09
803.49	228.06
803.81	228.04
804.13	227.99
804.45	227.93
804.77	227.90
805.09	227.86
805.41	227.82
805.73	227.77
806.05	227.69
806.37	227.64
806.69	227.61
807.01	227.60
807.33	227.57
807.65	227.48
807.97	227.49
808.28	227.41
808.60	227.38
808.92	227.36
809.24	227.39
809.56	227.33
809.88	227.29
810.20	227.26
810.52	227.25
810.84	227.17
811.16	227.14
811.48	227.10
811.80	227.11
812.12	227.08
812.43	227.06
812.75	227.01
813.07	226.95
813.39	226.93
813.71	226.90
814.03	226.84
814.35	226.84
814.67	226.78
814.98	226.77
815.30	226.73
815.62	226.67
815.94	226.57
816.26	226.62
816.58	226.60
816.89	226.57
817.21	226.52
817.53	226.51
817.85	226.50
818.17	226.48
818.48	226.42
818.80	226.43
819.12	226.40
819.44	226.39
819.76	226.33
820.07	226.33
820.39	226.29
820.71	226.29
821.03	226.25
821.34	226.26
821.66	226.25
821.98	226.25
822.30	226.26
822.61	226.33
822.93	226.26
823.25	226.22
823.57	226.18
823.88	226.17
824.20	226.20
824.52	226.21
824.83	226.19
825.15	226.16
825.47	226.15
825.79	226.16
826.10	226.14
826.42	226.18
826.74	226.16
827.05	226.14
827.37	226.18
827.69	226.16
828.00	226.15
828.32	226.15
828.64	226.14
828.95	226.16
829.27	226.16
829.58	226.15
829.90	226.13
830.22	226.18
830.53	226.15
830.85	226.10
831.17	226.06
831.48	226.05
831.80	226.03
832.11	226.00
832.43	225.98
832.75	225.98
833.06	226.04
833.38	226.01
833.69	226.03
834.01	226.00
834.32	226.01
834.64	225.98
834.96	225.95
835.27	225.96
835.59	225.92
835.90	225.85
836.22	225.88
836.53	225.90
836.85	225.88
837.16	226.00
837.48	226.03
837.79	226.07
838.11	226.09
838.42	226.11
838.74	226.14
839.05	226.13
839.37	226.13
839.68	226.05
840.00	226.04
840.31	226.05
840.63	226.02
840.94	225.97
841.26	225.98
841.57	225.99
841.88	225.97
842.20	226.01
842.51	225.99
842.83	225.96
843.14	226.02
843.46	226.01
843.77	225.92
844.08	225.86
844.40	225.77
844.71	225.72
845.03	225.71
845.34	225.68
845.65	225.65
845.97	225.62
846.28	225.61
846.60	225.64
846.91	225.62
847.22	225.62
847.54	225.66
847.85	225.66
848.16	225.65
848.48	225.62
848.79	225.61
849.10	225.59
849.42	225.57
849.73	225.46
850.04	225.47
850.36	225.44
850.67	225.46
850.98	225.50
851.30	225.50
851.61	225.47
851.92	225.48
852.23	225.52
852.55	225.53
852.86	225.53
853.17	225.52
853.49	225.52
853.80	225.54
854.11	225.54
854.42	225.52
854.74	225.46
855.05	225.48
855.36	225.43
855.67	225.42
855.99	225.44
856.30	225.53
856.61	225.48
856.92	225.48
857.23	225.48
857.55	225.48
857.86	225.47
858.17	225.50
858.48	225.46
858.79	225.42
859.11	225.45
859.42	225.46
859.73	225.41
860.04	225.40
860.35	225.38
860.66	225.34
860.98	225.37
861.29	225.43
861.60	225.41
861.91	225.41
862.22	225.41
862.53	225.38
862.84	225.30
863.16	225.36
863.47	225.36
863.78	225.34
864.09	225.33
864.40	225.36
864.71	225.34
865.02	225.37
865.33	225.39
865.64	225.34
865.95	225.30
866.27	225.39
866.58	225.35
866.89	225.37
867.20	225.38
867.51	225.34
867.82	225.33
868.13	225.35
868.44	225.33
868.75	225.35
869.06	225.35
869.37	225.37
869.68	225.35
869.99	225.35
870.30	225.39
870.61	225.41
870.92	225.41
871.23	225.44
871.54	225.45
871.85	225.43
872.16	225.47
872.47	225.51
872.78	225.46
873.09	225.50
873.40	225.48
873.71	225.47
874.02	225.49
874.33	225.49
874.64	225.49
874.95	225.51
875.26	225.49
875.56	225.52
875.87	225.49
876.18	225.46
876.49	225.59
876.80	225.54
877.11	225.52
877.42	225.52
877.73	225.51
878.04	225.51
878.35	225.50
878.66	225.48
878.96	225.46
879.27	225.46
879.58	225.46
879.89	225.45
880.20	225.46
880.51	225.46
880.82	225.48
881.12	225.46
881.43	225.43
881.74	225.43
882.05	225.43
882.36	225.43
882.67	225.44
882.97	225.29
883.28	225.29
883.59	225.27
883.90	225.25
884.21	225.24
884.51	225.18
884.82	225.18
885.13	225.19
885.44	225.17
885.74	225.10
886.05	225.12
886.36	225.10
886.67	225.07
886.98	225.06
887.28	225.09
887.59	225.07
887.90	225.06
888.20	225.04
888.51	225.04
888.82	225.03
889.13	225.02
889.43	225.14
889.74	225.14
890.05	225.17
890.35	225.20
890.66	225.20
890.97	225.20
891.28	225.19
891.58	225.17
891.89	225.17
892.20	225.20
892.50	225.19
892.81	225.18
893.12	225.18
893.42	225.17
893.73	225.14
894.04	225.15
894.34	225.16
894.65	225.15
894.95	225.14
895.26	225.16
895.57	225.22
895.87	225.12
896.18	225.12
896.48	225.09
896.79	225.07
897.10	225.07
897.40	225.11
897.71	225.13
898.01	225.16
898.32	225.14
898.63	225.16
898.93	225.13
899.24	225.16
899.54	225.14
899.85	225.14
900.15	225.15
900.46	225.13
900.76	225.15
901.07	225.18
901.38	225.17
901.68	225.17
901.99	225.13
902.29	225.13
902.60	225.13
902.90	225.13
903.21	225.13
903.51	225.11
903.82	225.12
904.12	225.12
904.43	225.08
904.73	225.10
905.03	225.10
905.34	225.23
905.64	225.20
905.95	225.24
906.25	225.21
906.56	225.19
906.86	225.20
907.17	225.17
907.47	225.15
907.77	225.16
908.08	225.13
908.38	225.11
908.69	225.12
908.99	225.10
909.30	225.09
909.60	225.08
909.90	225.06
910.21	225.03
910.51	225.01
910.81	225.06
911.12	225.10
911.42	225.09
911.73	224.94
912.03	224.95
912.33	224.95
912.64	224.97
912.94	224.98
913.24	224.96
913.55	224.98
913.85	224.98
914.15	224.96
914.46	224.99
914.76	225.00
915.06	225.00
915.37	224.98
915.67	225.00
915.97	225.02
916.27	225.03
916.58	225.01
916.88	224.99
917.18	224.98
917.49	225.01
917.79	225.04
918.09	225.05
918.39	225.09
918.70	225.07
919.00	225.04
919.30	225.10
919.60	225.11
919.91	225.13
920.21	225.14
920.51	225.11
920.81	225.11
921.12	225.10
921.42	225.11
921.72	225.14
922.02	225.14
922.32	225.13
922.63	225.10
922.93	225.15
923.23	225.14
923.53	225.12
923.83	225.05
924.13	225.01
924.44	225.01
924.74	225.01
925.04	225.05
925.34	225.07
925.64	225.00
925.94	224.99
926.24	225.02
926.55	225.00
926.85	225.03
927.15	225.02
927.45	225.02
927.75	224.99
928.05	225.00
928.35	225.00
928.65	225.00
928.95	225.01
929.26	224.98
929.56	225.00
929.86	225.02
930.16	225.01
930.46	224.99
930.76	224.98
931.06	224.94
931.36	224.91
931.66	224.92
931.96	224.93
932.26	224.94
932.56	224.86
932.86	224.89
933.16	224.87
933.46	224.84
933.76	224.83
934.06	224.83
934.36	224.81
934.66	224.82
934.96	224.83
935.26	224.84
935.56	224.87
935.86	224.86
936.16	224.83
936.46	224.82
936.76	224.83
937.06	224.85
937.36	224.86
937.66	224.82
937.96	224.79
938.26	224.78
938.56	224.72
938.86	224.75
939.16	224.73
939.46	224.75
939.76	224.77
940.06	224.77
940.35	224.79
940.65	224.76
940.95	224.77
941.25	224.73
941.55	224.76
941.85	224.72
942.15	224.74
942.45	224.77
942.75	224.77
943.04	224.74
943.34	224.74
943.64	224.73
943.94	224.73
944.24	224.74
944.54	224.75
944.84	224.79
945.13	224.79
945.43	224.80
945.73	224.77
946.03	224.77
946.33	224.75
946.62	224.72
946.92	224.73
947.22	224.70
947.52	224.73
947.82	224.72
948.11	224.73
948.41	224.71
948.71	224.72
949.01	224.73
949.31	224.76
949.60	224.72
949.90	224.75
950.20	224.75
950.50	224.73
950.79	224.72
951.09	224.71
951.39	224.69
951.69	224.67
951.98	224.71
952.28	224.69
952.58	224.69
952.87	224.69
953.17	224.69
953.47	224.67
953.76	224.66
954.06	224.66
954.36	224.62
954.66	224.61
954.95	224.60
955.25	224.65
955.55	224.66
955.84	224.67
956.14	224.67
956.44	224.70
956.73	224.72
957.03	224.76
957.32	224.77
957.62	224.76
957.92	224.79
958.21	224.76
958.51	224.85
958.81	224.90
959.10	224.92
959.40	224.95
959.69	224.99
959.99	225.02
960.29	225.02
960.58	225.04
960.88	225.11
961.17	225.08
961.47	225.06
961.76	225.05
962.06	225.08
962.36	225.05
962.65	225.06
962.95	225.07
963.24	225.01
963.54	225.03
963.83	225.04
964.13	225.06
964.42	225.06
964.72	224.99
965.01	224.97
965.31	224.98
965.60	224.94
965.90	224.98
966.19	224.93
966.49	224.92
966.78	224.94
967.08	224.87
967.37	224.93
967.67	224.91
967.96	224.93
968.26	224.90
968.55	224.94
968.85	224.93
969.14	224.91
969.43	224.97
969.73	224.93
970.02	224.94
970.32	224.90
970.61	224.89
970.91	224.90
971.20	224.90
971.49	224.90
971.79	224.93
972.08	224.90
972.38	224.91
972.67	224.95
972.96	224.94
973.26	224.95
973.55	224.94
973.85	224.93
974.14	224.90
974.43	224.94
974.73	224.92
975.02	224.88
975.31	224.90
975.61	224.87
975.90	224.89
976.19	224.88
976.49	224.90
976.78	224.93
977.07	224.91
977.37	224.89
977.66	224.86
977.95	224.80
978.24	224.78
978.54	224.82
978.83	224.75
979.12	224.76
979.42	224.73
979.71	224.72
980.00	224.72
980.29	224.71
980.59	224.65
980.88	224.67
981.17	224.68
981.46	224.68
981.76	224.67
982.05	224.70
982.34	224.71
982.63	224.71
982.93	224.71
983.22	224.74
983.51	224.77
983.80	224.82
984.09	224.89
984.39	224.88
984.68	224.87
984.97	224.90
985.26	224.90
985.55	224.94
985.85	224.92
986.14	224.93
986.43	224.95
986.72	224.96
987.01	224.93
987.30	224.93
987.59	224.92
987.89	224.90
988.18	224.86
988.47	224.86
988.76	224.86
989.05	224.81
989.34	224.79
989.63	224.81
989.92	224.79
990.22	224.77
990.51	224.78
990.80	224.76
991.09	224.78
991.38	224.79
991.67	224.83
991.96	224.79
992.25	224.82
992.54	224.78
992.83	224.79
993.12	224.78
993.41	224.80
993.70	224.86
993.99	224.90
994.28	224.95
994.58	224.95
994.87	224.92
995.16	224.92
995.45	224.90
995.74	224.86
996.03	224.87
996.32	224.89
996.61	224.91
996.90	224.90
997.19	224.84
997.48	224.86
997.77	224.78
998.06	224.81
998.34	224.78
998.63	224.82
998.92	224.82
999.21	224.86
999.50	224.88
999.79	224.83
1000.08	224.79
1000.37	224.77
1000.66	224.76
1000.95	224.79
1001.24	224.84
1001.53	224.88
1001.82	224.89
1002.11	224.89
1002.40	224.87
1002.68	224.88
1002.97	224.96
1003.26	224.99
1003.55	224.95
1003.84	224.99
1004.13	225.02
1004.42	225.03
1004.71	225.03
1004.99	225.05
1005.28	225.05
1005.57	225.03
1005.86	225.05
1006.15	225.06
1006.44	225.05
1006.72	225.06
1007.01	225.05
1007.30	225.04
1007.59	225.03
1007.88	225.03
1008.17	225.02
1008.45	225.03
1008.74	225.00
1009.03	224.97
1009.32	224.96
1009.60	224.96
1009.89	224.95
1010.18	224.92
1010.47	224.94
1010.76	224.92
1011.04	224.90
1011.33	224.92
1011.62	224.93
1011.91	224.90
1012.19	224.91
1012.48	224.90
1012.77	224.91
1013.05	224.99
1013.34	224.96
1013.63	224.96
1013.92	224.94
1014.20	224.93
1014.49	224.93
1014.78	224.95
1015.06	224.90
1015.35	224.90
1015.64	224.90
1015.92	224.89
1016.21	224.90
1016.50	224.89
1016.78	224.88
1017.07	224.90
1017.36	224.88
1017.64	224.84
1017.93	224.86
1018.22	224.83
1018.50	224.83
1018.79	224.82
1019.08	224.75
1019.36	224.76
1019.65	224.74
1019.93	224.78
1020.22	224.81
1020.51	224.85
1020.79	224.83
1021.08	224.46
1021.36	224.39
1021.65	224.86
1021.94	224.99
1022.22	224.77
1022.51	224.48
1022.79	225.07
1023.08	225.62
1023.36	225.98
1023.65	224.56
>>>>>End Processed Spectral Data<<<<<
