SpectraSuite Data File
++++++++++++++++++++++++++++++++++++
Date: Fri Feb 01 14:51:41 EST 2013
User: group
Dark Spectrum Present: No
Reference Spectrum Present: No
Number of Sampled Component Spectra: 1
Spectrometers: USB2E7196
Integration Time (usec): 35000 (USB2E7196)
Spectra Averaged: 100 (USB2E7196)
Boxcar Smoothing: 10 (USB2E7196)
Correct for Electrical Dark: No (USB2E7196)
Strobe/Lamp Enabled: No (USB2E7196)
Correct for Detector Non-linearity: No (USB2E7196)
Correct for Stray Light: No (USB2E7196)
Number of Pixels in Processed Spectrum: 2048
>>>>>Begin Processed Spectral Data<<<<<
339.09	0.00
339.48	215.83
339.86	216.92
340.24	218.00
340.63	220.22
341.01	222.60
341.39	222.01
341.78	223.75
342.16	224.75
342.54	225.70
342.93	213.91
343.31	224.72
343.69	225.26
344.07	225.75
344.46	226.21
344.84	226.57
345.22	226.80
345.60	227.07
345.99	227.28
346.37	227.41
346.75	227.49
347.13	227.56
347.52	227.62
347.90	227.71
348.28	227.72
348.66	227.73
349.05	227.70
349.43	227.70
349.81	227.73
350.19	227.78
350.57	227.79
350.96	227.87
351.34	227.94
351.72	228.00
352.10	228.07
352.48	228.12
352.87	228.16
353.25	228.22
353.63	228.28
354.01	228.31
354.39	228.38
354.77	228.46
355.15	228.55
355.54	228.58
355.92	228.61
356.30	228.72
356.68	228.86
357.06	228.96
357.44	229.01
357.82	229.05
358.20	229.14
358.58	229.18
358.97	229.22
359.35	229.27
359.73	229.33
360.11	229.38
360.49	229.43
360.87	229.48
361.25	229.51
361.63	229.58
362.01	229.62
362.39	229.65
362.77	229.70
363.15	229.72
363.53	229.75
363.91	229.77
364.29	229.75
364.67	229.63
365.05	229.62
365.43	229.64
365.81	229.68
366.19	229.66
366.57	229.70
366.95	229.70
367.33	229.68
367.71	229.65
368.09	229.63
368.47	229.62
368.85	229.59
369.23	229.62
369.61	229.53
369.99	229.54
370.37	229.52
370.75	229.52
371.13	229.45
371.51	229.38
371.89	229.33
372.27	229.31
372.65	229.32
373.03	229.25
373.41	229.21
373.78	229.10
374.16	229.01
374.54	228.90
374.92	228.82
375.30	228.75
375.68	228.68
376.06	228.63
376.44	228.56
376.82	228.49
377.19	228.38
377.57	228.31
377.95	228.19
378.33	228.12
378.71	228.00
379.09	227.90
379.47	227.87
379.84	227.78
380.22	227.67
380.60	227.58
380.98	227.53
381.36	227.45
381.73	227.40
382.11	227.35
382.49	227.29
382.87	227.21
383.25	227.18
383.62	227.21
384.00	227.11
384.38	227.03
384.76	227.01
385.13	227.03
385.51	226.98
385.89	226.93
386.27	226.88
386.64	226.83
387.02	226.79
387.40	226.74
387.78	226.73
388.15	226.73
388.53	226.70
388.91	226.65
389.29	226.64
389.66	226.66
390.04	226.60
390.42	226.64
390.79	226.66
391.17	226.61
391.55	226.51
391.92	226.52
392.30	226.53
392.68	226.50
393.05	226.49
393.43	226.49
393.81	226.52
394.18	226.54
394.56	226.55
394.94	226.62
395.31	226.63
395.69	226.70
396.06	226.73
396.44	226.76
396.82	226.83
397.19	226.95
397.57	226.98
397.95	227.08
398.32	227.07
398.70	227.13
399.07	227.23
399.45	227.31
399.82	227.39
400.20	227.48
400.58	227.59
400.95	227.62
401.33	227.78
401.70	227.94
402.08	228.06
402.45	228.18
402.83	228.32
403.20	228.49
403.58	228.58
403.95	228.75
404.33	228.92
404.71	229.05
405.08	229.24
405.46	229.40
405.83	229.56
406.21	229.75
406.58	229.94
406.96	230.12
407.33	230.29
407.70	230.50
408.08	230.79
408.45	231.03
408.83	231.29
409.20	231.49
409.58	231.66
409.95	231.92
410.33	232.22
410.70	232.45
411.08	232.74
411.45	233.09
411.82	233.35
412.20	233.70
412.57	234.10
412.95	234.38
413.32	234.81
413.69	235.21
414.07	235.65
414.44	236.10
414.82	236.55
415.19	237.12
415.56	237.65
415.94	238.19
416.31	238.84
416.68	239.41
417.06	240.12
417.43	240.81
417.81	241.57
418.18	242.36
418.55	243.20
418.93	244.06
419.30	244.93
419.67	245.88
420.04	246.83
420.42	247.86
420.79	249.01
421.16	250.13
421.54	251.32
421.91	252.53
422.28	253.78
422.66	255.12
423.03	256.41
423.40	257.73
423.77	259.11
424.15	260.52
424.52	262.07
424.89	263.67
425.26	265.17
425.64	266.58
426.01	268.15
426.38	269.82
426.75	271.51
427.13	273.21
427.50	275.03
427.87	276.88
428.24	278.68
428.61	280.45
428.99	282.38
429.36	284.43
429.73	286.50
430.10	288.50
430.47	290.58
430.85	292.71
431.22	294.93
431.59	297.32
431.96	299.51
432.33	301.96
432.70	304.29
433.08	307.11
433.45	309.77
433.82	312.35
434.19	315.19
434.56	317.97
434.93	320.66
435.30	323.23
435.68	326.10
436.05	328.98
436.42	331.76
436.79	334.24
437.16	336.96
437.53	339.78
437.90	342.61
438.27	345.33
438.64	348.14
439.01	350.74
439.38	352.99
439.75	355.18
440.13	357.66
440.50	360.02
440.87	361.88
441.24	363.80
441.61	366.02
441.98	367.49
442.35	369.28
442.72	371.12
443.09	372.96
443.46	373.96
443.83	374.53
444.20	375.07
444.57	375.98
444.94	376.30
445.31	376.64
445.68	376.97
446.05	377.05
446.42	376.63
446.79	376.24
447.16	375.75
447.53	375.43
447.90	374.28
448.27	373.12
448.64	371.55
449.01	370.43
449.37	368.39
449.74	366.54
450.11	364.31
450.48	361.81
450.85	359.27
451.22	357.15
451.59	355.14
451.96	353.17
452.33	350.52
452.70	348.15
453.07	345.38
453.43	342.48
453.80	339.71
454.17	337.09
454.54	334.55
454.91	331.85
455.28	329.20
455.65	326.72
456.02	324.32
456.38	322.18
456.75	319.52
457.12	317.30
457.49	315.08
457.86	312.94
458.23	311.12
458.59	309.08
458.96	307.01
459.33	305.16
459.70	303.28
460.07	301.79
460.43	300.10
460.80	298.43
461.17	297.04
461.54	295.61
461.91	294.20
462.27	292.75
462.64	291.51
463.01	290.16
463.38	288.86
463.74	287.50
464.11	286.32
464.48	285.31
464.85	284.16
465.21	283.27
465.58	282.32
465.95	281.23
466.32	280.33
466.68	279.41
467.05	278.47
467.42	277.60
467.78	276.63
468.15	275.75
468.52	275.09
468.88	274.18
469.25	273.34
469.62	272.65
469.98	271.96
470.35	271.30
470.72	270.66
471.08	269.98
471.45	269.39
471.82	268.83
472.18	268.20
472.55	267.75
472.92	267.20
473.28	266.73
473.65	266.26
474.02	265.78
474.38	265.36
474.75	264.99
475.11	264.62
475.48	264.37
475.85	264.10
476.21	263.83
476.58	263.64
476.94	263.47
477.31	263.34
477.67	263.20
478.04	263.06
478.41	262.99
478.77	263.01
479.14	262.93
479.50	262.91
479.87	262.99
480.23	263.04
480.60	263.11
480.96	263.17
481.33	263.35
481.69	263.55
482.06	263.75
482.42	263.96
482.79	264.18
483.15	264.47
483.52	264.82
483.88	265.18
484.25	265.54
484.61	265.97
484.98	266.37
485.34	266.91
485.71	267.47
486.07	268.09
486.44	268.67
486.80	269.34
487.17	270.05
487.53	270.84
487.90	271.66
488.26	272.60
488.62	273.57
488.99	274.56
489.35	275.56
489.72	276.67
490.08	277.85
490.44	279.11
490.81	280.39
491.17	281.74
491.54	283.18
491.90	284.69
492.26	286.34
492.63	288.03
492.99	289.77
493.36	291.67
493.72	293.65
494.08	295.74
494.45	298.01
494.81	300.35
495.17	302.74
495.54	305.34
495.90	307.98
496.26	310.74
496.63	313.65
496.99	316.75
497.35	319.99
497.72	323.34
498.08	326.80
498.44	330.49
498.80	334.39
499.17	338.39
499.53	342.58
499.89	346.89
500.26	351.42
500.62	356.04
500.98	360.97
501.34	366.03
501.71	371.32
502.07	376.72
502.43	382.34
502.79	388.14
503.16	394.13
503.52	400.41
503.88	406.84
504.24	413.46
504.60	420.29
504.97	427.39
505.33	434.66
505.69	442.35
506.05	450.06
506.41	457.88
506.78	465.98
507.14	474.31
507.50	482.99
507.86	491.92
508.22	501.12
508.59	510.26
508.95	519.83
509.31	529.53
509.67	539.54
510.03	549.77
510.39	560.33
510.75	571.16
511.12	582.03
511.48	593.33
511.84	604.75
512.20	616.24
512.56	628.17
512.92	640.38
513.28	652.65
513.64	665.14
514.00	677.90
514.37	690.80
514.73	703.86
515.09	716.87
515.45	730.17
515.81	743.76
516.17	757.65
516.53	771.71
516.89	785.90
517.25	800.09
517.61	814.55
517.97	828.95
518.33	843.24
518.69	857.97
519.05	872.96
519.41	888.13
519.77	903.79
520.13	919.23
520.49	934.64
520.85	950.08
521.21	965.77
521.57	981.96
521.93	997.83
522.29	1014.28
522.65	1030.49
523.01	1046.74
523.37	1062.82
523.73	1079.17
524.09	1095.30
524.45	1111.72
524.81	1128.44
525.17	1145.34
525.53	1162.24
525.89	1179.26
526.25	1196.12
526.61	1212.46
526.97	1229.30
527.33	1245.71
527.68	1262.35
528.04	1278.97
528.40	1295.74
528.76	1312.90
529.12	1329.62
529.48	1346.45
529.84	1362.46
530.20	1379.24
530.56	1396.31
530.91	1413.67
531.27	1430.46
531.63	1446.98
531.99	1463.55
532.35	1479.56
532.71	1495.39
533.07	1511.81
533.42	1527.71
533.78	1543.84
534.14	1560.13
534.50	1575.32
534.86	1591.28
535.21	1606.54
535.57	1622.43
535.93	1637.84
536.29	1652.71
536.65	1667.84
537.00	1682.85
537.36	1698.32
537.72	1712.90
538.08	1727.37
538.44	1741.27
538.79	1755.24
539.15	1769.13
539.51	1783.02
539.87	1797.38
540.22	1811.28
540.58	1825.09
540.94	1838.53
541.29	1851.55
541.65	1864.43
542.01	1877.86
542.37	1890.23
542.72	1902.72
543.08	1914.69
543.44	1927.26
543.79	1938.66
544.15	1949.58
544.51	1961.00
544.87	1972.00
545.22	1982.99
545.58	1993.27
545.94	2003.05
546.29	2012.83
546.65	2022.65
547.01	2031.76
547.36	2040.54
547.72	2048.92
548.07	2056.92
548.43	2065.09
548.79	2073.21
549.14	2080.73
549.50	2088.14
549.86	2095.93
550.21	2103.26
550.57	2110.28
550.92	2116.72
551.28	2123.69
551.64	2130.79
551.99	2137.37
552.35	2143.52
552.70	2149.46
553.06	2155.42
553.41	2161.66
553.77	2167.76
554.13	2173.64
554.48	2179.68
554.84	2185.08
555.19	2190.38
555.55	2195.19
555.90	2199.60
556.26	2204.39
556.61	2209.05
556.97	2213.07
557.32	2217.13
557.68	2221.16
558.03	2225.30
558.39	2228.94
558.74	2233.38
559.10	2237.08
559.45	2240.61
559.81	2244.80
560.16	2248.53
560.52	2251.58
560.87	2255.04
561.23	2257.50
561.58	2260.38
561.94	2262.86
562.29	2265.24
562.64	2267.71
563.00	2270.33
563.35	2273.75
563.71	2276.60
564.06	2279.59
564.42	2282.40
564.77	2284.64
565.12	2286.61
565.48	2288.26
565.83	2290.00
566.19	2291.25
566.54	2292.08
566.89	2293.01
567.25	2293.37
567.60	2294.55
567.96	2296.00
568.31	2296.62
568.66	2297.45
569.02	2297.83
569.37	2298.02
569.72	2298.54
570.08	2298.48
570.43	2298.22
570.78	2297.18
571.14	2295.34
571.49	2293.71
571.84	2293.20
572.20	2291.71
572.55	2290.43
572.90	2288.70
573.26	2286.88
573.61	2284.74
573.96	2282.70
574.31	2279.49
574.67	2276.15
575.02	2272.22
575.37	2268.50
575.72	2264.40
576.08	2260.91
576.43	2257.25
576.78	2253.34
577.13	2249.95
577.49	2246.70
577.84	2243.11
578.19	2239.48
578.54	2235.80
578.90	2231.42
579.25	2225.62
579.60	2220.60
579.95	2215.45
580.30	2210.34
580.66	2205.16
581.01	2200.12
581.36	2195.02
581.71	2190.76
582.06	2186.21
582.42	2181.68
582.77	2176.41
583.12	2171.70
583.47	2166.84
583.82	2161.87
584.17	2156.58
584.53	2150.92
584.88	2145.12
585.23	2139.09
585.58	2133.36
585.93	2127.69
586.28	2122.77
586.63	2117.66
586.98	2112.48
587.34	2107.75
587.69	2102.76
588.04	2097.40
588.39	2091.60
588.74	2085.01
589.09	2078.65
589.44	2071.57
589.79	2065.27
590.14	2059.55
590.49	2052.83
590.84	2046.20
591.19	2040.05
591.54	2033.40
591.89	2025.77
592.25	2018.85
592.60	2011.57
592.95	2003.75
593.30	1996.29
593.65	1988.60
594.00	1981.33
594.35	1973.84
594.70	1965.66
595.05	1958.25
595.40	1950.81
595.75	1943.29
596.10	1936.94
596.45	1930.06
596.80	1923.77
597.15	1917.03
597.50	1909.81
597.85	1903.26
598.19	1896.64
598.54	1889.43
598.89	1882.70
599.24	1876.87
599.59	1870.10
599.94	1863.89
600.29	1857.54
600.64	1850.97
600.99	1843.47
601.34	1836.61
601.69	1829.64
602.04	1822.76
602.39	1815.50
602.74	1808.59
603.08	1801.77
603.43	1795.11
603.78	1787.92
604.13	1780.83
604.48	1773.65
604.83	1766.93
605.18	1760.02
605.53	1751.97
605.87	1743.88
606.22	1736.60
606.57	1728.71
606.92	1721.44
607.27	1714.21
607.62	1707.34
607.96	1700.05
608.31	1693.40
608.66	1685.78
609.01	1678.30
609.36	1670.74
609.70	1662.73
610.05	1654.81
610.40	1647.21
610.75	1638.83
611.10	1631.23
611.44	1623.11
611.79	1615.14
612.14	1606.41
612.49	1597.30
612.83	1589.03
613.18	1581.04
613.53	1573.00
613.88	1564.49
614.22	1556.23
614.57	1547.69
614.92	1539.83
615.27	1532.27
615.61	1524.11
615.96	1516.27
616.31	1508.66
616.65	1501.29
617.00	1493.79
617.35	1486.27
617.70	1477.96
618.04	1469.53
618.39	1461.38
618.74	1453.66
619.08	1445.45
619.43	1438.01
619.78	1431.21
620.12	1424.18
620.47	1416.75
620.82	1408.67
621.16	1401.33
621.51	1393.91
621.85	1386.44
622.20	1378.02
622.55	1369.91
622.89	1362.21
623.24	1354.68
623.59	1347.45
623.93	1340.00
624.28	1332.87
624.62	1325.34
624.97	1318.21
625.32	1311.60
625.66	1304.62
626.01	1297.66
626.35	1290.21
626.70	1282.49
627.04	1274.83
627.39	1267.15
627.73	1259.81
628.08	1253.10
628.43	1245.95
628.77	1238.62
629.12	1231.11
629.46	1223.99
629.81	1216.73
630.15	1209.64
630.50	1202.30
630.84	1194.26
631.19	1186.52
631.53	1179.08
631.88	1171.60
632.22	1164.10
632.57	1156.93
632.91	1149.49
633.26	1142.11
633.60	1134.92
633.95	1128.05
634.29	1121.12
634.64	1114.48
634.98	1107.26
635.32	1100.20
635.67	1093.72
636.01	1087.21
636.36	1080.52
636.70	1074.09
637.05	1067.49
637.39	1061.08
637.73	1054.70
638.08	1048.90
638.42	1043.02
638.77	1036.66
639.11	1030.18
639.45	1023.97
639.80	1017.32
640.14	1011.04
640.49	1004.59
640.83	998.41
641.17	992.19
641.52	985.98
641.86	979.70
642.20	973.98
642.55	967.75
642.89	961.34
643.23	954.87
643.58	949.11
643.92	942.99
644.26	936.98
644.61	930.97
644.95	925.02
645.29	918.49
645.64	911.82
645.98	905.54
646.32	899.77
646.66	893.80
647.01	888.19
647.35	882.51
647.69	876.74
648.04	871.27
648.38	865.60
648.72	859.53
649.06	853.52
649.41	847.61
649.75	841.66
650.09	835.76
650.43	829.99
650.78	823.96
651.12	818.03
651.46	812.37
651.80	806.63
652.14	801.30
652.49	795.97
652.83	790.78
653.17	785.15
653.51	779.46
653.85	774.02
654.20	768.31
654.54	762.34
654.88	756.72
655.22	750.93
655.56	745.26
655.90	740.01
656.25	734.78
656.59	729.51
656.93	724.48
657.27	719.36
657.61	713.95
657.95	708.86
658.29	703.87
658.64	698.62
658.98	693.42
659.32	687.95
659.66	682.73
660.00	677.55
660.34	672.73
660.68	667.93
661.02	663.03
661.36	658.44
661.70	654.05
662.05	649.73
662.39	645.39
662.73	640.94
663.07	636.56
663.41	632.12
663.75	627.66
664.09	623.13
664.43	618.79
664.77	614.72
665.11	610.53
665.45	606.46
665.79	602.48
666.13	598.37
666.47	594.34
666.81	590.21
667.15	586.14
667.49	582.26
667.83	578.46
668.17	574.54
668.51	570.48
668.85	566.53
669.19	562.67
669.53	558.86
669.87	555.03
670.21	551.34
670.55	547.77
670.89	544.37
671.23	541.00
671.57	537.57
671.91	534.11
672.25	530.69
672.58	527.23
672.92	523.88
673.26	520.75
673.60	517.67
673.94	514.65
674.28	511.79
674.62	508.93
674.96	505.89
675.30	503.03
675.64	500.20
675.97	497.46
676.31	494.67
676.65	491.81
676.99	489.13
677.33	486.31
677.67	483.54
678.01	480.58
678.34	477.65
678.68	474.80
679.02	471.99
679.36	469.27
679.70	466.55
680.04	463.81
680.37	460.98
680.71	458.20
681.05	455.69
681.39	453.04
681.73	450.37
682.06	447.88
682.40	445.36
682.74	442.83
683.08	440.24
683.42	437.69
683.75	435.20
684.09	432.71
684.43	430.33
684.77	427.94
685.10	425.64
685.44	423.42
685.78	421.22
686.12	419.04
686.45	416.83
686.79	414.59
687.13	412.45
687.46	410.38
687.80	408.26
688.14	405.99
688.48	403.96
688.81	401.75
689.15	399.66
689.49	397.56
689.82	395.53
690.16	393.51
690.50	391.51
690.83	389.61
691.17	387.65
691.51	385.75
691.84	383.94
692.18	381.99
692.52	380.00
692.85	378.04
693.19	376.19
693.52	374.34
693.86	372.51
694.20	370.76
694.53	368.96
694.87	367.17
695.21	365.45
695.54	363.63
695.88	361.97
696.21	360.19
696.55	358.56
696.88	356.87
697.22	355.25
697.56	353.69
697.89	352.05
698.23	350.47
698.56	348.87
698.90	347.21
699.23	345.61
699.57	344.09
699.90	342.54
700.24	340.99
700.58	339.41
700.91	337.99
701.25	336.56
701.58	335.20
701.92	333.86
702.25	332.51
702.59	331.16
702.92	329.83
703.26	328.59
703.59	327.28
703.93	326.13
704.26	324.92
704.60	323.65
704.93	322.43
705.26	321.16
705.60	320.00
705.93	318.88
706.27	317.84
706.60	316.78
706.94	315.75
707.27	314.65
707.61	313.67
707.94	312.64
708.27	311.53
708.61	310.45
708.94	309.44
709.28	308.45
709.61	307.48
709.94	306.51
710.28	305.51
710.61	304.55
710.95	303.49
711.28	302.54
711.61	301.60
711.95	300.65
712.28	299.75
712.61	298.79
712.95	297.90
713.28	297.06
713.61	296.17
713.95	295.29
714.28	294.45
714.61	293.57
714.95	292.75
715.28	291.92
715.61	291.05
715.95	290.23
716.28	289.41
716.61	288.57
716.95	287.80
717.28	287.07
717.61	286.32
717.94	285.56
718.28	284.80
718.61	284.11
718.94	283.46
719.27	282.83
719.61	282.19
719.94	281.54
720.27	280.79
720.60	280.15
720.94	279.52
721.27	278.94
721.60	278.42
721.93	277.80
722.27	277.30
722.60	276.81
722.93	276.25
723.26	275.69
723.59	275.15
723.93	274.61
724.26	274.05
724.59	273.49
724.92	272.99
725.25	272.48
725.59	271.95
725.92	271.39
726.25	270.89
726.58	270.43
726.91	269.93
727.24	269.52
727.57	269.04
727.91	268.57
728.24	268.13
728.57	267.65
728.90	267.23
729.23	266.72
729.56	266.27
729.89	265.77
730.22	265.31
730.55	264.86
730.89	264.38
731.22	263.94
731.55	263.51
731.88	263.11
732.21	262.70
732.54	262.30
732.87	261.94
733.20	261.54
733.53	261.16
733.86	260.78
734.19	260.37
734.52	260.01
734.85	259.69
735.18	259.23
735.51	258.88
735.84	258.49
736.17	258.17
736.50	257.77
736.83	257.55
737.16	257.23
737.49	256.90
737.82	256.58
738.15	256.26
738.48	255.93
738.81	255.59
739.14	255.25
739.47	254.91
739.80	254.61
740.13	254.28
740.46	253.93
740.79	253.57
741.12	253.24
741.45	252.92
741.78	252.58
742.11	252.33
742.44	251.96
742.77	251.68
743.10	251.35
743.43	251.02
743.75	250.61
744.08	250.43
744.41	250.16
744.74	249.88
745.07	249.59
745.40	249.35
745.73	249.13
746.06	248.86
746.39	248.61
746.71	248.34
747.04	248.05
747.37	247.80
747.70	247.59
748.03	247.34
748.36	247.11
748.68	246.83
749.01	246.54
749.34	246.33
749.67	246.07
750.00	245.85
750.33	245.74
750.65	245.55
750.98	245.21
751.31	244.97
751.64	244.76
751.97	244.60
752.29	244.40
752.62	244.13
752.95	243.92
753.28	243.70
753.60	243.48
753.93	243.31
754.26	243.13
754.59	242.92
754.91	242.74
755.24	242.51
755.57	242.38
755.90	242.21
756.22	242.04
756.55	241.84
756.88	241.66
757.20	241.43
757.53	241.25
757.86	241.08
758.19	240.97
758.51	240.82
758.84	240.62
759.17	240.45
759.49	240.32
759.82	240.23
760.15	240.11
760.47	239.96
760.80	239.81
761.13	239.71
761.45	239.55
761.78	239.41
762.11	239.29
762.43	239.12
762.76	239.04
763.08	238.92
763.41	238.84
763.74	238.71
764.06	238.60
764.39	238.49
764.71	238.38
765.04	238.24
765.37	238.12
765.69	238.00
766.02	237.85
766.34	237.71
766.67	237.55
767.00	237.44
767.32	237.41
767.65	237.35
767.97	237.21
768.30	237.12
768.62	237.02
768.95	236.95
769.27	236.84
769.60	236.71
769.92	236.58
770.25	236.45
770.57	236.34
770.90	236.23
771.22	236.09
771.55	236.01
771.87	235.88
772.20	235.78
772.52	235.77
772.85	235.80
773.17	235.72
773.50	235.60
773.82	235.49
774.15	235.32
774.47	235.15
774.80	235.05
775.12	234.94
775.45	234.86
775.77	234.74
776.09	234.67
776.42	234.61
776.74	234.53
777.07	234.41
777.39	234.36
777.72	234.26
778.04	234.21
778.36	234.14
778.69	234.07
779.01	233.99
779.33	233.82
779.66	233.66
779.98	233.55
780.31	233.50
780.63	233.46
780.95	233.41
781.28	233.36
781.60	233.27
781.92	233.20
782.25	233.09
782.57	233.02
782.89	232.92
783.22	232.84
783.54	232.78
783.86	232.75
784.19	232.66
784.51	232.64
784.83	232.56
785.16	232.47
785.48	232.42
785.80	232.36
786.12	232.29
786.45	232.19
786.77	232.20
787.09	232.13
787.42	232.03
787.74	232.00
788.06	231.97
788.38	231.94
788.71	231.86
789.03	231.84
789.35	231.81
789.67	231.76
789.99	231.69
790.32	231.63
790.64	231.58
790.96	231.60
791.28	231.50
791.61	231.46
791.93	231.45
792.25	231.38
792.57	231.42
792.89	231.39
793.21	231.38
793.54	231.31
793.86	231.24
794.18	231.21
794.50	231.14
794.82	231.08
795.14	231.04
795.47	231.07
795.79	231.03
796.11	231.01
796.43	231.00
796.75	230.98
797.07	231.00
797.39	230.99
797.71	230.88
798.04	230.89
798.36	230.89
798.68	230.84
799.00	230.83
799.32	230.78
799.64	230.80
799.96	230.78
800.28	230.78
800.60	230.79
800.92	230.81
801.24	230.78
801.56	230.81
801.89	230.79
802.21	230.76
802.53	230.75
802.85	230.73
803.17	230.77
803.49	230.76
803.81	230.71
804.13	230.65
804.45	230.64
804.77	230.61
805.09	230.61
805.41	230.60
805.73	230.60
806.05	230.57
806.37	230.52
806.69	230.48
807.01	230.44
807.33	230.42
807.65	230.37
807.97	230.39
808.28	230.36
808.60	230.30
808.92	230.27
809.24	230.31
809.56	230.30
809.88	230.21
810.20	230.19
810.52	230.18
810.84	230.18
811.16	230.15
811.48	230.12
811.80	230.14
812.12	230.08
812.43	230.07
812.75	230.01
813.07	229.98
813.39	229.98
813.71	229.97
814.03	229.95
814.35	229.92
814.67	229.85
814.98	229.82
815.30	229.82
815.62	229.79
815.94	229.66
816.26	229.70
816.58	229.67
816.89	229.64
817.21	229.61
817.53	229.59
817.85	229.57
818.17	229.54
818.48	229.43
818.80	229.44
819.12	229.40
819.44	229.39
819.76	229.36
820.07	229.30
820.39	229.23
820.71	229.22
821.03	229.19
821.34	229.15
821.66	229.12
821.98	229.10
822.30	229.07
822.61	229.12
822.93	229.03
823.25	229.00
823.57	228.97
823.88	228.97
824.20	228.91
824.52	228.91
824.83	228.89
825.15	228.89
825.47	228.85
825.79	228.82
826.10	228.77
826.42	228.73
826.74	228.71
827.05	228.74
827.37	228.68
827.69	228.67
828.00	228.66
828.32	228.63
828.64	228.60
828.95	228.60
829.27	228.55
829.58	228.53
829.90	228.57
830.22	228.57
830.53	228.54
830.85	228.53
831.17	228.48
831.48	228.49
831.80	228.46
832.11	228.45
832.43	228.41
832.75	228.39
833.06	228.45
833.38	228.45
833.69	228.43
834.01	228.45
834.32	228.44
834.64	228.43
834.96	228.43
835.27	228.43
835.59	228.42
835.90	228.39
836.22	228.39
836.53	228.31
836.85	228.32
837.16	228.42
837.48	228.44
837.79	228.46
838.11	228.42
838.42	228.46
838.74	228.49
839.05	228.50
839.37	228.52
839.68	228.47
840.00	228.48
840.31	228.49
840.63	228.51
840.94	228.49
841.26	228.48
841.57	228.49
841.88	228.50
842.20	228.49
842.51	228.52
842.83	228.53
843.14	228.64
843.46	228.62
843.77	228.57
844.08	228.56
844.40	228.54
844.71	228.53
845.03	228.51
845.34	228.50
845.65	228.51
845.97	228.50
846.28	228.51
846.60	228.53
846.91	228.53
847.22	228.49
847.54	228.56
847.85	228.58
848.16	228.58
848.48	228.58
848.79	228.60
849.10	228.61
849.42	228.60
849.73	228.49
850.04	228.44
850.36	228.42
850.67	228.41
850.98	228.38
851.30	228.42
851.61	228.44
851.92	228.45
852.23	228.48
852.55	228.48
852.86	228.49
853.17	228.48
853.49	228.51
853.80	228.53
854.11	228.50
854.42	228.51
854.74	228.45
855.05	228.44
855.36	228.41
855.67	228.39
855.99	228.38
856.30	228.51
856.61	228.53
856.92	228.50
857.23	228.52
857.55	228.53
857.86	228.49
858.17	228.46
858.48	228.43
858.79	228.37
859.11	228.36
859.42	228.34
859.73	228.32
860.04	228.28
860.35	228.20
860.66	228.17
860.98	228.14
861.29	228.15
861.60	228.12
861.91	228.14
862.22	228.11
862.53	228.08
862.84	227.92
863.16	227.93
863.47	227.87
863.78	227.84
864.09	227.82
864.40	227.82
864.71	227.82
865.02	227.83
865.33	227.81
865.64	227.78
865.95	227.75
866.27	227.78
866.58	227.75
866.89	227.73
867.20	227.71
867.51	227.70
867.82	227.69
868.13	227.72
868.44	227.67
868.75	227.66
869.06	227.66
869.37	227.66
869.68	227.63
869.99	227.68
870.30	227.65
870.61	227.67
870.92	227.65
871.23	227.64
871.54	227.62
871.85	227.65
872.16	227.68
872.47	227.67
872.78	227.64
873.09	227.66
873.40	227.68
873.71	227.68
874.02	227.72
874.33	227.66
874.64	227.64
874.95	227.66
875.26	227.70
875.56	227.70
875.87	227.71
876.18	227.70
876.49	227.80
876.80	227.82
877.11	227.80
877.42	227.82
877.73	227.83
878.04	227.80
878.35	227.79
878.66	227.76
878.96	227.78
879.27	227.78
879.58	227.76
879.89	227.78
880.20	227.80
880.51	227.77
880.82	227.83
881.12	227.82
881.43	227.81
881.74	227.76
882.05	227.74
882.36	227.77
882.67	227.77
882.97	227.67
883.28	227.68
883.59	227.70
883.90	227.72
884.21	227.72
884.51	227.74
884.82	227.77
885.13	227.79
885.44	227.81
885.74	227.78
886.05	227.83
886.36	227.82
886.67	227.80
886.98	227.87
887.28	227.87
887.59	227.89
887.90	227.92
888.20	227.92
888.51	227.99
888.82	227.98
889.13	227.99
889.43	228.08
889.74	228.01
890.05	228.02
890.35	227.98
890.66	227.98
890.97	227.98
891.28	227.96
891.58	227.98
891.89	227.95
892.20	227.97
892.50	227.92
892.81	227.93
893.12	227.95
893.42	227.89
893.73	227.89
894.04	227.90
894.34	227.90
894.65	227.90
894.95	227.86
895.26	227.88
895.57	227.96
895.87	227.88
896.18	227.91
896.48	227.92
896.79	227.91
897.10	227.93
897.40	227.93
897.71	227.95
898.01	227.94
898.32	227.96
898.63	227.94
898.93	227.94
899.24	227.92
899.54	227.89
899.85	227.87
900.15	227.87
900.46	227.85
900.76	227.83
901.07	227.85
901.38	227.85
901.68	227.82
901.99	227.74
902.29	227.68
902.60	227.70
902.90	227.68
903.21	227.69
903.51	227.66
903.82	227.67
904.12	227.64
904.43	227.64
904.73	227.63
905.03	227.64
905.34	227.73
905.64	227.72
905.95	227.70
906.25	227.70
906.56	227.69
906.86	227.70
907.17	227.70
907.47	227.66
907.77	227.63
908.08	227.63
908.38	227.60
908.69	227.61
908.99	227.59
909.30	227.59
909.60	227.58
909.90	227.60
910.21	227.56
910.51	227.54
910.81	227.57
911.12	227.58
911.42	227.59
911.73	227.50
912.03	227.53
912.33	227.57
912.64	227.60
912.94	227.56
913.24	227.57
913.55	227.56
913.85	227.59
914.15	227.61
914.46	227.64
914.76	227.64
915.06	227.66
915.37	227.65
915.67	227.66
915.97	227.70
916.27	227.70
916.58	227.71
916.88	227.71
917.18	227.62
917.49	227.70
917.79	227.70
918.09	227.72
918.39	227.72
918.70	227.71
919.00	227.69
919.30	227.75
919.60	227.72
919.91	227.72
920.21	227.68
920.51	227.68
920.81	227.66
921.12	227.69
921.42	227.70
921.72	227.73
922.02	227.74
922.32	227.70
922.63	227.70
922.93	227.76
923.23	227.75
923.53	227.81
923.83	227.74
924.13	227.73
924.44	227.72
924.74	227.75
925.04	227.79
925.34	227.82
925.64	227.82
925.94	227.85
926.24	227.89
926.55	227.90
926.85	227.92
927.15	227.96
927.45	227.97
927.75	227.97
928.05	227.96
928.35	227.95
928.65	227.99
928.95	228.00
929.26	227.98
929.56	227.99
929.86	227.94
930.16	227.93
930.46	227.92
930.76	227.92
931.06	227.87
931.36	227.85
931.66	227.84
931.96	227.84
932.26	227.80
932.56	227.76
932.86	227.77
933.16	227.77
933.46	227.75
933.76	227.73
934.06	227.75
934.36	227.77
934.66	227.76
934.96	227.75
935.26	227.73
935.56	227.72
935.86	227.74
936.16	227.74
936.46	227.76
936.76	227.75
937.06	227.75
937.36	227.75
937.66	227.75
937.96	227.73
938.26	227.69
938.56	227.69
938.86	227.67
939.16	227.71
939.46	227.71
939.76	227.70
940.06	227.70
940.35	227.67
940.65	227.64
940.95	227.64
941.25	227.59
941.55	227.57
941.85	227.57
942.15	227.55
942.45	227.60
942.75	227.54
943.04	227.57
943.34	227.59
943.64	227.61
943.94	227.57
944.24	227.59
944.54	227.60
944.84	227.58
945.13	227.58
945.43	227.55
945.73	227.53
946.03	227.53
946.33	227.48
946.62	227.47
946.92	227.44
947.22	227.44
947.52	227.46
947.82	227.45
948.11	227.43
948.41	227.43
948.71	227.39
949.01	227.40
949.31	227.34
949.60	227.29
949.90	227.29
950.20	227.31
950.50	227.29
950.79	227.30
951.09	227.32
951.39	227.34
951.69	227.32
951.98	227.34
952.28	227.33
952.58	227.35
952.87	227.36
953.17	227.41
953.47	227.35
953.76	227.33
954.06	227.34
954.36	227.30
954.66	227.29
954.95	227.29
955.25	227.31
955.55	227.33
955.84	227.33
956.14	227.35
956.44	227.34
956.73	227.33
957.03	227.32
957.32	227.32
957.62	227.32
957.92	227.35
958.21	227.29
958.51	227.38
958.81	227.37
959.10	227.33
959.40	227.33
959.69	227.39
959.99	227.41
960.29	227.42
960.58	227.41
960.88	227.46
961.17	227.48
961.47	227.52
961.76	227.51
962.06	227.53
962.36	227.50
962.65	227.51
962.95	227.51
963.24	227.51
963.54	227.50
963.83	227.48
964.13	227.47
964.42	227.47
964.72	227.44
965.01	227.46
965.31	227.48
965.60	227.47
965.90	227.56
966.19	227.56
966.49	227.56
966.78	227.55
967.08	227.52
967.37	227.51
967.67	227.48
967.96	227.52
968.26	227.54
968.55	227.56
968.85	227.53
969.14	227.52
969.43	227.51
969.73	227.49
970.02	227.50
970.32	227.51
970.61	227.52
970.91	227.47
971.20	227.44
971.49	227.43
971.79	227.41
972.08	227.36
972.38	227.36
972.67	227.37
972.96	227.40
973.26	227.38
973.55	227.43
973.85	227.39
974.14	227.34
974.43	227.33
974.73	227.31
975.02	227.30
975.31	227.31
975.61	227.33
975.90	227.35
976.19	227.34
976.49	227.32
976.78	227.30
977.07	227.31
977.37	227.29
977.66	227.28
977.95	227.27
978.24	227.23
978.54	227.22
978.83	227.21
979.12	227.21
979.42	227.21
979.71	227.15
980.00	227.16
980.29	227.17
980.59	227.16
980.88	227.18
981.17	227.20
981.46	227.22
981.76	227.18
982.05	227.20
982.34	227.23
982.63	227.25
982.93	227.27
983.22	227.30
983.51	227.35
983.80	227.36
984.09	227.39
984.39	227.41
984.68	227.40
984.97	227.39
985.26	227.36
985.55	227.39
985.85	227.39
986.14	227.42
986.43	227.45
986.72	227.47
987.01	227.44
987.30	227.44
987.59	227.39
987.89	227.42
988.18	227.39
988.47	227.35
988.76	227.34
989.05	227.36
989.34	227.35
989.63	227.37
989.92	227.37
990.22	227.38
990.51	227.36
990.80	227.36
991.09	227.39
991.38	227.40
991.67	227.37
991.96	227.37
992.25	227.34
992.54	227.32
992.83	227.30
993.12	227.30
993.41	227.33
993.70	227.39
993.99	227.41
994.28	227.45
994.58	227.45
994.87	227.46
995.16	227.45
995.45	227.44
995.74	227.40
996.03	227.40
996.32	227.38
996.61	227.42
996.90	227.46
997.19	227.45
997.48	227.44
997.77	227.43
998.06	227.43
998.34	227.45
998.63	227.46
998.92	227.49
999.21	227.47
999.50	227.47
999.79	227.44
1000.08	227.44
1000.37	227.40
1000.66	227.43
1000.95	227.43
1001.24	227.43
1001.53	227.47
1001.82	227.49
1002.11	227.48
1002.40	227.48
1002.68	227.50
1002.97	227.54
1003.26	227.52
1003.55	227.53
1003.84	227.52
1004.13	227.59
1004.42	227.58
1004.71	227.57
1004.99	227.53
1005.28	227.59
1005.57	227.62
1005.86	227.58
1006.15	227.57
1006.44	227.56
1006.72	227.54
1007.01	227.50
1007.30	227.47
1007.59	227.45
1007.88	227.44
1008.17	227.44
1008.45	227.42
1008.74	227.37
1009.03	227.30
1009.32	227.32
1009.60	227.32
1009.89	227.34
1010.18	227.29
1010.47	227.28
1010.76	227.30
1011.04	227.32
1011.33	227.31
1011.62	227.27
1011.91	227.29
1012.19	227.28
1012.48	227.30
1012.77	227.31
1013.05	227.41
1013.34	227.46
1013.63	227.47
1013.92	227.48
1014.20	227.46
1014.49	227.49
1014.78	227.52
1015.06	227.51
1015.35	227.50
1015.64	227.50
1015.92	227.51
1016.21	227.53
1016.50	227.51
1016.78	227.53
1017.07	227.50
1017.36	227.48
1017.64	227.47
1017.93	227.48
1018.22	227.49
1018.50	227.48
1018.79	227.48
1019.08	227.38
1019.36	227.36
1019.65	227.36
1019.93	227.38
1020.22	227.39
1020.51	227.43
1020.79	227.39
1021.08	227.35
1021.36	227.24
1021.65	227.26
1021.94	227.21
1022.22	227.52
1022.51	227.45
1022.79	227.84
1023.08	227.11
1023.36	228.49
1023.65	227.05
>>>>>End Processed Spectral Data<<<<<
