SpectraSuite Data File
++++++++++++++++++++++++++++++++++++
Date: Fri Feb 01 15:18:52 EST 2013
User: group
Dark Spectrum Present: No
Reference Spectrum Present: No
Number of Sampled Component Spectra: 1
Spectrometers: USB2E7196
Integration Time (usec): 35000 (USB2E7196)
Spectra Averaged: 100 (USB2E7196)
Boxcar Smoothing: 10 (USB2E7196)
Correct for Electrical Dark: No (USB2E7196)
Strobe/Lamp Enabled: No (USB2E7196)
Correct for Detector Non-linearity: No (USB2E7196)
Correct for Stray Light: No (USB2E7196)
Number of Pixels in Processed Spectrum: 2048
>>>>>Begin Processed Spectral Data<<<<<
339.09	0.00
339.48	215.07
339.86	216.73
340.24	217.79
340.63	219.24
341.01	222.27
341.39	221.70
341.78	223.74
342.16	224.34
342.54	225.52
342.93	213.43
343.31	224.22
343.69	224.75
344.07	225.22
344.46	225.67
344.84	226.06
345.22	226.28
345.60	226.56
345.99	226.71
346.37	226.82
346.75	226.90
347.13	226.96
347.52	227.02
347.90	227.10
348.28	227.13
348.66	227.15
349.05	227.13
349.43	227.17
349.81	227.21
350.19	227.26
350.57	227.30
350.96	227.38
351.34	227.47
351.72	227.54
352.10	227.60
352.48	227.66
352.87	227.72
353.25	227.79
353.63	227.83
354.01	227.90
354.39	228.01
354.77	228.07
355.15	228.16
355.54	228.21
355.92	228.23
356.30	228.32
356.68	228.48
357.06	228.58
357.44	228.64
357.82	228.71
358.20	228.77
358.58	228.87
358.97	228.93
359.35	229.01
359.73	229.09
360.11	229.17
360.49	229.19
360.87	229.23
361.25	229.27
361.63	229.35
362.01	229.38
362.39	229.38
362.77	229.43
363.15	229.42
363.53	229.48
363.91	229.50
364.29	229.54
364.67	229.46
365.05	229.49
365.43	229.49
365.81	229.47
366.19	229.50
366.57	229.48
366.95	229.48
367.33	229.42
367.71	229.42
368.09	229.41
368.47	229.42
368.85	229.38
369.23	229.40
369.61	229.31
369.99	229.31
370.37	229.26
370.75	229.24
371.13	229.20
371.51	229.12
371.89	229.08
372.27	229.01
372.65	228.94
373.03	228.89
373.41	228.84
373.78	228.78
374.16	228.65
374.54	228.56
374.92	228.50
375.30	228.44
375.68	228.36
376.06	228.31
376.44	228.22
376.82	228.16
377.19	228.08
377.57	227.99
377.95	227.90
378.33	227.85
378.71	227.74
379.09	227.68
379.47	227.61
379.84	227.54
380.22	227.45
380.60	227.38
380.98	227.30
381.36	227.23
381.73	227.15
382.11	227.13
382.49	227.06
382.87	226.95
383.25	226.91
383.62	226.95
384.00	226.88
384.38	226.81
384.76	226.78
385.13	226.76
385.51	226.77
385.89	226.69
386.27	226.67
386.64	226.64
387.02	226.61
387.40	226.56
387.78	226.52
388.15	226.50
388.53	226.45
388.91	226.42
389.29	226.39
389.66	226.42
390.04	226.37
390.42	226.39
390.79	226.41
391.17	226.38
391.55	226.27
391.92	226.26
392.30	226.27
392.68	226.29
393.05	226.27
393.43	226.28
393.81	226.31
394.18	226.32
394.56	226.34
394.94	226.40
395.31	226.43
395.69	226.51
396.06	226.54
396.44	226.60
396.82	226.65
397.19	226.73
397.57	226.76
397.95	226.83
398.32	226.89
398.70	226.93
399.07	227.02
399.45	227.11
399.82	227.20
400.20	227.24
400.58	227.30
400.95	227.36
401.33	227.46
401.70	227.63
402.08	227.74
402.45	227.83
402.83	227.93
403.20	228.07
403.58	228.15
403.95	228.30
404.33	228.46
404.71	228.58
405.08	228.74
405.46	228.87
405.83	229.04
406.21	229.17
406.58	229.35
406.96	229.57
407.33	229.74
407.70	229.93
408.08	230.23
408.45	230.46
408.83	230.70
409.20	230.90
409.58	231.09
409.95	231.36
410.33	231.66
410.70	231.88
411.08	232.16
411.45	232.49
411.82	232.81
412.20	233.12
412.57	233.55
412.95	233.88
413.32	234.30
413.69	234.70
414.07	235.12
414.44	235.59
414.82	236.04
415.19	236.59
415.56	237.13
415.94	237.67
416.31	238.31
416.68	238.94
417.06	239.70
417.43	240.37
417.81	241.14
418.18	241.86
418.55	242.73
418.93	243.61
419.30	244.49
419.67	245.43
420.04	246.42
420.42	247.39
420.79	248.59
421.16	249.74
421.54	250.96
421.91	252.19
422.28	253.43
422.66	254.74
423.03	256.03
423.40	257.39
423.77	258.75
424.15	260.14
424.52	261.65
424.89	263.24
425.26	264.76
425.64	266.20
426.01	267.80
426.38	269.44
426.75	271.10
427.13	272.86
427.50	274.65
427.87	276.52
428.24	278.39
428.61	280.09
428.99	282.03
429.36	284.13
429.73	286.20
430.10	288.25
430.47	290.31
430.85	292.40
431.22	294.57
431.59	297.02
431.96	299.28
432.33	301.73
432.70	304.04
433.08	306.88
433.45	309.55
433.82	312.22
434.19	315.11
434.56	317.96
434.93	320.64
435.30	323.33
435.68	326.21
436.05	329.05
436.42	331.87
436.79	334.39
437.16	337.07
437.53	339.90
437.90	342.74
438.27	345.49
438.64	348.37
439.01	351.04
439.38	353.28
439.75	355.46
440.13	358.01
440.50	360.39
440.87	362.27
441.24	364.25
441.61	366.41
441.98	367.90
442.35	369.65
442.72	371.47
443.09	373.23
443.46	374.20
443.83	374.75
444.20	375.23
444.57	376.08
444.94	376.38
445.31	376.75
445.68	377.11
446.05	377.20
446.42	376.79
446.79	376.38
447.16	375.92
447.53	375.58
447.90	374.41
448.27	373.24
448.64	371.60
449.01	370.44
449.37	368.43
449.74	366.52
450.11	364.27
450.48	361.80
450.85	359.23
451.22	357.12
451.59	355.10
451.96	353.17
452.33	350.56
452.70	348.18
453.07	345.26
453.43	342.33
453.80	339.54
454.17	336.82
454.54	334.22
454.91	331.49
455.28	328.81
455.65	326.28
456.02	323.88
456.38	321.75
456.75	319.05
457.12	316.80
457.49	314.58
457.86	312.39
458.23	310.51
458.59	308.47
458.96	306.39
459.33	304.55
459.70	302.66
460.07	301.15
460.43	299.42
460.80	297.83
461.17	296.37
461.54	294.87
461.91	293.46
462.27	292.02
462.64	290.76
463.01	289.40
463.38	288.11
463.74	286.67
464.11	285.50
464.48	284.49
464.85	283.39
465.21	282.55
465.58	281.65
465.95	280.56
466.32	279.67
466.68	278.77
467.05	277.88
467.42	276.99
467.78	276.03
468.15	275.15
468.52	274.48
468.88	273.62
469.25	272.83
469.62	272.22
469.98	271.56
470.35	270.91
470.72	270.30
471.08	269.62
471.45	269.09
471.82	268.55
472.18	267.92
472.55	267.45
472.92	266.90
473.28	266.40
473.65	265.94
474.02	265.54
474.38	265.14
474.75	264.80
475.11	264.45
475.48	264.19
475.85	263.97
476.21	263.77
476.58	263.59
476.94	263.44
477.31	263.26
477.67	263.12
478.04	262.99
478.41	262.93
478.77	262.97
479.14	262.90
479.50	262.86
479.87	262.94
480.23	263.01
480.60	263.11
480.96	263.18
481.33	263.39
481.69	263.56
482.06	263.75
482.42	263.93
482.79	264.20
483.15	264.53
483.52	264.89
483.88	265.24
484.25	265.60
484.61	266.04
484.98	266.45
485.34	266.99
485.71	267.58
486.07	268.19
486.44	268.75
486.80	269.46
487.17	270.20
487.53	271.00
487.90	271.84
488.26	272.77
488.62	273.77
488.99	274.76
489.35	275.78
489.72	276.87
490.08	278.08
490.44	279.29
490.81	280.61
491.17	281.96
491.54	283.41
491.90	284.97
492.26	286.62
492.63	288.37
492.99	290.14
493.36	292.03
493.72	294.08
494.08	296.18
494.45	298.43
494.81	300.79
495.17	303.25
495.54	305.83
495.90	308.51
496.26	311.31
496.63	314.25
496.99	317.32
497.35	320.60
497.72	324.02
498.08	327.60
498.44	331.27
498.80	335.20
499.17	339.20
499.53	343.38
499.89	347.77
500.26	352.28
500.62	356.99
500.98	361.99
501.34	367.07
501.71	372.45
502.07	377.88
502.43	383.52
502.79	389.35
503.16	395.36
503.52	401.58
503.88	407.97
504.24	414.61
504.60	421.50
504.97	428.61
505.33	435.94
505.69	443.60
506.05	451.34
506.41	459.22
506.78	467.45
507.14	475.87
507.50	484.60
507.86	493.60
508.22	502.76
508.59	511.93
508.95	521.50
509.31	531.23
509.67	541.37
510.03	551.66
510.39	562.17
510.75	573.01
511.12	584.06
511.48	595.36
511.84	606.84
512.20	618.39
512.56	630.32
512.92	642.47
513.28	654.79
513.64	667.35
514.00	680.09
514.37	692.95
514.73	706.02
515.09	719.03
515.45	732.40
515.81	745.98
516.17	760.02
516.53	774.16
516.89	788.39
517.25	802.51
517.61	816.91
517.97	831.45
518.33	845.92
518.69	860.65
519.05	875.76
519.41	890.95
519.77	906.68
520.13	922.23
520.49	937.66
520.85	953.14
521.21	968.89
521.57	985.13
521.93	1000.97
522.29	1017.38
522.65	1033.65
523.01	1049.92
523.37	1066.02
523.73	1082.20
524.09	1098.30
524.45	1114.70
524.81	1131.43
525.17	1148.36
525.53	1165.34
525.89	1182.23
526.25	1199.06
526.61	1215.40
526.97	1232.14
527.33	1248.48
527.68	1265.21
528.04	1281.87
528.40	1298.58
528.76	1315.56
529.12	1332.24
529.48	1349.17
529.84	1365.36
530.20	1382.17
530.56	1399.21
530.91	1416.69
531.27	1433.51
531.63	1450.07
531.99	1466.74
532.35	1482.68
532.71	1498.66
533.07	1514.89
533.42	1530.92
533.78	1547.09
534.14	1563.53
534.50	1578.95
534.86	1594.95
535.21	1610.00
535.57	1625.96
535.93	1641.51
536.29	1656.50
536.65	1671.60
537.00	1686.51
537.36	1701.82
537.72	1716.36
538.08	1730.79
538.44	1744.62
538.79	1758.57
539.15	1772.39
539.51	1786.14
539.87	1800.64
540.22	1814.43
540.58	1828.34
540.94	1841.80
541.29	1854.81
541.65	1867.54
542.01	1880.95
542.37	1893.34
542.72	1905.95
543.08	1917.69
543.44	1930.15
543.79	1941.38
544.15	1952.45
544.51	1964.06
544.87	1975.04
545.22	1985.85
545.58	1996.27
545.94	2006.10
546.29	2015.94
546.65	2025.81
547.01	2035.06
547.36	2043.91
547.72	2052.31
548.07	2060.09
548.43	2068.22
548.79	2076.21
549.14	2083.68
549.50	2091.04
549.86	2098.92
550.21	2106.14
550.57	2113.44
550.92	2119.99
551.28	2127.16
551.64	2134.26
551.99	2140.77
552.35	2147.05
552.70	2153.19
553.06	2158.99
553.41	2165.32
553.77	2171.43
554.13	2177.46
554.48	2183.69
554.84	2188.92
555.19	2194.46
555.55	2199.68
555.90	2204.04
556.26	2208.81
556.61	2213.65
556.97	2217.83
557.32	2221.82
557.68	2226.13
558.03	2230.34
558.39	2234.05
558.74	2238.62
559.10	2242.51
559.45	2246.24
559.81	2250.46
560.16	2254.32
560.52	2257.62
560.87	2261.11
561.23	2263.80
561.58	2266.73
561.94	2269.15
562.29	2271.75
562.64	2274.26
563.00	2276.87
563.35	2280.59
563.71	2283.87
564.06	2287.04
564.42	2289.90
564.77	2292.23
565.12	2294.28
565.48	2296.11
565.83	2297.82
566.19	2298.94
566.54	2299.82
566.89	2300.90
567.25	2301.43
567.60	2302.68
567.96	2304.21
568.31	2304.90
568.66	2305.89
569.02	2306.45
569.37	2306.64
569.72	2307.26
570.08	2307.30
570.43	2307.15
570.78	2306.28
571.14	2304.64
571.49	2303.16
571.84	2302.84
572.20	2301.62
572.55	2300.47
572.90	2298.99
573.26	2297.66
573.61	2296.18
573.96	2294.20
574.31	2291.13
574.67	2288.02
575.02	2284.27
575.37	2280.87
575.72	2277.06
576.08	2273.66
576.43	2270.25
576.78	2266.59
577.13	2263.49
577.49	2260.47
577.84	2257.00
578.19	2253.31
578.54	2249.43
578.90	2245.18
579.25	2239.50
579.60	2234.57
579.95	2229.61
580.30	2224.39
580.66	2219.19
581.01	2213.97
581.36	2208.90
581.71	2204.54
582.06	2199.87
582.42	2195.37
582.77	2190.05
583.12	2185.29
583.47	2180.36
583.82	2175.14
584.17	2169.78
584.53	2164.06
584.88	2158.16
585.23	2152.22
585.58	2146.71
585.93	2141.32
586.28	2136.51
586.63	2131.42
586.98	2126.35
587.34	2121.53
587.69	2116.64
588.04	2111.20
588.39	2105.50
588.74	2099.08
589.09	2092.80
589.44	2086.00
589.79	2079.94
590.14	2074.33
590.49	2067.75
590.84	2061.33
591.19	2055.31
591.54	2048.70
591.89	2041.17
592.25	2034.30
592.60	2027.07
592.95	2019.30
593.30	2011.91
593.65	2004.34
594.00	1997.21
594.35	1989.79
594.70	1981.70
595.05	1974.19
595.40	1966.79
595.75	1959.26
596.10	1952.90
596.45	1946.14
596.80	1940.05
597.15	1933.26
597.50	1926.07
597.85	1919.61
598.19	1912.89
598.54	1905.89
598.89	1899.31
599.24	1893.45
599.59	1886.68
599.94	1880.44
600.29	1874.03
600.64	1867.46
600.99	1859.70
601.34	1852.69
601.69	1845.71
602.04	1838.65
602.39	1831.41
602.74	1824.65
603.08	1817.91
603.43	1811.20
603.78	1803.94
604.13	1796.65
604.48	1789.39
604.83	1782.49
605.18	1775.49
605.53	1767.45
605.87	1759.27
606.22	1751.95
606.57	1743.93
606.92	1736.68
607.27	1729.43
607.62	1722.48
607.96	1715.01
608.31	1708.49
608.66	1700.88
609.01	1693.27
609.36	1685.78
609.70	1677.65
610.05	1669.48
610.40	1661.75
610.75	1653.43
611.10	1645.76
611.44	1637.38
611.79	1629.44
612.14	1620.70
612.49	1611.65
612.83	1603.29
613.18	1595.25
613.53	1587.24
613.88	1578.79
614.22	1570.58
614.57	1561.94
614.92	1553.97
615.27	1546.45
615.61	1538.09
615.96	1530.08
616.31	1522.47
616.65	1515.09
617.00	1507.66
617.35	1500.07
617.70	1491.64
618.04	1483.12
618.39	1474.84
618.74	1467.24
619.08	1458.84
619.43	1451.27
619.78	1444.23
620.12	1437.10
620.47	1429.37
620.82	1421.21
621.16	1413.80
621.51	1406.13
621.85	1398.54
622.20	1389.89
622.55	1381.52
622.89	1373.70
623.24	1366.00
623.59	1358.62
623.93	1351.07
624.28	1343.74
624.62	1336.15
624.97	1328.95
625.32	1322.15
625.66	1315.20
626.01	1307.84
626.35	1300.37
626.70	1292.69
627.04	1284.87
627.39	1277.12
627.73	1269.75
628.08	1262.82
628.43	1255.45
628.77	1248.05
629.12	1240.49
629.46	1233.30
629.81	1225.90
630.15	1218.67
630.50	1211.30
630.84	1203.00
631.19	1195.20
631.53	1187.79
631.88	1180.21
632.22	1172.66
632.57	1165.41
632.91	1157.84
633.26	1150.54
633.60	1143.24
633.95	1136.12
634.29	1129.22
634.64	1122.52
634.98	1115.29
635.32	1108.12
635.67	1101.69
636.01	1095.01
636.36	1088.22
636.70	1081.81
637.05	1075.27
637.39	1068.79
637.73	1062.36
638.08	1056.63
638.42	1050.64
638.77	1044.16
639.11	1037.62
639.45	1031.24
639.80	1024.65
640.14	1018.25
640.49	1011.70
640.83	1005.42
641.17	999.10
641.52	992.78
641.86	986.39
642.20	980.54
642.55	974.27
642.89	967.65
643.23	961.20
643.58	955.39
643.92	949.17
644.26	943.06
644.61	937.07
644.95	931.01
645.29	924.39
645.64	917.65
645.98	911.26
646.32	905.45
646.66	899.40
647.01	893.50
647.35	887.79
647.69	881.95
648.04	876.39
648.38	870.64
648.72	864.60
649.06	858.56
649.41	852.62
649.75	846.57
650.09	840.69
650.43	834.89
650.78	828.76
651.12	822.80
651.46	817.08
651.80	811.33
652.14	805.99
652.49	800.67
652.83	795.52
653.17	789.85
653.51	784.13
653.85	778.74
654.20	773.11
654.54	767.11
654.88	761.48
655.22	755.63
655.56	749.98
655.90	744.48
656.25	739.22
656.59	733.96
656.93	728.94
657.27	723.79
657.61	718.36
657.95	713.28
658.29	708.26
658.64	703.05
658.98	697.84
659.32	692.30
659.66	687.00
660.00	681.65
660.34	676.77
660.68	671.86
661.02	666.87
661.36	662.19
661.70	657.75
662.05	653.46
662.39	649.16
662.73	644.69
663.07	640.37
663.41	635.96
663.75	631.43
664.09	626.87
664.43	622.46
664.77	618.34
665.11	614.13
665.45	610.04
665.79	606.01
666.13	601.82
666.47	597.81
666.81	593.72
667.15	589.64
667.49	585.73
667.83	581.98
668.17	578.04
668.51	574.00
668.85	569.96
669.19	565.99
669.53	562.08
669.87	558.20
670.21	554.44
670.55	550.78
670.89	547.31
671.23	543.88
671.57	540.39
671.91	536.85
672.25	533.34
672.58	529.84
672.92	526.46
673.26	523.30
673.60	520.16
673.94	517.02
674.28	514.15
674.62	511.18
674.96	508.05
675.30	505.08
675.64	502.12
675.97	499.31
676.31	496.49
676.65	493.57
676.99	490.91
677.33	488.10
677.67	485.25
678.01	482.22
678.34	479.24
678.68	476.37
679.02	473.60
679.36	470.83
679.70	468.13
680.04	465.29
680.37	462.44
680.71	459.60
681.05	456.99
681.39	454.28
681.73	451.67
682.06	449.13
682.40	446.59
682.74	444.10
683.08	441.59
683.42	439.02
683.75	436.51
684.09	433.98
684.43	431.52
684.77	429.08
685.10	426.80
685.44	424.53
685.78	422.26
686.12	419.96
686.45	417.70
686.79	415.33
687.13	413.16
687.46	411.08
687.80	408.94
688.14	406.76
688.48	404.73
688.81	402.46
689.15	400.30
689.49	398.22
689.82	396.14
690.16	394.08
690.50	392.13
690.83	390.21
691.17	388.25
691.51	386.38
691.84	384.54
692.18	382.59
692.52	380.60
692.85	378.71
693.19	376.87
693.52	375.07
693.86	373.33
694.20	371.58
694.53	369.74
694.87	367.97
695.21	366.17
695.54	364.35
695.88	362.65
696.21	360.99
696.55	359.33
696.88	357.64
697.22	355.96
697.56	354.34
697.89	352.70
698.23	351.11
698.56	349.50
698.90	347.91
699.23	346.29
699.57	344.74
699.90	343.17
700.24	341.65
700.58	340.11
700.91	338.61
701.25	337.17
701.58	335.82
701.92	334.41
702.25	333.06
702.59	331.68
702.92	330.35
703.26	329.04
703.59	327.75
703.93	326.60
704.26	325.40
704.60	324.08
704.93	322.87
705.26	321.63
705.60	320.47
705.93	319.36
706.27	318.36
706.60	317.33
706.94	316.28
707.27	315.16
707.61	314.08
707.94	313.04
708.27	311.93
708.61	310.81
708.94	309.81
709.28	308.82
709.61	307.90
709.94	306.98
710.28	305.93
710.61	304.95
710.95	303.90
711.28	302.97
711.61	302.05
711.95	301.12
712.28	300.17
712.61	299.19
712.95	298.27
713.28	297.36
713.61	296.43
713.95	295.53
714.28	294.68
714.61	293.82
714.95	292.98
715.28	292.14
715.61	291.30
715.95	290.43
716.28	289.56
716.61	288.73
716.95	287.90
717.28	287.19
717.61	286.42
717.94	285.65
718.28	284.84
718.61	284.13
718.94	283.38
719.27	282.72
719.61	282.08
719.94	281.44
720.27	280.74
720.60	280.09
720.94	279.48
721.27	278.84
721.60	278.26
721.93	277.69
722.27	277.17
722.60	276.58
722.93	276.01
723.26	275.48
723.59	274.88
723.93	274.30
724.26	273.72
724.59	273.20
724.92	272.66
725.25	272.17
725.59	271.62
725.92	271.14
726.25	270.61
726.58	270.12
726.91	269.58
727.24	269.07
727.57	268.58
727.91	268.11
728.24	267.66
728.57	267.18
728.90	266.73
729.23	266.20
729.56	265.80
729.89	265.34
730.22	264.87
730.55	264.43
730.89	264.02
731.22	263.58
731.55	263.14
731.88	262.73
732.21	262.29
732.54	261.83
732.87	261.38
733.20	260.98
733.53	260.59
733.86	260.22
734.19	259.85
734.52	259.49
734.85	259.14
735.18	258.75
735.51	258.39
735.84	258.00
736.17	257.69
736.50	257.28
736.83	257.08
737.16	256.75
737.49	256.47
737.82	256.10
738.15	255.76
738.48	255.40
738.81	255.09
739.14	254.75
739.47	254.46
739.80	254.14
740.13	253.85
740.46	253.49
740.79	253.21
741.12	252.89
741.45	252.58
741.78	252.22
742.11	251.93
742.44	251.63
742.77	251.31
743.10	250.98
743.43	250.69
743.75	250.28
744.08	250.10
744.41	249.75
744.74	249.54
745.07	249.26
745.40	249.04
745.73	248.81
746.06	248.59
746.39	248.34
746.71	248.13
747.04	247.86
747.37	247.64
747.70	247.37
748.03	247.12
748.36	246.91
748.68	246.67
749.01	246.44
749.34	246.18
749.67	245.98
750.00	245.76
750.33	245.58
750.65	245.40
750.98	245.06
751.31	244.83
751.64	244.59
751.97	244.46
752.29	244.25
752.62	244.00
752.95	243.80
753.28	243.57
753.60	243.34
753.93	243.13
754.26	242.94
754.59	242.73
754.91	242.53
755.24	242.33
755.57	242.14
755.90	241.95
756.22	241.76
756.55	241.56
756.88	241.34
757.20	241.15
757.53	240.92
757.86	240.76
758.19	240.65
758.51	240.48
758.84	240.25
759.17	240.05
759.49	239.89
759.82	239.72
760.15	239.62
760.47	239.49
760.80	239.32
761.13	239.18
761.45	239.02
761.78	238.86
762.11	238.68
762.43	238.54
762.76	238.38
763.08	238.28
763.41	238.18
763.74	238.07
764.06	237.92
764.39	237.81
764.71	237.69
765.04	237.54
765.37	237.37
765.69	237.27
766.02	237.13
766.34	237.01
766.67	236.87
767.00	236.73
767.32	236.65
767.65	236.60
767.97	236.46
768.30	236.33
768.62	236.25
768.95	236.12
769.27	236.01
769.60	235.93
769.92	235.81
770.25	235.64
770.57	235.53
770.90	235.40
771.22	235.31
771.55	235.19
771.87	235.07
772.20	235.01
772.52	234.97
772.85	234.98
773.17	234.90
773.50	234.80
773.82	234.71
774.15	234.54
774.47	234.40
774.80	234.29
775.12	234.21
775.45	234.08
775.77	234.03
776.09	233.98
776.42	233.90
776.74	233.84
777.07	233.80
777.39	233.75
777.72	233.66
778.04	233.59
778.36	233.52
778.69	233.47
779.01	233.38
779.33	233.22
779.66	233.06
779.98	232.97
780.31	232.91
780.63	232.90
780.95	232.87
781.28	232.82
781.60	232.79
781.92	232.76
782.25	232.73
782.57	232.69
782.89	232.60
783.22	232.51
783.54	232.42
783.86	232.34
784.19	232.27
784.51	232.28
784.83	232.22
785.16	232.18
785.48	232.10
785.80	232.10
786.12	232.07
786.45	232.05
786.77	232.02
787.09	231.98
787.42	231.88
787.74	231.86
788.06	231.84
788.38	231.77
788.71	231.74
789.03	231.70
789.35	231.65
789.67	231.63
789.99	231.61
790.32	231.57
790.64	231.57
790.96	231.58
791.28	231.51
791.61	231.47
791.93	231.44
792.25	231.47
792.57	231.46
792.89	231.43
793.21	231.37
793.54	231.30
793.86	231.21
794.18	231.17
794.50	231.12
794.82	231.06
795.14	231.06
795.47	231.02
795.79	230.94
796.11	230.89
796.43	230.82
796.75	230.78
797.07	230.75
797.39	230.68
797.71	230.60
798.04	230.55
798.36	230.50
798.68	230.42
799.00	230.35
799.32	230.30
799.64	230.26
799.96	230.23
800.28	230.24
800.60	230.23
800.92	230.20
801.24	230.13
801.56	230.08
801.89	230.03
802.21	230.01
802.53	229.99
802.85	229.95
803.17	230.00
803.49	229.95
803.81	229.93
804.13	229.85
804.45	229.81
804.77	229.83
805.09	229.82
805.41	229.81
805.73	229.78
806.05	229.72
806.37	229.69
806.69	229.63
807.01	229.55
807.33	229.54
807.65	229.47
807.97	229.48
808.28	229.46
808.60	229.41
808.92	229.34
809.24	229.38
809.56	229.37
809.88	229.28
810.20	229.27
810.52	229.26
810.84	229.25
811.16	229.18
811.48	229.12
811.80	229.14
812.12	229.13
812.43	229.11
812.75	229.06
813.07	229.02
813.39	229.02
813.71	229.04
814.03	229.02
814.35	229.04
814.67	229.01
814.98	229.01
815.30	228.98
815.62	228.98
815.94	228.90
816.26	228.92
816.58	228.90
816.89	228.89
817.21	228.84
817.53	228.83
817.85	228.86
818.17	228.83
818.48	228.78
818.80	228.78
819.12	228.77
819.44	228.77
819.76	228.74
820.07	228.73
820.39	228.67
820.71	228.65
821.03	228.60
821.34	228.61
821.66	228.59
821.98	228.61
822.30	228.59
822.61	228.64
822.93	228.58
823.25	228.58
823.57	228.58
823.88	228.61
824.20	228.60
824.52	228.58
824.83	228.58
825.15	228.53
825.47	228.49
825.79	228.47
826.10	228.45
826.42	228.44
826.74	228.43
827.05	228.44
827.37	228.42
827.69	228.41
828.00	228.40
828.32	228.40
828.64	228.37
828.95	228.41
829.27	228.34
829.58	228.33
829.90	228.32
830.22	228.30
830.53	228.26
830.85	228.24
831.17	228.22
831.48	228.20
831.80	228.21
832.11	228.19
832.43	228.15
832.75	228.15
833.06	228.18
833.38	228.17
833.69	228.15
834.01	228.14
834.32	228.13
834.64	228.08
834.96	228.07
835.27	228.06
835.59	227.99
835.90	227.96
836.22	227.95
836.53	227.91
836.85	227.90
837.16	227.99
837.48	227.99
837.79	227.99
838.11	227.97
838.42	227.95
838.74	227.95
839.05	227.93
839.37	227.89
839.68	227.84
840.00	227.79
840.31	227.81
840.63	227.78
840.94	227.73
841.26	227.70
841.57	227.67
841.88	227.66
842.20	227.66
842.51	227.66
842.83	227.63
843.14	227.70
843.46	227.69
843.77	227.61
844.08	227.60
844.40	227.58
844.71	227.56
845.03	227.56
845.34	227.55
845.65	227.56
845.97	227.58
846.28	227.56
846.60	227.59
846.91	227.55
847.22	227.57
847.54	227.62
847.85	227.62
848.16	227.60
848.48	227.59
848.79	227.59
849.10	227.64
849.42	227.65
849.73	227.60
850.04	227.59
850.36	227.56
850.67	227.55
850.98	227.55
851.30	227.54
851.61	227.53
851.92	227.54
852.23	227.57
852.55	227.56
852.86	227.58
853.17	227.59
853.49	227.63
853.80	227.66
854.11	227.64
854.42	227.67
854.74	227.67
855.05	227.69
855.36	227.66
855.67	227.65
855.99	227.67
856.30	227.79
856.61	227.77
856.92	227.79
857.23	227.77
857.55	227.76
857.86	227.74
858.17	227.76
858.48	227.74
858.79	227.72
859.11	227.75
859.42	227.73
859.73	227.72
860.04	227.71
860.35	227.66
860.66	227.64
860.98	227.64
861.29	227.64
861.60	227.63
861.91	227.63
862.22	227.59
862.53	227.57
862.84	227.40
863.16	227.44
863.47	227.46
863.78	227.46
864.09	227.47
864.40	227.51
864.71	227.50
865.02	227.51
865.33	227.47
865.64	227.43
865.95	227.42
866.27	227.49
866.58	227.46
866.89	227.48
867.20	227.47
867.51	227.44
867.82	227.45
868.13	227.46
868.44	227.41
868.75	227.42
869.06	227.44
869.37	227.49
869.68	227.44
869.99	227.40
870.30	227.39
870.61	227.39
870.92	227.35
871.23	227.36
871.54	227.36
871.85	227.40
872.16	227.39
872.47	227.38
872.78	227.27
873.09	227.26
873.40	227.22
873.71	227.25
874.02	227.27
874.33	227.26
874.64	227.21
874.95	227.24
875.26	227.21
875.56	227.16
875.87	227.14
876.18	227.15
876.49	227.24
876.80	227.23
877.11	227.20
877.42	227.23
877.73	227.21
878.04	227.19
878.35	227.16
878.66	227.17
878.96	227.17
879.27	227.19
879.58	227.19
879.89	227.19
880.20	227.21
880.51	227.18
880.82	227.17
881.12	227.19
881.43	227.17
881.74	227.15
882.05	227.13
882.36	227.11
882.67	227.14
882.97	226.98
883.28	226.98
883.59	226.97
883.90	226.97
884.21	226.98
884.51	226.96
884.82	226.95
885.13	226.95
885.44	226.95
885.74	226.98
886.05	227.00
886.36	227.01
886.67	226.96
886.98	227.00
887.28	227.02
887.59	227.04
887.90	227.04
888.20	227.07
888.51	227.11
888.82	227.10
889.13	227.07
889.43	227.24
889.74	227.25
890.05	227.24
890.35	227.23
890.66	227.22
890.97	227.23
891.28	227.25
891.58	227.29
891.89	227.30
892.20	227.28
892.50	227.30
892.81	227.35
893.12	227.37
893.42	227.31
893.73	227.32
894.04	227.30
894.34	227.33
894.65	227.32
894.95	227.33
895.26	227.36
895.57	227.43
895.87	227.31
896.18	227.34
896.48	227.40
896.79	227.43
897.10	227.42
897.40	227.45
897.71	227.47
898.01	227.45
898.32	227.44
898.63	227.45
898.93	227.42
899.24	227.41
899.54	227.41
899.85	227.42
900.15	227.41
900.46	227.44
900.76	227.47
901.07	227.48
901.38	227.47
901.68	227.48
901.99	227.44
902.29	227.47
902.60	227.46
902.90	227.43
903.21	227.41
903.51	227.42
903.82	227.45
904.12	227.42
904.43	227.40
904.73	227.37
905.03	227.39
905.34	227.47
905.64	227.45
905.95	227.43
906.25	227.45
906.56	227.45
906.86	227.46
907.17	227.42
907.47	227.40
907.77	227.41
908.08	227.38
908.38	227.37
908.69	227.36
908.99	227.36
909.30	227.38
909.60	227.37
909.90	227.37
910.21	227.30
910.51	227.28
910.81	227.28
911.12	227.29
911.42	227.25
911.73	227.14
912.03	227.14
912.33	227.17
912.64	227.13
912.94	227.09
913.24	227.06
913.55	227.05
913.85	227.02
914.15	227.01
914.46	227.01
914.76	226.97
915.06	226.93
915.37	226.91
915.67	226.88
915.97	226.85
916.27	226.81
916.58	226.83
916.88	226.82
917.18	226.81
917.49	226.89
917.79	226.88
918.09	226.87
918.39	226.88
918.70	226.83
919.00	226.86
919.30	226.90
919.60	226.87
919.91	226.84
920.21	226.86
920.51	226.83
920.81	226.80
921.12	226.84
921.42	226.86
921.72	226.88
922.02	226.86
922.32	226.89
922.63	226.91
922.93	226.94
923.23	226.95
923.53	226.93
923.83	226.88
924.13	226.90
924.44	226.91
924.74	226.94
925.04	226.99
925.34	226.98
925.64	226.97
925.94	226.99
926.24	227.06
926.55	227.05
926.85	227.09
927.15	227.10
927.45	227.10
927.75	227.10
928.05	227.10
928.35	227.11
928.65	227.15
928.95	227.16
929.26	227.13
929.56	227.14
929.86	227.18
930.16	227.16
930.46	227.15
930.76	227.17
931.06	227.13
931.36	227.08
931.66	227.11
931.96	227.14
932.26	227.16
932.56	227.11
932.86	227.11
933.16	227.12
933.46	227.14
933.76	227.13
934.06	227.13
934.36	227.15
934.66	227.15
934.96	227.13
935.26	227.13
935.56	227.15
935.86	227.13
936.16	227.14
936.46	227.14
936.76	227.12
937.06	227.10
937.36	227.09
937.66	227.12
937.96	227.13
938.26	227.10
938.56	227.08
938.86	227.11
939.16	227.13
939.46	227.10
939.76	227.14
940.06	227.15
940.35	227.18
940.65	227.12
940.95	227.15
941.25	227.13
941.55	227.11
941.85	227.14
942.15	227.16
942.45	227.14
942.75	227.15
943.04	227.19
943.34	227.20
943.64	227.22
943.94	227.19
944.24	227.18
944.54	227.19
944.84	227.19
945.13	227.17
945.43	227.18
945.73	227.19
946.03	227.14
946.33	227.10
946.62	227.07
946.92	227.07
947.22	227.06
947.52	227.06
947.82	227.07
948.11	227.04
948.41	227.04
948.71	227.01
949.01	227.01
949.31	226.99
949.60	227.01
949.90	226.99
950.20	227.00
950.50	227.00
950.79	226.97
951.09	226.98
951.39	226.97
951.69	226.94
951.98	226.96
952.28	226.96
952.58	226.98
952.87	226.96
953.17	226.97
953.47	226.96
953.76	226.94
954.06	226.91
954.36	226.89
954.66	226.85
954.95	226.90
955.25	226.88
955.55	226.87
955.84	226.84
956.14	226.87
956.44	226.89
956.73	226.86
957.03	226.87
957.32	226.87
957.62	226.86
957.92	226.87
958.21	226.84
958.51	226.94
958.81	226.93
959.10	226.94
959.40	226.98
959.69	227.01
959.99	227.03
960.29	227.08
960.58	227.07
960.88	227.13
961.17	227.11
961.47	227.13
961.76	227.12
962.06	227.13
962.36	227.10
962.65	227.09
962.95	227.13
963.24	227.15
963.54	227.12
963.83	227.08
964.13	227.10
964.42	227.11
964.72	227.07
965.01	227.08
965.31	227.08
965.60	227.04
965.90	227.09
966.19	227.09
966.49	227.09
966.78	227.12
967.08	227.11
967.37	227.10
967.67	227.09
967.96	227.10
968.26	227.12
968.55	227.13
968.85	227.13
969.14	227.08
969.43	227.04
969.73	227.06
970.02	227.10
970.32	227.09
970.61	227.08
970.91	227.05
971.20	227.06
971.49	227.08
971.79	227.09
972.08	227.03
972.38	227.01
972.67	227.00
972.96	226.99
973.26	226.98
973.55	227.05
973.85	227.05
974.14	227.06
974.43	227.03
974.73	227.00
975.02	227.04
975.31	227.06
975.61	227.09
975.90	227.09
976.19	227.08
976.49	227.06
976.78	227.06
977.07	227.04
977.37	227.02
977.66	227.03
977.95	227.03
978.24	227.01
978.54	227.03
978.83	227.05
979.12	227.05
979.42	227.06
979.71	227.01
980.00	227.02
980.29	227.02
980.59	227.02
980.88	227.03
981.17	226.99
981.46	226.99
981.76	226.97
982.05	227.01
982.34	227.02
982.63	227.03
982.93	227.02
983.22	227.00
983.51	227.00
983.80	227.01
984.09	227.00
984.39	226.98
984.68	226.97
984.97	226.94
985.26	226.92
985.55	226.92
985.85	226.90
986.14	226.90
986.43	226.88
986.72	226.89
987.01	226.87
987.30	226.85
987.59	226.84
987.89	226.85
988.18	226.80
988.47	226.79
988.76	226.81
989.05	226.80
989.34	226.83
989.63	226.86
989.92	226.86
990.22	226.83
990.51	226.83
990.80	226.81
991.09	226.81
991.38	226.78
991.67	226.79
991.96	226.77
992.25	226.78
992.54	226.78
992.83	226.75
993.12	226.76
993.41	226.78
993.70	226.85
993.99	226.84
994.28	226.87
994.58	226.86
994.87	226.83
995.16	226.84
995.45	226.83
995.74	226.79
996.03	226.79
996.32	226.79
996.61	226.80
996.90	226.80
997.19	226.79
997.48	226.83
997.77	226.82
998.06	226.82
998.34	226.82
998.63	226.80
998.92	226.81
999.21	226.83
999.50	226.81
999.79	226.75
1000.08	226.80
1000.37	226.81
1000.66	226.80
1000.95	226.85
1001.24	226.86
1001.53	226.85
1001.82	226.82
1002.11	226.80
1002.40	226.83
1002.68	226.87
1002.97	226.95
1003.26	226.99
1003.55	227.01
1003.84	227.01
1004.13	227.05
1004.42	227.02
1004.71	227.05
1004.99	227.06
1005.28	227.08
1005.57	227.07
1005.86	227.08
1006.15	227.04
1006.44	226.99
1006.72	227.01
1007.01	226.99
1007.30	226.98
1007.59	226.99
1007.88	227.02
1008.17	227.05
1008.45	227.02
1008.74	226.98
1009.03	226.95
1009.32	226.92
1009.60	226.88
1009.89	226.86
1010.18	226.81
1010.47	226.86
1010.76	226.85
1011.04	226.84
1011.33	226.81
1011.62	226.86
1011.91	226.84
1012.19	226.84
1012.48	226.86
1012.77	226.87
1013.05	226.91
1013.34	226.91
1013.63	226.90
1013.92	226.93
1014.20	226.90
1014.49	226.92
1014.78	226.93
1015.06	226.89
1015.35	226.87
1015.64	226.91
1015.92	226.94
1016.21	226.95
1016.50	226.91
1016.78	226.92
1017.07	226.93
1017.36	226.93
1017.64	226.91
1017.93	226.96
1018.22	226.96
1018.50	226.97
1018.79	226.96
1019.08	226.92
1019.36	226.94
1019.65	226.94
1019.93	226.96
1020.22	226.98
1020.51	227.04
1020.79	227.05
1021.08	226.77
1021.36	227.18
1021.65	227.09
1021.94	226.87
1022.22	227.19
1022.51	226.79
1022.79	227.67
1023.08	226.89
1023.36	228.25
1023.65	227.04
>>>>>End Processed Spectral Data<<<<<
