SpectraSuite Data File
++++++++++++++++++++++++++++++++++++
Date: Fri Feb 01 16:26:38 EST 2013
User: group
Dark Spectrum Present: No
Reference Spectrum Present: No
Number of Sampled Component Spectra: 1
Spectrometers: USB2E7196
Integration Time (usec): 35000 (USB2E7196)
Spectra Averaged: 100 (USB2E7196)
Boxcar Smoothing: 10 (USB2E7196)
Correct for Electrical Dark: No (USB2E7196)
Strobe/Lamp Enabled: No (USB2E7196)
Correct for Detector Non-linearity: No (USB2E7196)
Correct for Stray Light: No (USB2E7196)
Number of Pixels in Processed Spectrum: 2048
>>>>>Begin Processed Spectral Data<<<<<
339.09	0.00
339.48	214.13
339.86	215.25
340.24	216.82
340.63	217.70
341.01	221.00
341.39	221.07
341.78	222.68
342.16	223.09
342.54	224.13
342.93	212.29
343.31	223.01
343.69	223.54
344.07	224.03
344.46	224.44
344.84	224.84
345.22	225.07
345.60	225.31
345.99	225.45
346.37	225.58
346.75	225.68
347.13	225.74
347.52	225.80
347.90	225.83
348.28	225.83
348.66	225.89
349.05	225.89
349.43	225.89
349.81	225.89
350.19	225.94
350.57	225.97
350.96	226.06
351.34	226.13
351.72	226.20
352.10	226.28
352.48	226.37
352.87	226.43
353.25	226.51
353.63	226.56
354.01	226.64
354.39	226.71
354.77	226.76
355.15	226.84
355.54	226.89
355.92	226.95
356.30	227.07
356.68	227.17
357.06	227.25
357.44	227.33
357.82	227.41
358.20	227.48
358.58	227.57
358.97	227.67
359.35	227.78
359.73	227.87
360.11	227.91
360.49	227.93
360.87	227.99
361.25	228.04
361.63	228.11
362.01	228.14
362.39	228.19
362.77	228.27
363.15	228.32
363.53	228.35
363.91	228.38
364.29	228.37
364.67	228.30
365.05	228.34
365.43	228.38
365.81	228.40
366.19	228.46
366.57	228.51
366.95	228.50
367.33	228.48
367.71	228.48
368.09	228.50
368.47	228.51
368.85	228.48
369.23	228.49
369.61	228.45
369.99	228.49
370.37	228.47
370.75	228.43
371.13	228.38
371.51	228.36
371.89	228.28
372.27	228.27
372.65	228.25
373.03	228.16
373.41	228.09
373.78	228.04
374.16	227.90
374.54	227.82
374.92	227.76
375.30	227.71
375.68	227.64
376.06	227.58
376.44	227.54
376.82	227.49
377.19	227.40
377.57	227.31
377.95	227.19
378.33	227.13
378.71	227.02
379.09	226.95
379.47	226.87
379.84	226.85
380.22	226.73
380.60	226.67
380.98	226.60
381.36	226.52
381.73	226.44
382.11	226.44
382.49	226.36
382.87	226.27
383.25	226.21
383.62	226.23
384.00	226.16
384.38	226.09
384.76	226.05
385.13	225.99
385.51	226.00
385.89	225.93
386.27	225.88
386.64	225.86
387.02	225.82
387.40	225.78
387.78	225.76
388.15	225.77
388.53	225.73
388.91	225.69
389.29	225.69
389.66	225.67
390.04	225.60
390.42	225.62
390.79	225.60
391.17	225.57
391.55	225.43
391.92	225.44
392.30	225.43
392.68	225.41
393.05	225.42
393.43	225.39
393.81	225.41
394.18	225.43
394.56	225.46
394.94	225.51
395.31	225.51
395.69	225.54
396.06	225.56
396.44	225.57
396.82	225.61
397.19	225.68
397.57	225.70
397.95	225.78
398.32	225.78
398.70	225.83
399.07	225.91
399.45	225.96
399.82	225.96
400.20	226.01
400.58	226.08
400.95	226.12
401.33	226.21
401.70	226.36
402.08	226.42
402.45	226.49
402.83	226.60
403.20	226.71
403.58	226.77
403.95	226.89
404.33	227.02
404.71	227.12
405.08	227.28
405.46	227.41
405.83	227.54
406.21	227.69
406.58	227.87
406.96	227.98
407.33	228.16
407.70	228.39
408.08	228.66
408.45	228.88
408.83	229.12
409.20	229.35
409.58	229.49
409.95	229.75
410.33	230.01
410.70	230.24
411.08	230.51
411.45	230.84
411.82	231.16
412.20	231.52
412.57	231.93
412.95	232.24
413.32	232.66
413.69	233.04
414.07	233.49
414.44	233.94
414.82	234.45
415.19	235.01
415.56	235.55
415.94	236.08
416.31	236.71
416.68	237.32
417.06	238.04
417.43	238.74
417.81	239.51
418.18	240.28
418.55	241.10
418.93	242.00
419.30	242.89
419.67	243.80
420.04	244.73
420.42	245.73
420.79	246.90
421.16	248.07
421.54	249.29
421.91	250.48
422.28	251.77
422.66	253.14
423.03	254.43
423.40	255.78
423.77	257.19
424.15	258.59
424.52	260.07
424.89	261.68
425.26	263.26
425.64	264.71
426.01	266.36
426.38	268.04
426.75	269.72
427.13	271.45
427.50	273.27
427.87	275.14
428.24	276.97
428.61	278.68
428.99	280.61
429.36	282.70
429.73	284.73
430.10	286.73
430.47	288.75
430.85	290.90
431.22	293.11
431.59	295.51
431.96	297.78
432.33	300.29
432.70	302.66
433.08	305.44
433.45	308.06
433.82	310.61
434.19	313.47
434.56	316.23
434.93	318.86
435.30	321.49
435.68	324.40
436.05	327.24
436.42	330.08
436.79	332.61
437.16	335.30
437.53	338.19
437.90	340.97
438.27	343.69
438.64	346.48
439.01	349.06
439.38	351.23
439.75	353.36
440.13	355.83
440.50	358.14
440.87	359.99
441.24	361.94
441.61	364.10
441.98	365.59
442.35	367.41
442.72	369.26
443.09	371.03
443.46	372.02
443.83	372.63
444.20	373.18
444.57	374.01
444.94	374.31
445.31	374.64
445.68	374.97
446.05	375.04
446.42	374.65
446.79	374.28
447.16	373.88
447.53	373.57
447.90	372.45
448.27	371.24
448.64	369.67
449.01	368.54
449.37	366.56
449.74	364.69
450.11	362.43
450.48	360.04
450.85	357.57
451.22	355.44
451.59	353.42
451.96	351.47
452.33	348.86
452.70	346.51
453.07	343.68
453.43	340.81
453.80	338.06
454.17	335.44
454.54	332.89
454.91	330.15
455.28	327.47
455.65	324.93
456.02	322.56
456.38	320.40
456.75	317.73
457.12	315.52
457.49	313.29
457.86	311.13
458.23	309.20
458.59	307.12
458.96	305.04
459.33	303.18
459.70	301.28
460.07	299.77
460.43	298.03
460.80	296.42
461.17	295.03
461.54	293.55
461.91	292.13
462.27	290.69
462.64	289.49
463.01	288.16
463.38	286.93
463.74	285.54
464.11	284.38
464.48	283.32
464.85	282.17
465.21	281.28
465.58	280.36
465.95	279.30
466.32	278.43
466.68	277.53
467.05	276.65
467.42	275.77
467.78	274.84
468.15	273.96
468.52	273.35
468.88	272.47
469.25	271.70
469.62	271.07
469.98	270.40
470.35	269.76
470.72	269.14
471.08	268.48
471.45	267.96
471.82	267.48
472.18	266.89
472.55	266.52
472.92	266.01
473.28	265.57
473.65	265.15
474.02	264.69
474.38	264.32
474.75	263.98
475.11	263.65
475.48	263.39
475.85	263.20
476.21	262.95
476.58	262.76
476.94	262.63
477.31	262.44
477.67	262.27
478.04	262.17
478.41	262.15
478.77	262.17
479.14	262.09
479.50	262.06
479.87	262.17
480.23	262.28
480.60	262.38
480.96	262.47
481.33	262.66
481.69	262.86
482.06	263.10
482.42	263.30
482.79	263.52
483.15	263.86
483.52	264.22
483.88	264.57
484.25	264.99
484.61	265.43
484.98	265.93
485.34	266.54
485.71	267.12
486.07	267.73
486.44	268.36
486.80	269.09
487.17	269.85
487.53	270.65
487.90	271.49
488.26	272.42
488.62	273.45
488.99	274.43
489.35	275.48
489.72	276.60
490.08	277.84
490.44	279.15
490.81	280.48
491.17	281.86
491.54	283.36
491.90	284.89
492.26	286.54
492.63	288.23
492.99	290.00
493.36	291.92
493.72	293.97
494.08	296.07
494.45	298.30
494.81	300.64
495.17	303.08
495.54	305.62
495.90	308.31
496.26	311.11
496.63	314.06
496.99	317.23
497.35	320.47
497.72	323.90
498.08	327.40
498.44	331.08
498.80	335.01
499.17	339.05
499.53	343.23
499.89	347.63
500.26	352.19
500.62	356.82
500.98	361.76
501.34	366.79
501.71	372.10
502.07	377.57
502.43	383.24
502.79	389.07
503.16	395.16
503.52	401.44
503.88	407.95
504.24	414.61
504.60	421.46
504.97	428.63
505.33	435.89
505.69	443.57
506.05	451.34
506.41	459.21
506.78	467.33
507.14	475.79
507.50	484.51
507.86	493.45
508.22	502.68
508.59	511.85
508.95	521.44
509.31	531.29
509.67	541.38
510.03	551.67
510.39	562.24
510.75	572.98
511.12	583.90
511.48	595.11
511.84	606.54
512.20	618.02
512.56	629.92
512.92	642.14
513.28	654.45
513.64	666.94
514.00	679.66
514.37	692.63
514.73	705.70
515.09	718.70
515.45	732.09
515.81	745.63
516.17	759.65
516.53	773.81
516.89	787.99
517.25	802.10
517.61	816.47
517.97	830.84
518.33	845.24
518.69	860.00
519.05	874.90
519.41	890.00
519.77	905.60
520.13	921.00
520.49	936.39
520.85	951.85
521.21	967.55
521.57	983.65
521.93	999.27
522.29	1015.55
522.65	1031.75
523.01	1047.73
523.37	1063.78
523.73	1079.84
524.09	1095.84
524.45	1112.06
524.81	1128.67
525.17	1145.37
525.53	1162.24
525.89	1179.21
526.25	1195.92
526.61	1212.26
526.97	1228.93
527.33	1245.21
527.68	1261.87
528.04	1278.28
528.40	1294.64
528.76	1311.47
529.12	1328.03
529.48	1344.84
529.84	1360.82
530.20	1377.32
530.56	1394.38
530.91	1411.78
531.27	1428.46
531.63	1444.89
531.99	1461.36
532.35	1477.26
532.71	1493.13
533.07	1509.26
533.42	1524.96
533.78	1540.95
534.14	1557.18
534.50	1572.43
534.86	1588.26
535.21	1603.22
535.57	1619.06
535.93	1634.48
536.29	1649.33
536.65	1664.20
537.00	1678.91
537.36	1694.16
537.72	1708.66
538.08	1722.97
538.44	1736.56
538.79	1750.53
539.15	1764.04
539.51	1777.59
539.87	1791.88
540.22	1805.49
540.58	1819.12
540.94	1832.28
541.29	1845.12
541.65	1857.73
542.01	1870.86
542.37	1883.18
542.72	1895.68
543.08	1907.32
543.44	1919.63
543.79	1930.65
544.15	1941.71
544.51	1953.33
544.87	1964.09
545.22	1974.79
545.58	1984.93
545.94	1994.62
546.29	2004.29
546.65	2014.08
547.01	2023.29
547.36	2031.90
547.72	2040.23
548.07	2048.01
548.43	2056.14
548.79	2064.07
549.14	2071.46
549.50	2078.66
549.86	2086.27
550.21	2093.44
550.57	2100.60
550.92	2107.20
551.28	2114.24
551.64	2121.22
551.99	2127.72
552.35	2133.92
552.70	2140.09
553.06	2145.99
553.41	2152.23
553.77	2158.15
554.13	2164.19
554.48	2170.29
554.84	2175.80
555.19	2181.11
555.55	2186.28
555.90	2190.85
556.26	2195.65
556.61	2200.40
556.97	2204.88
557.32	2208.88
557.68	2212.95
558.03	2217.34
558.39	2220.99
558.74	2225.59
559.10	2229.37
559.45	2232.99
559.81	2237.28
560.16	2241.04
560.52	2244.29
560.87	2247.76
561.23	2250.43
561.58	2253.43
561.94	2256.00
562.29	2258.28
562.64	2261.02
563.00	2263.59
563.35	2266.94
563.71	2270.08
564.06	2273.27
564.42	2276.04
564.77	2278.67
565.12	2280.97
565.48	2282.68
565.83	2284.62
566.19	2285.89
566.54	2286.91
566.89	2287.98
567.25	2288.50
567.60	2289.82
567.96	2291.61
568.31	2292.46
568.66	2293.61
569.02	2294.13
569.37	2294.52
569.72	2295.52
570.08	2295.82
570.43	2295.89
570.78	2295.46
571.14	2293.97
571.49	2292.75
571.84	2292.45
572.20	2291.48
572.55	2290.49
572.90	2289.00
573.26	2287.63
573.61	2286.10
573.96	2284.47
574.31	2281.59
574.67	2278.72
575.02	2275.16
575.37	2271.75
575.72	2268.08
576.08	2264.82
576.43	2261.66
576.78	2258.06
577.13	2254.90
577.49	2251.79
577.84	2248.50
578.19	2244.75
578.54	2241.27
578.90	2236.98
579.25	2231.49
579.60	2226.45
579.95	2221.40
580.30	2216.50
580.66	2211.47
581.01	2206.57
581.36	2201.74
581.71	2197.66
582.06	2193.25
582.42	2188.84
582.77	2183.66
583.12	2179.21
583.47	2174.60
583.82	2169.74
584.17	2164.60
584.53	2159.14
584.88	2153.51
585.23	2147.71
585.58	2142.27
585.93	2136.92
586.28	2132.27
586.63	2127.19
586.98	2122.27
587.34	2117.64
587.69	2112.75
588.04	2107.58
588.39	2102.06
588.74	2095.55
589.09	2089.52
589.44	2082.86
589.79	2076.98
590.14	2071.53
590.49	2064.83
590.84	2058.60
591.19	2052.53
591.54	2046.15
591.89	2038.84
592.25	2032.04
592.60	2024.85
592.95	2017.45
593.30	2010.07
593.65	2002.57
594.00	1995.70
594.35	1988.44
594.70	1980.48
595.05	1973.33
595.40	1966.09
595.75	1958.55
596.10	1952.41
596.45	1945.57
596.80	1939.49
597.15	1932.86
597.50	1925.76
597.85	1919.44
598.19	1912.66
598.54	1905.66
598.89	1899.09
599.24	1893.15
599.59	1886.67
599.94	1880.65
600.29	1874.42
600.64	1867.93
600.99	1860.58
601.34	1853.71
601.69	1846.81
602.04	1840.07
602.39	1832.70
602.74	1825.89
603.08	1819.22
603.43	1812.50
603.78	1805.26
604.13	1798.10
604.48	1790.81
604.83	1783.94
605.18	1777.01
605.53	1769.11
605.87	1761.10
606.22	1753.78
606.57	1745.94
606.92	1738.55
607.27	1731.40
607.62	1724.45
607.96	1717.20
608.31	1710.59
608.66	1703.08
609.01	1695.56
609.36	1687.95
609.70	1680.07
610.05	1672.09
610.40	1664.38
610.75	1656.00
611.10	1648.40
611.44	1639.89
611.79	1631.88
612.14	1623.25
612.49	1614.16
612.83	1605.92
613.18	1597.82
613.53	1589.68
613.88	1581.08
614.22	1572.86
614.57	1564.18
614.92	1556.07
615.27	1548.46
615.61	1540.13
615.96	1532.14
616.31	1524.49
616.65	1517.13
617.00	1509.51
617.35	1501.75
617.70	1493.45
618.04	1485.03
618.39	1476.82
618.74	1469.30
619.08	1461.09
619.43	1453.60
619.78	1446.61
620.12	1439.37
620.47	1431.81
620.82	1423.74
621.16	1416.37
621.51	1408.69
621.85	1401.14
622.20	1392.68
622.55	1384.29
622.89	1376.50
623.24	1368.77
623.59	1361.28
623.93	1353.84
624.28	1346.73
624.62	1339.13
624.97	1331.98
625.32	1325.22
625.66	1318.24
626.01	1311.08
626.35	1303.55
626.70	1295.78
627.04	1288.09
627.39	1280.18
627.73	1272.75
628.08	1265.80
628.43	1258.56
628.77	1251.20
629.12	1243.56
629.46	1236.37
629.81	1228.92
630.15	1221.54
630.50	1214.14
630.84	1206.01
631.19	1198.00
631.53	1190.40
631.88	1182.88
632.22	1175.29
632.57	1167.96
632.91	1160.24
633.26	1152.73
633.60	1145.36
633.95	1138.24
634.29	1131.14
634.64	1124.59
634.98	1117.21
635.32	1109.97
635.67	1103.30
636.01	1096.60
636.36	1089.71
636.70	1083.25
637.05	1076.66
637.39	1070.23
637.73	1063.72
638.08	1057.84
638.42	1051.81
638.77	1045.40
639.11	1038.88
639.45	1032.38
639.80	1025.71
640.14	1019.37
640.49	1012.88
640.83	1006.60
641.17	1000.15
641.52	993.78
641.86	987.28
642.20	981.45
642.55	975.19
642.89	968.74
643.23	962.25
643.58	956.60
643.92	950.36
644.26	944.32
644.61	938.32
644.95	932.33
645.29	925.69
645.64	918.95
645.98	912.50
646.32	906.63
646.66	900.72
647.01	894.94
647.35	889.22
647.69	883.37
648.04	877.85
648.38	872.11
648.72	866.16
649.06	860.04
649.41	854.18
649.75	848.19
650.09	842.22
650.43	836.45
650.78	830.22
651.12	824.23
651.46	818.47
651.80	812.71
652.14	807.31
652.49	802.01
652.83	796.87
653.17	791.20
653.51	785.41
653.85	779.92
654.20	774.21
654.54	768.21
654.88	762.49
655.22	756.56
655.56	750.92
655.90	745.43
656.25	740.16
656.59	734.77
656.93	729.69
657.27	724.51
657.61	719.11
657.95	714.05
658.29	708.99
658.64	703.76
658.98	698.46
659.32	693.01
659.66	687.83
660.00	682.50
660.34	677.56
660.68	672.70
661.02	667.68
661.36	663.02
661.70	658.46
662.05	654.04
662.39	649.76
662.73	645.33
663.07	641.05
663.41	636.68
663.75	632.13
664.09	627.50
664.43	623.10
664.77	618.93
665.11	614.68
665.45	610.58
665.79	606.54
666.13	602.35
666.47	598.33
666.81	594.14
667.15	590.03
667.49	586.12
667.83	582.25
668.17	578.32
668.51	574.29
668.85	570.34
669.19	566.47
669.53	562.61
669.87	558.73
670.21	554.96
670.55	551.27
670.89	547.84
671.23	544.47
671.57	540.97
671.91	537.39
672.25	533.88
672.58	530.30
672.92	526.85
673.26	523.71
673.60	520.43
673.94	517.31
674.28	514.37
674.62	511.43
674.96	508.29
675.30	505.41
675.64	502.44
675.97	499.64
676.31	496.81
676.65	493.90
676.99	491.17
677.33	488.30
677.67	485.49
678.01	482.53
678.34	479.56
678.68	476.67
679.02	473.97
679.36	471.20
679.70	468.49
680.04	465.72
680.37	462.86
680.71	460.04
681.05	457.41
681.39	454.68
681.73	452.03
682.06	449.60
682.40	446.99
682.74	444.47
683.08	441.91
683.42	439.29
683.75	436.74
684.09	434.23
684.43	431.79
684.77	429.30
685.10	426.91
685.44	424.55
685.78	422.32
686.12	419.99
686.45	417.76
686.79	415.47
687.13	413.30
687.46	411.12
687.80	409.03
688.14	406.77
688.48	404.73
688.81	402.51
689.15	400.33
689.49	398.19
689.82	396.12
690.16	394.04
690.50	392.07
690.83	390.18
691.17	388.15
691.51	386.24
691.84	384.41
692.18	382.51
692.52	380.57
692.85	378.60
693.19	376.70
693.52	374.79
693.86	372.94
694.20	371.18
694.53	369.41
694.87	367.52
695.21	365.78
695.54	363.93
695.88	362.17
696.21	360.44
696.55	358.76
696.88	357.05
697.22	355.39
697.56	353.80
697.89	352.14
698.23	350.57
698.56	348.93
698.90	347.30
699.23	345.64
699.57	344.10
699.90	342.56
700.24	341.02
700.58	339.51
700.91	338.00
701.25	336.51
701.58	335.14
701.92	333.81
702.25	332.42
702.59	331.06
702.92	329.76
703.26	328.44
703.59	327.18
703.93	325.97
704.26	324.72
704.60	323.40
704.93	322.12
705.26	320.82
705.60	319.68
705.93	318.56
706.27	317.55
706.60	316.47
706.94	315.39
707.27	314.27
707.61	313.19
707.94	312.16
708.27	311.09
708.61	309.98
708.94	308.94
709.28	307.98
709.61	307.01
709.94	306.05
710.28	305.01
710.61	304.01
710.95	302.95
711.28	302.05
711.61	301.11
711.95	300.20
712.28	299.29
712.61	298.26
712.95	297.30
713.28	296.40
713.61	295.49
713.95	294.61
714.28	293.78
714.61	292.93
714.95	292.06
715.28	291.25
715.61	290.37
715.95	289.53
716.28	288.65
716.61	287.81
716.95	287.00
717.28	286.27
717.61	285.50
717.94	284.75
718.28	283.94
718.61	283.22
718.94	282.52
719.27	281.88
719.61	281.22
719.94	280.58
720.27	279.84
720.60	279.18
720.94	278.55
721.27	277.90
721.60	277.34
721.93	276.77
722.27	276.22
722.60	275.70
722.93	275.10
723.26	274.56
723.59	273.99
723.93	273.41
724.26	272.88
724.59	272.29
724.92	271.78
725.25	271.25
725.59	270.70
725.92	270.15
726.25	269.60
726.58	269.12
726.91	268.62
727.24	268.15
727.57	267.71
727.91	267.20
728.24	266.76
728.57	266.25
728.90	265.81
729.23	265.28
729.56	264.82
729.89	264.35
730.22	263.86
730.55	263.41
730.89	262.97
731.22	262.52
731.55	262.14
731.88	261.68
732.21	261.25
732.54	260.84
732.87	260.41
733.20	260.03
733.53	259.63
733.86	259.24
734.19	258.83
734.52	258.43
734.85	258.12
735.18	257.69
735.51	257.32
735.84	256.95
736.17	256.60
736.50	256.20
736.83	255.97
737.16	255.66
737.49	255.34
737.82	255.00
738.15	254.66
738.48	254.32
738.81	254.01
739.14	253.69
739.47	253.36
739.80	253.06
740.13	252.72
740.46	252.42
740.79	252.06
741.12	251.81
741.45	251.50
741.78	251.15
742.11	250.87
742.44	250.57
742.77	250.29
743.10	249.97
743.43	249.67
743.75	249.27
744.08	249.13
744.41	248.85
744.74	248.56
745.07	248.31
745.40	248.06
745.73	247.81
746.06	247.53
746.39	247.26
746.71	247.01
747.04	246.74
747.37	246.47
747.70	246.24
748.03	245.96
748.36	245.73
748.68	245.49
749.01	245.25
749.34	245.03
749.67	244.76
750.00	244.55
750.33	244.43
750.65	244.25
750.98	243.89
751.31	243.68
751.64	243.47
751.97	243.29
752.29	243.04
752.62	242.81
752.95	242.61
753.28	242.43
753.60	242.24
753.93	242.08
754.26	241.89
754.59	241.68
754.91	241.45
755.24	241.23
755.57	241.03
755.90	240.86
756.22	240.67
756.55	240.47
756.88	240.32
757.20	240.07
757.53	239.86
757.86	239.67
758.19	239.49
758.51	239.33
758.84	239.11
759.17	238.96
759.49	238.82
759.82	238.72
760.15	238.56
760.47	238.40
760.80	238.22
761.13	238.08
761.45	237.95
761.78	237.80
762.11	237.65
762.43	237.49
762.76	237.31
763.08	237.14
763.41	237.04
763.74	236.91
764.06	236.77
764.39	236.67
764.71	236.58
765.04	236.44
765.37	236.30
765.69	236.19
766.02	236.06
766.34	235.93
766.67	235.79
767.00	235.69
767.32	235.62
767.65	235.56
767.97	235.46
768.30	235.34
768.62	235.23
768.95	235.12
769.27	235.00
769.60	234.89
769.92	234.81
770.25	234.71
770.57	234.58
770.90	234.44
771.22	234.28
771.55	234.17
771.87	234.09
772.20	233.98
772.52	233.97
772.85	234.02
773.17	233.91
773.50	233.81
773.82	233.70
774.15	233.59
774.47	233.45
774.80	233.34
775.12	233.24
775.45	233.17
775.77	233.11
776.09	233.04
776.42	232.98
776.74	232.95
777.07	232.83
777.39	232.76
777.72	232.69
778.04	232.65
778.36	232.55
778.69	232.49
779.01	232.43
779.33	232.27
779.66	232.07
779.98	232.00
780.31	231.92
780.63	231.85
780.95	231.80
781.28	231.72
781.60	231.61
781.92	231.57
782.25	231.48
782.57	231.40
782.89	231.35
783.22	231.31
783.54	231.19
783.86	231.14
784.19	231.05
784.51	231.04
784.83	230.97
785.16	230.91
785.48	230.85
785.80	230.80
786.12	230.76
786.45	230.71
786.77	230.66
787.09	230.60
787.42	230.54
787.74	230.49
788.06	230.45
788.38	230.46
788.71	230.41
789.03	230.38
789.35	230.35
789.67	230.30
789.99	230.25
790.32	230.20
790.64	230.17
790.96	230.22
791.28	230.11
791.61	230.08
791.93	230.06
792.25	230.00
792.57	230.00
792.89	229.94
793.21	229.89
793.54	229.86
793.86	229.82
794.18	229.79
794.50	229.71
794.82	229.64
795.14	229.60
795.47	229.56
795.79	229.53
796.11	229.50
796.43	229.44
796.75	229.40
797.07	229.38
797.39	229.35
797.71	229.24
798.04	229.22
798.36	229.19
798.68	229.16
799.00	229.15
799.32	229.04
799.64	229.02
799.96	228.98
800.28	228.96
800.60	228.91
800.92	228.88
801.24	228.86
801.56	228.84
801.89	228.81
802.21	228.81
802.53	228.79
802.85	228.78
803.17	228.79
803.49	228.73
803.81	228.69
804.13	228.66
804.45	228.64
804.77	228.63
805.09	228.61
805.41	228.56
805.73	228.50
806.05	228.51
806.37	228.50
806.69	228.48
807.01	228.42
807.33	228.41
807.65	228.35
807.97	228.40
808.28	228.36
808.60	228.33
808.92	228.29
809.24	228.32
809.56	228.29
809.88	228.24
810.20	228.22
810.52	228.21
810.84	228.20
811.16	228.18
811.48	228.14
811.80	228.14
812.12	228.14
812.43	228.14
812.75	228.13
813.07	228.10
813.39	228.10
813.71	228.09
814.03	228.04
814.35	228.07
814.67	227.98
814.98	227.94
815.30	227.93
815.62	227.90
815.94	227.79
816.26	227.84
816.58	227.82
816.89	227.83
817.21	227.82
817.53	227.79
817.85	227.77
818.17	227.74
818.48	227.72
818.80	227.71
819.12	227.69
819.44	227.69
819.76	227.66
820.07	227.67
820.39	227.67
820.71	227.67
821.03	227.65
821.34	227.64
821.66	227.69
821.98	227.67
822.30	227.66
822.61	227.74
822.93	227.67
823.25	227.68
823.57	227.66
823.88	227.66
824.20	227.66
824.52	227.67
824.83	227.67
825.15	227.65
825.47	227.64
825.79	227.64
826.10	227.59
826.42	227.55
826.74	227.54
827.05	227.52
827.37	227.54
827.69	227.51
828.00	227.53
828.32	227.47
828.64	227.47
828.95	227.50
829.27	227.45
829.58	227.45
829.90	227.44
830.22	227.41
830.53	227.37
830.85	227.33
831.17	227.31
831.48	227.29
831.80	227.25
832.11	227.22
832.43	227.18
832.75	227.13
833.06	227.19
833.38	227.12
833.69	227.10
834.01	227.06
834.32	227.03
834.64	227.00
834.96	227.00
835.27	227.00
835.59	226.95
835.90	226.92
836.22	226.87
836.53	226.79
836.85	226.79
837.16	226.91
837.48	226.91
837.79	226.91
838.11	226.91
838.42	226.90
838.74	226.90
839.05	226.87
839.37	226.86
839.68	226.82
840.00	226.81
840.31	226.81
840.63	226.81
840.94	226.80
841.26	226.78
841.57	226.76
841.88	226.72
842.20	226.68
842.51	226.65
842.83	226.66
843.14	226.77
843.46	226.73
843.77	226.64
844.08	226.64
844.40	226.62
844.71	226.62
845.03	226.60
845.34	226.59
845.65	226.58
845.97	226.63
846.28	226.60
846.60	226.63
846.91	226.62
847.22	226.61
847.54	226.62
847.85	226.63
848.16	226.60
848.48	226.59
848.79	226.64
849.10	226.65
849.42	226.67
849.73	226.57
850.04	226.59
850.36	226.57
850.67	226.58
850.98	226.58
851.30	226.54
851.61	226.56
851.92	226.57
852.23	226.60
852.55	226.59
852.86	226.62
853.17	226.62
853.49	226.62
853.80	226.61
854.11	226.63
854.42	226.63
854.74	226.60
855.05	226.62
855.36	226.60
855.67	226.62
855.99	226.58
856.30	226.71
856.61	226.71
856.92	226.72
857.23	226.71
857.55	226.71
857.86	226.74
858.17	226.75
858.48	226.73
858.79	226.72
859.11	226.73
859.42	226.71
859.73	226.72
860.04	226.70
860.35	226.71
860.66	226.67
860.98	226.69
861.29	226.73
861.60	226.72
861.91	226.75
862.22	226.77
862.53	226.77
862.84	226.67
863.16	226.70
863.47	226.70
863.78	226.70
864.09	226.69
864.40	226.68
864.71	226.73
865.02	226.74
865.33	226.73
865.64	226.72
865.95	226.73
866.27	226.76
866.58	226.77
866.89	226.79
867.20	226.78
867.51	226.75
867.82	226.78
868.13	226.81
868.44	226.76
868.75	226.73
869.06	226.74
869.37	226.71
869.68	226.67
869.99	226.65
870.30	226.67
870.61	226.68
870.92	226.63
871.23	226.56
871.54	226.59
871.85	226.58
872.16	226.60
872.47	226.60
872.78	226.56
873.09	226.56
873.40	226.52
873.71	226.53
874.02	226.55
874.33	226.51
874.64	226.51
874.95	226.52
875.26	226.51
875.56	226.52
875.87	226.53
876.18	226.49
876.49	226.60
876.80	226.54
877.11	226.51
877.42	226.53
877.73	226.56
878.04	226.51
878.35	226.49
878.66	226.47
878.96	226.41
879.27	226.42
879.58	226.41
879.89	226.41
880.20	226.41
880.51	226.41
880.82	226.40
881.12	226.35
881.43	226.33
881.74	226.29
882.05	226.27
882.36	226.26
882.67	226.30
882.97	226.16
883.28	226.19
883.59	226.21
883.90	226.19
884.21	226.18
884.51	226.18
884.82	226.17
885.13	226.16
885.44	226.16
885.74	226.16
886.05	226.13
886.36	226.13
886.67	226.12
886.98	226.15
887.28	226.15
887.59	226.17
887.90	226.17
888.20	226.19
888.51	226.20
888.82	226.20
889.13	226.19
889.43	226.31
889.74	226.29
890.05	226.27
890.35	226.28
890.66	226.27
890.97	226.29
891.28	226.28
891.58	226.29
891.89	226.29
892.20	226.27
892.50	226.27
892.81	226.28
893.12	226.27
893.42	226.24
893.73	226.25
894.04	226.23
894.34	226.20
894.65	226.21
894.95	226.22
895.26	226.22
895.57	226.27
895.87	226.15
896.18	226.15
896.48	226.16
896.79	226.16
897.10	226.20
897.40	226.20
897.71	226.23
898.01	226.23
898.32	226.26
898.63	226.25
898.93	226.27
899.24	226.27
899.54	226.30
899.85	226.28
900.15	226.27
900.46	226.28
900.76	226.30
901.07	226.28
901.38	226.25
901.68	226.29
901.99	226.22
902.29	226.23
902.60	226.21
902.90	226.18
903.21	226.15
903.51	226.11
903.82	226.15
904.12	226.15
904.43	226.14
904.73	226.14
905.03	226.17
905.34	226.25
905.64	226.26
905.95	226.19
906.25	226.18
906.56	226.17
906.86	226.20
907.17	226.21
907.47	226.21
907.77	226.21
908.08	226.17
908.38	226.17
908.69	226.18
908.99	226.21
909.30	226.22
909.60	226.23
909.90	226.25
910.21	226.22
910.51	226.18
910.81	226.19
911.12	226.19
911.42	226.17
911.73	226.05
912.03	226.05
912.33	226.10
912.64	226.16
912.94	226.12
913.24	226.09
913.55	226.09
913.85	226.08
914.15	226.10
914.46	226.13
914.76	226.15
915.06	226.13
915.37	226.13
915.67	226.12
915.97	226.12
916.27	226.10
916.58	226.10
916.88	226.10
917.18	226.10
917.49	226.17
917.79	226.19
918.09	226.22
918.39	226.21
918.70	226.19
919.00	226.16
919.30	226.24
919.60	226.20
919.91	226.16
920.21	226.18
920.51	226.14
920.81	226.13
921.12	226.12
921.42	226.13
921.72	226.12
922.02	226.14
922.32	226.18
922.63	226.20
922.93	226.22
923.23	226.23
923.53	226.21
923.83	226.12
924.13	226.13
924.44	226.12
924.74	226.14
925.04	226.18
925.34	226.16
925.64	226.13
925.94	226.14
926.24	226.21
926.55	226.19
926.85	226.18
927.15	226.18
927.45	226.17
927.75	226.16
928.05	226.19
928.35	226.16
928.65	226.16
928.95	226.14
929.26	226.14
929.56	226.18
929.86	226.19
930.16	226.20
930.46	226.18
930.76	226.19
931.06	226.17
931.36	226.15
931.66	226.18
931.96	226.16
932.26	226.19
932.56	226.15
932.86	226.13
933.16	226.15
933.46	226.13
933.76	226.12
934.06	226.11
934.36	226.14
934.66	226.15
934.96	226.12
935.26	226.14
935.56	226.15
935.86	226.14
936.16	226.10
936.46	226.11
936.76	226.10
937.06	226.07
937.36	226.08
937.66	226.09
937.96	226.06
938.26	226.06
938.56	226.04
938.86	226.05
939.16	226.08
939.46	226.10
939.76	226.11
940.06	226.10
940.35	226.11
940.65	226.03
940.95	226.05
941.25	226.04
941.55	226.06
941.85	226.04
942.15	226.02
942.45	226.10
942.75	226.10
943.04	226.12
943.34	226.14
943.64	226.14
943.94	226.11
944.24	226.08
944.54	226.07
944.84	226.10
945.13	226.07
945.43	226.05
945.73	226.03
946.03	226.02
946.33	226.05
946.62	226.04
946.92	226.07
947.22	226.07
947.52	226.06
947.82	226.01
948.11	225.99
948.41	225.96
948.71	225.91
949.01	225.90
949.31	225.86
949.60	225.83
949.90	225.80
950.20	225.83
950.50	225.87
950.79	225.87
951.09	225.83
951.39	225.81
951.69	225.81
951.98	225.84
952.28	225.82
952.58	225.82
952.87	225.83
953.17	225.81
953.47	225.79
953.76	225.78
954.06	225.79
954.36	225.78
954.66	225.78
954.95	225.78
955.25	225.74
955.55	225.73
955.84	225.73
956.14	225.75
956.44	225.71
956.73	225.69
957.03	225.69
957.32	225.68
957.62	225.72
957.92	225.72
958.21	225.72
958.51	225.82
958.81	225.78
959.10	225.76
959.40	225.76
959.69	225.77
959.99	225.78
960.29	225.76
960.58	225.76
960.88	225.77
961.17	225.77
961.47	225.78
961.76	225.81
962.06	225.83
962.36	225.81
962.65	225.83
962.95	225.84
963.24	225.81
963.54	225.83
963.83	225.84
964.13	225.83
964.42	225.79
964.72	225.73
965.01	225.80
965.31	225.83
965.60	225.83
965.90	225.88
966.19	225.86
966.49	225.87
966.78	225.87
967.08	225.92
967.37	225.94
967.67	225.98
967.96	226.01
968.26	226.02
968.55	226.03
968.85	226.03
969.14	226.03
969.43	226.04
969.73	226.03
970.02	226.03
970.32	226.01
970.61	226.01
970.91	225.98
971.20	225.93
971.49	225.89
971.79	225.91
972.08	225.84
972.38	225.83
972.67	225.83
972.96	225.85
973.26	225.83
973.55	225.84
973.85	225.77
974.14	225.75
974.43	225.76
974.73	225.75
975.02	225.73
975.31	225.75
975.61	225.74
975.90	225.74
976.19	225.71
976.49	225.73
976.78	225.71
977.07	225.69
977.37	225.72
977.66	225.72
977.95	225.70
978.24	225.71
978.54	225.75
978.83	225.74
979.12	225.72
979.42	225.71
979.71	225.70
980.00	225.72
980.29	225.72
980.59	225.69
980.88	225.69
981.17	225.69
981.46	225.71
981.76	225.75
982.05	225.78
982.34	225.82
982.63	225.81
982.93	225.86
983.22	225.91
983.51	225.88
983.80	225.92
984.09	225.96
984.39	225.94
984.68	225.94
984.97	225.96
985.26	225.95
985.55	225.93
985.85	225.94
986.14	225.94
986.43	225.96
986.72	225.94
987.01	225.93
987.30	225.95
987.59	225.92
987.89	225.88
988.18	225.83
988.47	225.83
988.76	225.86
989.05	225.81
989.34	225.78
989.63	225.81
989.92	225.81
990.22	225.78
990.51	225.76
990.80	225.75
991.09	225.76
991.38	225.77
991.67	225.77
991.96	225.72
992.25	225.72
992.54	225.72
992.83	225.75
993.12	225.75
993.41	225.76
993.70	225.83
993.99	225.88
994.28	225.92
994.58	225.93
994.87	225.90
995.16	225.94
995.45	225.94
995.74	225.92
996.03	225.92
996.32	225.96
996.61	226.02
996.90	226.03
997.19	226.03
997.48	226.04
997.77	226.06
998.06	226.08
998.34	226.10
998.63	226.09
998.92	226.10
999.21	226.11
999.50	226.13
999.79	226.07
1000.08	226.09
1000.37	226.10
1000.66	226.08
1000.95	226.11
1001.24	226.10
1001.53	226.12
1001.82	226.11
1002.11	226.09
1002.40	226.11
1002.68	226.12
1002.97	226.20
1003.26	226.21
1003.55	226.21
1003.84	226.18
1004.13	226.23
1004.42	226.21
1004.71	226.20
1004.99	226.20
1005.28	226.22
1005.57	226.24
1005.86	226.23
1006.15	226.23
1006.44	226.19
1006.72	226.23
1007.01	226.23
1007.30	226.23
1007.59	226.21
1007.88	226.23
1008.17	226.24
1008.45	226.23
1008.74	226.19
1009.03	226.10
1009.32	226.06
1009.60	226.09
1009.89	226.09
1010.18	226.04
1010.47	226.03
1010.76	226.03
1011.04	226.02
1011.33	226.04
1011.62	226.01
1011.91	226.02
1012.19	225.98
1012.48	225.98
1012.77	225.95
1013.05	225.99
1013.34	225.98
1013.63	225.97
1013.92	225.96
1014.20	225.93
1014.49	225.89
1014.78	225.90
1015.06	225.90
1015.35	225.90
1015.64	225.91
1015.92	225.94
1016.21	225.95
1016.50	225.95
1016.78	225.97
1017.07	225.94
1017.36	225.89
1017.64	225.88
1017.93	225.86
1018.22	225.86
1018.50	225.88
1018.79	225.90
1019.08	225.83
1019.36	225.84
1019.65	225.82
1019.93	225.83
1020.22	225.87
1020.51	225.92
1020.79	225.92
1021.08	225.62
1021.36	226.22
1021.65	226.03
1021.94	225.73
1022.22	225.74
1022.51	225.43
1022.79	225.96
1023.08	225.94
1023.36	226.93
1023.65	226.19
>>>>>End Processed Spectral Data<<<<<
