SpectraSuite Data File
++++++++++++++++++++++++++++++++++++
Date: Fri Feb 01 15:25:44 EST 2013
User: group
Dark Spectrum Present: No
Reference Spectrum Present: No
Number of Sampled Component Spectra: 1
Spectrometers: USB2E7196
Integration Time (usec): 35000 (USB2E7196)
Spectra Averaged: 100 (USB2E7196)
Boxcar Smoothing: 10 (USB2E7196)
Correct for Electrical Dark: No (USB2E7196)
Strobe/Lamp Enabled: No (USB2E7196)
Correct for Detector Non-linearity: No (USB2E7196)
Correct for Stray Light: No (USB2E7196)
Number of Pixels in Processed Spectrum: 2048
>>>>>Begin Processed Spectral Data<<<<<
339.09	0.00
339.48	215.04
339.86	216.40
340.24	218.27
340.63	219.57
341.01	222.09
341.39	221.92
341.78	223.42
342.16	224.17
342.54	225.45
342.93	213.49
343.31	224.32
343.69	224.89
344.07	225.38
344.46	225.75
344.84	226.13
345.22	226.35
345.60	226.57
345.99	226.76
346.37	226.89
346.75	226.99
347.13	227.08
347.52	227.14
347.90	227.25
348.28	227.25
348.66	227.26
349.05	227.26
349.43	227.28
349.81	227.33
350.19	227.38
350.57	227.44
350.96	227.53
351.34	227.56
351.72	227.62
352.10	227.72
352.48	227.82
352.87	227.86
353.25	227.94
353.63	228.02
354.01	228.07
354.39	228.16
354.77	228.21
355.15	228.27
355.54	228.36
355.92	228.36
356.30	228.45
356.68	228.59
357.06	228.67
357.44	228.76
357.82	228.77
358.20	228.85
358.58	228.93
358.97	228.98
359.35	229.07
359.73	229.16
360.11	229.22
360.49	229.27
360.87	229.31
361.25	229.39
361.63	229.47
362.01	229.52
362.39	229.54
362.77	229.56
363.15	229.57
363.53	229.53
363.91	229.56
364.29	229.59
364.67	229.48
365.05	229.47
365.43	229.43
365.81	229.44
366.19	229.45
366.57	229.46
366.95	229.46
367.33	229.42
367.71	229.38
368.09	229.33
368.47	229.32
368.85	229.30
369.23	229.28
369.61	229.20
369.99	229.22
370.37	229.20
370.75	229.20
371.13	229.17
371.51	229.14
371.89	229.09
372.27	229.03
372.65	229.01
373.03	228.95
373.41	228.87
373.78	228.82
374.16	228.70
374.54	228.58
374.92	228.49
375.30	228.40
375.68	228.32
376.06	228.22
376.44	228.16
376.82	228.07
377.19	228.00
377.57	227.93
377.95	227.81
378.33	227.70
378.71	227.57
379.09	227.49
379.47	227.44
379.84	227.34
380.22	227.25
380.60	227.16
380.98	227.10
381.36	227.04
381.73	226.95
382.11	226.90
382.49	226.84
382.87	226.77
383.25	226.73
383.62	226.78
384.00	226.74
384.38	226.68
384.76	226.63
385.13	226.59
385.51	226.53
385.89	226.48
386.27	226.46
386.64	226.47
387.02	226.44
387.40	226.40
387.78	226.42
388.15	226.36
388.53	226.34
388.91	226.31
389.29	226.25
389.66	226.28
390.04	226.25
390.42	226.26
390.79	226.29
391.17	226.26
391.55	226.16
391.92	226.14
392.30	226.14
392.68	226.17
393.05	226.20
393.43	226.22
393.81	226.22
394.18	226.21
394.56	226.20
394.94	226.25
395.31	226.25
395.69	226.27
396.06	226.34
396.44	226.41
396.82	226.45
397.19	226.58
397.57	226.60
397.95	226.66
398.32	226.68
398.70	226.71
399.07	226.85
399.45	226.92
399.82	227.00
400.20	227.10
400.58	227.19
400.95	227.20
401.33	227.31
401.70	227.48
402.08	227.60
402.45	227.72
402.83	227.82
403.20	227.94
403.58	228.05
403.95	228.22
404.33	228.34
404.71	228.48
405.08	228.67
405.46	228.81
405.83	228.99
406.21	229.16
406.58	229.33
406.96	229.47
407.33	229.65
407.70	229.86
408.08	230.12
408.45	230.29
408.83	230.54
409.20	230.77
409.58	230.93
409.95	231.23
410.33	231.49
410.70	231.74
411.08	232.06
411.45	232.36
411.82	232.66
412.20	233.03
412.57	233.46
412.95	233.73
413.32	234.16
413.69	234.57
414.07	234.99
414.44	235.44
414.82	235.94
415.19	236.49
415.56	237.01
415.94	237.53
416.31	238.18
416.68	238.79
417.06	239.51
417.43	240.22
417.81	240.94
418.18	241.72
418.55	242.56
418.93	243.45
419.30	244.34
419.67	245.25
420.04	246.23
420.42	247.17
420.79	248.35
421.16	249.52
421.54	250.72
421.91	251.95
422.28	253.22
422.66	254.55
423.03	255.84
423.40	257.19
423.77	258.61
424.15	260.05
424.52	261.56
424.89	263.09
425.26	264.64
425.64	266.08
426.01	267.64
426.38	269.29
426.75	270.96
427.13	272.68
427.50	274.48
427.87	276.31
428.24	278.18
428.61	279.93
428.99	281.83
429.36	283.87
429.73	285.94
430.10	287.97
430.47	290.03
430.85	292.16
431.22	294.40
431.59	296.76
431.96	299.01
432.33	301.49
432.70	303.92
433.08	306.70
433.45	309.35
433.82	311.98
434.19	314.87
434.56	317.65
434.93	320.31
435.30	322.94
435.68	325.83
436.05	328.65
436.42	331.45
436.79	334.02
437.16	336.75
437.53	339.61
437.90	342.41
438.27	345.14
438.64	347.98
439.01	350.61
439.38	352.88
439.75	355.05
440.13	357.55
440.50	359.92
440.87	361.82
441.24	363.78
441.61	365.98
441.98	367.48
442.35	369.24
442.72	371.08
443.09	372.92
443.46	373.92
443.83	374.53
444.20	375.09
444.57	375.91
444.94	376.21
445.31	376.55
445.68	376.91
446.05	377.00
446.42	376.62
446.79	376.19
447.16	375.75
447.53	375.43
447.90	374.27
448.27	373.09
448.64	371.50
449.01	370.36
449.37	368.39
449.74	366.51
450.11	364.32
450.48	361.86
450.85	359.36
451.22	357.23
451.59	355.23
451.96	353.27
452.33	350.63
452.70	348.29
453.07	345.46
453.43	342.59
453.80	339.85
454.17	337.16
454.54	334.63
454.91	331.87
455.28	329.22
455.65	326.75
456.02	324.30
456.38	322.12
456.75	319.49
457.12	317.22
457.49	314.99
457.86	312.82
458.23	311.00
458.59	308.92
458.96	306.84
459.33	304.96
459.70	303.09
460.07	301.67
460.43	299.95
460.80	298.31
461.17	296.83
461.54	295.30
461.91	293.88
462.27	292.42
462.64	291.16
463.01	289.73
463.38	288.44
463.74	287.08
464.11	285.92
464.48	284.86
464.85	283.74
465.21	282.89
465.58	281.98
465.95	280.86
466.32	279.98
466.68	279.06
467.05	278.16
467.42	277.23
467.78	276.22
468.15	275.29
468.52	274.64
468.88	273.78
469.25	273.00
469.62	272.36
469.98	271.67
470.35	271.02
470.72	270.44
471.08	269.75
471.45	269.20
471.82	268.65
472.18	268.04
472.55	267.58
472.92	267.01
473.28	266.53
473.65	266.10
474.02	265.62
474.38	265.24
474.75	264.96
475.11	264.61
475.48	264.38
475.85	264.15
476.21	263.91
476.58	263.72
476.94	263.55
477.31	263.40
477.67	263.21
478.04	263.10
478.41	263.03
478.77	263.11
479.14	263.04
479.50	263.06
479.87	263.11
480.23	263.20
480.60	263.27
480.96	263.36
481.33	263.55
481.69	263.73
482.06	263.91
482.42	264.02
482.79	264.26
483.15	264.56
483.52	264.97
483.88	265.28
484.25	265.70
484.61	266.13
484.98	266.55
485.34	267.09
485.71	267.71
486.07	268.33
486.44	268.85
486.80	269.58
487.17	270.28
487.53	271.09
487.90	271.97
488.26	272.90
488.62	273.88
488.99	274.87
489.35	275.90
489.72	277.08
490.08	278.32
490.44	279.59
490.81	280.95
491.17	282.24
491.54	283.76
491.90	285.31
492.26	287.01
492.63	288.71
492.99	290.51
493.36	292.37
493.72	294.44
494.08	296.57
494.45	298.80
494.81	301.17
495.17	303.66
495.54	306.21
495.90	308.88
496.26	311.68
496.63	314.62
496.99	317.72
497.35	320.97
497.72	324.37
498.08	327.89
498.44	331.52
498.80	335.48
499.17	339.48
499.53	343.64
499.89	348.00
500.26	352.56
500.62	357.32
500.98	362.31
501.34	367.36
501.71	372.66
502.07	378.10
502.43	383.74
502.79	389.48
503.16	395.60
503.52	401.88
503.88	408.33
504.24	414.95
504.60	421.85
504.97	428.99
505.33	436.32
505.69	443.98
506.05	451.75
506.41	459.61
506.78	467.82
507.14	476.22
507.50	484.93
507.86	493.92
508.22	503.06
508.59	512.30
508.95	521.85
509.31	531.71
509.67	541.77
510.03	552.04
510.39	562.59
510.75	573.35
511.12	584.29
511.48	595.52
511.84	607.01
512.20	618.50
512.56	630.37
512.92	642.59
513.28	654.99
513.64	667.46
514.00	680.19
514.37	693.11
514.73	706.21
515.09	719.17
515.45	732.49
515.81	746.08
516.17	760.03
516.53	774.23
516.89	788.43
517.25	802.65
517.61	817.04
517.97	831.58
518.33	846.04
518.69	860.85
519.05	875.97
519.41	891.16
519.77	906.79
520.13	922.33
520.49	937.61
520.85	953.04
521.21	968.86
521.57	985.16
521.93	1000.99
522.29	1017.43
522.65	1033.81
523.01	1050.07
523.37	1066.16
523.73	1082.26
524.09	1098.32
524.45	1114.70
524.81	1131.42
525.17	1148.38
525.53	1165.28
525.89	1182.08
526.25	1198.93
526.61	1215.28
526.97	1232.03
527.33	1248.46
527.68	1265.09
528.04	1281.71
528.40	1298.32
528.76	1315.39
529.12	1332.06
529.48	1348.98
529.84	1365.13
530.20	1381.77
530.56	1398.91
530.91	1416.41
531.27	1433.33
531.63	1449.88
531.99	1466.47
532.35	1482.45
532.71	1498.35
533.07	1514.73
533.42	1530.83
533.78	1546.96
534.14	1563.32
534.50	1578.71
534.86	1594.79
535.21	1610.04
535.57	1626.13
535.93	1641.76
536.29	1656.65
536.65	1671.73
537.00	1686.66
537.36	1702.01
537.72	1716.63
538.08	1731.17
538.44	1744.96
538.79	1758.85
539.15	1772.66
539.51	1786.55
539.87	1800.96
540.22	1814.68
540.58	1828.52
540.94	1841.92
541.29	1855.03
541.65	1867.82
542.01	1881.13
542.37	1893.30
542.72	1905.75
543.08	1917.49
543.44	1930.01
543.79	1941.24
544.15	1952.31
544.51	1963.89
544.87	1974.82
545.22	1985.66
545.58	1995.56
545.94	2005.46
546.29	2015.45
546.65	2025.37
547.01	2034.49
547.36	2043.25
547.72	2051.99
548.07	2059.86
548.43	2068.01
548.79	2076.10
549.14	2083.66
549.50	2091.08
549.86	2099.01
550.21	2106.44
550.57	2113.65
550.92	2120.22
551.28	2127.43
551.64	2134.47
551.99	2140.86
552.35	2147.00
552.70	2153.10
553.06	2159.31
553.41	2165.63
553.77	2171.69
554.13	2177.69
554.48	2183.78
554.84	2189.10
555.19	2194.29
555.55	2199.50
555.90	2203.86
556.26	2208.49
556.61	2213.12
556.97	2217.31
557.32	2221.45
557.68	2225.56
558.03	2229.82
558.39	2233.58
558.74	2238.09
559.10	2241.98
559.45	2245.65
559.81	2250.02
560.16	2253.90
560.52	2257.08
560.87	2260.53
561.23	2263.06
561.58	2266.04
561.94	2268.55
562.29	2270.98
562.64	2273.61
563.00	2276.13
563.35	2279.72
563.71	2282.93
564.06	2286.22
564.42	2289.08
564.77	2291.42
565.12	2293.49
565.48	2295.44
565.83	2297.14
566.19	2298.42
566.54	2299.28
566.89	2300.41
567.25	2300.87
567.60	2302.06
567.96	2303.78
568.31	2304.53
568.66	2305.53
569.02	2306.09
569.37	2306.44
569.72	2307.35
570.08	2307.36
570.43	2307.24
570.78	2306.56
571.14	2304.98
571.49	2303.53
571.84	2303.12
572.20	2301.88
572.55	2300.96
572.90	2299.36
573.26	2297.92
573.61	2296.04
573.96	2294.15
574.31	2291.20
574.67	2288.26
575.02	2284.67
575.37	2281.13
575.72	2277.15
576.08	2273.91
576.43	2270.39
576.78	2266.68
577.13	2263.59
577.49	2260.47
577.84	2257.14
578.19	2253.38
578.54	2249.49
578.90	2245.16
579.25	2239.56
579.60	2234.69
579.95	2229.62
580.30	2224.48
580.66	2219.19
581.01	2214.26
581.36	2209.28
581.71	2205.11
582.06	2200.48
582.42	2195.94
582.77	2190.58
583.12	2185.99
583.47	2181.13
583.82	2176.15
584.17	2170.81
584.53	2165.03
584.88	2159.32
585.23	2153.24
585.58	2147.70
585.93	2142.39
586.28	2137.57
586.63	2132.57
586.98	2127.37
587.34	2122.40
587.69	2117.38
588.04	2112.09
588.39	2106.36
588.74	2099.77
589.09	2093.47
589.44	2086.65
589.79	2080.52
590.14	2074.94
590.49	2068.40
590.84	2061.93
591.19	2055.83
591.54	2049.24
591.89	2041.75
592.25	2034.89
592.60	2027.69
592.95	2020.02
593.30	2012.55
593.65	2005.04
594.00	1997.86
594.35	1990.58
594.70	1982.66
595.05	1975.37
595.40	1967.90
595.75	1960.33
596.10	1954.06
596.45	1947.15
596.80	1940.85
597.15	1934.11
597.50	1926.87
597.85	1920.45
598.19	1913.83
598.54	1906.61
598.89	1900.11
599.24	1894.14
599.59	1887.32
599.94	1881.13
600.29	1874.83
600.64	1868.22
600.99	1860.57
601.34	1853.55
601.69	1846.51
602.04	1839.46
602.39	1832.21
602.74	1825.43
603.08	1818.71
603.43	1812.08
603.78	1804.80
604.13	1797.63
604.48	1790.27
604.83	1783.45
605.18	1776.27
605.53	1768.15
605.87	1760.03
606.22	1752.68
606.57	1744.79
606.92	1737.55
607.27	1730.25
607.62	1723.23
607.96	1715.92
608.31	1709.28
608.66	1701.59
609.01	1693.93
609.36	1686.38
609.70	1678.20
610.05	1670.09
610.40	1662.23
610.75	1653.78
611.10	1646.15
611.44	1637.79
611.79	1629.79
612.14	1621.04
612.49	1611.92
612.83	1603.51
613.18	1595.49
613.53	1587.48
613.88	1578.96
614.22	1570.65
614.57	1562.15
614.92	1554.13
615.27	1546.49
615.61	1538.10
615.96	1530.21
616.31	1522.65
616.65	1515.31
617.00	1507.77
617.35	1500.25
617.70	1491.94
618.04	1483.38
618.39	1474.98
618.74	1467.45
619.08	1459.15
619.43	1451.68
619.78	1444.77
620.12	1437.66
620.47	1430.05
620.82	1421.78
621.16	1414.41
621.51	1406.81
621.85	1399.15
622.20	1390.62
622.55	1382.27
622.89	1374.54
623.24	1367.00
623.59	1359.62
623.93	1351.99
624.28	1344.81
624.62	1337.17
624.97	1329.95
625.32	1323.29
625.66	1316.32
626.01	1309.01
626.35	1301.64
626.70	1293.83
627.04	1285.99
627.39	1278.18
627.73	1270.84
628.08	1263.94
628.43	1256.66
628.77	1249.22
629.12	1241.49
629.46	1234.31
629.81	1227.02
630.15	1219.69
630.50	1212.26
630.84	1204.04
631.19	1196.30
631.53	1188.70
631.88	1181.19
632.22	1173.66
632.57	1166.41
632.91	1158.87
633.26	1151.44
633.60	1144.09
633.95	1137.09
634.29	1130.21
634.64	1123.62
634.98	1116.20
635.32	1109.04
635.67	1102.46
636.01	1095.89
636.36	1089.32
636.70	1082.85
637.05	1076.18
637.39	1069.78
637.73	1063.18
638.08	1057.35
638.42	1051.32
638.77	1044.97
639.11	1038.33
639.45	1031.94
639.80	1025.24
640.14	1018.79
640.49	1012.31
640.83	1005.97
641.17	999.63
641.52	993.28
641.86	986.82
642.20	981.02
642.55	974.76
642.89	968.17
643.23	961.69
643.58	955.83
643.92	949.55
644.26	943.45
644.61	937.47
644.95	931.40
645.29	924.78
645.64	917.98
645.98	911.59
646.32	905.83
646.66	899.84
647.01	894.01
647.35	888.41
647.69	882.60
648.04	877.13
648.38	871.29
648.72	865.27
649.06	859.21
649.41	853.33
649.75	847.28
650.09	841.37
650.43	835.47
650.78	829.28
651.12	823.36
651.46	817.64
651.80	811.83
652.14	806.47
652.49	801.11
652.83	795.93
653.17	790.21
653.51	784.44
653.85	778.99
654.20	773.35
654.54	767.34
654.88	761.55
655.22	755.57
655.56	749.95
655.90	744.48
656.25	739.22
656.59	733.88
656.93	728.83
657.27	723.64
657.61	718.25
657.95	713.15
658.29	708.08
658.64	702.88
658.98	697.60
659.32	692.06
659.66	686.82
660.00	681.54
660.34	676.66
660.68	671.72
661.02	666.78
661.36	662.10
661.70	657.62
662.05	653.35
662.39	649.04
662.73	644.61
663.07	640.23
663.41	635.75
663.75	631.19
664.09	626.59
664.43	622.24
664.77	618.14
665.11	613.85
665.45	609.76
665.79	605.66
666.13	601.51
666.47	597.50
666.81	593.42
667.15	589.28
667.49	585.40
667.83	581.60
668.17	577.61
668.51	573.50
668.85	569.45
669.19	565.56
669.53	561.79
669.87	557.88
670.21	554.19
670.55	550.62
670.89	547.25
671.23	543.86
671.57	540.36
671.91	536.80
672.25	533.47
672.58	529.96
672.92	526.60
673.26	523.49
673.60	520.44
673.94	517.29
674.28	514.41
674.62	511.47
674.96	508.38
675.30	505.48
675.64	502.59
675.97	499.84
676.31	497.02
676.65	494.09
676.99	491.46
677.33	488.62
677.67	485.77
678.01	482.73
678.34	479.73
678.68	476.90
679.02	474.14
679.36	471.36
679.70	468.63
680.04	465.91
680.37	463.05
680.71	460.21
681.05	457.60
681.39	454.86
681.73	452.23
682.06	449.72
682.40	447.20
682.74	444.70
683.08	442.21
683.42	439.61
683.75	437.07
684.09	434.48
684.43	432.05
684.77	429.58
685.10	427.28
685.44	425.04
685.78	422.77
686.12	420.53
686.45	418.27
686.79	415.95
687.13	413.73
687.46	411.50
687.80	409.39
688.14	407.19
688.48	405.21
688.81	402.97
689.15	400.80
689.49	398.71
689.82	396.63
690.16	394.50
690.50	392.45
690.83	390.51
691.17	388.47
691.51	386.53
691.84	384.73
692.18	382.77
692.52	380.75
692.85	378.80
693.19	376.92
693.52	375.02
693.86	373.23
694.20	371.45
694.53	369.69
694.87	367.87
695.21	366.08
695.54	364.19
695.88	362.47
696.21	360.76
696.55	359.04
696.88	357.37
697.22	355.73
697.56	354.19
697.89	352.55
698.23	350.98
698.56	349.35
698.90	347.76
699.23	346.13
699.57	344.57
699.90	342.99
700.24	341.40
700.58	339.88
700.91	338.36
701.25	336.93
701.58	335.55
701.92	334.16
702.25	332.79
702.59	331.45
702.92	330.11
703.26	328.83
703.59	327.58
703.93	326.37
704.26	325.16
704.60	323.88
704.93	322.63
705.26	321.40
705.60	320.25
705.93	319.11
706.27	318.07
706.60	317.07
706.94	316.02
707.27	314.95
707.61	313.89
707.94	312.90
708.27	311.83
708.61	310.74
708.94	309.76
709.28	308.81
709.61	307.88
709.94	306.98
710.28	305.95
710.61	304.96
710.95	303.91
711.28	302.96
711.61	301.98
711.95	301.08
712.28	300.11
712.61	299.15
712.95	298.20
713.28	297.30
713.61	296.39
713.95	295.48
714.28	294.60
714.61	293.75
714.95	292.90
715.28	292.03
715.61	291.16
715.95	290.29
716.28	289.41
716.61	288.59
716.95	287.76
717.28	287.05
717.61	286.26
717.94	285.53
718.28	284.77
718.61	284.08
718.94	283.40
719.27	282.74
719.61	282.12
719.94	281.52
720.27	280.83
720.60	280.18
720.94	279.59
721.27	279.03
721.60	278.47
721.93	277.83
722.27	277.32
722.60	276.80
722.93	276.26
723.26	275.71
723.59	275.14
723.93	274.59
724.26	274.01
724.59	273.46
724.92	272.90
725.25	272.39
725.59	271.85
725.92	271.32
726.25	270.84
726.58	270.32
726.91	269.77
727.24	269.28
727.57	268.79
727.91	268.28
728.24	267.82
728.57	267.31
728.90	266.88
729.23	266.37
729.56	265.92
729.89	265.42
730.22	264.96
730.55	264.49
730.89	264.03
731.22	263.57
731.55	263.15
731.88	262.75
732.21	262.32
732.54	261.88
732.87	261.44
733.20	261.06
733.53	260.67
733.86	260.28
734.19	259.90
734.52	259.50
734.85	259.20
735.18	258.79
735.51	258.42
735.84	258.05
736.17	257.68
736.50	257.28
736.83	257.04
737.16	256.67
737.49	256.34
737.82	255.96
738.15	255.67
738.48	255.37
738.81	255.05
739.14	254.73
739.47	254.44
739.80	254.14
740.13	253.81
740.46	253.44
740.79	253.10
741.12	252.80
741.45	252.53
741.78	252.16
742.11	251.86
742.44	251.55
742.77	251.28
743.10	250.97
743.43	250.67
743.75	250.32
744.08	250.21
744.41	249.93
744.74	249.70
745.07	249.42
745.40	249.17
745.73	248.90
746.06	248.65
746.39	248.41
746.71	248.14
747.04	247.87
747.37	247.61
747.70	247.39
748.03	247.11
748.36	246.86
748.68	246.64
749.01	246.41
749.34	246.21
749.67	245.98
750.00	245.77
750.33	245.63
750.65	245.42
750.98	245.08
751.31	244.87
751.64	244.65
751.97	244.49
752.29	244.25
752.62	244.03
752.95	243.76
753.28	243.52
753.60	243.30
753.93	243.11
754.26	242.95
754.59	242.74
754.91	242.57
755.24	242.39
755.57	242.20
755.90	242.03
756.22	241.80
756.55	241.59
756.88	241.35
757.20	241.11
757.53	240.88
757.86	240.72
758.19	240.61
758.51	240.40
758.84	240.17
759.17	240.03
759.49	239.86
759.82	239.77
760.15	239.66
760.47	239.52
760.80	239.34
761.13	239.22
761.45	239.05
761.78	238.90
762.11	238.74
762.43	238.59
762.76	238.43
763.08	238.32
763.41	238.18
763.74	238.11
764.06	237.97
764.39	237.84
764.71	237.69
765.04	237.51
765.37	237.41
765.69	237.27
766.02	237.13
766.34	237.01
766.67	236.84
767.00	236.72
767.32	236.68
767.65	236.64
767.97	236.52
768.30	236.42
768.62	236.32
768.95	236.20
769.27	236.08
769.60	235.99
769.92	235.88
770.25	235.76
770.57	235.63
770.90	235.53
771.22	235.41
771.55	235.31
771.87	235.22
772.20	235.10
772.52	235.11
772.85	235.12
773.17	235.06
773.50	234.99
773.82	234.88
774.15	234.72
774.47	234.58
774.80	234.46
775.12	234.36
775.45	234.25
775.77	234.17
776.09	234.10
776.42	234.04
776.74	233.98
777.07	233.91
777.39	233.83
777.72	233.76
778.04	233.71
778.36	233.63
778.69	233.55
779.01	233.50
779.33	233.35
779.66	233.17
779.98	233.10
780.31	233.00
780.63	232.95
780.95	232.90
781.28	232.84
781.60	232.78
781.92	232.74
782.25	232.68
782.57	232.60
782.89	232.49
783.22	232.42
783.54	232.34
783.86	232.27
784.19	232.21
784.51	232.19
784.83	232.11
785.16	232.05
785.48	232.04
785.80	231.98
786.12	231.93
786.45	231.87
786.77	231.82
787.09	231.82
787.42	231.77
787.74	231.71
788.06	231.66
788.38	231.62
788.71	231.55
789.03	231.51
789.35	231.51
789.67	231.50
789.99	231.45
790.32	231.38
790.64	231.37
790.96	231.42
791.28	231.33
791.61	231.30
791.93	231.28
792.25	231.22
792.57	231.27
792.89	231.22
793.21	231.18
793.54	231.12
793.86	231.05
794.18	231.02
794.50	230.98
794.82	230.92
795.14	230.91
795.47	230.88
795.79	230.85
796.11	230.78
796.43	230.77
796.75	230.74
797.07	230.74
797.39	230.71
797.71	230.59
798.04	230.57
798.36	230.53
798.68	230.49
799.00	230.42
799.32	230.32
799.64	230.34
799.96	230.31
800.28	230.30
800.60	230.23
800.92	230.18
801.24	230.15
801.56	230.11
801.89	230.04
802.21	230.02
802.53	230.00
802.85	229.97
803.17	229.95
803.49	229.88
803.81	229.82
804.13	229.78
804.45	229.75
804.77	229.72
805.09	229.69
805.41	229.67
805.73	229.65
806.05	229.60
806.37	229.52
806.69	229.49
807.01	229.43
807.33	229.45
807.65	229.40
807.97	229.41
808.28	229.40
808.60	229.39
808.92	229.36
809.24	229.38
809.56	229.34
809.88	229.27
810.20	229.27
810.52	229.26
810.84	229.20
811.16	229.15
811.48	229.13
811.80	229.16
812.12	229.15
812.43	229.12
812.75	229.12
813.07	229.10
813.39	229.06
813.71	229.05
814.03	229.03
814.35	229.02
814.67	228.94
814.98	228.93
815.30	228.88
815.62	228.83
815.94	228.75
816.26	228.79
816.58	228.77
816.89	228.76
817.21	228.71
817.53	228.71
817.85	228.68
818.17	228.68
818.48	228.60
818.80	228.57
819.12	228.56
819.44	228.54
819.76	228.50
820.07	228.52
820.39	228.52
820.71	228.50
821.03	228.47
821.34	228.50
821.66	228.50
821.98	228.54
822.30	228.54
822.61	228.63
822.93	228.55
823.25	228.56
823.57	228.54
823.88	228.58
824.20	228.57
824.52	228.59
824.83	228.55
825.15	228.56
825.47	228.54
825.79	228.54
826.10	228.50
826.42	228.49
826.74	228.46
827.05	228.45
827.37	228.42
827.69	228.41
828.00	228.37
828.32	228.35
828.64	228.33
828.95	228.35
829.27	228.26
829.58	228.28
829.90	228.27
830.22	228.26
830.53	228.19
830.85	228.16
831.17	228.11
831.48	228.12
831.80	228.11
832.11	228.09
832.43	228.05
832.75	228.05
833.06	228.13
833.38	228.10
833.69	228.09
834.01	228.10
834.32	228.10
834.64	228.09
834.96	228.10
835.27	228.08
835.59	228.05
835.90	228.06
836.22	228.05
836.53	228.02
836.85	227.99
837.16	228.08
837.48	228.11
837.79	228.17
838.11	228.16
838.42	228.18
838.74	228.18
839.05	228.15
839.37	228.13
839.68	228.06
840.00	228.05
840.31	228.02
840.63	228.00
840.94	227.96
841.26	227.98
841.57	227.97
841.88	227.98
842.20	227.92
842.51	227.84
842.83	227.87
843.14	227.94
843.46	227.97
843.77	227.90
844.08	227.86
844.40	227.83
844.71	227.81
845.03	227.77
845.34	227.75
845.65	227.79
845.97	227.78
846.28	227.78
846.60	227.76
846.91	227.76
847.22	227.75
847.54	227.76
847.85	227.69
848.16	227.66
848.48	227.61
848.79	227.66
849.10	227.68
849.42	227.67
849.73	227.56
850.04	227.52
850.36	227.53
850.67	227.55
850.98	227.53
851.30	227.55
851.61	227.53
851.92	227.55
852.23	227.55
852.55	227.56
852.86	227.57
853.17	227.60
853.49	227.58
853.80	227.61
854.11	227.60
854.42	227.66
854.74	227.63
855.05	227.67
855.36	227.60
855.67	227.63
855.99	227.60
856.30	227.74
856.61	227.76
856.92	227.71
857.23	227.74
857.55	227.74
857.86	227.73
858.17	227.75
858.48	227.71
858.79	227.67
859.11	227.68
859.42	227.68
859.73	227.67
860.04	227.70
860.35	227.65
860.66	227.65
860.98	227.62
861.29	227.66
861.60	227.64
861.91	227.68
862.22	227.66
862.53	227.65
862.84	227.53
863.16	227.56
863.47	227.55
863.78	227.53
864.09	227.51
864.40	227.54
864.71	227.53
865.02	227.54
865.33	227.54
865.64	227.53
865.95	227.53
866.27	227.59
866.58	227.57
866.89	227.61
867.20	227.60
867.51	227.61
867.82	227.62
868.13	227.66
868.44	227.64
868.75	227.68
869.06	227.68
869.37	227.70
869.68	227.67
869.99	227.68
870.30	227.69
870.61	227.71
870.92	227.68
871.23	227.64
871.54	227.66
871.85	227.67
872.16	227.69
872.47	227.66
872.78	227.62
873.09	227.64
873.40	227.62
873.71	227.63
874.02	227.63
874.33	227.58
874.64	227.54
874.95	227.54
875.26	227.51
875.56	227.52
875.87	227.50
876.18	227.47
876.49	227.60
876.80	227.58
877.11	227.54
877.42	227.54
877.73	227.58
878.04	227.56
878.35	227.59
878.66	227.58
878.96	227.58
879.27	227.55
879.58	227.55
879.89	227.53
880.20	227.54
880.51	227.54
880.82	227.53
881.12	227.55
881.43	227.53
881.74	227.51
882.05	227.49
882.36	227.54
882.67	227.54
882.97	227.40
883.28	227.40
883.59	227.40
883.90	227.40
884.21	227.41
884.51	227.40
884.82	227.36
885.13	227.33
885.44	227.30
885.74	227.30
886.05	227.27
886.36	227.23
886.67	227.17
886.98	227.20
887.28	227.20
887.59	227.20
887.90	227.20
888.20	227.19
888.51	227.20
888.82	227.14
889.13	227.15
889.43	227.21
889.74	227.17
890.05	227.16
890.35	227.12
890.66	227.10
890.97	227.10
891.28	227.09
891.58	227.10
891.89	227.14
892.20	227.12
892.50	227.10
892.81	227.14
893.12	227.15
893.42	227.08
893.73	227.03
894.04	227.00
894.34	227.00
894.65	226.97
894.95	226.95
895.26	226.95
895.57	226.97
895.87	226.85
896.18	226.90
896.48	226.92
896.79	226.91
897.10	226.92
897.40	226.90
897.71	226.92
898.01	226.89
898.32	226.87
898.63	226.87
898.93	226.90
899.24	226.91
899.54	226.92
899.85	226.94
900.15	226.97
900.46	227.00
900.76	227.02
901.07	227.08
901.38	227.08
901.68	227.08
901.99	227.05
902.29	227.10
902.60	227.10
902.90	227.10
903.21	227.15
903.51	227.16
903.82	227.18
904.12	227.18
904.43	227.22
904.73	227.25
905.03	227.26
905.34	227.34
905.64	227.33
905.95	227.35
906.25	227.34
906.56	227.37
906.86	227.37
907.17	227.35
907.47	227.32
907.77	227.32
908.08	227.33
908.38	227.33
908.69	227.35
908.99	227.31
909.30	227.35
909.60	227.32
909.90	227.31
910.21	227.26
910.51	227.27
910.81	227.28
911.12	227.24
911.42	227.26
911.73	227.17
912.03	227.17
912.33	227.18
912.64	227.19
912.94	227.18
913.24	227.17
913.55	227.15
913.85	227.19
914.15	227.20
914.46	227.19
914.76	227.19
915.06	227.16
915.37	227.19
915.67	227.15
915.97	227.14
916.27	227.13
916.58	227.16
916.88	227.16
917.18	227.13
917.49	227.19
917.79	227.17
918.09	227.18
918.39	227.18
918.70	227.20
919.00	227.21
919.30	227.24
919.60	227.22
919.91	227.22
920.21	227.21
920.51	227.16
920.81	227.16
921.12	227.16
921.42	227.18
921.72	227.16
922.02	227.15
922.32	227.15
922.63	227.16
922.93	227.20
923.23	227.18
923.53	227.18
923.83	227.12
924.13	227.15
924.44	227.13
924.74	227.16
925.04	227.15
925.34	227.14
925.64	227.10
925.94	227.12
926.24	227.16
926.55	227.15
926.85	227.18
927.15	227.17
927.45	227.19
927.75	227.18
928.05	227.18
928.35	227.18
928.65	227.17
928.95	227.19
929.26	227.12
929.56	227.13
929.86	227.12
930.16	227.13
930.46	227.07
930.76	227.08
931.06	227.02
931.36	226.98
931.66	226.99
931.96	227.00
932.26	226.99
932.56	226.96
932.86	226.96
933.16	226.96
933.46	226.96
933.76	226.92
934.06	226.93
934.36	226.97
934.66	226.93
934.96	226.94
935.26	226.90
935.56	226.96
935.86	226.93
936.16	226.91
936.46	226.93
936.76	226.92
937.06	226.92
937.36	226.93
937.66	226.97
937.96	226.95
938.26	226.92
938.56	226.90
938.86	226.89
939.16	226.91
939.46	226.91
939.76	226.93
940.06	226.94
940.35	226.94
940.65	226.90
940.95	226.94
941.25	226.93
941.55	226.96
941.85	226.93
942.15	226.94
942.45	226.99
942.75	226.98
943.04	227.01
943.34	227.01
943.64	227.02
943.94	226.97
944.24	226.97
944.54	226.98
944.84	227.00
945.13	227.00
945.43	226.96
945.73	226.97
946.03	226.95
946.33	226.92
946.62	226.90
946.92	226.87
947.22	226.91
947.52	226.90
947.82	226.92
948.11	226.92
948.41	226.92
948.71	226.90
949.01	226.89
949.31	226.89
949.60	226.88
949.90	226.87
950.20	226.90
950.50	226.90
950.79	226.87
951.09	226.89
951.39	226.85
951.69	226.84
951.98	226.85
952.28	226.85
952.58	226.85
952.87	226.86
953.17	226.88
953.47	226.84
953.76	226.84
954.06	226.79
954.36	226.77
954.66	226.81
954.95	226.81
955.25	226.84
955.55	226.85
955.84	226.83
956.14	226.87
956.44	226.88
956.73	226.87
957.03	226.88
957.32	226.87
957.62	226.92
957.92	226.96
958.21	226.94
958.51	227.08
958.81	227.11
959.10	227.12
959.40	227.17
959.69	227.18
959.99	227.21
960.29	227.23
960.58	227.19
960.88	227.22
961.17	227.19
961.47	227.17
961.76	227.16
962.06	227.19
962.36	227.15
962.65	227.15
962.95	227.15
963.24	227.19
963.54	227.19
963.83	227.21
964.13	227.21
964.42	227.17
964.72	227.09
965.01	227.10
965.31	227.08
965.60	227.07
965.90	227.12
966.19	227.09
966.49	227.10
966.78	227.16
967.08	227.13
967.37	227.16
967.67	227.14
967.96	227.16
968.26	227.15
968.55	227.17
968.85	227.17
969.14	227.17
969.43	227.13
969.73	227.14
970.02	227.10
970.32	227.10
970.61	227.10
970.91	227.06
971.20	227.05
971.49	227.07
971.79	227.06
972.08	226.99
972.38	227.01
972.67	226.99
972.96	226.99
973.26	226.95
973.55	226.98
973.85	226.98
974.14	226.94
974.43	226.98
974.73	226.97
975.02	226.96
975.31	226.97
975.61	226.96
975.90	226.92
976.19	226.91
976.49	226.91
976.78	226.96
977.07	226.94
977.37	226.95
977.66	226.91
977.95	226.92
978.24	226.94
978.54	226.94
978.83	226.94
979.12	226.94
979.42	226.96
979.71	226.88
980.00	226.91
980.29	226.93
980.59	226.88
980.88	226.91
981.17	226.90
981.46	226.91
981.76	226.92
982.05	226.96
982.34	226.98
982.63	227.01
982.93	226.99
983.22	227.04
983.51	227.04
983.80	227.08
984.09	227.09
984.39	227.08
984.68	227.05
984.97	227.06
985.26	227.03
985.55	227.05
985.85	227.08
986.14	227.08
986.43	227.09
986.72	227.08
987.01	227.04
987.30	227.07
987.59	227.05
987.89	227.06
988.18	227.04
988.47	227.03
988.76	226.99
989.05	226.97
989.34	226.96
989.63	226.97
989.92	226.92
990.22	226.89
990.51	226.89
990.80	226.93
991.09	226.95
991.38	226.98
991.67	226.96
991.96	226.94
992.25	226.93
992.54	226.93
992.83	226.92
993.12	226.92
993.41	226.92
993.70	226.95
993.99	226.97
994.28	226.97
994.58	226.97
994.87	226.99
995.16	227.01
995.45	226.98
995.74	226.94
996.03	226.97
996.32	226.97
996.61	226.97
996.90	226.97
997.19	226.97
997.48	226.96
997.77	226.94
998.06	226.93
998.34	226.94
998.63	226.94
998.92	226.98
999.21	226.98
999.50	226.94
999.79	226.92
1000.08	226.94
1000.37	226.96
1000.66	226.95
1000.95	226.94
1001.24	226.96
1001.53	226.98
1001.82	226.98
1002.11	226.96
1002.40	226.98
1002.68	227.02
1002.97	227.07
1003.26	227.04
1003.55	227.02
1003.84	227.07
1004.13	227.11
1004.42	227.10
1004.71	227.10
1004.99	227.08
1005.28	227.12
1005.57	227.14
1005.86	227.10
1006.15	227.05
1006.44	227.04
1006.72	227.03
1007.01	227.01
1007.30	226.97
1007.59	226.98
1007.88	226.96
1008.17	226.98
1008.45	226.96
1008.74	226.91
1009.03	226.85
1009.32	226.84
1009.60	226.83
1009.89	226.78
1010.18	226.74
1010.47	226.71
1010.76	226.70
1011.04	226.66
1011.33	226.70
1011.62	226.70
1011.91	226.72
1012.19	226.72
1012.48	226.73
1012.77	226.73
1013.05	226.77
1013.34	226.78
1013.63	226.76
1013.92	226.78
1014.20	226.77
1014.49	226.78
1014.78	226.79
1015.06	226.76
1015.35	226.78
1015.64	226.79
1015.92	226.80
1016.21	226.80
1016.50	226.81
1016.78	226.79
1017.07	226.81
1017.36	226.77
1017.64	226.75
1017.93	226.76
1018.22	226.78
1018.50	226.76
1018.79	226.77
1019.08	226.74
1019.36	226.73
1019.65	226.73
1019.93	226.75
1020.22	226.78
1020.51	226.80
1020.79	226.76
1021.08	226.98
1021.36	226.68
1021.65	226.78
1021.94	226.85
1022.22	226.51
1022.51	226.82
1022.79	227.34
1023.08	226.99
1023.36	227.54
1023.65	226.32
>>>>>End Processed Spectral Data<<<<<
