SpectraSuite Data File
++++++++++++++++++++++++++++++++++++
Date: Fri Feb 01 17:45:16 EST 2013
User: group
Dark Spectrum Present: No
Reference Spectrum Present: No
Number of Sampled Component Spectra: 1
Spectrometers: USB2E7196
Integration Time (usec): 35000 (USB2E7196)
Spectra Averaged: 100 (USB2E7196)
Boxcar Smoothing: 10 (USB2E7196)
Correct for Electrical Dark: No (USB2E7196)
Strobe/Lamp Enabled: No (USB2E7196)
Correct for Detector Non-linearity: No (USB2E7196)
Correct for Stray Light: No (USB2E7196)
Number of Pixels in Processed Spectrum: 2048
>>>>>Begin Processed Spectral Data<<<<<
339.09	0.00
339.48	212.43
339.86	214.54
340.24	215.15
340.63	216.99
341.01	219.67
341.39	219.10
341.78	220.78
342.16	221.61
342.54	222.46
342.93	210.89
343.31	221.55
343.69	222.09
344.07	222.51
344.46	222.95
344.84	223.29
345.22	223.53
345.60	223.79
345.99	223.98
346.37	224.12
346.75	224.23
347.13	224.31
347.52	224.41
347.90	224.52
348.28	224.57
348.66	224.60
349.05	224.62
349.43	224.69
349.81	224.76
350.19	224.77
350.57	224.83
350.96	224.94
351.34	225.05
351.72	225.16
352.10	225.27
352.48	225.34
352.87	225.45
353.25	225.52
353.63	225.59
354.01	225.67
354.39	225.75
354.77	225.85
355.15	225.98
355.54	226.01
355.92	226.02
356.30	226.08
356.68	226.23
357.06	226.32
357.44	226.39
357.82	226.44
358.20	226.55
358.58	226.62
358.97	226.68
359.35	226.74
359.73	226.79
360.11	226.86
360.49	226.95
360.87	226.99
361.25	227.05
361.63	227.12
362.01	227.17
362.39	227.25
362.77	227.27
363.15	227.27
363.53	227.31
363.91	227.33
364.29	227.37
364.67	227.29
365.05	227.30
365.43	227.30
365.81	227.34
366.19	227.38
366.57	227.41
366.95	227.41
367.33	227.38
367.71	227.37
368.09	227.39
368.47	227.34
368.85	227.29
369.23	227.30
369.61	227.25
369.99	227.26
370.37	227.20
370.75	227.22
371.13	227.14
371.51	227.07
371.89	227.08
372.27	227.04
372.65	227.00
373.03	226.96
373.41	226.91
373.78	226.83
374.16	226.73
374.54	226.64
374.92	226.61
375.30	226.58
375.68	226.49
376.06	226.43
376.44	226.38
376.82	226.34
377.19	226.26
377.57	226.23
377.95	226.13
378.33	226.09
378.71	225.97
379.09	225.92
379.47	225.89
379.84	225.78
380.22	225.72
380.60	225.66
380.98	225.57
381.36	225.52
381.73	225.45
382.11	225.42
382.49	225.38
382.87	225.29
383.25	225.25
383.62	225.35
384.00	225.28
384.38	225.24
384.76	225.18
385.13	225.18
385.51	225.10
385.89	224.99
386.27	224.93
386.64	224.93
387.02	224.91
387.40	224.85
387.78	224.83
388.15	224.81
388.53	224.75
388.91	224.70
389.29	224.67
389.66	224.66
390.04	224.61
390.42	224.61
390.79	224.59
391.17	224.56
391.55	224.42
391.92	224.40
392.30	224.38
392.68	224.35
393.05	224.34
393.43	224.35
393.81	224.40
394.18	224.41
394.56	224.39
394.94	224.40
395.31	224.44
395.69	224.50
396.06	224.52
396.44	224.57
396.82	224.61
397.19	224.70
397.57	224.72
397.95	224.81
398.32	224.78
398.70	224.86
399.07	224.91
399.45	224.95
399.82	224.99
400.20	225.04
400.58	225.11
400.95	225.13
401.33	225.21
401.70	225.34
402.08	225.43
402.45	225.50
402.83	225.63
403.20	225.73
403.58	225.83
403.95	225.94
404.33	226.04
404.71	226.16
405.08	226.34
405.46	226.49
405.83	226.59
406.21	226.78
406.58	226.97
406.96	227.13
407.33	227.34
407.70	227.56
408.08	227.85
408.45	228.11
408.83	228.37
409.20	228.64
409.58	228.85
409.95	229.14
410.33	229.49
410.70	229.76
411.08	230.10
411.45	230.43
411.82	230.79
412.20	231.24
412.57	231.73
412.95	232.10
413.32	232.60
413.69	233.10
414.07	233.67
414.44	234.20
414.82	234.81
415.19	235.48
415.56	236.18
415.94	236.87
416.31	237.65
416.68	238.43
417.06	239.30
417.43	240.15
417.81	241.12
418.18	242.08
418.55	243.12
418.93	244.22
419.30	245.38
419.67	246.56
420.04	247.75
420.42	248.98
420.79	250.44
421.16	251.83
421.54	253.34
421.91	254.81
422.28	256.41
422.66	258.05
423.03	259.68
423.40	261.29
423.77	263.07
424.15	264.87
424.52	266.77
424.89	268.78
425.26	270.73
425.64	272.54
426.01	274.54
426.38	276.60
426.75	278.69
427.13	280.81
427.50	283.09
427.87	285.48
428.24	287.80
428.61	289.98
428.99	292.39
429.36	294.97
429.73	297.54
430.10	300.08
430.47	302.68
430.85	305.33
431.22	308.19
431.59	311.15
431.96	313.93
432.33	316.99
432.70	319.95
433.08	323.46
433.45	326.76
433.82	329.97
434.19	333.58
434.56	337.07
434.93	340.39
435.30	343.62
435.68	347.20
436.05	350.80
436.42	354.29
436.79	357.52
437.16	360.92
437.53	364.46
437.90	367.98
438.27	371.42
438.64	374.96
439.01	378.19
439.38	380.95
439.75	383.73
440.13	386.84
440.50	389.77
440.87	392.07
441.24	394.53
441.61	397.25
441.98	399.18
442.35	401.44
442.72	403.78
443.09	406.10
443.46	407.38
443.83	408.08
444.20	408.74
444.57	409.79
444.94	410.17
445.31	410.65
445.68	411.11
446.05	411.21
446.42	410.76
446.79	410.30
447.16	409.83
447.53	409.47
447.90	408.03
448.27	406.67
448.64	404.70
449.01	403.31
449.37	400.89
449.74	398.55
450.11	395.79
450.48	392.76
450.85	389.62
451.22	386.93
451.59	384.45
451.96	382.10
452.33	378.88
452.70	375.91
453.07	372.39
453.43	368.77
453.80	365.36
454.17	362.02
454.54	358.85
454.91	355.48
455.28	352.08
455.65	349.03
456.02	345.88
456.38	343.24
456.75	339.86
457.12	337.03
457.49	334.22
457.86	331.50
458.23	329.10
458.59	326.51
458.96	323.92
459.33	321.54
459.70	319.14
460.07	317.21
460.43	315.08
460.80	313.05
461.17	311.20
461.54	309.25
461.91	307.46
462.27	305.56
462.64	303.93
463.01	302.20
463.38	300.50
463.74	298.80
464.11	297.31
464.48	296.00
464.85	294.61
465.21	293.49
465.58	292.26
465.95	290.91
466.32	289.73
466.68	288.57
467.05	287.45
467.42	286.30
467.78	285.10
468.15	283.98
468.52	283.12
468.88	282.07
469.25	281.10
469.62	280.29
469.98	279.47
470.35	278.65
470.72	277.87
471.08	277.04
471.45	276.35
471.82	275.64
472.18	274.91
472.55	274.34
472.92	273.70
473.28	273.15
473.65	272.56
474.02	272.00
474.38	271.52
474.75	271.05
475.11	270.62
475.48	270.26
475.85	269.92
476.21	269.61
476.58	269.31
476.94	269.10
477.31	268.85
477.67	268.56
478.04	268.38
478.41	268.25
478.77	268.25
479.14	268.10
479.50	268.08
479.87	268.11
480.23	268.15
480.60	268.13
480.96	268.17
481.33	268.35
481.69	268.52
482.06	268.65
482.42	268.85
482.79	269.05
483.15	269.33
483.52	269.70
483.88	270.02
484.25	270.37
484.61	270.81
484.98	271.24
485.34	271.83
485.71	272.43
486.07	273.05
486.44	273.62
486.80	274.33
487.17	275.07
487.53	275.89
487.90	276.74
488.26	277.73
488.62	278.73
488.99	279.72
489.35	280.76
489.72	281.95
490.08	283.20
490.44	284.50
490.81	285.87
491.17	287.23
491.54	288.77
491.90	290.38
492.26	292.05
492.63	293.83
492.99	295.62
493.36	297.57
493.72	299.71
494.08	301.89
494.45	304.24
494.81	306.63
495.17	309.15
495.54	311.82
495.90	314.56
496.26	317.48
496.63	320.53
496.99	323.77
497.35	327.12
497.72	330.62
498.08	334.26
498.44	338.09
498.80	342.22
499.17	346.40
499.53	350.72
499.89	355.32
500.26	359.98
500.62	364.88
500.98	370.03
501.34	375.26
501.71	380.78
502.07	386.44
502.43	392.31
502.79	398.40
503.16	404.71
503.52	411.20
503.88	417.78
504.24	424.63
504.60	431.73
504.97	439.18
505.33	446.77
505.69	454.84
506.05	462.89
506.41	471.03
506.78	479.47
507.14	488.26
507.50	497.29
507.86	506.75
508.22	516.26
508.59	525.81
508.95	535.79
509.31	546.00
509.67	556.54
510.03	567.23
510.39	578.27
510.75	589.46
511.12	600.92
511.48	612.72
511.84	624.73
512.20	636.77
512.56	649.23
512.92	662.00
513.28	674.82
513.64	687.82
514.00	701.17
514.37	714.77
514.73	728.47
515.09	742.00
515.45	755.87
515.81	770.19
516.17	784.85
516.53	799.76
516.89	814.72
517.25	829.56
517.61	844.75
517.97	859.87
518.33	875.08
518.69	890.61
519.05	906.43
519.41	922.38
519.77	938.84
520.13	955.11
520.49	971.37
520.85	987.58
521.21	1004.10
521.57	1021.22
521.93	1037.92
522.29	1055.20
522.65	1072.49
523.01	1089.56
523.37	1106.55
523.73	1123.82
524.09	1140.83
524.45	1158.03
524.81	1175.72
525.17	1193.44
525.53	1211.39
525.89	1229.36
526.25	1247.29
526.61	1264.69
526.97	1282.66
527.33	1300.16
527.68	1317.80
528.04	1335.39
528.40	1353.24
528.76	1371.67
529.12	1389.48
529.48	1407.57
529.84	1424.78
530.20	1442.71
530.56	1460.97
530.91	1479.63
531.27	1497.49
531.63	1515.13
531.99	1532.99
532.35	1550.39
532.71	1567.78
533.07	1585.33
533.42	1602.58
533.78	1620.00
534.14	1637.72
534.50	1654.35
534.86	1671.69
535.21	1688.38
535.57	1705.79
535.93	1722.71
536.29	1738.83
536.65	1755.27
537.00	1771.32
537.36	1788.16
537.72	1803.99
538.08	1820.05
538.44	1835.39
538.79	1850.99
539.15	1866.00
539.51	1881.24
539.87	1897.05
540.22	1912.16
540.58	1927.56
540.94	1942.28
541.29	1956.55
541.65	1970.74
542.01	1985.46
542.37	1999.29
542.72	2013.28
543.08	2026.58
543.44	2040.52
543.79	2053.45
544.15	2065.91
544.51	2079.12
544.87	2091.51
545.22	2104.04
545.58	2115.76
545.94	2127.00
546.29	2138.37
546.65	2150.04
547.01	2160.92
547.36	2171.10
547.72	2181.18
548.07	2190.67
548.43	2200.51
548.79	2210.00
549.14	2219.10
549.50	2227.84
549.86	2236.96
550.21	2245.74
550.57	2254.40
550.92	2262.56
551.28	2271.01
551.64	2279.52
551.99	2287.55
552.35	2295.13
552.70	2302.69
553.06	2310.09
553.41	2317.89
553.77	2325.17
554.13	2332.57
554.48	2340.15
554.84	2347.27
555.19	2353.68
555.55	2360.20
555.90	2365.90
556.26	2372.40
556.61	2378.39
556.97	2384.18
557.32	2389.51
557.68	2394.72
558.03	2400.08
558.39	2404.81
558.74	2410.68
559.10	2415.90
559.45	2420.67
559.81	2426.09
560.16	2431.01
560.52	2435.60
560.87	2440.04
561.23	2443.65
561.58	2447.53
561.94	2451.06
562.29	2454.18
562.64	2458.32
563.00	2461.59
563.35	2466.11
563.71	2470.24
564.06	2474.25
564.42	2478.23
564.77	2481.75
565.12	2485.32
565.48	2488.31
565.83	2491.19
566.19	2493.38
566.54	2495.09
566.89	2497.26
567.25	2498.83
567.60	2500.78
567.96	2503.26
568.31	2504.90
568.66	2507.03
569.02	2508.52
569.37	2509.50
569.72	2511.20
570.08	2511.80
570.43	2512.61
570.78	2512.76
571.14	2511.56
571.49	2510.82
571.84	2510.82
572.20	2510.41
572.55	2509.79
572.90	2508.53
573.26	2507.51
573.61	2506.03
573.96	2504.81
574.31	2502.00
574.67	2499.41
575.02	2496.23
575.37	2492.82
575.72	2489.31
576.08	2486.01
576.43	2482.69
576.78	2479.41
577.13	2476.20
577.49	2473.11
577.84	2469.70
578.19	2465.94
578.54	2462.60
578.90	2458.66
579.25	2453.18
579.60	2448.17
579.95	2442.98
580.30	2437.90
580.66	2432.71
581.01	2427.74
581.36	2422.57
581.71	2418.49
582.06	2413.92
582.42	2409.29
582.77	2403.97
583.12	2399.30
583.47	2394.64
583.82	2389.81
584.17	2384.20
584.53	2378.60
584.88	2372.73
585.23	2366.88
585.58	2361.12
585.93	2355.23
586.28	2350.01
586.63	2344.74
586.98	2339.32
587.34	2334.35
587.69	2329.29
588.04	2323.99
588.39	2318.01
588.74	2311.07
589.09	2304.33
589.44	2297.07
589.79	2290.46
590.14	2284.46
590.49	2277.25
590.84	2270.15
591.19	2263.55
591.54	2256.73
591.89	2248.98
592.25	2241.87
592.60	2234.08
592.95	2225.97
593.30	2218.00
593.65	2209.79
594.00	2202.01
594.35	2194.10
594.70	2185.27
595.05	2177.47
595.40	2169.19
595.75	2161.03
596.10	2154.37
596.45	2147.21
596.80	2140.29
597.15	2133.21
597.50	2125.66
597.85	2118.58
598.19	2111.44
598.54	2103.74
598.89	2096.27
599.24	2089.53
599.59	2082.27
599.94	2075.28
600.29	2068.34
600.64	2061.08
600.99	2053.03
601.34	2045.44
601.69	2037.62
602.04	2030.20
602.39	2021.96
602.74	2014.50
603.08	2007.07
603.43	1999.51
603.78	1991.27
604.13	1983.37
604.48	1975.40
604.83	1967.58
605.18	1960.14
605.53	1951.35
605.87	1942.36
606.22	1934.42
606.57	1925.56
606.92	1917.27
607.27	1909.35
607.62	1901.55
607.96	1893.55
608.31	1886.10
608.66	1877.69
609.01	1869.42
609.36	1860.93
609.70	1852.03
610.05	1843.05
610.40	1834.52
610.75	1825.29
611.10	1816.75
611.44	1807.37
611.79	1798.36
612.14	1788.67
612.49	1778.11
612.83	1768.49
613.18	1759.32
613.53	1750.06
613.88	1740.67
614.22	1731.32
614.57	1721.51
614.92	1712.58
615.27	1704.18
615.61	1694.94
615.96	1685.92
616.31	1677.22
616.65	1668.86
617.00	1660.47
617.35	1651.78
617.70	1642.36
618.04	1632.87
618.39	1623.50
618.74	1615.03
619.08	1605.59
619.43	1596.98
619.78	1589.28
620.12	1581.38
620.47	1572.98
620.82	1563.82
621.16	1555.26
621.51	1546.57
621.85	1538.01
622.20	1528.47
622.55	1518.92
622.89	1509.99
623.24	1501.32
623.59	1492.95
623.93	1484.48
624.28	1476.28
624.62	1467.90
624.97	1459.78
625.32	1451.78
625.66	1443.81
626.01	1435.60
626.35	1427.46
626.70	1418.73
627.04	1410.06
627.39	1401.11
627.73	1392.71
628.08	1384.91
628.43	1376.65
628.77	1368.55
629.12	1360.09
629.46	1351.98
629.81	1343.52
630.15	1335.21
630.50	1326.84
630.84	1317.78
631.19	1308.87
631.53	1300.23
631.88	1291.59
632.22	1283.04
632.57	1275.00
632.91	1266.60
633.26	1258.37
633.60	1249.83
633.95	1241.84
634.29	1233.85
634.64	1226.39
634.98	1218.12
635.32	1210.12
635.67	1202.82
636.01	1195.33
636.36	1187.81
636.70	1180.39
637.05	1173.06
637.39	1165.87
637.73	1158.55
638.08	1151.86
638.42	1145.01
638.77	1137.83
639.11	1130.55
639.45	1123.37
639.80	1115.91
640.14	1108.77
640.49	1101.36
640.83	1094.32
641.17	1087.42
641.52	1080.32
641.86	1073.08
642.20	1066.50
642.55	1059.38
642.89	1052.05
643.23	1044.63
643.58	1038.09
643.92	1031.16
644.26	1024.53
644.61	1017.83
644.95	1011.21
645.29	1003.88
645.64	996.40
645.98	989.28
646.32	982.59
646.66	975.88
647.01	969.47
647.35	963.04
647.69	956.47
648.04	950.25
648.38	943.75
648.72	937.22
649.06	930.48
649.41	923.89
649.75	917.28
650.09	910.68
650.43	904.25
650.78	897.37
651.12	890.73
651.46	884.30
651.80	877.86
652.14	871.76
652.49	865.76
652.83	860.01
653.17	853.85
653.51	847.59
653.85	841.44
654.20	835.10
654.54	828.45
654.88	822.06
655.22	815.51
655.56	809.16
655.90	802.93
656.25	797.12
656.59	791.18
656.93	785.53
657.27	779.85
657.61	773.81
657.95	768.11
658.29	762.48
658.64	756.53
658.98	750.60
659.32	744.56
659.66	738.79
660.00	732.99
660.34	727.42
660.68	721.89
661.02	716.36
661.36	711.16
661.70	706.19
662.05	701.43
662.39	696.67
662.73	691.67
663.07	686.86
663.41	681.92
663.75	677.06
664.09	671.93
664.43	666.99
664.77	662.47
665.11	657.77
665.45	653.14
665.79	648.62
666.13	644.15
666.47	639.57
666.81	634.94
667.15	630.31
667.49	625.94
667.83	621.66
668.17	617.30
668.51	612.78
668.85	608.29
669.19	603.89
669.53	599.68
669.87	595.40
670.21	591.22
670.55	587.15
670.89	583.21
671.23	579.42
671.57	575.53
671.91	571.57
672.25	567.72
672.58	563.80
672.92	560.00
673.26	556.42
673.60	552.94
673.94	549.51
674.28	546.29
674.62	543.01
674.96	539.59
675.30	536.46
675.64	533.22
675.97	530.12
676.31	527.00
676.65	523.72
676.99	520.74
677.33	517.54
677.67	514.39
678.01	511.10
678.34	507.84
678.68	504.60
679.02	501.46
679.36	498.35
679.70	495.38
680.04	492.34
680.37	489.21
680.71	486.05
681.05	483.06
681.39	480.00
681.73	477.09
682.06	474.31
682.40	471.43
682.74	468.59
683.08	465.72
683.42	462.81
683.75	459.99
684.09	457.06
684.43	454.35
684.77	451.64
685.10	448.99
685.44	446.35
685.78	443.84
686.12	441.32
686.45	438.75
686.79	436.15
687.13	433.73
687.46	431.30
687.80	428.95
688.14	426.50
688.48	424.22
688.81	421.81
689.15	419.39
689.49	416.99
689.82	414.65
690.16	412.31
690.50	410.13
690.83	407.99
691.17	405.81
691.51	403.71
691.84	401.68
692.18	399.57
692.52	397.37
692.85	395.18
693.19	393.10
693.52	391.07
693.86	389.04
694.20	386.96
694.53	384.96
694.87	382.86
695.21	380.85
695.54	378.76
695.88	376.72
696.21	374.81
696.55	372.91
696.88	371.05
697.22	369.20
697.56	367.35
697.89	365.54
698.23	363.78
698.56	361.96
698.90	360.16
699.23	358.30
699.57	356.63
699.90	354.88
700.24	353.13
700.58	351.38
700.91	349.75
701.25	348.13
701.58	346.58
701.92	345.10
702.25	343.62
702.59	342.15
702.92	340.72
703.26	339.30
703.59	337.88
703.93	336.55
704.26	335.20
704.60	333.78
704.93	332.36
705.26	330.94
705.60	329.60
705.93	328.29
706.27	327.13
706.60	325.91
706.94	324.73
707.27	323.50
707.61	322.35
707.94	321.15
708.27	319.97
708.61	318.75
708.94	317.57
709.28	316.44
709.61	315.33
709.94	314.23
710.28	313.04
710.61	311.91
710.95	310.68
711.28	309.61
711.61	308.55
711.95	307.48
712.28	306.44
712.61	305.37
712.95	304.32
713.28	303.30
713.61	302.34
713.95	301.33
714.28	300.39
714.61	299.42
714.95	298.53
715.28	297.60
715.61	296.60
715.95	295.65
716.28	294.66
716.61	293.74
716.95	292.84
717.28	292.02
717.61	291.15
717.94	290.35
718.28	289.46
718.61	288.63
718.94	287.88
719.27	287.09
719.61	286.38
719.94	285.63
720.27	284.85
720.60	284.07
720.94	283.37
721.27	282.67
721.60	282.03
721.93	281.32
722.27	280.68
722.60	280.09
722.93	279.47
723.26	278.89
723.59	278.27
723.93	277.62
724.26	277.02
724.59	276.40
724.92	275.80
725.25	275.31
725.59	274.71
725.92	274.14
726.25	273.57
726.58	272.98
726.91	272.43
727.24	271.90
727.57	271.38
727.91	270.80
728.24	270.29
728.57	269.71
728.90	269.22
729.23	268.68
729.56	268.19
729.89	267.67
730.22	267.16
730.55	266.62
730.89	266.15
731.22	265.64
731.55	265.17
731.88	264.72
732.21	264.24
732.54	263.78
732.87	263.34
733.20	262.91
733.53	262.50
733.86	262.10
734.19	261.67
734.52	261.27
734.85	260.94
735.18	260.52
735.51	260.17
735.84	259.77
736.17	259.39
736.50	258.92
736.83	258.64
737.16	258.24
737.49	257.88
737.82	257.50
738.15	257.11
738.48	256.74
738.81	256.35
739.14	255.96
739.47	255.60
739.80	255.22
740.13	254.89
740.46	254.54
740.79	254.18
741.12	253.80
741.45	253.43
741.78	253.04
742.11	252.66
742.44	252.27
742.77	251.91
743.10	251.58
743.43	251.29
743.75	250.88
744.08	250.73
744.41	250.43
744.74	250.13
745.07	249.83
745.40	249.53
745.73	249.29
746.06	248.96
746.39	248.65
746.71	248.37
747.04	248.07
747.37	247.75
747.70	247.47
748.03	247.17
748.36	246.91
748.68	246.64
749.01	246.32
749.34	246.08
749.67	245.81
750.00	245.53
750.33	245.32
750.65	245.07
750.98	244.66
751.31	244.41
751.64	244.19
751.97	243.96
752.29	243.69
752.62	243.38
752.95	243.16
753.28	242.93
753.60	242.70
753.93	242.48
754.26	242.26
754.59	241.95
754.91	241.74
755.24	241.50
755.57	241.30
755.90	241.13
756.22	240.89
756.55	240.66
756.88	240.43
757.20	240.18
757.53	239.93
757.86	239.73
758.19	239.52
758.51	239.27
758.84	239.05
759.17	238.90
759.49	238.74
759.82	238.59
760.15	238.39
760.47	238.23
760.80	238.06
761.13	237.93
761.45	237.79
761.78	237.62
762.11	237.45
762.43	237.24
762.76	237.11
763.08	236.97
763.41	236.83
763.74	236.71
764.06	236.53
764.39	236.39
764.71	236.25
765.04	236.11
765.37	235.98
765.69	235.85
766.02	235.72
766.34	235.58
766.67	235.45
767.00	235.37
767.32	235.27
767.65	235.19
767.97	235.06
768.30	234.98
768.62	234.86
768.95	234.76
769.27	234.66
769.60	234.53
769.92	234.41
770.25	234.30
770.57	234.18
770.90	234.10
771.22	234.00
771.55	233.88
771.87	233.78
772.20	233.71
772.52	233.72
772.85	233.74
773.17	233.64
773.50	233.49
773.82	233.40
774.15	233.26
774.47	233.09
774.80	233.00
775.12	232.88
775.45	232.77
775.77	232.69
776.09	232.63
776.42	232.57
776.74	232.49
777.07	232.41
777.39	232.31
777.72	232.19
778.04	232.13
778.36	232.06
778.69	232.00
779.01	231.91
779.33	231.73
779.66	231.53
779.98	231.42
780.31	231.34
780.63	231.29
780.95	231.23
781.28	231.14
781.60	231.02
781.92	230.96
782.25	230.91
782.57	230.84
782.89	230.76
783.22	230.63
783.54	230.54
783.86	230.45
784.19	230.39
784.51	230.34
784.83	230.23
785.16	230.15
785.48	230.09
785.80	230.03
786.12	229.97
786.45	229.90
786.77	229.88
787.09	229.81
787.42	229.70
787.74	229.65
788.06	229.61
788.38	229.57
788.71	229.49
789.03	229.43
789.35	229.36
789.67	229.32
789.99	229.31
790.32	229.25
790.64	229.25
790.96	229.27
791.28	229.21
791.61	229.20
791.93	229.18
792.25	229.09
792.57	229.11
792.89	229.06
793.21	229.01
793.54	228.94
793.86	228.90
794.18	228.86
794.50	228.79
794.82	228.73
795.14	228.68
795.47	228.64
795.79	228.59
796.11	228.54
796.43	228.48
796.75	228.44
797.07	228.41
797.39	228.34
797.71	228.24
798.04	228.20
798.36	228.13
798.68	228.09
799.00	228.06
799.32	227.96
799.64	227.94
799.96	227.92
800.28	227.89
800.60	227.89
800.92	227.89
801.24	227.89
801.56	227.86
801.89	227.83
802.21	227.85
802.53	227.81
802.85	227.83
803.17	227.88
803.49	227.81
803.81	227.78
804.13	227.76
804.45	227.74
804.77	227.77
805.09	227.77
805.41	227.74
805.73	227.75
806.05	227.72
806.37	227.72
806.69	227.73
807.01	227.71
807.33	227.70
807.65	227.65
807.97	227.68
808.28	227.68
808.60	227.67
808.92	227.62
809.24	227.67
809.56	227.63
809.88	227.55
810.20	227.57
810.52	227.57
810.84	227.55
811.16	227.55
811.48	227.50
811.80	227.53
812.12	227.52
812.43	227.49
812.75	227.47
813.07	227.41
813.39	227.37
813.71	227.33
814.03	227.32
814.35	227.30
814.67	227.22
814.98	227.19
815.30	227.16
815.62	227.10
815.94	227.07
816.26	227.09
816.58	227.02
816.89	227.00
817.21	226.94
817.53	226.91
817.85	226.86
818.17	226.83
818.48	226.72
818.80	226.69
819.12	226.67
819.44	226.62
819.76	226.59
820.07	226.57
820.39	226.57
820.71	226.53
821.03	226.48
821.34	226.46
821.66	226.45
821.98	226.47
822.30	226.45
822.61	226.48
822.93	226.38
823.25	226.39
823.57	226.35
823.88	226.31
824.20	226.31
824.52	226.31
824.83	226.31
825.15	226.31
825.47	226.29
825.79	226.26
826.10	226.27
826.42	226.25
826.74	226.23
827.05	226.21
827.37	226.22
827.69	226.22
828.00	226.18
828.32	226.14
828.64	226.10
828.95	226.14
829.27	226.05
829.58	226.01
829.90	226.00
830.22	225.97
830.53	225.96
830.85	225.93
831.17	225.85
831.48	225.83
831.80	225.82
832.11	225.82
832.43	225.81
832.75	225.78
833.06	225.84
833.38	225.81
833.69	225.79
834.01	225.77
834.32	225.74
834.64	225.76
834.96	225.72
835.27	225.70
835.59	225.67
835.90	225.64
836.22	225.65
836.53	225.65
836.85	225.63
837.16	225.72
837.48	225.66
837.79	225.73
838.11	225.70
838.42	225.68
838.74	225.66
839.05	225.67
839.37	225.67
839.68	225.58
840.00	225.56
840.31	225.56
840.63	225.54
840.94	225.54
841.26	225.54
841.57	225.55
841.88	225.54
842.20	225.51
842.51	225.51
842.83	225.49
843.14	225.56
843.46	225.56
843.77	225.54
844.08	225.58
844.40	225.54
844.71	225.58
845.03	225.56
845.34	225.58
845.65	225.54
845.97	225.53
846.28	225.56
846.60	225.59
846.91	225.59
847.22	225.60
847.54	225.59
847.85	225.58
848.16	225.57
848.48	225.63
848.79	225.67
849.10	225.70
849.42	225.74
849.73	225.66
850.04	225.64
850.36	225.57
850.67	225.56
850.98	225.56
851.30	225.53
851.61	225.54
851.92	225.52
852.23	225.57
852.55	225.56
852.86	225.54
853.17	225.55
853.49	225.53
853.80	225.55
854.11	225.59
854.42	225.61
854.74	225.60
855.05	225.58
855.36	225.55
855.67	225.55
855.99	225.54
856.30	225.66
856.61	225.68
856.92	225.73
857.23	225.71
857.55	225.69
857.86	225.69
858.17	225.71
858.48	225.70
858.79	225.67
859.11	225.69
859.42	225.68
859.73	225.66
860.04	225.65
860.35	225.56
860.66	225.54
860.98	225.53
861.29	225.55
861.60	225.50
861.91	225.52
862.22	225.50
862.53	225.46
862.84	225.31
863.16	225.33
863.47	225.26
863.78	225.28
864.09	225.25
864.40	225.23
864.71	225.20
865.02	225.20
865.33	225.18
865.64	225.17
865.95	225.19
866.27	225.23
866.58	225.25
866.89	225.27
867.20	225.25
867.51	225.20
867.82	225.17
868.13	225.17
868.44	225.13
868.75	225.13
869.06	225.16
869.37	225.16
869.68	225.10
869.99	225.13
870.30	225.10
870.61	225.16
870.92	225.17
871.23	225.14
871.54	225.13
871.85	225.13
872.16	225.12
872.47	225.09
872.78	225.03
873.09	225.00
873.40	224.98
873.71	224.96
874.02	225.00
874.33	224.99
874.64	224.97
874.95	224.94
875.26	224.89
875.56	224.88
875.87	224.87
876.18	224.86
876.49	224.93
876.80	224.90
877.11	224.84
877.42	224.84
877.73	224.87
878.04	224.85
878.35	224.84
878.66	224.84
878.96	224.82
879.27	224.81
879.58	224.82
879.89	224.82
880.20	224.84
880.51	224.82
880.82	224.81
881.12	224.82
881.43	224.84
881.74	224.83
882.05	224.81
882.36	224.82
882.67	224.85
882.97	224.76
883.28	224.77
883.59	224.75
883.90	224.75
884.21	224.75
884.51	224.76
884.82	224.73
885.13	224.74
885.44	224.73
885.74	224.73
886.05	224.72
886.36	224.72
886.67	224.72
886.98	224.75
887.28	224.78
887.59	224.80
887.90	224.80
888.20	224.83
888.51	224.85
888.82	224.85
889.13	224.85
889.43	224.95
889.74	224.96
890.05	224.98
890.35	224.96
890.66	224.99
890.97	224.97
891.28	225.00
891.58	224.97
891.89	224.97
892.20	224.94
892.50	224.92
892.81	224.95
893.12	224.92
893.42	224.87
893.73	224.84
894.04	224.84
894.34	224.84
894.65	224.84
894.95	224.80
895.26	224.81
895.57	224.87
895.87	224.78
896.18	224.80
896.48	224.80
896.79	224.80
897.10	224.81
897.40	224.79
897.71	224.78
898.01	224.78
898.32	224.81
898.63	224.82
898.93	224.86
899.24	224.84
899.54	224.84
899.85	224.86
900.15	224.90
900.46	224.91
900.76	224.92
901.07	224.91
901.38	224.91
901.68	224.94
901.99	224.84
902.29	224.87
902.60	224.85
902.90	224.83
903.21	224.85
903.51	224.82
903.82	224.88
904.12	224.86
904.43	224.84
904.73	224.83
905.03	224.83
905.34	224.89
905.64	224.88
905.95	224.90
906.25	224.88
906.56	224.85
906.86	224.80
907.17	224.78
907.47	224.78
907.77	224.80
908.08	224.74
908.38	224.74
908.69	224.72
908.99	224.76
909.30	224.80
909.60	224.76
909.90	224.75
910.21	224.71
910.51	224.70
910.81	224.74
911.12	224.74
911.42	224.74
911.73	224.61
912.03	224.60
912.33	224.61
912.64	224.61
912.94	224.57
913.24	224.59
913.55	224.58
913.85	224.51
914.15	224.50
914.46	224.53
914.76	224.56
915.06	224.55
915.37	224.50
915.67	224.45
915.97	224.45
916.27	224.45
916.58	224.45
916.88	224.47
917.18	224.43
917.49	224.45
917.79	224.43
918.09	224.46
918.39	224.47
918.70	224.45
919.00	224.45
919.30	224.50
919.60	224.46
919.91	224.45
920.21	224.47
920.51	224.48
920.81	224.42
921.12	224.41
921.42	224.40
921.72	224.40
922.02	224.42
922.32	224.42
922.63	224.41
922.93	224.45
923.23	224.46
923.53	224.49
923.83	224.49
924.13	224.50
924.44	224.51
924.74	224.54
925.04	224.54
925.34	224.51
925.64	224.49
925.94	224.51
926.24	224.55
926.55	224.56
926.85	224.52
927.15	224.54
927.45	224.55
927.75	224.54
928.05	224.52
928.35	224.51
928.65	224.54
928.95	224.53
929.26	224.50
929.56	224.50
929.86	224.52
930.16	224.49
930.46	224.45
930.76	224.45
931.06	224.42
931.36	224.42
931.66	224.47
931.96	224.48
932.26	224.49
932.56	224.46
932.86	224.49
933.16	224.52
933.46	224.55
933.76	224.56
934.06	224.58
934.36	224.67
934.66	224.67
934.96	224.68
935.26	224.72
935.56	224.75
935.86	224.71
936.16	224.69
936.46	224.70
936.76	224.73
937.06	224.71
937.36	224.71
937.66	224.73
937.96	224.72
938.26	224.70
938.56	224.70
938.86	224.72
939.16	224.75
939.46	224.78
939.76	224.77
940.06	224.75
940.35	224.74
940.65	224.66
940.95	224.65
941.25	224.62
941.55	224.57
941.85	224.55
942.15	224.62
942.45	224.60
942.75	224.61
943.04	224.58
943.34	224.60
943.64	224.59
943.94	224.56
944.24	224.55
944.54	224.57
944.84	224.57
945.13	224.57
945.43	224.52
945.73	224.50
946.03	224.51
946.33	224.51
946.62	224.50
946.92	224.49
947.22	224.50
947.52	224.50
947.82	224.52
948.11	224.51
948.41	224.46
948.71	224.47
949.01	224.45
949.31	224.42
949.60	224.39
949.90	224.41
950.20	224.40
950.50	224.38
950.79	224.35
951.09	224.38
951.39	224.39
951.69	224.40
951.98	224.40
952.28	224.42
952.58	224.41
952.87	224.41
953.17	224.43
953.47	224.39
953.76	224.37
954.06	224.36
954.36	224.32
954.66	224.31
954.95	224.30
955.25	224.29
955.55	224.33
955.84	224.32
956.14	224.30
956.44	224.31
956.73	224.29
957.03	224.32
957.32	224.27
957.62	224.22
957.92	224.20
958.21	224.19
958.51	224.24
958.81	224.25
959.10	224.24
959.40	224.26
959.69	224.26
959.99	224.27
960.29	224.24
960.58	224.27
960.88	224.34
961.17	224.35
961.47	224.37
961.76	224.38
962.06	224.41
962.36	224.40
962.65	224.43
962.95	224.45
963.24	224.41
963.54	224.44
963.83	224.47
964.13	224.48
964.42	224.46
964.72	224.42
965.01	224.46
965.31	224.44
965.60	224.41
965.90	224.51
966.19	224.53
966.49	224.57
966.78	224.56
967.08	224.55
967.37	224.56
967.67	224.57
967.96	224.61
968.26	224.62
968.55	224.63
968.85	224.62
969.14	224.61
969.43	224.64
969.73	224.66
970.02	224.67
970.32	224.70
970.61	224.73
970.91	224.69
971.20	224.66
971.49	224.70
971.79	224.73
972.08	224.67
972.38	224.68
972.67	224.69
972.96	224.71
973.26	224.67
973.55	224.70
973.85	224.71
974.14	224.68
974.43	224.70
974.73	224.72
975.02	224.76
975.31	224.77
975.61	224.80
975.90	224.76
976.19	224.75
976.49	224.73
976.78	224.74
977.07	224.75
977.37	224.78
977.66	224.75
977.95	224.77
978.24	224.80
978.54	224.82
978.83	224.79
979.12	224.80
979.42	224.81
979.71	224.80
980.00	224.78
980.29	224.79
980.59	224.81
980.88	224.83
981.17	224.83
981.46	224.85
981.76	224.82
982.05	224.86
982.34	224.88
982.63	224.91
982.93	224.89
983.22	224.90
983.51	224.87
983.80	224.88
984.09	224.89
984.39	224.84
984.68	224.79
984.97	224.79
985.26	224.75
985.55	224.78
985.85	224.73
986.14	224.75
986.43	224.77
986.72	224.73
987.01	224.68
987.30	224.66
987.59	224.65
987.89	224.65
988.18	224.61
988.47	224.59
988.76	224.55
989.05	224.55
989.34	224.50
989.63	224.54
989.92	224.54
990.22	224.48
990.51	224.50
990.80	224.52
991.09	224.53
991.38	224.55
991.67	224.48
991.96	224.47
992.25	224.45
992.54	224.42
992.83	224.41
993.12	224.36
993.41	224.37
993.70	224.40
993.99	224.41
994.28	224.42
994.58	224.45
994.87	224.47
995.16	224.44
995.45	224.46
995.74	224.43
996.03	224.46
996.32	224.49
996.61	224.52
996.90	224.51
997.19	224.51
997.48	224.50
997.77	224.48
998.06	224.50
998.34	224.51
998.63	224.53
998.92	224.51
999.21	224.57
999.50	224.57
999.79	224.53
1000.08	224.51
1000.37	224.52
1000.66	224.47
1000.95	224.49
1001.24	224.53
1001.53	224.58
1001.82	224.57
1002.11	224.55
1002.40	224.56
1002.68	224.59
1002.97	224.66
1003.26	224.67
1003.55	224.67
1003.84	224.75
1004.13	224.79
1004.42	224.80
1004.71	224.80
1004.99	224.82
1005.28	224.84
1005.57	224.83
1005.86	224.83
1006.15	224.83
1006.44	224.83
1006.72	224.88
1007.01	224.84
1007.30	224.82
1007.59	224.81
1007.88	224.81
1008.17	224.79
1008.45	224.80
1008.74	224.75
1009.03	224.71
1009.32	224.71
1009.60	224.72
1009.89	224.66
1010.18	224.66
1010.47	224.64
1010.76	224.65
1011.04	224.67
1011.33	224.66
1011.62	224.68
1011.91	224.71
1012.19	224.73
1012.48	224.72
1012.77	224.69
1013.05	224.75
1013.34	224.75
1013.63	224.71
1013.92	224.70
1014.20	224.69
1014.49	224.71
1014.78	224.69
1015.06	224.66
1015.35	224.65
1015.64	224.69
1015.92	224.70
1016.21	224.66
1016.50	224.65
1016.78	224.65
1017.07	224.65
1017.36	224.64
1017.64	224.59
1017.93	224.57
1018.22	224.55
1018.50	224.53
1018.79	224.56
1019.08	224.50
1019.36	224.48
1019.65	224.48
1019.93	224.54
1020.22	224.55
1020.51	224.58
1020.79	224.58
1021.08	224.36
1021.36	223.98
1021.65	224.87
1021.94	224.34
1022.22	224.26
1022.51	224.32
1022.79	225.10
1023.08	224.62
1023.36	225.80
1023.65	224.47
>>>>>End Processed Spectral Data<<<<<
