SpectraSuite Data File
++++++++++++++++++++++++++++++++++++
Date: Fri Feb 01 14:49:33 EST 2013
User: group
Dark Spectrum Present: No
Reference Spectrum Present: No
Number of Sampled Component Spectra: 1
Spectrometers: USB2E7196
Integration Time (usec): 35000 (USB2E7196)
Spectra Averaged: 100 (USB2E7196)
Boxcar Smoothing: 10 (USB2E7196)
Correct for Electrical Dark: No (USB2E7196)
Strobe/Lamp Enabled: No (USB2E7196)
Correct for Detector Non-linearity: No (USB2E7196)
Correct for Stray Light: No (USB2E7196)
Number of Pixels in Processed Spectrum: 2048
>>>>>Begin Processed Spectral Data<<<<<
339.09	0.00
339.48	216.32
339.86	217.06
340.24	218.35
340.63	219.77
341.01	222.90
341.39	222.93
341.78	224.37
342.16	225.45
342.54	225.58
342.93	214.07
343.31	224.86
343.69	225.36
344.07	225.82
344.46	226.27
344.84	226.66
345.22	226.88
345.60	227.11
345.99	227.28
346.37	227.40
346.75	227.50
347.13	227.60
347.52	227.67
347.90	227.72
348.28	227.72
348.66	227.73
349.05	227.71
349.43	227.74
349.81	227.76
350.19	227.82
350.57	227.87
350.96	227.94
351.34	228.05
351.72	228.15
352.10	228.25
352.48	228.28
352.87	228.32
353.25	228.39
353.63	228.46
354.01	228.54
354.39	228.63
354.77	228.73
355.15	228.81
355.54	228.89
355.92	228.93
356.30	229.04
356.68	229.19
357.06	229.25
357.44	229.32
357.82	229.39
358.20	229.47
358.58	229.54
358.97	229.58
359.35	229.67
359.73	229.75
360.11	229.78
360.49	229.87
360.87	229.92
361.25	229.97
361.63	230.05
362.01	230.08
362.39	230.09
362.77	230.09
363.15	230.11
363.53	230.10
363.91	230.12
364.29	230.11
364.67	230.03
365.05	230.03
365.43	230.01
365.81	230.01
366.19	230.02
366.57	230.02
366.95	230.01
367.33	229.92
367.71	229.87
368.09	229.87
368.47	229.81
368.85	229.79
369.23	229.77
369.61	229.68
369.99	229.65
370.37	229.62
370.75	229.60
371.13	229.55
371.51	229.51
371.89	229.45
372.27	229.40
372.65	229.36
373.03	229.31
373.41	229.26
373.78	229.20
374.16	229.06
374.54	228.96
374.92	228.86
375.30	228.82
375.68	228.74
376.06	228.66
376.44	228.57
376.82	228.47
377.19	228.38
377.57	228.34
377.95	228.21
378.33	228.12
378.71	228.00
379.09	227.93
379.47	227.83
379.84	227.75
380.22	227.70
380.60	227.60
380.98	227.53
381.36	227.44
381.73	227.33
382.11	227.30
382.49	227.24
382.87	227.18
383.25	227.10
383.62	227.15
384.00	227.07
384.38	227.03
384.76	227.03
385.13	227.04
385.51	226.96
385.89	226.92
386.27	226.83
386.64	226.78
387.02	226.76
387.40	226.74
387.78	226.72
388.15	226.65
388.53	226.65
388.91	226.62
389.29	226.58
389.66	226.55
390.04	226.53
390.42	226.54
390.79	226.54
391.17	226.54
391.55	226.41
391.92	226.42
392.30	226.45
392.68	226.40
393.05	226.38
393.43	226.40
393.81	226.43
394.18	226.51
394.56	226.53
394.94	226.57
395.31	226.63
395.69	226.67
396.06	226.74
396.44	226.78
396.82	226.81
397.19	226.89
397.57	226.99
397.95	227.07
398.32	227.11
398.70	227.20
399.07	227.29
399.45	227.40
399.82	227.51
400.20	227.54
400.58	227.65
400.95	227.69
401.33	227.82
401.70	227.99
402.08	228.09
402.45	228.25
402.83	228.42
403.20	228.54
403.58	228.70
403.95	228.84
404.33	229.00
404.71	229.17
405.08	229.39
405.46	229.55
405.83	229.70
406.21	229.84
406.58	230.07
406.96	230.23
407.33	230.43
407.70	230.61
408.08	230.90
408.45	231.15
408.83	231.43
409.20	231.65
409.58	231.82
409.95	232.07
410.33	232.33
410.70	232.53
411.08	232.83
411.45	233.12
411.82	233.43
412.20	233.78
412.57	234.21
412.95	234.51
413.32	234.88
413.69	235.32
414.07	235.77
414.44	236.19
414.82	236.70
415.19	237.22
415.56	237.77
415.94	238.31
416.31	238.91
416.68	239.51
417.06	240.17
417.43	240.85
417.81	241.66
418.18	242.39
418.55	243.25
418.93	244.11
419.30	244.97
419.67	245.88
420.04	246.79
420.42	247.72
420.79	248.86
421.16	250.01
421.54	251.16
421.91	252.37
422.28	253.59
422.66	254.86
423.03	256.17
423.40	257.45
423.77	258.87
424.15	260.27
424.52	261.75
424.89	263.36
425.26	264.90
425.64	266.31
426.01	267.91
426.38	269.53
426.75	271.17
427.13	272.90
427.50	274.70
427.87	276.60
428.24	278.47
428.61	280.18
428.99	282.11
429.36	284.19
429.73	286.21
430.10	288.19
430.47	290.26
430.85	292.35
431.22	294.63
431.59	297.03
431.96	299.28
432.33	301.75
432.70	304.11
433.08	306.91
433.45	309.53
433.82	312.10
434.19	314.99
434.56	317.80
434.93	320.44
435.30	323.05
435.68	325.93
436.05	328.78
436.42	331.59
436.79	334.14
437.16	336.84
437.53	339.66
437.90	342.49
438.27	345.24
438.64	348.07
439.01	350.66
439.38	352.88
439.75	355.03
440.13	357.54
440.50	359.90
440.87	361.78
441.24	363.73
441.61	365.94
441.98	367.46
442.35	369.24
442.72	371.13
443.09	372.94
443.46	373.91
443.83	374.49
444.20	375.06
444.57	375.89
444.94	376.22
445.31	376.61
445.68	376.97
446.05	377.09
446.42	376.73
446.79	376.32
447.16	375.90
447.53	375.65
447.90	374.51
448.27	373.33
448.64	371.80
449.01	370.66
449.37	368.70
449.74	366.78
450.11	364.59
450.48	362.11
450.85	359.62
451.22	357.50
451.59	355.49
451.96	353.51
452.33	350.93
452.70	348.58
453.07	345.76
453.43	342.92
453.80	340.16
454.17	337.50
454.54	334.95
454.91	332.21
455.28	329.55
455.65	327.05
456.02	324.66
456.38	322.48
456.75	319.85
457.12	317.61
457.49	315.42
457.86	313.25
458.23	311.41
458.59	309.33
458.96	307.27
459.33	305.43
459.70	303.56
460.07	302.06
460.43	300.34
460.80	298.70
461.17	297.19
461.54	295.66
461.91	294.22
462.27	292.77
462.64	291.52
463.01	290.13
463.38	288.78
463.74	287.35
464.11	286.15
464.48	285.09
464.85	283.97
465.21	283.06
465.58	282.13
465.95	281.02
466.32	280.13
466.68	279.18
467.05	278.25
467.42	277.34
467.78	276.36
468.15	275.43
468.52	274.78
468.88	273.94
469.25	273.15
469.62	272.52
469.98	271.84
470.35	271.18
470.72	270.54
471.08	269.90
471.45	269.35
471.82	268.79
472.18	268.18
472.55	267.71
472.92	267.17
473.28	266.64
473.65	266.15
474.02	265.69
474.38	265.32
474.75	264.98
475.11	264.64
475.48	264.38
475.85	264.16
476.21	263.90
476.58	263.69
476.94	263.53
477.31	263.30
477.67	263.10
478.04	262.98
478.41	262.90
478.77	262.98
479.14	262.93
479.50	262.91
479.87	262.97
480.23	263.03
480.60	263.08
480.96	263.20
481.33	263.44
481.69	263.64
482.06	263.85
482.42	264.05
482.79	264.27
483.15	264.55
483.52	264.90
483.88	265.25
484.25	265.63
484.61	266.06
484.98	266.50
485.34	267.07
485.71	267.62
486.07	268.23
486.44	268.77
486.80	269.45
487.17	270.19
487.53	270.99
487.90	271.85
488.26	272.78
488.62	273.77
488.99	274.68
489.35	275.70
489.72	276.77
490.08	277.96
490.44	279.19
490.81	280.55
491.17	281.85
491.54	283.30
491.90	284.89
492.26	286.49
492.63	288.25
492.99	289.99
493.36	291.91
493.72	293.91
494.08	296.01
494.45	298.30
494.81	300.61
495.17	303.03
495.54	305.54
495.90	308.21
496.26	311.00
496.63	313.94
496.99	317.02
497.35	320.24
497.72	323.60
498.08	327.09
498.44	330.71
498.80	334.59
499.17	338.61
499.53	342.70
499.89	347.03
500.26	351.54
500.62	356.19
500.98	361.07
501.34	366.12
501.71	371.37
502.07	376.76
502.43	382.34
502.79	388.08
503.16	394.12
503.52	400.35
503.88	406.69
504.24	413.24
504.60	420.07
504.97	427.23
505.33	434.54
505.69	442.14
506.05	449.89
506.41	457.81
506.78	465.91
507.14	474.36
507.50	483.08
507.86	491.97
508.22	501.13
508.59	510.32
508.95	519.80
509.31	529.51
509.67	539.47
510.03	549.66
510.39	560.21
510.75	570.95
511.12	581.83
511.48	593.03
511.84	604.49
512.20	615.94
512.56	627.79
512.92	639.90
513.28	652.22
513.64	664.67
514.00	677.31
514.37	690.16
514.73	703.07
515.09	716.10
515.45	729.37
515.81	742.93
516.17	756.80
516.53	770.98
516.89	785.20
517.25	799.40
517.61	813.98
517.97	828.41
518.33	842.82
518.69	857.57
519.05	872.56
519.41	887.65
519.77	903.21
520.13	918.72
520.49	934.08
520.85	949.51
521.21	965.30
521.57	981.49
521.93	997.31
522.29	1013.76
522.65	1030.03
523.01	1046.16
523.37	1062.32
523.73	1078.61
524.09	1094.76
524.45	1111.11
524.81	1127.82
525.17	1144.59
525.53	1161.47
525.89	1178.35
526.25	1195.26
526.61	1211.77
526.97	1228.63
527.33	1245.22
527.68	1261.91
528.04	1278.48
528.40	1295.15
528.76	1312.12
529.12	1328.87
529.48	1345.84
529.84	1362.01
530.20	1378.57
530.56	1395.76
530.91	1413.10
531.27	1429.86
531.63	1446.28
531.99	1462.91
532.35	1478.93
532.71	1494.76
533.07	1511.19
533.42	1527.17
533.78	1543.29
534.14	1559.45
534.50	1574.82
534.86	1590.66
535.21	1605.72
535.57	1621.75
535.93	1637.20
536.29	1651.91
536.65	1667.02
537.00	1681.79
537.36	1697.12
537.72	1711.85
538.08	1726.27
538.44	1740.14
538.79	1754.17
539.15	1767.97
539.51	1781.84
539.87	1796.42
540.22	1810.20
540.58	1823.85
540.94	1837.24
541.29	1850.17
541.65	1863.08
542.01	1876.40
542.37	1888.80
542.72	1901.31
543.08	1913.08
543.44	1925.58
543.79	1937.12
544.15	1948.03
544.51	1959.65
544.87	1970.49
545.22	1981.24
545.58	1991.53
545.94	2001.33
546.29	2011.26
546.65	2021.15
547.01	2030.32
547.36	2039.02
547.72	2047.57
548.07	2055.61
548.43	2063.73
548.79	2071.64
549.14	2079.06
549.50	2086.41
549.86	2093.99
550.21	2101.26
550.57	2108.41
550.92	2114.93
551.28	2121.79
551.64	2128.84
551.99	2135.33
552.35	2141.51
552.70	2147.49
553.06	2153.32
553.41	2159.44
553.77	2165.37
554.13	2171.20
554.48	2177.10
554.84	2182.29
555.19	2187.55
555.55	2192.42
555.90	2196.84
556.26	2201.64
556.61	2206.27
556.97	2210.36
557.32	2214.41
557.68	2218.43
558.03	2222.57
558.39	2226.13
558.74	2230.64
559.10	2234.29
559.45	2237.68
559.81	2241.85
560.16	2245.67
560.52	2248.75
560.87	2252.22
561.23	2254.61
561.58	2257.35
561.94	2259.83
562.29	2261.99
562.64	2264.49
563.00	2266.91
563.35	2270.25
563.71	2273.16
564.06	2276.17
564.42	2278.94
564.77	2281.17
565.12	2283.34
565.48	2284.95
565.83	2286.82
566.19	2287.90
566.54	2288.78
566.89	2289.98
567.25	2290.47
567.60	2291.50
567.96	2292.99
568.31	2293.44
568.66	2294.24
569.02	2294.68
569.37	2294.73
569.72	2295.50
570.08	2295.21
570.43	2294.89
570.78	2293.80
571.14	2292.03
571.49	2290.38
571.84	2289.58
572.20	2288.05
572.55	2286.56
572.90	2284.72
573.26	2282.90
573.61	2281.02
573.96	2278.79
574.31	2275.37
574.67	2271.84
575.02	2267.95
575.37	2264.29
575.72	2260.34
576.08	2256.77
576.43	2253.10
576.78	2249.24
577.13	2245.63
577.49	2242.22
577.84	2238.73
578.19	2234.98
578.54	2231.14
578.90	2226.69
579.25	2221.09
579.60	2216.15
579.95	2211.03
580.30	2205.78
580.66	2200.39
581.01	2195.15
581.36	2190.13
581.71	2185.71
582.06	2181.32
582.42	2176.80
582.77	2171.39
583.12	2166.55
583.47	2161.63
583.82	2156.66
584.17	2151.25
584.53	2145.61
584.88	2139.98
585.23	2134.07
585.58	2128.46
585.93	2122.84
586.28	2117.94
586.63	2112.61
586.98	2107.33
587.34	2102.49
587.69	2097.71
588.04	2092.37
588.39	2086.55
588.74	2079.84
589.09	2073.60
589.44	2066.57
589.79	2060.12
590.14	2054.38
590.49	2047.60
590.84	2040.95
591.19	2034.61
591.54	2028.06
591.89	2020.49
592.25	2013.63
592.60	2006.33
592.95	1998.59
593.30	1991.07
593.65	1983.18
594.00	1976.08
594.35	1968.81
594.70	1960.66
595.05	1953.32
595.40	1945.94
595.75	1938.39
596.10	1932.19
596.45	1925.35
596.80	1919.10
597.15	1912.61
597.50	1905.50
597.85	1899.13
598.19	1892.76
598.54	1885.69
598.89	1878.87
599.24	1873.01
599.59	1866.28
599.94	1859.89
600.29	1853.53
600.64	1846.86
600.99	1839.60
601.34	1832.76
601.69	1825.65
602.04	1818.78
602.39	1811.35
602.74	1804.51
603.08	1797.71
603.43	1791.02
603.78	1783.76
604.13	1776.60
604.48	1769.30
604.83	1762.47
605.18	1755.43
605.53	1747.26
605.87	1739.31
606.22	1732.18
606.57	1724.28
606.92	1716.97
607.27	1709.83
607.62	1702.93
607.96	1695.76
608.31	1689.24
608.66	1681.59
609.01	1674.16
609.36	1666.80
609.70	1658.86
610.05	1650.89
610.40	1643.43
610.75	1635.17
611.10	1627.60
611.44	1619.24
611.79	1611.26
612.14	1602.63
612.49	1593.68
612.83	1585.50
613.18	1577.48
613.53	1569.52
613.88	1561.04
614.22	1552.97
614.57	1544.52
614.92	1536.66
615.27	1529.36
615.61	1521.09
615.96	1513.21
616.31	1505.64
616.65	1498.27
617.00	1490.77
617.35	1483.10
617.70	1474.82
618.04	1466.42
618.39	1458.30
618.74	1450.87
619.08	1442.71
619.43	1435.22
619.78	1428.40
620.12	1421.32
620.47	1413.91
620.82	1405.78
621.16	1398.50
621.51	1390.86
621.85	1383.40
622.20	1375.06
622.55	1366.84
622.89	1359.09
623.24	1351.69
623.59	1344.46
623.93	1337.01
624.28	1329.92
624.62	1322.60
624.97	1315.53
625.32	1308.81
625.66	1301.84
626.01	1294.70
626.35	1287.34
626.70	1279.72
627.04	1272.14
627.39	1264.49
627.73	1257.20
628.08	1250.52
628.43	1243.37
628.77	1236.15
629.12	1228.74
629.46	1221.59
629.81	1214.23
630.15	1207.24
630.50	1199.89
630.84	1191.83
631.19	1184.04
631.53	1176.64
631.88	1169.10
632.22	1161.61
632.57	1154.60
632.91	1147.27
633.26	1140.07
633.60	1132.79
633.95	1125.92
634.29	1118.92
634.64	1112.35
634.98	1105.17
635.32	1098.09
635.67	1091.62
636.01	1085.15
636.36	1078.39
636.70	1072.00
637.05	1065.54
637.39	1059.15
637.73	1052.81
638.08	1047.06
638.42	1041.17
638.77	1034.81
639.11	1028.49
639.45	1022.16
639.80	1015.51
640.14	1009.18
640.49	1002.70
640.83	996.61
641.17	990.45
641.52	984.19
641.86	977.84
642.20	972.07
642.55	965.81
642.89	959.46
643.23	952.92
643.58	947.31
643.92	941.26
644.26	935.31
644.61	929.31
644.95	923.38
645.29	916.86
645.64	910.19
645.98	904.02
646.32	898.22
646.66	892.32
647.01	886.63
647.35	881.01
647.69	875.27
648.04	869.73
648.38	863.95
648.72	858.09
649.06	852.13
649.41	846.24
649.75	840.35
650.09	834.41
650.43	828.72
650.78	822.59
651.12	816.69
651.46	811.06
651.80	805.38
652.14	800.06
652.49	794.77
652.83	789.69
653.17	784.08
653.51	778.33
653.85	772.85
654.20	767.20
654.54	761.20
654.88	755.49
655.22	749.77
655.56	744.14
655.90	738.70
656.25	733.47
656.59	728.17
656.93	723.11
657.27	718.05
657.61	712.63
657.95	707.56
658.29	702.52
658.64	697.27
658.98	692.00
659.32	686.60
659.66	681.45
660.00	676.22
660.34	671.32
660.68	666.53
661.02	661.69
661.36	657.04
661.70	652.62
662.05	648.34
662.39	644.01
662.73	639.61
663.07	635.34
663.41	630.96
663.75	626.54
664.09	622.09
664.43	617.83
664.77	613.81
665.11	609.57
665.45	605.48
665.79	601.47
666.13	597.42
666.47	593.32
666.81	589.17
667.15	585.12
667.49	581.28
667.83	577.50
668.17	573.58
668.51	569.65
668.85	565.70
669.19	561.91
669.53	558.14
669.87	554.36
670.21	550.76
670.55	547.21
670.89	543.85
671.23	540.44
671.57	536.93
671.91	533.51
672.25	530.18
672.58	526.73
672.92	523.41
673.26	520.36
673.60	517.35
673.94	514.34
674.28	511.47
674.62	508.63
674.96	505.63
675.30	502.82
675.64	499.97
675.97	497.31
676.31	494.50
676.65	491.66
676.99	489.00
677.33	486.11
677.67	483.33
678.01	480.34
678.34	477.46
678.68	474.64
679.02	471.90
679.36	469.10
679.70	466.44
680.04	463.74
680.37	460.92
680.71	458.13
681.05	455.61
681.39	452.94
681.73	450.25
682.06	447.74
682.40	445.23
682.74	442.75
683.08	440.22
683.42	437.64
683.75	435.21
684.09	432.64
684.43	430.26
684.77	427.89
685.10	425.60
685.44	423.34
685.78	421.08
686.12	418.89
686.45	416.68
686.79	414.46
687.13	412.31
687.46	410.17
687.80	408.04
688.14	405.86
688.48	403.84
688.81	401.64
689.15	399.56
689.49	397.44
689.82	395.36
690.16	393.29
690.50	391.37
690.83	389.39
691.17	387.47
691.51	385.53
691.84	383.65
692.18	381.77
692.52	379.80
692.85	377.91
693.19	375.99
693.52	374.18
693.86	372.34
694.20	370.55
694.53	368.77
694.87	366.96
695.21	365.19
695.54	363.41
695.88	361.72
696.21	360.01
696.55	358.33
696.88	356.65
697.22	354.98
697.56	353.35
697.89	351.73
698.23	350.17
698.56	348.61
698.90	347.05
699.23	345.39
699.57	343.87
699.90	342.32
700.24	340.79
700.58	339.25
700.91	337.81
701.25	336.39
701.58	335.04
701.92	333.70
702.25	332.32
702.59	330.91
702.92	329.57
703.26	328.28
703.59	327.02
703.93	325.89
704.26	324.74
704.60	323.49
704.93	322.25
705.26	321.00
705.60	319.84
705.93	318.73
706.27	317.74
706.60	316.67
706.94	315.67
707.27	314.61
707.61	313.59
707.94	312.55
708.27	311.50
708.61	310.43
708.94	309.39
709.28	308.40
709.61	307.50
709.94	306.57
710.28	305.56
710.61	304.58
710.95	303.52
711.28	302.57
711.61	301.61
711.95	300.73
712.28	299.82
712.61	298.87
712.95	297.95
713.28	297.09
713.61	296.22
713.95	295.34
714.28	294.51
714.61	293.65
714.95	292.84
715.28	291.95
715.61	291.11
715.95	290.29
716.28	289.52
716.61	288.72
716.95	287.94
717.28	287.21
717.61	286.46
717.94	285.75
718.28	284.99
718.61	284.31
718.94	283.63
719.27	282.97
719.61	282.33
719.94	281.66
720.27	280.92
720.60	280.27
720.94	279.64
721.27	279.08
721.60	278.54
721.93	277.91
722.27	277.40
722.60	276.85
722.93	276.30
723.26	275.71
723.59	275.16
723.93	274.60
724.26	274.05
724.59	273.51
724.92	272.95
725.25	272.46
725.59	271.94
725.92	271.43
726.25	270.96
726.58	270.50
726.91	270.03
727.24	269.60
727.57	269.15
727.91	268.65
728.24	268.14
728.57	267.65
728.90	267.25
729.23	266.77
729.56	266.35
729.89	265.90
730.22	265.40
730.55	264.91
730.89	264.46
731.22	264.01
731.55	263.57
731.88	263.16
732.21	262.73
732.54	262.30
732.87	261.88
733.20	261.46
733.53	261.00
733.86	260.61
734.19	260.16
734.52	259.72
734.85	259.39
735.18	258.98
735.51	258.60
735.84	258.17
736.17	257.78
736.50	257.34
736.83	257.08
737.16	256.78
737.49	256.45
737.82	256.08
738.15	255.77
738.48	255.44
738.81	255.10
739.14	254.76
739.47	254.46
739.80	254.12
740.13	253.82
740.46	253.52
740.79	253.18
741.12	252.86
741.45	252.58
741.78	252.23
742.11	251.96
742.44	251.63
742.77	251.38
743.10	251.11
743.43	250.80
743.75	250.43
744.08	250.26
744.41	249.97
744.74	249.73
745.07	249.42
745.40	249.19
745.73	248.97
746.06	248.70
746.39	248.40
746.71	248.17
747.04	247.90
747.37	247.67
747.70	247.46
748.03	247.27
748.36	247.07
748.68	246.83
749.01	246.56
749.34	246.35
749.67	246.11
750.00	245.87
750.33	245.74
750.65	245.55
750.98	245.26
751.31	245.07
751.64	244.87
751.97	244.76
752.29	244.50
752.62	244.30
752.95	244.10
753.28	243.96
753.60	243.75
753.93	243.61
754.26	243.43
754.59	243.20
754.91	242.96
755.24	242.77
755.57	242.62
755.90	242.48
756.22	242.30
756.55	242.13
756.88	241.96
757.20	241.75
757.53	241.56
757.86	241.38
758.19	241.22
758.51	241.06
758.84	240.86
759.17	240.74
759.49	240.54
759.82	240.41
760.15	240.26
760.47	240.11
760.80	239.91
761.13	239.81
761.45	239.68
761.78	239.59
762.11	239.45
762.43	239.31
762.76	239.15
763.08	239.03
763.41	238.86
763.74	238.77
764.06	238.65
764.39	238.52
764.71	238.39
765.04	238.27
765.37	238.12
765.69	237.97
766.02	237.84
766.34	237.76
766.67	237.61
767.00	237.49
767.32	237.44
767.65	237.39
767.97	237.27
768.30	237.14
768.62	237.00
768.95	236.88
769.27	236.73
769.60	236.62
769.92	236.47
770.25	236.37
770.57	236.22
770.90	236.08
771.22	235.95
771.55	235.88
771.87	235.74
772.20	235.65
772.52	235.65
772.85	235.66
773.17	235.52
773.50	235.40
773.82	235.27
774.15	235.09
774.47	234.91
774.80	234.78
775.12	234.70
775.45	234.61
775.77	234.53
776.09	234.47
776.42	234.42
776.74	234.36
777.07	234.28
777.39	234.19
777.72	234.10
778.04	234.03
778.36	233.93
778.69	233.88
779.01	233.80
779.33	233.63
779.66	233.45
779.98	233.38
780.31	233.27
780.63	233.23
780.95	233.19
781.28	233.12
781.60	233.04
781.92	232.94
782.25	232.87
782.57	232.81
782.89	232.74
783.22	232.64
783.54	232.56
783.86	232.51
784.19	232.44
784.51	232.43
784.83	232.37
785.16	232.30
785.48	232.26
785.80	232.20
786.12	232.15
786.45	232.07
786.77	232.02
787.09	232.02
787.42	231.94
787.74	231.89
788.06	231.89
788.38	231.84
788.71	231.81
789.03	231.81
789.35	231.78
789.67	231.70
789.99	231.70
790.32	231.68
790.64	231.65
790.96	231.71
791.28	231.62
791.61	231.59
791.93	231.56
792.25	231.52
792.57	231.55
792.89	231.50
793.21	231.51
793.54	231.50
793.86	231.49
794.18	231.49
794.50	231.46
794.82	231.45
795.14	231.45
795.47	231.47
795.79	231.42
796.11	231.37
796.43	231.37
796.75	231.33
797.07	231.29
797.39	231.27
797.71	231.18
798.04	231.21
798.36	231.19
798.68	231.18
799.00	231.20
799.32	231.14
799.64	231.17
799.96	231.15
800.28	231.17
800.60	231.15
800.92	231.13
801.24	231.08
801.56	231.06
801.89	231.02
802.21	230.97
802.53	230.95
802.85	230.95
803.17	230.95
803.49	230.92
803.81	230.90
804.13	230.86
804.45	230.79
804.77	230.73
805.09	230.69
805.41	230.67
805.73	230.62
806.05	230.58
806.37	230.53
806.69	230.51
807.01	230.47
807.33	230.44
807.65	230.36
807.97	230.39
808.28	230.35
808.60	230.32
808.92	230.27
809.24	230.27
809.56	230.22
809.88	230.17
810.20	230.15
810.52	230.13
810.84	230.11
811.16	230.09
811.48	230.05
811.80	230.07
812.12	230.03
812.43	229.99
812.75	229.96
813.07	229.93
813.39	229.90
813.71	229.82
814.03	229.77
814.35	229.72
814.67	229.65
814.98	229.57
815.30	229.54
815.62	229.50
815.94	229.42
816.26	229.43
816.58	229.37
816.89	229.34
817.21	229.26
817.53	229.23
817.85	229.21
818.17	229.20
818.48	229.13
818.80	229.12
819.12	229.07
819.44	229.03
819.76	229.00
820.07	228.96
820.39	228.93
820.71	228.94
821.03	228.93
821.34	228.87
821.66	228.88
821.98	228.87
822.30	228.85
822.61	228.87
822.93	228.81
823.25	228.80
823.57	228.76
823.88	228.78
824.20	228.72
824.52	228.73
824.83	228.69
825.15	228.63
825.47	228.60
825.79	228.62
826.10	228.58
826.42	228.55
826.74	228.56
827.05	228.56
827.37	228.53
827.69	228.53
828.00	228.59
828.32	228.62
828.64	228.60
828.95	228.67
829.27	228.65
829.58	228.67
829.90	228.67
830.22	228.71
830.53	228.71
830.85	228.72
831.17	228.71
831.48	228.73
831.80	228.75
832.11	228.77
832.43	228.76
832.75	228.78
833.06	228.86
833.38	228.83
833.69	228.84
834.01	228.84
834.32	228.84
834.64	228.81
834.96	228.78
835.27	228.79
835.59	228.78
835.90	228.75
836.22	228.75
836.53	228.75
836.85	228.75
837.16	228.83
837.48	228.86
837.79	228.90
838.11	228.91
838.42	228.92
838.74	228.96
839.05	228.95
839.37	228.94
839.68	228.88
840.00	228.89
840.31	228.89
840.63	228.88
840.94	228.89
841.26	228.88
841.57	228.88
841.88	228.91
842.20	228.85
842.51	228.87
842.83	228.86
843.14	228.95
843.46	228.93
843.77	228.89
844.08	228.92
844.40	228.88
844.71	228.84
845.03	228.85
845.34	228.82
845.65	228.78
845.97	228.80
846.28	228.78
846.60	228.80
846.91	228.80
847.22	228.81
847.54	228.85
847.85	228.88
848.16	228.87
848.48	228.83
848.79	228.85
849.10	228.83
849.42	228.82
849.73	228.72
850.04	228.71
850.36	228.64
850.67	228.62
850.98	228.58
851.30	228.60
851.61	228.56
851.92	228.54
852.23	228.59
852.55	228.60
852.86	228.60
853.17	228.58
853.49	228.57
853.80	228.57
854.11	228.53
854.42	228.52
854.74	228.51
855.05	228.52
855.36	228.45
855.67	228.47
855.99	228.45
856.30	228.51
856.61	228.50
856.92	228.48
857.23	228.49
857.55	228.46
857.86	228.42
858.17	228.40
858.48	228.35
858.79	228.30
859.11	228.26
859.42	228.21
859.73	228.19
860.04	228.18
860.35	228.14
860.66	228.10
860.98	228.07
861.29	228.05
861.60	228.00
861.91	228.01
862.22	227.97
862.53	227.96
862.84	227.86
863.16	227.85
863.47	227.85
863.78	227.83
864.09	227.85
864.40	227.90
864.71	227.92
865.02	227.93
865.33	227.91
865.64	227.89
865.95	227.92
866.27	227.97
866.58	227.95
866.89	227.95
867.20	227.95
867.51	227.92
867.82	227.95
868.13	228.01
868.44	228.03
868.75	228.04
869.06	228.04
869.37	228.07
869.68	228.08
869.99	228.09
870.30	228.08
870.61	228.10
870.92	228.04
871.23	228.03
871.54	228.02
871.85	228.07
872.16	228.11
872.47	228.10
872.78	228.03
873.09	228.07
873.40	228.06
873.71	228.10
874.02	228.14
874.33	228.14
874.64	228.14
874.95	228.15
875.26	228.17
875.56	228.18
875.87	228.16
876.18	228.13
876.49	228.26
876.80	228.27
877.11	228.26
877.42	228.28
877.73	228.31
878.04	228.36
878.35	228.36
878.66	228.35
878.96	228.34
879.27	228.38
879.58	228.37
879.89	228.39
880.20	228.38
880.51	228.36
880.82	228.32
881.12	228.29
881.43	228.25
881.74	228.21
882.05	228.22
882.36	228.24
882.67	228.29
882.97	228.19
883.28	228.18
883.59	228.14
883.90	228.13
884.21	228.12
884.51	228.11
884.82	228.09
885.13	228.11
885.44	228.13
885.74	228.10
886.05	228.06
886.36	228.03
886.67	228.01
886.98	228.07
887.28	228.06
887.59	228.06
887.90	228.05
888.20	228.06
888.51	228.04
888.82	228.01
889.13	227.95
889.43	227.98
889.74	227.96
890.05	227.97
890.35	227.95
890.66	227.95
890.97	227.92
891.28	227.91
891.58	227.86
891.89	227.86
892.20	227.85
892.50	227.85
892.81	227.84
893.12	227.81
893.42	227.71
893.73	227.69
894.04	227.67
894.34	227.68
894.65	227.63
894.95	227.65
895.26	227.65
895.57	227.69
895.87	227.65
896.18	227.63
896.48	227.64
896.79	227.64
897.10	227.62
897.40	227.61
897.71	227.62
898.01	227.60
898.32	227.60
898.63	227.58
898.93	227.58
899.24	227.57
899.54	227.58
899.85	227.61
900.15	227.64
900.46	227.67
900.76	227.67
901.07	227.70
901.38	227.68
901.68	227.70
901.99	227.65
902.29	227.61
902.60	227.59
902.90	227.58
903.21	227.58
903.51	227.56
903.82	227.58
904.12	227.55
904.43	227.59
904.73	227.59
905.03	227.59
905.34	227.66
905.64	227.67
905.95	227.69
906.25	227.68
906.56	227.69
906.86	227.68
907.17	227.67
907.47	227.68
907.77	227.67
908.08	227.63
908.38	227.65
908.69	227.70
908.99	227.75
909.30	227.79
909.60	227.77
909.90	227.81
910.21	227.78
910.51	227.77
910.81	227.77
911.12	227.78
911.42	227.81
911.73	227.74
912.03	227.75
912.33	227.74
912.64	227.75
912.94	227.76
913.24	227.71
913.55	227.71
913.85	227.72
914.15	227.74
914.46	227.76
914.76	227.77
915.06	227.75
915.37	227.72
915.67	227.75
915.97	227.76
916.27	227.75
916.58	227.78
916.88	227.82
917.18	227.79
917.49	227.83
917.79	227.83
918.09	227.86
918.39	227.88
918.70	227.91
919.00	227.89
919.30	227.93
919.60	227.95
919.91	227.95
920.21	227.98
920.51	227.96
920.81	227.96
921.12	227.97
921.42	227.99
921.72	228.00
922.02	227.98
922.32	228.00
922.63	227.98
922.93	228.00
923.23	227.97
923.53	227.97
923.83	227.93
924.13	227.94
924.44	227.94
924.74	227.95
925.04	227.94
925.34	227.95
925.64	227.89
925.94	227.90
926.24	227.96
926.55	227.93
926.85	227.90
927.15	227.90
927.45	227.91
927.75	227.89
928.05	227.86
928.35	227.85
928.65	227.87
928.95	227.86
929.26	227.84
929.56	227.87
929.86	227.88
930.16	227.86
930.46	227.83
930.76	227.81
931.06	227.75
931.36	227.75
931.66	227.74
931.96	227.74
932.26	227.71
932.56	227.64
932.86	227.65
933.16	227.66
933.46	227.62
933.76	227.59
934.06	227.61
934.36	227.64
934.66	227.62
934.96	227.60
935.26	227.59
935.56	227.58
935.86	227.55
936.16	227.56
936.46	227.57
936.76	227.55
937.06	227.55
937.36	227.56
937.66	227.56
937.96	227.55
938.26	227.54
938.56	227.54
938.86	227.54
939.16	227.55
939.46	227.56
939.76	227.60
940.06	227.61
940.35	227.56
940.65	227.53
940.95	227.50
941.25	227.50
941.55	227.52
941.85	227.52
942.15	227.53
942.45	227.55
942.75	227.55
943.04	227.55
943.34	227.58
943.64	227.57
943.94	227.54
944.24	227.56
944.54	227.58
944.84	227.61
945.13	227.61
945.43	227.58
945.73	227.57
946.03	227.58
946.33	227.55
946.62	227.54
946.92	227.55
947.22	227.62
947.52	227.64
947.82	227.61
948.11	227.62
948.41	227.60
948.71	227.58
949.01	227.61
949.31	227.62
949.60	227.60
949.90	227.62
950.20	227.65
950.50	227.64
950.79	227.66
951.09	227.68
951.39	227.68
951.69	227.68
951.98	227.74
952.28	227.73
952.58	227.75
952.87	227.79
953.17	227.82
953.47	227.78
953.76	227.80
954.06	227.80
954.36	227.80
954.66	227.80
954.95	227.81
955.25	227.80
955.55	227.80
955.84	227.80
956.14	227.81
956.44	227.80
956.73	227.80
957.03	227.78
957.32	227.75
957.62	227.75
957.92	227.79
958.21	227.79
958.51	227.87
958.81	227.87
959.10	227.85
959.40	227.87
959.69	227.87
959.99	227.84
960.29	227.86
960.58	227.87
960.88	227.91
961.17	227.89
961.47	227.87
961.76	227.88
962.06	227.91
962.36	227.89
962.65	227.88
962.95	227.87
963.24	227.87
963.54	227.91
963.83	227.89
964.13	227.86
964.42	227.81
964.72	227.71
965.01	227.70
965.31	227.70
965.60	227.65
965.90	227.66
966.19	227.64
966.49	227.64
966.78	227.60
967.08	227.60
967.37	227.63
967.67	227.62
967.96	227.61
968.26	227.59
968.55	227.58
968.85	227.59
969.14	227.56
969.43	227.55
969.73	227.50
970.02	227.49
970.32	227.47
970.61	227.47
970.91	227.45
971.20	227.43
971.49	227.41
971.79	227.41
972.08	227.36
972.38	227.38
972.67	227.35
972.96	227.33
973.26	227.29
973.55	227.32
973.85	227.30
974.14	227.29
974.43	227.29
974.73	227.29
975.02	227.28
975.31	227.28
975.61	227.27
975.90	227.25
976.19	227.26
976.49	227.28
976.78	227.25
977.07	227.26
977.37	227.28
977.66	227.31
977.95	227.31
978.24	227.30
978.54	227.31
978.83	227.31
979.12	227.33
979.42	227.33
979.71	227.27
980.00	227.24
980.29	227.28
980.59	227.29
980.88	227.32
981.17	227.31
981.46	227.31
981.76	227.33
982.05	227.40
982.34	227.39
982.63	227.40
982.93	227.43
983.22	227.48
983.51	227.50
983.80	227.51
984.09	227.57
984.39	227.56
984.68	227.56
984.97	227.60
985.26	227.59
985.55	227.62
985.85	227.61
986.14	227.64
986.43	227.65
986.72	227.63
987.01	227.62
987.30	227.61
987.59	227.63
987.89	227.61
988.18	227.58
988.47	227.56
988.76	227.55
989.05	227.54
989.34	227.54
989.63	227.55
989.92	227.56
990.22	227.55
990.51	227.59
990.80	227.58
991.09	227.56
991.38	227.61
991.67	227.58
991.96	227.59
992.25	227.62
992.54	227.58
992.83	227.58
993.12	227.58
993.41	227.62
993.70	227.63
993.99	227.70
994.28	227.68
994.58	227.74
994.87	227.75
995.16	227.74
995.45	227.75
995.74	227.73
996.03	227.70
996.32	227.67
996.61	227.66
996.90	227.66
997.19	227.66
997.48	227.62
997.77	227.60
998.06	227.61
998.34	227.61
998.63	227.61
998.92	227.62
999.21	227.61
999.50	227.60
999.79	227.60
1000.08	227.56
1000.37	227.57
1000.66	227.52
1000.95	227.54
1001.24	227.53
1001.53	227.52
1001.82	227.49
1002.11	227.50
1002.40	227.49
1002.68	227.50
1002.97	227.55
1003.26	227.54
1003.55	227.51
1003.84	227.52
1004.13	227.51
1004.42	227.48
1004.71	227.48
1004.99	227.43
1005.28	227.45
1005.57	227.42
1005.86	227.39
1006.15	227.41
1006.44	227.38
1006.72	227.38
1007.01	227.34
1007.30	227.34
1007.59	227.31
1007.88	227.32
1008.17	227.30
1008.45	227.28
1008.74	227.27
1009.03	227.22
1009.32	227.19
1009.60	227.20
1009.89	227.20
1010.18	227.17
1010.47	227.18
1010.76	227.18
1011.04	227.17
1011.33	227.16
1011.62	227.16
1011.91	227.16
1012.19	227.14
1012.48	227.17
1012.77	227.18
1013.05	227.24
1013.34	227.25
1013.63	227.23
1013.92	227.24
1014.20	227.23
1014.49	227.23
1014.78	227.22
1015.06	227.21
1015.35	227.23
1015.64	227.24
1015.92	227.24
1016.21	227.24
1016.50	227.25
1016.78	227.26
1017.07	227.29
1017.36	227.29
1017.64	227.30
1017.93	227.32
1018.22	227.33
1018.50	227.33
1018.79	227.36
1019.08	227.33
1019.36	227.32
1019.65	227.34
1019.93	227.32
1020.22	227.34
1020.51	227.40
1020.79	227.41
1021.08	227.47
1021.36	227.53
1021.65	227.91
1021.94	227.77
1022.22	227.12
1022.51	227.11
1022.79	227.40
1023.08	227.15
1023.36	228.44
1023.65	227.41
>>>>>End Processed Spectral Data<<<<<
