SpectraSuite Data File
++++++++++++++++++++++++++++++++++++
Date: Fri Feb 01 16:05:47 EST 2013
User: group
Dark Spectrum Present: No
Reference Spectrum Present: No
Number of Sampled Component Spectra: 1
Spectrometers: USB2E7196
Integration Time (usec): 35000 (USB2E7196)
Spectra Averaged: 100 (USB2E7196)
Boxcar Smoothing: 10 (USB2E7196)
Correct for Electrical Dark: No (USB2E7196)
Strobe/Lamp Enabled: No (USB2E7196)
Correct for Detector Non-linearity: No (USB2E7196)
Correct for Stray Light: No (USB2E7196)
Number of Pixels in Processed Spectrum: 2048
>>>>>Begin Processed Spectral Data<<<<<
339.09	0.00
339.48	214.69
339.86	216.12
340.24	217.73
340.63	218.85
341.01	220.94
341.39	221.68
341.78	222.68
342.16	224.01
342.54	225.08
342.93	212.90
343.31	223.64
343.69	224.20
344.07	224.66
344.46	225.05
344.84	225.43
345.22	225.67
345.60	225.90
345.99	226.11
346.37	226.23
346.75	226.31
347.13	226.39
347.52	226.41
347.90	226.48
348.28	226.52
348.66	226.57
349.05	226.55
349.43	226.59
349.81	226.62
350.19	226.68
350.57	226.73
350.96	226.78
351.34	226.85
351.72	226.92
352.10	227.01
352.48	227.09
352.87	227.16
353.25	227.27
353.63	227.33
354.01	227.38
354.39	227.46
354.77	227.54
355.15	227.62
355.54	227.71
355.92	227.72
356.30	227.77
356.68	227.90
357.06	227.96
357.44	228.02
357.82	228.09
358.20	228.15
358.58	228.22
358.97	228.28
359.35	228.36
359.73	228.42
360.11	228.49
360.49	228.56
360.87	228.60
361.25	228.65
361.63	228.72
362.01	228.78
362.39	228.81
362.77	228.88
363.15	228.94
363.53	228.97
363.91	229.01
364.29	229.08
364.67	229.04
365.05	229.08
365.43	229.11
365.81	229.16
366.19	229.23
366.57	229.29
366.95	229.29
367.33	229.29
367.71	229.27
368.09	229.30
368.47	229.27
368.85	229.26
369.23	229.25
369.61	229.20
369.99	229.18
370.37	229.18
370.75	229.16
371.13	229.09
371.51	229.06
371.89	229.03
372.27	229.02
372.65	228.97
373.03	228.93
373.41	228.88
373.78	228.81
374.16	228.67
374.54	228.61
374.92	228.54
375.30	228.51
375.68	228.43
376.06	228.33
376.44	228.30
376.82	228.23
377.19	228.14
377.57	228.10
377.95	228.01
378.33	227.95
378.71	227.83
379.09	227.76
379.47	227.70
379.84	227.65
380.22	227.50
380.60	227.43
380.98	227.35
381.36	227.27
381.73	227.17
382.11	227.15
382.49	227.05
382.87	226.99
383.25	226.90
383.62	226.96
384.00	226.87
384.38	226.80
384.76	226.75
385.13	226.72
385.51	226.66
385.89	226.60
386.27	226.53
386.64	226.50
387.02	226.47
387.40	226.42
387.78	226.38
388.15	226.36
388.53	226.29
388.91	226.25
389.29	226.23
389.66	226.23
390.04	226.19
390.42	226.19
390.79	226.17
391.17	226.16
391.55	226.04
391.92	226.04
392.30	226.02
392.68	226.00
393.05	225.98
393.43	225.98
393.81	226.00
394.18	226.00
394.56	225.99
394.94	225.99
395.31	226.00
395.69	226.03
396.06	226.08
396.44	226.11
396.82	226.13
397.19	226.22
397.57	226.23
397.95	226.30
398.32	226.31
398.70	226.38
399.07	226.44
399.45	226.52
399.82	226.58
400.20	226.62
400.58	226.71
400.95	226.77
401.33	226.87
401.70	227.03
402.08	227.11
402.45	227.24
402.83	227.37
403.20	227.48
403.58	227.60
403.95	227.73
404.33	227.87
404.71	228.04
405.08	228.22
405.46	228.37
405.83	228.52
406.21	228.69
406.58	228.85
406.96	229.04
407.33	229.20
407.70	229.42
408.08	229.70
408.45	229.92
408.83	230.18
409.20	230.41
409.58	230.54
409.95	230.82
410.33	231.06
410.70	231.31
411.08	231.60
411.45	231.90
411.82	232.21
412.20	232.58
412.57	233.00
412.95	233.29
413.32	233.70
413.69	234.10
414.07	234.51
414.44	235.00
414.82	235.48
415.19	236.02
415.56	236.54
415.94	237.09
416.31	237.75
416.68	238.39
417.06	239.08
417.43	239.78
417.81	240.58
418.18	241.37
418.55	242.21
418.93	243.09
419.30	243.97
419.67	244.89
420.04	245.86
420.42	246.81
420.79	247.97
421.16	249.11
421.54	250.30
421.91	251.53
422.28	252.78
422.66	254.10
423.03	255.43
423.40	256.77
423.77	258.18
424.15	259.55
424.52	261.04
424.89	262.66
425.26	264.21
425.64	265.62
426.01	267.22
426.38	268.89
426.75	270.56
427.13	272.29
427.50	274.10
427.87	275.96
428.24	277.81
428.61	279.57
428.99	281.52
429.36	283.63
429.73	285.66
430.10	287.65
430.47	289.74
430.85	291.82
431.22	294.03
431.59	296.41
431.96	298.65
432.33	301.14
432.70	303.52
433.08	306.38
433.45	308.99
433.82	311.60
434.19	314.45
434.56	317.23
434.93	319.91
435.30	322.57
435.68	325.44
436.05	328.30
436.42	331.09
436.79	333.63
437.16	336.31
437.53	339.18
437.90	342.03
438.27	344.77
438.64	347.63
439.01	350.23
439.38	352.48
439.75	354.67
440.13	357.12
440.50	359.42
440.87	361.21
441.24	363.14
441.61	365.27
441.98	366.75
442.35	368.55
442.72	370.34
443.09	372.10
443.46	373.11
443.83	373.68
444.20	374.17
444.57	374.93
444.94	375.24
445.31	375.56
445.68	375.87
446.05	375.95
446.42	375.51
446.79	375.06
447.16	374.59
447.53	374.23
447.90	373.09
448.27	371.92
448.64	370.34
449.01	369.19
449.37	367.23
449.74	365.33
450.11	363.09
450.48	360.64
450.85	358.09
451.22	355.95
451.59	353.91
451.96	351.94
452.33	349.39
452.70	347.01
453.07	344.17
453.43	341.27
453.80	338.46
454.17	335.75
454.54	333.26
454.91	330.57
455.28	327.94
455.65	325.43
456.02	322.98
456.38	320.83
456.75	318.18
457.12	315.97
457.49	313.74
457.86	311.60
458.23	309.79
458.59	307.78
458.96	305.71
459.33	303.86
459.70	302.03
460.07	300.53
460.43	298.81
460.80	297.17
461.17	295.73
461.54	294.25
461.91	292.91
462.27	291.44
462.64	290.19
463.01	288.85
463.38	287.55
463.74	286.21
464.11	285.09
464.48	284.11
464.85	283.01
465.21	282.16
465.58	281.23
465.95	280.10
466.32	279.19
466.68	278.29
467.05	277.40
467.42	276.52
467.78	275.57
468.15	274.74
468.52	274.09
468.88	273.26
469.25	272.48
469.62	271.83
469.98	271.19
470.35	270.53
470.72	269.92
471.08	269.27
471.45	268.72
471.82	268.16
472.18	267.54
472.55	267.09
472.92	266.58
473.28	266.10
473.65	265.67
474.02	265.22
474.38	264.86
474.75	264.54
475.11	264.16
475.48	263.95
475.85	263.68
476.21	263.46
476.58	263.27
476.94	263.13
477.31	262.97
477.67	262.81
478.04	262.69
478.41	262.65
478.77	262.70
479.14	262.63
479.50	262.66
479.87	262.73
480.23	262.79
480.60	262.86
480.96	262.97
481.33	263.17
481.69	263.35
482.06	263.56
482.42	263.73
482.79	264.02
483.15	264.35
483.52	264.74
483.88	265.07
484.25	265.46
484.61	265.89
484.98	266.38
485.34	266.94
485.71	267.54
486.07	268.12
486.44	268.68
486.80	269.41
487.17	270.14
487.53	270.96
487.90	271.84
488.26	272.78
488.62	273.78
488.99	274.75
489.35	275.82
489.72	276.95
490.08	278.17
490.44	279.42
490.81	280.69
491.17	282.06
491.54	283.57
491.90	285.13
492.26	286.77
492.63	288.45
492.99	290.27
493.36	292.18
493.72	294.23
494.08	296.35
494.45	298.56
494.81	300.88
495.17	303.37
495.54	305.94
495.90	308.63
496.26	311.45
496.63	314.44
496.99	317.56
497.35	320.83
497.72	324.26
498.08	327.80
498.44	331.50
498.80	335.47
499.17	339.52
499.53	343.72
499.89	348.10
500.26	352.68
500.62	357.35
500.98	362.33
501.34	367.46
501.71	372.80
502.07	378.32
502.43	383.97
502.79	389.75
503.16	395.81
503.52	402.17
503.88	408.59
504.24	415.26
504.60	422.17
504.97	429.29
505.33	436.64
505.69	444.34
506.05	452.13
506.41	460.03
506.78	468.16
507.14	476.58
507.50	485.26
507.86	494.26
508.22	503.52
508.59	512.72
508.95	522.22
509.31	532.06
509.67	542.16
510.03	552.47
510.39	563.00
510.75	573.81
511.12	584.69
511.48	596.01
511.84	607.40
512.20	618.91
512.56	630.90
512.92	643.05
513.28	655.47
513.64	668.03
514.00	680.72
514.37	693.73
514.73	706.79
515.09	719.90
515.45	733.27
515.81	746.80
516.17	760.81
516.53	775.03
516.89	789.12
517.25	803.32
517.61	817.77
517.97	832.30
518.33	846.64
518.69	861.37
519.05	876.25
519.41	891.54
519.77	907.14
520.13	922.48
520.49	937.79
520.85	953.12
521.21	968.77
521.57	984.93
521.93	1000.66
522.29	1017.01
522.65	1033.24
523.01	1049.43
523.37	1065.43
523.73	1081.53
524.09	1097.55
524.45	1113.88
524.81	1130.55
525.17	1147.29
525.53	1164.13
525.89	1180.95
526.25	1197.79
526.61	1214.26
526.97	1230.84
527.33	1247.24
527.68	1263.79
528.04	1280.18
528.40	1296.76
528.76	1313.86
529.12	1330.47
529.48	1347.27
529.84	1363.21
530.20	1379.77
530.56	1396.67
530.91	1414.00
531.27	1430.78
531.63	1447.24
531.99	1463.77
532.35	1479.62
532.71	1495.46
533.07	1511.65
533.42	1527.50
533.78	1543.54
534.14	1559.69
534.50	1574.99
534.86	1590.80
535.21	1606.01
535.57	1621.99
535.93	1637.44
536.29	1652.13
536.65	1667.23
537.00	1682.01
537.36	1697.33
537.72	1711.85
538.08	1726.26
538.44	1740.11
538.79	1753.88
539.15	1767.44
539.51	1781.22
539.87	1795.60
540.22	1809.27
540.58	1822.92
540.94	1836.32
541.29	1849.11
541.65	1861.80
542.01	1875.08
542.37	1887.33
542.72	1899.68
543.08	1911.47
543.44	1923.75
543.79	1934.95
544.15	1945.81
544.51	1957.31
544.87	1968.15
545.22	1978.97
545.58	1989.08
545.94	1998.84
546.29	2008.50
546.65	2018.42
547.01	2027.57
547.36	2036.04
547.72	2044.50
548.07	2052.42
548.43	2060.51
548.79	2068.47
549.14	2076.03
549.50	2083.25
549.86	2090.87
550.21	2098.16
550.57	2105.11
550.92	2111.89
551.28	2118.90
551.64	2126.06
551.99	2132.55
552.35	2138.82
552.70	2144.92
553.06	2151.05
553.41	2157.33
553.77	2163.54
554.13	2169.67
554.48	2175.85
554.84	2181.53
555.19	2186.68
555.55	2191.90
555.90	2196.38
556.26	2201.37
556.61	2205.93
556.97	2210.28
557.32	2214.55
557.68	2218.74
558.03	2223.16
558.39	2226.64
558.74	2231.20
559.10	2234.95
559.45	2238.62
559.81	2242.82
560.16	2246.57
560.52	2249.80
560.87	2253.18
561.23	2255.82
561.58	2258.67
561.94	2261.23
562.29	2263.47
562.64	2266.16
563.00	2268.71
563.35	2272.25
563.71	2275.32
564.06	2278.51
564.42	2281.32
564.77	2283.71
565.12	2286.05
565.48	2287.91
565.83	2289.89
566.19	2291.20
566.54	2292.01
566.89	2293.19
567.25	2293.84
567.60	2295.10
567.96	2296.80
568.31	2297.64
568.66	2298.83
569.02	2299.42
569.37	2299.63
569.72	2300.58
570.08	2300.95
570.43	2300.95
570.78	2300.44
571.14	2298.95
571.49	2297.72
571.84	2297.38
572.20	2296.38
572.55	2295.36
572.90	2293.73
573.26	2292.36
573.61	2290.71
573.96	2289.08
574.31	2286.13
574.67	2283.23
575.02	2279.61
575.37	2276.05
575.72	2272.26
576.08	2268.80
576.43	2265.49
576.78	2261.93
577.13	2258.64
577.49	2255.46
577.84	2251.96
578.19	2248.32
578.54	2244.67
578.90	2240.51
579.25	2235.08
579.60	2230.13
579.95	2224.98
580.30	2220.10
580.66	2214.83
581.01	2209.91
581.36	2204.99
581.71	2200.70
582.06	2196.31
582.42	2191.96
582.77	2186.88
583.12	2182.34
583.47	2177.72
583.82	2172.79
584.17	2167.50
584.53	2162.18
584.88	2156.53
585.23	2150.84
585.58	2145.29
585.93	2139.79
586.28	2135.06
586.63	2129.97
586.98	2124.91
587.34	2120.30
587.69	2115.58
588.04	2110.32
588.39	2104.67
588.74	2098.16
589.09	2092.11
589.44	2085.39
589.79	2079.30
590.14	2073.69
590.49	2067.04
590.84	2060.67
591.19	2054.57
591.54	2048.20
591.89	2040.74
592.25	2033.99
592.60	2026.90
592.95	2019.28
593.30	2011.93
593.65	2004.26
594.00	1997.17
594.35	1989.89
594.70	1981.89
595.05	1974.57
595.40	1967.46
595.75	1959.97
596.10	1953.87
596.45	1947.11
596.80	1940.85
597.15	1934.28
597.50	1927.19
597.85	1920.94
598.19	1914.36
598.54	1907.32
598.89	1900.66
599.24	1894.81
599.59	1888.17
599.94	1881.84
600.29	1875.58
600.64	1869.00
600.99	1861.59
601.34	1854.84
601.69	1847.85
602.04	1840.93
602.39	1833.62
602.74	1826.67
603.08	1819.92
603.43	1813.20
603.78	1805.95
604.13	1798.73
604.48	1791.50
604.83	1784.64
605.18	1777.61
605.53	1769.62
605.87	1761.67
606.22	1754.41
606.57	1746.41
606.92	1739.22
607.27	1732.15
607.62	1725.23
607.96	1718.11
608.31	1711.59
608.66	1703.96
609.01	1696.46
609.36	1688.96
609.70	1680.91
610.05	1672.95
610.40	1665.31
610.75	1657.00
611.10	1649.35
611.44	1640.93
611.79	1632.90
612.14	1624.28
612.49	1615.13
612.83	1606.72
613.18	1598.54
613.53	1590.36
613.88	1581.78
614.22	1573.40
614.57	1564.72
614.92	1556.58
615.27	1549.10
615.61	1540.76
615.96	1532.70
616.31	1524.93
616.65	1517.52
617.00	1510.05
617.35	1502.35
617.70	1494.01
618.04	1485.50
618.39	1477.29
618.74	1469.77
619.08	1461.50
619.43	1453.87
619.78	1446.81
620.12	1439.60
620.47	1432.07
620.82	1424.03
621.16	1416.76
621.51	1409.20
621.85	1401.65
622.20	1393.20
622.55	1384.64
622.89	1376.67
623.24	1368.97
623.59	1361.64
623.93	1354.14
624.28	1346.92
624.62	1339.43
624.97	1332.23
625.32	1325.49
625.66	1318.42
626.01	1311.20
626.35	1303.73
626.70	1295.93
627.04	1288.47
627.39	1280.70
627.73	1273.27
628.08	1266.29
628.43	1259.01
628.77	1251.56
629.12	1243.87
629.46	1236.66
629.81	1229.26
630.15	1222.14
630.50	1214.81
630.84	1206.68
631.19	1198.72
631.53	1191.09
631.88	1183.45
632.22	1175.84
632.57	1168.46
632.91	1160.99
633.26	1153.53
633.60	1146.05
633.95	1138.82
634.29	1131.62
634.64	1124.99
634.98	1117.55
635.32	1110.46
635.67	1103.74
636.01	1097.09
636.36	1090.24
636.70	1083.78
637.05	1077.18
637.39	1070.74
637.73	1064.31
638.08	1058.35
638.42	1052.33
638.77	1045.86
639.11	1039.26
639.45	1032.87
639.80	1026.20
640.14	1019.75
640.49	1013.26
640.83	1007.06
641.17	1000.98
641.52	994.59
641.86	988.02
642.20	982.21
642.55	975.86
642.89	969.43
643.23	962.91
643.58	957.26
643.92	951.11
644.26	945.11
644.61	939.00
644.95	932.90
645.29	926.34
645.64	919.61
645.98	913.35
646.32	907.55
646.66	901.56
647.01	895.80
647.35	890.08
647.69	884.17
648.04	878.58
648.38	872.76
648.72	866.84
649.06	860.82
649.41	854.97
649.75	848.95
650.09	842.98
650.43	837.14
650.78	830.88
651.12	824.89
651.46	819.15
651.80	813.44
652.14	808.00
652.49	802.61
652.83	797.45
653.17	791.73
653.51	786.02
653.85	780.61
654.20	774.96
654.54	768.89
654.88	763.11
655.22	757.25
655.56	751.52
655.90	746.02
656.25	740.81
656.59	735.43
656.93	730.40
657.27	725.25
657.61	719.83
657.95	714.74
658.29	709.64
658.64	704.43
658.98	699.07
659.32	693.63
659.66	688.47
660.00	683.15
660.34	678.17
660.68	673.23
661.02	668.18
661.36	663.45
661.70	658.92
662.05	654.63
662.39	650.30
662.73	645.94
663.07	641.54
663.41	637.05
663.75	632.55
664.09	628.00
664.43	623.58
664.77	619.49
665.11	615.27
665.45	611.07
665.79	606.99
666.13	602.85
666.47	598.74
666.81	594.56
667.15	590.47
667.49	586.60
667.83	582.72
668.17	578.80
668.51	574.72
668.85	570.70
669.19	566.83
669.53	563.00
669.87	559.07
670.21	555.42
670.55	551.78
670.89	548.36
671.23	544.88
671.57	541.40
671.91	537.85
672.25	534.33
672.58	530.78
672.92	527.28
673.26	524.08
673.60	520.94
673.94	517.84
674.28	514.94
674.62	511.97
674.96	508.92
675.30	505.93
675.64	503.02
675.97	500.29
676.31	497.42
676.65	494.44
676.99	491.70
677.33	488.77
677.67	485.93
678.01	482.89
678.34	479.89
678.68	476.97
679.02	474.12
679.36	471.37
679.70	468.69
680.04	465.94
680.37	463.14
680.71	460.28
681.05	457.64
681.39	454.92
681.73	452.22
682.06	449.68
682.40	447.13
682.74	444.57
683.08	441.98
683.42	439.37
683.75	436.91
684.09	434.38
684.43	431.92
684.77	429.48
685.10	427.11
685.44	424.82
685.78	422.54
686.12	420.35
686.45	418.03
686.79	415.73
687.13	413.59
687.46	411.43
687.80	409.30
688.14	407.02
688.48	404.89
688.81	402.68
689.15	400.52
689.49	398.40
689.82	396.32
690.16	394.24
690.50	392.25
690.83	390.31
691.17	388.30
691.51	386.44
691.84	384.59
692.18	382.72
692.52	380.71
692.85	378.77
693.19	376.84
693.52	375.02
693.86	373.19
694.20	371.41
694.53	369.58
694.87	367.73
695.21	366.02
695.54	364.22
695.88	362.53
696.21	360.82
696.55	359.16
696.88	357.52
697.22	355.89
697.56	354.31
697.89	352.64
698.23	351.07
698.56	349.46
698.90	347.90
699.23	346.22
699.57	344.74
699.90	343.20
700.24	341.67
700.58	340.20
700.91	338.67
701.25	337.22
701.58	335.88
701.92	334.52
702.25	333.17
702.59	331.81
702.92	330.46
703.26	329.14
703.59	327.83
703.93	326.61
704.26	325.40
704.60	324.14
704.93	322.85
705.26	321.62
705.60	320.47
705.93	319.31
706.27	318.30
706.60	317.19
706.94	316.10
707.27	314.96
707.61	313.89
707.94	312.95
708.27	311.86
708.61	310.74
708.94	309.74
709.28	308.78
709.61	307.82
709.94	306.89
710.28	305.90
710.61	304.94
710.95	303.83
711.28	302.86
711.61	301.85
711.95	300.98
712.28	300.01
712.61	299.01
712.95	298.07
713.28	297.15
713.61	296.26
713.95	295.39
714.28	294.52
714.61	293.62
714.95	292.71
715.28	291.82
715.61	290.96
715.95	290.10
716.28	289.19
716.61	288.34
716.95	287.49
717.28	286.73
717.61	285.95
717.94	285.24
718.28	284.45
718.61	283.71
718.94	282.95
719.27	282.26
719.61	281.63
719.94	280.95
720.27	280.21
720.60	279.52
720.94	278.93
721.27	278.35
721.60	277.77
721.93	277.16
722.27	276.62
722.60	276.07
722.93	275.50
723.26	274.94
723.59	274.40
723.93	273.85
724.26	273.24
724.59	272.66
724.92	272.11
725.25	271.65
725.59	271.11
725.92	270.62
726.25	270.14
726.58	269.57
726.91	269.08
727.24	268.67
727.57	268.22
727.91	267.66
728.24	267.19
728.57	266.69
728.90	266.26
729.23	265.74
729.56	265.32
729.89	264.84
730.22	264.36
730.55	263.88
730.89	263.41
731.22	263.02
731.55	262.62
731.88	262.19
732.21	261.71
732.54	261.29
732.87	260.88
733.20	260.47
733.53	260.13
733.86	259.77
734.19	259.33
734.52	258.99
734.85	258.67
735.18	258.26
735.51	257.91
735.84	257.53
736.17	257.21
736.50	256.79
736.83	256.58
737.16	256.28
737.49	255.95
737.82	255.63
738.15	255.30
738.48	254.96
738.81	254.68
739.14	254.42
739.47	254.12
739.80	253.82
740.13	253.56
740.46	253.23
740.79	252.90
741.12	252.60
741.45	252.25
741.78	251.95
742.11	251.68
742.44	251.37
742.77	251.10
743.10	250.84
743.43	250.57
743.75	250.19
744.08	250.04
744.41	249.78
744.74	249.51
745.07	249.26
745.40	249.04
745.73	248.77
746.06	248.46
746.39	248.20
746.71	247.93
747.04	247.63
747.37	247.38
747.70	247.13
748.03	246.92
748.36	246.71
748.68	246.50
749.01	246.22
749.34	245.98
749.67	245.75
750.00	245.49
750.33	245.33
750.65	245.09
750.98	244.74
751.31	244.52
751.64	244.30
751.97	244.16
752.29	243.89
752.62	243.66
752.95	243.46
753.28	243.22
753.60	243.02
753.93	242.84
754.26	242.62
754.59	242.37
754.91	242.14
755.24	241.92
755.57	241.67
755.90	241.49
756.22	241.27
756.55	241.07
756.88	240.84
757.20	240.60
757.53	240.40
757.86	240.23
758.19	240.06
758.51	239.90
758.84	239.61
759.17	239.43
759.49	239.25
759.82	239.12
760.15	239.01
760.47	238.85
760.80	238.66
761.13	238.53
761.45	238.39
761.78	238.23
762.11	238.06
762.43	237.93
762.76	237.78
763.08	237.68
763.41	237.55
763.74	237.43
764.06	237.27
764.39	237.13
764.71	237.00
765.04	236.90
765.37	236.76
765.69	236.66
766.02	236.55
766.34	236.44
766.67	236.27
767.00	236.20
767.32	236.15
767.65	236.10
767.97	235.96
768.30	235.86
768.62	235.76
768.95	235.65
769.27	235.53
769.60	235.47
769.92	235.33
770.25	235.21
770.57	235.13
770.90	235.06
771.22	234.95
771.55	234.86
771.87	234.74
772.20	234.64
772.52	234.64
772.85	234.66
773.17	234.58
773.50	234.50
773.82	234.37
774.15	234.18
774.47	234.06
774.80	233.98
775.12	233.92
775.45	233.80
775.77	233.73
776.09	233.63
776.42	233.54
776.74	233.53
777.07	233.44
777.39	233.37
777.72	233.25
778.04	233.20
778.36	233.12
778.69	233.05
779.01	233.01
779.33	232.86
779.66	232.66
779.98	232.62
780.31	232.58
780.63	232.55
780.95	232.53
781.28	232.45
781.60	232.37
781.92	232.32
782.25	232.29
782.57	232.27
782.89	232.25
783.22	232.19
783.54	232.10
783.86	232.08
784.19	232.03
784.51	232.04
784.83	231.97
785.16	231.91
785.48	231.85
785.80	231.81
786.12	231.77
786.45	231.74
786.77	231.72
787.09	231.66
787.42	231.60
787.74	231.57
788.06	231.53
788.38	231.48
788.71	231.40
789.03	231.37
789.35	231.34
789.67	231.28
789.99	231.26
790.32	231.23
790.64	231.17
790.96	231.22
791.28	231.17
791.61	231.15
791.93	231.13
792.25	231.07
792.57	231.08
792.89	231.02
793.21	230.96
793.54	230.87
793.86	230.81
794.18	230.75
794.50	230.73
794.82	230.70
795.14	230.72
795.47	230.74
795.79	230.72
796.11	230.64
796.43	230.60
796.75	230.53
797.07	230.52
797.39	230.48
797.71	230.34
798.04	230.33
798.36	230.29
798.68	230.26
799.00	230.25
799.32	230.16
799.64	230.13
799.96	230.13
800.28	230.11
800.60	230.08
800.92	230.05
801.24	230.01
801.56	229.97
801.89	229.92
802.21	229.86
802.53	229.80
802.85	229.81
803.17	229.81
803.49	229.77
803.81	229.71
804.13	229.67
804.45	229.65
804.77	229.59
805.09	229.56
805.41	229.49
805.73	229.45
806.05	229.42
806.37	229.38
806.69	229.36
807.01	229.31
807.33	229.27
807.65	229.24
807.97	229.24
808.28	229.22
808.60	229.22
808.92	229.17
809.24	229.21
809.56	229.16
809.88	229.10
810.20	229.08
810.52	229.04
810.84	229.01
811.16	228.92
811.48	228.90
811.80	228.90
812.12	228.92
812.43	228.91
812.75	228.89
813.07	228.88
813.39	228.81
813.71	228.77
814.03	228.71
814.35	228.70
814.67	228.60
814.98	228.56
815.30	228.50
815.62	228.46
815.94	228.38
816.26	228.36
816.58	228.32
816.89	228.30
817.21	228.29
817.53	228.29
817.85	228.30
818.17	228.29
818.48	228.23
818.80	228.25
819.12	228.22
819.44	228.19
819.76	228.17
820.07	228.21
820.39	228.24
820.71	228.26
821.03	228.22
821.34	228.21
821.66	228.19
821.98	228.17
822.30	228.14
822.61	228.20
822.93	228.15
823.25	228.15
823.57	228.15
823.88	228.16
824.20	228.14
824.52	228.16
824.83	228.16
825.15	228.17
825.47	228.10
825.79	228.14
826.10	228.12
826.42	228.09
826.74	228.08
827.05	228.04
827.37	228.06
827.69	228.06
828.00	228.06
828.32	228.04
828.64	228.07
828.95	228.12
829.27	228.07
829.58	228.10
829.90	228.10
830.22	228.10
830.53	228.07
830.85	228.08
831.17	228.05
831.48	228.02
831.80	227.98
832.11	228.00
832.43	227.93
832.75	227.92
833.06	227.97
833.38	227.89
833.69	227.89
834.01	227.87
834.32	227.85
834.64	227.83
834.96	227.83
835.27	227.76
835.59	227.71
835.90	227.68
836.22	227.63
836.53	227.61
836.85	227.57
837.16	227.66
837.48	227.64
837.79	227.67
838.11	227.65
838.42	227.66
838.74	227.63
839.05	227.63
839.37	227.61
839.68	227.53
840.00	227.54
840.31	227.53
840.63	227.50
840.94	227.48
841.26	227.45
841.57	227.45
841.88	227.47
842.20	227.46
842.51	227.45
842.83	227.44
843.14	227.52
843.46	227.52
843.77	227.45
844.08	227.42
844.40	227.38
844.71	227.37
845.03	227.35
845.34	227.33
845.65	227.29
845.97	227.27
846.28	227.26
846.60	227.28
846.91	227.24
847.22	227.26
847.54	227.28
847.85	227.28
848.16	227.28
848.48	227.26
848.79	227.30
849.10	227.28
849.42	227.30
849.73	227.20
850.04	227.16
850.36	227.12
850.67	227.14
850.98	227.11
851.30	227.12
851.61	227.11
851.92	227.13
852.23	227.15
852.55	227.18
852.86	227.20
853.17	227.18
853.49	227.21
853.80	227.20
854.11	227.20
854.42	227.21
854.74	227.18
855.05	227.19
855.36	227.15
855.67	227.18
855.99	227.17
856.30	227.28
856.61	227.29
856.92	227.28
857.23	227.29
857.55	227.30
857.86	227.27
858.17	227.26
858.48	227.25
858.79	227.22
859.11	227.23
859.42	227.22
859.73	227.23
860.04	227.24
860.35	227.22
860.66	227.16
860.98	227.16
861.29	227.17
861.60	227.19
861.91	227.20
862.22	227.17
862.53	227.15
862.84	227.01
863.16	227.03
863.47	227.02
863.78	226.99
864.09	227.03
864.40	227.06
864.71	227.08
865.02	227.09
865.33	227.09
865.64	227.06
865.95	227.06
866.27	227.14
866.58	227.11
866.89	227.12
867.20	227.16
867.51	227.17
867.82	227.17
868.13	227.16
868.44	227.13
868.75	227.15
869.06	227.14
869.37	227.17
869.68	227.14
869.99	227.12
870.30	227.15
870.61	227.11
870.92	227.10
871.23	227.09
871.54	227.09
871.85	227.13
872.16	227.14
872.47	227.11
872.78	227.04
873.09	227.04
873.40	227.03
873.71	227.03
874.02	227.04
874.33	227.05
874.64	227.04
874.95	227.06
875.26	227.02
875.56	227.04
875.87	227.01
876.18	227.04
876.49	227.13
876.80	227.10
877.11	227.12
877.42	227.10
877.73	227.10
878.04	227.08
878.35	227.10
878.66	227.13
878.96	227.15
879.27	227.13
879.58	227.12
879.89	227.12
880.20	227.15
880.51	227.12
880.82	227.12
881.12	227.12
881.43	227.12
881.74	227.13
882.05	227.14
882.36	227.18
882.67	227.14
882.97	227.07
883.28	227.05
883.59	227.04
883.90	227.03
884.21	227.06
884.51	227.08
884.82	227.01
885.13	226.99
885.44	226.98
885.74	226.97
886.05	227.00
886.36	227.00
886.67	226.93
886.98	226.94
887.28	226.94
887.59	226.92
887.90	226.90
888.20	226.87
888.51	226.86
888.82	226.84
889.13	226.86
889.43	226.93
889.74	226.91
890.05	226.91
890.35	226.91
890.66	226.87
890.97	226.85
891.28	226.83
891.58	226.80
891.89	226.79
892.20	226.76
892.50	226.72
892.81	226.74
893.12	226.76
893.42	226.71
893.73	226.71
894.04	226.74
894.34	226.75
894.65	226.74
894.95	226.74
895.26	226.75
895.57	226.78
895.87	226.72
896.18	226.76
896.48	226.77
896.79	226.78
897.10	226.80
897.40	226.80
897.71	226.85
898.01	226.87
898.32	226.90
898.63	226.93
898.93	226.95
899.24	226.94
899.54	226.94
899.85	226.95
900.15	226.94
900.46	226.96
900.76	226.97
901.07	226.98
901.38	226.97
901.68	226.97
901.99	226.95
902.29	226.94
902.60	226.92
902.90	226.90
903.21	226.92
903.51	226.88
903.82	226.90
904.12	226.91
904.43	226.93
904.73	226.91
905.03	226.90
905.34	226.98
905.64	226.97
905.95	226.96
906.25	226.96
906.56	226.97
906.86	226.94
907.17	226.93
907.47	226.95
907.77	226.96
908.08	226.95
908.38	226.94
908.69	226.93
908.99	227.02
909.30	227.02
909.60	226.97
909.90	226.98
910.21	226.94
910.51	226.91
910.81	226.89
911.12	226.90
911.42	226.90
911.73	226.80
912.03	226.81
912.33	226.83
912.64	226.83
912.94	226.79
913.24	226.75
913.55	226.78
913.85	226.77
914.15	226.77
914.46	226.75
914.76	226.77
915.06	226.74
915.37	226.68
915.67	226.67
915.97	226.69
916.27	226.67
916.58	226.70
916.88	226.67
917.18	226.65
917.49	226.71
917.79	226.72
918.09	226.72
918.39	226.72
918.70	226.70
919.00	226.67
919.30	226.73
919.60	226.76
919.91	226.72
920.21	226.73
920.51	226.73
920.81	226.70
921.12	226.66
921.42	226.67
921.72	226.67
922.02	226.66
922.32	226.62
922.63	226.62
922.93	226.64
923.23	226.66
923.53	226.65
923.83	226.58
924.13	226.55
924.44	226.52
924.74	226.54
925.04	226.56
925.34	226.56
925.64	226.52
925.94	226.50
926.24	226.57
926.55	226.55
926.85	226.55
927.15	226.56
927.45	226.56
927.75	226.55
928.05	226.53
928.35	226.55
928.65	226.63
928.95	226.67
929.26	226.64
929.56	226.66
929.86	226.68
930.16	226.67
930.46	226.70
930.76	226.73
931.06	226.70
931.36	226.65
931.66	226.68
931.96	226.66
932.26	226.68
932.56	226.61
932.86	226.64
933.16	226.61
933.46	226.63
933.76	226.63
934.06	226.67
934.36	226.73
934.66	226.72
934.96	226.68
935.26	226.65
935.56	226.65
935.86	226.60
936.16	226.59
936.46	226.60
936.76	226.58
937.06	226.58
937.36	226.57
937.66	226.57
937.96	226.56
938.26	226.57
938.56	226.55
938.86	226.56
939.16	226.56
939.46	226.57
939.76	226.59
940.06	226.56
940.35	226.54
940.65	226.52
940.95	226.49
941.25	226.48
941.55	226.46
941.85	226.43
942.15	226.50
942.45	226.54
942.75	226.53
943.04	226.54
943.34	226.54
943.64	226.55
943.94	226.57
944.24	226.59
944.54	226.59
944.84	226.61
945.13	226.61
945.43	226.60
945.73	226.63
946.03	226.59
946.33	226.60
946.62	226.59
946.92	226.58
947.22	226.62
947.52	226.62
947.82	226.67
948.11	226.68
948.41	226.63
948.71	226.58
949.01	226.60
949.31	226.61
949.60	226.60
949.90	226.62
950.20	226.63
950.50	226.62
950.79	226.62
951.09	226.65
951.39	226.61
951.69	226.57
951.98	226.57
952.28	226.59
952.58	226.60
952.87	226.56
953.17	226.55
953.47	226.55
953.76	226.56
954.06	226.52
954.36	226.48
954.66	226.49
954.95	226.52
955.25	226.51
955.55	226.47
955.84	226.48
956.14	226.47
956.44	226.47
956.73	226.46
957.03	226.47
957.32	226.42
957.62	226.43
957.92	226.47
958.21	226.45
958.51	226.52
958.81	226.55
959.10	226.56
959.40	226.60
959.69	226.61
959.99	226.58
960.29	226.58
960.58	226.62
960.88	226.63
961.17	226.63
961.47	226.62
961.76	226.64
962.06	226.64
962.36	226.65
962.65	226.64
962.95	226.62
963.24	226.56
963.54	226.57
963.83	226.56
964.13	226.55
964.42	226.50
964.72	226.44
965.01	226.42
965.31	226.42
965.60	226.38
965.90	226.40
966.19	226.39
966.49	226.38
966.78	226.37
967.08	226.37
967.37	226.36
967.67	226.35
967.96	226.35
968.26	226.36
968.55	226.35
968.85	226.32
969.14	226.33
969.43	226.36
969.73	226.35
970.02	226.36
970.32	226.37
970.61	226.38
970.91	226.37
971.20	226.38
971.49	226.40
971.79	226.40
972.08	226.34
972.38	226.34
972.67	226.35
972.96	226.36
973.26	226.33
973.55	226.36
973.85	226.33
974.14	226.33
974.43	226.34
974.73	226.30
975.02	226.30
975.31	226.32
975.61	226.31
975.90	226.35
976.19	226.35
976.49	226.36
976.78	226.35
977.07	226.34
977.37	226.34
977.66	226.34
977.95	226.33
978.24	226.34
978.54	226.36
978.83	226.34
979.12	226.34
979.42	226.38
979.71	226.36
980.00	226.38
980.29	226.40
980.59	226.36
980.88	226.42
981.17	226.42
981.46	226.43
981.76	226.45
982.05	226.50
982.34	226.51
982.63	226.52
982.93	226.57
983.22	226.59
983.51	226.58
983.80	226.62
984.09	226.64
984.39	226.63
984.68	226.62
984.97	226.61
985.26	226.60
985.55	226.59
985.85	226.59
986.14	226.64
986.43	226.64
986.72	226.64
987.01	226.59
987.30	226.59
987.59	226.58
987.89	226.60
988.18	226.56
988.47	226.55
988.76	226.53
989.05	226.53
989.34	226.52
989.63	226.56
989.92	226.50
990.22	226.50
990.51	226.50
990.80	226.51
991.09	226.51
991.38	226.55
991.67	226.55
991.96	226.57
992.25	226.54
992.54	226.54
992.83	226.55
993.12	226.57
993.41	226.61
993.70	226.65
993.99	226.65
994.28	226.64
994.58	226.67
994.87	226.65
995.16	226.65
995.45	226.63
995.74	226.61
996.03	226.64
996.32	226.64
996.61	226.68
996.90	226.68
997.19	226.73
997.48	226.72
997.77	226.72
998.06	226.68
998.34	226.67
998.63	226.67
998.92	226.66
999.21	226.65
999.50	226.64
999.79	226.58
1000.08	226.56
1000.37	226.59
1000.66	226.53
1000.95	226.61
1001.24	226.62
1001.53	226.60
1001.82	226.58
1002.11	226.55
1002.40	226.56
1002.68	226.56
1002.97	226.61
1003.26	226.55
1003.55	226.55
1003.84	226.54
1004.13	226.59
1004.42	226.59
1004.71	226.56
1004.99	226.55
1005.28	226.56
1005.57	226.56
1005.86	226.60
1006.15	226.60
1006.44	226.54
1006.72	226.57
1007.01	226.50
1007.30	226.49
1007.59	226.50
1007.88	226.50
1008.17	226.51
1008.45	226.51
1008.74	226.48
1009.03	226.42
1009.32	226.45
1009.60	226.41
1009.89	226.41
1010.18	226.37
1010.47	226.36
1010.76	226.39
1011.04	226.41
1011.33	226.44
1011.62	226.42
1011.91	226.41
1012.19	226.42
1012.48	226.46
1012.77	226.47
1013.05	226.54
1013.34	226.54
1013.63	226.53
1013.92	226.54
1014.20	226.52
1014.49	226.52
1014.78	226.53
1015.06	226.53
1015.35	226.52
1015.64	226.59
1015.92	226.57
1016.21	226.56
1016.50	226.56
1016.78	226.57
1017.07	226.57
1017.36	226.52
1017.64	226.52
1017.93	226.55
1018.22	226.52
1018.50	226.49
1018.79	226.50
1019.08	226.42
1019.36	226.40
1019.65	226.37
1019.93	226.38
1020.22	226.42
1020.51	226.46
1020.79	226.44
1021.08	226.14
1021.36	225.94
1021.65	226.93
1021.94	226.17
1022.22	226.10
1022.51	225.58
1022.79	226.41
1023.08	226.92
1023.36	227.71
1023.65	225.95
>>>>>End Processed Spectral Data<<<<<
