SpectraSuite Data File
++++++++++++++++++++++++++++++++++++
Date: Fri Feb 01 15:43:23 EST 2013
User: group
Dark Spectrum Present: No
Reference Spectrum Present: No
Number of Sampled Component Spectra: 1
Spectrometers: USB2E7196
Integration Time (usec): 35000 (USB2E7196)
Spectra Averaged: 100 (USB2E7196)
Boxcar Smoothing: 10 (USB2E7196)
Correct for Electrical Dark: No (USB2E7196)
Strobe/Lamp Enabled: No (USB2E7196)
Correct for Detector Non-linearity: No (USB2E7196)
Correct for Stray Light: No (USB2E7196)
Number of Pixels in Processed Spectrum: 2048
>>>>>Begin Processed Spectral Data<<<<<
339.09	0.00
339.48	215.07
339.86	216.05
340.24	217.74
340.63	218.91
341.01	222.00
341.39	221.80
341.78	223.12
342.16	224.12
342.54	224.70
342.93	213.14
343.31	223.91
343.69	224.45
344.07	224.93
344.46	225.33
344.84	225.70
345.22	225.95
345.60	226.19
345.99	226.36
346.37	226.49
346.75	226.62
347.13	226.70
347.52	226.78
347.90	226.83
348.28	226.84
348.66	226.91
349.05	226.87
349.43	226.94
349.81	226.98
350.19	227.03
350.57	227.12
350.96	227.19
351.34	227.30
351.72	227.38
352.10	227.49
352.48	227.57
352.87	227.63
353.25	227.66
353.63	227.71
354.01	227.80
354.39	227.88
354.77	227.94
355.15	228.05
355.54	228.11
355.92	228.15
356.30	228.26
356.68	228.41
357.06	228.51
357.44	228.54
357.82	228.61
358.20	228.68
358.58	228.75
358.97	228.80
359.35	228.86
359.73	228.94
360.11	228.96
360.49	229.03
360.87	229.09
361.25	229.15
361.63	229.20
362.01	229.23
362.39	229.25
362.77	229.30
363.15	229.30
363.53	229.30
363.91	229.36
364.29	229.34
364.67	229.25
365.05	229.27
365.43	229.31
365.81	229.34
366.19	229.38
366.57	229.39
366.95	229.38
367.33	229.35
367.71	229.30
368.09	229.32
368.47	229.26
368.85	229.23
369.23	229.25
369.61	229.21
369.99	229.22
370.37	229.20
370.75	229.21
371.13	229.13
371.51	229.10
371.89	229.02
372.27	228.95
372.65	228.85
373.03	228.79
373.41	228.71
373.78	228.59
374.16	228.52
374.54	228.43
374.92	228.35
375.30	228.28
375.68	228.22
376.06	228.15
376.44	228.12
376.82	228.06
377.19	227.95
377.57	227.86
377.95	227.77
378.33	227.71
378.71	227.57
379.09	227.54
379.47	227.48
379.84	227.41
380.22	227.37
380.60	227.32
380.98	227.23
381.36	227.16
381.73	227.11
382.11	227.03
382.49	227.01
382.87	226.93
383.25	226.85
383.62	226.90
384.00	226.83
384.38	226.77
384.76	226.73
385.13	226.74
385.51	226.68
385.89	226.60
386.27	226.55
386.64	226.54
387.02	226.46
387.40	226.42
387.78	226.41
388.15	226.37
388.53	226.33
388.91	226.32
389.29	226.28
389.66	226.26
390.04	226.21
390.42	226.18
390.79	226.17
391.17	226.18
391.55	226.06
391.92	226.07
392.30	226.09
392.68	226.06
393.05	226.05
393.43	226.10
393.81	226.12
394.18	226.12
394.56	226.13
394.94	226.17
395.31	226.20
395.69	226.26
396.06	226.32
396.44	226.38
396.82	226.40
397.19	226.50
397.57	226.56
397.95	226.63
398.32	226.62
398.70	226.68
399.07	226.77
399.45	226.83
399.82	226.89
400.20	226.94
400.58	227.07
400.95	227.13
401.33	227.20
401.70	227.36
402.08	227.47
402.45	227.56
402.83	227.70
403.20	227.81
403.58	227.85
403.95	227.96
404.33	228.07
404.71	228.22
405.08	228.40
405.46	228.53
405.83	228.71
406.21	228.90
406.58	229.13
406.96	229.29
407.33	229.47
407.70	229.68
408.08	229.92
408.45	230.12
408.83	230.36
409.20	230.58
409.58	230.77
409.95	231.04
410.33	231.33
410.70	231.60
411.08	231.90
411.45	232.25
411.82	232.60
412.20	232.94
412.57	233.34
412.95	233.61
413.32	234.03
413.69	234.44
414.07	234.90
414.44	235.33
414.82	235.81
415.19	236.38
415.56	236.91
415.94	237.49
416.31	238.12
416.68	238.72
417.06	239.44
417.43	240.14
417.81	240.89
418.18	241.66
418.55	242.51
418.93	243.41
419.30	244.29
419.67	245.20
420.04	246.20
420.42	247.19
420.79	248.38
421.16	249.54
421.54	250.71
421.91	251.91
422.28	253.17
422.66	254.54
423.03	255.84
423.40	257.21
423.77	258.62
424.15	260.03
424.52	261.54
424.89	263.16
425.26	264.69
425.64	266.13
426.01	267.71
426.38	269.35
426.75	270.99
427.13	272.74
427.50	274.59
427.87	276.45
428.24	278.35
428.61	280.12
428.99	282.07
429.36	284.18
429.73	286.27
430.10	288.26
430.47	290.27
430.85	292.37
431.22	294.57
431.59	296.97
431.96	299.21
432.33	301.71
432.70	304.08
433.08	306.92
433.45	309.56
433.82	312.17
434.19	315.03
434.56	317.84
434.93	320.47
435.30	323.06
435.68	325.93
436.05	328.73
436.42	331.50
436.79	334.06
437.16	336.77
437.53	339.54
437.90	342.36
438.27	345.11
438.64	347.95
439.01	350.57
439.38	352.77
439.75	354.93
440.13	357.45
440.50	359.77
440.87	361.59
441.24	363.55
441.61	365.67
441.98	367.19
442.35	369.03
442.72	370.87
443.09	372.70
443.46	373.69
443.83	374.28
444.20	374.79
444.57	375.53
444.94	375.79
445.31	376.17
445.68	376.50
446.05	376.54
446.42	376.15
446.79	375.71
447.16	375.27
447.53	374.96
447.90	373.77
448.27	372.60
448.64	371.02
449.01	369.84
449.37	367.92
449.74	366.00
450.11	363.74
450.48	361.29
450.85	358.72
451.22	356.59
451.59	354.55
451.96	352.58
452.33	350.01
452.70	347.66
453.07	344.84
453.43	341.97
453.80	339.21
454.17	336.52
454.54	333.95
454.91	331.21
455.28	328.54
455.65	326.05
456.02	323.62
456.38	321.46
456.75	318.83
457.12	316.58
457.49	314.38
457.86	312.18
458.23	310.31
458.59	308.25
458.96	306.13
459.33	304.28
459.70	302.46
460.07	300.93
460.43	299.20
460.80	297.51
461.17	296.08
461.54	294.62
461.91	293.19
462.27	291.78
462.64	290.50
463.01	289.14
463.38	287.84
463.74	286.47
464.11	285.33
464.48	284.30
464.85	283.18
465.21	282.28
465.58	281.34
465.95	280.26
466.32	279.38
466.68	278.49
467.05	277.61
467.42	276.68
467.78	275.78
468.15	274.92
468.52	274.31
468.88	273.42
469.25	272.66
469.62	272.03
469.98	271.36
470.35	270.75
470.72	270.16
471.08	269.48
471.45	268.97
471.82	268.41
472.18	267.83
472.55	267.42
472.92	266.90
473.28	266.46
473.65	266.00
474.02	265.56
474.38	265.21
474.75	264.89
475.11	264.58
475.48	264.31
475.85	264.08
476.21	263.84
476.58	263.70
476.94	263.57
477.31	263.41
477.67	263.24
478.04	263.14
478.41	263.09
478.77	263.18
479.14	263.10
479.50	263.14
479.87	263.19
480.23	263.26
480.60	263.35
480.96	263.46
481.33	263.66
481.69	263.85
482.06	264.03
482.42	264.19
482.79	264.45
483.15	264.77
483.52	265.15
483.88	265.48
484.25	265.83
484.61	266.23
484.98	266.70
485.34	267.28
485.71	267.81
486.07	268.40
486.44	268.92
486.80	269.60
487.17	270.28
487.53	271.06
487.90	271.87
488.26	272.77
488.62	273.77
488.99	274.74
489.35	275.76
489.72	276.86
490.08	278.06
490.44	279.32
490.81	280.63
491.17	281.97
491.54	283.49
491.90	285.02
492.26	286.68
492.63	288.42
492.99	290.21
493.36	292.14
493.72	294.21
494.08	296.30
494.45	298.56
494.81	300.93
495.17	303.43
495.54	306.03
495.90	308.74
496.26	311.50
496.63	314.47
496.99	317.58
497.35	320.87
497.72	324.29
498.08	327.82
498.44	331.53
498.80	335.46
499.17	339.49
499.53	343.69
499.89	348.06
500.26	352.52
500.62	357.21
500.98	362.21
501.34	367.22
501.71	372.62
502.07	378.08
502.43	383.73
502.79	389.52
503.16	395.58
503.52	401.84
503.88	408.27
504.24	414.87
504.60	421.80
504.97	428.96
505.33	436.31
505.69	443.93
506.05	451.67
506.41	459.54
506.78	467.68
507.14	476.11
507.50	484.81
507.86	493.92
508.22	503.04
508.59	512.22
508.95	521.82
509.31	531.60
509.67	541.72
510.03	551.98
510.39	562.51
510.75	573.22
511.12	584.19
511.48	595.49
511.84	607.00
512.20	618.54
512.56	630.46
512.92	642.63
513.28	655.04
513.64	667.59
514.00	680.39
514.37	693.35
514.73	706.40
515.09	719.48
515.45	732.74
515.81	746.37
516.17	760.44
516.53	774.51
516.89	788.69
517.25	802.80
517.61	817.32
517.97	831.89
518.33	846.41
518.69	861.10
519.05	876.03
519.41	891.28
519.77	906.70
520.13	922.17
520.49	937.44
520.85	952.88
521.21	968.57
521.57	984.76
521.93	1000.48
522.29	1016.91
522.65	1033.21
523.01	1049.43
523.37	1065.50
523.73	1081.59
524.09	1097.82
524.45	1114.16
524.81	1130.85
525.17	1147.63
525.53	1164.53
525.89	1181.40
526.25	1198.30
526.61	1214.74
526.97	1231.38
527.33	1247.89
527.68	1264.41
528.04	1281.08
528.40	1297.65
528.76	1314.67
529.12	1331.27
529.48	1348.23
529.84	1364.29
530.20	1380.78
530.56	1397.86
530.91	1415.26
531.27	1432.13
531.63	1448.52
531.99	1465.09
532.35	1481.00
532.71	1496.90
533.07	1513.12
533.42	1529.07
533.78	1545.17
534.14	1561.53
534.50	1576.98
534.86	1592.93
535.21	1608.20
535.57	1624.03
535.93	1639.58
536.29	1654.43
536.65	1669.49
537.00	1684.27
537.36	1699.45
537.72	1714.11
538.08	1728.40
538.44	1742.18
538.79	1756.04
539.15	1769.72
539.51	1783.44
539.87	1797.91
540.22	1811.62
540.58	1825.35
540.94	1838.69
541.29	1851.51
541.65	1864.24
542.01	1877.38
542.37	1889.69
542.72	1902.08
543.08	1914.02
543.44	1926.45
543.79	1937.79
544.15	1948.80
544.51	1960.40
544.87	1971.59
545.22	1982.35
545.58	1992.50
545.94	2002.21
546.29	2011.94
546.65	2021.65
547.01	2030.89
547.36	2039.59
547.72	2048.08
548.07	2055.92
548.43	2064.06
548.79	2072.25
549.14	2079.59
549.50	2086.86
549.86	2094.58
550.21	2101.95
550.57	2109.07
550.92	2115.57
551.28	2122.41
551.64	2129.35
551.99	2135.76
552.35	2141.64
552.70	2147.77
553.06	2153.91
553.41	2160.38
553.77	2166.57
554.13	2173.01
554.48	2179.22
554.84	2184.64
555.19	2189.89
555.55	2195.09
555.90	2199.59
556.26	2204.26
556.61	2209.13
556.97	2213.52
557.32	2217.60
557.68	2221.76
558.03	2225.96
558.39	2229.81
558.74	2234.64
559.10	2238.65
559.45	2242.43
559.81	2246.89
560.16	2250.68
560.52	2253.89
560.87	2257.17
561.23	2259.77
561.58	2262.52
561.94	2265.15
562.29	2267.52
562.64	2270.15
563.00	2272.81
563.35	2276.28
563.71	2279.45
564.06	2282.69
564.42	2285.51
564.77	2288.04
565.12	2290.17
565.48	2292.17
565.83	2293.77
566.19	2294.97
566.54	2295.86
566.89	2296.88
567.25	2297.36
567.60	2298.58
567.96	2300.13
568.31	2301.16
568.66	2302.25
569.02	2302.78
569.37	2303.04
569.72	2303.80
570.08	2304.11
570.43	2304.17
570.78	2303.51
571.14	2302.03
571.49	2300.73
571.84	2300.44
572.20	2299.25
572.55	2298.22
572.90	2296.70
573.26	2295.44
573.61	2293.73
573.96	2291.91
574.31	2289.05
574.67	2286.21
575.02	2282.75
575.37	2279.43
575.72	2275.44
576.08	2272.19
576.43	2268.89
576.78	2265.01
577.13	2262.00
577.49	2258.67
577.84	2255.06
578.19	2251.29
578.54	2247.60
578.90	2243.16
579.25	2237.60
579.60	2232.68
579.95	2227.71
580.30	2222.51
580.66	2217.25
581.01	2212.28
581.36	2207.29
581.71	2202.91
582.06	2198.24
582.42	2193.78
582.77	2188.60
583.12	2184.00
583.47	2179.08
583.82	2173.97
584.17	2168.73
584.53	2163.13
584.88	2157.66
585.23	2151.82
585.58	2146.41
585.93	2140.99
586.28	2136.25
586.63	2131.10
586.98	2125.89
587.34	2121.11
587.69	2116.29
588.04	2111.01
588.39	2105.33
588.74	2098.87
589.09	2092.93
589.44	2086.19
589.79	2080.10
590.14	2074.52
590.49	2067.97
590.84	2061.71
591.19	2055.72
591.54	2049.24
591.89	2041.80
592.25	2034.87
592.60	2027.70
592.95	2020.07
593.30	2012.57
593.65	2004.91
594.00	1997.79
594.35	1990.68
594.70	1982.63
595.05	1975.25
595.40	1968.04
595.75	1960.53
596.10	1954.19
596.45	1947.17
596.80	1941.00
597.15	1934.34
597.50	1927.10
597.85	1920.73
598.19	1913.89
598.54	1906.67
598.89	1900.19
599.24	1894.45
599.59	1887.72
599.94	1881.59
600.29	1875.28
600.64	1868.75
600.99	1861.35
601.34	1854.59
601.69	1847.59
602.04	1840.78
602.39	1833.44
602.74	1826.53
603.08	1819.75
603.43	1813.05
603.78	1805.90
604.13	1798.69
604.48	1791.28
604.83	1784.35
605.18	1777.34
605.53	1769.27
605.87	1761.32
606.22	1753.97
606.57	1745.78
606.92	1738.51
607.27	1731.23
607.62	1724.21
607.96	1716.85
608.31	1710.15
608.66	1702.49
609.01	1694.86
609.36	1687.25
609.70	1679.26
610.05	1671.26
610.40	1663.50
610.75	1655.28
611.10	1647.67
611.44	1639.20
611.79	1631.38
612.14	1622.70
612.49	1613.52
612.83	1605.30
613.18	1597.20
613.53	1589.09
613.88	1580.55
614.22	1572.16
614.57	1563.47
614.92	1555.45
615.27	1547.81
615.61	1539.49
615.96	1531.47
616.31	1523.82
616.65	1516.39
617.00	1508.82
617.35	1501.17
617.70	1492.83
618.04	1484.24
618.39	1475.93
618.74	1468.28
619.08	1459.81
619.43	1452.28
619.78	1445.35
620.12	1438.03
620.47	1430.50
620.82	1422.33
621.16	1415.02
621.51	1407.45
621.85	1399.90
622.20	1391.49
622.55	1383.25
622.89	1375.45
623.24	1367.83
623.59	1360.44
623.93	1352.89
624.28	1345.66
624.62	1338.04
624.97	1330.90
625.32	1324.14
625.66	1317.08
626.01	1309.98
626.35	1302.57
626.70	1294.93
627.04	1287.12
627.39	1279.44
627.73	1272.10
628.08	1265.11
628.43	1257.81
628.77	1250.47
629.12	1242.84
629.46	1235.57
629.81	1228.15
630.15	1220.82
630.50	1213.36
630.84	1205.17
631.19	1197.33
631.53	1189.81
631.88	1182.23
632.22	1174.59
632.57	1167.24
632.91	1159.76
633.26	1152.29
633.60	1144.97
633.95	1137.79
634.29	1130.82
634.64	1124.22
634.98	1116.79
635.32	1109.67
635.67	1103.08
636.01	1096.44
636.36	1089.69
636.70	1083.17
637.05	1076.62
637.39	1070.19
637.73	1063.72
638.08	1057.83
638.42	1051.76
638.77	1045.32
639.11	1038.76
639.45	1032.40
639.80	1025.78
640.14	1019.27
640.49	1012.74
640.83	1006.41
641.17	1000.17
641.52	993.83
641.86	987.38
642.20	981.54
642.55	975.27
642.89	968.83
643.23	962.29
643.58	956.48
643.92	950.22
644.26	944.10
644.61	938.13
644.95	932.14
645.29	925.56
645.64	918.90
645.98	912.60
646.32	906.77
646.66	900.73
647.01	894.93
647.35	889.29
647.69	883.51
648.04	877.97
648.38	872.18
648.72	866.17
649.06	860.03
649.41	854.14
649.75	848.13
650.09	842.13
650.43	836.40
650.78	830.31
651.12	824.43
651.46	818.70
651.80	812.94
652.14	807.46
652.49	802.09
652.83	796.83
653.17	791.05
653.51	785.25
653.85	779.83
654.20	774.19
654.54	768.20
654.88	762.39
655.22	756.48
655.56	750.75
655.90	745.32
656.25	740.08
656.59	734.68
656.93	729.63
657.27	724.50
657.61	719.04
657.95	713.89
658.29	708.83
658.64	703.66
658.98	698.32
659.32	692.92
659.66	687.68
660.00	682.37
660.34	677.54
660.68	672.72
661.02	667.73
661.36	663.04
661.70	658.54
662.05	654.23
662.39	649.88
662.73	645.41
663.07	641.01
663.41	636.61
663.75	632.15
664.09	627.60
664.43	623.17
664.77	618.99
665.11	614.77
665.45	610.63
665.79	606.49
666.13	602.40
666.47	598.35
666.81	594.16
667.15	590.12
667.49	586.19
667.83	582.36
668.17	578.42
668.51	574.32
668.85	570.27
669.19	566.41
669.53	562.62
669.87	558.78
670.21	555.07
670.55	551.40
670.89	547.99
671.23	544.61
671.57	541.13
671.91	537.56
672.25	534.01
672.58	530.50
672.92	527.15
673.26	523.96
673.60	520.76
673.94	517.67
674.28	514.74
674.62	511.75
674.96	508.63
675.30	505.71
675.64	502.80
675.97	500.07
676.31	497.18
676.65	494.25
676.99	491.55
677.33	488.74
677.67	485.91
678.01	482.88
678.34	479.86
678.68	476.97
679.02	474.17
679.36	471.44
679.70	468.70
680.04	465.95
680.37	463.12
680.71	460.34
681.05	457.76
681.39	455.02
681.73	452.46
682.06	449.91
682.40	447.38
682.74	444.83
683.08	442.25
683.42	439.69
683.75	437.15
684.09	434.64
684.43	432.10
684.77	429.64
685.10	427.30
685.44	424.98
685.78	422.66
686.12	420.41
686.45	418.12
686.79	415.80
687.13	413.59
687.46	411.41
687.80	409.26
688.14	407.06
688.48	405.01
688.81	402.70
689.15	400.60
689.49	398.44
689.82	396.36
690.16	394.27
690.50	392.28
690.83	390.40
691.17	388.37
691.51	386.47
691.84	384.63
692.18	382.69
692.52	380.71
692.85	378.78
693.19	376.90
693.52	375.09
693.86	373.28
694.20	371.48
694.53	369.62
694.87	367.77
695.21	365.97
695.54	364.19
695.88	362.46
696.21	360.71
696.55	359.05
696.88	357.39
697.22	355.74
697.56	354.13
697.89	352.44
698.23	350.82
698.56	349.21
698.90	347.61
699.23	345.96
699.57	344.40
699.90	342.90
700.24	341.37
700.58	339.84
700.91	338.34
701.25	336.90
701.58	335.58
701.92	334.24
702.25	332.90
702.59	331.51
702.92	330.18
703.26	328.93
703.59	327.62
703.93	326.41
704.26	325.19
704.60	323.92
704.93	322.62
705.26	321.43
705.60	320.30
705.93	319.14
706.27	318.15
706.60	317.10
706.94	316.01
707.27	314.87
707.61	313.80
707.94	312.80
708.27	311.73
708.61	310.65
708.94	309.62
709.28	308.65
709.61	307.67
709.94	306.74
710.28	305.68
710.61	304.77
710.95	303.74
711.28	302.83
711.61	301.84
711.95	300.95
712.28	300.02
712.61	299.01
712.95	298.08
713.28	297.18
713.61	296.32
713.95	295.41
714.28	294.57
714.61	293.72
714.95	292.89
715.28	292.04
715.61	291.18
715.95	290.33
716.28	289.46
716.61	288.66
716.95	287.86
717.28	287.13
717.61	286.35
717.94	285.60
718.28	284.77
718.61	284.08
718.94	283.40
719.27	282.71
719.61	282.07
719.94	281.41
720.27	280.72
720.60	280.05
720.94	279.43
721.27	278.82
721.60	278.25
721.93	277.62
722.27	277.08
722.60	276.52
722.93	275.94
723.26	275.40
723.59	274.82
723.93	274.28
724.26	273.68
724.59	273.16
724.92	272.60
725.25	272.13
725.59	271.61
725.92	271.05
726.25	270.54
726.58	270.04
726.91	269.57
727.24	269.09
727.57	268.59
727.91	268.08
728.24	267.67
728.57	267.15
728.90	266.68
729.23	266.18
729.56	265.73
729.89	265.30
730.22	264.82
730.55	264.35
730.89	263.90
731.22	263.50
731.55	263.03
731.88	262.62
732.21	262.18
732.54	261.76
732.87	261.37
733.20	260.98
733.53	260.61
733.86	260.20
734.19	259.76
734.52	259.41
734.85	259.10
735.18	258.62
735.51	258.30
735.84	257.93
736.17	257.58
736.50	257.18
736.83	256.92
737.16	256.56
737.49	256.22
737.82	255.85
738.15	255.51
738.48	255.16
738.81	254.84
739.14	254.54
739.47	254.21
739.80	253.89
740.13	253.57
740.46	253.26
740.79	252.96
741.12	252.66
741.45	252.35
741.78	252.02
742.11	251.77
742.44	251.42
742.77	251.15
743.10	250.86
743.43	250.54
743.75	250.15
744.08	250.03
744.41	249.77
744.74	249.52
745.07	249.23
745.40	248.96
745.73	248.67
746.06	248.36
746.39	248.10
746.71	247.82
747.04	247.56
747.37	247.28
747.70	247.01
748.03	246.79
748.36	246.56
748.68	246.31
749.01	246.05
749.34	245.80
749.67	245.54
750.00	245.35
750.33	245.23
750.65	245.03
750.98	244.68
751.31	244.45
751.64	244.23
751.97	244.08
752.29	243.90
752.62	243.68
752.95	243.49
753.28	243.29
753.60	243.10
753.93	242.94
754.26	242.75
754.59	242.53
754.91	242.32
755.24	242.11
755.57	241.93
755.90	241.79
756.22	241.65
756.55	241.46
756.88	241.26
757.20	241.04
757.53	240.84
757.86	240.69
758.19	240.53
758.51	240.36
758.84	240.15
759.17	239.99
759.49	239.84
759.82	239.72
760.15	239.56
760.47	239.40
760.80	239.23
761.13	239.12
761.45	238.98
761.78	238.83
762.11	238.68
762.43	238.54
762.76	238.37
763.08	238.22
763.41	238.12
763.74	237.99
764.06	237.85
764.39	237.71
764.71	237.56
765.04	237.43
765.37	237.30
765.69	237.21
766.02	237.06
766.34	236.96
766.67	236.81
767.00	236.72
767.32	236.68
767.65	236.59
767.97	236.48
768.30	236.35
768.62	236.27
768.95	236.15
769.27	236.06
769.60	235.96
769.92	235.83
770.25	235.71
770.57	235.58
770.90	235.46
771.22	235.38
771.55	235.29
771.87	235.19
772.20	235.10
772.52	235.07
772.85	235.13
773.17	235.06
773.50	234.94
773.82	234.84
774.15	234.71
774.47	234.58
774.80	234.45
775.12	234.40
775.45	234.31
775.77	234.27
776.09	234.19
776.42	234.09
776.74	234.03
777.07	233.96
777.39	233.91
777.72	233.85
778.04	233.75
778.36	233.71
778.69	233.64
779.01	233.57
779.33	233.42
779.66	233.24
779.98	233.14
780.31	233.11
780.63	233.10
780.95	233.03
781.28	232.96
781.60	232.91
781.92	232.85
782.25	232.78
782.57	232.70
782.89	232.61
783.22	232.57
783.54	232.51
783.86	232.47
784.19	232.36
784.51	232.32
784.83	232.27
785.16	232.20
785.48	232.16
785.80	232.11
786.12	232.07
786.45	232.01
786.77	231.98
787.09	231.90
787.42	231.81
787.74	231.78
788.06	231.76
788.38	231.71
788.71	231.64
789.03	231.57
789.35	231.54
789.67	231.50
789.99	231.46
790.32	231.40
790.64	231.36
790.96	231.43
791.28	231.36
791.61	231.30
791.93	231.25
792.25	231.19
792.57	231.19
792.89	231.09
793.21	231.02
793.54	230.97
793.86	230.91
794.18	230.85
794.50	230.77
794.82	230.72
795.14	230.70
795.47	230.67
795.79	230.65
796.11	230.60
796.43	230.56
796.75	230.53
797.07	230.53
797.39	230.45
797.71	230.34
798.04	230.33
798.36	230.31
798.68	230.27
799.00	230.28
799.32	230.21
799.64	230.22
799.96	230.19
800.28	230.15
800.60	230.14
800.92	230.11
801.24	230.08
801.56	230.06
801.89	230.04
802.21	229.99
802.53	229.92
802.85	229.91
803.17	229.90
803.49	229.88
803.81	229.81
804.13	229.80
804.45	229.75
804.77	229.73
805.09	229.73
805.41	229.71
805.73	229.63
806.05	229.57
806.37	229.54
806.69	229.52
807.01	229.51
807.33	229.50
807.65	229.46
807.97	229.51
808.28	229.43
808.60	229.37
808.92	229.35
809.24	229.42
809.56	229.38
809.88	229.35
810.20	229.29
810.52	229.32
810.84	229.28
811.16	229.25
811.48	229.19
811.80	229.19
812.12	229.16
812.43	229.18
812.75	229.16
813.07	229.15
813.39	229.14
813.71	229.09
814.03	229.05
814.35	229.02
814.67	228.92
814.98	228.92
815.30	228.93
815.62	228.88
815.94	228.77
816.26	228.79
816.58	228.77
816.89	228.77
817.21	228.70
817.53	228.70
817.85	228.67
818.17	228.68
818.48	228.62
818.80	228.62
819.12	228.57
819.44	228.55
819.76	228.49
820.07	228.46
820.39	228.46
820.71	228.45
821.03	228.45
821.34	228.43
821.66	228.43
821.98	228.42
822.30	228.41
822.61	228.48
822.93	228.41
823.25	228.38
823.57	228.34
823.88	228.35
824.20	228.32
824.52	228.38
824.83	228.34
825.15	228.30
825.47	228.27
825.79	228.26
826.10	228.24
826.42	228.21
826.74	228.19
827.05	228.18
827.37	228.17
827.69	228.17
828.00	228.19
828.32	228.19
828.64	228.17
828.95	228.21
829.27	228.17
829.58	228.19
829.90	228.19
830.22	228.18
830.53	228.15
830.85	228.12
831.17	228.06
831.48	228.02
831.80	228.02
832.11	228.02
832.43	227.98
832.75	227.98
833.06	228.05
833.38	228.04
833.69	228.03
834.01	228.02
834.32	227.98
834.64	227.96
834.96	227.94
835.27	227.97
835.59	227.91
835.90	227.86
836.22	227.82
836.53	227.81
836.85	227.82
837.16	227.90
837.48	227.89
837.79	227.91
838.11	227.93
838.42	227.90
838.74	227.87
839.05	227.90
839.37	227.87
839.68	227.81
840.00	227.77
840.31	227.78
840.63	227.76
840.94	227.75
841.26	227.71
841.57	227.67
841.88	227.64
842.20	227.61
842.51	227.59
842.83	227.61
843.14	227.68
843.46	227.66
843.77	227.62
844.08	227.61
844.40	227.59
844.71	227.56
845.03	227.58
845.34	227.57
845.65	227.57
845.97	227.55
846.28	227.55
846.60	227.56
846.91	227.55
847.22	227.53
847.54	227.54
847.85	227.59
848.16	227.62
848.48	227.58
848.79	227.63
849.10	227.64
849.42	227.65
849.73	227.57
850.04	227.54
850.36	227.49
850.67	227.51
850.98	227.53
851.30	227.55
851.61	227.54
851.92	227.52
852.23	227.52
852.55	227.58
852.86	227.58
853.17	227.59
853.49	227.60
853.80	227.65
854.11	227.65
854.42	227.63
854.74	227.60
855.05	227.61
855.36	227.58
855.67	227.60
855.99	227.58
856.30	227.69
856.61	227.70
856.92	227.70
857.23	227.70
857.55	227.66
857.86	227.66
858.17	227.68
858.48	227.65
858.79	227.67
859.11	227.68
859.42	227.67
859.73	227.66
860.04	227.66
860.35	227.62
860.66	227.64
860.98	227.61
861.29	227.62
861.60	227.61
861.91	227.62
862.22	227.61
862.53	227.57
862.84	227.42
863.16	227.44
863.47	227.41
863.78	227.40
864.09	227.42
864.40	227.41
864.71	227.43
865.02	227.45
865.33	227.41
865.64	227.40
865.95	227.40
866.27	227.47
866.58	227.44
866.89	227.44
867.20	227.39
867.51	227.38
867.82	227.35
868.13	227.39
868.44	227.36
868.75	227.36
869.06	227.39
869.37	227.43
869.68	227.41
869.99	227.42
870.30	227.43
870.61	227.42
870.92	227.38
871.23	227.34
871.54	227.36
871.85	227.38
872.16	227.38
872.47	227.39
872.78	227.30
873.09	227.34
873.40	227.32
873.71	227.34
874.02	227.35
874.33	227.36
874.64	227.33
874.95	227.34
875.26	227.30
875.56	227.29
875.87	227.25
876.18	227.23
876.49	227.32
876.80	227.31
877.11	227.31
877.42	227.34
877.73	227.35
878.04	227.34
878.35	227.31
878.66	227.30
878.96	227.29
879.27	227.29
879.58	227.23
879.89	227.24
880.20	227.28
880.51	227.27
880.82	227.24
881.12	227.26
881.43	227.22
881.74	227.23
882.05	227.20
882.36	227.24
882.67	227.28
882.97	227.22
883.28	227.20
883.59	227.20
883.90	227.17
884.21	227.19
884.51	227.18
884.82	227.16
885.13	227.14
885.44	227.11
885.74	227.10
886.05	227.09
886.36	227.10
886.67	227.07
886.98	227.13
887.28	227.15
887.59	227.12
887.90	227.12
888.20	227.12
888.51	227.17
888.82	227.14
889.13	227.13
889.43	227.19
889.74	227.18
890.05	227.18
890.35	227.19
890.66	227.16
890.97	227.15
891.28	227.14
891.58	227.14
891.89	227.15
892.20	227.14
892.50	227.17
892.81	227.16
893.12	227.16
893.42	227.10
893.73	227.08
894.04	227.09
894.34	227.11
894.65	227.13
894.95	227.12
895.26	227.13
895.57	227.16
895.87	227.07
896.18	227.10
896.48	227.11
896.79	227.12
897.10	227.15
897.40	227.18
897.71	227.21
898.01	227.23
898.32	227.26
898.63	227.25
898.93	227.23
899.24	227.22
899.54	227.19
899.85	227.21
900.15	227.23
900.46	227.24
900.76	227.25
901.07	227.24
901.38	227.21
901.68	227.21
901.99	227.16
902.29	227.15
902.60	227.13
902.90	227.11
903.21	227.06
903.51	227.05
903.82	227.07
904.12	227.05
904.43	227.02
904.73	227.01
905.03	227.05
905.34	227.17
905.64	227.17
905.95	227.19
906.25	227.16
906.56	227.17
906.86	227.15
907.17	227.14
907.47	227.13
907.77	227.12
908.08	227.08
908.38	227.11
908.69	227.11
908.99	227.11
909.30	227.14
909.60	227.18
909.90	227.17
910.21	227.12
910.51	227.09
910.81	227.11
911.12	227.10
911.42	227.08
911.73	226.96
912.03	226.96
912.33	226.95
912.64	226.96
912.94	226.97
913.24	226.98
913.55	226.93
913.85	226.96
914.15	226.96
914.46	226.98
914.76	226.93
915.06	226.90
915.37	226.90
915.67	226.89
915.97	226.84
916.27	226.79
916.58	226.81
916.88	226.83
917.18	226.80
917.49	226.86
917.79	226.88
918.09	226.88
918.39	226.94
918.70	226.93
919.00	226.90
919.30	226.91
919.60	226.90
919.91	226.91
920.21	226.88
920.51	226.89
920.81	226.89
921.12	226.91
921.42	226.88
921.72	226.87
922.02	226.85
922.32	226.89
922.63	226.91
922.93	226.94
923.23	226.93
923.53	226.91
923.83	226.85
924.13	226.83
924.44	226.86
924.74	226.84
925.04	226.87
925.34	226.90
925.64	226.87
925.94	226.88
926.24	226.96
926.55	226.98
926.85	226.99
927.15	227.00
927.45	227.00
927.75	227.03
928.05	227.04
928.35	227.03
928.65	227.06
928.95	227.07
929.26	227.03
929.56	227.11
929.86	227.12
930.16	227.12
930.46	227.12
930.76	227.08
931.06	227.03
931.36	227.03
931.66	227.07
931.96	227.08
932.26	227.08
932.56	227.01
932.86	227.02
933.16	227.00
933.46	227.00
933.76	227.00
934.06	227.04
934.36	227.08
934.66	227.07
934.96	227.06
935.26	227.06
935.56	227.10
935.86	227.05
936.16	227.08
936.46	227.07
936.76	227.06
937.06	227.08
937.36	227.09
937.66	227.07
937.96	227.06
938.26	227.02
938.56	227.02
938.86	227.02
939.16	227.00
939.46	227.03
939.76	227.02
940.06	227.07
940.35	227.04
940.65	226.98
940.95	227.02
941.25	226.98
941.55	226.97
941.85	226.94
942.15	226.94
942.45	226.94
942.75	226.95
943.04	226.97
943.34	226.96
943.64	226.94
943.94	226.90
944.24	226.89
944.54	226.87
944.84	226.87
945.13	226.86
945.43	226.87
945.73	226.84
946.03	226.84
946.33	226.79
946.62	226.78
946.92	226.81
947.22	226.78
947.52	226.82
947.82	226.81
948.11	226.81
948.41	226.80
948.71	226.78
949.01	226.78
949.31	226.78
949.60	226.78
949.90	226.79
950.20	226.82
950.50	226.81
950.79	226.83
951.09	226.84
951.39	226.81
951.69	226.78
951.98	226.82
952.28	226.81
952.58	226.81
952.87	226.81
953.17	226.81
953.47	226.81
953.76	226.81
954.06	226.80
954.36	226.80
954.66	226.81
954.95	226.83
955.25	226.82
955.55	226.81
955.84	226.80
956.14	226.82
956.44	226.81
956.73	226.80
957.03	226.80
957.32	226.79
957.62	226.83
957.92	226.88
958.21	226.85
958.51	226.97
958.81	226.98
959.10	226.98
959.40	226.99
959.69	226.99
959.99	226.98
960.29	226.98
960.58	226.98
960.88	227.03
961.17	227.00
961.47	227.01
961.76	227.02
962.06	227.03
962.36	227.00
962.65	227.02
962.95	227.02
963.24	227.03
963.54	227.03
963.83	227.05
964.13	227.02
964.42	227.01
964.72	226.94
965.01	226.96
965.31	226.97
965.60	226.94
965.90	227.03
966.19	227.02
966.49	227.03
966.78	227.02
967.08	226.98
967.37	227.01
967.67	226.98
967.96	226.99
968.26	227.01
968.55	227.01
968.85	226.99
969.14	227.00
969.43	227.00
969.73	227.01
970.02	226.99
970.32	226.98
970.61	226.95
970.91	226.92
971.20	226.86
971.49	226.86
971.79	226.87
972.08	226.78
972.38	226.75
972.67	226.75
972.96	226.77
973.26	226.77
973.55	226.78
973.85	226.78
974.14	226.75
974.43	226.77
974.73	226.74
975.02	226.77
975.31	226.76
975.61	226.73
975.90	226.74
976.19	226.75
976.49	226.77
976.78	226.79
977.07	226.77
977.37	226.79
977.66	226.82
977.95	226.82
978.24	226.84
978.54	226.86
978.83	226.86
979.12	226.82
979.42	226.83
979.71	226.80
980.00	226.80
980.29	226.82
980.59	226.78
980.88	226.83
981.17	226.80
981.46	226.80
981.76	226.82
982.05	226.86
982.34	226.86
982.63	226.85
982.93	226.87
983.22	226.90
983.51	226.95
983.80	226.93
984.09	226.94
984.39	226.93
984.68	226.97
984.97	226.97
985.26	226.99
985.55	227.00
985.85	227.00
986.14	227.01
986.43	227.03
986.72	227.02
987.01	226.99
987.30	226.99
987.59	227.00
987.89	227.01
988.18	226.96
988.47	226.97
988.76	226.94
989.05	226.92
989.34	226.93
989.63	226.90
989.92	226.87
990.22	226.84
990.51	226.84
990.80	226.82
991.09	226.82
991.38	226.84
991.67	226.82
991.96	226.82
992.25	226.84
992.54	226.82
992.83	226.83
993.12	226.82
993.41	226.87
993.70	226.91
993.99	226.92
994.28	226.88
994.58	226.89
994.87	226.91
995.16	226.92
995.45	226.90
995.74	226.89
996.03	226.92
996.32	226.95
996.61	226.97
996.90	226.99
997.19	227.00
997.48	226.98
997.77	226.96
998.06	226.97
998.34	226.94
998.63	226.96
998.92	226.97
999.21	226.99
999.50	226.96
999.79	226.92
1000.08	226.94
1000.37	226.97
1000.66	226.94
1000.95	226.94
1001.24	226.95
1001.53	226.97
1001.82	226.94
1002.11	226.92
1002.40	226.90
1002.68	226.90
1002.97	226.96
1003.26	226.93
1003.55	226.92
1003.84	226.94
1004.13	226.97
1004.42	226.98
1004.71	226.96
1004.99	226.95
1005.28	226.97
1005.57	226.98
1005.86	226.93
1006.15	226.92
1006.44	226.89
1006.72	226.91
1007.01	226.89
1007.30	226.90
1007.59	226.87
1007.88	226.92
1008.17	226.92
1008.45	226.90
1008.74	226.86
1009.03	226.82
1009.32	226.83
1009.60	226.86
1009.89	226.86
1010.18	226.82
1010.47	226.82
1010.76	226.82
1011.04	226.81
1011.33	226.82
1011.62	226.84
1011.91	226.87
1012.19	226.89
1012.48	226.91
1012.77	226.91
1013.05	226.97
1013.34	226.93
1013.63	226.95
1013.92	226.92
1014.20	226.93
1014.49	226.97
1014.78	226.97
1015.06	226.94
1015.35	226.92
1015.64	226.90
1015.92	226.93
1016.21	226.93
1016.50	226.94
1016.78	226.96
1017.07	226.98
1017.36	226.96
1017.64	226.94
1017.93	226.94
1018.22	226.91
1018.50	226.91
1018.79	226.92
1019.08	226.88
1019.36	226.91
1019.65	226.89
1019.93	226.90
1020.22	226.90
1020.51	226.96
1020.79	226.96
1021.08	226.59
1021.36	226.80
1021.65	227.17
1021.94	226.93
1022.22	227.16
1022.51	226.95
1022.79	226.68
1023.08	226.95
1023.36	228.13
1023.65	226.61
>>>>>End Processed Spectral Data<<<<<
