SpectraSuite Data File
++++++++++++++++++++++++++++++++++++
Date: Fri Feb 01 15:04:54 EST 2013
User: group
Dark Spectrum Present: No
Reference Spectrum Present: No
Number of Sampled Component Spectra: 1
Spectrometers: USB2E7196
Integration Time (usec): 35000 (USB2E7196)
Spectra Averaged: 100 (USB2E7196)
Boxcar Smoothing: 10 (USB2E7196)
Correct for Electrical Dark: No (USB2E7196)
Strobe/Lamp Enabled: No (USB2E7196)
Correct for Detector Non-linearity: No (USB2E7196)
Correct for Stray Light: No (USB2E7196)
Number of Pixels in Processed Spectrum: 2048
>>>>>Begin Processed Spectral Data<<<<<
339.09	0.00
339.48	215.26
339.86	216.64
340.24	218.37
340.63	219.89
341.01	222.09
341.39	222.65
341.78	223.72
342.16	224.56
342.54	225.35
342.93	213.64
343.31	224.43
343.69	224.99
344.07	225.45
344.46	225.86
344.84	226.23
345.22	226.50
345.60	226.70
345.99	226.88
346.37	227.00
346.75	227.08
347.13	227.16
347.52	227.21
347.90	227.32
348.28	227.34
348.66	227.38
349.05	227.39
349.43	227.37
349.81	227.42
350.19	227.45
350.57	227.48
350.96	227.56
351.34	227.65
351.72	227.70
352.10	227.81
352.48	227.88
352.87	227.91
353.25	227.94
353.63	228.03
354.01	228.11
354.39	228.19
354.77	228.30
355.15	228.40
355.54	228.44
355.92	228.41
356.30	228.48
356.68	228.60
357.06	228.66
357.44	228.74
357.82	228.80
358.20	228.88
358.58	228.97
358.97	229.03
359.35	229.08
359.73	229.17
360.11	229.22
360.49	229.27
360.87	229.32
361.25	229.36
361.63	229.45
362.01	229.49
362.39	229.52
362.77	229.53
363.15	229.54
363.53	229.56
363.91	229.60
364.29	229.61
364.67	229.54
365.05	229.53
365.43	229.55
365.81	229.56
366.19	229.57
366.57	229.60
366.95	229.59
367.33	229.55
367.71	229.53
368.09	229.47
368.47	229.46
368.85	229.45
369.23	229.44
369.61	229.37
369.99	229.34
370.37	229.32
370.75	229.31
371.13	229.25
371.51	229.19
371.89	229.14
372.27	229.08
372.65	229.02
373.03	228.97
373.41	228.87
373.78	228.78
374.16	228.68
374.54	228.58
374.92	228.47
375.30	228.40
375.68	228.30
376.06	228.23
376.44	228.15
376.82	228.07
377.19	227.99
377.57	227.90
377.95	227.80
378.33	227.76
378.71	227.62
379.09	227.55
379.47	227.53
379.84	227.46
380.22	227.43
380.60	227.37
380.98	227.29
381.36	227.22
381.73	227.18
382.11	227.12
382.49	227.04
382.87	226.98
383.25	226.91
383.62	226.99
384.00	226.91
384.38	226.86
384.76	226.80
385.13	226.78
385.51	226.74
385.89	226.70
386.27	226.61
386.64	226.58
387.02	226.51
387.40	226.44
387.78	226.39
388.15	226.35
388.53	226.32
388.91	226.27
389.29	226.27
389.66	226.25
390.04	226.22
390.42	226.26
390.79	226.26
391.17	226.24
391.55	226.11
391.92	226.12
392.30	226.13
392.68	226.12
393.05	226.12
393.43	226.11
393.81	226.13
394.18	226.13
394.56	226.18
394.94	226.24
395.31	226.29
395.69	226.36
396.06	226.38
396.44	226.41
396.82	226.44
397.19	226.56
397.57	226.60
397.95	226.68
398.32	226.68
398.70	226.75
399.07	226.86
399.45	226.93
399.82	227.00
400.20	227.05
400.58	227.17
400.95	227.22
401.33	227.33
401.70	227.47
402.08	227.61
402.45	227.71
402.83	227.85
403.20	227.93
403.58	228.02
403.95	228.15
404.33	228.31
404.71	228.45
405.08	228.63
405.46	228.72
405.83	228.89
406.21	229.07
406.58	229.21
406.96	229.36
407.33	229.54
407.70	229.76
408.08	230.06
408.45	230.26
408.83	230.51
409.20	230.73
409.58	230.87
409.95	231.12
410.33	231.35
410.70	231.61
411.08	231.94
411.45	232.27
411.82	232.62
412.20	232.96
412.57	233.41
412.95	233.70
413.32	234.15
413.69	234.55
414.07	234.98
414.44	235.44
414.82	235.98
415.19	236.53
415.56	237.08
415.94	237.61
416.31	238.29
416.68	238.93
417.06	239.65
417.43	240.38
417.81	241.13
418.18	241.93
418.55	242.75
418.93	243.65
419.30	244.53
419.67	245.47
420.04	246.46
420.42	247.44
420.79	248.63
421.16	249.79
421.54	250.98
421.91	252.16
422.28	253.43
422.66	254.72
423.03	256.02
423.40	257.37
423.77	258.82
424.15	260.24
424.52	261.71
424.89	263.30
425.26	264.87
425.64	266.33
426.01	267.95
426.38	269.63
426.75	271.29
427.13	273.02
427.50	274.81
427.87	276.65
428.24	278.48
428.61	280.22
428.99	282.18
429.36	284.28
429.73	286.37
430.10	288.41
430.47	290.47
430.85	292.60
431.22	294.84
431.59	297.23
431.96	299.47
432.33	301.96
432.70	304.36
433.08	307.20
433.45	309.82
433.82	312.40
434.19	315.28
434.56	318.09
434.93	320.73
435.30	323.34
435.68	326.30
436.05	329.14
436.42	331.96
436.79	334.45
437.16	337.18
437.53	340.05
437.90	342.83
438.27	345.61
438.64	348.44
439.01	351.04
439.38	353.25
439.75	355.43
440.13	357.93
440.50	360.22
440.87	362.05
441.24	364.02
441.61	366.20
441.98	367.69
442.35	369.45
442.72	371.34
443.09	373.17
443.46	374.13
443.83	374.73
444.20	375.19
444.57	375.99
444.94	376.25
445.31	376.54
445.68	376.93
446.05	377.01
446.42	376.63
446.79	376.24
447.16	375.75
447.53	375.36
447.90	374.20
448.27	373.07
448.64	371.45
449.01	370.31
449.37	368.36
449.74	366.44
450.11	364.25
450.48	361.76
450.85	359.22
451.22	357.10
451.59	355.09
451.96	353.15
452.33	350.58
452.70	348.20
453.07	345.39
453.43	342.48
453.80	339.66
454.17	336.99
454.54	334.43
454.91	331.72
455.28	329.07
455.65	326.57
456.02	324.10
456.38	321.95
456.75	319.27
457.12	317.01
457.49	314.80
457.86	312.62
458.23	310.73
458.59	308.66
458.96	306.53
459.33	304.66
459.70	302.80
460.07	301.31
460.43	299.58
460.80	297.94
461.17	296.50
461.54	295.02
461.91	293.60
462.27	292.13
462.64	290.84
463.01	289.53
463.38	288.26
463.74	286.88
464.11	285.71
464.48	284.67
464.85	283.55
465.21	282.67
465.58	281.74
465.95	280.67
466.32	279.77
466.68	278.88
467.05	277.95
467.42	277.08
467.78	276.16
468.15	275.31
468.52	274.66
468.88	273.82
469.25	273.06
469.62	272.36
469.98	271.71
470.35	271.11
470.72	270.49
471.08	269.78
471.45	269.26
471.82	268.71
472.18	268.12
472.55	267.69
472.92	267.18
473.28	266.70
473.65	266.23
474.02	265.73
474.38	265.36
474.75	265.04
475.11	264.67
475.48	264.38
475.85	264.13
476.21	263.89
476.58	263.68
476.94	263.50
477.31	263.36
477.67	263.14
478.04	263.00
478.41	262.91
478.77	262.96
479.14	262.90
479.50	262.90
479.87	262.95
480.23	262.98
480.60	263.06
480.96	263.11
481.33	263.32
481.69	263.54
482.06	263.75
482.42	263.94
482.79	264.16
483.15	264.45
483.52	264.85
483.88	265.20
484.25	265.58
484.61	265.98
484.98	266.44
485.34	267.03
485.71	267.64
486.07	268.24
486.44	268.76
486.80	269.41
487.17	270.14
487.53	270.96
487.90	271.80
488.26	272.67
488.62	273.68
488.99	274.63
489.35	275.69
489.72	276.78
490.08	277.98
490.44	279.20
490.81	280.49
491.17	281.80
491.54	283.25
491.90	284.78
492.26	286.45
492.63	288.15
492.99	289.87
493.36	291.73
493.72	293.75
494.08	295.86
494.45	298.09
494.81	300.46
495.17	302.85
495.54	305.41
495.90	308.08
496.26	310.87
496.63	313.83
496.99	316.90
497.35	320.16
497.72	323.56
498.08	327.07
498.44	330.71
498.80	334.62
499.17	338.65
499.53	342.78
499.89	347.15
500.26	351.64
500.62	356.36
500.98	361.34
501.34	366.42
501.71	371.73
502.07	377.19
502.43	382.76
502.79	388.56
503.16	394.62
503.52	400.88
503.88	407.25
504.24	413.83
504.60	420.68
504.97	427.80
505.33	435.07
505.69	442.80
506.05	450.65
506.41	458.54
506.78	466.74
507.14	475.24
507.50	483.92
507.86	492.89
508.22	501.99
508.59	511.20
508.95	520.82
509.31	530.62
509.67	540.70
510.03	551.03
510.39	561.60
510.75	572.35
511.12	583.32
511.48	594.64
511.84	606.18
512.20	617.74
512.56	629.70
512.92	641.92
513.28	654.17
513.64	666.61
514.00	679.34
514.37	692.20
514.73	705.18
515.09	718.19
515.45	731.54
515.81	745.20
516.17	759.10
516.53	773.15
516.89	787.27
517.25	801.49
517.61	815.97
517.97	830.49
518.33	844.97
518.69	859.78
519.05	874.81
519.41	890.03
519.77	905.57
520.13	921.01
520.49	936.47
520.85	951.96
521.21	967.72
521.57	983.91
521.93	999.78
522.29	1016.35
522.65	1032.77
523.01	1049.03
523.37	1065.04
523.73	1081.29
524.09	1097.43
524.45	1113.92
524.81	1130.66
525.17	1147.56
525.53	1164.52
525.89	1181.45
526.25	1198.33
526.61	1214.84
526.97	1231.53
527.33	1248.10
527.68	1264.79
528.04	1281.35
528.40	1298.10
528.76	1315.19
529.12	1331.87
529.48	1348.82
529.84	1364.74
530.20	1381.42
530.56	1398.54
530.91	1416.10
531.27	1433.04
531.63	1449.59
531.99	1466.19
532.35	1482.07
532.71	1497.94
533.07	1514.14
533.42	1530.08
533.78	1546.13
534.14	1562.36
534.50	1577.86
534.86	1593.88
535.21	1609.01
535.57	1625.03
535.93	1640.60
536.29	1655.51
536.65	1670.64
537.00	1685.51
537.36	1700.98
537.72	1715.58
538.08	1730.02
538.44	1743.91
538.79	1757.81
539.15	1771.62
539.51	1785.43
539.87	1800.10
540.22	1813.86
540.58	1827.86
540.94	1841.36
541.29	1854.53
541.65	1867.32
542.01	1880.58
542.37	1892.85
542.72	1905.46
543.08	1917.16
543.44	1929.57
543.79	1940.77
544.15	1951.91
544.51	1963.40
544.87	1974.48
545.22	1985.32
545.58	1995.54
545.94	2005.38
546.29	2015.22
546.65	2025.07
547.01	2034.38
547.36	2043.03
547.72	2051.64
548.07	2059.48
548.43	2067.63
548.79	2075.63
549.14	2083.07
549.50	2090.48
549.86	2098.25
550.21	2105.47
550.57	2112.69
550.92	2119.21
551.28	2126.33
551.64	2133.32
551.99	2139.98
552.35	2146.05
552.70	2152.18
553.06	2158.23
553.41	2164.59
553.77	2170.72
554.13	2176.85
554.48	2183.00
554.84	2188.37
555.19	2193.74
555.55	2198.82
555.90	2203.28
556.26	2207.93
556.61	2212.86
556.97	2216.98
557.32	2221.15
557.68	2225.42
558.03	2229.65
558.39	2233.44
558.74	2238.08
559.10	2241.84
559.45	2245.41
559.81	2249.80
560.16	2253.50
560.52	2256.68
560.87	2260.03
561.23	2262.50
561.58	2265.40
561.94	2267.93
562.29	2270.30
562.64	2272.77
563.00	2275.46
563.35	2278.95
563.71	2282.09
564.06	2285.16
564.42	2287.96
564.77	2290.33
565.12	2292.21
565.48	2294.10
565.83	2295.90
566.19	2297.16
566.54	2298.13
566.89	2299.29
567.25	2299.63
567.60	2301.02
567.96	2302.56
568.31	2303.21
568.66	2304.27
569.02	2304.79
569.37	2304.91
569.72	2305.59
570.08	2305.53
570.43	2305.28
570.78	2304.49
571.14	2302.83
571.49	2301.24
571.84	2300.76
572.20	2299.37
572.55	2298.37
572.90	2296.67
573.26	2295.10
573.61	2293.27
573.96	2291.20
574.31	2287.92
574.67	2284.80
575.02	2281.02
575.37	2277.47
575.72	2273.52
576.08	2270.21
576.43	2266.69
576.78	2262.85
577.13	2259.74
577.49	2256.67
577.84	2253.10
578.19	2249.24
578.54	2245.49
578.90	2241.16
579.25	2235.60
579.60	2230.49
579.95	2225.44
580.30	2220.32
580.66	2215.05
581.01	2210.04
581.36	2205.08
581.71	2200.77
582.06	2196.20
582.42	2191.45
582.77	2186.12
583.12	2181.44
583.47	2176.46
583.82	2171.30
584.17	2165.91
584.53	2160.25
584.88	2154.27
585.23	2148.27
585.58	2142.82
585.93	2137.14
586.28	2132.31
586.63	2127.10
586.98	2122.04
587.34	2117.20
587.69	2112.25
588.04	2106.83
588.39	2100.99
588.74	2094.55
589.09	2088.31
589.44	2081.52
589.79	2075.56
590.14	2069.85
590.49	2063.21
590.84	2056.80
591.19	2050.74
591.54	2044.30
591.89	2036.64
592.25	2029.92
592.60	2022.78
592.95	2015.01
593.30	2007.65
593.65	1999.95
594.00	1992.82
594.35	1985.48
594.70	1977.42
595.05	1970.03
595.40	1962.68
595.75	1955.04
596.10	1948.62
596.45	1941.70
596.80	1935.32
597.15	1928.50
597.50	1921.15
597.85	1914.66
598.19	1907.89
598.54	1900.60
598.89	1893.90
599.24	1888.02
599.59	1881.16
599.94	1874.92
600.29	1868.64
600.64	1862.17
600.99	1854.69
601.34	1847.86
601.69	1841.01
602.04	1833.97
602.39	1826.55
602.74	1819.71
603.08	1813.05
603.43	1806.50
603.78	1799.42
604.13	1792.12
604.48	1784.89
604.83	1778.17
605.18	1771.17
605.53	1763.06
605.87	1755.10
606.22	1747.88
606.57	1739.96
606.92	1732.75
607.27	1725.46
607.62	1718.41
607.96	1711.01
608.31	1704.43
608.66	1696.72
609.01	1689.02
609.36	1681.58
609.70	1673.65
610.05	1665.44
610.40	1657.60
610.75	1649.12
611.10	1641.33
611.44	1633.06
611.79	1625.05
612.14	1616.38
612.49	1607.22
612.83	1598.96
613.18	1590.83
613.53	1582.72
613.88	1574.17
614.22	1565.84
614.57	1557.28
614.92	1549.30
615.27	1541.76
615.61	1533.44
615.96	1525.48
616.31	1517.72
616.65	1510.26
617.00	1502.69
617.35	1495.12
617.70	1486.79
618.04	1478.18
618.39	1470.00
618.74	1462.40
619.08	1454.12
619.43	1446.66
619.78	1439.74
620.12	1432.55
620.47	1425.14
620.82	1416.97
621.16	1409.63
621.51	1402.03
621.85	1394.48
622.20	1385.86
622.55	1377.57
622.89	1369.75
623.24	1362.17
623.59	1354.91
623.93	1347.48
624.28	1340.27
624.62	1332.91
624.97	1325.76
625.32	1319.06
625.66	1312.04
626.01	1304.77
626.35	1297.31
626.70	1289.47
627.04	1281.79
627.39	1274.06
627.73	1266.64
628.08	1259.69
628.43	1252.28
628.77	1244.90
629.12	1237.30
629.46	1230.29
629.81	1222.95
630.15	1215.88
630.50	1208.46
630.84	1200.26
631.19	1192.36
631.53	1185.02
631.88	1177.42
632.22	1169.92
632.57	1162.73
632.91	1155.27
633.26	1148.00
633.60	1140.75
633.95	1133.83
634.29	1126.83
634.64	1120.23
634.98	1112.90
635.32	1105.87
635.67	1099.45
636.01	1092.93
636.36	1086.19
636.70	1079.67
637.05	1073.08
637.39	1066.54
637.73	1060.11
638.08	1054.42
638.42	1048.49
638.77	1041.91
639.11	1035.34
639.45	1029.02
639.80	1022.49
640.14	1016.02
640.49	1009.52
640.83	1003.24
641.17	996.91
641.52	990.72
641.86	984.37
642.20	978.55
642.55	972.37
642.89	965.86
643.23	959.40
643.58	953.64
643.92	947.54
644.26	941.53
644.61	935.57
644.95	929.60
645.29	922.96
645.64	916.23
645.98	910.01
646.32	904.18
646.66	898.07
647.01	892.18
647.35	886.56
647.69	880.82
648.04	875.29
648.38	869.51
648.72	863.46
649.06	857.41
649.41	851.51
649.75	845.42
650.09	839.48
650.43	833.70
650.78	827.61
651.12	821.68
651.46	815.99
651.80	810.20
652.14	804.79
652.49	799.47
652.83	794.25
653.17	788.50
653.51	782.81
653.85	777.50
654.20	771.84
654.54	765.87
654.88	760.09
655.22	754.20
655.56	748.54
655.90	743.12
656.25	737.81
656.59	732.52
656.93	727.53
657.27	722.39
657.61	716.94
657.95	711.80
658.29	706.69
658.64	701.41
658.98	696.16
659.32	690.68
659.66	685.46
660.00	680.21
660.34	675.35
660.68	670.45
661.02	665.50
661.36	660.83
661.70	656.34
662.05	652.00
662.39	647.73
662.73	643.30
663.07	638.89
663.41	634.46
663.75	629.93
664.09	625.40
664.43	621.00
664.77	616.92
665.11	612.72
665.45	608.61
665.79	604.55
666.13	600.37
666.47	596.28
666.81	592.13
667.15	588.03
667.49	584.19
667.83	580.40
668.17	576.41
668.51	572.37
668.85	568.34
669.19	564.56
669.53	560.68
669.87	556.82
670.21	553.14
670.55	549.52
670.89	546.11
671.23	542.61
671.57	539.16
671.91	535.63
672.25	532.14
672.58	528.59
672.92	525.23
673.26	522.08
673.60	519.00
673.94	515.90
674.28	513.05
674.62	510.13
674.96	507.01
675.30	504.15
675.64	501.21
675.97	498.51
676.31	495.64
676.65	492.77
676.99	490.14
677.33	487.32
677.67	484.49
678.01	481.43
678.34	478.49
678.68	475.62
679.02	472.84
679.36	470.09
679.70	467.48
680.04	464.70
680.37	461.84
680.71	459.04
681.05	456.50
681.39	453.79
681.73	451.15
682.06	448.65
682.40	446.09
682.74	443.62
683.08	441.12
683.42	438.54
683.75	436.08
684.09	433.50
684.43	431.09
684.77	428.72
685.10	426.46
685.44	424.16
685.78	421.93
686.12	419.72
686.45	417.44
686.79	415.12
687.13	412.96
687.46	410.84
687.80	408.70
688.14	406.51
688.48	404.51
688.81	402.27
689.15	400.22
689.49	398.13
689.82	396.01
690.16	393.91
690.50	391.97
690.83	390.04
691.17	388.17
691.51	386.25
691.84	384.36
692.18	382.41
692.52	380.48
692.85	378.54
693.19	376.66
693.52	374.88
693.86	373.10
694.20	371.36
694.53	369.60
694.87	367.79
695.21	365.97
695.54	364.10
695.88	362.38
696.21	360.61
696.55	358.91
696.88	357.26
697.22	355.63
697.56	354.04
697.89	352.38
698.23	350.77
698.56	349.17
698.90	347.58
699.23	345.94
699.57	344.38
699.90	342.88
700.24	341.31
700.58	339.74
700.91	338.25
701.25	336.80
701.58	335.42
701.92	334.10
702.25	332.78
702.59	331.42
702.92	330.05
703.26	328.76
703.59	327.53
703.93	326.37
704.26	325.13
704.60	323.80
704.93	322.52
705.26	321.20
705.60	320.03
705.93	318.90
706.27	317.89
706.60	316.81
706.94	315.72
707.27	314.58
707.61	313.54
707.94	312.53
708.27	311.40
708.61	310.30
708.94	309.26
709.28	308.25
709.61	307.28
709.94	306.36
710.28	305.33
710.61	304.30
710.95	303.22
711.28	302.28
711.61	301.36
711.95	300.41
712.28	299.48
712.61	298.46
712.95	297.49
713.28	296.59
713.61	295.70
713.95	294.82
714.28	294.01
714.61	293.18
714.95	292.29
715.28	291.47
715.61	290.60
715.95	289.75
716.28	288.88
716.61	288.07
716.95	287.26
717.28	286.54
717.61	285.79
717.94	285.04
718.28	284.28
718.61	283.59
718.94	282.93
719.27	282.28
719.61	281.67
719.94	281.05
720.27	280.37
720.60	279.70
720.94	279.09
721.27	278.48
721.60	277.91
721.93	277.38
722.27	276.88
722.60	276.34
722.93	275.81
723.26	275.33
723.59	274.79
723.93	274.25
724.26	273.72
724.59	273.19
724.92	272.72
725.25	272.22
725.59	271.71
725.92	271.21
726.25	270.76
726.58	270.28
726.91	269.82
727.24	269.39
727.57	268.98
727.91	268.52
728.24	268.10
728.57	267.63
728.90	267.16
729.23	266.63
729.56	266.25
729.89	265.77
730.22	265.30
730.55	264.87
730.89	264.45
731.22	263.99
731.55	263.56
731.88	263.15
732.21	262.75
732.54	262.32
732.87	261.91
733.20	261.50
733.53	261.14
733.86	260.75
734.19	260.32
734.52	259.95
734.85	259.63
735.18	259.19
735.51	258.85
735.84	258.47
736.17	258.20
736.50	257.78
736.83	257.54
737.16	257.19
737.49	256.82
737.82	256.46
738.15	256.16
738.48	255.84
738.81	255.46
739.14	255.10
739.47	254.78
739.80	254.43
740.13	254.13
740.46	253.79
740.79	253.44
741.12	253.14
741.45	252.78
741.78	252.42
742.11	252.14
742.44	251.76
742.77	251.43
743.10	251.07
743.43	250.75
743.75	250.29
744.08	250.13
744.41	249.84
744.74	249.54
745.07	249.20
745.40	248.92
745.73	248.68
746.06	248.39
746.39	248.12
746.71	247.85
747.04	247.52
747.37	247.23
747.70	246.99
748.03	246.71
748.36	246.48
748.68	246.22
749.01	245.95
749.34	245.74
749.67	245.49
750.00	245.23
750.33	245.04
750.65	244.87
750.98	244.50
751.31	244.24
751.64	244.05
751.97	243.89
752.29	243.66
752.62	243.39
752.95	243.19
753.28	242.98
753.60	242.78
753.93	242.64
754.26	242.42
754.59	242.20
754.91	241.99
755.24	241.77
755.57	241.58
755.90	241.40
756.22	241.21
756.55	241.05
756.88	240.86
757.20	240.63
757.53	240.44
757.86	240.30
758.19	240.22
758.51	240.05
758.84	239.88
759.17	239.75
759.49	239.64
759.82	239.52
760.15	239.38
760.47	239.22
760.80	239.03
761.13	238.94
761.45	238.79
761.78	238.66
762.11	238.53
762.43	238.41
762.76	238.29
763.08	238.19
763.41	238.06
763.74	237.95
764.06	237.84
764.39	237.74
764.71	237.62
765.04	237.46
765.37	237.35
765.69	237.22
766.02	237.09
766.34	236.96
766.67	236.84
767.00	236.78
767.32	236.73
767.65	236.71
767.97	236.61
768.30	236.55
768.62	236.45
768.95	236.36
769.27	236.26
769.60	236.15
769.92	236.03
770.25	235.93
770.57	235.87
770.90	235.81
771.22	235.70
771.55	235.62
771.87	235.56
772.20	235.47
772.52	235.50
772.85	235.55
773.17	235.47
773.50	235.37
773.82	235.26
774.15	235.16
774.47	235.04
774.80	234.93
775.12	234.83
775.45	234.74
775.77	234.68
776.09	234.60
776.42	234.56
776.74	234.51
777.07	234.42
777.39	234.34
777.72	234.21
778.04	234.19
778.36	234.08
778.69	233.99
779.01	233.92
779.33	233.75
779.66	233.57
779.98	233.52
780.31	233.44
780.63	233.41
780.95	233.33
781.28	233.25
781.60	233.22
781.92	233.17
782.25	233.12
782.57	233.05
782.89	232.96
783.22	232.86
783.54	232.78
783.86	232.72
784.19	232.62
784.51	232.62
784.83	232.50
785.16	232.44
785.48	232.38
785.80	232.33
786.12	232.24
786.45	232.16
786.77	232.07
787.09	232.01
787.42	231.90
787.74	231.83
788.06	231.73
788.38	231.64
788.71	231.53
789.03	231.45
789.35	231.39
789.67	231.32
789.99	231.27
790.32	231.18
790.64	231.13
790.96	231.15
791.28	231.04
791.61	231.01
791.93	230.96
792.25	230.89
792.57	230.87
792.89	230.85
793.21	230.84
793.54	230.77
793.86	230.72
794.18	230.67
794.50	230.63
794.82	230.62
795.14	230.57
795.47	230.56
795.79	230.50
796.11	230.43
796.43	230.40
796.75	230.35
797.07	230.32
797.39	230.27
797.71	230.17
798.04	230.15
798.36	230.10
798.68	230.08
799.00	230.06
799.32	230.02
799.64	229.97
799.96	229.88
800.28	229.89
800.60	229.83
800.92	229.83
801.24	229.79
801.56	229.78
801.89	229.75
802.21	229.73
802.53	229.72
802.85	229.76
803.17	229.77
803.49	229.79
803.81	229.79
804.13	229.81
804.45	229.79
804.77	229.82
805.09	229.81
805.41	229.79
805.73	229.76
806.05	229.74
806.37	229.75
806.69	229.77
807.01	229.76
807.33	229.80
807.65	229.75
807.97	229.79
808.28	229.74
808.60	229.73
808.92	229.73
809.24	229.79
809.56	229.74
809.88	229.73
810.20	229.72
810.52	229.75
810.84	229.69
811.16	229.68
811.48	229.64
811.80	229.67
812.12	229.64
812.43	229.64
812.75	229.59
813.07	229.57
813.39	229.59
813.71	229.53
814.03	229.50
814.35	229.47
814.67	229.41
814.98	229.37
815.30	229.39
815.62	229.35
815.94	229.26
816.26	229.30
816.58	229.25
816.89	229.23
817.21	229.14
817.53	229.14
817.85	229.11
818.17	229.12
818.48	229.05
818.80	229.07
819.12	229.03
819.44	229.00
819.76	229.00
820.07	228.96
820.39	228.97
820.71	228.93
821.03	228.93
821.34	228.90
821.66	228.92
821.98	228.89
822.30	228.86
822.61	228.90
822.93	228.83
823.25	228.83
823.57	228.81
823.88	228.80
824.20	228.77
824.52	228.78
824.83	228.74
825.15	228.70
825.47	228.64
825.79	228.64
826.10	228.60
826.42	228.55
826.74	228.51
827.05	228.47
827.37	228.47
827.69	228.46
828.00	228.46
828.32	228.45
828.64	228.41
828.95	228.45
829.27	228.40
829.58	228.38
829.90	228.34
830.22	228.32
830.53	228.27
830.85	228.26
831.17	228.19
831.48	228.13
831.80	228.10
832.11	228.09
832.43	228.03
832.75	227.99
833.06	228.00
833.38	227.96
833.69	227.92
834.01	227.91
834.32	227.89
834.64	227.86
834.96	227.83
835.27	227.80
835.59	227.72
835.90	227.70
836.22	227.69
836.53	227.64
836.85	227.62
837.16	227.71
837.48	227.67
837.79	227.68
838.11	227.68
838.42	227.69
838.74	227.72
839.05	227.72
839.37	227.76
839.68	227.71
840.00	227.71
840.31	227.72
840.63	227.70
840.94	227.70
841.26	227.70
841.57	227.69
841.88	227.73
842.20	227.75
842.51	227.73
842.83	227.71
843.14	227.84
843.46	227.85
843.77	227.81
844.08	227.83
844.40	227.83
844.71	227.84
845.03	227.84
845.34	227.82
845.65	227.84
845.97	227.83
846.28	227.85
846.60	227.87
846.91	227.88
847.22	227.84
847.54	227.86
847.85	227.86
848.16	227.88
848.48	227.86
848.79	227.91
849.10	227.95
849.42	228.00
849.73	227.92
850.04	227.92
850.36	227.88
850.67	227.91
850.98	227.92
851.30	227.94
851.61	227.94
851.92	227.96
852.23	227.99
852.55	228.01
852.86	228.01
853.17	228.05
853.49	228.07
853.80	228.12
854.11	228.12
854.42	228.14
854.74	228.12
855.05	228.14
855.36	228.08
855.67	228.04
855.99	228.00
856.30	228.12
856.61	228.11
856.92	228.13
857.23	228.14
857.55	228.13
857.86	228.10
858.17	228.10
858.48	228.07
858.79	228.04
859.11	228.03
859.42	228.04
859.73	227.99
860.04	227.99
860.35	227.97
860.66	227.91
860.98	227.92
861.29	227.93
861.60	227.88
861.91	227.88
862.22	227.87
862.53	227.85
862.84	227.73
863.16	227.72
863.47	227.69
863.78	227.65
864.09	227.66
864.40	227.67
864.71	227.66
865.02	227.63
865.33	227.61
865.64	227.56
865.95	227.54
866.27	227.60
866.58	227.57
866.89	227.58
867.20	227.59
867.51	227.52
867.82	227.50
868.13	227.51
868.44	227.48
868.75	227.48
869.06	227.48
869.37	227.45
869.68	227.43
869.99	227.42
870.30	227.39
870.61	227.35
870.92	227.32
871.23	227.31
871.54	227.32
871.85	227.35
872.16	227.37
872.47	227.34
872.78	227.23
873.09	227.24
873.40	227.17
873.71	227.16
874.02	227.15
874.33	227.12
874.64	227.08
874.95	227.10
875.26	227.07
875.56	227.06
875.87	227.04
876.18	227.03
876.49	227.10
876.80	227.09
877.11	227.06
877.42	227.07
877.73	227.07
878.04	227.05
878.35	226.99
878.66	226.99
878.96	227.01
879.27	227.06
879.58	227.04
879.89	227.07
880.20	227.11
880.51	227.11
880.82	227.12
881.12	227.17
881.43	227.16
881.74	227.17
882.05	227.16
882.36	227.17
882.67	227.21
882.97	227.11
883.28	227.12
883.59	227.12
883.90	227.13
884.21	227.15
884.51	227.17
884.82	227.22
885.13	227.23
885.44	227.22
885.74	227.18
886.05	227.15
886.36	227.17
886.67	227.15
886.98	227.22
887.28	227.23
887.59	227.22
887.90	227.25
888.20	227.24
888.51	227.28
888.82	227.31
889.13	227.31
889.43	227.42
889.74	227.43
890.05	227.45
890.35	227.45
890.66	227.43
890.97	227.42
891.28	227.40
891.58	227.41
891.89	227.42
892.20	227.44
892.50	227.43
892.81	227.46
893.12	227.46
893.42	227.41
893.73	227.41
894.04	227.41
894.34	227.39
894.65	227.41
894.95	227.39
895.26	227.36
895.57	227.39
895.87	227.31
896.18	227.33
896.48	227.35
896.79	227.34
897.10	227.35
897.40	227.34
897.71	227.32
898.01	227.33
898.32	227.34
898.63	227.33
898.93	227.35
899.24	227.28
899.54	227.28
899.85	227.25
900.15	227.26
900.46	227.27
900.76	227.27
901.07	227.28
901.38	227.28
901.68	227.33
901.99	227.27
902.29	227.26
902.60	227.24
902.90	227.23
903.21	227.24
903.51	227.20
903.82	227.24
904.12	227.24
904.43	227.21
904.73	227.19
905.03	227.19
905.34	227.29
905.64	227.29
905.95	227.26
906.25	227.27
906.56	227.29
906.86	227.29
907.17	227.27
907.47	227.24
907.77	227.23
908.08	227.17
908.38	227.18
908.69	227.19
908.99	227.18
909.30	227.18
909.60	227.22
909.90	227.25
910.21	227.24
910.51	227.23
910.81	227.23
911.12	227.25
911.42	227.23
911.73	227.17
912.03	227.18
912.33	227.22
912.64	227.18
912.94	227.11
913.24	227.07
913.55	227.05
913.85	227.06
914.15	227.06
914.46	227.08
914.76	227.09
915.06	227.10
915.37	227.09
915.67	227.06
915.97	226.98
916.27	226.95
916.58	226.93
916.88	226.96
917.18	226.94
917.49	226.97
917.79	227.01
918.09	226.97
918.39	227.01
918.70	226.98
919.00	227.02
919.30	227.11
919.60	227.13
919.91	227.12
920.21	227.13
920.51	227.13
920.81	227.10
921.12	227.10
921.42	227.08
921.72	227.10
922.02	227.13
922.32	227.17
922.63	227.19
922.93	227.26
923.23	227.26
923.53	227.28
923.83	227.23
924.13	227.21
924.44	227.20
924.74	227.22
925.04	227.27
925.34	227.28
925.64	227.20
925.94	227.19
926.24	227.26
926.55	227.24
926.85	227.24
927.15	227.29
927.45	227.25
927.75	227.27
928.05	227.29
928.35	227.25
928.65	227.27
928.95	227.28
929.26	227.24
929.56	227.25
929.86	227.22
930.16	227.21
930.46	227.21
930.76	227.25
931.06	227.21
931.36	227.16
931.66	227.17
931.96	227.20
932.26	227.22
932.56	227.18
932.86	227.19
933.16	227.17
933.46	227.17
933.76	227.15
934.06	227.14
934.36	227.15
934.66	227.16
934.96	227.15
935.26	227.17
935.56	227.17
935.86	227.14
936.16	227.14
936.46	227.13
936.76	227.10
937.06	227.07
937.36	227.07
937.66	227.09
937.96	227.06
938.26	227.02
938.56	227.01
938.86	227.01
939.16	227.02
939.46	227.00
939.76	226.98
940.06	227.02
940.35	227.00
940.65	226.96
940.95	226.98
941.25	226.94
941.55	226.91
941.85	226.93
942.15	226.94
942.45	226.98
942.75	226.98
943.04	227.01
943.34	227.03
943.64	227.02
943.94	227.01
944.24	227.02
944.54	227.05
944.84	227.07
945.13	227.06
945.43	227.05
945.73	227.07
946.03	227.07
946.33	227.06
946.62	227.06
946.92	227.04
947.22	227.04
947.52	227.05
947.82	227.05
948.11	227.00
948.41	227.00
948.71	226.95
949.01	226.97
949.31	226.95
949.60	226.96
949.90	226.97
950.20	226.96
950.50	226.92
950.79	226.92
951.09	226.90
951.39	226.88
951.69	226.86
951.98	226.88
952.28	226.88
952.58	226.87
952.87	226.87
953.17	226.90
953.47	226.87
953.76	226.86
954.06	226.84
954.36	226.81
954.66	226.81
954.95	226.85
955.25	226.83
955.55	226.84
955.84	226.81
956.14	226.81
956.44	226.81
956.73	226.82
957.03	226.81
957.32	226.81
957.62	226.80
957.92	226.82
958.21	226.81
958.51	226.91
958.81	226.90
959.10	226.92
959.40	226.94
959.69	226.95
959.99	226.96
960.29	226.99
960.58	227.01
960.88	227.03
961.17	227.03
961.47	227.07
961.76	227.10
962.06	227.13
962.36	227.12
962.65	227.13
962.95	227.15
963.24	227.15
963.54	227.19
963.83	227.19
964.13	227.19
964.42	227.15
964.72	227.06
965.01	227.08
965.31	227.07
965.60	227.07
965.90	227.12
966.19	227.11
966.49	227.13
966.78	227.13
967.08	227.12
967.37	227.13
967.67	227.13
967.96	227.13
968.26	227.10
968.55	227.13
968.85	227.12
969.14	227.11
969.43	227.13
969.73	227.13
970.02	227.15
970.32	227.15
970.61	227.19
970.91	227.20
971.20	227.21
971.49	227.21
971.79	227.24
972.08	227.20
972.38	227.21
972.67	227.21
972.96	227.24
973.26	227.23
973.55	227.26
973.85	227.25
974.14	227.22
974.43	227.23
974.73	227.20
975.02	227.19
975.31	227.23
975.61	227.19
975.90	227.18
976.19	227.19
976.49	227.20
976.78	227.19
977.07	227.20
977.37	227.20
977.66	227.20
977.95	227.13
978.24	227.13
978.54	227.13
978.83	227.10
979.12	227.11
979.42	227.13
979.71	227.11
980.00	227.13
980.29	227.16
980.59	227.16
980.88	227.19
981.17	227.19
981.46	227.14
981.76	227.17
982.05	227.17
982.34	227.17
982.63	227.17
982.93	227.19
983.22	227.21
983.51	227.20
983.80	227.21
984.09	227.25
984.39	227.22
984.68	227.20
984.97	227.23
985.26	227.19
985.55	227.18
985.85	227.16
986.14	227.14
986.43	227.10
986.72	227.10
987.01	227.08
987.30	227.05
987.59	227.08
987.89	227.08
988.18	227.08
988.47	227.06
988.76	227.05
989.05	227.04
989.34	227.03
989.63	227.06
989.92	227.04
990.22	227.04
990.51	227.05
990.80	227.06
991.09	227.02
991.38	227.04
991.67	227.04
991.96	227.00
992.25	226.98
992.54	226.99
992.83	226.95
993.12	226.97
993.41	227.01
993.70	227.05
993.99	227.01
994.28	227.04
994.58	227.06
994.87	227.04
995.16	227.03
995.45	227.00
995.74	226.96
996.03	226.96
996.32	226.98
996.61	227.02
996.90	227.03
997.19	227.03
997.48	227.03
997.77	226.99
998.06	227.03
998.34	227.04
998.63	227.02
998.92	227.06
999.21	227.04
999.50	227.04
999.79	227.01
1000.08	227.03
1000.37	226.98
1000.66	226.94
1000.95	227.00
1001.24	227.02
1001.53	227.03
1001.82	227.02
1002.11	227.02
1002.40	227.00
1002.68	227.03
1002.97	227.10
1003.26	227.09
1003.55	227.09
1003.84	227.09
1004.13	227.11
1004.42	227.11
1004.71	227.13
1004.99	227.11
1005.28	227.15
1005.57	227.12
1005.86	227.09
1006.15	227.09
1006.44	227.12
1006.72	227.16
1007.01	227.12
1007.30	227.12
1007.59	227.12
1007.88	227.12
1008.17	227.12
1008.45	227.11
1008.74	227.05
1009.03	227.01
1009.32	227.03
1009.60	227.01
1009.89	227.00
1010.18	226.96
1010.47	226.97
1010.76	226.96
1011.04	226.96
1011.33	227.00
1011.62	227.06
1011.91	227.09
1012.19	227.07
1012.48	227.04
1012.77	227.04
1013.05	227.10
1013.34	227.10
1013.63	227.09
1013.92	227.08
1014.20	227.08
1014.49	227.07
1014.78	227.07
1015.06	227.02
1015.35	226.99
1015.64	227.03
1015.92	227.02
1016.21	227.03
1016.50	227.01
1016.78	227.01
1017.07	227.04
1017.36	226.99
1017.64	226.95
1017.93	226.95
1018.22	226.95
1018.50	227.00
1018.79	226.95
1019.08	226.88
1019.36	226.89
1019.65	226.89
1019.93	226.92
1020.22	226.91
1020.51	226.95
1020.79	226.92
1021.08	226.64
1021.36	227.42
1021.65	226.27
1021.94	226.90
1022.22	227.36
1022.51	227.06
1022.79	227.06
1023.08	226.57
1023.36	227.91
1023.65	226.26
>>>>>End Processed Spectral Data<<<<<
