SpectraSuite Data File
++++++++++++++++++++++++++++++++++++
Date: Fri Feb 01 15:37:09 EST 2013
User: group
Dark Spectrum Present: No
Reference Spectrum Present: No
Number of Sampled Component Spectra: 1
Spectrometers: USB2E7196
Integration Time (usec): 35000 (USB2E7196)
Spectra Averaged: 100 (USB2E7196)
Boxcar Smoothing: 10 (USB2E7196)
Correct for Electrical Dark: No (USB2E7196)
Strobe/Lamp Enabled: No (USB2E7196)
Correct for Detector Non-linearity: No (USB2E7196)
Correct for Stray Light: No (USB2E7196)
Number of Pixels in Processed Spectrum: 2048
>>>>>Begin Processed Spectral Data<<<<<
339.09	0.00
339.48	214.66
339.86	216.18
340.24	217.89
340.63	219.20
341.01	222.30
341.39	221.83
341.78	223.61
342.16	224.59
342.54	224.52
342.93	213.31
343.31	224.09
343.69	224.64
344.07	225.10
344.46	225.52
344.84	225.88
345.22	226.10
345.60	226.35
345.99	226.50
346.37	226.64
346.75	226.74
347.13	226.79
347.52	226.83
347.90	226.90
348.28	226.91
348.66	226.96
349.05	226.94
349.43	226.97
349.81	226.98
350.19	227.02
350.57	227.06
350.96	227.13
351.34	227.16
351.72	227.23
352.10	227.32
352.48	227.38
352.87	227.43
353.25	227.51
353.63	227.56
354.01	227.64
354.39	227.68
354.77	227.79
355.15	227.89
355.54	227.96
355.92	227.98
356.30	228.04
356.68	228.16
357.06	228.27
357.44	228.29
357.82	228.39
358.20	228.47
358.58	228.52
358.97	228.60
359.35	228.71
359.73	228.81
360.11	228.87
360.49	228.91
360.87	228.99
361.25	229.04
361.63	229.11
362.01	229.15
362.39	229.18
362.77	229.22
363.15	229.26
363.53	229.30
363.91	229.34
364.29	229.38
364.67	229.33
365.05	229.33
365.43	229.40
365.81	229.41
366.19	229.44
366.57	229.46
366.95	229.45
367.33	229.42
367.71	229.42
368.09	229.47
368.47	229.46
368.85	229.43
369.23	229.44
369.61	229.38
369.99	229.41
370.37	229.39
370.75	229.37
371.13	229.30
371.51	229.25
371.89	229.21
372.27	229.17
372.65	229.11
373.03	229.08
373.41	229.00
373.78	228.97
374.16	228.88
374.54	228.79
374.92	228.72
375.30	228.66
375.68	228.55
376.06	228.46
376.44	228.41
376.82	228.36
377.19	228.25
377.57	228.18
377.95	228.09
378.33	228.01
378.71	227.89
379.09	227.83
379.47	227.76
379.84	227.69
380.22	227.60
380.60	227.50
380.98	227.40
381.36	227.32
381.73	227.22
382.11	227.17
382.49	227.10
382.87	227.03
383.25	226.96
383.62	227.02
384.00	226.95
384.38	226.85
384.76	226.81
385.13	226.81
385.51	226.78
385.89	226.68
386.27	226.64
386.64	226.61
387.02	226.57
387.40	226.51
387.78	226.46
388.15	226.44
388.53	226.42
388.91	226.41
389.29	226.39
389.66	226.33
390.04	226.29
390.42	226.33
390.79	226.28
391.17	226.27
391.55	226.13
391.92	226.10
392.30	226.15
392.68	226.13
393.05	226.08
393.43	226.07
393.81	226.09
394.18	226.09
394.56	226.10
394.94	226.13
395.31	226.17
395.69	226.19
396.06	226.22
396.44	226.26
396.82	226.27
397.19	226.36
397.57	226.42
397.95	226.52
398.32	226.52
398.70	226.59
399.07	226.68
399.45	226.77
399.82	226.85
400.20	226.93
400.58	226.99
400.95	227.07
401.33	227.17
401.70	227.31
402.08	227.43
402.45	227.53
402.83	227.64
403.20	227.73
403.58	227.85
403.95	227.97
404.33	228.11
404.71	228.25
405.08	228.43
405.46	228.59
405.83	228.70
406.21	228.85
406.58	229.03
406.96	229.18
407.33	229.33
407.70	229.52
408.08	229.76
408.45	229.99
408.83	230.25
409.20	230.48
409.58	230.65
409.95	230.93
410.33	231.21
410.70	231.45
411.08	231.78
411.45	232.09
411.82	232.43
412.20	232.78
412.57	233.23
412.95	233.53
413.32	233.93
413.69	234.34
414.07	234.81
414.44	235.29
414.82	235.78
415.19	236.33
415.56	236.88
415.94	237.44
416.31	238.10
416.68	238.69
417.06	239.41
417.43	240.09
417.81	240.86
418.18	241.64
418.55	242.49
418.93	243.33
419.30	244.24
419.67	245.17
420.04	246.09
420.42	247.06
420.79	248.23
421.16	249.38
421.54	250.60
421.91	251.82
422.28	253.05
422.66	254.37
423.03	255.69
423.40	257.02
423.77	258.44
424.15	259.84
424.52	261.34
424.89	262.92
425.26	264.48
425.64	265.87
426.01	267.43
426.38	269.08
426.75	270.73
427.13	272.45
427.50	274.26
427.87	276.19
428.24	278.02
428.61	279.78
428.99	281.74
429.36	283.79
429.73	285.85
430.10	287.90
430.47	289.98
430.85	292.09
431.22	294.34
431.59	296.71
431.96	298.95
432.33	301.45
432.70	303.81
433.08	306.66
433.45	309.35
433.82	311.98
434.19	314.88
434.56	317.75
434.93	320.40
435.30	323.03
435.68	325.87
436.05	328.72
436.42	331.49
436.79	333.99
437.16	336.71
437.53	339.53
437.90	342.31
438.27	345.05
438.64	347.91
439.01	350.51
439.38	352.74
439.75	354.90
440.13	357.40
440.50	359.79
440.87	361.62
441.24	363.55
441.61	365.71
441.98	367.18
442.35	368.94
442.72	370.84
443.09	372.65
443.46	373.63
443.83	374.22
444.20	374.75
444.57	375.56
444.94	375.83
445.31	376.16
445.68	376.51
446.05	376.58
446.42	376.16
446.79	375.76
447.16	375.29
447.53	374.98
447.90	373.82
448.27	372.63
448.64	371.03
449.01	369.87
449.37	367.85
449.74	365.98
450.11	363.76
450.48	361.24
450.85	358.72
451.22	356.62
451.59	354.64
451.96	352.70
452.33	350.13
452.70	347.79
453.07	344.93
453.43	342.05
453.80	339.26
454.17	336.58
454.54	333.98
454.91	331.27
455.28	328.57
455.65	326.08
456.02	323.64
456.38	321.53
456.75	318.89
457.12	316.68
457.49	314.47
457.86	312.30
458.23	310.47
458.59	308.40
458.96	306.30
459.33	304.41
459.70	302.58
460.07	301.04
460.43	299.33
460.80	297.75
461.17	296.32
461.54	294.85
461.91	293.47
462.27	292.07
462.64	290.81
463.01	289.46
463.38	288.14
463.74	286.78
464.11	285.60
464.48	284.58
464.85	283.50
465.21	282.58
465.58	281.61
465.95	280.51
466.32	279.60
466.68	278.70
467.05	277.80
467.42	276.88
467.78	275.94
468.15	275.08
468.52	274.43
468.88	273.55
469.25	272.73
469.62	272.10
469.98	271.41
470.35	270.78
470.72	270.19
471.08	269.55
471.45	269.00
471.82	268.42
472.18	267.78
472.55	267.31
472.92	266.80
473.28	266.37
473.65	265.91
474.02	265.49
474.38	265.14
474.75	264.82
475.11	264.46
475.48	264.24
475.85	264.01
476.21	263.75
476.58	263.56
476.94	263.42
477.31	263.23
477.67	263.06
478.04	262.94
478.41	262.85
478.77	262.87
479.14	262.81
479.50	262.84
479.87	262.95
480.23	262.99
480.60	263.10
480.96	263.17
481.33	263.36
481.69	263.50
482.06	263.68
482.42	263.86
482.79	264.13
483.15	264.43
483.52	264.80
483.88	265.17
484.25	265.60
484.61	266.02
484.98	266.49
485.34	267.04
485.71	267.63
486.07	268.23
486.44	268.83
486.80	269.52
487.17	270.25
487.53	271.02
487.90	271.91
488.26	272.82
488.62	273.83
488.99	274.82
489.35	275.89
489.72	277.03
490.08	278.23
490.44	279.46
490.81	280.77
491.17	282.10
491.54	283.56
491.90	285.08
492.26	286.74
492.63	288.43
492.99	290.20
493.36	292.12
493.72	294.19
494.08	296.28
494.45	298.51
494.81	300.84
495.17	303.27
495.54	305.85
495.90	308.50
496.26	311.31
496.63	314.26
496.99	317.36
497.35	320.60
497.72	324.04
498.08	327.53
498.44	331.23
498.80	335.18
499.17	339.22
499.53	343.40
499.89	347.74
500.26	352.30
500.62	356.99
500.98	361.95
501.34	367.04
501.71	372.34
502.07	377.80
502.43	383.46
502.79	389.29
503.16	395.33
503.52	401.67
503.88	408.09
504.24	414.78
504.60	421.71
504.97	428.89
505.33	436.20
505.69	443.96
506.05	451.77
506.41	459.68
506.78	467.79
507.14	476.26
507.50	485.03
507.86	494.06
508.22	503.22
508.59	512.42
508.95	521.99
509.31	531.83
509.67	541.91
510.03	552.22
510.39	562.81
510.75	573.62
511.12	584.51
511.48	595.84
511.84	607.26
512.20	618.77
512.56	630.71
512.92	642.96
513.28	655.34
513.64	667.74
514.00	680.46
514.37	693.47
514.73	706.53
515.09	719.53
515.45	732.83
515.81	746.47
516.17	760.50
516.53	774.59
516.89	788.71
517.25	802.96
517.61	817.39
517.97	831.82
518.33	846.22
518.69	861.08
519.05	876.00
519.41	891.16
519.77	906.71
520.13	922.12
520.49	937.49
520.85	952.79
521.21	968.64
521.57	984.88
521.93	1000.64
522.29	1017.01
522.65	1033.25
523.01	1049.47
523.37	1065.40
523.73	1081.55
524.09	1097.72
524.45	1114.12
524.81	1130.78
525.17	1147.63
525.53	1164.57
525.89	1181.54
526.25	1198.28
526.61	1214.64
526.97	1231.45
527.33	1247.88
527.68	1264.50
528.04	1280.94
528.40	1297.61
528.76	1314.56
529.12	1331.22
529.48	1348.14
529.84	1364.21
530.20	1380.94
530.56	1397.90
530.91	1415.49
531.27	1432.27
531.63	1448.77
531.99	1465.42
532.35	1481.41
532.71	1497.30
533.07	1513.56
533.42	1529.48
533.78	1545.60
534.14	1561.97
534.50	1577.15
534.86	1592.96
535.21	1608.19
535.57	1624.16
535.93	1639.68
536.29	1654.57
536.65	1669.60
537.00	1684.46
537.36	1699.73
537.72	1714.29
538.08	1728.80
538.44	1742.55
538.79	1756.35
539.15	1770.04
539.51	1783.71
539.87	1797.98
540.22	1811.71
540.58	1825.47
540.94	1838.77
541.29	1851.72
541.65	1864.44
542.01	1877.87
542.37	1890.32
542.72	1902.79
543.08	1914.55
543.44	1926.83
543.79	1938.00
544.15	1948.96
544.51	1960.53
544.87	1971.65
545.22	1982.40
545.58	1992.58
545.94	2002.35
546.29	2012.33
546.65	2022.07
547.01	2031.34
547.36	2040.05
547.72	2048.52
548.07	2056.43
548.43	2064.65
548.79	2072.61
549.14	2080.14
549.50	2087.61
549.86	2095.30
550.21	2102.51
550.57	2109.68
550.92	2116.50
551.28	2123.69
551.64	2130.80
551.99	2137.19
552.35	2143.17
552.70	2149.22
553.06	2155.30
553.41	2161.59
553.77	2167.57
554.13	2173.79
554.48	2179.90
554.84	2185.42
555.19	2190.71
555.55	2195.80
555.90	2200.34
556.26	2205.15
556.61	2209.92
556.97	2214.03
557.32	2218.25
557.68	2222.44
558.03	2226.83
558.39	2230.55
558.74	2235.06
559.10	2238.86
559.45	2242.49
559.81	2246.89
560.16	2250.80
560.52	2254.00
560.87	2257.46
561.23	2260.14
561.58	2263.08
561.94	2265.68
562.29	2268.07
562.64	2270.80
563.00	2273.51
563.35	2276.88
563.71	2280.12
564.06	2283.21
564.42	2286.03
564.77	2288.40
565.12	2290.74
565.48	2292.55
565.83	2294.36
566.19	2295.57
566.54	2296.55
566.89	2297.75
567.25	2298.35
567.60	2299.64
567.96	2301.10
568.31	2301.89
568.66	2303.01
569.02	2303.47
569.37	2303.75
569.72	2304.47
570.08	2304.54
570.43	2304.58
570.78	2303.95
571.14	2302.34
571.49	2301.03
571.84	2300.73
572.20	2299.54
572.55	2298.36
572.90	2296.75
573.26	2295.31
573.61	2293.79
573.96	2291.94
574.31	2288.78
574.67	2285.63
575.02	2282.00
575.37	2278.77
575.72	2274.91
576.08	2271.60
576.43	2268.22
576.78	2264.42
577.13	2261.40
577.49	2258.20
577.84	2254.51
578.19	2250.76
578.54	2247.14
578.90	2242.76
579.25	2237.10
579.60	2232.21
579.95	2227.12
580.30	2221.95
580.66	2216.60
581.01	2211.51
581.36	2206.61
581.71	2202.54
582.06	2198.13
582.42	2193.69
582.77	2188.46
583.12	2183.83
583.47	2178.85
583.82	2173.75
584.17	2168.56
584.53	2162.92
584.88	2157.27
585.23	2151.48
585.58	2145.98
585.93	2140.46
586.28	2135.77
586.63	2130.77
586.98	2125.57
587.34	2120.95
587.69	2116.20
588.04	2110.96
588.39	2105.25
588.74	2098.62
589.09	2092.35
589.44	2085.51
589.79	2079.47
590.14	2073.83
590.49	2067.32
590.84	2061.07
591.19	2055.06
591.54	2048.56
591.89	2040.96
592.25	2034.20
592.60	2026.99
592.95	2019.29
593.30	2011.89
593.65	2004.28
594.00	1997.05
594.35	1989.77
594.70	1981.73
595.05	1974.34
595.40	1967.03
595.75	1959.48
596.10	1953.14
596.45	1946.41
596.80	1940.24
597.15	1933.41
597.50	1926.23
597.85	1919.80
598.19	1913.08
598.54	1905.98
598.89	1899.33
599.24	1893.66
599.59	1886.83
599.94	1880.64
600.29	1874.31
600.64	1867.70
600.99	1860.19
601.34	1853.29
601.69	1846.33
602.04	1839.29
602.39	1832.04
602.74	1825.16
603.08	1818.34
603.43	1811.62
603.78	1804.28
604.13	1796.93
604.48	1789.65
604.83	1782.63
605.18	1775.50
605.53	1767.37
605.87	1759.43
606.22	1752.21
606.57	1744.07
606.92	1736.87
607.27	1729.63
607.62	1722.74
607.96	1715.37
608.31	1708.69
608.66	1701.19
609.01	1693.63
609.36	1686.10
609.70	1678.06
610.05	1669.84
610.40	1662.11
610.75	1653.92
611.10	1646.43
611.44	1638.10
611.79	1630.12
612.14	1621.45
612.49	1612.42
612.83	1604.14
613.18	1595.93
613.53	1587.71
613.88	1579.20
614.22	1570.87
614.57	1562.28
614.92	1554.21
615.27	1546.73
615.61	1538.36
615.96	1530.29
616.31	1522.65
616.65	1515.33
617.00	1507.82
617.35	1500.36
617.70	1492.07
618.04	1483.52
618.39	1475.16
618.74	1467.50
619.08	1459.14
619.43	1451.65
619.78	1444.75
620.12	1437.60
620.47	1430.07
620.82	1422.01
621.16	1414.65
621.51	1407.01
621.85	1399.38
622.20	1390.78
622.55	1382.52
622.89	1374.79
623.24	1367.19
623.59	1359.83
623.93	1352.22
624.28	1344.91
624.62	1337.42
624.97	1330.23
625.32	1323.58
625.66	1316.38
626.01	1309.18
626.35	1301.83
626.70	1294.11
627.04	1286.29
627.39	1278.50
627.73	1271.13
628.08	1264.14
628.43	1256.83
628.77	1249.36
629.12	1241.81
629.46	1234.73
629.81	1227.27
630.15	1220.01
630.50	1212.70
630.84	1204.50
631.19	1196.58
631.53	1189.11
631.88	1181.51
632.22	1173.92
632.57	1166.54
632.91	1159.13
633.26	1151.72
633.60	1144.41
633.95	1137.36
634.29	1130.33
634.64	1123.66
634.98	1116.24
635.32	1109.13
635.67	1102.58
636.01	1096.01
636.36	1089.26
636.70	1082.76
637.05	1076.24
637.39	1069.83
637.73	1063.23
638.08	1057.32
638.42	1051.35
638.77	1044.88
639.11	1038.32
639.45	1031.91
639.80	1025.28
640.14	1018.90
640.49	1012.45
640.83	1006.20
641.17	999.84
641.52	993.59
641.86	987.18
642.20	981.41
642.55	975.20
642.89	968.63
643.23	962.09
643.58	956.25
643.92	950.06
644.26	943.86
644.61	937.83
644.95	931.76
645.29	925.22
645.64	918.45
645.98	912.13
646.32	906.28
646.66	900.25
647.01	894.44
647.35	888.73
647.69	882.93
648.04	877.29
648.38	871.63
648.72	865.52
649.06	859.42
649.41	853.57
649.75	847.54
650.09	841.65
650.43	835.85
650.78	829.77
651.12	823.80
651.46	818.08
651.80	812.29
652.14	806.92
652.49	801.50
652.83	796.35
653.17	790.64
653.51	784.89
653.85	779.58
654.20	773.96
654.54	767.92
654.88	762.11
655.22	756.22
655.56	750.52
655.90	745.16
656.25	739.88
656.59	734.47
656.93	729.40
657.27	724.20
657.61	718.76
657.95	713.67
658.29	708.65
658.64	703.44
658.98	698.16
659.32	692.70
659.66	687.55
660.00	682.24
660.34	677.38
660.68	672.50
661.02	667.43
661.36	662.70
661.70	658.21
662.05	653.94
662.39	649.61
662.73	645.07
663.07	640.68
663.41	636.28
663.75	631.80
664.09	627.22
664.43	622.84
664.77	618.73
665.11	614.39
665.45	610.24
665.79	606.13
666.13	602.01
666.47	597.97
666.81	593.74
667.15	589.60
667.49	585.63
667.83	581.85
668.17	577.92
668.51	573.83
668.85	569.78
669.19	565.85
669.53	562.02
669.87	558.17
670.21	554.47
670.55	550.80
670.89	547.36
671.23	543.90
671.57	540.42
671.91	536.96
672.25	533.48
672.58	529.95
672.92	526.63
673.26	523.45
673.60	520.29
673.94	517.19
674.28	514.32
674.62	511.39
674.96	508.26
675.30	505.34
675.64	502.48
675.97	499.75
676.31	496.90
676.65	493.97
676.99	491.29
677.33	488.46
677.67	485.66
678.01	482.60
678.34	479.58
678.68	476.68
679.02	473.81
679.36	471.08
679.70	468.41
680.04	465.62
680.37	462.78
680.71	460.02
681.05	457.41
681.39	454.71
681.73	452.08
682.06	449.61
682.40	447.09
682.74	444.55
683.08	442.04
683.42	439.45
683.75	436.95
684.09	434.41
684.43	431.88
684.77	429.45
685.10	427.21
685.44	425.00
685.78	422.72
686.12	420.54
686.45	418.29
686.79	415.98
687.13	413.83
687.46	411.64
687.80	409.44
688.14	407.28
688.48	405.28
688.81	403.05
689.15	400.85
689.49	398.74
689.82	396.65
690.16	394.54
690.50	392.64
690.83	390.70
691.17	388.69
691.51	386.82
691.84	384.96
692.18	382.95
692.52	380.91
692.85	379.02
693.19	377.06
693.52	375.22
693.86	373.40
694.20	371.59
694.53	369.79
694.87	367.97
695.21	366.19
695.54	364.31
695.88	362.59
696.21	360.91
696.55	359.24
696.88	357.53
697.22	355.88
697.56	354.23
697.89	352.54
698.23	350.94
698.56	349.34
698.90	347.73
699.23	346.11
699.57	344.60
699.90	343.10
700.24	341.62
700.58	340.08
700.91	338.60
701.25	337.13
701.58	335.79
701.92	334.44
702.25	333.06
702.59	331.71
702.92	330.40
703.26	329.08
703.59	327.77
703.93	326.62
704.26	325.41
704.60	324.15
704.93	322.93
705.26	321.67
705.60	320.49
705.93	319.31
706.27	318.29
706.60	317.19
706.94	316.08
707.27	314.94
707.61	313.87
707.94	312.85
708.27	311.79
708.61	310.69
708.94	309.66
709.28	308.66
709.61	307.71
709.94	306.74
710.28	305.72
710.61	304.73
710.95	303.64
711.28	302.68
711.61	301.70
711.95	300.76
712.28	299.85
712.61	298.88
712.95	297.98
713.28	297.10
713.61	296.23
713.95	295.33
714.28	294.51
714.61	293.65
714.95	292.77
715.28	291.89
715.61	291.06
715.95	290.24
716.28	289.40
716.61	288.55
716.95	287.76
717.28	287.03
717.61	286.24
717.94	285.52
718.28	284.72
718.61	284.00
718.94	283.31
719.27	282.66
719.61	282.06
719.94	281.38
720.27	280.66
720.60	279.98
720.94	279.36
721.27	278.77
721.60	278.20
721.93	277.63
722.27	277.13
722.60	276.55
722.93	275.97
723.26	275.43
723.59	274.86
723.93	274.31
724.26	273.78
724.59	273.23
724.92	272.71
725.25	272.25
725.59	271.75
725.92	271.29
726.25	270.74
726.58	270.20
726.91	269.69
727.24	269.23
727.57	268.80
727.91	268.31
728.24	267.84
728.57	267.34
728.90	266.89
729.23	266.36
729.56	265.93
729.89	265.46
730.22	264.97
730.55	264.51
730.89	264.04
731.22	263.59
731.55	263.18
731.88	262.71
732.21	262.27
732.54	261.81
732.87	261.39
733.20	261.02
733.53	260.62
733.86	260.26
734.19	259.86
734.52	259.48
734.85	259.21
735.18	258.77
735.51	258.41
735.84	258.03
736.17	257.67
736.50	257.29
736.83	257.08
737.16	256.73
737.49	256.38
737.82	256.05
738.15	255.72
738.48	255.38
738.81	255.09
739.14	254.78
739.47	254.45
739.80	254.12
740.13	253.79
740.46	253.46
740.79	253.12
741.12	252.80
741.45	252.47
741.78	252.09
742.11	251.84
742.44	251.53
742.77	251.27
743.10	250.99
743.43	250.68
743.75	250.28
744.08	250.17
744.41	249.91
744.74	249.63
745.07	249.34
745.40	249.11
745.73	248.86
746.06	248.57
746.39	248.32
746.71	248.06
747.04	247.76
747.37	247.49
747.70	247.24
748.03	247.01
748.36	246.75
748.68	246.50
749.01	246.24
749.34	245.98
749.67	245.71
750.00	245.46
750.33	245.29
750.65	245.08
750.98	244.72
751.31	244.51
751.64	244.31
751.97	244.13
752.29	243.85
752.62	243.58
752.95	243.38
753.28	243.19
753.60	242.97
753.93	242.84
754.26	242.66
754.59	242.46
754.91	242.26
755.24	242.09
755.57	241.90
755.90	241.67
756.22	241.53
756.55	241.33
756.88	241.13
757.20	240.89
757.53	240.69
757.86	240.52
758.19	240.36
758.51	240.17
758.84	239.96
759.17	239.83
759.49	239.71
759.82	239.55
760.15	239.38
760.47	239.24
760.80	239.05
761.13	238.91
761.45	238.74
761.78	238.59
762.11	238.41
762.43	238.27
762.76	238.13
763.08	237.98
763.41	237.86
763.74	237.75
764.06	237.59
764.39	237.44
764.71	237.29
765.04	237.19
765.37	237.04
765.69	236.93
766.02	236.79
766.34	236.65
766.67	236.52
767.00	236.42
767.32	236.36
767.65	236.34
767.97	236.20
768.30	236.08
768.62	235.95
768.95	235.91
769.27	235.82
769.60	235.75
769.92	235.63
770.25	235.51
770.57	235.35
770.90	235.28
771.22	235.16
771.55	235.07
771.87	234.93
772.20	234.85
772.52	234.84
772.85	234.88
773.17	234.76
773.50	234.66
773.82	234.52
774.15	234.36
774.47	234.20
774.80	234.14
775.12	234.05
775.45	234.00
775.77	233.90
776.09	233.81
776.42	233.71
776.74	233.68
777.07	233.59
777.39	233.55
777.72	233.49
778.04	233.45
778.36	233.37
778.69	233.34
779.01	233.26
779.33	233.10
779.66	232.92
779.98	232.87
780.31	232.81
780.63	232.82
780.95	232.77
781.28	232.69
781.60	232.63
781.92	232.58
782.25	232.52
782.57	232.45
782.89	232.37
783.22	232.33
783.54	232.23
783.86	232.20
784.19	232.13
784.51	232.10
784.83	232.06
785.16	232.03
785.48	231.96
785.80	231.93
786.12	231.89
786.45	231.85
786.77	231.81
787.09	231.79
787.42	231.72
787.74	231.72
788.06	231.67
788.38	231.61
788.71	231.56
789.03	231.51
789.35	231.47
789.67	231.43
789.99	231.38
790.32	231.32
790.64	231.29
790.96	231.34
791.28	231.26
791.61	231.18
791.93	231.14
792.25	231.09
792.57	231.10
792.89	231.05
793.21	231.03
793.54	230.96
793.86	230.87
794.18	230.83
794.50	230.72
794.82	230.72
795.14	230.70
795.47	230.68
795.79	230.64
796.11	230.60
796.43	230.56
796.75	230.52
797.07	230.49
797.39	230.42
797.71	230.33
798.04	230.32
798.36	230.31
798.68	230.25
799.00	230.24
799.32	230.18
799.64	230.14
799.96	230.11
800.28	230.13
800.60	230.15
800.92	230.13
801.24	230.10
801.56	230.07
801.89	230.03
802.21	230.00
802.53	229.96
802.85	229.93
803.17	229.92
803.49	229.87
803.81	229.84
804.13	229.81
804.45	229.77
804.77	229.74
805.09	229.71
805.41	229.64
805.73	229.58
806.05	229.53
806.37	229.52
806.69	229.48
807.01	229.45
807.33	229.41
807.65	229.35
807.97	229.36
808.28	229.29
808.60	229.28
808.92	229.22
809.24	229.25
809.56	229.20
809.88	229.16
810.20	229.18
810.52	229.19
810.84	229.16
811.16	229.10
811.48	229.07
811.80	229.08
812.12	229.11
812.43	229.13
812.75	229.09
813.07	229.05
813.39	229.01
813.71	228.95
814.03	228.90
814.35	228.90
814.67	228.85
814.98	228.84
815.30	228.80
815.62	228.81
815.94	228.71
816.26	228.75
816.58	228.73
816.89	228.73
817.21	228.66
817.53	228.65
817.85	228.67
818.17	228.65
818.48	228.62
818.80	228.58
819.12	228.51
819.44	228.48
819.76	228.46
820.07	228.45
820.39	228.44
820.71	228.47
821.03	228.47
821.34	228.46
821.66	228.46
821.98	228.48
822.30	228.49
822.61	228.57
822.93	228.48
823.25	228.45
823.57	228.42
823.88	228.45
824.20	228.46
824.52	228.43
824.83	228.43
825.15	228.41
825.47	228.43
825.79	228.46
826.10	228.44
826.42	228.46
826.74	228.47
827.05	228.45
827.37	228.41
827.69	228.39
828.00	228.37
828.32	228.35
828.64	228.33
828.95	228.38
829.27	228.33
829.58	228.35
829.90	228.38
830.22	228.38
830.53	228.32
830.85	228.28
831.17	228.25
831.48	228.24
831.80	228.23
832.11	228.24
832.43	228.20
832.75	228.21
833.06	228.25
833.38	228.22
833.69	228.23
834.01	228.25
834.32	228.24
834.64	228.26
834.96	228.23
835.27	228.21
835.59	228.17
835.90	228.12
836.22	228.08
836.53	228.05
836.85	228.00
837.16	228.12
837.48	228.11
837.79	228.15
838.11	228.16
838.42	228.13
838.74	228.11
839.05	228.10
839.37	228.07
839.68	227.99
840.00	227.98
840.31	227.98
840.63	227.96
840.94	227.95
841.26	227.90
841.57	227.89
841.88	227.86
842.20	227.83
842.51	227.81
842.83	227.85
843.14	227.92
843.46	227.91
843.77	227.86
844.08	227.84
844.40	227.78
844.71	227.74
845.03	227.71
845.34	227.73
845.65	227.72
845.97	227.69
846.28	227.69
846.60	227.70
846.91	227.68
847.22	227.66
847.54	227.66
847.85	227.69
848.16	227.65
848.48	227.66
848.79	227.66
849.10	227.67
849.42	227.66
849.73	227.55
850.04	227.52
850.36	227.49
850.67	227.50
850.98	227.52
851.30	227.53
851.61	227.52
851.92	227.48
852.23	227.47
852.55	227.48
852.86	227.48
853.17	227.44
853.49	227.45
853.80	227.45
854.11	227.45
854.42	227.45
854.74	227.47
855.05	227.46
855.36	227.45
855.67	227.45
855.99	227.41
856.30	227.51
856.61	227.53
856.92	227.48
857.23	227.43
857.55	227.43
857.86	227.42
858.17	227.42
858.48	227.36
858.79	227.39
859.11	227.38
859.42	227.39
859.73	227.39
860.04	227.37
860.35	227.36
860.66	227.31
860.98	227.29
861.29	227.26
861.60	227.24
861.91	227.22
862.22	227.20
862.53	227.21
862.84	227.11
863.16	227.13
863.47	227.14
863.78	227.16
864.09	227.14
864.40	227.16
864.71	227.17
865.02	227.22
865.33	227.18
865.64	227.18
865.95	227.15
866.27	227.21
866.58	227.16
866.89	227.13
867.20	227.14
867.51	227.15
867.82	227.14
868.13	227.17
868.44	227.16
868.75	227.19
869.06	227.20
869.37	227.21
869.68	227.18
869.99	227.20
870.30	227.22
870.61	227.25
870.92	227.20
871.23	227.20
871.54	227.21
871.85	227.26
872.16	227.27
872.47	227.28
872.78	227.22
873.09	227.24
873.40	227.27
873.71	227.28
874.02	227.29
874.33	227.29
874.64	227.28
874.95	227.29
875.26	227.26
875.56	227.26
875.87	227.27
876.18	227.28
876.49	227.35
876.80	227.34
877.11	227.31
877.42	227.35
877.73	227.35
878.04	227.34
878.35	227.35
878.66	227.33
878.96	227.32
879.27	227.32
879.58	227.31
879.89	227.34
880.20	227.37
880.51	227.31
880.82	227.33
881.12	227.34
881.43	227.30
881.74	227.29
882.05	227.29
882.36	227.27
882.67	227.29
882.97	227.20
883.28	227.19
883.59	227.19
883.90	227.17
884.21	227.16
884.51	227.15
884.82	227.10
885.13	227.12
885.44	227.13
885.74	227.11
886.05	227.11
886.36	227.09
886.67	227.04
886.98	227.12
887.28	227.10
887.59	227.10
887.90	227.10
888.20	227.09
888.51	227.08
888.82	227.08
889.13	227.07
889.43	227.14
889.74	227.11
890.05	227.08
890.35	227.07
890.66	227.04
890.97	227.03
891.28	227.04
891.58	227.03
891.89	227.03
892.20	227.01
892.50	227.01
892.81	226.98
893.12	226.97
893.42	226.91
893.73	226.93
894.04	226.93
894.34	226.98
894.65	226.97
894.95	226.97
895.26	226.99
895.57	227.04
895.87	226.93
896.18	226.96
896.48	226.97
896.79	226.97
897.10	227.00
897.40	226.97
897.71	226.94
898.01	226.91
898.32	226.93
898.63	226.95
898.93	226.92
899.24	226.93
899.54	226.90
899.85	226.88
900.15	226.88
900.46	226.86
900.76	226.82
901.07	226.82
901.38	226.79
901.68	226.79
901.99	226.71
902.29	226.72
902.60	226.69
902.90	226.67
903.21	226.67
903.51	226.67
903.82	226.70
904.12	226.68
904.43	226.70
904.73	226.67
905.03	226.67
905.34	226.76
905.64	226.77
905.95	226.78
906.25	226.79
906.56	226.76
906.86	226.76
907.17	226.75
907.47	226.74
907.77	226.72
908.08	226.68
908.38	226.76
908.69	226.76
908.99	226.76
909.30	226.83
909.60	226.84
909.90	226.81
910.21	226.80
910.51	226.82
910.81	226.87
911.12	226.89
911.42	226.89
911.73	226.78
912.03	226.77
912.33	226.78
912.64	226.82
912.94	226.80
913.24	226.78
913.55	226.81
913.85	226.83
914.15	226.88
914.46	226.92
914.76	226.89
915.06	226.91
915.37	226.93
915.67	226.90
915.97	226.90
916.27	226.90
916.58	226.92
916.88	226.91
917.18	226.89
917.49	226.95
917.79	226.95
918.09	226.98
918.39	227.01
918.70	227.05
919.00	227.03
919.30	227.09
919.60	227.10
919.91	227.06
920.21	227.10
920.51	227.09
920.81	227.06
921.12	227.04
921.42	227.04
921.72	226.99
922.02	227.01
922.32	227.01
922.63	227.02
922.93	227.04
923.23	227.03
923.53	227.03
923.83	226.97
924.13	226.97
924.44	226.95
924.74	226.95
925.04	226.95
925.34	226.94
925.64	226.93
925.94	226.91
926.24	226.93
926.55	226.87
926.85	226.90
927.15	226.90
927.45	226.90
927.75	226.89
928.05	226.91
928.35	226.87
928.65	226.87
928.95	226.87
929.26	226.86
929.56	226.88
929.86	226.90
930.16	226.89
930.46	226.90
930.76	226.93
931.06	226.93
931.36	226.87
931.66	226.88
931.96	226.89
932.26	226.87
932.56	226.89
932.86	226.93
933.16	226.90
933.46	226.87
933.76	226.85
934.06	226.85
934.36	226.90
934.66	226.92
934.96	226.91
935.26	226.94
935.56	226.97
935.86	226.94
936.16	226.88
936.46	226.87
936.76	226.86
937.06	226.82
937.36	226.80
937.66	226.82
937.96	226.81
938.26	226.75
938.56	226.75
938.86	226.73
939.16	226.73
939.46	226.74
939.76	226.75
940.06	226.76
940.35	226.76
940.65	226.70
940.95	226.72
941.25	226.70
941.55	226.67
941.85	226.66
942.15	226.68
942.45	226.72
942.75	226.74
943.04	226.75
943.34	226.79
943.64	226.79
943.94	226.80
944.24	226.82
944.54	226.84
944.84	226.84
945.13	226.82
945.43	226.80
945.73	226.81
946.03	226.79
946.33	226.78
946.62	226.78
946.92	226.78
947.22	226.79
947.52	226.79
947.82	226.80
948.11	226.76
948.41	226.76
948.71	226.73
949.01	226.74
949.31	226.73
949.60	226.74
949.90	226.74
950.20	226.71
950.50	226.71
950.79	226.73
951.09	226.77
951.39	226.77
951.69	226.78
951.98	226.81
952.28	226.84
952.58	226.84
952.87	226.87
953.17	226.87
953.47	226.85
953.76	226.85
954.06	226.83
954.36	226.83
954.66	226.83
954.95	226.84
955.25	226.84
955.55	226.88
955.84	226.86
956.14	226.86
956.44	226.90
956.73	226.88
957.03	226.88
957.32	226.89
957.62	226.89
957.92	226.96
958.21	226.93
958.51	227.01
958.81	227.04
959.10	227.02
959.40	227.04
959.69	227.05
959.99	227.09
960.29	227.11
960.58	227.09
960.88	227.13
961.17	227.12
961.47	227.12
961.76	227.07
962.06	227.08
962.36	227.08
962.65	227.03
962.95	227.05
963.24	227.04
963.54	227.00
963.83	227.04
964.13	226.98
964.42	226.96
964.72	226.89
965.01	226.86
965.31	226.86
965.60	226.83
965.90	226.91
966.19	226.87
966.49	226.88
966.78	226.88
967.08	226.86
967.37	226.85
967.67	226.85
967.96	226.89
968.26	226.85
968.55	226.88
968.85	226.88
969.14	226.87
969.43	226.85
969.73	226.85
970.02	226.79
970.32	226.78
970.61	226.75
970.91	226.74
971.20	226.73
971.49	226.71
971.79	226.71
972.08	226.60
972.38	226.63
972.67	226.63
972.96	226.64
973.26	226.59
973.55	226.63
973.85	226.63
974.14	226.58
974.43	226.60
974.73	226.56
975.02	226.58
975.31	226.57
975.61	226.55
975.90	226.56
976.19	226.56
976.49	226.58
976.78	226.60
977.07	226.60
977.37	226.60
977.66	226.64
977.95	226.65
978.24	226.64
978.54	226.62
978.83	226.60
979.12	226.59
979.42	226.62
979.71	226.58
980.00	226.57
980.29	226.58
980.59	226.57
980.88	226.61
981.17	226.62
981.46	226.62
981.76	226.64
982.05	226.67
982.34	226.67
982.63	226.66
982.93	226.67
983.22	226.66
983.51	226.67
983.80	226.68
984.09	226.70
984.39	226.72
984.68	226.74
984.97	226.74
985.26	226.76
985.55	226.76
985.85	226.76
986.14	226.82
986.43	226.85
986.72	226.83
987.01	226.80
987.30	226.79
987.59	226.76
987.89	226.81
988.18	226.79
988.47	226.79
988.76	226.80
989.05	226.80
989.34	226.82
989.63	226.83
989.92	226.82
990.22	226.78
990.51	226.80
990.80	226.77
991.09	226.76
991.38	226.76
991.67	226.75
991.96	226.77
992.25	226.74
992.54	226.71
992.83	226.73
993.12	226.73
993.41	226.74
993.70	226.78
993.99	226.76
994.28	226.77
994.58	226.81
994.87	226.79
995.16	226.81
995.45	226.79
995.74	226.76
996.03	226.77
996.32	226.80
996.61	226.79
996.90	226.80
997.19	226.81
997.48	226.84
997.77	226.84
998.06	226.82
998.34	226.78
998.63	226.79
998.92	226.81
999.21	226.79
999.50	226.78
999.79	226.75
1000.08	226.74
1000.37	226.72
1000.66	226.68
1000.95	226.70
1001.24	226.70
1001.53	226.73
1001.82	226.76
1002.11	226.74
1002.40	226.74
1002.68	226.77
1002.97	226.81
1003.26	226.78
1003.55	226.74
1003.84	226.74
1004.13	226.74
1004.42	226.76
1004.71	226.73
1004.99	226.67
1005.28	226.71
1005.57	226.71
1005.86	226.71
1006.15	226.70
1006.44	226.69
1006.72	226.67
1007.01	226.62
1007.30	226.59
1007.59	226.54
1007.88	226.51
1008.17	226.51
1008.45	226.48
1008.74	226.45
1009.03	226.41
1009.32	226.39
1009.60	226.39
1009.89	226.39
1010.18	226.35
1010.47	226.30
1010.76	226.31
1011.04	226.30
1011.33	226.28
1011.62	226.28
1011.91	226.25
1012.19	226.26
1012.48	226.26
1012.77	226.30
1013.05	226.35
1013.34	226.34
1013.63	226.37
1013.92	226.38
1014.20	226.37
1014.49	226.37
1014.78	226.37
1015.06	226.34
1015.35	226.35
1015.64	226.36
1015.92	226.38
1016.21	226.42
1016.50	226.46
1016.78	226.47
1017.07	226.51
1017.36	226.52
1017.64	226.53
1017.93	226.56
1018.22	226.56
1018.50	226.56
1018.79	226.53
1019.08	226.51
1019.36	226.53
1019.65	226.52
1019.93	226.57
1020.22	226.60
1020.51	226.66
1020.79	226.65
1021.08	226.47
1021.36	226.45
1021.65	226.43
1021.94	226.54
1022.22	226.59
1022.51	226.72
1022.79	227.26
1023.08	227.00
1023.36	227.89
1023.65	226.65
>>>>>End Processed Spectral Data<<<<<
