SpectraSuite Data File
++++++++++++++++++++++++++++++++++++
Date: Fri Feb 01 15:13:35 EST 2013
User: group
Dark Spectrum Present: No
Reference Spectrum Present: No
Number of Sampled Component Spectra: 1
Spectrometers: USB2E7196
Integration Time (usec): 35000 (USB2E7196)
Spectra Averaged: 100 (USB2E7196)
Boxcar Smoothing: 10 (USB2E7196)
Correct for Electrical Dark: No (USB2E7196)
Strobe/Lamp Enabled: No (USB2E7196)
Correct for Detector Non-linearity: No (USB2E7196)
Correct for Stray Light: No (USB2E7196)
Number of Pixels in Processed Spectrum: 2048
>>>>>Begin Processed Spectral Data<<<<<
339.09	0.00
339.48	214.91
339.86	216.97
340.24	217.82
340.63	219.53
341.01	222.16
341.39	221.86
341.78	223.14
342.16	224.62
342.54	225.47
342.93	213.36
343.31	224.16
343.69	224.71
344.07	225.12
344.46	225.56
344.84	225.95
345.22	226.21
345.60	226.45
345.99	226.64
346.37	226.76
346.75	226.85
347.13	226.93
347.52	226.98
347.90	227.04
348.28	227.07
348.66	227.13
349.05	227.15
349.43	227.17
349.81	227.19
350.19	227.25
350.57	227.30
350.96	227.35
351.34	227.40
351.72	227.48
352.10	227.59
352.48	227.64
352.87	227.67
353.25	227.70
353.63	227.77
354.01	227.84
354.39	227.91
354.77	227.99
355.15	228.11
355.54	228.15
355.92	228.18
356.30	228.23
356.68	228.34
357.06	228.44
357.44	228.54
357.82	228.61
358.20	228.67
358.58	228.76
358.97	228.83
359.35	228.93
359.73	229.01
360.11	229.05
360.49	229.11
360.87	229.19
361.25	229.24
361.63	229.30
362.01	229.34
362.39	229.37
362.77	229.38
363.15	229.38
363.53	229.41
363.91	229.45
364.29	229.47
364.67	229.43
365.05	229.41
365.43	229.43
365.81	229.49
366.19	229.52
366.57	229.53
366.95	229.52
367.33	229.47
367.71	229.46
368.09	229.48
368.47	229.46
368.85	229.40
369.23	229.42
369.61	229.35
369.99	229.37
370.37	229.34
370.75	229.34
371.13	229.29
371.51	229.23
371.89	229.19
372.27	229.15
372.65	229.08
373.03	229.03
373.41	228.97
373.78	228.87
374.16	228.78
374.54	228.72
374.92	228.63
375.30	228.60
375.68	228.50
376.06	228.45
376.44	228.38
376.82	228.31
377.19	228.19
377.57	228.17
377.95	228.05
378.33	227.98
378.71	227.88
379.09	227.82
379.47	227.75
379.84	227.68
380.22	227.59
380.60	227.51
380.98	227.41
381.36	227.32
381.73	227.27
382.11	227.21
382.49	227.15
382.87	227.08
383.25	227.00
383.62	227.07
384.00	226.96
384.38	226.93
384.76	226.90
385.13	226.90
385.51	226.81
385.89	226.75
386.27	226.69
386.64	226.63
387.02	226.55
387.40	226.52
387.78	226.48
388.15	226.45
388.53	226.41
388.91	226.42
389.29	226.39
389.66	226.35
390.04	226.31
390.42	226.29
390.79	226.29
391.17	226.25
391.55	226.12
391.92	226.11
392.30	226.08
392.68	226.07
393.05	226.07
393.43	226.11
393.81	226.12
394.18	226.13
394.56	226.17
394.94	226.24
395.31	226.24
395.69	226.28
396.06	226.32
396.44	226.37
396.82	226.37
397.19	226.46
397.57	226.51
397.95	226.54
398.32	226.56
398.70	226.65
399.07	226.75
399.45	226.82
399.82	226.88
400.20	226.95
400.58	227.01
400.95	227.05
401.33	227.12
401.70	227.25
402.08	227.38
402.45	227.48
402.83	227.59
403.20	227.74
403.58	227.87
403.95	228.00
404.33	228.12
404.71	228.27
405.08	228.42
405.46	228.59
405.83	228.79
406.21	228.96
406.58	229.13
406.96	229.31
407.33	229.51
407.70	229.73
408.08	230.00
408.45	230.21
408.83	230.45
409.20	230.68
409.58	230.89
409.95	231.17
410.33	231.44
410.70	231.65
411.08	231.98
411.45	232.27
411.82	232.59
412.20	232.98
412.57	233.38
412.95	233.73
413.32	234.12
413.69	234.52
414.07	235.01
414.44	235.49
414.82	235.97
415.19	236.52
415.56	237.08
415.94	237.62
416.31	238.29
416.68	238.98
417.06	239.68
417.43	240.39
417.81	241.12
418.18	241.93
418.55	242.81
418.93	243.68
419.30	244.63
419.67	245.55
420.04	246.52
420.42	247.50
420.79	248.73
421.16	249.92
421.54	251.14
421.91	252.33
422.28	253.58
422.66	254.88
423.03	256.21
423.40	257.52
423.77	258.95
424.15	260.40
424.52	261.90
424.89	263.56
425.26	265.11
425.64	266.57
426.01	268.19
426.38	269.83
426.75	271.49
427.13	273.22
427.50	275.04
427.87	276.94
428.24	278.86
428.61	280.58
428.99	282.49
429.36	284.59
429.73	286.64
430.10	288.66
430.47	290.77
430.85	292.84
431.22	295.14
431.59	297.51
431.96	299.75
432.33	302.21
432.70	304.56
433.08	307.38
433.45	310.03
433.82	312.58
434.19	315.48
434.56	318.27
434.93	320.90
435.30	323.53
435.68	326.40
436.05	329.21
436.42	331.98
436.79	334.48
437.16	337.13
437.53	339.96
437.90	342.77
438.27	345.47
438.64	348.35
439.01	350.87
439.38	353.15
439.75	355.29
440.13	357.72
440.50	360.07
440.87	361.90
441.24	363.87
441.61	366.01
441.98	367.49
442.35	369.30
442.72	371.16
443.09	372.93
443.46	373.90
443.83	374.47
444.20	374.98
444.57	375.84
444.94	376.14
445.31	376.50
445.68	376.84
446.05	376.90
446.42	376.47
446.79	376.03
447.16	375.52
447.53	375.24
447.90	374.16
448.27	372.99
448.64	371.39
449.01	370.20
449.37	368.23
449.74	366.37
450.11	364.12
450.48	361.63
450.85	359.11
451.22	356.99
451.59	354.96
451.96	352.99
452.33	350.37
452.70	348.02
453.07	345.17
453.43	342.25
453.80	339.54
454.17	336.87
454.54	334.36
454.91	331.69
455.28	328.96
455.65	326.45
456.02	323.97
456.38	321.82
456.75	319.19
457.12	316.98
457.49	314.74
457.86	312.56
458.23	310.72
458.59	308.68
458.96	306.57
459.33	304.69
459.70	302.85
460.07	301.37
460.43	299.68
460.80	298.01
461.17	296.57
461.54	295.07
461.91	293.65
462.27	292.17
462.64	290.87
463.01	289.54
463.38	288.22
463.74	286.86
464.11	285.69
464.48	284.62
464.85	283.51
465.21	282.66
465.58	281.75
465.95	280.65
466.32	279.75
466.68	278.86
467.05	278.02
467.42	277.12
467.78	276.19
468.15	275.28
468.52	274.65
468.88	273.78
469.25	273.00
469.62	272.36
469.98	271.73
470.35	271.11
470.72	270.48
471.08	269.85
471.45	269.32
471.82	268.76
472.18	268.15
472.55	267.70
472.92	267.15
473.28	266.67
473.65	266.20
474.02	265.77
474.38	265.36
474.75	265.00
475.11	264.63
475.48	264.34
475.85	264.07
476.21	263.84
476.58	263.67
476.94	263.52
477.31	263.34
477.67	263.16
478.04	263.04
478.41	262.98
478.77	262.98
479.14	262.89
479.50	262.87
479.87	262.91
480.23	262.99
480.60	263.02
480.96	263.10
481.33	263.27
481.69	263.45
482.06	263.64
482.42	263.84
482.79	264.13
483.15	264.43
483.52	264.81
483.88	265.13
484.25	265.51
484.61	265.93
484.98	266.35
485.34	266.90
485.71	267.49
486.07	268.11
486.44	268.68
486.80	269.40
487.17	270.16
487.53	270.98
487.90	271.83
488.26	272.76
488.62	273.76
488.99	274.72
489.35	275.76
489.72	276.89
490.08	278.09
490.44	279.28
490.81	280.62
491.17	281.97
491.54	283.46
491.90	284.98
492.26	286.62
492.63	288.36
492.99	290.12
493.36	291.97
493.72	293.98
494.08	296.06
494.45	298.30
494.81	300.65
495.17	303.09
495.54	305.65
495.90	308.33
496.26	311.07
496.63	314.06
496.99	317.16
497.35	320.42
497.72	323.85
498.08	327.39
498.44	331.05
498.80	334.97
499.17	339.01
499.53	343.18
499.89	347.56
500.26	352.11
500.62	356.82
500.98	361.81
501.34	366.93
501.71	372.29
502.07	377.72
502.43	383.34
502.79	389.16
503.16	395.23
503.52	401.52
503.88	407.98
504.24	414.60
504.60	421.53
504.97	428.67
505.33	435.99
505.69	443.66
506.05	451.38
506.41	459.27
506.78	467.43
507.14	475.86
507.50	484.55
507.86	493.51
508.22	502.74
508.59	511.92
508.95	521.46
509.31	531.23
509.67	541.39
510.03	551.66
510.39	562.24
510.75	573.05
511.12	583.97
511.48	595.30
511.84	606.73
512.20	618.21
512.56	630.14
512.92	642.31
513.28	654.66
513.64	667.25
514.00	679.97
514.37	692.88
514.73	705.92
515.09	719.01
515.45	732.28
515.81	745.84
516.17	759.81
516.53	773.96
516.89	788.14
517.25	802.22
517.61	816.69
517.97	831.14
518.33	845.61
518.69	860.50
519.05	875.52
519.41	890.73
519.77	906.31
520.13	921.79
520.49	937.18
520.85	952.68
521.21	968.30
521.57	984.52
521.93	1000.38
522.29	1016.85
522.65	1033.07
523.01	1049.49
523.37	1065.51
523.73	1081.71
524.09	1097.84
524.45	1114.24
524.81	1131.02
525.17	1147.91
525.53	1164.83
525.89	1181.72
526.25	1198.51
526.61	1214.94
526.97	1231.77
527.33	1248.30
527.68	1264.99
528.04	1281.60
528.40	1298.28
528.76	1315.56
529.12	1332.27
529.48	1349.14
529.84	1365.27
530.20	1382.20
530.56	1399.13
530.91	1416.60
531.27	1433.48
531.63	1450.05
531.99	1466.63
532.35	1482.66
532.71	1498.65
533.07	1514.96
533.42	1530.91
533.78	1547.04
534.14	1563.43
534.50	1578.88
534.86	1594.78
535.21	1609.96
535.57	1625.93
535.93	1641.42
536.29	1656.22
536.65	1671.25
537.00	1686.18
537.36	1701.50
537.72	1715.89
538.08	1730.40
538.44	1744.39
538.79	1758.33
539.15	1772.11
539.51	1785.94
539.87	1800.31
540.22	1814.02
540.58	1827.98
540.94	1841.44
541.29	1854.41
541.65	1867.05
542.01	1880.32
542.37	1892.77
542.72	1905.39
543.08	1917.25
543.44	1929.84
543.79	1941.13
544.15	1952.31
544.51	1963.90
544.87	1975.06
545.22	1985.87
545.58	1996.21
545.94	2006.04
546.29	2016.08
546.65	2025.85
547.01	2035.26
547.36	2044.23
547.72	2052.70
548.07	2060.46
548.43	2068.75
548.79	2076.86
549.14	2084.48
549.50	2091.81
549.86	2099.64
550.21	2106.90
550.57	2113.99
550.92	2120.45
551.28	2127.56
551.64	2134.57
551.99	2141.13
552.35	2147.19
552.70	2153.46
553.06	2159.48
553.41	2165.61
553.77	2171.54
554.13	2177.64
554.48	2183.66
554.84	2188.83
555.19	2194.30
555.55	2199.49
555.90	2203.82
556.26	2208.61
556.61	2213.39
556.97	2217.53
557.32	2221.54
557.68	2225.62
558.03	2230.05
558.39	2233.78
558.74	2238.33
559.10	2242.23
559.45	2245.93
559.81	2250.20
560.16	2253.86
560.52	2257.06
560.87	2260.54
561.23	2263.21
561.58	2266.13
561.94	2268.61
562.29	2271.07
562.64	2273.62
563.00	2276.26
563.35	2279.79
563.71	2282.90
564.06	2285.96
564.42	2288.93
564.77	2291.27
565.12	2293.42
565.48	2295.31
565.83	2297.08
566.19	2298.28
566.54	2299.21
566.89	2300.14
567.25	2300.67
567.60	2302.06
567.96	2303.51
568.31	2304.44
568.66	2305.44
569.02	2306.09
569.37	2306.36
569.72	2306.97
570.08	2306.97
570.43	2306.78
570.78	2305.93
571.14	2304.33
571.49	2302.97
571.84	2302.47
572.20	2301.14
572.55	2300.12
572.90	2298.34
573.26	2296.95
573.61	2295.12
573.96	2293.16
574.31	2290.18
574.67	2287.12
575.02	2283.45
575.37	2280.16
575.72	2276.17
576.08	2272.79
576.43	2269.30
576.78	2265.54
577.13	2262.50
577.49	2259.44
577.84	2255.91
578.19	2252.21
578.54	2248.44
578.90	2244.06
579.25	2238.47
579.60	2233.53
579.95	2228.40
580.30	2223.28
580.66	2217.96
581.01	2213.02
581.36	2208.00
581.71	2203.69
582.06	2199.07
582.42	2194.44
582.77	2189.01
583.12	2184.27
583.47	2179.23
583.82	2174.05
584.17	2168.74
584.53	2163.14
584.88	2157.35
585.23	2151.52
585.58	2146.02
585.93	2140.54
586.28	2135.80
586.63	2130.62
586.98	2125.52
587.34	2120.78
587.69	2115.91
588.04	2110.48
588.39	2104.69
588.74	2098.24
589.09	2092.11
589.44	2085.13
589.79	2078.95
590.14	2073.24
590.49	2066.71
590.84	2060.36
591.19	2054.22
591.54	2047.64
591.89	2039.99
592.25	2033.13
592.60	2025.86
592.95	2018.10
593.30	2010.60
593.65	2002.83
594.00	1995.85
594.35	1988.55
594.70	1980.44
595.05	1973.03
595.40	1965.79
595.75	1958.15
596.10	1951.84
596.45	1944.91
596.80	1938.71
597.15	1932.03
597.50	1924.65
597.85	1918.20
598.19	1911.51
598.54	1904.44
598.89	1897.92
599.24	1892.13
599.59	1885.30
599.94	1878.98
600.29	1872.67
600.64	1866.13
600.99	1858.66
601.34	1851.62
601.69	1844.52
602.04	1837.50
602.39	1830.00
602.74	1823.07
603.08	1816.47
603.43	1809.59
603.78	1802.26
604.13	1795.04
604.48	1787.67
604.83	1781.01
605.18	1773.85
605.53	1765.79
605.87	1757.73
606.22	1750.40
606.57	1742.40
606.92	1735.10
607.27	1727.89
607.62	1720.96
607.96	1713.53
608.31	1706.79
608.66	1699.13
609.01	1691.59
609.36	1684.10
609.70	1676.16
610.05	1668.03
610.40	1660.29
610.75	1651.98
611.10	1644.31
611.44	1636.03
611.79	1628.15
612.14	1619.39
612.49	1610.31
612.83	1601.92
613.18	1593.88
613.53	1585.74
613.88	1577.19
614.22	1568.93
614.57	1560.40
614.92	1552.29
615.27	1544.63
615.61	1536.38
615.96	1528.53
616.31	1520.89
616.65	1513.56
617.00	1506.06
617.35	1498.46
617.70	1490.03
618.04	1481.49
618.39	1473.25
618.74	1465.65
619.08	1457.29
619.43	1449.79
619.78	1442.87
620.12	1435.72
620.47	1428.08
620.82	1420.08
621.16	1412.72
621.51	1405.13
621.85	1397.50
622.20	1388.96
622.55	1380.77
622.89	1372.92
623.24	1365.31
623.59	1358.06
623.93	1350.42
624.28	1343.17
624.62	1335.59
624.97	1328.42
625.32	1321.81
625.66	1314.90
626.01	1307.59
626.35	1300.11
626.70	1292.37
627.04	1284.62
627.39	1276.88
627.73	1269.52
628.08	1262.47
628.43	1255.06
628.77	1247.66
629.12	1240.07
629.46	1232.92
629.81	1225.59
630.15	1218.40
630.50	1210.89
630.84	1202.66
631.19	1194.82
631.53	1187.30
631.88	1179.83
632.22	1172.32
632.57	1165.03
632.91	1157.43
633.26	1150.10
633.60	1142.84
633.95	1135.76
634.29	1128.77
634.64	1122.19
634.98	1114.84
635.32	1107.72
635.67	1101.30
636.01	1094.69
636.36	1087.89
636.70	1081.40
637.05	1074.68
637.39	1068.20
637.73	1061.68
638.08	1055.79
638.42	1049.79
638.77	1043.32
639.11	1036.66
639.45	1030.27
639.80	1023.61
640.14	1017.24
640.49	1010.69
640.83	1004.40
641.17	998.21
641.52	991.93
641.86	985.53
642.20	979.68
642.55	973.35
642.89	966.79
643.23	960.30
643.58	954.59
643.92	948.42
644.26	942.34
644.61	936.47
644.95	930.53
645.29	923.94
645.64	917.22
645.98	911.04
646.32	905.33
646.66	899.31
647.01	893.47
647.35	887.74
647.69	881.90
648.04	876.44
648.38	870.65
648.72	864.64
649.06	858.48
649.41	852.62
649.75	846.63
650.09	840.66
650.43	834.85
650.78	828.60
651.12	822.68
651.46	817.04
651.80	811.21
652.14	805.77
652.49	800.42
652.83	795.27
653.17	789.52
653.51	783.72
653.85	778.32
654.20	772.69
654.54	766.69
654.88	761.01
655.22	755.14
655.56	749.43
655.90	743.97
656.25	738.71
656.59	733.40
656.93	728.41
657.27	723.29
657.61	717.90
657.95	712.92
658.29	707.89
658.64	702.65
658.98	697.37
659.32	691.89
659.66	686.67
660.00	681.32
660.34	676.45
660.68	671.67
661.02	666.68
661.36	661.98
661.70	657.52
662.05	653.17
662.39	648.80
662.73	644.45
663.07	640.14
663.41	635.74
663.75	631.26
664.09	626.65
664.43	622.29
664.77	618.16
665.11	613.90
665.45	609.76
665.79	605.71
666.13	601.62
666.47	597.54
666.81	593.47
667.15	589.40
667.49	585.49
667.83	581.68
668.17	577.71
668.51	573.65
668.85	569.62
669.19	565.83
669.53	562.02
669.87	558.11
670.21	554.39
670.55	550.76
670.89	547.33
671.23	543.91
671.57	540.45
671.91	536.92
672.25	533.44
672.58	529.95
672.92	526.61
673.26	523.40
673.60	520.35
673.94	517.23
674.28	514.38
674.62	511.43
674.96	508.34
675.30	505.43
675.64	502.50
675.97	499.79
676.31	496.86
676.65	493.92
676.99	491.14
677.33	488.26
677.67	485.41
678.01	482.32
678.34	479.36
678.68	476.48
679.02	473.66
679.36	470.90
679.70	468.14
680.04	465.34
680.37	462.49
680.71	459.68
681.05	457.05
681.39	454.31
681.73	451.68
682.06	449.14
682.40	446.61
682.74	444.14
683.08	441.56
683.42	439.02
683.75	436.51
684.09	434.05
684.43	431.58
684.77	429.15
685.10	426.84
685.44	424.56
685.78	422.22
686.12	419.98
686.45	417.72
686.79	415.41
687.13	413.20
687.46	411.08
687.80	408.92
688.14	406.72
688.48	404.67
688.81	402.40
689.15	400.23
689.49	398.04
689.82	395.98
690.16	393.90
690.50	391.90
690.83	389.99
691.17	387.99
691.51	386.10
691.84	384.23
692.18	382.36
692.52	380.36
692.85	378.52
693.19	376.66
693.52	374.83
693.86	373.03
694.20	371.29
694.53	369.46
694.87	367.64
695.21	365.87
695.54	364.04
695.88	362.36
696.21	360.64
696.55	359.04
696.88	357.33
697.22	355.68
697.56	354.09
697.89	352.44
698.23	350.85
698.56	349.23
698.90	347.67
699.23	345.99
699.57	344.46
699.90	342.86
700.24	341.29
700.58	339.75
700.91	338.27
701.25	336.86
701.58	335.51
701.92	334.16
702.25	332.78
702.59	331.41
702.92	330.05
703.26	328.76
703.59	327.48
703.93	326.31
704.26	325.11
704.60	323.84
704.93	322.55
705.26	321.28
705.60	320.14
705.93	318.99
706.27	318.01
706.60	316.98
706.94	315.92
707.27	314.90
707.61	313.87
707.94	312.83
708.27	311.75
708.61	310.69
708.94	309.71
709.28	308.75
709.61	307.81
709.94	306.88
710.28	305.86
710.61	304.88
710.95	303.82
711.28	302.90
711.61	301.95
711.95	301.05
712.28	300.15
712.61	299.16
712.95	298.22
713.28	297.35
713.61	296.41
713.95	295.54
714.28	294.63
714.61	293.76
714.95	292.96
715.28	292.11
715.61	291.25
715.95	290.37
716.28	289.50
716.61	288.65
716.95	287.83
717.28	287.12
717.61	286.36
717.94	285.59
718.28	284.75
718.61	284.06
718.94	283.38
719.27	282.70
719.61	282.08
719.94	281.44
720.27	280.72
720.60	280.08
720.94	279.43
721.27	278.85
721.60	278.27
721.93	277.62
722.27	277.07
722.60	276.49
722.93	275.95
723.26	275.45
723.59	274.96
723.93	274.42
724.26	273.88
724.59	273.32
724.92	272.82
725.25	272.37
725.59	271.78
725.92	271.23
726.25	270.75
726.58	270.24
726.91	269.74
727.24	269.26
727.57	268.83
727.91	268.30
728.24	267.86
728.57	267.36
728.90	266.93
729.23	266.39
729.56	265.97
729.89	265.47
730.22	264.95
730.55	264.46
730.89	264.00
731.22	263.51
731.55	263.08
731.88	262.62
732.21	262.20
732.54	261.82
732.87	261.41
733.20	261.00
733.53	260.63
733.86	260.26
734.19	259.84
734.52	259.44
734.85	259.18
735.18	258.75
735.51	258.41
735.84	258.06
736.17	257.77
736.50	257.37
736.83	257.13
737.16	256.80
737.49	256.48
737.82	256.14
738.15	255.86
738.48	255.51
738.81	255.21
739.14	254.86
739.47	254.56
739.80	254.28
740.13	253.98
740.46	253.62
740.79	253.28
741.12	253.00
741.45	252.66
741.78	252.28
742.11	252.00
742.44	251.68
742.77	251.39
743.10	251.08
743.43	250.77
743.75	250.41
744.08	250.28
744.41	249.99
744.74	249.72
745.07	249.44
745.40	249.19
745.73	248.96
746.06	248.70
746.39	248.39
746.71	248.09
747.04	247.82
747.37	247.61
747.70	247.39
748.03	247.12
748.36	246.89
748.68	246.69
749.01	246.41
749.34	246.20
749.67	245.98
750.00	245.74
750.33	245.58
750.65	245.37
750.98	245.01
751.31	244.77
751.64	244.56
751.97	244.39
752.29	244.18
752.62	243.92
752.95	243.72
753.28	243.54
753.60	243.32
753.93	243.10
754.26	242.88
754.59	242.63
754.91	242.43
755.24	242.27
755.57	242.08
755.90	241.91
756.22	241.69
756.55	241.47
756.88	241.26
757.20	241.05
757.53	240.83
757.86	240.64
758.19	240.47
758.51	240.30
758.84	240.08
759.17	239.89
759.49	239.74
759.82	239.59
760.15	239.41
760.47	239.26
760.80	239.12
761.13	239.01
761.45	238.84
761.78	238.67
762.11	238.52
762.43	238.33
762.76	238.17
763.08	238.04
763.41	237.91
763.74	237.81
764.06	237.63
764.39	237.52
764.71	237.41
765.04	237.29
765.37	237.19
765.69	237.07
766.02	236.93
766.34	236.76
766.67	236.60
767.00	236.50
767.32	236.47
767.65	236.38
767.97	236.27
768.30	236.20
768.62	236.08
768.95	235.95
769.27	235.82
769.60	235.72
769.92	235.60
770.25	235.51
770.57	235.35
770.90	235.26
771.22	235.16
771.55	235.03
771.87	234.95
772.20	234.81
772.52	234.79
772.85	234.84
773.17	234.78
773.50	234.70
773.82	234.61
774.15	234.47
774.47	234.35
774.80	234.20
775.12	234.08
775.45	234.01
775.77	233.93
776.09	233.90
776.42	233.83
776.74	233.78
777.07	233.70
777.39	233.68
777.72	233.60
778.04	233.54
778.36	233.50
778.69	233.43
779.01	233.41
779.33	233.26
779.66	233.05
779.98	232.95
780.31	232.87
780.63	232.83
780.95	232.78
781.28	232.71
781.60	232.65
781.92	232.61
782.25	232.60
782.57	232.54
782.89	232.49
783.22	232.45
783.54	232.37
783.86	232.31
784.19	232.25
784.51	232.23
784.83	232.16
785.16	232.10
785.48	232.01
785.80	231.96
786.12	231.89
786.45	231.85
786.77	231.85
787.09	231.80
787.42	231.73
787.74	231.69
788.06	231.67
788.38	231.63
788.71	231.60
789.03	231.53
789.35	231.52
789.67	231.44
789.99	231.38
790.32	231.34
790.64	231.32
790.96	231.33
791.28	231.25
791.61	231.23
791.93	231.19
792.25	231.14
792.57	231.19
792.89	231.13
793.21	231.08
793.54	231.05
793.86	231.01
794.18	230.97
794.50	230.90
794.82	230.84
795.14	230.83
795.47	230.80
795.79	230.77
796.11	230.73
796.43	230.70
796.75	230.68
797.07	230.66
797.39	230.66
797.71	230.56
798.04	230.56
798.36	230.51
798.68	230.48
799.00	230.50
799.32	230.41
799.64	230.43
799.96	230.44
800.28	230.41
800.60	230.36
800.92	230.34
801.24	230.34
801.56	230.31
801.89	230.26
802.21	230.21
802.53	230.17
802.85	230.16
803.17	230.19
803.49	230.15
803.81	230.09
804.13	230.03
804.45	230.01
804.77	230.01
805.09	229.97
805.41	229.93
805.73	229.85
806.05	229.78
806.37	229.72
806.69	229.68
807.01	229.67
807.33	229.68
807.65	229.63
807.97	229.65
808.28	229.61
808.60	229.57
808.92	229.53
809.24	229.57
809.56	229.51
809.88	229.42
810.20	229.43
810.52	229.47
810.84	229.42
811.16	229.38
811.48	229.33
811.80	229.36
812.12	229.33
812.43	229.36
812.75	229.37
813.07	229.34
813.39	229.36
813.71	229.28
814.03	229.25
814.35	229.26
814.67	229.16
814.98	229.15
815.30	229.13
815.62	229.11
815.94	229.03
816.26	229.05
816.58	229.04
816.89	229.00
817.21	228.96
817.53	228.96
817.85	228.96
818.17	228.92
818.48	228.86
818.80	228.89
819.12	228.83
819.44	228.80
819.76	228.79
820.07	228.76
820.39	228.76
820.71	228.73
821.03	228.69
821.34	228.69
821.66	228.67
821.98	228.70
822.30	228.71
822.61	228.75
822.93	228.71
823.25	228.68
823.57	228.65
823.88	228.62
824.20	228.60
824.52	228.59
824.83	228.60
825.15	228.57
825.47	228.53
825.79	228.53
826.10	228.52
826.42	228.51
826.74	228.49
827.05	228.49
827.37	228.47
827.69	228.46
828.00	228.47
828.32	228.50
828.64	228.48
828.95	228.49
829.27	228.48
829.58	228.43
829.90	228.43
830.22	228.41
830.53	228.39
830.85	228.38
831.17	228.33
831.48	228.32
831.80	228.32
832.11	228.32
832.43	228.31
832.75	228.30
833.06	228.37
833.38	228.33
833.69	228.32
834.01	228.33
834.32	228.32
834.64	228.26
834.96	228.25
835.27	228.24
835.59	228.20
835.90	228.16
836.22	228.18
836.53	228.13
836.85	228.10
837.16	228.22
837.48	228.19
837.79	228.22
838.11	228.20
838.42	228.21
838.74	228.23
839.05	228.20
839.37	228.16
839.68	228.08
840.00	228.07
840.31	228.08
840.63	228.07
840.94	228.07
841.26	228.08
841.57	228.03
841.88	228.01
842.20	228.01
842.51	227.97
842.83	227.96
843.14	228.08
843.46	228.10
843.77	228.00
844.08	228.01
844.40	227.97
844.71	227.96
845.03	227.96
845.34	227.90
845.65	227.89
845.97	227.91
846.28	227.91
846.60	227.89
846.91	227.88
847.22	227.88
847.54	227.86
847.85	227.88
848.16	227.91
848.48	227.88
848.79	227.88
849.10	227.87
849.42	227.87
849.73	227.76
850.04	227.76
850.36	227.73
850.67	227.74
850.98	227.72
851.30	227.74
851.61	227.73
851.92	227.75
852.23	227.80
852.55	227.78
852.86	227.77
853.17	227.80
853.49	227.77
853.80	227.76
854.11	227.81
854.42	227.82
854.74	227.78
855.05	227.78
855.36	227.74
855.67	227.75
855.99	227.78
856.30	227.90
856.61	227.87
856.92	227.86
857.23	227.86
857.55	227.86
857.86	227.87
858.17	227.87
858.48	227.85
858.79	227.83
859.11	227.84
859.42	227.84
859.73	227.81
860.04	227.85
860.35	227.83
860.66	227.78
860.98	227.77
861.29	227.77
861.60	227.77
861.91	227.82
862.22	227.81
862.53	227.78
862.84	227.64
863.16	227.67
863.47	227.69
863.78	227.71
864.09	227.71
864.40	227.70
864.71	227.69
865.02	227.71
865.33	227.68
865.64	227.64
865.95	227.64
866.27	227.71
866.58	227.68
866.89	227.69
867.20	227.68
867.51	227.68
867.82	227.69
868.13	227.70
868.44	227.68
868.75	227.70
869.06	227.69
869.37	227.73
869.68	227.68
869.99	227.69
870.30	227.68
870.61	227.69
870.92	227.66
871.23	227.64
871.54	227.66
871.85	227.67
872.16	227.70
872.47	227.68
872.78	227.62
873.09	227.62
873.40	227.62
873.71	227.62
874.02	227.60
874.33	227.59
874.64	227.57
874.95	227.56
875.26	227.50
875.56	227.52
875.87	227.50
876.18	227.49
876.49	227.56
876.80	227.56
877.11	227.51
877.42	227.48
877.73	227.51
878.04	227.47
878.35	227.45
878.66	227.46
878.96	227.46
879.27	227.44
879.58	227.45
879.89	227.43
880.20	227.48
880.51	227.47
880.82	227.44
881.12	227.44
881.43	227.40
881.74	227.41
882.05	227.40
882.36	227.41
882.67	227.41
882.97	227.30
883.28	227.29
883.59	227.30
883.90	227.35
884.21	227.31
884.51	227.30
884.82	227.29
885.13	227.27
885.44	227.26
885.74	227.28
886.05	227.27
886.36	227.27
886.67	227.20
886.98	227.23
887.28	227.26
887.59	227.24
887.90	227.24
888.20	227.25
888.51	227.25
888.82	227.22
889.13	227.24
889.43	227.31
889.74	227.27
890.05	227.26
890.35	227.21
890.66	227.22
890.97	227.22
891.28	227.21
891.58	227.22
891.89	227.22
892.20	227.20
892.50	227.16
892.81	227.14
893.12	227.15
893.42	227.10
893.73	227.10
894.04	227.11
894.34	227.14
894.65	227.16
894.95	227.11
895.26	227.13
895.57	227.19
895.87	227.10
896.18	227.13
896.48	227.12
896.79	227.15
897.10	227.14
897.40	227.15
897.71	227.16
898.01	227.17
898.32	227.14
898.63	227.16
898.93	227.20
899.24	227.20
899.54	227.21
899.85	227.22
900.15	227.23
900.46	227.25
900.76	227.23
901.07	227.19
901.38	227.22
901.68	227.24
901.99	227.17
902.29	227.20
902.60	227.20
902.90	227.20
903.21	227.20
903.51	227.20
903.82	227.22
904.12	227.22
904.43	227.19
904.73	227.23
905.03	227.21
905.34	227.30
905.64	227.29
905.95	227.28
906.25	227.26
906.56	227.25
906.86	227.27
907.17	227.30
907.47	227.30
907.77	227.31
908.08	227.26
908.38	227.28
908.69	227.29
908.99	227.28
909.30	227.30
909.60	227.31
909.90	227.31
910.21	227.30
910.51	227.29
910.81	227.29
911.12	227.31
911.42	227.33
911.73	227.20
912.03	227.20
912.33	227.22
912.64	227.24
912.94	227.24
913.24	227.20
913.55	227.16
913.85	227.15
914.15	227.14
914.46	227.16
914.76	227.14
915.06	227.11
915.37	227.12
915.67	227.12
915.97	227.11
916.27	227.11
916.58	227.10
916.88	227.07
917.18	227.11
917.49	227.16
917.79	227.14
918.09	227.16
918.39	227.19
918.70	227.16
919.00	227.15
919.30	227.17
919.60	227.15
919.91	227.17
920.21	227.17
920.51	227.17
920.81	227.19
921.12	227.21
921.42	227.21
921.72	227.20
922.02	227.22
922.32	227.22
922.63	227.21
922.93	227.27
923.23	227.31
923.53	227.23
923.83	227.16
924.13	227.16
924.44	227.18
924.74	227.22
925.04	227.22
925.34	227.23
925.64	227.22
925.94	227.21
926.24	227.26
926.55	227.25
926.85	227.24
927.15	227.21
927.45	227.21
927.75	227.19
928.05	227.23
928.35	227.20
928.65	227.20
928.95	227.20
929.26	227.17
929.56	227.19
929.86	227.23
930.16	227.23
930.46	227.25
930.76	227.20
931.06	227.15
931.36	227.16
931.66	227.19
931.96	227.16
932.26	227.18
932.56	227.12
932.86	227.12
933.16	227.16
933.46	227.15
933.76	227.15
934.06	227.18
934.36	227.16
934.66	227.15
934.96	227.15
935.26	227.16
935.56	227.18
935.86	227.13
936.16	227.14
936.46	227.13
936.76	227.14
937.06	227.16
937.36	227.13
937.66	227.15
937.96	227.14
938.26	227.12
938.56	227.13
938.86	227.11
939.16	227.17
939.46	227.17
939.76	227.22
940.06	227.18
940.35	227.17
940.65	227.15
940.95	227.16
941.25	227.13
941.55	227.13
941.85	227.12
942.15	227.17
942.45	227.18
942.75	227.16
943.04	227.13
943.34	227.13
943.64	227.14
943.94	227.12
944.24	227.11
944.54	227.16
944.84	227.15
945.13	227.15
945.43	227.13
945.73	227.10
946.03	227.06
946.33	227.07
946.62	227.09
946.92	227.09
947.22	227.11
947.52	227.10
947.82	227.07
948.11	227.05
948.41	227.02
948.71	226.99
949.01	227.03
949.31	227.03
949.60	227.02
949.90	227.05
950.20	227.03
950.50	227.04
950.79	227.03
951.09	227.04
951.39	227.05
951.69	227.03
951.98	227.07
952.28	227.06
952.58	227.09
952.87	227.07
953.17	227.08
953.47	227.02
953.76	227.01
954.06	227.00
954.36	227.02
954.66	227.01
954.95	227.04
955.25	227.03
955.55	227.03
955.84	227.01
956.14	227.01
956.44	227.03
956.73	226.99
957.03	226.97
957.32	226.97
957.62	226.94
957.92	226.94
958.21	226.93
958.51	227.06
958.81	227.06
959.10	227.06
959.40	227.09
959.69	227.14
959.99	227.18
960.29	227.21
960.58	227.16
960.88	227.18
961.17	227.15
961.47	227.15
961.76	227.13
962.06	227.13
962.36	227.08
962.65	227.07
962.95	227.09
963.24	227.09
963.54	227.10
963.83	227.10
964.13	227.08
964.42	227.02
964.72	226.96
965.01	226.94
965.31	226.92
965.60	226.90
965.90	226.93
966.19	226.90
966.49	226.90
966.78	226.90
967.08	226.91
967.37	226.91
967.67	226.92
967.96	226.95
968.26	226.96
968.55	227.00
968.85	227.00
969.14	226.98
969.43	226.98
969.73	226.98
970.02	226.98
970.32	226.98
970.61	227.01
970.91	226.97
971.20	226.99
971.49	227.01
971.79	227.00
972.08	226.95
972.38	226.96
972.67	226.95
972.96	226.98
973.26	226.93
973.55	226.97
973.85	226.93
974.14	226.93
974.43	226.93
974.73	226.92
975.02	226.91
975.31	226.91
975.61	226.91
975.90	226.87
976.19	226.89
976.49	226.89
976.78	226.90
977.07	226.90
977.37	226.89
977.66	226.89
977.95	226.89
978.24	226.92
978.54	226.94
978.83	226.95
979.12	226.96
979.42	227.02
979.71	227.02
980.00	227.03
980.29	227.05
980.59	227.05
980.88	227.07
981.17	227.09
981.46	227.12
981.76	227.14
982.05	227.20
982.34	227.21
982.63	227.25
982.93	227.23
983.22	227.22
983.51	227.21
983.80	227.22
984.09	227.24
984.39	227.24
984.68	227.23
984.97	227.26
985.26	227.23
985.55	227.22
985.85	227.20
986.14	227.22
986.43	227.24
986.72	227.24
987.01	227.22
987.30	227.22
987.59	227.23
987.89	227.22
988.18	227.18
988.47	227.18
988.76	227.18
989.05	227.18
989.34	227.18
989.63	227.23
989.92	227.21
990.22	227.18
990.51	227.16
990.80	227.10
991.09	227.09
991.38	227.11
991.67	227.08
991.96	227.03
992.25	227.02
992.54	227.00
992.83	226.99
993.12	226.99
993.41	226.96
993.70	226.96
993.99	226.96
994.28	226.98
994.58	226.97
994.87	226.93
995.16	226.92
995.45	226.93
995.74	226.87
996.03	226.88
996.32	226.91
996.61	226.94
996.90	226.92
997.19	226.89
997.48	226.88
997.77	226.85
998.06	226.84
998.34	226.81
998.63	226.77
998.92	226.75
999.21	226.75
999.50	226.78
999.79	226.76
1000.08	226.74
1000.37	226.72
1000.66	226.69
1000.95	226.67
1001.24	226.65
1001.53	226.64
1001.82	226.61
1002.11	226.57
1002.40	226.55
1002.68	226.55
1002.97	226.64
1003.26	226.63
1003.55	226.60
1003.84	226.64
1004.13	226.69
1004.42	226.68
1004.71	226.69
1004.99	226.71
1005.28	226.73
1005.57	226.73
1005.86	226.72
1006.15	226.72
1006.44	226.71
1006.72	226.72
1007.01	226.77
1007.30	226.79
1007.59	226.78
1007.88	226.82
1008.17	226.87
1008.45	226.87
1008.74	226.83
1009.03	226.80
1009.32	226.81
1009.60	226.84
1009.89	226.83
1010.18	226.77
1010.47	226.80
1010.76	226.82
1011.04	226.81
1011.33	226.79
1011.62	226.78
1011.91	226.78
1012.19	226.79
1012.48	226.79
1012.77	226.82
1013.05	226.87
1013.34	226.88
1013.63	226.89
1013.92	226.90
1014.20	226.86
1014.49	226.88
1014.78	226.90
1015.06	226.87
1015.35	226.87
1015.64	226.88
1015.92	226.91
1016.21	226.94
1016.50	226.98
1016.78	226.97
1017.07	227.00
1017.36	227.04
1017.64	227.04
1017.93	227.10
1018.22	227.09
1018.50	227.10
1018.79	227.08
1019.08	227.04
1019.36	227.04
1019.65	227.05
1019.93	227.07
1020.22	227.12
1020.51	227.19
1020.79	227.17
1021.08	226.69
1021.36	226.97
1021.65	226.95
1021.94	227.12
1022.22	227.21
1022.51	226.90
1022.79	227.56
1023.08	227.63
1023.36	228.56
1023.65	226.70
>>>>>End Processed Spectral Data<<<<<
