SpectraSuite Data File
++++++++++++++++++++++++++++++++++++
Date: Fri Feb 01 16:27:11 EST 2013
User: group
Dark Spectrum Present: No
Reference Spectrum Present: No
Number of Sampled Component Spectra: 1
Spectrometers: USB2E7196
Integration Time (usec): 35000 (USB2E7196)
Spectra Averaged: 100 (USB2E7196)
Boxcar Smoothing: 10 (USB2E7196)
Correct for Electrical Dark: No (USB2E7196)
Strobe/Lamp Enabled: No (USB2E7196)
Correct for Detector Non-linearity: No (USB2E7196)
Correct for Stray Light: No (USB2E7196)
Number of Pixels in Processed Spectrum: 2048
>>>>>Begin Processed Spectral Data<<<<<
339.09	0.00
339.48	213.93
339.86	215.39
340.24	216.44
340.63	218.16
341.01	220.73
341.39	220.85
341.78	221.80
342.16	223.42
342.54	223.78
342.93	212.34
343.31	223.09
343.69	223.64
344.07	224.16
344.46	224.61
344.84	225.00
345.22	225.25
345.60	225.49
345.99	225.70
346.37	225.82
346.75	225.95
347.13	226.06
347.52	226.10
347.90	226.16
348.28	226.16
348.66	226.23
349.05	226.23
349.43	226.26
349.81	226.31
350.19	226.38
350.57	226.45
350.96	226.58
351.34	226.66
351.72	226.72
352.10	226.78
352.48	226.85
352.87	226.92
353.25	226.98
353.63	227.07
354.01	227.14
354.39	227.23
354.77	227.30
355.15	227.39
355.54	227.47
355.92	227.50
356.30	227.59
356.68	227.70
357.06	227.78
357.44	227.84
357.82	227.87
358.20	227.92
358.58	227.96
358.97	228.00
359.35	228.08
359.73	228.17
360.11	228.21
360.49	228.26
360.87	228.32
361.25	228.38
361.63	228.44
362.01	228.48
362.39	228.51
362.77	228.51
363.15	228.55
363.53	228.58
363.91	228.64
364.29	228.67
364.67	228.59
365.05	228.62
365.43	228.57
365.81	228.60
366.19	228.65
366.57	228.66
366.95	228.64
367.33	228.61
367.71	228.59
368.09	228.60
368.47	228.58
368.85	228.49
369.23	228.46
369.61	228.40
369.99	228.41
370.37	228.37
370.75	228.40
371.13	228.31
371.51	228.24
371.89	228.16
372.27	228.11
372.65	228.04
373.03	227.98
373.41	227.94
373.78	227.89
374.16	227.78
374.54	227.71
374.92	227.62
375.30	227.51
375.68	227.44
376.06	227.35
376.44	227.27
376.82	227.23
377.19	227.17
377.57	227.09
377.95	226.95
378.33	226.88
378.71	226.76
379.09	226.73
379.47	226.66
379.84	226.61
380.22	226.53
380.60	226.49
380.98	226.40
381.36	226.35
381.73	226.25
382.11	226.18
382.49	226.12
382.87	226.06
383.25	226.04
383.62	226.08
384.00	226.00
384.38	225.96
384.76	225.93
385.13	225.89
385.51	225.84
385.89	225.80
386.27	225.79
386.64	225.74
387.02	225.67
387.40	225.67
387.78	225.63
388.15	225.59
388.53	225.55
388.91	225.52
389.29	225.48
389.66	225.48
390.04	225.47
390.42	225.46
390.79	225.45
391.17	225.44
391.55	225.33
391.92	225.34
392.30	225.35
392.68	225.36
393.05	225.36
393.43	225.38
393.81	225.39
394.18	225.37
394.56	225.40
394.94	225.45
395.31	225.44
395.69	225.49
396.06	225.55
396.44	225.57
396.82	225.62
397.19	225.74
397.57	225.79
397.95	225.86
398.32	225.90
398.70	226.00
399.07	226.07
399.45	226.14
399.82	226.18
400.20	226.22
400.58	226.27
400.95	226.33
401.33	226.43
401.70	226.59
402.08	226.67
402.45	226.77
402.83	226.90
403.20	227.04
403.58	227.14
403.95	227.25
404.33	227.37
404.71	227.50
405.08	227.66
405.46	227.76
405.83	227.90
406.21	228.06
406.58	228.22
406.96	228.36
407.33	228.55
407.70	228.76
408.08	229.03
408.45	229.25
408.83	229.50
409.20	229.70
409.58	229.87
409.95	230.15
410.33	230.41
410.70	230.63
411.08	230.88
411.45	231.20
411.82	231.49
412.20	231.86
412.57	232.24
412.95	232.50
413.32	232.93
413.69	233.31
414.07	233.73
414.44	234.19
414.82	234.64
415.19	235.22
415.56	235.76
415.94	236.33
416.31	236.98
416.68	237.59
417.06	238.32
417.43	238.98
417.81	239.74
418.18	240.52
418.55	241.35
418.93	242.25
419.30	243.14
419.67	244.08
420.04	245.01
420.42	246.02
420.79	247.23
421.16	248.35
421.54	249.55
421.91	250.78
422.28	252.01
422.66	253.36
423.03	254.60
423.40	255.94
423.77	257.31
424.15	258.72
424.52	260.19
424.89	261.80
425.26	263.38
425.64	264.81
426.01	266.39
426.38	268.05
426.75	269.67
427.13	271.40
427.50	273.21
427.87	275.08
428.24	276.92
428.61	278.64
428.99	280.56
429.36	282.67
429.73	284.71
430.10	286.71
430.47	288.75
430.85	290.86
431.22	293.09
431.59	295.47
431.96	297.67
432.33	300.12
432.70	302.48
433.08	305.27
433.45	307.88
433.82	310.46
434.19	313.28
434.56	316.10
434.93	318.72
435.30	321.31
435.68	324.20
436.05	327.01
436.42	329.82
436.79	332.35
437.16	334.98
437.53	337.79
437.90	340.59
438.27	343.35
438.64	346.10
439.01	348.65
439.38	350.91
439.75	353.12
440.13	355.60
440.50	357.87
440.87	359.73
441.24	361.66
441.61	363.84
441.98	365.36
442.35	367.17
442.72	369.01
443.09	370.81
443.46	371.79
443.83	372.36
444.20	372.82
444.57	373.60
444.94	373.92
445.31	374.24
445.68	374.58
446.05	374.60
446.42	374.24
446.79	373.83
447.16	373.31
447.53	372.96
447.90	371.84
448.27	370.72
448.64	369.10
449.01	367.99
449.37	366.04
449.74	364.14
450.11	361.89
450.48	359.44
450.85	356.89
451.22	354.77
451.59	352.76
451.96	350.83
452.33	348.30
452.70	345.92
453.07	343.10
453.43	340.27
453.80	337.53
454.17	334.91
454.54	332.38
454.91	329.71
455.28	327.09
455.65	324.58
456.02	322.12
456.38	320.01
456.75	317.30
457.12	315.03
457.49	312.83
457.86	310.67
458.23	308.83
458.59	306.82
458.96	304.73
459.33	302.88
459.70	301.04
460.07	299.55
460.43	297.89
460.80	296.29
461.17	294.84
461.54	293.36
461.91	291.95
462.27	290.54
462.64	289.29
463.01	287.93
463.38	286.69
463.74	285.31
464.11	284.14
464.48	283.14
464.85	282.03
465.21	281.16
465.58	280.25
465.95	279.15
466.32	278.24
466.68	277.36
467.05	276.48
467.42	275.58
467.78	274.66
468.15	273.73
468.52	273.12
468.88	272.27
469.25	271.50
469.62	270.89
469.98	270.19
470.35	269.58
470.72	268.98
471.08	268.29
471.45	267.80
471.82	267.28
472.18	266.72
472.55	266.29
472.92	265.79
473.28	265.32
473.65	264.88
474.02	264.44
474.38	264.10
474.75	263.78
475.11	263.47
475.48	263.20
475.85	263.03
476.21	262.77
476.58	262.59
476.94	262.45
477.31	262.28
477.67	262.16
478.04	262.07
478.41	262.04
478.77	262.12
479.14	262.06
479.50	262.07
479.87	262.17
480.23	262.30
480.60	262.40
480.96	262.47
481.33	262.75
481.69	262.98
482.06	263.16
482.42	263.39
482.79	263.66
483.15	263.99
483.52	264.41
483.88	264.81
484.25	265.22
484.61	265.66
484.98	266.13
485.34	266.66
485.71	267.26
486.07	267.82
486.44	268.42
486.80	269.14
487.17	269.86
487.53	270.63
487.90	271.46
488.26	272.40
488.62	273.43
488.99	274.36
489.35	275.40
489.72	276.57
490.08	277.75
490.44	279.02
490.81	280.35
491.17	281.68
491.54	283.13
491.90	284.63
492.26	286.28
492.63	288.02
492.99	289.80
493.36	291.72
493.72	293.80
494.08	295.88
494.45	298.13
494.81	300.51
495.17	302.92
495.54	305.51
495.90	308.20
496.26	310.96
496.63	313.91
496.99	317.00
497.35	320.24
497.72	323.68
498.08	327.20
498.44	330.91
498.80	334.81
499.17	338.83
499.53	343.04
499.89	347.44
500.26	351.97
500.62	356.63
500.98	361.53
501.34	366.64
501.71	371.97
502.07	377.38
502.43	383.00
502.79	388.90
503.16	394.95
503.52	401.20
503.88	407.64
504.24	414.28
504.60	421.19
504.97	428.34
505.33	435.63
505.69	443.37
506.05	451.09
506.41	459.00
506.78	467.18
507.14	475.62
507.50	484.33
507.86	493.34
508.22	502.54
508.59	511.77
508.95	521.27
509.31	531.05
509.67	541.21
510.03	551.53
510.39	562.08
510.75	572.92
511.12	583.88
511.48	595.16
511.84	606.58
512.20	618.08
512.56	629.97
512.92	642.14
513.28	654.39
513.64	666.87
514.00	679.58
514.37	692.59
514.73	705.70
515.09	718.75
515.45	731.99
515.81	745.54
516.17	759.45
516.53	773.57
516.89	787.72
517.25	801.80
517.61	816.18
517.97	830.58
518.33	844.99
518.69	859.67
519.05	874.60
519.41	889.82
519.77	905.21
520.13	920.67
520.49	935.97
520.85	951.34
521.21	967.02
521.57	983.10
521.93	998.72
522.29	1014.99
522.65	1031.19
523.01	1047.40
523.37	1063.46
523.73	1079.72
524.09	1095.78
524.45	1112.07
524.81	1128.66
525.17	1145.35
525.53	1162.28
525.89	1179.05
526.25	1195.88
526.61	1212.28
526.97	1228.88
527.33	1245.39
527.68	1261.96
528.04	1278.35
528.40	1294.87
528.76	1311.81
529.12	1328.42
529.48	1345.24
529.84	1361.15
530.20	1377.70
530.56	1394.64
530.91	1411.86
531.27	1428.38
531.63	1444.82
531.99	1461.39
532.35	1477.33
532.71	1493.20
533.07	1509.22
533.42	1525.01
533.78	1540.83
534.14	1556.94
534.50	1572.18
534.86	1587.95
535.21	1602.94
535.57	1618.81
535.93	1634.29
536.29	1648.92
536.65	1663.74
537.00	1678.50
537.36	1693.75
537.72	1708.09
538.08	1722.44
538.44	1736.23
538.79	1750.13
539.15	1763.67
539.51	1777.23
539.87	1791.48
540.22	1805.04
540.58	1818.67
540.94	1831.96
541.29	1844.93
541.65	1857.45
542.01	1870.75
542.37	1883.03
542.72	1895.42
543.08	1907.06
543.44	1919.28
543.79	1930.51
544.15	1941.54
544.51	1952.97
544.87	1963.81
545.22	1974.62
545.58	1984.62
545.94	1994.20
546.29	2003.92
546.65	2013.61
547.01	2022.83
547.36	2031.45
547.72	2039.97
548.07	2047.82
548.43	2055.95
548.79	2063.86
549.14	2071.48
549.50	2078.52
549.86	2086.05
550.21	2093.33
550.57	2100.43
550.92	2106.99
551.28	2114.11
551.64	2121.12
551.99	2127.47
552.35	2133.65
552.70	2139.82
553.06	2145.73
553.41	2152.15
553.77	2158.13
554.13	2164.24
554.48	2170.21
554.84	2175.74
555.19	2180.94
555.55	2186.17
555.90	2190.48
556.26	2195.34
556.61	2200.00
556.97	2204.38
557.32	2208.54
557.68	2212.56
558.03	2216.91
558.39	2220.58
558.74	2225.13
559.10	2229.03
559.45	2232.75
559.81	2237.00
560.16	2240.70
560.52	2244.01
560.87	2247.34
561.23	2250.03
561.58	2252.99
561.94	2255.59
562.29	2257.69
562.64	2260.35
563.00	2262.88
563.35	2266.41
563.71	2269.59
564.06	2272.84
564.42	2275.59
564.77	2278.19
565.12	2280.58
565.48	2282.56
565.83	2284.37
566.19	2285.71
566.54	2286.65
566.89	2287.88
567.25	2288.51
567.60	2289.80
567.96	2291.54
568.31	2292.39
568.66	2293.61
569.02	2294.33
569.37	2294.69
569.72	2295.86
570.08	2296.12
570.43	2296.20
570.78	2295.71
571.14	2294.18
571.49	2292.84
571.84	2292.81
572.20	2291.71
572.55	2290.56
572.90	2288.95
573.26	2287.72
573.61	2286.04
573.96	2284.40
574.31	2281.44
574.67	2278.52
575.02	2275.00
575.37	2271.81
575.72	2268.08
576.08	2264.68
576.43	2261.24
576.78	2257.67
577.13	2254.44
577.49	2251.34
577.84	2247.93
578.19	2244.44
578.54	2240.95
578.90	2236.89
579.25	2231.28
579.60	2226.44
579.95	2221.76
580.30	2216.90
580.66	2211.69
581.01	2206.87
581.36	2201.99
581.71	2197.95
582.06	2193.55
582.42	2189.22
582.77	2183.90
583.12	2179.51
583.47	2174.94
583.82	2170.16
584.17	2165.07
584.53	2159.63
584.88	2154.13
585.23	2148.46
585.58	2142.85
585.93	2137.39
586.28	2132.54
586.63	2127.45
586.98	2122.42
587.34	2117.66
587.69	2112.82
588.04	2107.75
588.39	2102.14
588.74	2095.72
589.09	2089.65
589.44	2082.90
589.79	2076.98
590.14	2071.51
590.49	2065.00
590.84	2058.69
591.19	2052.50
591.54	2046.03
591.89	2038.86
592.25	2032.10
592.60	2024.85
592.95	2017.42
593.30	2010.20
593.65	2002.77
594.00	1995.88
594.35	1988.61
594.70	1980.65
595.05	1973.53
595.40	1966.33
595.75	1958.83
596.10	1952.66
596.45	1945.91
596.80	1939.85
597.15	1933.33
597.50	1926.24
597.85	1919.80
598.19	1913.19
598.54	1906.22
598.89	1899.58
599.24	1893.58
599.59	1886.88
599.94	1880.89
600.29	1874.58
600.64	1867.84
600.99	1860.44
601.34	1853.61
601.69	1846.82
602.04	1840.08
602.39	1832.70
602.74	1825.90
603.08	1819.20
603.43	1812.34
603.78	1805.00
604.13	1797.74
604.48	1790.36
604.83	1783.50
605.18	1776.57
605.53	1768.59
605.87	1760.62
606.22	1753.43
606.57	1745.56
606.92	1738.32
607.27	1731.06
607.62	1724.14
607.96	1716.96
608.31	1710.35
608.66	1702.77
609.01	1695.12
609.36	1687.44
609.70	1679.52
610.05	1671.48
610.40	1663.76
610.75	1655.58
611.10	1647.93
611.44	1639.57
611.79	1631.45
612.14	1622.73
612.49	1613.58
612.83	1605.19
613.18	1597.11
613.53	1589.00
613.88	1580.44
614.22	1572.10
614.57	1563.48
614.92	1555.49
615.27	1547.92
615.61	1539.55
615.96	1531.63
616.31	1524.06
616.65	1516.72
617.00	1509.15
617.35	1501.48
617.70	1493.23
618.04	1484.69
618.39	1476.52
618.74	1468.89
619.08	1460.72
619.43	1453.19
619.78	1446.30
620.12	1439.10
620.47	1431.62
620.82	1423.42
621.16	1415.97
621.51	1408.35
621.85	1400.75
622.20	1392.13
622.55	1383.78
622.89	1375.97
623.24	1368.27
623.59	1360.89
623.93	1353.42
624.28	1346.23
624.62	1338.58
624.97	1331.35
625.32	1324.61
625.66	1317.64
626.01	1310.53
626.35	1303.07
626.70	1295.30
627.04	1287.62
627.39	1279.92
627.73	1272.49
628.08	1265.58
628.43	1258.29
628.77	1250.93
629.12	1243.38
629.46	1236.33
629.81	1228.98
630.15	1221.72
630.50	1214.23
630.84	1205.93
631.19	1197.96
631.53	1190.38
631.88	1182.95
632.22	1175.31
632.57	1167.95
632.91	1160.34
633.26	1152.89
633.60	1145.52
633.95	1138.40
634.29	1131.25
634.64	1124.50
634.98	1117.14
635.32	1110.00
635.67	1103.43
636.01	1096.86
636.36	1089.99
636.70	1083.34
637.05	1076.78
637.39	1070.30
637.73	1063.86
638.08	1057.97
638.42	1051.94
638.77	1045.51
639.11	1038.89
639.45	1032.55
639.80	1026.03
640.14	1019.54
640.49	1012.99
640.83	1006.70
641.17	1000.50
641.52	994.17
641.86	987.73
642.20	981.91
642.55	975.66
642.89	969.11
643.23	962.51
643.58	956.83
643.92	950.63
644.26	944.46
644.61	938.43
644.95	932.41
645.29	925.80
645.64	919.03
645.98	912.69
646.32	906.82
646.66	900.78
647.01	894.91
647.35	889.23
647.69	883.40
648.04	877.85
648.38	872.07
648.72	866.11
649.06	860.00
649.41	854.06
649.75	848.03
650.09	842.17
650.43	836.42
650.78	830.22
651.12	824.32
651.46	818.67
651.80	812.89
652.14	807.49
652.49	802.16
652.83	796.98
653.17	791.30
653.51	785.59
653.85	780.18
654.20	774.51
654.54	768.49
654.88	762.74
655.22	756.82
655.56	751.10
655.90	745.69
656.25	740.47
656.59	735.09
656.93	729.99
657.27	724.76
657.61	719.31
657.95	714.20
658.29	709.11
658.64	703.83
658.98	698.56
659.32	693.08
659.66	687.88
660.00	682.62
660.34	677.69
660.68	672.77
661.02	667.78
661.36	663.00
661.70	658.51
662.05	654.18
662.39	649.91
662.73	645.42
663.07	641.01
663.41	636.58
663.75	632.08
664.09	627.46
664.43	623.14
664.77	619.04
665.11	614.86
665.45	610.70
665.79	606.69
666.13	602.57
666.47	598.52
666.81	594.36
667.15	590.24
667.49	586.29
667.83	582.45
668.17	578.46
668.51	574.46
668.85	570.51
669.19	566.65
669.53	562.84
669.87	558.95
670.21	555.19
670.55	551.56
670.89	548.19
671.23	544.78
671.57	541.21
671.91	537.60
672.25	534.05
672.58	530.53
672.92	527.04
673.26	523.86
673.60	520.70
673.94	517.55
674.28	514.59
674.62	511.66
674.96	508.49
675.30	505.64
675.64	502.70
675.97	499.86
676.31	496.99
676.65	493.97
676.99	491.29
677.33	488.46
677.67	485.61
678.01	482.47
678.34	479.51
678.68	476.61
679.02	473.81
679.36	471.04
679.70	468.35
680.04	465.56
680.37	462.66
680.71	459.87
681.05	457.26
681.39	454.57
681.73	451.90
682.06	449.43
682.40	446.79
682.74	444.24
683.08	441.66
683.42	439.05
683.75	436.61
684.09	434.04
684.43	431.55
684.77	429.04
685.10	426.70
685.44	424.43
685.78	422.18
686.12	419.97
686.45	417.66
686.79	415.34
687.13	413.19
687.46	411.05
687.80	408.89
688.14	406.68
688.48	404.60
688.81	402.29
689.15	400.09
689.49	397.97
689.82	395.87
690.16	393.78
690.50	391.84
690.83	389.83
691.17	387.86
691.51	385.94
691.84	384.16
692.18	382.25
692.52	380.27
692.85	378.29
693.19	376.35
693.52	374.53
693.86	372.69
694.20	370.90
694.53	369.08
694.87	367.24
695.21	365.38
695.54	363.54
695.88	361.84
696.21	360.13
696.55	358.44
696.88	356.75
697.22	355.14
697.56	353.48
697.89	351.84
698.23	350.24
698.56	348.65
698.90	347.03
699.23	345.41
699.57	343.80
699.90	342.31
700.24	340.79
700.58	339.27
700.91	337.81
701.25	336.33
701.58	335.02
701.92	333.65
702.25	332.31
702.59	330.96
702.92	329.68
703.26	328.37
703.59	327.12
703.93	325.95
704.26	324.72
704.60	323.42
704.93	322.15
705.26	320.92
705.60	319.71
705.93	318.52
706.27	317.49
706.60	316.50
706.94	315.42
707.27	314.31
707.61	313.29
707.94	312.27
708.27	311.21
708.61	310.06
708.94	309.07
709.28	308.13
709.61	307.16
709.94	306.19
710.28	305.22
710.61	304.26
710.95	303.18
711.28	302.28
711.61	301.37
711.95	300.48
712.28	299.54
712.61	298.60
712.95	297.69
713.28	296.80
713.61	295.87
713.95	294.98
714.28	294.14
714.61	293.23
714.95	292.34
715.28	291.50
715.61	290.64
715.95	289.77
716.28	288.88
716.61	288.05
716.95	287.26
717.28	286.46
717.61	285.68
717.94	284.95
718.28	284.10
718.61	283.39
718.94	282.64
719.27	281.97
719.61	281.31
719.94	280.65
720.27	279.92
720.60	279.27
720.94	278.66
721.27	278.05
721.60	277.49
721.93	276.89
722.27	276.31
722.60	275.75
722.93	275.15
723.26	274.58
723.59	273.97
723.93	273.40
724.26	272.85
724.59	272.29
724.92	271.76
725.25	271.25
725.59	270.68
725.92	270.18
726.25	269.63
726.58	269.11
726.91	268.58
727.24	268.09
727.57	267.58
727.91	267.05
728.24	266.57
728.57	266.00
728.90	265.53
729.23	265.03
729.56	264.56
729.89	264.10
730.22	263.61
730.55	263.16
730.89	262.69
731.22	262.27
731.55	261.84
731.88	261.39
732.21	260.98
732.54	260.56
732.87	260.13
733.20	259.74
733.53	259.36
733.86	259.00
734.19	258.62
734.52	258.22
734.85	257.91
735.18	257.50
735.51	257.19
735.84	256.81
736.17	256.45
736.50	256.10
736.83	255.84
737.16	255.54
737.49	255.20
737.82	254.87
738.15	254.52
738.48	254.19
738.81	253.87
739.14	253.53
739.47	253.22
739.80	252.91
740.13	252.62
740.46	252.32
740.79	251.99
741.12	251.68
741.45	251.39
741.78	251.04
742.11	250.79
742.44	250.49
742.77	250.22
743.10	249.94
743.43	249.66
743.75	249.30
744.08	249.16
744.41	248.96
744.74	248.68
745.07	248.42
745.40	248.20
745.73	247.97
746.06	247.73
746.39	247.48
746.71	247.26
747.04	246.99
747.37	246.75
747.70	246.52
748.03	246.30
748.36	246.11
748.68	245.87
749.01	245.62
749.34	245.42
749.67	245.26
750.00	245.04
750.33	244.86
750.65	244.67
750.98	244.34
751.31	244.10
751.64	243.92
751.97	243.79
752.29	243.57
752.62	243.35
752.95	243.15
753.28	243.00
753.60	242.76
753.93	242.61
754.26	242.38
754.59	242.16
754.91	241.94
755.24	241.71
755.57	241.52
755.90	241.34
756.22	241.14
756.55	240.87
756.88	240.70
757.20	240.47
757.53	240.30
757.86	240.13
758.19	239.97
758.51	239.79
758.84	239.53
759.17	239.35
759.49	239.16
759.82	239.01
760.15	238.83
760.47	238.69
760.80	238.49
761.13	238.36
761.45	238.20
761.78	238.06
762.11	237.93
762.43	237.76
762.76	237.62
763.08	237.47
763.41	237.36
763.74	237.17
764.06	237.02
764.39	236.82
764.71	236.67
765.04	236.52
765.37	236.35
765.69	236.21
766.02	236.09
766.34	235.95
766.67	235.78
767.00	235.64
767.32	235.55
767.65	235.50
767.97	235.35
768.30	235.21
768.62	235.11
768.95	234.97
769.27	234.87
769.60	234.75
769.92	234.60
770.25	234.45
770.57	234.32
770.90	234.23
771.22	234.13
771.55	234.03
771.87	233.94
772.20	233.86
772.52	233.85
772.85	233.85
773.17	233.79
773.50	233.67
773.82	233.59
774.15	233.44
774.47	233.28
774.80	233.21
775.12	233.14
775.45	233.05
775.77	232.97
776.09	232.88
776.42	232.79
776.74	232.78
777.07	232.70
777.39	232.64
777.72	232.56
778.04	232.52
778.36	232.44
778.69	232.36
779.01	232.26
779.33	232.13
779.66	231.95
779.98	231.86
780.31	231.83
780.63	231.81
780.95	231.77
781.28	231.75
781.60	231.70
781.92	231.62
782.25	231.61
782.57	231.57
782.89	231.52
783.22	231.48
783.54	231.41
783.86	231.37
784.19	231.31
784.51	231.26
784.83	231.20
785.16	231.12
785.48	231.07
785.80	231.08
786.12	231.02
786.45	230.95
786.77	230.92
787.09	230.87
787.42	230.79
787.74	230.77
788.06	230.72
788.38	230.67
788.71	230.65
789.03	230.56
789.35	230.51
789.67	230.46
789.99	230.43
790.32	230.40
790.64	230.40
790.96	230.47
791.28	230.41
791.61	230.38
791.93	230.39
792.25	230.36
792.57	230.37
792.89	230.35
793.21	230.36
793.54	230.34
793.86	230.30
794.18	230.29
794.50	230.25
794.82	230.20
795.14	230.17
795.47	230.15
795.79	230.14
796.11	230.11
796.43	230.09
796.75	230.03
797.07	229.98
797.39	229.93
797.71	229.83
798.04	229.81
798.36	229.79
798.68	229.74
799.00	229.74
799.32	229.64
799.64	229.62
799.96	229.61
800.28	229.58
800.60	229.54
800.92	229.49
801.24	229.44
801.56	229.41
801.89	229.35
802.21	229.32
802.53	229.28
802.85	229.25
803.17	229.23
803.49	229.19
803.81	229.13
804.13	229.07
804.45	229.00
804.77	228.97
805.09	228.95
805.41	228.92
805.73	228.85
806.05	228.78
806.37	228.72
806.69	228.66
807.01	228.63
807.33	228.60
807.65	228.56
807.97	228.57
808.28	228.53
808.60	228.53
808.92	228.48
809.24	228.51
809.56	228.46
809.88	228.42
810.20	228.40
810.52	228.40
810.84	228.37
811.16	228.32
811.48	228.28
811.80	228.23
812.12	228.18
812.43	228.16
812.75	228.13
813.07	228.12
813.39	228.11
813.71	228.05
814.03	228.02
814.35	227.98
814.67	227.92
814.98	227.87
815.30	227.82
815.62	227.78
815.94	227.65
816.26	227.69
816.58	227.65
816.89	227.61
817.21	227.58
817.53	227.56
817.85	227.53
818.17	227.49
818.48	227.44
818.80	227.44
819.12	227.41
819.44	227.39
819.76	227.33
820.07	227.31
820.39	227.29
820.71	227.28
821.03	227.24
821.34	227.21
821.66	227.23
821.98	227.25
822.30	227.23
822.61	227.28
822.93	227.21
823.25	227.20
823.57	227.20
823.88	227.21
824.20	227.19
824.52	227.23
824.83	227.22
825.15	227.23
825.47	227.22
825.79	227.24
826.10	227.22
826.42	227.23
826.74	227.22
827.05	227.22
827.37	227.17
827.69	227.18
828.00	227.15
828.32	227.13
828.64	227.09
828.95	227.16
829.27	227.14
829.58	227.14
829.90	227.15
830.22	227.13
830.53	227.09
830.85	227.07
831.17	227.04
831.48	227.04
831.80	227.01
832.11	226.98
832.43	226.96
832.75	226.94
833.06	226.99
833.38	226.97
833.69	226.96
834.01	226.99
834.32	226.95
834.64	226.96
834.96	226.94
835.27	226.97
835.59	226.91
835.90	226.91
836.22	226.88
836.53	226.85
836.85	226.84
837.16	226.94
837.48	226.92
837.79	226.95
838.11	226.93
838.42	226.93
838.74	226.96
839.05	226.92
839.37	226.93
839.68	226.88
840.00	226.88
840.31	226.88
840.63	226.87
840.94	226.85
841.26	226.83
841.57	226.85
841.88	226.81
842.20	226.75
842.51	226.69
842.83	226.70
843.14	226.79
843.46	226.80
843.77	226.75
844.08	226.75
844.40	226.71
844.71	226.68
845.03	226.66
845.34	226.62
845.65	226.63
845.97	226.64
846.28	226.61
846.60	226.58
846.91	226.56
847.22	226.55
847.54	226.57
847.85	226.57
848.16	226.56
848.48	226.54
848.79	226.61
849.10	226.64
849.42	226.64
849.73	226.59
850.04	226.57
850.36	226.51
850.67	226.52
850.98	226.54
851.30	226.60
851.61	226.61
851.92	226.60
852.23	226.62
852.55	226.60
852.86	226.62
853.17	226.63
853.49	226.65
853.80	226.66
854.11	226.72
854.42	226.73
854.74	226.69
855.05	226.70
855.36	226.64
855.67	226.63
855.99	226.62
856.30	226.69
856.61	226.69
856.92	226.71
857.23	226.69
857.55	226.67
857.86	226.62
858.17	226.62
858.48	226.61
858.79	226.61
859.11	226.61
859.42	226.60
859.73	226.59
860.04	226.60
860.35	226.58
860.66	226.49
860.98	226.48
861.29	226.53
861.60	226.52
861.91	226.57
862.22	226.57
862.53	226.56
862.84	226.44
863.16	226.45
863.47	226.42
863.78	226.45
864.09	226.44
864.40	226.45
864.71	226.47
865.02	226.49
865.33	226.50
865.64	226.48
865.95	226.46
866.27	226.52
866.58	226.52
866.89	226.52
867.20	226.51
867.51	226.49
867.82	226.47
868.13	226.50
868.44	226.43
868.75	226.46
869.06	226.45
869.37	226.47
869.68	226.44
869.99	226.47
870.30	226.49
870.61	226.51
870.92	226.49
871.23	226.50
871.54	226.50
871.85	226.51
872.16	226.51
872.47	226.51
872.78	226.46
873.09	226.46
873.40	226.45
873.71	226.49
874.02	226.50
874.33	226.50
874.64	226.48
874.95	226.54
875.26	226.50
875.56	226.53
875.87	226.53
876.18	226.54
876.49	226.61
876.80	226.57
877.11	226.56
877.42	226.58
877.73	226.58
878.04	226.60
878.35	226.59
878.66	226.62
878.96	226.65
879.27	226.64
879.58	226.62
879.89	226.63
880.20	226.64
880.51	226.66
880.82	226.64
881.12	226.63
881.43	226.59
881.74	226.57
882.05	226.53
882.36	226.50
882.67	226.49
882.97	226.40
883.28	226.42
883.59	226.41
883.90	226.42
884.21	226.43
884.51	226.39
884.82	226.36
885.13	226.35
885.44	226.30
885.74	226.29
886.05	226.26
886.36	226.27
886.67	226.23
886.98	226.24
887.28	226.24
887.59	226.25
887.90	226.25
888.20	226.25
888.51	226.30
888.82	226.29
889.13	226.26
889.43	226.35
889.74	226.32
890.05	226.32
890.35	226.29
890.66	226.28
890.97	226.28
891.28	226.29
891.58	226.28
891.89	226.30
892.20	226.27
892.50	226.27
892.81	226.24
893.12	226.26
893.42	226.21
893.73	226.20
894.04	226.20
894.34	226.22
894.65	226.24
894.95	226.19
895.26	226.17
895.57	226.24
895.87	226.14
896.18	226.17
896.48	226.18
896.79	226.17
897.10	226.17
897.40	226.20
897.71	226.17
898.01	226.17
898.32	226.15
898.63	226.17
898.93	226.18
899.24	226.20
899.54	226.17
899.85	226.20
900.15	226.21
900.46	226.22
900.76	226.20
901.07	226.21
901.38	226.24
901.68	226.28
901.99	226.23
902.29	226.25
902.60	226.24
902.90	226.20
903.21	226.23
903.51	226.20
903.82	226.21
904.12	226.22
904.43	226.26
904.73	226.30
905.03	226.30
905.34	226.40
905.64	226.38
905.95	226.39
906.25	226.37
906.56	226.41
906.86	226.42
907.17	226.43
907.47	226.42
907.77	226.40
908.08	226.39
908.38	226.38
908.69	226.38
908.99	226.42
909.30	226.46
909.60	226.45
909.90	226.45
910.21	226.37
910.51	226.39
910.81	226.40
911.12	226.39
911.42	226.40
911.73	226.30
912.03	226.31
912.33	226.32
912.64	226.34
912.94	226.32
913.24	226.29
913.55	226.26
913.85	226.25
914.15	226.29
914.46	226.29
914.76	226.30
915.06	226.28
915.37	226.21
915.67	226.18
915.97	226.16
916.27	226.15
916.58	226.23
916.88	226.22
917.18	226.15
917.49	226.20
917.79	226.19
918.09	226.17
918.39	226.20
918.70	226.17
919.00	226.15
919.30	226.15
919.60	226.11
919.91	226.15
920.21	226.15
920.51	226.11
920.81	226.07
921.12	226.08
921.42	226.08
921.72	226.12
922.02	226.12
922.32	226.11
922.63	226.11
922.93	226.11
923.23	226.13
923.53	226.12
923.83	226.05
924.13	226.06
924.44	226.10
924.74	226.10
925.04	226.12
925.34	226.11
925.64	226.09
925.94	226.08
926.24	226.13
926.55	226.14
926.85	226.14
927.15	226.14
927.45	226.16
927.75	226.17
928.05	226.13
928.35	226.11
928.65	226.14
928.95	226.16
929.26	226.14
929.56	226.12
929.86	226.13
930.16	226.14
930.46	226.15
930.76	226.15
931.06	226.08
931.36	226.08
931.66	226.09
931.96	226.08
932.26	226.12
932.56	226.07
932.86	226.05
933.16	226.06
933.46	226.06
933.76	226.03
934.06	226.07
934.36	226.12
934.66	226.15
934.96	226.15
935.26	226.17
935.56	226.19
935.86	226.18
936.16	226.17
936.46	226.19
936.76	226.15
937.06	226.14
937.36	226.18
937.66	226.18
937.96	226.16
938.26	226.16
938.56	226.15
938.86	226.15
939.16	226.18
939.46	226.16
939.76	226.20
940.06	226.19
940.35	226.16
940.65	226.11
940.95	226.11
941.25	226.07
941.55	226.04
941.85	226.06
942.15	226.09
942.45	226.11
942.75	226.08
943.04	226.10
943.34	226.12
943.64	226.10
943.94	226.11
944.24	226.14
944.54	226.14
944.84	226.13
945.13	226.15
945.43	226.14
945.73	226.13
946.03	226.12
946.33	226.12
946.62	226.10
946.92	226.12
947.22	226.08
947.52	226.11
947.82	226.11
948.11	226.06
948.41	226.02
948.71	225.99
949.01	225.99
949.31	225.98
949.60	225.97
949.90	225.94
950.20	225.91
950.50	225.90
950.79	225.93
951.09	225.94
951.39	225.90
951.69	225.86
951.98	225.89
952.28	225.88
952.58	225.86
952.87	225.85
953.17	225.84
953.47	225.85
953.76	225.84
954.06	225.83
954.36	225.81
954.66	225.79
954.95	225.83
955.25	225.81
955.55	225.80
955.84	225.76
956.14	225.78
956.44	225.79
956.73	225.76
957.03	225.71
957.32	225.71
957.62	225.72
957.92	225.77
958.21	225.76
958.51	225.84
958.81	225.87
959.10	225.90
959.40	225.91
959.69	225.91
959.99	225.91
960.29	225.90
960.58	225.91
960.88	225.94
961.17	225.94
961.47	225.97
961.76	225.96
962.06	226.02
962.36	226.01
962.65	226.01
962.95	226.04
963.24	226.06
963.54	226.07
963.83	226.07
964.13	226.05
964.42	226.02
964.72	225.98
965.01	225.97
965.31	225.95
965.60	225.96
965.90	226.03
966.19	226.02
966.49	226.04
966.78	226.02
967.08	226.01
967.37	226.00
967.67	226.00
967.96	226.04
968.26	226.05
968.55	226.06
968.85	226.06
969.14	226.06
969.43	226.06
969.73	226.08
970.02	226.08
970.32	226.08
970.61	226.10
970.91	226.05
971.20	226.03
971.49	226.03
971.79	226.03
972.08	225.94
972.38	225.96
972.67	225.90
972.96	225.94
973.26	225.96
973.55	225.98
973.85	225.95
974.14	225.94
974.43	225.91
974.73	225.94
975.02	225.92
975.31	225.88
975.61	225.85
975.90	225.84
976.19	225.80
976.49	225.79
976.78	225.76
977.07	225.78
977.37	225.78
977.66	225.76
977.95	225.75
978.24	225.75
978.54	225.76
978.83	225.79
979.12	225.80
979.42	225.77
979.71	225.73
980.00	225.74
980.29	225.76
980.59	225.74
980.88	225.75
981.17	225.74
981.46	225.76
981.76	225.77
982.05	225.77
982.34	225.78
982.63	225.79
982.93	225.79
983.22	225.80
983.51	225.81
983.80	225.84
984.09	225.83
984.39	225.83
984.68	225.78
984.97	225.75
985.26	225.72
985.55	225.77
985.85	225.77
986.14	225.79
986.43	225.78
986.72	225.78
987.01	225.75
987.30	225.75
987.59	225.72
987.89	225.72
988.18	225.72
988.47	225.73
988.76	225.67
989.05	225.68
989.34	225.69
989.63	225.70
989.92	225.69
990.22	225.68
990.51	225.68
990.80	225.71
991.09	225.75
991.38	225.75
991.67	225.71
991.96	225.70
992.25	225.71
992.54	225.68
992.83	225.69
993.12	225.66
993.41	225.67
993.70	225.72
993.99	225.74
994.28	225.76
994.58	225.79
994.87	225.81
995.16	225.81
995.45	225.80
995.74	225.76
996.03	225.76
996.32	225.81
996.61	225.84
996.90	225.85
997.19	225.82
997.48	225.82
997.77	225.83
998.06	225.84
998.34	225.82
998.63	225.82
998.92	225.80
999.21	225.82
999.50	225.87
999.79	225.82
1000.08	225.82
1000.37	225.81
1000.66	225.75
1000.95	225.81
1001.24	225.81
1001.53	225.85
1001.82	225.85
1002.11	225.83
1002.40	225.81
1002.68	225.79
1002.97	225.85
1003.26	225.85
1003.55	225.86
1003.84	225.87
1004.13	225.89
1004.42	225.87
1004.71	225.86
1004.99	225.89
1005.28	225.89
1005.57	225.83
1005.86	225.81
1006.15	225.77
1006.44	225.76
1006.72	225.79
1007.01	225.75
1007.30	225.75
1007.59	225.72
1007.88	225.73
1008.17	225.76
1008.45	225.72
1008.74	225.70
1009.03	225.65
1009.32	225.65
1009.60	225.60
1009.89	225.58
1010.18	225.54
1010.47	225.50
1010.76	225.52
1011.04	225.50
1011.33	225.49
1011.62	225.49
1011.91	225.52
1012.19	225.52
1012.48	225.50
1012.77	225.50
1013.05	225.59
1013.34	225.58
1013.63	225.55
1013.92	225.55
1014.20	225.52
1014.49	225.52
1014.78	225.52
1015.06	225.49
1015.35	225.50
1015.64	225.54
1015.92	225.54
1016.21	225.55
1016.50	225.60
1016.78	225.63
1017.07	225.64
1017.36	225.62
1017.64	225.65
1017.93	225.67
1018.22	225.70
1018.50	225.72
1018.79	225.70
1019.08	225.60
1019.36	225.63
1019.65	225.60
1019.93	225.63
1020.22	225.70
1020.51	225.77
1020.79	225.75
1021.08	225.94
1021.36	225.44
1021.65	225.41
1021.94	225.20
1022.22	226.08
1022.51	225.16
1022.79	226.13
1023.08	226.67
1023.36	226.79
1023.65	225.13
>>>>>End Processed Spectral Data<<<<<
