SpectraSuite Data File
++++++++++++++++++++++++++++++++++++
Date: Fri Feb 01 15:38:36 EST 2013
User: group
Dark Spectrum Present: No
Reference Spectrum Present: No
Number of Sampled Component Spectra: 1
Spectrometers: USB2E7196
Integration Time (usec): 35000 (USB2E7196)
Spectra Averaged: 100 (USB2E7196)
Boxcar Smoothing: 10 (USB2E7196)
Correct for Electrical Dark: No (USB2E7196)
Strobe/Lamp Enabled: No (USB2E7196)
Correct for Detector Non-linearity: No (USB2E7196)
Correct for Stray Light: No (USB2E7196)
Number of Pixels in Processed Spectrum: 2048
>>>>>Begin Processed Spectral Data<<<<<
339.09	0.00
339.48	214.98
339.86	215.83
340.24	217.49
340.63	218.93
341.01	221.97
341.39	221.31
341.78	223.00
342.16	224.86
342.54	224.36
342.93	213.16
343.31	223.95
343.69	224.47
344.07	224.96
344.46	225.40
344.84	225.79
345.22	226.04
345.60	226.30
345.99	226.48
346.37	226.58
346.75	226.68
347.13	226.77
347.52	226.83
347.90	226.89
348.28	226.91
348.66	226.96
349.05	226.95
349.43	227.00
349.81	227.06
350.19	227.09
350.57	227.20
350.96	227.27
351.34	227.35
351.72	227.46
352.10	227.56
352.48	227.63
352.87	227.70
353.25	227.74
353.63	227.81
354.01	227.89
354.39	228.02
354.77	228.08
355.15	228.17
355.54	228.26
355.92	228.32
356.30	228.38
356.68	228.52
357.06	228.58
357.44	228.61
357.82	228.69
358.20	228.78
358.58	228.83
358.97	228.89
359.35	228.96
359.73	229.01
360.11	229.04
360.49	229.10
360.87	229.13
361.25	229.22
361.63	229.31
362.01	229.35
362.39	229.34
362.77	229.39
363.15	229.40
363.53	229.43
363.91	229.43
364.29	229.46
364.67	229.37
365.05	229.37
365.43	229.39
365.81	229.39
366.19	229.41
366.57	229.43
366.95	229.41
367.33	229.40
367.71	229.39
368.09	229.39
368.47	229.36
368.85	229.32
369.23	229.30
369.61	229.21
369.99	229.21
370.37	229.17
370.75	229.21
371.13	229.15
371.51	229.06
371.89	229.03
372.27	228.99
372.65	228.95
373.03	228.90
373.41	228.85
373.78	228.80
374.16	228.70
374.54	228.60
374.92	228.51
375.30	228.41
375.68	228.31
376.06	228.23
376.44	228.17
376.82	228.11
377.19	228.03
377.57	227.99
377.95	227.87
378.33	227.79
378.71	227.62
379.09	227.57
379.47	227.51
379.84	227.41
380.22	227.32
380.60	227.22
380.98	227.15
381.36	227.08
381.73	226.96
382.11	226.88
382.49	226.86
382.87	226.81
383.25	226.77
383.62	226.84
384.00	226.79
384.38	226.71
384.76	226.68
385.13	226.66
385.51	226.57
385.89	226.50
386.27	226.44
386.64	226.43
387.02	226.35
387.40	226.31
387.78	226.28
388.15	226.24
388.53	226.22
388.91	226.14
389.29	226.10
389.66	226.12
390.04	226.12
390.42	226.07
390.79	226.04
391.17	226.00
391.55	225.88
391.92	225.87
392.30	225.90
392.68	225.88
393.05	225.87
393.43	225.90
393.81	225.91
394.18	225.88
394.56	225.90
394.94	225.98
395.31	226.00
395.69	226.08
396.06	226.11
396.44	226.16
396.82	226.25
397.19	226.36
397.57	226.37
397.95	226.44
398.32	226.50
398.70	226.55
399.07	226.64
399.45	226.71
399.82	226.80
400.20	226.84
400.58	226.92
400.95	226.99
401.33	227.05
401.70	227.23
402.08	227.40
402.45	227.50
402.83	227.62
403.20	227.72
403.58	227.81
403.95	227.95
404.33	228.13
404.71	228.26
405.08	228.44
405.46	228.59
405.83	228.74
406.21	228.87
406.58	229.05
406.96	229.24
407.33	229.43
407.70	229.63
408.08	229.90
408.45	230.13
408.83	230.36
409.20	230.63
409.58	230.79
409.95	231.03
410.33	231.32
410.70	231.54
411.08	231.87
411.45	232.18
411.82	232.49
412.20	232.80
412.57	233.20
412.95	233.51
413.32	233.92
413.69	234.35
414.07	234.81
414.44	235.32
414.82	235.81
415.19	236.36
415.56	236.90
415.94	237.45
416.31	238.08
416.68	238.65
417.06	239.33
417.43	240.02
417.81	240.82
418.18	241.61
418.55	242.48
418.93	243.31
419.30	244.23
419.67	245.19
420.04	246.11
420.42	247.13
420.79	248.28
421.16	249.43
421.54	250.59
421.91	251.80
422.28	253.00
422.66	254.28
423.03	255.60
423.40	256.91
423.77	258.30
424.15	259.70
424.52	261.25
424.89	262.89
425.26	264.45
425.64	265.89
426.01	267.45
426.38	269.10
426.75	270.77
427.13	272.46
427.50	274.19
427.87	276.08
428.24	277.93
428.61	279.68
428.99	281.62
429.36	283.72
429.73	285.79
430.10	287.82
430.47	289.86
430.85	291.91
431.22	294.18
431.59	296.56
431.96	298.85
432.33	301.30
432.70	303.65
433.08	306.45
433.45	309.09
433.82	311.70
434.19	314.57
434.56	317.43
434.93	320.11
435.30	322.77
435.68	325.70
436.05	328.53
436.42	331.31
436.79	333.77
437.16	336.47
437.53	339.29
437.90	342.11
438.27	344.85
438.64	347.72
439.01	350.31
439.38	352.54
439.75	354.69
440.13	357.21
440.50	359.56
440.87	361.47
441.24	363.42
441.61	365.54
441.98	367.06
442.35	368.82
442.72	370.70
443.09	372.51
443.46	373.50
443.83	374.08
444.20	374.60
444.57	375.47
444.94	375.79
445.31	376.13
445.68	376.50
446.05	376.61
446.42	376.24
446.79	375.80
447.16	375.39
447.53	375.09
447.90	373.92
448.27	372.73
448.64	371.12
449.01	369.95
449.37	368.03
449.74	366.13
450.11	363.87
450.48	361.38
450.85	358.90
451.22	356.75
451.59	354.74
451.96	352.79
452.33	350.20
452.70	347.82
453.07	345.02
453.43	342.10
453.80	339.31
454.17	336.59
454.54	334.04
454.91	331.32
455.28	328.60
455.65	326.12
456.02	323.68
456.38	321.51
456.75	318.80
457.12	316.57
457.49	314.33
457.86	312.18
458.23	310.30
458.59	308.18
458.96	306.06
459.33	304.19
459.70	302.33
460.07	300.84
460.43	299.10
460.80	297.43
461.17	296.01
461.54	294.54
461.91	293.13
462.27	291.68
462.64	290.44
463.01	289.10
463.38	287.79
463.74	286.41
464.11	285.25
464.48	284.27
464.85	283.17
465.21	282.31
465.58	281.38
465.95	280.33
466.32	279.46
466.68	278.58
467.05	277.73
467.42	276.85
467.78	275.92
468.15	275.06
468.52	274.41
468.88	273.54
469.25	272.73
469.62	272.13
469.98	271.47
470.35	270.84
470.72	270.26
471.08	269.63
471.45	269.12
471.82	268.58
472.18	267.98
472.55	267.52
472.92	267.03
473.28	266.53
473.65	266.07
474.02	265.63
474.38	265.25
474.75	264.91
475.11	264.56
475.48	264.27
475.85	264.03
476.21	263.82
476.58	263.64
476.94	263.54
477.31	263.36
477.67	263.22
478.04	263.09
478.41	263.00
478.77	263.04
479.14	262.96
479.50	262.98
479.87	263.04
480.23	263.15
480.60	263.21
480.96	263.33
481.33	263.52
481.69	263.69
482.06	263.91
482.42	264.11
482.79	264.35
483.15	264.68
483.52	265.08
483.88	265.41
484.25	265.77
484.61	266.17
484.98	266.62
485.34	267.18
485.71	267.78
486.07	268.38
486.44	268.91
486.80	269.59
487.17	270.31
487.53	271.15
487.90	271.99
488.26	272.88
488.62	273.88
488.99	274.84
489.35	275.88
489.72	277.00
490.08	278.15
490.44	279.39
490.81	280.67
491.17	282.02
491.54	283.52
491.90	285.08
492.26	286.71
492.63	288.49
492.99	290.25
493.36	292.13
493.72	294.18
494.08	296.32
494.45	298.59
494.81	300.95
495.17	303.37
495.54	305.92
495.90	308.64
496.26	311.43
496.63	314.40
496.99	317.52
497.35	320.80
497.72	324.21
498.08	327.74
498.44	331.41
498.80	335.31
499.17	339.33
499.53	343.51
499.89	347.90
500.26	352.33
500.62	357.01
500.98	361.94
501.34	367.02
501.71	372.34
502.07	377.80
502.43	383.44
502.79	389.28
503.16	395.32
503.52	401.59
503.88	407.92
504.24	414.54
504.60	421.41
504.97	428.47
505.33	435.80
505.69	443.52
506.05	451.33
506.41	459.25
506.78	467.38
507.14	475.83
507.50	484.56
507.86	493.62
508.22	502.85
508.59	512.09
508.95	521.66
509.31	531.48
509.67	541.57
510.03	551.85
510.39	562.33
510.75	573.17
511.12	584.04
511.48	595.34
511.84	606.80
512.20	618.34
512.56	630.32
512.92	642.53
513.28	654.79
513.64	667.20
514.00	679.87
514.37	692.84
514.73	705.87
515.09	718.95
515.45	732.23
515.81	745.80
516.17	759.78
516.53	773.89
516.89	788.07
517.25	802.34
517.61	816.78
517.97	831.27
518.33	845.70
518.69	860.50
519.05	875.59
519.41	890.75
519.77	906.38
520.13	921.79
520.49	937.15
520.85	952.66
521.21	968.49
521.57	984.82
521.93	1000.59
522.29	1017.01
522.65	1033.26
523.01	1049.52
523.37	1065.62
523.73	1081.86
524.09	1097.94
524.45	1114.26
524.81	1130.81
525.17	1147.62
525.53	1164.58
525.89	1181.48
526.25	1198.41
526.61	1214.76
526.97	1231.56
527.33	1247.92
527.68	1264.54
528.04	1281.15
528.40	1297.85
528.76	1314.96
529.12	1331.48
529.48	1348.34
529.84	1364.37
530.20	1381.03
530.56	1398.10
530.91	1415.43
531.27	1432.24
531.63	1448.78
531.99	1465.39
532.35	1481.50
532.71	1497.41
533.07	1513.66
533.42	1529.49
533.78	1545.50
534.14	1561.81
534.50	1577.17
534.86	1593.20
535.21	1608.46
535.57	1624.25
535.93	1639.68
536.29	1654.51
536.65	1669.66
537.00	1684.53
537.36	1699.88
537.72	1714.36
538.08	1728.67
538.44	1742.62
538.79	1756.41
539.15	1770.08
539.51	1783.78
539.87	1798.16
540.22	1811.88
540.58	1825.62
540.94	1838.99
541.29	1851.94
541.65	1864.76
542.01	1877.95
542.37	1890.16
542.72	1902.65
543.08	1914.48
543.44	1926.86
543.79	1938.18
544.15	1949.06
544.51	1960.61
544.87	1971.61
545.22	1982.43
545.58	1992.73
545.94	2002.40
546.29	2012.38
546.65	2022.28
547.01	2031.46
547.36	2040.12
547.72	2048.63
548.07	2056.54
548.43	2064.74
548.79	2072.69
549.14	2080.16
549.50	2087.61
549.86	2095.48
550.21	2102.60
550.57	2109.74
550.92	2116.38
551.28	2123.32
551.64	2130.43
551.99	2137.00
552.35	2143.12
552.70	2149.36
553.06	2155.38
553.41	2161.74
553.77	2167.78
554.13	2173.92
554.48	2180.17
554.84	2185.44
555.19	2190.88
555.55	2196.04
555.90	2200.53
556.26	2205.46
556.61	2210.12
556.97	2214.28
557.32	2218.27
557.68	2222.47
558.03	2226.82
558.39	2230.49
558.74	2235.18
559.10	2239.01
559.45	2242.64
559.81	2247.06
560.16	2250.94
560.52	2254.09
560.87	2257.44
561.23	2260.05
561.58	2262.96
561.94	2265.40
562.29	2268.03
562.64	2270.60
563.00	2273.25
563.35	2276.80
563.71	2279.82
564.06	2283.20
564.42	2286.08
564.77	2288.49
565.12	2290.69
565.48	2292.61
565.83	2294.39
566.19	2295.69
566.54	2296.70
566.89	2297.73
567.25	2298.25
567.60	2299.50
567.96	2301.11
568.31	2302.02
568.66	2303.03
569.02	2303.69
569.37	2304.09
569.72	2304.84
570.08	2304.85
570.43	2304.73
570.78	2303.95
571.14	2302.61
571.49	2301.18
571.84	2300.88
572.20	2299.82
572.55	2298.84
572.90	2297.29
573.26	2296.05
573.61	2294.31
573.96	2292.33
574.31	2289.35
574.67	2286.24
575.02	2282.50
575.37	2279.15
575.72	2275.23
576.08	2271.94
576.43	2268.44
576.78	2264.60
577.13	2261.31
577.49	2258.20
577.84	2254.76
578.19	2251.01
578.54	2247.20
578.90	2242.85
579.25	2237.19
579.60	2232.15
579.95	2227.16
580.30	2222.10
580.66	2216.69
581.01	2211.59
581.36	2206.72
581.71	2202.59
582.06	2198.12
582.42	2193.69
582.77	2188.36
583.12	2183.73
583.47	2178.93
583.82	2173.90
584.17	2168.74
584.53	2163.18
584.88	2157.47
585.23	2151.63
585.58	2146.20
585.93	2140.72
586.28	2136.01
586.63	2131.01
586.98	2125.91
587.34	2121.14
587.69	2116.16
588.04	2110.95
588.39	2105.27
588.74	2098.81
589.09	2092.59
589.44	2085.65
589.79	2079.68
590.14	2074.09
590.49	2067.44
590.84	2061.09
591.19	2054.94
591.54	2048.48
591.89	2041.13
592.25	2034.38
592.60	2027.21
592.95	2019.60
593.30	2012.25
593.65	2004.53
594.00	1997.37
594.35	1990.17
594.70	1982.07
595.05	1974.85
595.40	1967.61
595.75	1960.08
596.10	1953.75
596.45	1946.88
596.80	1940.72
597.15	1933.91
597.50	1926.70
597.85	1920.40
598.19	1913.68
598.54	1906.56
598.89	1899.82
599.24	1893.87
599.59	1887.03
599.94	1880.71
600.29	1874.30
600.64	1867.70
600.99	1860.22
601.34	1853.37
601.69	1846.36
602.04	1839.45
602.39	1832.09
602.74	1825.12
603.08	1818.32
603.43	1811.52
603.78	1804.34
604.13	1797.12
604.48	1789.85
604.83	1783.09
605.18	1776.08
605.53	1768.05
605.87	1760.07
606.22	1752.84
606.57	1744.90
606.92	1737.63
607.27	1730.48
607.62	1723.64
607.96	1716.26
608.31	1709.62
608.66	1702.03
609.01	1694.41
609.36	1686.78
609.70	1678.70
610.05	1670.63
610.40	1662.94
610.75	1654.69
611.10	1646.94
611.44	1638.63
611.79	1630.65
612.14	1621.87
612.49	1612.66
612.83	1604.29
613.18	1596.20
613.53	1588.11
613.88	1579.58
614.22	1571.35
614.57	1562.70
614.92	1554.66
615.27	1547.22
615.61	1538.87
615.96	1530.82
616.31	1523.17
616.65	1515.81
617.00	1508.24
617.35	1500.71
617.70	1492.48
618.04	1484.02
618.39	1475.75
618.74	1468.19
619.08	1459.84
619.43	1452.34
619.78	1445.47
620.12	1438.22
620.47	1430.57
620.82	1422.40
621.16	1415.11
621.51	1407.47
621.85	1399.82
622.20	1391.32
622.55	1382.86
622.89	1375.04
623.24	1367.45
623.59	1360.16
623.93	1352.62
624.28	1345.34
624.62	1337.73
624.97	1330.48
625.32	1323.82
625.66	1316.78
626.01	1309.50
626.35	1302.06
626.70	1294.23
627.04	1286.38
627.39	1278.58
627.73	1271.30
628.08	1264.34
628.43	1256.86
628.77	1249.39
629.12	1241.84
629.46	1234.61
629.81	1227.33
630.15	1220.13
630.50	1212.64
630.84	1204.41
631.19	1196.57
631.53	1189.15
631.88	1181.60
632.22	1174.02
632.57	1166.62
632.91	1159.13
633.26	1151.74
633.60	1144.44
633.95	1137.38
634.29	1130.44
634.64	1123.85
634.98	1116.52
635.32	1109.40
635.67	1103.00
636.01	1096.37
636.36	1089.55
636.70	1083.06
637.05	1076.37
637.39	1069.94
637.73	1063.53
638.08	1057.70
638.42	1051.72
638.77	1045.22
639.11	1038.63
639.45	1032.23
639.80	1025.57
640.14	1019.23
640.49	1012.68
640.83	1006.29
641.17	1000.06
641.52	993.72
641.86	987.32
642.20	981.44
642.55	975.16
642.89	968.51
643.23	962.08
643.58	956.37
643.92	950.21
644.26	944.17
644.61	938.16
644.95	932.10
645.29	925.43
645.64	918.73
645.98	912.59
646.32	906.83
646.66	900.86
647.01	895.07
647.35	889.32
647.69	883.47
648.04	878.05
648.38	872.20
648.72	866.19
649.06	860.04
649.41	854.13
649.75	848.13
650.09	842.26
650.43	836.48
650.78	830.35
651.12	824.35
651.46	818.59
651.80	812.71
652.14	807.31
652.49	801.97
652.83	796.72
653.17	790.89
653.51	785.04
653.85	779.64
654.20	773.94
654.54	767.95
654.88	762.21
655.22	756.32
655.56	750.70
655.90	745.30
656.25	740.09
656.59	734.73
656.93	729.69
657.27	724.54
657.61	719.12
657.95	713.99
658.29	708.93
658.64	703.78
658.98	698.50
659.32	693.01
659.66	687.78
660.00	682.50
660.34	677.59
660.68	672.75
661.02	667.63
661.36	662.94
661.70	658.46
662.05	654.13
662.39	649.73
662.73	645.32
663.07	640.97
663.41	636.55
663.75	632.09
664.09	627.44
664.43	623.06
664.77	618.91
665.11	614.67
665.45	610.58
665.79	606.42
666.13	602.33
666.47	598.23
666.81	594.13
667.15	589.99
667.49	586.07
667.83	582.25
668.17	578.39
668.51	574.33
668.85	570.28
669.19	566.39
669.53	562.51
669.87	558.57
670.21	554.86
670.55	551.20
670.89	547.76
671.23	544.33
671.57	540.81
671.91	537.25
672.25	533.81
672.58	530.20
672.92	526.85
673.26	523.74
673.60	520.58
673.94	517.45
674.28	514.54
674.62	511.58
674.96	508.48
675.30	505.53
675.64	502.60
675.97	499.83
676.31	496.98
676.65	494.07
676.99	491.38
677.33	488.46
677.67	485.60
678.01	482.58
678.34	479.66
678.68	476.77
679.02	473.97
679.36	471.15
679.70	468.45
680.04	465.67
680.37	462.77
680.71	460.03
681.05	457.42
681.39	454.73
681.73	452.11
682.06	449.55
682.40	446.99
682.74	444.46
683.08	441.97
683.42	439.35
683.75	436.88
684.09	434.32
684.43	431.86
684.77	429.44
685.10	427.11
685.44	424.81
685.78	422.55
686.12	420.32
686.45	418.07
686.79	415.80
687.13	413.60
687.46	411.47
687.80	409.33
688.14	407.09
688.48	405.03
688.81	402.73
689.15	400.59
689.49	398.46
689.82	396.39
690.16	394.28
690.50	392.35
690.83	390.43
691.17	388.47
691.51	386.59
691.84	384.75
692.18	382.80
692.52	380.76
692.85	378.81
693.19	376.95
693.52	375.13
693.86	373.31
694.20	371.53
694.53	369.73
694.87	367.86
695.21	366.06
695.54	364.24
695.88	362.56
696.21	360.86
696.55	359.22
696.88	357.55
697.22	355.89
697.56	354.27
697.89	352.63
698.23	351.02
698.56	349.38
698.90	347.78
699.23	346.13
699.57	344.64
699.90	343.15
700.24	341.61
700.58	340.02
700.91	338.53
701.25	337.13
701.58	335.72
701.92	334.36
702.25	333.01
702.59	331.65
702.92	330.32
703.26	328.99
703.59	327.77
703.93	326.59
704.26	325.36
704.60	324.04
704.93	322.76
705.26	321.52
705.60	320.37
705.93	319.22
706.27	318.21
706.60	317.18
706.94	316.09
707.27	314.97
707.61	313.92
707.94	312.90
708.27	311.80
708.61	310.71
708.94	309.72
709.28	308.74
709.61	307.76
709.94	306.80
710.28	305.76
710.61	304.74
710.95	303.67
711.28	302.73
711.61	301.76
711.95	300.83
712.28	299.89
712.61	298.87
712.95	297.94
713.28	297.04
713.61	296.09
713.95	295.14
714.28	294.26
714.61	293.38
714.95	292.51
715.28	291.60
715.61	290.72
715.95	289.85
716.28	288.98
716.61	288.15
716.95	287.35
717.28	286.64
717.61	285.85
717.94	285.11
718.28	284.30
718.61	283.62
718.94	282.92
719.27	282.25
719.61	281.62
719.94	280.97
720.27	280.25
720.60	279.56
720.94	278.95
721.27	278.36
721.60	277.79
721.93	277.16
722.27	276.65
722.60	276.12
722.93	275.57
723.26	275.01
723.59	274.42
723.93	273.88
724.26	273.29
724.59	272.76
724.92	272.26
725.25	271.78
725.59	271.23
725.92	270.73
726.25	270.23
726.58	269.75
726.91	269.24
727.24	268.76
727.57	268.33
727.91	267.86
728.24	267.44
728.57	267.01
728.90	266.65
729.23	266.16
729.56	265.75
729.89	265.28
730.22	264.83
730.55	264.41
730.89	263.96
731.22	263.52
731.55	263.09
731.88	262.65
732.21	262.21
732.54	261.83
732.87	261.40
733.20	261.03
733.53	260.61
733.86	260.24
734.19	259.88
734.52	259.50
734.85	259.14
735.18	258.74
735.51	258.36
735.84	257.95
736.17	257.60
736.50	257.22
736.83	256.97
737.16	256.67
737.49	256.38
737.82	256.06
738.15	255.78
738.48	255.46
738.81	255.16
739.14	254.86
739.47	254.54
739.80	254.27
740.13	253.96
740.46	253.68
740.79	253.34
741.12	253.01
741.45	252.71
741.78	252.40
742.11	252.12
742.44	251.78
742.77	251.50
743.10	251.17
743.43	250.86
743.75	250.50
744.08	250.33
744.41	250.05
744.74	249.79
745.07	249.50
745.40	249.23
745.73	248.98
746.06	248.74
746.39	248.48
746.71	248.20
747.04	247.91
747.37	247.62
747.70	247.41
748.03	247.17
748.36	246.97
748.68	246.72
749.01	246.44
749.34	246.22
749.67	245.98
750.00	245.80
750.33	245.65
750.65	245.44
750.98	245.11
751.31	244.88
751.64	244.64
751.97	244.46
752.29	244.21
752.62	243.95
752.95	243.69
753.28	243.48
753.60	243.23
753.93	243.04
754.26	242.84
754.59	242.61
754.91	242.38
755.24	242.16
755.57	241.95
755.90	241.79
756.22	241.56
756.55	241.33
756.88	241.10
757.20	240.86
757.53	240.60
757.86	240.39
758.19	240.21
758.51	240.03
758.84	239.78
759.17	239.61
759.49	239.45
759.82	239.36
760.15	239.21
760.47	239.05
760.80	238.89
761.13	238.76
761.45	238.60
761.78	238.46
762.11	238.32
762.43	238.17
762.76	238.02
763.08	237.91
763.41	237.81
763.74	237.70
764.06	237.55
764.39	237.43
764.71	237.31
765.04	237.17
765.37	237.01
765.69	236.93
766.02	236.81
766.34	236.67
766.67	236.51
767.00	236.41
767.32	236.37
767.65	236.32
767.97	236.21
768.30	236.12
768.62	236.02
768.95	235.85
769.27	235.74
769.60	235.67
769.92	235.53
770.25	235.40
770.57	235.27
770.90	235.17
771.22	235.08
771.55	235.01
771.87	234.91
772.20	234.83
772.52	234.81
772.85	234.83
773.17	234.73
773.50	234.63
773.82	234.51
774.15	234.37
774.47	234.21
774.80	234.07
775.12	233.99
775.45	233.92
775.77	233.90
776.09	233.87
776.42	233.77
776.74	233.76
777.07	233.70
777.39	233.68
777.72	233.61
778.04	233.55
778.36	233.45
778.69	233.43
779.01	233.38
779.33	233.24
779.66	233.08
779.98	233.02
780.31	232.96
780.63	232.93
780.95	232.88
781.28	232.84
781.60	232.81
781.92	232.76
782.25	232.69
782.57	232.61
782.89	232.53
783.22	232.43
783.54	232.35
783.86	232.30
784.19	232.19
784.51	232.18
784.83	232.11
785.16	232.07
785.48	232.01
785.80	231.98
786.12	231.92
786.45	231.84
786.77	231.77
787.09	231.72
787.42	231.64
787.74	231.62
788.06	231.56
788.38	231.50
788.71	231.46
789.03	231.41
789.35	231.39
789.67	231.37
789.99	231.35
790.32	231.28
790.64	231.22
790.96	231.29
791.28	231.21
791.61	231.19
791.93	231.15
792.25	231.07
792.57	231.10
792.89	231.04
793.21	231.03
793.54	230.99
793.86	230.93
794.18	230.88
794.50	230.80
794.82	230.77
795.14	230.75
795.47	230.74
795.79	230.71
796.11	230.63
796.43	230.54
796.75	230.51
797.07	230.46
797.39	230.42
797.71	230.29
798.04	230.26
798.36	230.21
798.68	230.17
799.00	230.15
799.32	230.03
799.64	230.03
799.96	230.03
800.28	230.02
800.60	230.01
800.92	229.99
801.24	229.95
801.56	229.92
801.89	229.85
802.21	229.77
802.53	229.71
802.85	229.73
803.17	229.78
803.49	229.71
803.81	229.71
804.13	229.70
804.45	229.67
804.77	229.65
805.09	229.64
805.41	229.60
805.73	229.53
806.05	229.49
806.37	229.42
806.69	229.38
807.01	229.34
807.33	229.29
807.65	229.23
807.97	229.27
808.28	229.25
808.60	229.26
808.92	229.28
809.24	229.32
809.56	229.29
809.88	229.21
810.20	229.23
810.52	229.21
810.84	229.18
811.16	229.15
811.48	229.12
811.80	229.10
812.12	229.09
812.43	229.10
812.75	229.10
813.07	229.12
813.39	229.10
813.71	229.07
814.03	229.08
814.35	229.09
814.67	229.01
814.98	228.96
815.30	228.94
815.62	228.90
815.94	228.83
816.26	228.80
816.58	228.77
816.89	228.78
817.21	228.75
817.53	228.72
817.85	228.74
818.17	228.72
818.48	228.70
818.80	228.71
819.12	228.73
819.44	228.73
819.76	228.68
820.07	228.67
820.39	228.68
820.71	228.63
821.03	228.60
821.34	228.59
821.66	228.60
821.98	228.58
822.30	228.56
822.61	228.59
822.93	228.55
823.25	228.53
823.57	228.47
823.88	228.50
824.20	228.48
824.52	228.46
824.83	228.41
825.15	228.39
825.47	228.36
825.79	228.32
826.10	228.27
826.42	228.24
826.74	228.24
827.05	228.22
827.37	228.22
827.69	228.20
828.00	228.17
828.32	228.15
828.64	228.13
828.95	228.13
829.27	228.10
829.58	228.07
829.90	228.09
830.22	228.10
830.53	228.02
830.85	228.03
831.17	227.99
831.48	227.98
831.80	227.97
832.11	227.95
832.43	227.91
832.75	227.91
833.06	227.98
833.38	227.92
833.69	227.91
834.01	227.88
834.32	227.88
834.64	227.87
834.96	227.87
835.27	227.86
835.59	227.83
835.90	227.80
836.22	227.80
836.53	227.74
836.85	227.70
837.16	227.83
837.48	227.78
837.79	227.84
838.11	227.87
838.42	227.86
838.74	227.86
839.05	227.85
839.37	227.84
839.68	227.77
840.00	227.76
840.31	227.77
840.63	227.78
840.94	227.78
841.26	227.76
841.57	227.76
841.88	227.79
842.20	227.81
842.51	227.77
842.83	227.77
843.14	227.86
843.46	227.85
843.77	227.79
844.08	227.78
844.40	227.72
844.71	227.71
845.03	227.68
845.34	227.66
845.65	227.65
845.97	227.65
846.28	227.65
846.60	227.65
846.91	227.61
847.22	227.59
847.54	227.57
847.85	227.55
848.16	227.54
848.48	227.50
848.79	227.51
849.10	227.54
849.42	227.51
849.73	227.39
850.04	227.37
850.36	227.31
850.67	227.30
850.98	227.28
851.30	227.29
851.61	227.31
851.92	227.31
852.23	227.33
852.55	227.33
852.86	227.34
853.17	227.36
853.49	227.36
853.80	227.38
854.11	227.42
854.42	227.46
854.74	227.45
855.05	227.46
855.36	227.43
855.67	227.43
855.99	227.47
856.30	227.59
856.61	227.63
856.92	227.66
857.23	227.68
857.55	227.69
857.86	227.65
858.17	227.67
858.48	227.65
858.79	227.60
859.11	227.61
859.42	227.59
859.73	227.58
860.04	227.59
860.35	227.56
860.66	227.51
860.98	227.51
861.29	227.54
861.60	227.56
861.91	227.57
862.22	227.56
862.53	227.53
862.84	227.45
863.16	227.48
863.47	227.42
863.78	227.40
864.09	227.39
864.40	227.41
864.71	227.40
865.02	227.42
865.33	227.47
865.64	227.44
865.95	227.44
866.27	227.50
866.58	227.49
866.89	227.52
867.20	227.52
867.51	227.48
867.82	227.44
868.13	227.46
868.44	227.41
868.75	227.43
869.06	227.41
869.37	227.41
869.68	227.33
869.99	227.36
870.30	227.36
870.61	227.38
870.92	227.33
871.23	227.31
871.54	227.31
871.85	227.34
872.16	227.37
872.47	227.39
872.78	227.32
873.09	227.33
873.40	227.30
873.71	227.29
874.02	227.29
874.33	227.27
874.64	227.25
874.95	227.26
875.26	227.24
875.56	227.25
875.87	227.27
876.18	227.29
876.49	227.40
876.80	227.38
877.11	227.37
877.42	227.40
877.73	227.43
878.04	227.39
878.35	227.37
878.66	227.37
878.96	227.35
879.27	227.35
879.58	227.35
879.89	227.35
880.20	227.40
880.51	227.39
880.82	227.41
881.12	227.37
881.43	227.38
881.74	227.40
882.05	227.40
882.36	227.40
882.67	227.41
882.97	227.29
883.28	227.29
883.59	227.26
883.90	227.27
884.21	227.26
884.51	227.30
884.82	227.23
885.13	227.21
885.44	227.21
885.74	227.25
886.05	227.26
886.36	227.27
886.67	227.25
886.98	227.33
887.28	227.34
887.59	227.38
887.90	227.34
888.20	227.29
888.51	227.30
888.82	227.27
889.13	227.29
889.43	227.37
889.74	227.38
890.05	227.38
890.35	227.36
890.66	227.35
890.97	227.31
891.28	227.33
891.58	227.30
891.89	227.28
892.20	227.23
892.50	227.20
892.81	227.19
893.12	227.14
893.42	227.07
893.73	227.05
894.04	227.02
894.34	227.03
894.65	227.06
894.95	227.06
895.26	227.05
895.57	227.05
895.87	226.96
896.18	226.96
896.48	226.95
896.79	226.96
897.10	226.95
897.40	226.97
897.71	227.00
898.01	227.00
898.32	227.01
898.63	226.99
898.93	226.99
899.24	226.96
899.54	226.97
899.85	226.95
900.15	226.92
900.46	226.91
900.76	226.91
901.07	226.90
901.38	226.89
901.68	226.88
901.99	226.82
902.29	226.84
902.60	226.85
902.90	226.85
903.21	226.84
903.51	226.84
903.82	226.82
904.12	226.83
904.43	226.82
904.73	226.80
905.03	226.82
905.34	226.91
905.64	226.93
905.95	226.96
906.25	226.98
906.56	227.04
906.86	227.02
907.17	227.01
907.47	227.03
907.77	227.01
908.08	227.01
908.38	227.03
908.69	227.03
908.99	227.03
909.30	227.02
909.60	227.02
909.90	227.05
910.21	227.02
910.51	227.02
910.81	227.03
911.12	227.04
911.42	227.04
911.73	226.94
912.03	226.98
912.33	226.97
912.64	226.94
912.94	226.90
913.24	226.92
913.55	226.92
913.85	226.90
914.15	226.91
914.46	226.96
914.76	226.95
915.06	226.94
915.37	226.93
915.67	226.98
915.97	227.00
916.27	226.99
916.58	227.01
916.88	226.97
917.18	226.95
917.49	227.02
917.79	227.05
918.09	227.06
918.39	227.06
918.70	227.05
919.00	227.05
919.30	227.08
919.60	227.09
919.91	227.04
920.21	227.06
920.51	227.04
920.81	227.02
921.12	227.04
921.42	227.06
921.72	227.07
922.02	227.05
922.32	227.04
922.63	227.03
922.93	227.09
923.23	227.10
923.53	227.09
923.83	227.01
924.13	227.02
924.44	227.04
924.74	227.04
925.04	227.04
925.34	227.10
925.64	227.07
925.94	227.05
926.24	227.15
926.55	227.13
926.85	227.16
927.15	227.15
927.45	227.14
927.75	227.14
928.05	227.13
928.35	227.13
928.65	227.16
928.95	227.16
929.26	227.13
929.56	227.17
929.86	227.22
930.16	227.23
930.46	227.19
930.76	227.18
931.06	227.15
931.36	227.13
931.66	227.12
931.96	227.15
932.26	227.17
932.56	227.13
932.86	227.12
933.16	227.10
933.46	227.13
933.76	227.11
934.06	227.08
934.36	227.12
934.66	227.10
934.96	227.06
935.26	227.08
935.56	227.11
935.86	227.06
936.16	227.03
936.46	227.01
936.76	227.04
937.06	227.05
937.36	227.03
937.66	227.04
937.96	227.01
938.26	226.97
938.56	226.94
938.86	226.93
939.16	226.98
939.46	227.00
939.76	227.01
940.06	227.03
940.35	227.05
940.65	226.97
940.95	226.99
941.25	226.98
941.55	226.97
941.85	226.94
942.15	226.95
942.45	226.96
942.75	226.98
943.04	226.94
943.34	226.94
943.64	226.93
943.94	226.94
944.24	226.95
944.54	227.00
944.84	227.00
945.13	227.00
945.43	227.00
945.73	226.97
946.03	226.95
946.33	226.95
946.62	226.91
946.92	226.95
947.22	226.98
947.52	226.99
947.82	226.99
948.11	226.98
948.41	226.95
948.71	226.94
949.01	226.97
949.31	226.96
949.60	226.94
949.90	226.97
950.20	226.94
950.50	226.89
950.79	226.87
951.09	226.91
951.39	226.89
951.69	226.89
951.98	226.90
952.28	226.91
952.58	226.88
952.87	226.93
953.17	226.92
953.47	226.87
953.76	226.85
954.06	226.84
954.36	226.83
954.66	226.85
954.95	226.87
955.25	226.86
955.55	226.89
955.84	226.89
956.14	226.92
956.44	226.92
956.73	226.94
957.03	226.94
957.32	226.93
957.62	226.90
957.92	226.90
958.21	226.91
958.51	227.02
958.81	227.05
959.10	227.03
959.40	227.04
959.69	227.05
959.99	227.11
960.29	227.10
960.58	227.13
960.88	227.18
961.17	227.16
961.47	227.14
961.76	227.11
962.06	227.11
962.36	227.09
962.65	227.10
962.95	227.13
963.24	227.11
963.54	227.12
963.83	227.15
964.13	227.15
964.42	227.13
964.72	227.04
965.01	227.06
965.31	227.03
965.60	227.05
965.90	227.13
966.19	227.06
966.49	227.05
966.78	227.04
967.08	226.99
967.37	227.04
967.67	227.04
967.96	227.06
968.26	227.05
968.55	227.05
968.85	227.03
969.14	226.99
969.43	227.01
969.73	227.02
970.02	226.99
970.32	226.97
970.61	226.97
970.91	226.93
971.20	226.89
971.49	226.88
971.79	226.87
972.08	226.78
972.38	226.79
972.67	226.79
972.96	226.80
973.26	226.81
973.55	226.77
973.85	226.77
974.14	226.75
974.43	226.76
974.73	226.75
975.02	226.74
975.31	226.75
975.61	226.72
975.90	226.71
976.19	226.70
976.49	226.70
976.78	226.71
977.07	226.71
977.37	226.70
977.66	226.70
977.95	226.67
978.24	226.70
978.54	226.69
978.83	226.68
979.12	226.66
979.42	226.63
979.71	226.63
980.00	226.62
980.29	226.62
980.59	226.57
980.88	226.58
981.17	226.60
981.46	226.60
981.76	226.60
982.05	226.63
982.34	226.63
982.63	226.64
982.93	226.62
983.22	226.62
983.51	226.67
983.80	226.72
984.09	226.70
984.39	226.68
984.68	226.70
984.97	226.71
985.26	226.70
985.55	226.72
985.85	226.68
986.14	226.71
986.43	226.74
986.72	226.76
987.01	226.74
987.30	226.71
987.59	226.71
987.89	226.71
988.18	226.67
988.47	226.65
988.76	226.66
989.05	226.67
989.34	226.65
989.63	226.61
989.92	226.61
990.22	226.63
990.51	226.63
990.80	226.62
991.09	226.63
991.38	226.64
991.67	226.59
991.96	226.59
992.25	226.59
992.54	226.57
992.83	226.56
993.12	226.55
993.41	226.56
993.70	226.60
993.99	226.63
994.28	226.69
994.58	226.72
994.87	226.69
995.16	226.69
995.45	226.70
995.74	226.70
996.03	226.69
996.32	226.72
996.61	226.72
996.90	226.71
997.19	226.73
997.48	226.73
997.77	226.75
998.06	226.77
998.34	226.78
998.63	226.81
998.92	226.83
999.21	226.88
999.50	226.89
999.79	226.85
1000.08	226.83
1000.37	226.82
1000.66	226.78
1000.95	226.80
1001.24	226.80
1001.53	226.82
1001.82	226.81
1002.11	226.81
1002.40	226.79
1002.68	226.83
1002.97	226.90
1003.26	226.90
1003.55	226.87
1003.84	226.88
1004.13	226.90
1004.42	226.87
1004.71	226.85
1004.99	226.82
1005.28	226.80
1005.57	226.81
1005.86	226.79
1006.15	226.80
1006.44	226.76
1006.72	226.80
1007.01	226.80
1007.30	226.79
1007.59	226.76
1007.88	226.76
1008.17	226.77
1008.45	226.79
1008.74	226.71
1009.03	226.66
1009.32	226.64
1009.60	226.65
1009.89	226.63
1010.18	226.59
1010.47	226.56
1010.76	226.54
1011.04	226.54
1011.33	226.53
1011.62	226.50
1011.91	226.49
1012.19	226.46
1012.48	226.46
1012.77	226.39
1013.05	226.47
1013.34	226.47
1013.63	226.47
1013.92	226.47
1014.20	226.41
1014.49	226.35
1014.78	226.38
1015.06	226.35
1015.35	226.34
1015.64	226.33
1015.92	226.35
1016.21	226.35
1016.50	226.39
1016.78	226.42
1017.07	226.42
1017.36	226.42
1017.64	226.44
1017.93	226.48
1018.22	226.51
1018.50	226.51
1018.79	226.53
1019.08	226.48
1019.36	226.48
1019.65	226.49
1019.93	226.54
1020.22	226.60
1020.51	226.66
1020.79	226.66
1021.08	227.03
1021.36	226.50
1021.65	226.11
1021.94	226.81
1022.22	226.67
1022.51	226.65
1022.79	227.43
1023.08	227.17
1023.36	227.52
1023.65	226.35
>>>>>End Processed Spectral Data<<<<<
