SpectraSuite Data File
++++++++++++++++++++++++++++++++++++
Date: Fri Feb 01 16:21:21 EST 2013
User: group
Dark Spectrum Present: No
Reference Spectrum Present: No
Number of Sampled Component Spectra: 1
Spectrometers: USB2E7196
Integration Time (usec): 35000 (USB2E7196)
Spectra Averaged: 100 (USB2E7196)
Boxcar Smoothing: 10 (USB2E7196)
Correct for Electrical Dark: No (USB2E7196)
Strobe/Lamp Enabled: No (USB2E7196)
Correct for Detector Non-linearity: No (USB2E7196)
Correct for Stray Light: No (USB2E7196)
Number of Pixels in Processed Spectrum: 2048
>>>>>Begin Processed Spectral Data<<<<<
339.09	0.00
339.48	214.11
339.86	215.54
340.24	216.95
340.63	218.43
341.01	222.02
341.39	220.85
341.78	222.02
342.16	222.79
342.54	224.26
342.93	212.44
343.31	223.18
343.69	223.71
344.07	224.18
344.46	224.60
344.84	224.97
345.22	225.15
345.60	225.38
345.99	225.59
346.37	225.75
346.75	225.82
347.13	225.88
347.52	225.94
347.90	225.99
348.28	226.00
348.66	226.04
349.05	226.04
349.43	226.02
349.81	226.07
350.19	226.12
350.57	226.19
350.96	226.26
351.34	226.32
351.72	226.41
352.10	226.50
352.48	226.55
352.87	226.61
353.25	226.69
353.63	226.75
354.01	226.79
354.39	226.87
354.77	226.94
355.15	227.07
355.54	227.14
355.92	227.20
356.30	227.27
356.68	227.39
357.06	227.49
357.44	227.56
357.82	227.59
358.20	227.65
358.58	227.70
358.97	227.77
359.35	227.84
359.73	227.92
360.11	227.97
360.49	228.04
360.87	228.05
361.25	228.09
361.63	228.13
362.01	228.22
362.39	228.24
362.77	228.27
363.15	228.28
363.53	228.28
363.91	228.30
364.29	228.33
364.67	228.26
365.05	228.27
365.43	228.27
365.81	228.33
366.19	228.38
366.57	228.45
366.95	228.43
367.33	228.45
367.71	228.43
368.09	228.44
368.47	228.43
368.85	228.44
369.23	228.45
369.61	228.43
369.99	228.39
370.37	228.39
370.75	228.43
371.13	228.34
371.51	228.32
371.89	228.27
372.27	228.26
372.65	228.22
373.03	228.18
373.41	228.15
373.78	228.10
374.16	227.98
374.54	227.87
374.92	227.81
375.30	227.73
375.68	227.65
376.06	227.58
376.44	227.52
376.82	227.45
377.19	227.41
377.57	227.35
377.95	227.28
378.33	227.24
378.71	227.10
379.09	227.08
379.47	227.01
379.84	226.95
380.22	226.88
380.60	226.83
380.98	226.76
381.36	226.70
381.73	226.62
382.11	226.58
382.49	226.52
382.87	226.45
383.25	226.38
383.62	226.45
384.00	226.40
384.38	226.34
384.76	226.32
385.13	226.29
385.51	226.25
385.89	226.17
386.27	226.12
386.64	226.13
387.02	226.07
387.40	226.01
387.78	225.99
388.15	225.92
388.53	225.85
388.91	225.80
389.29	225.73
389.66	225.70
390.04	225.68
390.42	225.69
390.79	225.69
391.17	225.66
391.55	225.52
391.92	225.50
392.30	225.49
392.68	225.46
393.05	225.43
393.43	225.43
393.81	225.46
394.18	225.45
394.56	225.45
394.94	225.46
395.31	225.43
395.69	225.48
396.06	225.52
396.44	225.59
396.82	225.63
397.19	225.74
397.57	225.76
397.95	225.80
398.32	225.79
398.70	225.81
399.07	225.91
399.45	225.97
399.82	226.04
400.20	226.10
400.58	226.14
400.95	226.21
401.33	226.30
401.70	226.44
402.08	226.52
402.45	226.57
402.83	226.70
403.20	226.85
403.58	226.93
403.95	227.07
404.33	227.18
404.71	227.30
405.08	227.43
405.46	227.55
405.83	227.68
406.21	227.87
406.58	228.05
406.96	228.18
407.33	228.36
407.70	228.53
408.08	228.78
408.45	229.02
408.83	229.23
409.20	229.45
409.58	229.61
409.95	229.85
410.33	230.15
410.70	230.40
411.08	230.69
411.45	230.98
411.82	231.26
412.20	231.60
412.57	231.99
412.95	232.32
413.32	232.73
413.69	233.13
414.07	233.57
414.44	234.05
414.82	234.51
415.19	235.05
415.56	235.60
415.94	236.16
416.31	236.79
416.68	237.42
417.06	238.16
417.43	238.79
417.81	239.57
418.18	240.35
418.55	241.19
418.93	242.05
419.30	242.95
419.67	243.90
420.04	244.89
420.42	245.90
420.79	247.07
421.16	248.25
421.54	249.49
421.91	250.66
422.28	251.93
422.66	253.25
423.03	254.57
423.40	255.89
423.77	257.29
424.15	258.73
424.52	260.17
424.89	261.69
425.26	263.28
425.64	264.71
426.01	266.28
426.38	267.92
426.75	269.54
427.13	271.26
427.50	273.03
427.87	274.90
428.24	276.73
428.61	278.47
428.99	280.36
429.36	282.39
429.73	284.46
430.10	286.42
430.47	288.50
430.85	290.57
431.22	292.81
431.59	295.15
431.96	297.38
432.33	299.88
432.70	302.29
433.08	305.10
433.45	307.73
433.82	310.35
434.19	313.24
434.56	316.07
434.93	318.69
435.30	321.30
435.68	324.17
436.05	326.97
436.42	329.73
436.79	332.28
437.16	335.00
437.53	337.86
437.90	340.68
438.27	343.40
438.64	346.26
439.01	348.84
439.38	351.09
439.75	353.26
440.13	355.73
440.50	358.04
440.87	359.86
441.24	361.82
441.61	363.94
441.98	365.44
442.35	367.23
442.72	369.12
443.09	370.95
443.46	371.90
443.83	372.48
444.20	373.02
444.57	373.81
444.94	374.09
445.31	374.44
445.68	374.81
446.05	374.86
446.42	374.46
446.79	374.02
447.16	373.59
447.53	373.25
447.90	372.04
448.27	370.88
448.64	369.30
449.01	368.19
449.37	366.28
449.74	364.42
450.11	362.16
450.48	359.73
450.85	357.21
451.22	355.13
451.59	353.15
451.96	351.20
452.33	348.61
452.70	346.26
453.07	343.43
453.43	340.50
453.80	337.78
454.17	335.12
454.54	332.61
454.91	329.89
455.28	327.24
455.65	324.84
456.02	322.42
456.38	320.28
456.75	317.58
457.12	315.33
457.49	313.07
457.86	310.94
458.23	309.06
458.59	307.03
458.96	304.96
459.33	303.07
459.70	301.21
460.07	299.77
460.43	298.07
460.80	296.43
461.17	295.04
461.54	293.58
461.91	292.19
462.27	290.74
462.64	289.51
463.01	288.21
463.38	286.93
463.74	285.59
464.11	284.44
464.48	283.46
464.85	282.34
465.21	281.50
465.58	280.60
465.95	279.53
466.32	278.63
466.68	277.74
467.05	276.90
467.42	276.03
467.78	275.09
468.15	274.27
468.52	273.66
468.88	272.81
469.25	272.02
469.62	271.40
469.98	270.77
470.35	270.14
470.72	269.53
471.08	268.87
471.45	268.34
471.82	267.84
472.18	267.24
472.55	266.80
472.92	266.27
473.28	265.80
473.65	265.34
474.02	264.91
474.38	264.55
474.75	264.22
475.11	263.90
475.48	263.63
475.85	263.39
476.21	263.12
476.58	262.94
476.94	262.83
477.31	262.67
477.67	262.51
478.04	262.40
478.41	262.36
478.77	262.40
479.14	262.38
479.50	262.37
479.87	262.44
480.23	262.56
480.60	262.65
480.96	262.75
481.33	262.97
481.69	263.19
482.06	263.36
482.42	263.55
482.79	263.81
483.15	264.11
483.52	264.46
483.88	264.77
484.25	265.21
484.61	265.59
484.98	266.02
485.34	266.60
485.71	267.19
486.07	267.79
486.44	268.35
486.80	268.98
487.17	269.73
487.53	270.54
487.90	271.35
488.26	272.29
488.62	273.27
488.99	274.24
489.35	275.24
489.72	276.39
490.08	277.58
490.44	278.83
490.81	280.16
491.17	281.51
491.54	283.08
491.90	284.62
492.26	286.27
492.63	287.98
492.99	289.73
493.36	291.63
493.72	293.65
494.08	295.77
494.45	298.04
494.81	300.39
495.17	302.81
495.54	305.35
495.90	308.02
496.26	310.80
496.63	313.80
496.99	316.95
497.35	320.22
497.72	323.66
498.08	327.15
498.44	330.83
498.80	334.76
499.17	338.83
499.53	343.00
499.89	347.41
500.26	351.90
500.62	356.57
500.98	361.53
501.34	366.64
501.71	371.96
502.07	377.40
502.43	383.03
502.79	388.90
503.16	394.98
503.52	401.24
503.88	407.62
504.24	414.25
504.60	421.13
504.97	428.22
505.33	435.55
505.69	443.27
506.05	451.10
506.41	459.00
506.78	467.10
507.14	475.54
507.50	484.21
507.86	493.33
508.22	502.56
508.59	511.76
508.95	521.34
509.31	531.16
509.67	541.30
510.03	551.63
510.39	562.08
510.75	572.91
511.12	583.85
511.48	595.20
511.84	606.66
512.20	618.21
512.56	630.19
512.92	642.34
513.28	654.73
513.64	667.19
514.00	679.87
514.37	692.85
514.73	705.92
515.09	718.97
515.45	732.19
515.81	745.71
516.17	759.75
516.53	773.91
516.89	788.13
517.25	802.28
517.61	816.72
517.97	831.26
518.33	845.64
518.69	860.41
519.05	875.41
519.41	890.61
519.77	906.11
520.13	921.51
520.49	936.91
520.85	952.26
521.21	967.94
521.57	984.15
521.93	999.90
522.29	1016.23
522.65	1032.53
523.01	1048.79
523.37	1064.81
523.73	1080.93
524.09	1096.93
524.45	1113.11
524.81	1129.76
525.17	1146.38
525.53	1163.15
525.89	1179.97
526.25	1196.83
526.61	1213.19
526.97	1229.83
527.33	1246.19
527.68	1262.74
528.04	1279.13
528.40	1295.70
528.76	1312.76
529.12	1329.35
529.48	1346.21
529.84	1362.12
530.20	1378.71
530.56	1395.56
530.91	1412.97
531.27	1429.71
531.63	1446.04
531.99	1462.56
532.35	1478.36
532.71	1494.29
533.07	1510.65
533.42	1526.58
533.78	1542.43
534.14	1558.64
534.50	1573.96
534.86	1589.78
535.21	1605.03
535.57	1620.94
535.93	1636.48
536.29	1651.19
536.65	1666.06
537.00	1680.74
537.36	1695.99
537.72	1710.34
538.08	1724.66
538.44	1738.32
538.79	1752.03
539.15	1765.65
539.51	1779.23
539.87	1793.49
540.22	1807.14
540.58	1820.77
540.94	1833.98
541.29	1846.77
541.65	1859.38
542.01	1872.38
542.37	1884.68
542.72	1896.91
543.08	1908.54
543.44	1920.67
543.79	1931.76
544.15	1942.65
544.51	1954.10
544.87	1965.03
545.22	1975.66
545.58	1985.82
545.94	1995.45
546.29	2005.20
546.65	2015.04
547.01	2024.25
547.36	2033.05
547.72	2041.42
548.07	2049.12
548.43	2057.24
548.79	2065.39
549.14	2072.82
549.50	2080.20
549.86	2087.75
550.21	2095.05
550.57	2102.22
550.92	2108.73
551.28	2115.75
551.64	2122.80
551.99	2129.09
552.35	2135.25
552.70	2141.47
553.06	2147.47
553.41	2153.85
553.77	2159.80
554.13	2165.81
554.48	2172.04
554.84	2177.45
555.19	2182.74
555.55	2187.87
555.90	2192.35
556.26	2197.12
556.61	2201.76
556.97	2205.96
557.32	2210.18
557.68	2214.33
558.03	2218.55
558.39	2222.26
558.74	2227.00
559.10	2230.99
559.45	2234.94
559.81	2239.19
560.16	2243.06
560.52	2246.21
560.87	2249.62
561.23	2252.38
561.58	2255.36
561.94	2257.93
562.29	2260.25
562.64	2262.84
563.00	2265.42
563.35	2268.94
563.71	2272.15
564.06	2275.64
564.42	2278.53
564.77	2280.99
565.12	2283.23
565.48	2285.26
565.83	2287.16
566.19	2288.48
566.54	2289.37
566.89	2290.46
567.25	2291.18
567.60	2292.41
567.96	2294.15
568.31	2295.09
568.66	2296.24
569.02	2296.82
569.37	2297.27
569.72	2298.17
570.08	2298.52
570.43	2298.75
570.78	2298.33
571.14	2296.72
571.49	2295.31
571.84	2295.06
572.20	2294.16
572.55	2293.08
572.90	2291.52
573.26	2290.37
573.61	2288.62
573.96	2286.93
574.31	2284.00
574.67	2281.03
575.02	2277.56
575.37	2274.26
575.72	2270.58
576.08	2267.32
576.43	2264.11
576.78	2260.31
577.13	2257.26
577.49	2254.26
577.84	2250.73
578.19	2246.85
578.54	2243.39
578.90	2239.13
579.25	2233.58
579.60	2228.55
579.95	2223.71
580.30	2218.72
580.66	2213.52
581.01	2208.53
581.36	2203.67
581.71	2199.62
582.06	2195.06
582.42	2190.64
582.77	2185.57
583.12	2181.01
583.47	2176.33
583.82	2171.33
584.17	2166.25
584.53	2160.68
584.88	2155.05
585.23	2149.31
585.58	2143.91
585.93	2138.56
586.28	2133.91
586.63	2128.97
586.98	2123.90
587.34	2119.09
587.69	2114.37
588.04	2109.01
588.39	2103.48
588.74	2096.88
589.09	2090.64
589.44	2084.06
589.79	2078.18
590.14	2072.50
590.49	2065.95
590.84	2059.63
591.19	2053.59
591.54	2047.20
591.89	2039.92
592.25	2033.14
592.60	2025.93
592.95	2018.42
593.30	2010.99
593.65	2003.35
594.00	1996.37
594.35	1989.18
594.70	1981.31
595.05	1974.01
595.40	1966.81
595.75	1959.42
596.10	1953.34
596.45	1946.74
596.80	1940.60
597.15	1933.89
597.50	1926.78
597.85	1920.36
598.19	1913.71
598.54	1906.71
598.89	1900.05
599.24	1894.20
599.59	1887.57
599.94	1881.52
600.29	1875.23
600.64	1868.69
600.99	1861.44
601.34	1854.62
601.69	1847.76
602.04	1840.89
602.39	1833.62
602.74	1826.92
603.08	1820.21
603.43	1813.52
603.78	1806.04
604.13	1798.82
604.48	1791.58
604.83	1784.68
605.18	1777.73
605.53	1769.73
605.87	1761.74
606.22	1754.55
606.57	1746.70
606.92	1739.39
607.27	1732.18
607.62	1725.30
607.96	1718.08
608.31	1711.37
608.66	1703.75
609.01	1696.26
609.36	1688.65
609.70	1680.71
610.05	1672.66
610.40	1664.96
610.75	1656.66
611.10	1649.08
611.44	1640.79
611.79	1632.91
612.14	1624.30
612.49	1615.14
612.83	1606.97
613.18	1598.91
613.53	1590.76
613.88	1582.13
614.22	1573.74
614.57	1565.21
614.92	1557.13
615.27	1549.53
615.61	1541.28
615.96	1533.23
616.31	1525.47
616.65	1518.16
617.00	1510.58
617.35	1502.81
617.70	1494.41
618.04	1485.96
618.39	1477.79
618.74	1470.11
619.08	1461.69
619.43	1454.13
619.78	1447.16
620.12	1439.81
620.47	1432.12
620.82	1423.94
621.16	1416.51
621.51	1409.01
621.85	1401.37
622.20	1392.81
622.55	1384.44
622.89	1376.50
623.24	1368.91
623.59	1361.52
623.93	1353.98
624.28	1346.78
624.62	1339.25
624.97	1332.09
625.32	1325.41
625.66	1318.36
626.01	1311.09
626.35	1303.58
626.70	1295.86
627.04	1288.22
627.39	1280.45
627.73	1273.22
628.08	1266.29
628.43	1259.06
628.77	1251.59
629.12	1243.98
629.46	1236.88
629.81	1229.55
630.15	1222.32
630.50	1214.87
630.84	1206.60
631.19	1198.72
631.53	1191.06
631.88	1183.48
632.22	1175.82
632.57	1168.33
632.91	1160.79
633.26	1153.44
633.60	1146.16
633.95	1139.05
634.29	1131.97
634.64	1125.28
634.98	1117.80
635.32	1110.63
635.67	1103.97
636.01	1097.37
636.36	1090.54
636.70	1083.95
637.05	1077.23
637.39	1070.79
637.73	1064.30
638.08	1058.47
638.42	1052.38
638.77	1046.01
639.11	1039.49
639.45	1033.11
639.80	1026.50
640.14	1020.11
640.49	1013.59
640.83	1007.23
641.17	1001.04
641.52	994.69
641.86	988.27
642.20	982.49
642.55	976.23
642.89	969.76
643.23	963.22
643.58	957.51
643.92	951.32
644.26	945.31
644.61	939.25
644.95	933.21
645.29	926.58
645.64	919.91
645.98	913.54
646.32	907.64
646.66	901.56
647.01	895.76
647.35	890.00
647.69	884.09
648.04	878.62
648.38	872.78
648.72	866.67
649.06	860.60
649.41	854.70
649.75	848.68
650.09	842.65
650.43	836.80
650.78	830.62
651.12	824.73
651.46	818.96
651.80	813.14
652.14	807.70
652.49	802.38
652.83	797.23
653.17	791.51
653.51	785.80
653.85	780.46
654.20	774.80
654.54	768.79
654.88	763.04
655.22	757.05
655.56	751.31
655.90	745.93
656.25	740.71
656.59	735.33
656.93	730.29
657.27	725.20
657.61	719.82
657.95	714.65
658.29	709.46
658.64	704.28
658.98	699.05
659.32	693.54
659.66	688.35
660.00	682.99
660.34	678.09
660.68	673.23
661.02	668.19
661.36	663.49
661.70	659.04
662.05	654.70
662.39	650.41
662.73	645.92
663.07	641.52
663.41	637.02
663.75	632.49
664.09	627.84
664.43	623.51
664.77	619.43
665.11	615.20
665.45	611.14
665.79	607.00
666.13	602.84
666.47	598.79
666.81	594.55
667.15	590.41
667.49	586.47
667.83	582.65
668.17	578.70
668.51	574.63
668.85	570.57
669.19	566.72
669.53	562.89
669.87	559.02
670.21	555.33
670.55	551.65
670.89	548.24
671.23	544.84
671.57	541.24
671.91	537.63
672.25	534.12
672.58	530.59
672.92	527.13
673.26	523.93
673.60	520.77
673.94	517.73
674.28	514.82
674.62	511.87
674.96	508.67
675.30	505.79
675.64	502.85
675.97	500.07
676.31	497.22
676.65	494.24
676.99	491.57
677.33	488.69
677.67	485.89
678.01	482.84
678.34	479.85
678.68	477.03
679.02	474.19
679.36	471.44
679.70	468.66
680.04	465.96
680.37	463.10
680.71	460.37
681.05	457.70
681.39	454.98
681.73	452.32
682.06	449.83
682.40	447.27
682.74	444.72
683.08	442.17
683.42	439.53
683.75	437.07
684.09	434.50
684.43	432.03
684.77	429.57
685.10	427.23
685.44	424.90
685.78	422.55
686.12	420.35
686.45	418.05
686.79	415.82
687.13	413.65
687.46	411.51
687.80	409.31
688.14	407.09
688.48	405.02
688.81	402.81
689.15	400.69
689.49	398.49
689.82	396.44
690.16	394.33
690.50	392.40
690.83	390.43
691.17	388.44
691.51	386.55
691.84	384.68
692.18	382.75
692.52	380.77
692.85	378.83
693.19	376.87
693.52	375.06
693.86	373.16
694.20	371.33
694.53	369.52
694.87	367.64
695.21	365.89
695.54	364.07
695.88	362.25
696.21	360.49
696.55	358.85
696.88	357.14
697.22	355.49
697.56	353.86
697.89	352.19
698.23	350.58
698.56	348.91
698.90	347.32
699.23	345.65
699.57	344.12
699.90	342.60
700.24	341.07
700.58	339.47
700.91	337.99
701.25	336.51
701.58	335.10
701.92	333.73
702.25	332.29
702.59	330.91
702.92	329.62
703.26	328.28
703.59	326.97
703.93	325.78
704.26	324.52
704.60	323.19
704.93	321.96
705.26	320.69
705.60	319.55
705.93	318.39
706.27	317.35
706.60	316.27
706.94	315.17
707.27	314.06
707.61	313.04
707.94	312.05
708.27	310.95
708.61	309.89
708.94	308.90
709.28	307.93
709.61	306.99
709.94	306.04
710.28	305.02
710.61	304.06
710.95	302.98
711.28	302.06
711.61	301.13
711.95	300.18
712.28	299.24
712.61	298.26
712.95	297.34
713.28	296.47
713.61	295.55
713.95	294.67
714.28	293.82
714.61	292.97
714.95	292.12
715.28	291.30
715.61	290.41
715.95	289.56
716.28	288.75
716.61	287.88
716.95	287.09
717.28	286.39
717.61	285.60
717.94	284.84
718.28	284.01
718.61	283.25
718.94	282.57
719.27	281.93
719.61	281.29
719.94	280.63
720.27	279.90
720.60	279.23
720.94	278.61
721.27	278.02
721.60	277.39
721.93	276.79
722.27	276.22
722.60	275.69
722.93	275.14
723.26	274.57
723.59	274.01
723.93	273.45
724.26	272.87
724.59	272.28
724.92	271.77
725.25	271.30
725.59	270.79
725.92	270.29
726.25	269.74
726.58	269.25
726.91	268.75
727.24	268.29
727.57	267.84
727.91	267.33
728.24	266.84
728.57	266.38
728.90	265.92
729.23	265.43
729.56	265.03
729.89	264.55
730.22	264.07
730.55	263.60
730.89	263.15
731.22	262.70
731.55	262.31
731.88	261.86
732.21	261.41
732.54	261.01
732.87	260.56
733.20	260.15
733.53	259.76
733.86	259.35
734.19	258.91
734.52	258.51
734.85	258.21
735.18	257.81
735.51	257.46
735.84	257.05
736.17	256.71
736.50	256.23
736.83	255.99
737.16	255.64
737.49	255.30
737.82	254.94
738.15	254.62
738.48	254.29
738.81	253.98
739.14	253.65
739.47	253.32
739.80	253.04
740.13	252.74
740.46	252.40
740.79	252.08
741.12	251.77
741.45	251.46
741.78	251.08
742.11	250.78
742.44	250.43
742.77	250.19
743.10	249.86
743.43	249.58
743.75	249.18
744.08	249.05
744.41	248.80
744.74	248.53
745.07	248.24
745.40	247.96
745.73	247.70
746.06	247.41
746.39	247.15
746.71	246.87
747.04	246.60
747.37	246.32
747.70	246.07
748.03	245.83
748.36	245.64
748.68	245.39
749.01	245.17
749.34	244.93
749.67	244.71
750.00	244.52
750.33	244.37
750.65	244.13
750.98	243.80
751.31	243.59
751.64	243.40
751.97	243.25
752.29	243.04
752.62	242.86
752.95	242.68
753.28	242.46
753.60	242.21
753.93	242.06
754.26	241.88
754.59	241.68
754.91	241.48
755.24	241.26
755.57	241.09
755.90	240.90
756.22	240.71
756.55	240.48
756.88	240.24
757.20	240.01
757.53	239.81
757.86	239.66
758.19	239.50
758.51	239.30
758.84	239.09
759.17	238.92
759.49	238.75
759.82	238.60
760.15	238.45
760.47	238.30
760.80	238.12
761.13	237.99
761.45	237.84
761.78	237.67
762.11	237.54
762.43	237.37
762.76	237.23
763.08	237.12
763.41	237.02
763.74	236.89
764.06	236.76
764.39	236.63
764.71	236.46
765.04	236.29
765.37	236.18
765.69	236.03
766.02	235.91
766.34	235.73
766.67	235.61
767.00	235.52
767.32	235.48
767.65	235.43
767.97	235.35
768.30	235.23
768.62	235.14
768.95	235.03
769.27	234.90
769.60	234.79
769.92	234.67
770.25	234.54
770.57	234.45
770.90	234.34
771.22	234.25
771.55	234.14
771.87	234.06
772.20	233.97
772.52	233.92
772.85	233.92
773.17	233.86
773.50	233.76
773.82	233.65
774.15	233.55
774.47	233.36
774.80	233.23
775.12	233.15
775.45	233.08
775.77	232.97
776.09	232.91
776.42	232.87
776.74	232.80
777.07	232.71
777.39	232.61
777.72	232.51
778.04	232.45
778.36	232.39
778.69	232.33
779.01	232.26
779.33	232.13
779.66	231.94
779.98	231.89
780.31	231.84
780.63	231.83
780.95	231.73
781.28	231.70
781.60	231.65
781.92	231.57
782.25	231.49
782.57	231.41
782.89	231.35
783.22	231.27
783.54	231.22
783.86	231.20
784.19	231.16
784.51	231.15
784.83	231.10
785.16	231.01
785.48	230.96
785.80	230.89
786.12	230.87
786.45	230.85
786.77	230.79
787.09	230.76
787.42	230.66
787.74	230.65
788.06	230.58
788.38	230.55
788.71	230.51
789.03	230.49
789.35	230.49
789.67	230.45
789.99	230.40
790.32	230.37
790.64	230.32
790.96	230.32
791.28	230.29
791.61	230.24
791.93	230.26
792.25	230.23
792.57	230.30
792.89	230.25
793.21	230.22
793.54	230.19
793.86	230.12
794.18	230.09
794.50	230.04
794.82	230.05
795.14	230.04
795.47	230.01
795.79	229.99
796.11	229.95
796.43	229.95
796.75	229.94
797.07	229.88
797.39	229.83
797.71	229.75
798.04	229.69
798.36	229.69
798.68	229.66
799.00	229.60
799.32	229.52
799.64	229.50
799.96	229.48
800.28	229.46
800.60	229.45
800.92	229.42
801.24	229.38
801.56	229.33
801.89	229.26
802.21	229.20
802.53	229.14
802.85	229.10
803.17	229.07
803.49	229.02
803.81	228.99
804.13	228.97
804.45	228.93
804.77	228.92
805.09	228.87
805.41	228.80
805.73	228.77
806.05	228.70
806.37	228.68
806.69	228.63
807.01	228.59
807.33	228.55
807.65	228.51
807.97	228.52
808.28	228.48
808.60	228.46
808.92	228.45
809.24	228.48
809.56	228.45
809.88	228.41
810.20	228.39
810.52	228.41
810.84	228.36
811.16	228.32
811.48	228.26
811.80	228.29
812.12	228.27
812.43	228.28
812.75	228.29
813.07	228.22
813.39	228.21
813.71	228.19
814.03	228.18
814.35	228.16
814.67	228.09
814.98	228.07
815.30	228.08
815.62	228.06
815.94	228.00
816.26	228.00
816.58	227.96
816.89	227.94
817.21	227.91
817.53	227.91
817.85	227.91
818.17	227.95
818.48	227.86
818.80	227.89
819.12	227.83
819.44	227.75
819.76	227.74
820.07	227.71
820.39	227.68
820.71	227.67
821.03	227.68
821.34	227.68
821.66	227.68
821.98	227.65
822.30	227.62
822.61	227.65
822.93	227.65
823.25	227.64
823.57	227.63
823.88	227.62
824.20	227.58
824.52	227.62
824.83	227.56
825.15	227.56
825.47	227.52
825.79	227.52
826.10	227.56
826.42	227.56
826.74	227.57
827.05	227.56
827.37	227.54
827.69	227.48
828.00	227.47
828.32	227.43
828.64	227.39
828.95	227.44
829.27	227.43
829.58	227.41
829.90	227.42
830.22	227.40
830.53	227.35
830.85	227.39
831.17	227.32
831.48	227.34
831.80	227.33
832.11	227.32
832.43	227.31
832.75	227.26
833.06	227.30
833.38	227.27
833.69	227.25
834.01	227.27
834.32	227.26
834.64	227.27
834.96	227.26
835.27	227.24
835.59	227.18
835.90	227.14
836.22	227.13
836.53	227.10
836.85	227.09
837.16	227.19
837.48	227.14
837.79	227.17
838.11	227.14
838.42	227.12
838.74	227.15
839.05	227.14
839.37	227.15
839.68	227.08
840.00	227.06
840.31	227.04
840.63	227.03
840.94	227.03
841.26	226.98
841.57	226.98
841.88	226.98
842.20	226.96
842.51	226.94
842.83	226.92
843.14	227.01
843.46	227.01
843.77	226.92
844.08	226.92
844.40	226.87
844.71	226.84
845.03	226.80
845.34	226.73
845.65	226.68
845.97	226.67
846.28	226.66
846.60	226.64
846.91	226.64
847.22	226.60
847.54	226.62
847.85	226.64
848.16	226.61
848.48	226.58
848.79	226.63
849.10	226.61
849.42	226.58
849.73	226.46
850.04	226.43
850.36	226.43
850.67	226.43
850.98	226.43
851.30	226.45
851.61	226.46
851.92	226.47
852.23	226.49
852.55	226.45
852.86	226.44
853.17	226.44
853.49	226.45
853.80	226.47
854.11	226.46
854.42	226.43
854.74	226.43
855.05	226.43
855.36	226.36
855.67	226.38
855.99	226.40
856.30	226.53
856.61	226.53
856.92	226.51
857.23	226.50
857.55	226.48
857.86	226.47
858.17	226.47
858.48	226.47
858.79	226.47
859.11	226.50
859.42	226.52
859.73	226.51
860.04	226.51
860.35	226.48
860.66	226.42
860.98	226.46
861.29	226.50
861.60	226.51
861.91	226.54
862.22	226.50
862.53	226.48
862.84	226.36
863.16	226.41
863.47	226.39
863.78	226.42
864.09	226.48
864.40	226.51
864.71	226.51
865.02	226.51
865.33	226.53
865.64	226.51
865.95	226.48
866.27	226.56
866.58	226.55
866.89	226.58
867.20	226.62
867.51	226.60
867.82	226.56
868.13	226.62
868.44	226.63
868.75	226.68
869.06	226.70
869.37	226.71
869.68	226.68
869.99	226.72
870.30	226.70
870.61	226.70
870.92	226.68
871.23	226.69
871.54	226.73
871.85	226.73
872.16	226.77
872.47	226.81
872.78	226.75
873.09	226.75
873.40	226.75
873.71	226.75
874.02	226.76
874.33	226.76
874.64	226.73
874.95	226.74
875.26	226.71
875.56	226.70
875.87	226.69
876.18	226.64
876.49	226.73
876.80	226.73
877.11	226.69
877.42	226.68
877.73	226.69
878.04	226.68
878.35	226.68
878.66	226.68
878.96	226.66
879.27	226.66
879.58	226.66
879.89	226.64
880.20	226.66
880.51	226.65
880.82	226.64
881.12	226.65
881.43	226.60
881.74	226.57
882.05	226.57
882.36	226.56
882.67	226.61
882.97	226.47
883.28	226.40
883.59	226.40
883.90	226.41
884.21	226.40
884.51	226.39
884.82	226.37
885.13	226.36
885.44	226.34
885.74	226.33
886.05	226.32
886.36	226.34
886.67	226.28
886.98	226.33
887.28	226.34
887.59	226.30
887.90	226.31
888.20	226.28
888.51	226.31
888.82	226.31
889.13	226.29
889.43	226.38
889.74	226.41
890.05	226.39
890.35	226.37
890.66	226.33
890.97	226.32
891.28	226.30
891.58	226.27
891.89	226.26
892.20	226.26
892.50	226.25
892.81	226.23
893.12	226.21
893.42	226.15
893.73	226.12
894.04	226.13
894.34	226.17
894.65	226.18
894.95	226.15
895.26	226.15
895.57	226.17
895.87	226.07
896.18	226.08
896.48	226.08
896.79	226.06
897.10	226.08
897.40	226.08
897.71	226.08
898.01	226.07
898.32	226.09
898.63	226.08
898.93	226.07
899.24	226.04
899.54	226.07
899.85	226.06
900.15	226.07
900.46	226.06
900.76	226.06
901.07	226.06
901.38	226.05
901.68	226.04
901.99	226.01
902.29	226.03
902.60	226.03
902.90	226.02
903.21	226.02
903.51	226.02
903.82	226.04
904.12	226.07
904.43	226.10
904.73	226.09
905.03	226.09
905.34	226.17
905.64	226.21
905.95	226.20
906.25	226.23
906.56	226.26
906.86	226.27
907.17	226.25
907.47	226.27
907.77	226.28
908.08	226.30
908.38	226.34
908.69	226.37
908.99	226.37
909.30	226.41
909.60	226.44
909.90	226.47
910.21	226.43
910.51	226.41
910.81	226.40
911.12	226.43
911.42	226.43
911.73	226.33
912.03	226.29
912.33	226.31
912.64	226.28
912.94	226.27
913.24	226.26
913.55	226.25
913.85	226.23
914.15	226.25
914.46	226.25
914.76	226.22
915.06	226.20
915.37	226.22
915.67	226.22
915.97	226.20
916.27	226.15
916.58	226.18
916.88	226.18
917.18	226.16
917.49	226.18
917.79	226.17
918.09	226.21
918.39	226.25
918.70	226.24
919.00	226.22
919.30	226.25
919.60	226.23
919.91	226.22
920.21	226.22
920.51	226.22
920.81	226.18
921.12	226.18
921.42	226.17
921.72	226.13
922.02	226.10
922.32	226.09
922.63	226.10
922.93	226.14
923.23	226.13
923.53	226.12
923.83	226.05
924.13	226.04
924.44	226.04
924.74	226.03
925.04	226.02
925.34	226.02
925.64	225.97
925.94	225.94
926.24	225.99
926.55	225.98
926.85	225.96
927.15	225.94
927.45	225.94
927.75	225.92
928.05	225.93
928.35	225.94
928.65	225.95
928.95	225.93
929.26	225.86
929.56	225.85
929.86	225.86
930.16	225.85
930.46	225.88
930.76	225.88
931.06	225.82
931.36	225.83
931.66	225.80
931.96	225.81
932.26	225.85
932.56	225.78
932.86	225.77
933.16	225.75
933.46	225.75
933.76	225.74
934.06	225.77
934.36	225.78
934.66	225.73
934.96	225.73
935.26	225.75
935.56	225.78
935.86	225.76
936.16	225.75
936.46	225.78
936.76	225.75
937.06	225.74
937.36	225.78
937.66	225.82
937.96	225.85
938.26	225.84
938.56	225.84
938.86	225.88
939.16	225.93
939.46	225.97
939.76	225.99
940.06	225.96
940.35	225.98
940.65	225.94
940.95	226.00
941.25	225.97
941.55	225.97
941.85	225.99
942.15	226.03
942.45	226.07
942.75	226.05
943.04	226.08
943.34	226.09
943.64	226.08
943.94	226.04
944.24	226.05
944.54	226.06
944.84	226.07
945.13	226.09
945.43	226.09
945.73	226.14
946.03	226.17
946.33	226.19
946.62	226.20
946.92	226.20
947.22	226.24
947.52	226.30
947.82	226.33
948.11	226.31
948.41	226.30
948.71	226.30
949.01	226.29
949.31	226.30
949.60	226.30
949.90	226.33
950.20	226.35
950.50	226.39
950.79	226.40
951.09	226.40
951.39	226.38
951.69	226.37
951.98	226.37
952.28	226.36
952.58	226.37
952.87	226.34
953.17	226.38
953.47	226.33
953.76	226.32
954.06	226.30
954.36	226.26
954.66	226.25
954.95	226.26
955.25	226.29
955.55	226.27
955.84	226.28
956.14	226.27
956.44	226.28
956.73	226.19
957.03	226.18
957.32	226.17
957.62	226.15
957.92	226.14
958.21	226.10
958.51	226.20
958.81	226.20
959.10	226.22
959.40	226.24
959.69	226.23
959.99	226.22
960.29	226.20
960.58	226.22
960.88	226.22
961.17	226.21
961.47	226.21
961.76	226.21
962.06	226.22
962.36	226.19
962.65	226.16
962.95	226.18
963.24	226.15
963.54	226.14
963.83	226.14
964.13	226.13
964.42	226.10
964.72	226.02
965.01	225.99
965.31	225.93
965.60	225.87
965.90	225.92
966.19	225.87
966.49	225.86
966.78	225.84
967.08	225.85
967.37	225.84
967.67	225.78
967.96	225.80
968.26	225.75
968.55	225.79
968.85	225.78
969.14	225.78
969.43	225.80
969.73	225.78
970.02	225.73
970.32	225.72
970.61	225.69
970.91	225.66
971.20	225.65
971.49	225.68
971.79	225.67
972.08	225.62
972.38	225.65
972.67	225.67
972.96	225.67
973.26	225.65
973.55	225.66
973.85	225.70
974.14	225.66
974.43	225.69
974.73	225.64
975.02	225.66
975.31	225.68
975.61	225.66
975.90	225.66
976.19	225.67
976.49	225.68
976.78	225.72
977.07	225.71
977.37	225.71
977.66	225.69
977.95	225.71
978.24	225.72
978.54	225.71
978.83	225.69
979.12	225.68
979.42	225.67
979.71	225.65
980.00	225.66
980.29	225.70
980.59	225.67
980.88	225.71
981.17	225.73
981.46	225.74
981.76	225.77
982.05	225.81
982.34	225.85
982.63	225.87
982.93	225.86
983.22	225.92
983.51	225.94
983.80	225.99
984.09	226.04
984.39	226.02
984.68	226.03
984.97	226.09
985.26	226.10
985.55	226.14
985.85	226.15
986.14	226.18
986.43	226.18
986.72	226.16
987.01	226.14
987.30	226.13
987.59	226.12
987.89	226.17
988.18	226.17
988.47	226.17
988.76	226.20
989.05	226.20
989.34	226.19
989.63	226.23
989.92	226.21
990.22	226.17
990.51	226.20
990.80	226.23
991.09	226.23
991.38	226.26
991.67	226.23
991.96	226.21
992.25	226.19
992.54	226.16
992.83	226.16
993.12	226.16
993.41	226.18
993.70	226.20
993.99	226.16
994.28	226.16
994.58	226.13
994.87	226.10
995.16	226.10
995.45	226.08
995.74	226.01
996.03	226.00
996.32	226.01
996.61	226.00
996.90	225.99
997.19	225.94
997.48	225.93
997.77	225.91
998.06	225.91
998.34	225.87
998.63	225.87
998.92	225.87
999.21	225.86
999.50	225.83
999.79	225.79
1000.08	225.77
1000.37	225.76
1000.66	225.75
1000.95	225.75
1001.24	225.74
1001.53	225.74
1001.82	225.74
1002.11	225.72
1002.40	225.73
1002.68	225.75
1002.97	225.76
1003.26	225.76
1003.55	225.73
1003.84	225.75
1004.13	225.76
1004.42	225.78
1004.71	225.77
1004.99	225.77
1005.28	225.82
1005.57	225.80
1005.86	225.79
1006.15	225.78
1006.44	225.75
1006.72	225.76
1007.01	225.70
1007.30	225.71
1007.59	225.71
1007.88	225.68
1008.17	225.70
1008.45	225.68
1008.74	225.64
1009.03	225.63
1009.32	225.62
1009.60	225.62
1009.89	225.57
1010.18	225.52
1010.47	225.52
1010.76	225.53
1011.04	225.57
1011.33	225.52
1011.62	225.52
1011.91	225.53
1012.19	225.55
1012.48	225.56
1012.77	225.58
1013.05	225.67
1013.34	225.69
1013.63	225.66
1013.92	225.66
1014.20	225.63
1014.49	225.64
1014.78	225.65
1015.06	225.57
1015.35	225.57
1015.64	225.60
1015.92	225.63
1016.21	225.64
1016.50	225.63
1016.78	225.65
1017.07	225.64
1017.36	225.63
1017.64	225.63
1017.93	225.64
1018.22	225.64
1018.50	225.66
1018.79	225.62
1019.08	225.58
1019.36	225.58
1019.65	225.56
1019.93	225.65
1020.22	225.66
1020.51	225.73
1020.79	225.69
1021.08	225.90
1021.36	225.76
1021.65	225.32
1021.94	226.00
1022.22	225.84
1022.51	225.25
1022.79	226.77
1023.08	225.74
1023.36	227.00
1023.65	224.91
>>>>>End Processed Spectral Data<<<<<
