SpectraSuite Data File
++++++++++++++++++++++++++++++++++++
Date: Fri Feb 01 15:19:03 EST 2013
User: group
Dark Spectrum Present: No
Reference Spectrum Present: No
Number of Sampled Component Spectra: 1
Spectrometers: USB2E7196
Integration Time (usec): 35000 (USB2E7196)
Spectra Averaged: 100 (USB2E7196)
Boxcar Smoothing: 10 (USB2E7196)
Correct for Electrical Dark: No (USB2E7196)
Strobe/Lamp Enabled: No (USB2E7196)
Correct for Detector Non-linearity: No (USB2E7196)
Correct for Stray Light: No (USB2E7196)
Number of Pixels in Processed Spectrum: 2048
>>>>>Begin Processed Spectral Data<<<<<
339.09	0.00
339.48	215.18
339.86	216.90
340.24	218.25
340.63	219.62
341.01	222.43
341.39	222.95
341.78	222.90
342.16	224.77
342.54	225.17
342.93	213.66
343.31	224.45
343.69	224.99
344.07	225.46
344.46	225.87
344.84	226.26
345.22	226.51
345.60	226.73
345.99	226.95
346.37	227.08
346.75	227.15
347.13	227.18
347.52	227.24
347.90	227.30
348.28	227.36
348.66	227.39
349.05	227.40
349.43	227.43
349.81	227.44
350.19	227.45
350.57	227.48
350.96	227.53
351.34	227.61
351.72	227.69
352.10	227.73
352.48	227.82
352.87	227.85
353.25	227.92
353.63	227.94
354.01	228.00
354.39	228.06
354.77	228.18
355.15	228.29
355.54	228.34
355.92	228.35
356.30	228.38
356.68	228.49
357.06	228.54
357.44	228.55
357.82	228.63
358.20	228.69
358.58	228.76
358.97	228.80
359.35	228.87
359.73	228.90
360.11	228.97
360.49	229.01
360.87	229.02
361.25	229.06
361.63	229.15
362.01	229.18
362.39	229.18
362.77	229.18
363.15	229.16
363.53	229.18
363.91	229.22
364.29	229.22
364.67	229.14
365.05	229.18
365.43	229.23
365.81	229.24
366.19	229.29
366.57	229.30
366.95	229.30
367.33	229.25
367.71	229.27
368.09	229.25
368.47	229.20
368.85	229.18
369.23	229.17
369.61	229.09
369.99	229.09
370.37	229.06
370.75	229.07
371.13	229.02
371.51	228.93
371.89	228.87
372.27	228.83
372.65	228.78
373.03	228.71
373.41	228.65
373.78	228.58
374.16	228.47
374.54	228.35
374.92	228.25
375.30	228.20
375.68	228.11
376.06	228.05
376.44	227.99
376.82	227.94
377.19	227.83
377.57	227.77
377.95	227.64
378.33	227.58
378.71	227.46
379.09	227.40
379.47	227.41
379.84	227.35
380.22	227.30
380.60	227.23
380.98	227.17
381.36	227.10
381.73	227.02
382.11	226.96
382.49	226.93
382.87	226.93
383.25	226.85
383.62	226.92
384.00	226.85
384.38	226.80
384.76	226.73
385.13	226.74
385.51	226.65
385.89	226.60
386.27	226.53
386.64	226.50
387.02	226.44
387.40	226.37
387.78	226.33
388.15	226.32
388.53	226.27
388.91	226.24
389.29	226.21
389.66	226.20
390.04	226.21
390.42	226.20
390.79	226.16
391.17	226.14
391.55	226.01
391.92	226.04
392.30	226.05
392.68	226.09
393.05	226.06
393.43	226.12
393.81	226.17
394.18	226.17
394.56	226.22
394.94	226.29
395.31	226.35
395.69	226.39
396.06	226.42
396.44	226.45
396.82	226.49
397.19	226.59
397.57	226.62
397.95	226.66
398.32	226.68
398.70	226.74
399.07	226.82
399.45	226.90
399.82	226.94
400.20	227.01
400.58	227.07
400.95	227.14
401.33	227.26
401.70	227.41
402.08	227.50
402.45	227.58
402.83	227.68
403.20	227.77
403.58	227.90
403.95	228.02
404.33	228.16
404.71	228.29
405.08	228.43
405.46	228.57
405.83	228.73
406.21	228.89
406.58	229.09
406.96	229.27
407.33	229.48
407.70	229.67
408.08	229.94
408.45	230.19
408.83	230.39
409.20	230.58
409.58	230.77
409.95	231.07
410.33	231.39
410.70	231.65
411.08	231.95
411.45	232.25
411.82	232.57
412.20	232.92
412.57	233.35
412.95	233.66
413.32	234.08
413.69	234.49
414.07	234.92
414.44	235.36
414.82	235.80
415.19	236.31
415.56	236.91
415.94	237.44
416.31	238.06
416.68	238.70
417.06	239.42
417.43	240.09
417.81	240.84
418.18	241.58
418.55	242.40
418.93	243.25
419.30	244.14
419.67	245.08
420.04	246.06
420.42	247.02
420.79	248.22
421.16	249.33
421.54	250.53
421.91	251.79
422.28	253.04
422.66	254.39
423.03	255.67
423.40	256.93
423.77	258.35
424.15	259.76
424.52	261.26
424.89	262.87
425.26	264.42
425.64	265.85
426.01	267.40
426.38	269.09
426.75	270.77
427.13	272.50
427.50	274.29
427.87	276.17
428.24	278.06
428.61	279.80
428.99	281.80
429.36	283.88
429.73	285.92
430.10	287.94
430.47	290.02
430.85	292.15
431.22	294.44
431.59	296.82
431.96	299.06
432.33	301.57
432.70	303.97
433.08	306.80
433.45	309.48
433.82	312.14
434.19	315.04
434.56	317.86
434.93	320.52
435.30	323.19
435.68	326.11
436.05	328.96
436.42	331.76
436.79	334.28
437.16	337.03
437.53	339.91
437.90	342.76
438.27	345.50
438.64	348.34
439.01	350.95
439.38	353.23
439.75	355.43
440.13	357.91
440.50	360.24
440.87	362.11
441.24	364.05
441.61	366.20
441.98	367.69
442.35	369.54
442.72	371.46
443.09	373.24
443.46	374.20
443.83	374.73
444.20	375.27
444.57	376.09
444.94	376.38
445.31	376.70
445.68	377.06
446.05	377.16
446.42	376.82
446.79	376.40
447.16	375.94
447.53	375.62
447.90	374.47
448.27	373.28
448.64	371.67
449.01	370.51
449.37	368.54
449.74	366.64
450.11	364.38
450.48	361.86
450.85	359.33
451.22	357.20
451.59	355.21
451.96	353.30
452.33	350.69
452.70	348.33
453.07	345.51
453.43	342.58
453.80	339.80
454.17	337.09
454.54	334.54
454.91	331.77
455.28	329.09
455.65	326.58
456.02	324.16
456.38	322.00
456.75	319.34
457.12	317.09
457.49	314.86
457.86	312.67
458.23	310.77
458.59	308.70
458.96	306.60
459.33	304.73
459.70	302.83
460.07	301.32
460.43	299.58
460.80	297.95
461.17	296.52
461.54	295.01
461.91	293.58
462.27	292.08
462.64	290.84
463.01	289.46
463.38	288.15
463.74	286.73
464.11	285.57
464.48	284.52
464.85	283.38
465.21	282.47
465.58	281.53
465.95	280.45
466.32	279.55
466.68	278.61
467.05	277.69
467.42	276.76
467.78	275.82
468.15	274.94
468.52	274.26
468.88	273.41
469.25	272.66
469.62	272.01
469.98	271.33
470.35	270.67
470.72	270.08
471.08	269.41
471.45	268.89
471.82	268.36
472.18	267.79
472.55	267.37
472.92	266.88
473.28	266.40
473.65	265.97
474.02	265.54
474.38	265.18
474.75	264.90
475.11	264.55
475.48	264.26
475.85	264.04
476.21	263.79
476.58	263.57
476.94	263.40
477.31	263.25
477.67	263.16
478.04	263.08
478.41	263.05
478.77	263.11
479.14	263.04
479.50	263.02
479.87	263.07
480.23	263.13
480.60	263.18
480.96	263.29
481.33	263.49
481.69	263.67
482.06	263.87
482.42	264.03
482.79	264.31
483.15	264.63
483.52	264.97
483.88	265.34
484.25	265.72
484.61	266.18
484.98	266.62
485.34	267.18
485.71	267.75
486.07	268.34
486.44	268.91
486.80	269.65
487.17	270.40
487.53	271.26
487.90	272.14
488.26	273.08
488.62	274.07
488.99	275.01
489.35	276.06
489.72	277.20
490.08	278.46
490.44	279.68
490.81	281.02
491.17	282.38
491.54	283.87
491.90	285.41
492.26	287.01
492.63	288.73
492.99	290.48
493.36	292.35
493.72	294.40
494.08	296.50
494.45	298.74
494.81	301.07
495.17	303.46
495.54	306.00
495.90	308.65
496.26	311.48
496.63	314.44
496.99	317.55
497.35	320.75
497.72	324.15
498.08	327.65
498.44	331.36
498.80	335.28
499.17	339.31
499.53	343.44
499.89	347.88
500.26	352.37
500.62	357.03
500.98	362.00
501.34	367.02
501.71	372.35
502.07	377.73
502.43	383.37
502.79	389.16
503.16	395.22
503.52	401.49
503.88	407.89
504.24	414.48
504.60	421.34
504.97	428.51
505.33	435.79
505.69	443.51
506.05	451.23
506.41	459.13
506.78	467.23
507.14	475.64
507.50	484.27
507.86	493.29
508.22	502.50
508.59	511.71
508.95	521.27
509.31	531.03
509.67	541.15
510.03	551.37
510.39	561.96
510.75	572.75
511.12	583.70
511.48	594.90
511.84	606.45
512.20	618.00
512.56	629.95
512.92	642.17
513.28	654.42
513.64	666.85
514.00	679.50
514.37	692.45
514.73	705.55
515.09	718.57
515.45	731.91
515.81	745.41
516.17	759.42
516.53	773.55
516.89	787.75
517.25	801.97
517.61	816.59
517.97	831.07
518.33	845.57
518.69	860.45
519.05	875.52
519.41	890.68
519.77	906.22
520.13	921.63
520.49	936.94
520.85	952.49
521.21	968.36
521.57	984.61
521.93	1000.46
522.29	1016.95
522.65	1033.24
523.01	1049.55
523.37	1065.68
523.73	1081.89
524.09	1098.04
524.45	1114.44
524.81	1131.12
525.17	1147.94
525.53	1164.97
525.89	1181.93
526.25	1198.77
526.61	1215.26
526.97	1232.04
527.33	1248.62
527.68	1265.45
528.04	1282.06
528.40	1298.81
528.76	1315.93
529.12	1332.61
529.48	1349.51
529.84	1365.60
530.20	1382.36
530.56	1399.43
530.91	1416.96
531.27	1433.80
531.63	1450.39
531.99	1467.09
532.35	1483.09
532.71	1498.97
533.07	1515.18
533.42	1531.12
533.78	1547.30
534.14	1563.69
534.50	1579.17
534.86	1594.95
535.21	1610.09
535.57	1626.14
535.93	1641.59
536.29	1656.41
536.65	1671.72
537.00	1686.67
537.36	1702.00
537.72	1716.69
538.08	1731.19
538.44	1745.13
538.79	1759.19
539.15	1773.00
539.51	1786.96
539.87	1801.40
540.22	1815.20
540.58	1829.22
540.94	1842.64
541.29	1855.58
541.65	1868.34
542.01	1881.69
542.37	1894.19
542.72	1906.74
543.08	1918.49
543.44	1931.05
543.79	1942.34
544.15	1953.28
544.51	1964.75
544.87	1975.75
545.22	1986.53
545.58	1996.62
545.94	2006.29
546.29	2016.18
546.65	2025.92
547.01	2034.85
547.36	2043.69
547.72	2052.23
548.07	2060.04
548.43	2068.24
548.79	2076.34
549.14	2083.90
549.50	2091.29
549.86	2099.09
550.21	2106.37
550.57	2113.64
550.92	2120.14
551.28	2127.37
551.64	2134.42
551.99	2141.04
552.35	2147.23
552.70	2153.32
553.06	2159.34
553.41	2165.64
553.77	2171.56
554.13	2177.78
554.48	2183.96
554.84	2189.32
555.19	2194.66
555.55	2199.87
555.90	2204.18
556.26	2208.90
556.61	2213.50
556.97	2217.57
557.32	2221.70
557.68	2225.81
558.03	2230.05
558.39	2233.92
558.74	2238.33
559.10	2242.13
559.45	2245.74
559.81	2250.18
560.16	2254.13
560.52	2257.44
560.87	2260.98
561.23	2263.63
561.58	2266.54
561.94	2269.17
562.29	2271.57
562.64	2274.13
563.00	2276.62
563.35	2280.30
563.71	2283.37
564.06	2286.70
564.42	2289.52
564.77	2291.81
565.12	2294.04
565.48	2295.85
565.83	2297.45
566.19	2298.77
566.54	2299.73
566.89	2300.86
567.25	2301.28
567.60	2302.51
567.96	2304.11
568.31	2304.95
568.66	2305.97
569.02	2306.39
569.37	2306.66
569.72	2307.47
570.08	2307.56
570.43	2307.47
570.78	2306.70
571.14	2305.17
571.49	2303.76
571.84	2303.38
572.20	2302.15
572.55	2301.08
572.90	2299.65
573.26	2298.15
573.61	2296.39
573.96	2294.50
574.31	2291.32
574.67	2288.25
575.02	2284.44
575.37	2280.81
575.72	2276.76
576.08	2273.45
576.43	2270.15
576.78	2266.25
577.13	2263.03
577.49	2260.00
577.84	2256.53
578.19	2252.75
578.54	2248.94
578.90	2244.40
579.25	2238.82
579.60	2233.76
579.95	2228.71
580.30	2223.63
580.66	2218.43
581.01	2213.42
581.36	2208.42
581.71	2204.22
582.06	2199.56
582.42	2195.14
582.77	2189.97
583.12	2185.28
583.47	2180.31
583.82	2175.11
584.17	2169.90
584.53	2164.32
584.88	2158.51
585.23	2152.49
585.58	2147.00
585.93	2141.54
586.28	2136.82
586.63	2131.65
586.98	2126.49
587.34	2121.66
587.69	2116.60
588.04	2111.45
588.39	2105.57
588.74	2099.09
589.09	2092.78
589.44	2085.97
589.79	2079.89
590.14	2074.18
590.49	2067.59
590.84	2061.21
591.19	2055.08
591.54	2048.60
591.89	2040.87
592.25	2033.95
592.60	2026.77
592.95	2018.94
593.30	2011.56
593.65	2003.91
594.00	1996.93
594.35	1989.71
594.70	1981.68
595.05	1974.32
595.40	1966.85
595.75	1959.53
596.10	1953.08
596.45	1946.31
596.80	1940.08
597.15	1933.21
597.50	1926.03
597.85	1919.59
598.19	1912.86
598.54	1905.84
598.89	1899.11
599.24	1893.39
599.59	1886.63
599.94	1880.31
600.29	1873.96
600.64	1867.27
600.99	1859.65
601.34	1852.58
601.69	1845.61
602.04	1838.41
602.39	1830.99
602.74	1824.24
603.08	1817.29
603.43	1810.71
603.78	1803.42
604.13	1796.19
604.48	1788.81
604.83	1781.86
605.18	1774.81
605.53	1766.71
605.87	1758.66
606.22	1751.40
606.57	1743.39
606.92	1736.15
607.27	1728.98
607.62	1722.01
607.96	1714.67
608.31	1708.10
608.66	1700.54
609.01	1692.97
609.36	1685.55
609.70	1677.55
610.05	1669.29
610.40	1661.63
610.75	1653.26
611.10	1645.50
611.44	1637.06
611.79	1629.19
612.14	1620.50
612.49	1611.43
612.83	1603.15
613.18	1595.04
613.53	1586.95
613.88	1578.44
614.22	1570.12
614.57	1561.51
614.92	1553.47
615.27	1545.86
615.61	1537.52
615.96	1529.58
616.31	1521.91
616.65	1514.60
617.00	1507.07
617.35	1499.40
617.70	1490.90
618.04	1482.35
618.39	1474.21
618.74	1466.61
619.08	1458.29
619.43	1450.82
619.78	1443.88
620.12	1436.72
620.47	1429.17
620.82	1420.93
621.16	1413.62
621.51	1406.00
621.85	1398.30
622.20	1389.77
622.55	1381.50
622.89	1373.67
623.24	1365.97
623.59	1358.59
623.93	1351.05
624.28	1343.78
624.62	1336.29
624.97	1329.20
625.32	1322.51
625.66	1315.46
626.01	1308.32
626.35	1300.93
626.70	1293.20
627.04	1285.37
627.39	1277.51
627.73	1270.02
628.08	1263.10
628.43	1255.59
628.77	1248.08
629.12	1240.54
629.46	1233.49
629.81	1226.04
630.15	1218.86
630.50	1211.52
630.84	1203.41
631.19	1195.48
631.53	1188.04
631.88	1180.41
632.22	1172.79
632.57	1165.48
632.91	1157.98
633.26	1150.53
633.60	1143.17
633.95	1136.13
634.29	1129.27
634.64	1122.69
634.98	1115.48
635.32	1108.39
635.67	1101.94
636.01	1095.38
636.36	1088.60
636.70	1082.03
637.05	1075.43
637.39	1069.01
637.73	1062.50
638.08	1056.57
638.42	1050.62
638.77	1044.07
639.11	1037.54
639.45	1031.23
639.80	1024.44
640.14	1017.94
640.49	1011.45
640.83	1005.16
641.17	998.85
641.52	992.44
641.86	985.97
642.20	980.02
642.55	973.69
642.89	967.17
643.23	960.68
643.58	955.03
643.92	948.93
644.26	942.85
644.61	936.79
644.95	930.72
645.29	924.04
645.64	917.22
645.98	910.96
646.32	905.22
646.66	899.15
647.01	893.52
647.35	887.91
647.69	882.02
648.04	876.53
648.38	870.77
648.72	864.75
649.06	858.74
649.41	852.95
649.75	846.91
650.09	840.96
650.43	835.10
650.78	828.83
651.12	822.85
651.46	817.25
651.80	811.47
652.14	806.02
652.49	800.72
652.83	795.52
653.17	789.83
653.51	784.08
653.85	778.80
654.20	773.09
654.54	767.16
654.88	761.49
655.22	755.52
655.56	749.81
655.90	744.35
656.25	739.08
656.59	733.62
656.93	728.57
657.27	723.43
657.61	718.04
657.95	713.03
658.29	707.94
658.64	702.68
658.98	697.44
659.32	692.03
659.66	686.88
660.00	681.67
660.34	676.80
660.68	671.90
661.02	666.82
661.36	662.11
661.70	657.62
662.05	653.25
662.39	648.98
662.73	644.52
663.07	640.17
663.41	635.75
663.75	631.29
664.09	626.74
664.43	622.39
664.77	618.29
665.11	614.03
665.45	609.94
665.79	605.85
666.13	601.72
666.47	597.66
666.81	593.45
667.15	589.31
667.49	585.39
667.83	581.53
668.17	577.61
668.51	573.56
668.85	569.50
669.19	565.72
669.53	561.83
669.87	557.96
670.21	554.24
670.55	550.59
670.89	547.18
671.23	543.79
671.57	540.27
671.91	536.79
672.25	533.32
672.58	529.84
672.92	526.53
673.26	523.40
673.60	520.31
673.94	517.25
674.28	514.38
674.62	511.38
674.96	508.30
675.30	505.40
675.64	502.53
675.97	499.85
676.31	496.95
676.65	494.09
676.99	491.44
677.33	488.61
677.67	485.84
678.01	482.88
678.34	479.95
678.68	477.09
679.02	474.26
679.36	471.50
679.70	468.77
680.04	465.95
680.37	463.01
680.71	460.15
681.05	457.56
681.39	454.80
681.73	452.17
682.06	449.67
682.40	447.12
682.74	444.59
683.08	441.94
683.42	439.33
683.75	436.84
684.09	434.27
684.43	431.87
684.77	429.39
685.10	426.98
685.44	424.63
685.78	422.38
686.12	420.16
686.45	417.87
686.79	415.54
687.13	413.34
687.46	411.17
687.80	409.06
688.14	406.82
688.48	404.80
688.81	402.56
689.15	400.41
689.49	398.26
689.82	396.16
690.16	394.10
690.50	392.13
690.83	390.16
691.17	388.21
691.51	386.26
691.84	384.36
692.18	382.45
692.52	380.47
692.85	378.55
693.19	376.62
693.52	374.79
693.86	372.99
694.20	371.24
694.53	369.48
694.87	367.66
695.21	365.87
695.54	364.05
695.88	362.36
696.21	360.65
696.55	359.00
696.88	357.30
697.22	355.64
697.56	354.05
697.89	352.42
698.23	350.80
698.56	349.17
698.90	347.62
699.23	345.96
699.57	344.39
699.90	342.83
700.24	341.33
700.58	339.79
700.91	338.29
701.25	336.82
701.58	335.46
701.92	334.09
702.25	332.73
702.59	331.38
702.92	330.06
703.26	328.76
703.59	327.45
703.93	326.33
704.26	325.09
704.60	323.80
704.93	322.55
705.26	321.32
705.60	320.19
705.93	319.03
706.27	318.02
706.60	317.00
706.94	315.93
707.27	314.76
707.61	313.75
707.94	312.76
708.27	311.68
708.61	310.58
708.94	309.57
709.28	308.60
709.61	307.68
709.94	306.75
710.28	305.74
710.61	304.79
710.95	303.70
711.28	302.84
711.61	301.90
711.95	300.97
712.28	300.01
712.61	299.02
712.95	298.10
713.28	297.21
713.61	296.33
713.95	295.48
714.28	294.70
714.61	293.82
714.95	292.98
715.28	292.15
715.61	291.27
715.95	290.45
716.28	289.59
716.61	288.71
716.95	287.87
717.28	287.09
717.61	286.33
717.94	285.61
718.28	284.81
718.61	284.09
718.94	283.38
719.27	282.73
719.61	282.11
719.94	281.41
720.27	280.70
720.60	280.03
720.94	279.33
721.27	278.73
721.60	278.16
721.93	277.53
722.27	277.00
722.60	276.51
722.93	275.95
723.26	275.44
723.59	274.89
723.93	274.34
724.26	273.78
724.59	273.21
724.92	272.70
725.25	272.17
725.59	271.65
725.92	271.15
726.25	270.66
726.58	270.14
726.91	269.68
727.24	269.21
727.57	268.71
727.91	268.26
728.24	267.81
728.57	267.33
728.90	266.88
729.23	266.37
729.56	265.91
729.89	265.43
730.22	264.93
730.55	264.47
730.89	264.04
731.22	263.63
731.55	263.20
731.88	262.76
732.21	262.35
732.54	261.91
732.87	261.50
733.20	261.09
733.53	260.69
733.86	260.30
734.19	259.89
734.52	259.52
734.85	259.17
735.18	258.72
735.51	258.33
735.84	257.94
736.17	257.58
736.50	257.15
736.83	256.90
737.16	256.53
737.49	256.18
737.82	255.79
738.15	255.45
738.48	255.11
738.81	254.77
739.14	254.41
739.47	254.12
739.80	253.81
740.13	253.52
740.46	253.18
740.79	252.87
741.12	252.59
741.45	252.27
741.78	251.93
742.11	251.66
742.44	251.34
742.77	251.07
743.10	250.77
743.43	250.50
743.75	250.12
744.08	250.02
744.41	249.76
744.74	249.54
745.07	249.27
745.40	249.07
745.73	248.82
746.06	248.54
746.39	248.28
746.71	248.01
747.04	247.73
747.37	247.51
747.70	247.24
748.03	247.01
748.36	246.81
748.68	246.58
749.01	246.37
749.34	246.19
749.67	245.98
750.00	245.73
750.33	245.60
750.65	245.43
750.98	245.11
751.31	244.89
751.64	244.71
751.97	244.57
752.29	244.34
752.62	244.10
752.95	243.95
753.28	243.72
753.60	243.53
753.93	243.35
754.26	243.18
754.59	243.01
754.91	242.80
755.24	242.61
755.57	242.42
755.90	242.23
756.22	242.00
756.55	241.83
756.88	241.68
757.20	241.39
757.53	241.21
757.86	241.04
758.19	240.85
758.51	240.65
758.84	240.40
759.17	240.22
759.49	240.04
759.82	239.89
760.15	239.76
760.47	239.63
760.80	239.45
761.13	239.30
761.45	239.13
761.78	239.02
762.11	238.85
762.43	238.71
762.76	238.53
763.08	238.40
763.41	238.25
763.74	238.13
764.06	238.01
764.39	237.81
764.71	237.66
765.04	237.55
765.37	237.37
765.69	237.25
766.02	237.09
766.34	236.98
766.67	236.82
767.00	236.70
767.32	236.62
767.65	236.59
767.97	236.44
768.30	236.31
768.62	236.16
768.95	236.04
769.27	235.90
769.60	235.82
769.92	235.70
770.25	235.57
770.57	235.42
770.90	235.31
771.22	235.20
771.55	235.07
771.87	234.98
772.20	234.88
772.52	234.84
772.85	234.88
773.17	234.78
773.50	234.64
773.82	234.52
774.15	234.40
774.47	234.23
774.80	234.12
775.12	234.01
775.45	233.94
775.77	233.85
776.09	233.78
776.42	233.70
776.74	233.64
777.07	233.57
777.39	233.52
777.72	233.45
778.04	233.39
778.36	233.33
778.69	233.25
779.01	233.21
779.33	233.06
779.66	232.87
779.98	232.81
780.31	232.80
780.63	232.79
780.95	232.68
781.28	232.62
781.60	232.54
781.92	232.49
782.25	232.42
782.57	232.40
782.89	232.32
783.22	232.25
783.54	232.16
783.86	232.10
784.19	232.02
784.51	232.00
784.83	231.94
785.16	231.87
785.48	231.84
785.80	231.80
786.12	231.77
786.45	231.72
786.77	231.70
787.09	231.64
787.42	231.54
787.74	231.52
788.06	231.50
788.38	231.50
788.71	231.49
789.03	231.47
789.35	231.42
789.67	231.39
789.99	231.34
790.32	231.31
790.64	231.29
790.96	231.34
791.28	231.28
791.61	231.26
791.93	231.24
792.25	231.19
792.57	231.23
792.89	231.19
793.21	231.19
793.54	231.14
793.86	231.12
794.18	231.12
794.50	231.06
794.82	231.04
795.14	231.01
795.47	231.00
795.79	230.96
796.11	230.91
796.43	230.91
796.75	230.94
797.07	230.91
797.39	230.86
797.71	230.76
798.04	230.69
798.36	230.69
798.68	230.66
799.00	230.63
799.32	230.53
799.64	230.55
799.96	230.52
800.28	230.51
800.60	230.45
800.92	230.39
801.24	230.40
801.56	230.38
801.89	230.33
802.21	230.28
802.53	230.24
802.85	230.22
803.17	230.22
803.49	230.12
803.81	230.09
804.13	230.08
804.45	230.04
804.77	230.03
805.09	230.03
805.41	229.96
805.73	229.91
806.05	229.87
806.37	229.80
806.69	229.75
807.01	229.70
807.33	229.68
807.65	229.62
807.97	229.60
808.28	229.56
808.60	229.53
808.92	229.50
809.24	229.56
809.56	229.50
809.88	229.41
810.20	229.41
810.52	229.40
810.84	229.33
811.16	229.29
811.48	229.25
811.80	229.19
812.12	229.18
812.43	229.17
812.75	229.16
813.07	229.12
813.39	229.09
813.71	229.08
814.03	229.00
814.35	228.96
814.67	228.89
814.98	228.84
815.30	228.80
815.62	228.76
815.94	228.65
816.26	228.65
816.58	228.63
816.89	228.62
817.21	228.56
817.53	228.58
817.85	228.56
818.17	228.57
818.48	228.52
818.80	228.53
819.12	228.49
819.44	228.42
819.76	228.37
820.07	228.37
820.39	228.34
820.71	228.40
821.03	228.43
821.34	228.42
821.66	228.42
821.98	228.42
822.30	228.41
822.61	228.45
822.93	228.39
823.25	228.37
823.57	228.34
823.88	228.32
824.20	228.31
824.52	228.32
824.83	228.30
825.15	228.27
825.47	228.26
825.79	228.27
826.10	228.28
826.42	228.31
826.74	228.31
827.05	228.32
827.37	228.30
827.69	228.26
828.00	228.23
828.32	228.26
828.64	228.24
828.95	228.25
829.27	228.23
829.58	228.25
829.90	228.28
830.22	228.30
830.53	228.29
830.85	228.27
831.17	228.23
831.48	228.25
831.80	228.29
832.11	228.27
832.43	228.27
832.75	228.25
833.06	228.30
833.38	228.26
833.69	228.23
834.01	228.23
834.32	228.23
834.64	228.22
834.96	228.22
835.27	228.22
835.59	228.22
835.90	228.20
836.22	228.19
836.53	228.16
836.85	228.15
837.16	228.26
837.48	228.26
837.79	228.31
838.11	228.24
838.42	228.21
838.74	228.24
839.05	228.22
839.37	228.24
839.68	228.18
840.00	228.13
840.31	228.14
840.63	228.11
840.94	228.12
841.26	228.13
841.57	228.11
841.88	228.10
842.20	228.09
842.51	228.05
842.83	228.06
843.14	228.13
843.46	228.08
843.77	228.02
844.08	228.00
844.40	227.97
844.71	227.93
845.03	227.92
845.34	227.89
845.65	227.89
845.97	227.85
846.28	227.84
846.60	227.87
846.91	227.83
847.22	227.81
847.54	227.80
847.85	227.78
848.16	227.74
848.48	227.69
848.79	227.69
849.10	227.69
849.42	227.69
849.73	227.60
850.04	227.61
850.36	227.56
850.67	227.54
850.98	227.48
851.30	227.53
851.61	227.52
851.92	227.48
852.23	227.45
852.55	227.47
852.86	227.45
853.17	227.43
853.49	227.43
853.80	227.48
854.11	227.48
854.42	227.48
854.74	227.48
855.05	227.50
855.36	227.43
855.67	227.43
855.99	227.41
856.30	227.49
856.61	227.46
856.92	227.45
857.23	227.46
857.55	227.46
857.86	227.44
858.17	227.45
858.48	227.43
858.79	227.45
859.11	227.44
859.42	227.45
859.73	227.43
860.04	227.43
860.35	227.35
860.66	227.34
860.98	227.33
861.29	227.32
861.60	227.29
861.91	227.31
862.22	227.30
862.53	227.28
862.84	227.17
863.16	227.22
863.47	227.23
863.78	227.21
864.09	227.24
864.40	227.19
864.71	227.18
865.02	227.23
865.33	227.19
865.64	227.13
865.95	227.14
866.27	227.23
866.58	227.26
866.89	227.30
867.20	227.28
867.51	227.27
867.82	227.29
868.13	227.31
868.44	227.32
868.75	227.33
869.06	227.34
869.37	227.37
869.68	227.33
869.99	227.33
870.30	227.37
870.61	227.41
870.92	227.43
871.23	227.44
871.54	227.42
871.85	227.47
872.16	227.53
872.47	227.52
872.78	227.46
873.09	227.45
873.40	227.45
873.71	227.48
874.02	227.51
874.33	227.49
874.64	227.47
874.95	227.46
875.26	227.44
875.56	227.47
875.87	227.46
876.18	227.47
876.49	227.56
876.80	227.55
877.11	227.54
877.42	227.52
877.73	227.53
878.04	227.53
878.35	227.52
878.66	227.55
878.96	227.56
879.27	227.55
879.58	227.55
879.89	227.55
880.20	227.57
880.51	227.53
880.82	227.54
881.12	227.56
881.43	227.57
881.74	227.60
882.05	227.59
882.36	227.61
882.67	227.59
882.97	227.50
883.28	227.49
883.59	227.44
883.90	227.47
884.21	227.49
884.51	227.46
884.82	227.44
885.13	227.39
885.44	227.38
885.74	227.40
886.05	227.35
886.36	227.35
886.67	227.32
886.98	227.38
887.28	227.37
887.59	227.37
887.90	227.38
888.20	227.34
888.51	227.36
888.82	227.32
889.13	227.30
889.43	227.36
889.74	227.31
890.05	227.31
890.35	227.29
890.66	227.22
890.97	227.21
891.28	227.19
891.58	227.19
891.89	227.10
892.20	227.06
892.50	227.07
892.81	227.04
893.12	227.02
893.42	226.94
893.73	226.95
894.04	226.96
894.34	226.91
894.65	226.89
894.95	226.85
895.26	226.88
895.57	226.96
895.87	226.86
896.18	226.89
896.48	226.90
896.79	226.90
897.10	226.91
897.40	226.94
897.71	226.97
898.01	226.97
898.32	227.05
898.63	227.07
898.93	227.08
899.24	227.06
899.54	227.05
899.85	227.04
900.15	227.03
900.46	227.00
900.76	227.04
901.07	227.05
901.38	227.08
901.68	227.06
901.99	226.98
902.29	227.01
902.60	226.99
902.90	227.00
903.21	227.01
903.51	227.02
903.82	227.02
904.12	227.02
904.43	227.01
904.73	226.99
905.03	226.99
905.34	227.09
905.64	227.11
905.95	227.15
906.25	227.21
906.56	227.20
906.86	227.20
907.17	227.20
907.47	227.22
907.77	227.20
908.08	227.24
908.38	227.25
908.69	227.29
908.99	227.32
909.30	227.36
909.60	227.36
909.90	227.40
910.21	227.39
910.51	227.39
910.81	227.38
911.12	227.38
911.42	227.40
911.73	227.31
912.03	227.35
912.33	227.36
912.64	227.35
912.94	227.36
913.24	227.36
913.55	227.36
913.85	227.34
914.15	227.37
914.46	227.36
914.76	227.38
915.06	227.35
915.37	227.34
915.67	227.34
915.97	227.32
916.27	227.31
916.58	227.31
916.88	227.32
917.18	227.31
917.49	227.41
917.79	227.41
918.09	227.41
918.39	227.42
918.70	227.41
919.00	227.41
919.30	227.48
919.60	227.46
919.91	227.44
920.21	227.45
920.51	227.46
920.81	227.44
921.12	227.44
921.42	227.38
921.72	227.40
922.02	227.39
922.32	227.41
922.63	227.39
922.93	227.42
923.23	227.41
923.53	227.42
923.83	227.35
924.13	227.30
924.44	227.29
924.74	227.29
925.04	227.26
925.34	227.22
925.64	227.17
925.94	227.16
926.24	227.21
926.55	227.17
926.85	227.11
927.15	227.13
927.45	227.12
927.75	227.15
928.05	227.10
928.35	227.05
928.65	227.06
928.95	227.02
929.26	226.98
929.56	226.98
929.86	226.98
930.16	226.97
930.46	226.96
930.76	226.94
931.06	226.90
931.36	226.88
931.66	226.88
931.96	226.85
932.26	226.87
932.56	226.83
932.86	226.83
933.16	226.84
933.46	226.80
933.76	226.78
934.06	226.80
934.36	226.85
934.66	226.84
934.96	226.77
935.26	226.79
935.56	226.81
935.86	226.77
936.16	226.75
936.46	226.73
936.76	226.71
937.06	226.73
937.36	226.74
937.66	226.73
937.96	226.73
938.26	226.70
938.56	226.71
938.86	226.72
939.16	226.70
939.46	226.72
939.76	226.74
940.06	226.71
940.35	226.66
940.65	226.64
940.95	226.67
941.25	226.70
941.55	226.67
941.85	226.67
942.15	226.73
942.45	226.80
942.75	226.78
943.04	226.83
943.34	226.83
943.64	226.81
943.94	226.83
944.24	226.84
944.54	226.87
944.84	226.88
945.13	226.88
945.43	226.91
945.73	226.89
946.03	226.92
946.33	226.94
946.62	226.99
946.92	227.02
947.22	227.05
947.52	227.07
947.82	227.11
948.11	227.11
948.41	227.10
948.71	227.06
949.01	227.09
949.31	227.08
949.60	227.08
949.90	227.11
950.20	227.13
950.50	227.12
950.79	227.13
951.09	227.11
951.39	227.09
951.69	227.11
951.98	227.12
952.28	227.14
952.58	227.14
952.87	227.13
953.17	227.09
953.47	227.08
953.76	227.07
954.06	227.05
954.36	227.07
954.66	227.06
954.95	227.12
955.25	227.14
955.55	227.14
955.84	227.13
956.14	227.11
956.44	227.11
956.73	227.09
957.03	227.07
957.32	227.05
957.62	227.06
957.92	227.04
958.21	227.03
958.51	227.09
958.81	227.10
959.10	227.11
959.40	227.14
959.69	227.11
959.99	227.12
960.29	227.13
960.58	227.09
960.88	227.11
961.17	227.03
961.47	227.01
961.76	227.01
962.06	227.02
962.36	227.02
962.65	227.01
962.95	227.04
963.24	227.03
963.54	227.03
963.83	227.02
964.13	227.00
964.42	226.96
964.72	226.92
965.01	226.87
965.31	226.88
965.60	226.83
965.90	226.90
966.19	226.85
966.49	226.82
966.78	226.80
967.08	226.77
967.37	226.77
967.67	226.74
967.96	226.73
968.26	226.74
968.55	226.74
968.85	226.74
969.14	226.71
969.43	226.70
969.73	226.71
970.02	226.71
970.32	226.72
970.61	226.70
970.91	226.65
971.20	226.64
971.49	226.60
971.79	226.61
972.08	226.53
972.38	226.56
972.67	226.57
972.96	226.58
973.26	226.58
973.55	226.60
973.85	226.60
974.14	226.59
974.43	226.57
974.73	226.57
975.02	226.56
975.31	226.56
975.61	226.57
975.90	226.56
976.19	226.57
976.49	226.57
976.78	226.61
977.07	226.61
977.37	226.64
977.66	226.66
977.95	226.64
978.24	226.67
978.54	226.70
978.83	226.68
979.12	226.73
979.42	226.73
979.71	226.74
980.00	226.74
980.29	226.74
980.59	226.78
980.88	226.80
981.17	226.83
981.46	226.81
981.76	226.81
982.05	226.85
982.34	226.85
982.63	226.89
982.93	226.91
983.22	226.98
983.51	226.99
983.80	227.03
984.09	227.08
984.39	227.06
984.68	227.05
984.97	227.06
985.26	227.05
985.55	227.08
985.85	227.08
986.14	227.12
986.43	227.16
986.72	227.15
987.01	227.11
987.30	227.12
987.59	227.13
987.89	227.18
988.18	227.16
988.47	227.16
988.76	227.16
989.05	227.15
989.34	227.12
989.63	227.13
989.92	227.10
990.22	227.10
990.51	227.12
990.80	227.12
991.09	227.17
991.38	227.19
991.67	227.18
991.96	227.20
992.25	227.18
992.54	227.17
992.83	227.13
993.12	227.16
993.41	227.16
993.70	227.22
993.99	227.23
994.28	227.24
994.58	227.22
994.87	227.19
995.16	227.16
995.45	227.15
995.74	227.12
996.03	227.11
996.32	227.12
996.61	227.10
996.90	227.09
997.19	227.10
997.48	227.07
997.77	227.07
998.06	227.04
998.34	227.05
998.63	226.99
998.92	227.01
999.21	227.01
999.50	227.00
999.79	226.96
1000.08	226.94
1000.37	226.93
1000.66	226.93
1000.95	226.96
1001.24	226.97
1001.53	226.97
1001.82	226.97
1002.11	226.97
1002.40	226.97
1002.68	227.00
1002.97	227.05
1003.26	226.99
1003.55	226.98
1003.84	226.99
1004.13	227.02
1004.42	227.02
1004.71	227.06
1004.99	227.03
1005.28	227.04
1005.57	227.01
1005.86	227.00
1006.15	226.97
1006.44	226.94
1006.72	226.92
1007.01	226.91
1007.30	226.91
1007.59	226.90
1007.88	226.89
1008.17	226.89
1008.45	226.87
1008.74	226.84
1009.03	226.82
1009.32	226.82
1009.60	226.82
1009.89	226.79
1010.18	226.75
1010.47	226.73
1010.76	226.75
1011.04	226.77
1011.33	226.76
1011.62	226.78
1011.91	226.78
1012.19	226.76
1012.48	226.79
1012.77	226.80
1013.05	226.83
1013.34	226.82
1013.63	226.82
1013.92	226.82
1014.20	226.81
1014.49	226.80
1014.78	226.79
1015.06	226.73
1015.35	226.72
1015.64	226.72
1015.92	226.72
1016.21	226.72
1016.50	226.74
1016.78	226.73
1017.07	226.72
1017.36	226.71
1017.64	226.68
1017.93	226.70
1018.22	226.71
1018.50	226.68
1018.79	226.69
1019.08	226.67
1019.36	226.69
1019.65	226.67
1019.93	226.69
1020.22	226.73
1020.51	226.80
1020.79	226.80
1021.08	226.59
1021.36	226.41
1021.65	226.59
1021.94	227.23
1022.22	226.97
1022.51	226.53
1022.79	227.13
1023.08	227.16
1023.36	228.19
1023.65	226.71
>>>>>End Processed Spectral Data<<<<<
