SpectraSuite Data File
++++++++++++++++++++++++++++++++++++
Date: Fri Feb 01 16:05:07 EST 2013
User: group
Dark Spectrum Present: No
Reference Spectrum Present: No
Number of Sampled Component Spectra: 1
Spectrometers: USB2E7196
Integration Time (usec): 35000 (USB2E7196)
Spectra Averaged: 100 (USB2E7196)
Boxcar Smoothing: 10 (USB2E7196)
Correct for Electrical Dark: No (USB2E7196)
Strobe/Lamp Enabled: No (USB2E7196)
Correct for Detector Non-linearity: No (USB2E7196)
Correct for Stray Light: No (USB2E7196)
Number of Pixels in Processed Spectrum: 2048
>>>>>Begin Processed Spectral Data<<<<<
339.09	0.00
339.48	214.29
339.86	216.33
340.24	218.06
340.63	218.54
341.01	221.41
341.39	221.34
341.78	222.80
342.16	224.27
342.54	224.37
342.93	212.98
343.31	223.75
343.69	224.31
344.07	224.77
344.46	225.18
344.84	225.58
345.22	225.82
345.60	226.08
345.99	226.26
346.37	226.41
346.75	226.49
347.13	226.54
347.52	226.58
347.90	226.64
348.28	226.69
348.66	226.73
349.05	226.71
349.43	226.76
349.81	226.79
350.19	226.84
350.57	226.89
350.96	226.96
351.34	227.04
351.72	227.12
352.10	227.20
352.48	227.26
352.87	227.32
353.25	227.38
353.63	227.46
354.01	227.52
354.39	227.56
354.77	227.66
355.15	227.75
355.54	227.82
355.92	227.85
356.30	227.91
356.68	228.06
357.06	228.16
357.44	228.20
357.82	228.30
358.20	228.36
358.58	228.44
358.97	228.53
359.35	228.61
359.73	228.69
360.11	228.73
360.49	228.82
360.87	228.85
361.25	228.92
361.63	228.98
362.01	229.05
362.39	229.09
362.77	229.15
363.15	229.16
363.53	229.20
363.91	229.23
364.29	229.21
364.67	229.13
365.05	229.14
365.43	229.19
365.81	229.15
366.19	229.19
366.57	229.23
366.95	229.20
367.33	229.19
367.71	229.17
368.09	229.18
368.47	229.15
368.85	229.14
369.23	229.13
369.61	229.06
369.99	229.06
370.37	229.03
370.75	229.00
371.13	228.99
371.51	228.94
371.89	228.91
372.27	228.91
372.65	228.88
373.03	228.80
373.41	228.71
373.78	228.67
374.16	228.56
374.54	228.44
374.92	228.38
375.30	228.30
375.68	228.24
376.06	228.19
376.44	228.12
376.82	228.05
377.19	227.98
377.57	227.92
377.95	227.81
378.33	227.75
378.71	227.68
379.09	227.61
379.47	227.55
379.84	227.47
380.22	227.39
380.60	227.30
380.98	227.26
381.36	227.23
381.73	227.15
382.11	227.10
382.49	227.08
382.87	227.02
383.25	226.95
383.62	227.00
384.00	226.94
384.38	226.86
384.76	226.83
385.13	226.81
385.51	226.79
385.89	226.75
386.27	226.66
386.64	226.60
387.02	226.54
387.40	226.51
387.78	226.49
388.15	226.43
388.53	226.42
388.91	226.34
389.29	226.28
389.66	226.28
390.04	226.24
390.42	226.21
390.79	226.20
391.17	226.23
391.55	226.09
391.92	226.06
392.30	226.06
392.68	226.02
393.05	225.99
393.43	225.97
393.81	225.95
394.18	225.96
394.56	225.99
394.94	226.02
395.31	226.03
395.69	226.09
396.06	226.15
396.44	226.17
396.82	226.23
397.19	226.34
397.57	226.37
397.95	226.43
398.32	226.46
398.70	226.55
399.07	226.59
399.45	226.67
399.82	226.74
400.20	226.83
400.58	226.91
400.95	226.96
401.33	227.06
401.70	227.23
402.08	227.33
402.45	227.42
402.83	227.54
403.20	227.63
403.58	227.70
403.95	227.81
404.33	227.93
404.71	228.04
405.08	228.18
405.46	228.32
405.83	228.46
406.21	228.60
406.58	228.74
406.96	228.90
407.33	229.09
407.70	229.30
408.08	229.53
408.45	229.76
408.83	229.99
409.20	230.21
409.58	230.37
409.95	230.64
410.33	230.89
410.70	231.13
411.08	231.45
411.45	231.76
411.82	232.09
412.20	232.46
412.57	232.86
412.95	233.17
413.32	233.61
413.69	234.02
414.07	234.46
414.44	234.93
414.82	235.38
415.19	235.93
415.56	236.47
415.94	237.02
416.31	237.64
416.68	238.29
417.06	239.00
417.43	239.72
417.81	240.47
418.18	241.28
418.55	242.12
418.93	242.99
419.30	243.88
419.67	244.79
420.04	245.78
420.42	246.77
420.79	247.96
421.16	249.09
421.54	250.27
421.91	251.50
422.28	252.75
422.66	254.07
423.03	255.35
423.40	256.65
423.77	258.09
424.15	259.52
424.52	261.05
424.89	262.68
425.26	264.22
425.64	265.69
426.01	267.26
426.38	268.96
426.75	270.61
427.13	272.36
427.50	274.19
427.87	276.05
428.24	277.97
428.61	279.70
428.99	281.65
429.36	283.74
429.73	285.76
430.10	287.78
430.47	289.88
430.85	292.01
431.22	294.29
431.59	296.66
431.96	298.93
432.33	301.38
432.70	303.69
433.08	306.52
433.45	309.11
433.82	311.75
434.19	314.61
434.56	317.43
434.93	320.06
435.30	322.63
435.68	325.50
436.05	328.30
436.42	331.11
436.79	333.62
437.16	336.32
437.53	339.20
437.90	341.93
438.27	344.67
438.64	347.50
439.01	350.07
439.38	352.28
439.75	354.44
440.13	356.92
440.50	359.28
440.87	361.13
441.24	363.10
441.61	365.23
441.98	366.68
442.35	368.51
442.72	370.38
443.09	372.20
443.46	373.23
443.83	373.82
444.20	374.29
444.57	375.12
444.94	375.40
445.31	375.71
445.68	376.15
446.05	376.25
446.42	375.82
446.79	375.39
447.16	374.91
447.53	374.52
447.90	373.31
448.27	372.11
448.64	370.46
449.01	369.32
449.37	367.33
449.74	365.40
450.11	363.13
450.48	360.66
450.85	358.12
451.22	355.93
451.59	353.91
451.96	351.96
452.33	349.35
452.70	347.01
453.07	344.19
453.43	341.25
453.80	338.45
454.17	335.78
454.54	333.26
454.91	330.60
455.28	327.97
455.65	325.50
456.02	323.09
456.38	320.94
456.75	318.26
457.12	316.03
457.49	313.85
457.86	311.67
458.23	309.83
458.59	307.81
458.96	305.77
459.33	303.90
459.70	302.05
460.07	300.58
460.43	298.85
460.80	297.23
461.17	295.83
461.54	294.35
461.91	292.92
462.27	291.47
462.64	290.23
463.01	288.90
463.38	287.68
463.74	286.31
464.11	285.17
464.48	284.17
464.85	283.05
465.21	282.17
465.58	281.23
465.95	280.13
466.32	279.22
466.68	278.28
467.05	277.38
467.42	276.53
467.78	275.58
468.15	274.75
468.52	274.12
468.88	273.22
469.25	272.44
469.62	271.86
469.98	271.18
470.35	270.55
470.72	269.95
471.08	269.29
471.45	268.74
471.82	268.21
472.18	267.61
472.55	267.22
472.92	266.75
473.28	266.33
473.65	265.88
474.02	265.45
474.38	265.13
474.75	264.83
475.11	264.47
475.48	264.22
475.85	263.94
476.21	263.69
476.58	263.54
476.94	263.43
477.31	263.27
477.67	263.13
478.04	263.00
478.41	262.92
478.77	262.95
479.14	262.92
479.50	262.92
479.87	263.05
480.23	263.10
480.60	263.15
480.96	263.21
481.33	263.47
481.69	263.67
482.06	263.88
482.42	264.09
482.79	264.32
483.15	264.65
483.52	265.09
483.88	265.46
484.25	265.81
484.61	266.22
484.98	266.66
485.34	267.21
485.71	267.81
486.07	268.47
486.44	269.05
486.80	269.73
487.17	270.49
487.53	271.25
487.90	272.15
488.26	273.10
488.62	274.08
488.99	275.01
489.35	276.05
489.72	277.18
490.08	278.38
490.44	279.63
490.81	280.98
491.17	282.28
491.54	283.77
491.90	285.34
492.26	287.01
492.63	288.74
492.99	290.53
493.36	292.41
493.72	294.44
494.08	296.56
494.45	298.83
494.81	301.21
495.17	303.66
495.54	306.22
495.90	308.89
496.26	311.73
496.63	314.73
496.99	317.85
497.35	321.13
497.72	324.54
498.08	328.10
498.44	331.71
498.80	335.65
499.17	339.67
499.53	343.85
499.89	348.24
500.26	352.75
500.62	357.46
500.98	362.42
501.34	367.48
501.71	372.86
502.07	378.26
502.43	383.85
502.79	389.69
503.16	395.70
503.52	401.97
503.88	408.37
504.24	415.01
504.60	421.89
504.97	428.99
505.33	436.33
505.69	444.02
506.05	451.85
506.41	459.80
506.78	467.98
507.14	476.48
507.50	485.18
507.86	494.17
508.22	503.33
508.59	512.62
508.95	522.26
509.31	532.07
509.67	542.25
510.03	552.63
510.39	563.18
510.75	574.01
511.12	584.98
511.48	596.34
511.84	607.82
512.20	619.36
512.56	631.34
512.92	643.58
513.28	655.95
513.64	668.47
514.00	681.13
514.37	694.10
514.73	707.17
515.09	720.28
515.45	733.61
515.81	747.26
516.17	761.19
516.53	775.29
516.89	789.45
517.25	803.64
517.61	818.04
517.97	832.53
518.33	846.99
518.69	861.74
519.05	876.63
519.41	891.70
519.77	907.19
520.13	922.50
520.49	937.87
520.85	953.27
521.21	968.96
521.57	985.21
521.93	1000.90
522.29	1017.15
522.65	1033.31
523.01	1049.55
523.37	1065.59
523.73	1081.77
524.09	1097.84
524.45	1114.10
524.81	1130.65
525.17	1147.33
525.53	1164.21
525.89	1181.06
526.25	1197.90
526.61	1214.33
526.97	1231.19
527.33	1247.75
527.68	1264.38
528.04	1280.82
528.40	1297.39
528.76	1314.47
529.12	1331.02
529.48	1347.87
529.84	1363.93
530.20	1380.50
530.56	1397.43
530.91	1414.80
531.27	1431.53
531.63	1447.94
531.99	1464.43
532.35	1480.37
532.71	1496.39
533.07	1512.64
533.42	1528.47
533.78	1544.45
534.14	1560.67
534.50	1575.81
534.86	1591.48
535.21	1606.67
535.57	1622.60
535.93	1637.86
536.29	1652.53
536.65	1667.56
537.00	1682.20
537.36	1697.44
537.72	1712.01
538.08	1726.34
538.44	1740.03
538.79	1753.89
539.15	1767.48
539.51	1781.20
539.87	1795.55
540.22	1809.17
540.58	1822.78
540.94	1835.97
541.29	1848.76
541.65	1861.32
542.01	1874.51
542.37	1886.94
542.72	1899.30
543.08	1910.88
543.44	1923.38
543.79	1934.53
544.15	1945.41
544.51	1957.16
544.87	1968.15
545.22	1978.91
545.58	1989.21
545.94	1998.96
546.29	2008.82
546.65	2018.70
547.01	2027.97
547.36	2036.55
547.72	2045.00
548.07	2052.79
548.43	2061.08
548.79	2069.15
549.14	2076.97
549.50	2084.29
549.86	2091.90
550.21	2099.18
550.57	2106.49
550.92	2113.03
551.28	2120.12
551.64	2127.33
551.99	2133.60
552.35	2139.73
552.70	2145.84
553.06	2151.86
553.41	2158.20
553.77	2164.19
554.13	2170.31
554.48	2176.44
554.84	2181.93
555.19	2187.15
555.55	2192.41
555.90	2196.86
556.26	2201.75
556.61	2206.27
556.97	2210.63
557.32	2214.73
557.68	2218.75
558.03	2222.97
558.39	2226.67
558.74	2231.30
559.10	2235.00
559.45	2238.80
559.81	2243.07
560.16	2246.88
560.52	2250.07
560.87	2253.63
561.23	2256.28
561.58	2259.17
561.94	2261.65
562.29	2263.97
562.64	2266.73
563.00	2269.35
563.35	2272.92
563.71	2276.03
564.06	2279.21
564.42	2282.07
564.77	2284.70
565.12	2287.11
565.48	2289.09
565.83	2291.01
566.19	2292.28
566.54	2293.19
566.89	2294.47
567.25	2295.02
567.60	2296.37
567.96	2298.10
568.31	2298.72
568.66	2299.82
569.02	2300.37
569.37	2300.84
569.72	2301.97
570.08	2302.15
570.43	2302.21
570.78	2301.58
571.14	2299.95
571.49	2298.58
571.84	2298.25
572.20	2297.09
572.55	2296.05
572.90	2294.37
573.26	2292.93
573.61	2291.23
573.96	2289.63
574.31	2286.54
574.67	2283.56
575.02	2279.94
575.37	2276.58
575.72	2272.86
576.08	2269.33
576.43	2266.11
576.78	2262.37
577.13	2258.95
577.49	2255.78
577.84	2252.24
578.19	2248.50
578.54	2244.96
578.90	2240.81
579.25	2235.40
579.60	2230.36
579.95	2225.29
580.30	2220.30
580.66	2215.22
581.01	2210.36
581.36	2205.28
581.71	2201.13
582.06	2196.98
582.42	2192.65
582.77	2187.33
583.12	2182.80
583.47	2178.38
583.82	2173.42
584.17	2168.16
584.53	2162.77
584.88	2157.23
585.23	2151.59
585.58	2146.04
585.93	2140.56
586.28	2135.69
586.63	2130.59
586.98	2125.57
587.34	2120.96
587.69	2116.06
588.04	2110.78
588.39	2105.12
588.74	2098.69
589.09	2092.55
589.44	2085.59
589.79	2079.38
590.14	2073.72
590.49	2067.13
590.84	2060.63
591.19	2054.44
591.54	2047.99
591.89	2040.69
592.25	2033.93
592.60	2026.68
592.95	2019.21
593.30	2011.99
593.65	2004.46
594.00	1997.38
594.35	1990.05
594.70	1982.00
595.05	1974.96
595.40	1967.73
595.75	1960.35
596.10	1954.21
596.45	1947.53
596.80	1941.37
597.15	1934.88
597.50	1927.88
597.85	1921.60
598.19	1914.94
598.54	1907.99
598.89	1901.36
599.24	1895.44
599.59	1888.75
599.94	1882.43
600.29	1876.03
600.64	1869.48
600.99	1862.06
601.34	1855.24
601.69	1848.34
602.04	1841.54
602.39	1834.01
602.74	1827.14
603.08	1820.33
603.43	1813.58
603.78	1806.10
604.13	1798.86
604.48	1791.61
604.83	1784.70
605.18	1777.71
605.53	1769.88
605.87	1761.86
606.22	1754.75
606.57	1746.84
606.92	1739.44
607.27	1732.38
607.62	1725.49
607.96	1718.17
608.31	1711.62
608.66	1703.93
609.01	1696.39
609.36	1688.87
609.70	1680.92
610.05	1672.94
610.40	1665.28
610.75	1657.02
611.10	1649.42
611.44	1640.99
611.79	1632.91
612.14	1624.24
612.49	1615.07
612.83	1606.54
613.18	1598.45
613.53	1590.19
613.88	1581.59
614.22	1573.40
614.57	1564.72
614.92	1556.70
615.27	1549.21
615.61	1540.91
615.96	1532.93
616.31	1525.35
616.65	1517.94
617.00	1510.40
617.35	1502.70
617.70	1494.34
618.04	1485.71
618.39	1477.50
618.74	1469.96
619.08	1461.66
619.43	1454.00
619.78	1447.08
620.12	1439.94
620.47	1432.34
620.82	1424.16
621.16	1416.77
621.51	1409.09
621.85	1401.52
622.20	1392.99
622.55	1384.50
622.89	1376.61
623.24	1368.93
623.59	1361.48
623.93	1353.99
624.28	1346.74
624.62	1339.20
624.97	1332.03
625.32	1325.28
625.66	1318.33
626.01	1311.08
626.35	1303.68
626.70	1296.04
627.04	1288.28
627.39	1280.43
627.73	1273.02
628.08	1266.20
628.43	1258.94
628.77	1251.64
629.12	1244.11
629.46	1236.92
629.81	1229.48
630.15	1222.30
630.50	1215.00
630.84	1206.91
631.19	1198.91
631.53	1191.40
631.88	1183.90
632.22	1176.21
632.57	1168.99
632.91	1161.55
633.26	1154.13
633.60	1146.76
633.95	1139.63
634.29	1132.58
634.64	1125.90
634.98	1118.52
635.32	1111.30
635.67	1104.64
636.01	1097.88
636.36	1091.10
636.70	1084.60
637.05	1078.16
637.39	1071.68
637.73	1065.18
638.08	1059.26
638.42	1053.30
638.77	1046.90
639.11	1040.29
639.45	1034.00
639.80	1027.32
640.14	1020.90
640.49	1014.36
640.83	1008.13
641.17	1001.90
641.52	995.51
641.86	989.09
642.20	983.25
642.55	976.90
642.89	970.44
643.23	963.89
643.58	958.11
643.92	951.89
644.26	945.77
644.61	939.69
644.95	933.59
645.29	926.96
645.64	920.11
645.98	913.72
646.32	907.77
646.66	901.65
647.01	895.88
647.35	890.08
647.69	884.22
648.04	878.59
648.38	872.75
648.72	866.75
649.06	860.76
649.41	854.88
649.75	848.88
650.09	842.92
650.43	837.12
650.78	830.94
651.12	825.01
651.46	819.22
651.80	813.44
652.14	808.05
652.49	802.66
652.83	797.60
653.17	791.99
653.51	786.36
653.85	780.96
654.20	775.31
654.54	769.23
654.88	763.53
655.22	757.61
655.56	751.95
655.90	746.47
656.25	741.10
656.59	735.72
656.93	730.68
657.27	725.55
657.61	720.06
657.95	714.91
658.29	709.80
658.64	704.53
658.98	699.27
659.32	693.84
659.66	688.65
660.00	683.32
660.34	678.28
660.68	673.32
661.02	668.27
661.36	663.45
661.70	658.99
662.05	654.54
662.39	650.26
662.73	645.71
663.07	641.42
663.41	637.01
663.75	632.51
664.09	627.95
664.43	623.52
664.77	619.48
665.11	615.24
665.45	611.07
665.79	606.99
666.13	602.85
666.47	598.69
666.81	594.55
667.15	590.42
667.49	586.57
667.83	582.73
668.17	578.81
668.51	574.77
668.85	570.77
669.19	566.96
669.53	563.07
669.87	559.24
670.21	555.48
670.55	551.85
670.89	548.40
671.23	544.99
671.57	541.47
671.91	537.93
672.25	534.39
672.58	530.93
672.92	527.59
673.26	524.41
673.60	521.20
673.94	518.07
674.28	515.11
674.62	512.11
674.96	509.01
675.30	506.11
675.64	503.26
675.97	500.44
676.31	497.58
676.65	494.61
676.99	491.93
677.33	489.10
677.67	486.31
678.01	483.31
678.34	480.31
678.68	477.43
679.02	474.63
679.36	471.88
679.70	469.13
680.04	466.36
680.37	463.47
680.71	460.72
681.05	458.11
681.39	455.37
681.73	452.70
682.06	450.23
682.40	447.76
682.74	445.14
683.08	442.59
683.42	440.02
683.75	437.55
684.09	434.98
684.43	432.46
684.77	429.91
685.10	427.60
685.44	425.27
685.78	422.97
686.12	420.63
686.45	418.37
686.79	416.11
687.13	413.88
687.46	411.68
687.80	409.58
688.14	407.35
688.48	405.39
688.81	403.16
689.15	400.96
689.49	398.71
689.82	396.67
690.16	394.59
690.50	392.57
690.83	390.64
691.17	388.65
691.51	386.72
691.84	384.94
692.18	382.98
692.52	381.03
692.85	379.10
693.19	377.26
693.52	375.40
693.86	373.57
694.20	371.78
694.53	370.04
694.87	368.15
695.21	366.33
695.54	364.45
695.88	362.74
696.21	360.99
696.55	359.35
696.88	357.60
697.22	355.94
697.56	354.33
697.89	352.70
698.23	351.06
698.56	349.44
698.90	347.80
699.23	346.16
699.57	344.61
699.90	343.08
700.24	341.52
700.58	339.99
700.91	338.47
701.25	336.99
701.58	335.60
701.92	334.23
702.25	332.86
702.59	331.51
702.92	330.18
703.26	328.88
703.59	327.56
703.93	326.41
704.26	325.16
704.60	323.88
704.93	322.56
705.26	321.35
705.60	320.17
705.93	319.02
706.27	317.96
706.60	316.93
706.94	315.84
707.27	314.70
707.61	313.65
707.94	312.62
708.27	311.55
708.61	310.44
708.94	309.44
709.28	308.47
709.61	307.49
709.94	306.54
710.28	305.53
710.61	304.58
710.95	303.53
711.28	302.65
711.61	301.72
711.95	300.80
712.28	299.84
712.61	298.87
712.95	297.92
713.28	297.05
713.61	296.12
713.95	295.22
714.28	294.44
714.61	293.58
714.95	292.73
715.28	291.85
715.61	291.00
715.95	290.15
716.28	289.29
716.61	288.43
716.95	287.60
717.28	286.87
717.61	286.09
717.94	285.33
718.28	284.48
718.61	283.72
718.94	283.06
719.27	282.41
719.61	281.79
719.94	281.14
720.27	280.42
720.60	279.74
720.94	279.13
721.27	278.52
721.60	277.93
721.93	277.35
722.27	276.82
722.60	276.27
722.93	275.71
723.26	275.17
723.59	274.64
723.93	274.10
724.26	273.53
724.59	272.98
724.92	272.48
725.25	272.01
725.59	271.51
725.92	271.02
726.25	270.52
726.58	270.03
726.91	269.56
727.24	269.09
727.57	268.65
727.91	268.14
728.24	267.64
728.57	267.18
728.90	266.74
729.23	266.26
729.56	265.84
729.89	265.38
730.22	264.90
730.55	264.42
730.89	263.97
731.22	263.54
731.55	263.09
731.88	262.64
732.21	262.20
732.54	261.73
732.87	261.28
733.20	260.85
733.53	260.45
733.86	260.08
734.19	259.70
734.52	259.35
734.85	259.02
735.18	258.64
735.51	258.28
735.84	257.90
736.17	257.55
736.50	257.18
736.83	256.96
737.16	256.64
737.49	256.35
737.82	256.01
738.15	255.67
738.48	255.37
738.81	255.04
739.14	254.72
739.47	254.44
739.80	254.15
740.13	253.85
740.46	253.51
740.79	253.17
741.12	252.86
741.45	252.52
741.78	252.17
742.11	251.86
742.44	251.54
742.77	251.24
743.10	250.95
743.43	250.66
743.75	250.26
744.08	250.08
744.41	249.77
744.74	249.51
745.07	249.24
745.40	248.98
745.73	248.74
746.06	248.46
746.39	248.19
746.71	247.89
747.04	247.62
747.37	247.34
747.70	247.09
748.03	246.83
748.36	246.60
748.68	246.37
749.01	246.12
749.34	245.88
749.67	245.64
750.00	245.43
750.33	245.25
750.65	245.00
750.98	244.65
751.31	244.44
751.64	244.25
751.97	244.07
752.29	243.86
752.62	243.67
752.95	243.47
753.28	243.29
753.60	243.12
753.93	242.95
754.26	242.77
754.59	242.56
754.91	242.35
755.24	242.14
755.57	241.94
755.90	241.76
756.22	241.57
756.55	241.36
756.88	241.13
757.20	240.88
757.53	240.71
757.86	240.56
758.19	240.40
758.51	240.21
758.84	240.00
759.17	239.80
759.49	239.61
759.82	239.49
760.15	239.33
760.47	239.18
760.80	239.00
761.13	238.88
761.45	238.69
761.78	238.60
762.11	238.46
762.43	238.33
762.76	238.16
763.08	238.06
763.41	237.92
763.74	237.76
764.06	237.66
764.39	237.51
764.71	237.37
765.04	237.22
765.37	237.07
765.69	236.96
766.02	236.84
766.34	236.70
766.67	236.54
767.00	236.43
767.32	236.37
767.65	236.31
767.97	236.19
768.30	236.07
768.62	235.93
768.95	235.81
769.27	235.66
769.60	235.59
769.92	235.44
770.25	235.36
770.57	235.26
770.90	235.17
771.22	235.03
771.55	234.95
771.87	234.87
772.20	234.78
772.52	234.76
772.85	234.80
773.17	234.69
773.50	234.61
773.82	234.51
774.15	234.30
774.47	234.15
774.80	234.04
775.12	234.01
775.45	233.92
775.77	233.85
776.09	233.84
776.42	233.77
776.74	233.73
777.07	233.65
777.39	233.57
777.72	233.46
778.04	233.44
778.36	233.36
778.69	233.29
779.01	233.22
779.33	233.06
779.66	232.86
779.98	232.78
780.31	232.69
780.63	232.67
780.95	232.65
781.28	232.57
781.60	232.52
781.92	232.44
782.25	232.36
782.57	232.32
782.89	232.23
783.22	232.13
783.54	232.04
783.86	231.96
784.19	231.92
784.51	231.89
784.83	231.83
785.16	231.76
785.48	231.71
785.80	231.67
786.12	231.62
786.45	231.57
786.77	231.53
787.09	231.45
787.42	231.33
787.74	231.33
788.06	231.31
788.38	231.27
788.71	231.21
789.03	231.22
789.35	231.17
789.67	231.07
789.99	231.06
790.32	231.02
790.64	231.01
790.96	231.04
791.28	230.97
791.61	230.92
791.93	230.89
792.25	230.81
792.57	230.84
792.89	230.76
793.21	230.71
793.54	230.67
793.86	230.65
794.18	230.62
794.50	230.55
794.82	230.54
795.14	230.51
795.47	230.48
795.79	230.43
796.11	230.37
796.43	230.39
796.75	230.37
797.07	230.36
797.39	230.30
797.71	230.21
798.04	230.21
798.36	230.16
798.68	230.14
799.00	230.14
799.32	230.09
799.64	230.08
799.96	230.05
800.28	230.04
800.60	230.02
800.92	229.99
801.24	229.95
801.56	229.91
801.89	229.88
802.21	229.84
802.53	229.78
802.85	229.77
803.17	229.74
803.49	229.67
803.81	229.65
804.13	229.65
804.45	229.63
804.77	229.59
805.09	229.56
805.41	229.51
805.73	229.49
806.05	229.42
806.37	229.40
806.69	229.40
807.01	229.37
807.33	229.36
807.65	229.35
807.97	229.38
808.28	229.34
808.60	229.34
808.92	229.33
809.24	229.37
809.56	229.32
809.88	229.27
810.20	229.24
810.52	229.23
810.84	229.17
811.16	229.12
811.48	229.07
811.80	229.12
812.12	229.09
812.43	229.07
812.75	229.05
813.07	229.02
813.39	228.99
813.71	228.98
814.03	228.95
814.35	228.91
814.67	228.84
814.98	228.82
815.30	228.78
815.62	228.72
815.94	228.68
816.26	228.71
816.58	228.68
816.89	228.70
817.21	228.66
817.53	228.63
817.85	228.58
818.17	228.58
818.48	228.52
818.80	228.52
819.12	228.51
819.44	228.48
819.76	228.46
820.07	228.44
820.39	228.40
820.71	228.40
821.03	228.36
821.34	228.34
821.66	228.33
821.98	228.30
822.30	228.32
822.61	228.34
822.93	228.31
823.25	228.30
823.57	228.28
823.88	228.24
824.20	228.24
824.52	228.28
824.83	228.28
825.15	228.24
825.47	228.24
825.79	228.20
826.10	228.18
826.42	228.16
826.74	228.17
827.05	228.17
827.37	228.12
827.69	228.12
828.00	228.11
828.32	228.10
828.64	228.08
828.95	228.08
829.27	228.03
829.58	228.01
829.90	228.01
830.22	228.01
830.53	227.99
830.85	227.99
831.17	227.92
831.48	227.88
831.80	227.91
832.11	227.89
832.43	227.85
832.75	227.85
833.06	227.89
833.38	227.83
833.69	227.80
834.01	227.80
834.32	227.79
834.64	227.77
834.96	227.75
835.27	227.74
835.59	227.72
835.90	227.70
836.22	227.66
836.53	227.64
836.85	227.60
837.16	227.71
837.48	227.71
837.79	227.76
838.11	227.77
838.42	227.77
838.74	227.77
839.05	227.78
839.37	227.77
839.68	227.73
840.00	227.73
840.31	227.75
840.63	227.75
840.94	227.75
841.26	227.74
841.57	227.74
841.88	227.73
842.20	227.68
842.51	227.65
842.83	227.64
843.14	227.72
843.46	227.73
843.77	227.66
844.08	227.65
844.40	227.62
844.71	227.60
845.03	227.58
845.34	227.58
845.65	227.56
845.97	227.57
846.28	227.55
846.60	227.60
846.91	227.57
847.22	227.55
847.54	227.58
847.85	227.59
848.16	227.54
848.48	227.53
848.79	227.59
849.10	227.66
849.42	227.68
849.73	227.58
850.04	227.56
850.36	227.51
850.67	227.52
850.98	227.52
851.30	227.54
851.61	227.51
851.92	227.50
852.23	227.56
852.55	227.51
852.86	227.49
853.17	227.44
853.49	227.47
853.80	227.51
854.11	227.50
854.42	227.48
854.74	227.48
855.05	227.50
855.36	227.43
855.67	227.40
855.99	227.41
856.30	227.54
856.61	227.53
856.92	227.52
857.23	227.51
857.55	227.47
857.86	227.46
858.17	227.50
858.48	227.47
858.79	227.44
859.11	227.47
859.42	227.51
859.73	227.54
860.04	227.50
860.35	227.45
860.66	227.42
860.98	227.44
861.29	227.48
861.60	227.45
861.91	227.47
862.22	227.47
862.53	227.44
862.84	227.33
863.16	227.38
863.47	227.34
863.78	227.31
864.09	227.35
864.40	227.35
864.71	227.33
865.02	227.35
865.33	227.33
865.64	227.29
865.95	227.26
866.27	227.30
866.58	227.30
866.89	227.29
867.20	227.27
867.51	227.22
867.82	227.19
868.13	227.23
868.44	227.24
868.75	227.22
869.06	227.20
869.37	227.22
869.68	227.18
869.99	227.24
870.30	227.25
870.61	227.23
870.92	227.21
871.23	227.20
871.54	227.20
871.85	227.21
872.16	227.23
872.47	227.21
872.78	227.13
873.09	227.15
873.40	227.14
873.71	227.17
874.02	227.21
874.33	227.22
874.64	227.18
874.95	227.16
875.26	227.14
875.56	227.14
875.87	227.12
876.18	227.09
876.49	227.18
876.80	227.16
877.11	227.15
877.42	227.16
877.73	227.14
878.04	227.14
878.35	227.13
878.66	227.13
878.96	227.14
879.27	227.13
879.58	227.07
879.89	227.05
880.20	227.05
880.51	227.02
880.82	226.98
881.12	227.00
881.43	226.97
881.74	226.99
882.05	226.95
882.36	226.93
882.67	226.90
882.97	226.79
883.28	226.80
883.59	226.77
883.90	226.77
884.21	226.79
884.51	226.75
884.82	226.73
885.13	226.70
885.44	226.68
885.74	226.69
886.05	226.71
886.36	226.72
886.67	226.66
886.98	226.68
887.28	226.67
887.59	226.65
887.90	226.64
888.20	226.61
888.51	226.66
888.82	226.64
889.13	226.65
889.43	226.73
889.74	226.74
890.05	226.74
890.35	226.69
890.66	226.69
890.97	226.69
891.28	226.69
891.58	226.71
891.89	226.71
892.20	226.70
892.50	226.68
892.81	226.64
893.12	226.66
893.42	226.61
893.73	226.62
894.04	226.64
894.34	226.68
894.65	226.66
894.95	226.64
895.26	226.64
895.57	226.71
895.87	226.60
896.18	226.58
896.48	226.59
896.79	226.57
897.10	226.60
897.40	226.62
897.71	226.64
898.01	226.64
898.32	226.67
898.63	226.65
898.93	226.70
899.24	226.75
899.54	226.75
899.85	226.76
900.15	226.75
900.46	226.72
900.76	226.72
901.07	226.78
901.38	226.80
901.68	226.83
901.99	226.75
902.29	226.77
902.60	226.78
902.90	226.78
903.21	226.78
903.51	226.76
903.82	226.78
904.12	226.79
904.43	226.80
904.73	226.80
905.03	226.83
905.34	226.89
905.64	226.90
905.95	226.90
906.25	226.90
906.56	226.91
906.86	226.95
907.17	226.91
907.47	226.89
907.77	226.85
908.08	226.85
908.38	226.86
908.69	226.86
908.99	226.86
909.30	226.85
909.60	226.90
909.90	226.87
910.21	226.84
910.51	226.82
910.81	226.81
911.12	226.81
911.42	226.81
911.73	226.72
912.03	226.69
912.33	226.72
912.64	226.74
912.94	226.73
913.24	226.70
913.55	226.70
913.85	226.72
914.15	226.75
914.46	226.76
914.76	226.76
915.06	226.76
915.37	226.78
915.67	226.79
915.97	226.79
916.27	226.79
916.58	226.81
916.88	226.77
917.18	226.78
917.49	226.84
917.79	226.84
918.09	226.85
918.39	226.91
918.70	226.88
919.00	226.86
919.30	226.90
919.60	226.91
919.91	226.91
920.21	226.87
920.51	226.85
920.81	226.87
921.12	226.86
921.42	226.85
921.72	226.86
922.02	226.85
922.32	226.85
922.63	226.87
922.93	226.87
923.23	226.90
923.53	226.88
923.83	226.80
924.13	226.79
924.44	226.78
924.74	226.77
925.04	226.78
925.34	226.77
925.64	226.74
925.94	226.72
926.24	226.76
926.55	226.79
926.85	226.82
927.15	226.78
927.45	226.81
927.75	226.83
928.05	226.79
928.35	226.77
928.65	226.77
928.95	226.77
929.26	226.75
929.56	226.78
929.86	226.78
930.16	226.78
930.46	226.78
930.76	226.79
931.06	226.75
931.36	226.77
931.66	226.78
931.96	226.80
932.26	226.79
932.56	226.77
932.86	226.79
933.16	226.77
933.46	226.77
933.76	226.75
934.06	226.76
934.36	226.84
934.66	226.87
934.96	226.90
935.26	226.91
935.56	226.92
935.86	226.88
936.16	226.87
936.46	226.88
936.76	226.87
937.06	226.84
937.36	226.85
937.66	226.81
937.96	226.84
938.26	226.84
938.56	226.84
938.86	226.82
939.16	226.80
939.46	226.79
939.76	226.79
940.06	226.79
940.35	226.75
940.65	226.67
940.95	226.67
941.25	226.64
941.55	226.61
941.85	226.62
942.15	226.67
942.45	226.69
942.75	226.67
943.04	226.66
943.34	226.69
943.64	226.67
943.94	226.67
944.24	226.66
944.54	226.66
944.84	226.67
945.13	226.66
945.43	226.66
945.73	226.66
946.03	226.68
946.33	226.66
946.62	226.64
946.92	226.68
947.22	226.68
947.52	226.65
947.82	226.69
948.11	226.68
948.41	226.64
948.71	226.64
949.01	226.66
949.31	226.69
949.60	226.66
949.90	226.66
950.20	226.66
950.50	226.66
950.79	226.66
951.09	226.67
951.39	226.69
951.69	226.65
951.98	226.66
952.28	226.64
952.58	226.64
952.87	226.66
953.17	226.65
953.47	226.63
953.76	226.63
954.06	226.58
954.36	226.55
954.66	226.55
954.95	226.55
955.25	226.51
955.55	226.49
955.84	226.49
956.14	226.55
956.44	226.54
956.73	226.49
957.03	226.47
957.32	226.46
957.62	226.45
957.92	226.50
958.21	226.44
958.51	226.54
958.81	226.55
959.10	226.59
959.40	226.60
959.69	226.57
959.99	226.59
960.29	226.61
960.58	226.60
960.88	226.63
961.17	226.61
961.47	226.65
961.76	226.65
962.06	226.66
962.36	226.63
962.65	226.63
962.95	226.67
963.24	226.68
963.54	226.69
963.83	226.70
964.13	226.70
964.42	226.73
964.72	226.66
965.01	226.66
965.31	226.64
965.60	226.64
965.90	226.75
966.19	226.75
966.49	226.74
966.78	226.74
967.08	226.74
967.37	226.74
967.67	226.73
967.96	226.72
968.26	226.72
968.55	226.73
968.85	226.78
969.14	226.76
969.43	226.73
969.73	226.74
970.02	226.72
970.32	226.70
970.61	226.70
970.91	226.69
971.20	226.67
971.49	226.68
971.79	226.65
972.08	226.57
972.38	226.58
972.67	226.59
972.96	226.61
973.26	226.56
973.55	226.60
973.85	226.61
974.14	226.64
974.43	226.66
974.73	226.65
975.02	226.62
975.31	226.63
975.61	226.63
975.90	226.58
976.19	226.57
976.49	226.58
976.78	226.57
977.07	226.57
977.37	226.58
977.66	226.57
977.95	226.58
978.24	226.59
978.54	226.60
978.83	226.62
979.12	226.59
979.42	226.64
979.71	226.63
980.00	226.65
980.29	226.64
980.59	226.61
980.88	226.63
981.17	226.61
981.46	226.66
981.76	226.67
982.05	226.72
982.34	226.77
982.63	226.79
982.93	226.79
983.22	226.84
983.51	226.85
983.80	226.87
984.09	226.87
984.39	226.85
984.68	226.86
984.97	226.86
985.26	226.88
985.55	226.88
985.85	226.85
986.14	226.86
986.43	226.90
986.72	226.92
987.01	226.89
987.30	226.89
987.59	226.86
987.89	226.86
988.18	226.84
988.47	226.84
988.76	226.82
989.05	226.82
989.34	226.78
989.63	226.79
989.92	226.82
990.22	226.82
990.51	226.84
990.80	226.81
991.09	226.77
991.38	226.77
991.67	226.78
991.96	226.80
992.25	226.76
992.54	226.72
992.83	226.75
993.12	226.76
993.41	226.80
993.70	226.86
993.99	226.86
994.28	226.88
994.58	226.85
994.87	226.85
995.16	226.85
995.45	226.86
995.74	226.84
996.03	226.81
996.32	226.80
996.61	226.81
996.90	226.80
997.19	226.80
997.48	226.80
997.77	226.75
998.06	226.76
998.34	226.77
998.63	226.76
998.92	226.71
999.21	226.68
999.50	226.66
999.79	226.61
1000.08	226.61
1000.37	226.59
1000.66	226.59
1000.95	226.60
1001.24	226.59
1001.53	226.61
1001.82	226.57
1002.11	226.58
1002.40	226.60
1002.68	226.61
1002.97	226.70
1003.26	226.67
1003.55	226.68
1003.84	226.68
1004.13	226.67
1004.42	226.64
1004.71	226.63
1004.99	226.63
1005.28	226.65
1005.57	226.62
1005.86	226.60
1006.15	226.57
1006.44	226.52
1006.72	226.51
1007.01	226.46
1007.30	226.43
1007.59	226.39
1007.88	226.39
1008.17	226.37
1008.45	226.34
1008.74	226.31
1009.03	226.26
1009.32	226.24
1009.60	226.20
1009.89	226.20
1010.18	226.17
1010.47	226.18
1010.76	226.18
1011.04	226.17
1011.33	226.19
1011.62	226.22
1011.91	226.22
1012.19	226.24
1012.48	226.27
1012.77	226.28
1013.05	226.35
1013.34	226.40
1013.63	226.43
1013.92	226.46
1014.20	226.48
1014.49	226.50
1014.78	226.50
1015.06	226.46
1015.35	226.49
1015.64	226.52
1015.92	226.54
1016.21	226.56
1016.50	226.56
1016.78	226.60
1017.07	226.65
1017.36	226.60
1017.64	226.59
1017.93	226.64
1018.22	226.61
1018.50	226.64
1018.79	226.68
1019.08	226.63
1019.36	226.64
1019.65	226.62
1019.93	226.66
1020.22	226.65
1020.51	226.71
1020.79	226.72
1021.08	226.25
1021.36	226.48
1021.65	227.06
1021.94	226.79
1022.22	226.78
1022.51	226.51
1022.79	227.25
1023.08	226.92
1023.36	228.07
1023.65	226.80
>>>>>End Processed Spectral Data<<<<<
