SpectraSuite Data File
++++++++++++++++++++++++++++++++++++
Date: Fri Feb 01 16:17:58 EST 2013
User: group
Dark Spectrum Present: No
Reference Spectrum Present: No
Number of Sampled Component Spectra: 1
Spectrometers: USB2E7196
Integration Time (usec): 35000 (USB2E7196)
Spectra Averaged: 100 (USB2E7196)
Boxcar Smoothing: 10 (USB2E7196)
Correct for Electrical Dark: No (USB2E7196)
Strobe/Lamp Enabled: No (USB2E7196)
Correct for Detector Non-linearity: No (USB2E7196)
Correct for Stray Light: No (USB2E7196)
Number of Pixels in Processed Spectrum: 2048
>>>>>Begin Processed Spectral Data<<<<<
339.09	0.00
339.48	213.78
339.86	215.47
340.24	216.67
340.63	218.43
341.01	221.46
341.39	220.68
341.78	222.31
342.16	223.24
342.54	223.63
342.93	212.39
343.31	223.09
343.69	223.62
344.07	224.06
344.46	224.52
344.84	224.89
345.22	225.11
345.60	225.36
345.99	225.54
346.37	225.66
346.75	225.79
347.13	225.86
347.52	225.93
347.90	225.98
348.28	226.00
348.66	226.04
349.05	226.02
349.43	226.05
349.81	226.08
350.19	226.11
350.57	226.17
350.96	226.23
351.34	226.33
351.72	226.44
352.10	226.55
352.48	226.57
352.87	226.62
353.25	226.70
353.63	226.77
354.01	226.86
354.39	226.93
354.77	226.99
355.15	227.07
355.54	227.11
355.92	227.14
356.30	227.23
356.68	227.38
357.06	227.48
357.44	227.55
357.82	227.62
358.20	227.69
358.58	227.70
358.97	227.77
359.35	227.86
359.73	227.92
360.11	227.96
360.49	228.05
360.87	228.10
361.25	228.15
361.63	228.22
362.01	228.24
362.39	228.29
362.77	228.35
363.15	228.39
363.53	228.41
363.91	228.42
364.29	228.45
364.67	228.34
365.05	228.36
365.43	228.41
365.81	228.44
366.19	228.50
366.57	228.57
366.95	228.56
367.33	228.54
367.71	228.50
368.09	228.53
368.47	228.50
368.85	228.47
369.23	228.50
369.61	228.42
369.99	228.44
370.37	228.42
370.75	228.42
371.13	228.33
371.51	228.31
371.89	228.31
372.27	228.25
372.65	228.21
373.03	228.16
373.41	228.10
373.78	228.03
374.16	227.94
374.54	227.82
374.92	227.76
375.30	227.72
375.68	227.68
376.06	227.64
376.44	227.57
376.82	227.53
377.19	227.42
377.57	227.37
377.95	227.29
378.33	227.25
378.71	227.14
379.09	227.10
379.47	227.05
379.84	226.95
380.22	226.89
380.60	226.82
380.98	226.76
381.36	226.67
381.73	226.59
382.11	226.52
382.49	226.50
382.87	226.43
383.25	226.37
383.62	226.38
384.00	226.28
384.38	226.23
384.76	226.20
385.13	226.14
385.51	226.09
385.89	226.01
386.27	225.93
386.64	225.90
387.02	225.84
387.40	225.79
387.78	225.78
388.15	225.76
388.53	225.70
388.91	225.66
389.29	225.62
389.66	225.62
390.04	225.59
390.42	225.58
390.79	225.57
391.17	225.54
391.55	225.47
391.92	225.46
392.30	225.48
392.68	225.44
393.05	225.48
393.43	225.49
393.81	225.50
394.18	225.49
394.56	225.52
394.94	225.58
395.31	225.61
395.69	225.65
396.06	225.64
396.44	225.70
396.82	225.74
397.19	225.81
397.57	225.86
397.95	225.89
398.32	225.87
398.70	225.93
399.07	226.00
399.45	226.03
399.82	226.09
400.20	226.15
400.58	226.20
400.95	226.21
401.33	226.29
401.70	226.45
402.08	226.57
402.45	226.64
402.83	226.72
403.20	226.81
403.58	226.89
403.95	227.05
404.33	227.18
404.71	227.26
405.08	227.44
405.46	227.55
405.83	227.69
406.21	227.88
406.58	228.01
406.96	228.16
407.33	228.34
407.70	228.50
408.08	228.79
408.45	229.03
408.83	229.28
409.20	229.49
409.58	229.69
409.95	229.93
410.33	230.16
410.70	230.42
411.08	230.71
411.45	231.03
411.82	231.33
412.20	231.67
412.57	232.13
412.95	232.45
413.32	232.85
413.69	233.29
414.07	233.70
414.44	234.18
414.82	234.68
415.19	235.26
415.56	235.82
415.94	236.34
416.31	236.97
416.68	237.60
417.06	238.33
417.43	239.01
417.81	239.79
418.18	240.60
418.55	241.46
418.93	242.29
419.30	243.17
419.67	244.11
420.04	245.11
420.42	246.07
420.79	247.23
421.16	248.39
421.54	249.60
421.91	250.82
422.28	252.06
422.66	253.35
423.03	254.63
423.40	255.94
423.77	257.37
424.15	258.79
424.52	260.26
424.89	261.85
425.26	263.39
425.64	264.83
426.01	266.43
426.38	268.09
426.75	269.77
427.13	271.49
427.50	273.29
427.87	275.14
428.24	276.99
428.61	278.75
428.99	280.65
429.36	282.74
429.73	284.81
430.10	286.82
430.47	288.89
430.85	290.96
431.22	293.18
431.59	295.52
431.96	297.74
432.33	300.26
432.70	302.63
433.08	305.44
433.45	308.09
433.82	310.73
434.19	313.61
434.56	316.43
434.93	319.09
435.30	321.70
435.68	324.57
436.05	327.40
436.42	330.15
436.79	332.72
437.16	335.40
437.53	338.24
437.90	341.06
438.27	343.81
438.64	346.62
439.01	349.23
439.38	351.47
439.75	353.66
440.13	356.13
440.50	358.42
440.87	360.28
441.24	362.20
441.61	364.31
441.98	365.79
442.35	367.54
442.72	369.38
443.09	371.21
443.46	372.20
443.83	372.78
444.20	373.26
444.57	374.06
444.94	374.32
445.31	374.62
445.68	375.03
446.05	375.09
446.42	374.76
446.79	374.37
447.16	373.86
447.53	373.54
447.90	372.37
448.27	371.24
448.64	369.63
449.01	368.46
449.37	366.49
449.74	364.57
450.11	362.35
450.48	359.92
450.85	357.31
451.22	355.15
451.59	353.14
451.96	351.23
452.33	348.61
452.70	346.23
453.07	343.38
453.43	340.44
453.80	337.70
454.17	335.02
454.54	332.48
454.91	329.79
455.28	327.12
455.65	324.64
456.02	322.19
456.38	320.04
456.75	317.42
457.12	315.17
457.49	312.97
457.86	310.81
458.23	308.95
458.59	306.96
458.96	304.91
459.33	303.03
459.70	301.19
460.07	299.70
460.43	298.04
460.80	296.45
461.17	295.02
461.54	293.50
461.91	292.05
462.27	290.61
462.64	289.36
463.01	288.02
463.38	286.71
463.74	285.39
464.11	284.21
464.48	283.19
464.85	282.08
465.21	281.25
465.58	280.32
465.95	279.23
466.32	278.32
466.68	277.41
467.05	276.54
467.42	275.65
467.78	274.77
468.15	273.92
468.52	273.27
468.88	272.39
469.25	271.64
469.62	271.08
469.98	270.42
470.35	269.83
470.72	269.25
471.08	268.62
471.45	268.02
471.82	267.51
472.18	266.90
472.55	266.49
472.92	265.97
473.28	265.54
473.65	265.12
474.02	264.71
474.38	264.38
474.75	264.04
475.11	263.65
475.48	263.42
475.85	263.20
476.21	262.97
476.58	262.85
476.94	262.71
477.31	262.50
477.67	262.36
478.04	262.27
478.41	262.19
478.77	262.25
479.14	262.20
479.50	262.21
479.87	262.32
480.23	262.37
480.60	262.42
480.96	262.53
481.33	262.73
481.69	262.94
482.06	263.16
482.42	263.40
482.79	263.71
483.15	264.02
483.52	264.40
483.88	264.76
484.25	265.15
484.61	265.61
484.98	266.08
485.34	266.65
485.71	267.25
486.07	267.86
486.44	268.40
486.80	269.13
487.17	269.84
487.53	270.65
487.90	271.56
488.26	272.50
488.62	273.49
488.99	274.46
489.35	275.50
489.72	276.61
490.08	277.81
490.44	279.03
490.81	280.33
491.17	281.68
491.54	283.17
491.90	284.69
492.26	286.32
492.63	288.07
492.99	289.81
493.36	291.72
493.72	293.80
494.08	295.92
494.45	298.19
494.81	300.54
495.17	302.98
495.54	305.51
495.90	308.18
496.26	311.02
496.63	313.99
496.99	317.09
497.35	320.36
497.72	323.77
498.08	327.31
498.44	330.99
498.80	334.91
499.17	338.96
499.53	343.19
499.89	347.56
500.26	352.06
500.62	356.79
500.98	361.72
501.34	366.81
501.71	372.13
502.07	377.58
502.43	383.27
502.79	389.12
503.16	395.26
503.52	401.57
503.88	407.95
504.24	414.59
504.60	421.49
504.97	428.63
505.33	435.97
505.69	443.71
506.05	451.56
506.41	459.44
506.78	467.57
507.14	476.02
507.50	484.78
507.86	493.83
508.22	503.01
508.59	512.25
508.95	521.78
509.31	531.60
509.67	541.65
510.03	551.90
510.39	562.47
510.75	573.21
511.12	584.13
511.48	595.41
511.84	606.95
512.20	618.42
512.56	630.37
512.92	642.59
513.28	654.94
513.64	667.35
514.00	680.13
514.37	693.04
514.73	706.06
515.09	719.06
515.45	732.34
515.81	745.91
516.17	759.87
516.53	773.98
516.89	788.20
517.25	802.41
517.61	816.85
517.97	831.44
518.33	845.99
518.69	860.79
519.05	875.75
519.41	890.89
519.77	906.48
520.13	921.87
520.49	937.22
520.85	952.65
521.21	968.42
521.57	984.61
521.93	1000.37
522.29	1016.88
522.65	1033.05
523.01	1049.26
523.37	1065.31
523.73	1081.39
524.09	1097.50
524.45	1113.77
524.81	1130.44
525.17	1147.14
525.53	1163.94
525.89	1180.71
526.25	1197.50
526.61	1213.88
526.97	1230.58
527.33	1246.96
527.68	1263.59
528.04	1280.06
528.40	1296.61
528.76	1313.56
529.12	1330.08
529.48	1346.87
529.84	1362.70
530.20	1379.37
530.56	1396.42
530.91	1413.81
531.27	1430.64
531.63	1447.03
531.99	1463.60
532.35	1479.40
532.71	1495.37
533.07	1511.44
533.42	1527.36
533.78	1543.35
534.14	1559.66
534.50	1574.89
534.86	1590.74
535.21	1605.85
535.57	1621.63
535.93	1636.99
536.29	1651.75
536.65	1666.63
537.00	1681.39
537.36	1696.62
537.72	1711.01
538.08	1725.25
538.44	1738.93
538.79	1752.72
539.15	1766.32
539.51	1779.98
539.87	1794.26
540.22	1807.90
540.58	1821.59
540.94	1834.60
541.29	1847.44
541.65	1860.08
542.01	1873.29
542.37	1885.59
542.72	1898.03
543.08	1909.77
543.44	1922.12
543.79	1933.28
544.15	1944.27
544.51	1955.81
544.87	1966.72
545.22	1977.54
545.58	1987.74
545.94	1997.44
546.29	2007.25
546.65	2017.17
547.01	2026.40
547.36	2035.16
547.72	2043.41
548.07	2051.25
548.43	2059.60
548.79	2067.61
549.14	2075.05
549.50	2082.20
549.86	2089.77
550.21	2097.02
550.57	2104.24
550.92	2110.62
551.28	2117.65
551.64	2124.73
551.99	2131.16
552.35	2137.35
552.70	2143.54
553.06	2149.49
553.41	2155.88
553.77	2161.93
554.13	2167.96
554.48	2174.09
554.84	2179.58
555.19	2184.96
555.55	2190.23
555.90	2194.62
556.26	2199.46
556.61	2204.22
556.97	2208.59
557.32	2212.69
557.68	2216.75
558.03	2221.05
558.39	2224.93
558.74	2229.57
559.10	2233.53
559.45	2237.34
559.81	2241.59
560.16	2245.33
560.52	2248.56
560.87	2251.86
561.23	2254.56
561.58	2257.56
561.94	2260.00
562.29	2262.33
562.64	2265.06
563.00	2267.51
563.35	2271.01
563.71	2274.17
564.06	2277.40
564.42	2280.22
564.77	2282.82
565.12	2285.19
565.48	2287.08
565.83	2289.00
566.19	2290.43
566.54	2291.23
566.89	2292.38
567.25	2292.87
567.60	2294.21
567.96	2295.86
568.31	2296.83
568.66	2297.99
569.02	2298.50
569.37	2299.00
569.72	2299.81
570.08	2300.09
570.43	2300.19
570.78	2299.80
571.14	2298.28
571.49	2296.88
571.84	2296.67
572.20	2295.78
572.55	2294.61
572.90	2292.98
573.26	2291.77
573.61	2289.96
573.96	2288.42
574.31	2285.40
574.67	2282.75
575.02	2279.13
575.37	2275.84
575.72	2271.97
576.08	2268.66
576.43	2265.24
576.78	2261.34
577.13	2258.26
577.49	2255.17
577.84	2251.64
578.19	2247.90
578.54	2244.19
578.90	2240.08
579.25	2234.57
579.60	2229.43
579.95	2224.57
580.30	2219.58
580.66	2214.25
581.01	2209.41
581.36	2204.50
581.71	2200.30
582.06	2195.74
582.42	2191.37
582.77	2186.22
583.12	2181.78
583.47	2176.97
583.82	2172.27
584.17	2167.13
584.53	2161.69
584.88	2156.06
585.23	2150.38
585.58	2144.74
585.93	2139.46
586.28	2134.66
586.63	2129.59
586.98	2124.54
587.34	2119.84
587.69	2115.03
588.04	2109.77
588.39	2104.00
588.74	2097.47
589.09	2091.45
589.44	2084.66
589.79	2078.76
590.14	2073.18
590.49	2066.73
590.84	2060.41
591.19	2054.35
591.54	2048.01
591.89	2040.70
592.25	2033.87
592.60	2026.83
592.95	2019.46
593.30	2012.02
593.65	2004.45
594.00	1997.39
594.35	1990.19
594.70	1982.22
595.05	1975.17
595.40	1967.97
595.75	1960.64
596.10	1954.57
596.45	1947.92
596.80	1941.91
597.15	1935.21
597.50	1928.04
597.85	1921.53
598.19	1914.85
598.54	1907.67
598.89	1901.06
599.24	1895.19
599.59	1888.64
599.94	1882.38
600.29	1876.00
600.64	1869.60
600.99	1862.26
601.34	1855.48
601.69	1848.62
602.04	1841.80
602.39	1834.42
602.74	1827.62
603.08	1820.86
603.43	1814.15
603.78	1806.84
604.13	1799.70
604.48	1792.43
604.83	1785.60
605.18	1778.63
605.53	1770.77
605.87	1762.80
606.22	1755.52
606.57	1747.50
606.92	1740.13
607.27	1732.94
607.62	1726.12
607.96	1718.77
608.31	1712.09
608.66	1704.55
609.01	1696.99
609.36	1689.43
609.70	1681.37
610.05	1673.31
610.40	1665.58
610.75	1657.20
611.10	1649.48
611.44	1640.96
611.79	1632.97
612.14	1624.31
612.49	1615.29
612.83	1606.95
613.18	1598.89
613.53	1590.87
613.88	1582.37
614.22	1574.11
614.57	1565.47
614.92	1557.44
615.27	1549.85
615.61	1541.57
615.96	1533.58
616.31	1525.82
616.65	1518.42
617.00	1510.79
617.35	1503.17
617.70	1494.78
618.04	1486.21
618.39	1477.85
618.74	1470.20
619.08	1461.96
619.43	1454.42
619.78	1447.39
620.12	1440.10
620.47	1432.47
620.82	1424.28
621.16	1416.83
621.51	1409.24
621.85	1401.60
622.20	1393.08
622.55	1384.72
622.89	1376.77
623.24	1369.09
623.59	1361.79
623.93	1354.23
624.28	1347.08
624.62	1339.46
624.97	1332.33
625.32	1325.56
625.66	1318.74
626.01	1311.56
626.35	1304.00
626.70	1296.23
627.04	1288.40
627.39	1280.63
627.73	1273.20
628.08	1266.26
628.43	1258.97
628.77	1251.57
629.12	1244.11
629.46	1236.94
629.81	1229.52
630.15	1222.31
630.50	1214.83
630.84	1206.70
631.19	1198.79
631.53	1191.25
631.88	1183.72
632.22	1176.13
632.57	1168.95
632.91	1161.34
633.26	1153.91
633.60	1146.60
633.95	1139.52
634.29	1132.51
634.64	1125.76
634.98	1118.45
635.32	1111.29
635.67	1104.66
636.01	1097.98
636.36	1091.09
636.70	1084.43
637.05	1077.89
637.39	1071.43
637.73	1064.96
638.08	1059.03
638.42	1052.97
638.77	1046.47
639.11	1039.93
639.45	1033.60
639.80	1026.79
640.14	1020.34
640.49	1013.81
640.83	1007.46
641.17	1001.17
641.52	994.80
641.86	988.33
642.20	982.48
642.55	976.22
642.89	969.72
643.23	963.03
643.58	957.29
643.92	951.10
644.26	944.93
644.61	938.92
644.95	932.89
645.29	926.22
645.64	919.46
645.98	913.15
646.32	907.29
646.66	901.16
647.01	895.48
647.35	889.72
647.69	883.80
648.04	878.23
648.38	872.38
648.72	866.40
649.06	860.41
649.41	854.55
649.75	848.45
650.09	842.54
650.43	836.85
650.78	830.66
651.12	824.74
651.46	819.01
651.80	813.26
652.14	807.84
652.49	802.53
652.83	797.38
653.17	791.67
653.51	785.90
653.85	780.52
654.20	774.77
654.54	768.75
654.88	763.03
655.22	757.19
655.56	751.51
655.90	746.06
656.25	740.77
656.59	735.36
656.93	730.34
657.27	725.10
657.61	719.62
657.95	714.50
658.29	709.41
658.64	704.20
658.98	698.80
659.32	693.31
659.66	688.08
660.00	682.76
660.34	677.83
660.68	672.94
661.02	667.90
661.36	663.17
661.70	658.67
662.05	654.38
662.39	650.01
662.73	645.55
663.07	641.19
663.41	636.76
663.75	632.23
664.09	627.58
664.43	623.17
664.77	619.14
665.11	614.87
665.45	610.74
665.79	606.61
666.13	602.51
666.47	598.41
666.81	594.24
667.15	590.16
667.49	586.25
667.83	582.37
668.17	578.41
668.51	574.37
668.85	570.32
669.19	566.41
669.53	562.55
669.87	558.69
670.21	555.03
670.55	551.38
670.89	547.96
671.23	544.60
671.57	541.15
671.91	537.56
672.25	534.11
672.58	530.58
672.92	527.22
673.26	524.09
673.60	520.99
673.94	517.84
674.28	514.90
674.62	511.98
674.96	508.87
675.30	506.03
675.64	503.10
675.97	500.35
676.31	497.51
676.65	494.58
676.99	491.90
677.33	489.01
677.67	486.20
678.01	483.19
678.34	480.18
678.68	477.32
679.02	474.50
679.36	471.69
679.70	468.96
680.04	466.16
680.37	463.24
680.71	460.38
681.05	457.76
681.39	455.03
681.73	452.34
682.06	449.79
682.40	447.15
682.74	444.58
683.08	442.02
683.42	439.40
683.75	436.87
684.09	434.27
684.43	431.76
684.77	429.23
685.10	426.84
685.44	424.49
685.78	422.17
686.12	419.90
686.45	417.56
686.79	415.22
687.13	413.01
687.46	410.84
687.80	408.72
688.14	406.50
688.48	404.45
688.81	402.13
689.15	400.02
689.49	397.89
689.82	395.84
690.16	393.75
690.50	391.76
690.83	389.79
691.17	387.80
691.51	385.89
691.84	384.08
692.18	382.13
692.52	380.16
692.85	378.25
693.19	376.38
693.52	374.58
693.86	372.78
694.20	371.00
694.53	369.23
694.87	367.36
695.21	365.57
695.54	363.72
695.88	361.99
696.21	360.23
696.55	358.56
696.88	356.83
697.22	355.17
697.56	353.53
697.89	351.91
698.23	350.34
698.56	348.72
698.90	347.10
699.23	345.46
699.57	343.93
699.90	342.35
700.24	340.81
700.58	339.29
700.91	337.77
701.25	336.30
701.58	334.89
701.92	333.52
702.25	332.15
702.59	330.77
702.92	329.49
703.26	328.21
703.59	326.90
703.93	325.75
704.26	324.51
704.60	323.25
704.93	321.99
705.26	320.71
705.60	319.53
705.93	318.38
706.27	317.34
706.60	316.26
706.94	315.21
707.27	314.11
707.61	313.04
707.94	312.03
708.27	310.96
708.61	309.90
708.94	308.90
709.28	307.92
709.61	306.97
709.94	305.99
710.28	304.97
710.61	303.97
710.95	302.90
711.28	302.01
711.61	301.08
711.95	300.17
712.28	299.24
712.61	298.27
712.95	297.36
713.28	296.51
713.61	295.65
713.95	294.77
714.28	293.92
714.61	293.07
714.95	292.24
715.28	291.42
715.61	290.54
715.95	289.69
716.28	288.82
716.61	287.95
716.95	287.18
717.28	286.44
717.61	285.72
717.94	284.97
718.28	284.16
718.61	283.42
718.94	282.72
719.27	282.02
719.61	281.39
719.94	280.70
720.27	279.95
720.60	279.27
720.94	278.64
721.27	278.03
721.60	277.44
721.93	276.80
722.27	276.23
722.60	275.66
722.93	275.07
723.26	274.55
723.59	274.03
723.93	273.43
724.26	272.90
724.59	272.31
724.92	271.77
725.25	271.29
725.59	270.75
725.92	270.23
726.25	269.72
726.58	269.20
726.91	268.70
727.24	268.27
727.57	267.79
727.91	267.27
728.24	266.79
728.57	266.30
728.90	265.86
729.23	265.36
729.56	264.92
729.89	264.47
730.22	263.97
730.55	263.52
730.89	263.07
731.22	262.59
731.55	262.18
731.88	261.77
732.21	261.30
732.54	260.88
732.87	260.44
733.20	260.02
733.53	259.63
733.86	259.24
734.19	258.83
734.52	258.46
734.85	258.15
735.18	257.75
735.51	257.39
735.84	256.98
736.17	256.63
736.50	256.27
736.83	256.01
737.16	255.69
737.49	255.35
737.82	255.02
738.15	254.71
738.48	254.35
738.81	254.00
739.14	253.67
739.47	253.37
739.80	253.08
740.13	252.82
740.46	252.53
740.79	252.21
741.12	251.91
741.45	251.61
741.78	251.24
742.11	250.95
742.44	250.67
742.77	250.40
743.10	250.10
743.43	249.79
743.75	249.44
744.08	249.25
744.41	248.98
744.74	248.73
745.07	248.45
745.40	248.23
745.73	248.06
746.06	247.78
746.39	247.50
746.71	247.23
747.04	246.94
747.37	246.66
747.70	246.43
748.03	246.17
748.36	245.95
748.68	245.72
749.01	245.47
749.34	245.26
749.67	245.05
750.00	244.85
750.33	244.71
750.65	244.52
750.98	244.20
751.31	243.95
751.64	243.71
751.97	243.54
752.29	243.30
752.62	243.01
752.95	242.81
753.28	242.61
753.60	242.41
753.93	242.25
754.26	242.07
754.59	241.85
754.91	241.66
755.24	241.43
755.57	241.27
755.90	241.09
756.22	240.87
756.55	240.69
756.88	240.48
757.20	240.26
757.53	240.02
757.86	239.89
758.19	239.74
758.51	239.58
758.84	239.35
759.17	239.19
759.49	239.03
759.82	238.92
760.15	238.77
760.47	238.61
760.80	238.42
761.13	238.28
761.45	238.13
761.78	237.97
762.11	237.83
762.43	237.67
762.76	237.51
763.08	237.38
763.41	237.22
763.74	237.06
764.06	236.90
764.39	236.78
764.71	236.63
765.04	236.48
765.37	236.33
765.69	236.22
766.02	236.10
766.34	235.96
766.67	235.82
767.00	235.70
767.32	235.63
767.65	235.58
767.97	235.44
768.30	235.35
768.62	235.22
768.95	235.10
769.27	234.98
769.60	234.88
769.92	234.76
770.25	234.61
770.57	234.54
770.90	234.42
771.22	234.30
771.55	234.17
771.87	234.08
772.20	233.98
772.52	233.99
772.85	233.99
773.17	233.89
773.50	233.80
773.82	233.68
774.15	233.55
774.47	233.43
774.80	233.34
775.12	233.23
775.45	233.15
775.77	233.07
776.09	232.99
776.42	232.93
776.74	232.84
777.07	232.77
777.39	232.65
777.72	232.60
778.04	232.55
778.36	232.51
778.69	232.48
779.01	232.45
779.33	232.27
779.66	232.14
779.98	232.04
780.31	231.97
780.63	231.96
780.95	231.92
781.28	231.84
781.60	231.76
781.92	231.71
782.25	231.63
782.57	231.56
782.89	231.49
783.22	231.42
783.54	231.40
783.86	231.39
784.19	231.35
784.51	231.33
784.83	231.28
785.16	231.18
785.48	231.10
785.80	231.03
786.12	231.02
786.45	230.94
786.77	230.96
787.09	230.92
787.42	230.80
787.74	230.76
788.06	230.72
788.38	230.70
788.71	230.68
789.03	230.66
789.35	230.61
789.67	230.54
789.99	230.54
790.32	230.47
790.64	230.44
790.96	230.48
791.28	230.40
791.61	230.34
791.93	230.34
792.25	230.30
792.57	230.34
792.89	230.27
793.21	230.22
793.54	230.16
793.86	230.10
794.18	230.10
794.50	230.01
794.82	229.98
795.14	229.94
795.47	229.90
795.79	229.85
796.11	229.84
796.43	229.81
796.75	229.77
797.07	229.76
797.39	229.72
797.71	229.61
798.04	229.58
798.36	229.58
798.68	229.55
799.00	229.50
799.32	229.41
799.64	229.39
799.96	229.37
800.28	229.36
800.60	229.31
800.92	229.28
801.24	229.32
801.56	229.26
801.89	229.22
802.21	229.21
802.53	229.16
802.85	229.16
803.17	229.20
803.49	229.14
803.81	229.10
804.13	229.06
804.45	229.01
804.77	229.00
805.09	228.96
805.41	228.94
805.73	228.92
806.05	228.84
806.37	228.81
806.69	228.76
807.01	228.72
807.33	228.72
807.65	228.65
807.97	228.64
808.28	228.63
808.60	228.59
808.92	228.55
809.24	228.60
809.56	228.56
809.88	228.49
810.20	228.45
810.52	228.47
810.84	228.41
811.16	228.38
811.48	228.35
811.80	228.34
812.12	228.29
812.43	228.27
812.75	228.28
813.07	228.25
813.39	228.24
813.71	228.20
814.03	228.17
814.35	228.13
814.67	228.06
814.98	228.04
815.30	228.02
815.62	227.96
815.94	227.87
816.26	227.87
816.58	227.85
816.89	227.83
817.21	227.78
817.53	227.77
817.85	227.75
818.17	227.73
818.48	227.67
818.80	227.69
819.12	227.65
819.44	227.64
819.76	227.59
820.07	227.57
820.39	227.57
820.71	227.55
821.03	227.53
821.34	227.53
821.66	227.52
821.98	227.52
822.30	227.52
822.61	227.53
822.93	227.48
823.25	227.46
823.57	227.46
823.88	227.45
824.20	227.45
824.52	227.43
824.83	227.38
825.15	227.38
825.47	227.36
825.79	227.36
826.10	227.31
826.42	227.32
826.74	227.35
827.05	227.35
827.37	227.34
827.69	227.36
828.00	227.35
828.32	227.36
828.64	227.34
828.95	227.39
829.27	227.38
829.58	227.36
829.90	227.38
830.22	227.38
830.53	227.35
830.85	227.35
831.17	227.34
831.48	227.36
831.80	227.33
832.11	227.32
832.43	227.31
832.75	227.33
833.06	227.38
833.38	227.33
833.69	227.34
834.01	227.37
834.32	227.37
834.64	227.35
834.96	227.33
835.27	227.34
835.59	227.31
835.90	227.30
836.22	227.29
836.53	227.26
836.85	227.25
837.16	227.34
837.48	227.33
837.79	227.35
838.11	227.38
838.42	227.38
838.74	227.40
839.05	227.39
839.37	227.36
839.68	227.30
840.00	227.29
840.31	227.26
840.63	227.24
840.94	227.21
841.26	227.21
841.57	227.20
841.88	227.21
842.20	227.19
842.51	227.16
842.83	227.17
843.14	227.26
843.46	227.24
843.77	227.19
844.08	227.20
844.40	227.19
844.71	227.17
845.03	227.18
845.34	227.17
845.65	227.14
845.97	227.15
846.28	227.16
846.60	227.16
846.91	227.14
847.22	227.11
847.54	227.12
847.85	227.11
848.16	227.11
848.48	227.05
848.79	227.06
849.10	227.08
849.42	227.09
849.73	226.95
850.04	226.97
850.36	226.90
850.67	226.89
850.98	226.85
851.30	226.88
851.61	226.83
851.92	226.81
852.23	226.85
852.55	226.84
852.86	226.82
853.17	226.81
853.49	226.83
853.80	226.83
854.11	226.86
854.42	226.87
854.74	226.85
855.05	226.84
855.36	226.81
855.67	226.76
855.99	226.72
856.30	226.87
856.61	226.86
856.92	226.87
857.23	226.90
857.55	226.89
857.86	226.85
858.17	226.89
858.48	226.86
858.79	226.85
859.11	226.87
859.42	226.84
859.73	226.82
860.04	226.81
860.35	226.77
860.66	226.72
860.98	226.69
861.29	226.70
861.60	226.72
861.91	226.74
862.22	226.77
862.53	226.78
862.84	226.64
863.16	226.64
863.47	226.62
863.78	226.61
864.09	226.59
864.40	226.58
864.71	226.55
865.02	226.58
865.33	226.55
865.64	226.52
865.95	226.50
866.27	226.58
866.58	226.55
866.89	226.60
867.20	226.60
867.51	226.55
867.82	226.53
868.13	226.52
868.44	226.52
868.75	226.52
869.06	226.52
869.37	226.53
869.68	226.50
869.99	226.51
870.30	226.50
870.61	226.53
870.92	226.54
871.23	226.52
871.54	226.51
871.85	226.55
872.16	226.57
872.47	226.57
872.78	226.49
873.09	226.51
873.40	226.50
873.71	226.50
874.02	226.52
874.33	226.53
874.64	226.51
874.95	226.52
875.26	226.47
875.56	226.46
875.87	226.45
876.18	226.44
876.49	226.51
876.80	226.47
877.11	226.47
877.42	226.48
877.73	226.50
878.04	226.49
878.35	226.45
878.66	226.45
878.96	226.49
879.27	226.50
879.58	226.48
879.89	226.46
880.20	226.48
880.51	226.50
880.82	226.49
881.12	226.50
881.43	226.46
881.74	226.46
882.05	226.46
882.36	226.47
882.67	226.50
882.97	226.40
883.28	226.43
883.59	226.40
883.90	226.41
884.21	226.40
884.51	226.41
884.82	226.39
885.13	226.36
885.44	226.34
885.74	226.31
886.05	226.32
886.36	226.34
886.67	226.32
886.98	226.35
887.28	226.35
887.59	226.35
887.90	226.33
888.20	226.33
888.51	226.30
888.82	226.27
889.13	226.24
889.43	226.28
889.74	226.26
890.05	226.26
890.35	226.24
890.66	226.22
890.97	226.19
891.28	226.15
891.58	226.18
891.89	226.15
892.20	226.16
892.50	226.15
892.81	226.12
893.12	226.12
893.42	226.08
893.73	226.05
894.04	226.05
894.34	226.08
894.65	226.05
894.95	226.07
895.26	226.09
895.57	226.14
895.87	226.08
896.18	226.08
896.48	226.08
896.79	226.10
897.10	226.12
897.40	226.15
897.71	226.18
898.01	226.17
898.32	226.19
898.63	226.18
898.93	226.18
899.24	226.18
899.54	226.15
899.85	226.15
900.15	226.19
900.46	226.16
900.76	226.17
901.07	226.20
901.38	226.18
901.68	226.20
901.99	226.16
902.29	226.18
902.60	226.18
902.90	226.17
903.21	226.16
903.51	226.17
903.82	226.17
904.12	226.16
904.43	226.16
904.73	226.17
905.03	226.19
905.34	226.27
905.64	226.26
905.95	226.30
906.25	226.30
906.56	226.28
906.86	226.29
907.17	226.28
907.47	226.31
907.77	226.33
908.08	226.30
908.38	226.33
908.69	226.33
908.99	226.33
909.30	226.34
909.60	226.32
909.90	226.32
910.21	226.31
910.51	226.31
910.81	226.33
911.12	226.34
911.42	226.33
911.73	226.25
912.03	226.26
912.33	226.26
912.64	226.27
912.94	226.26
913.24	226.26
913.55	226.26
913.85	226.24
914.15	226.24
914.46	226.26
914.76	226.23
915.06	226.20
915.37	226.20
915.67	226.18
915.97	226.17
916.27	226.14
916.58	226.15
916.88	226.11
917.18	226.10
917.49	226.17
917.79	226.19
918.09	226.18
918.39	226.24
918.70	226.25
919.00	226.22
919.30	226.25
919.60	226.23
919.91	226.22
920.21	226.18
920.51	226.15
920.81	226.12
921.12	226.12
921.42	226.14
921.72	226.12
922.02	226.14
922.32	226.15
922.63	226.16
922.93	226.18
923.23	226.22
923.53	226.23
923.83	226.12
924.13	226.12
924.44	226.12
924.74	226.07
925.04	226.08
925.34	226.06
925.64	226.01
925.94	226.04
926.24	226.07
926.55	226.08
926.85	226.12
927.15	226.12
927.45	226.12
927.75	226.10
928.05	226.11
928.35	226.08
928.65	226.11
928.95	226.10
929.26	226.06
929.56	226.06
929.86	226.05
930.16	226.04
930.46	226.01
930.76	226.02
931.06	225.98
931.36	225.95
931.66	225.98
931.96	226.02
932.26	226.00
932.56	225.95
932.86	225.97
933.16	225.94
933.46	225.93
933.76	225.93
934.06	225.93
934.36	225.93
934.66	225.95
934.96	225.89
935.26	225.92
935.56	225.92
935.86	225.90
936.16	225.86
936.46	225.85
936.76	225.87
937.06	225.85
937.36	225.87
937.66	225.85
937.96	225.83
938.26	225.79
938.56	225.77
938.86	225.79
939.16	225.78
939.46	225.80
939.76	225.82
940.06	225.82
940.35	225.81
940.65	225.78
940.95	225.79
941.25	225.78
941.55	225.76
941.85	225.75
942.15	225.77
942.45	225.82
942.75	225.86
943.04	225.83
943.34	225.80
943.64	225.78
943.94	225.78
944.24	225.78
944.54	225.81
944.84	225.86
945.13	225.88
945.43	225.87
945.73	225.84
946.03	225.87
946.33	225.86
946.62	225.87
946.92	225.86
947.22	225.85
947.52	225.90
947.82	225.91
948.11	225.92
948.41	225.91
948.71	225.86
949.01	225.86
949.31	225.86
949.60	225.88
949.90	225.90
950.20	225.92
950.50	225.94
950.79	225.95
951.09	225.96
951.39	225.89
951.69	225.90
951.98	225.96
952.28	225.95
952.58	225.95
952.87	225.94
953.17	225.98
953.47	225.99
953.76	225.98
954.06	225.95
954.36	225.96
954.66	225.95
954.95	226.02
955.25	226.02
955.55	226.03
955.84	226.05
956.14	226.04
956.44	226.06
956.73	226.04
957.03	226.03
957.32	226.03
957.62	226.04
957.92	226.06
958.21	226.04
958.51	226.15
958.81	226.17
959.10	226.19
959.40	226.18
959.69	226.18
959.99	226.19
960.29	226.20
960.58	226.20
960.88	226.24
961.17	226.23
961.47	226.23
961.76	226.23
962.06	226.21
962.36	226.21
962.65	226.21
962.95	226.20
963.24	226.19
963.54	226.18
963.83	226.19
964.13	226.21
964.42	226.18
964.72	226.09
965.01	226.10
965.31	226.11
965.60	226.09
965.90	226.16
966.19	226.14
966.49	226.13
966.78	226.14
967.08	226.12
967.37	226.11
967.67	226.08
967.96	226.09
968.26	226.09
968.55	226.13
968.85	226.09
969.14	226.09
969.43	226.06
969.73	226.05
970.02	226.04
970.32	226.02
970.61	226.00
970.91	225.97
971.20	225.93
971.49	225.93
971.79	225.95
972.08	225.87
972.38	225.87
972.67	225.86
972.96	225.88
973.26	225.85
973.55	225.86
973.85	225.82
974.14	225.79
974.43	225.82
974.73	225.78
975.02	225.77
975.31	225.75
975.61	225.77
975.90	225.78
976.19	225.80
976.49	225.80
976.78	225.79
977.07	225.78
977.37	225.78
977.66	225.77
977.95	225.77
978.24	225.78
978.54	225.83
978.83	225.82
979.12	225.78
979.42	225.79
979.71	225.78
980.00	225.82
980.29	225.86
980.59	225.84
980.88	225.88
981.17	225.89
981.46	225.94
981.76	225.93
982.05	225.94
982.34	225.94
982.63	225.93
982.93	225.95
983.22	226.00
983.51	226.04
983.80	226.07
984.09	226.07
984.39	226.06
984.68	226.00
984.97	226.01
985.26	226.01
985.55	226.01
985.85	225.99
986.14	226.01
986.43	225.99
986.72	225.98
987.01	225.96
987.30	225.94
987.59	225.91
987.89	225.93
988.18	225.91
988.47	225.90
988.76	225.91
989.05	225.91
989.34	225.89
989.63	225.88
989.92	225.84
990.22	225.81
990.51	225.81
990.80	225.84
991.09	225.87
991.38	225.89
991.67	225.89
991.96	225.91
992.25	225.92
992.54	225.89
992.83	225.87
993.12	225.88
993.41	225.95
993.70	225.98
993.99	225.98
994.28	226.00
994.58	225.98
994.87	225.99
995.16	225.96
995.45	225.96
995.74	225.95
996.03	225.95
996.32	225.98
996.61	226.02
996.90	226.00
997.19	225.97
997.48	225.97
997.77	225.94
998.06	225.91
998.34	225.89
998.63	225.92
998.92	225.96
999.21	225.97
999.50	225.96
999.79	225.94
1000.08	225.95
1000.37	225.92
1000.66	225.92
1000.95	225.92
1001.24	225.93
1001.53	225.95
1001.82	225.93
1002.11	225.93
1002.40	225.96
1002.68	225.97
1002.97	226.06
1003.26	226.08
1003.55	226.05
1003.84	226.08
1004.13	226.14
1004.42	226.16
1004.71	226.14
1004.99	226.13
1005.28	226.16
1005.57	226.15
1005.86	226.16
1006.15	226.14
1006.44	226.13
1006.72	226.19
1007.01	226.21
1007.30	226.23
1007.59	226.19
1007.88	226.23
1008.17	226.25
1008.45	226.21
1008.74	226.19
1009.03	226.13
1009.32	226.15
1009.60	226.16
1009.89	226.18
1010.18	226.15
1010.47	226.13
1010.76	226.16
1011.04	226.15
1011.33	226.15
1011.62	226.12
1011.91	226.12
1012.19	226.14
1012.48	226.14
1012.77	226.12
1013.05	226.16
1013.34	226.16
1013.63	226.16
1013.92	226.15
1014.20	226.13
1014.49	226.13
1014.78	226.12
1015.06	226.10
1015.35	226.06
1015.64	226.07
1015.92	226.04
1016.21	226.04
1016.50	226.04
1016.78	226.04
1017.07	226.06
1017.36	226.02
1017.64	226.01
1017.93	226.03
1018.22	226.01
1018.50	226.01
1018.79	225.99
1019.08	225.93
1019.36	225.94
1019.65	225.94
1019.93	225.96
1020.22	225.97
1020.51	225.98
1020.79	225.96
1021.08	225.70
1021.36	225.72
1021.65	225.86
1021.94	225.93
1022.22	226.31
1022.51	225.77
1022.79	226.57
1023.08	226.12
1023.36	226.19
1023.65	225.71
>>>>>End Processed Spectral Data<<<<<
