SpectraSuite Data File
++++++++++++++++++++++++++++++++++++
Date: Fri Feb 01 15:24:24 EST 2013
User: group
Dark Spectrum Present: No
Reference Spectrum Present: No
Number of Sampled Component Spectra: 1
Spectrometers: USB2E7196
Integration Time (usec): 35000 (USB2E7196)
Spectra Averaged: 100 (USB2E7196)
Boxcar Smoothing: 10 (USB2E7196)
Correct for Electrical Dark: No (USB2E7196)
Strobe/Lamp Enabled: No (USB2E7196)
Correct for Detector Non-linearity: No (USB2E7196)
Correct for Stray Light: No (USB2E7196)
Number of Pixels in Processed Spectrum: 2048
>>>>>Begin Processed Spectral Data<<<<<
339.09	0.00
339.48	214.90
339.86	216.84
340.24	217.87
340.63	219.76
341.01	222.56
341.39	222.83
341.78	222.67
342.16	224.80
342.54	225.55
342.93	213.61
343.31	224.38
343.69	224.94
344.07	225.41
344.46	225.86
344.84	226.20
345.22	226.42
345.60	226.64
345.99	226.87
346.37	226.98
346.75	227.06
347.13	227.12
347.52	227.20
347.90	227.25
348.28	227.25
348.66	227.30
349.05	227.29
349.43	227.34
349.81	227.42
350.19	227.47
350.57	227.53
350.96	227.61
351.34	227.71
351.72	227.79
352.10	227.88
352.48	227.91
352.87	228.01
353.25	228.07
353.63	228.12
354.01	228.18
354.39	228.29
354.77	228.38
355.15	228.47
355.54	228.51
355.92	228.54
356.30	228.64
356.68	228.77
357.06	228.84
357.44	228.85
357.82	228.90
358.20	228.97
358.58	229.00
358.97	229.07
359.35	229.16
359.73	229.24
360.11	229.27
360.49	229.33
360.87	229.32
361.25	229.38
361.63	229.47
362.01	229.50
362.39	229.49
362.77	229.49
363.15	229.53
363.53	229.55
363.91	229.55
364.29	229.56
364.67	229.49
365.05	229.51
365.43	229.54
365.81	229.52
366.19	229.56
366.57	229.60
366.95	229.57
367.33	229.51
367.71	229.49
368.09	229.49
368.47	229.48
368.85	229.47
369.23	229.46
369.61	229.39
369.99	229.35
370.37	229.34
370.75	229.37
371.13	229.32
371.51	229.27
371.89	229.25
372.27	229.19
372.65	229.11
373.03	229.05
373.41	228.97
373.78	228.92
374.16	228.82
374.54	228.73
374.92	228.65
375.30	228.57
375.68	228.47
376.06	228.38
376.44	228.29
376.82	228.21
377.19	228.14
377.57	228.06
377.95	227.99
378.33	227.91
378.71	227.78
379.09	227.74
379.47	227.70
379.84	227.62
380.22	227.54
380.60	227.49
380.98	227.38
381.36	227.32
381.73	227.25
382.11	227.19
382.49	227.14
382.87	227.09
383.25	227.04
383.62	227.11
384.00	227.04
384.38	227.00
384.76	226.97
385.13	226.94
385.51	226.91
385.89	226.81
386.27	226.76
386.64	226.71
387.02	226.61
387.40	226.58
387.78	226.55
388.15	226.53
388.53	226.48
388.91	226.49
389.29	226.46
389.66	226.42
390.04	226.37
390.42	226.36
390.79	226.34
391.17	226.35
391.55	226.25
391.92	226.26
392.30	226.30
392.68	226.27
393.05	226.28
393.43	226.27
393.81	226.31
394.18	226.34
394.56	226.41
394.94	226.49
395.31	226.49
395.69	226.59
396.06	226.59
396.44	226.67
396.82	226.71
397.19	226.82
397.57	226.89
397.95	226.99
398.32	227.02
398.70	227.09
399.07	227.17
399.45	227.24
399.82	227.33
400.20	227.37
400.58	227.45
400.95	227.49
401.33	227.59
401.70	227.77
402.08	227.85
402.45	227.95
402.83	228.07
403.20	228.20
403.58	228.24
403.95	228.37
404.33	228.48
404.71	228.60
405.08	228.77
405.46	228.89
405.83	229.03
406.21	229.20
406.58	229.36
406.96	229.51
407.33	229.66
407.70	229.85
408.08	230.15
408.45	230.38
408.83	230.65
409.20	230.89
409.58	231.08
409.95	231.35
410.33	231.60
410.70	231.85
411.08	232.17
411.45	232.50
411.82	232.85
412.20	233.21
412.57	233.63
412.95	233.93
413.32	234.34
413.69	234.77
414.07	235.22
414.44	235.71
414.82	236.18
415.19	236.73
415.56	237.27
415.94	237.82
416.31	238.46
416.68	239.09
417.06	239.78
417.43	240.48
417.81	241.24
418.18	242.05
418.55	242.89
418.93	243.73
419.30	244.66
419.67	245.64
420.04	246.58
420.42	247.57
420.79	248.74
421.16	249.91
421.54	251.07
421.91	252.27
422.28	253.51
422.66	254.86
423.03	256.20
423.40	257.53
423.77	258.92
424.15	260.35
424.52	261.84
424.89	263.44
425.26	265.00
425.64	266.49
426.01	268.05
426.38	269.70
426.75	271.38
427.13	273.09
427.50	274.82
427.87	276.70
428.24	278.55
428.61	280.29
428.99	282.20
429.36	284.30
429.73	286.37
430.10	288.39
430.47	290.42
430.85	292.54
431.22	294.79
431.59	297.14
431.96	299.38
432.33	301.89
432.70	304.27
433.08	307.06
433.45	309.68
433.82	312.30
434.19	315.19
434.56	318.04
434.93	320.65
435.30	323.28
435.68	326.17
436.05	328.99
436.42	331.80
436.79	334.31
437.16	337.03
437.53	339.86
437.90	342.68
438.27	345.43
438.64	348.22
439.01	350.82
439.38	353.06
439.75	355.24
440.13	357.71
440.50	360.09
440.87	361.92
441.24	363.83
441.61	365.99
441.98	367.48
442.35	369.23
442.72	371.11
443.09	372.92
443.46	373.92
443.83	374.54
444.20	375.03
444.57	375.89
444.94	376.19
445.31	376.51
445.68	376.90
446.05	376.99
446.42	376.62
446.79	376.21
447.16	375.78
447.53	375.50
447.90	374.35
448.27	373.15
448.64	371.54
449.01	370.39
449.37	368.39
449.74	366.51
450.11	364.24
450.48	361.77
450.85	359.25
451.22	357.11
451.59	355.07
451.96	353.11
452.33	350.49
452.70	348.09
453.07	345.26
453.43	342.33
453.80	339.57
454.17	336.89
454.54	334.37
454.91	331.64
455.28	328.97
455.65	326.45
456.02	324.01
456.38	321.90
456.75	319.27
457.12	317.05
457.49	314.80
457.86	312.65
458.23	310.79
458.59	308.72
458.96	306.64
459.33	304.77
459.70	302.94
460.07	301.45
460.43	299.77
460.80	298.14
461.17	296.71
461.54	295.22
461.91	293.81
462.27	292.33
462.64	291.09
463.01	289.69
463.38	288.43
463.74	287.03
464.11	285.85
464.48	284.82
464.85	283.73
465.21	282.88
465.58	281.97
465.95	280.91
466.32	280.02
466.68	279.13
467.05	278.25
467.42	277.34
467.78	276.40
468.15	275.54
468.52	274.89
468.88	274.01
469.25	273.21
469.62	272.59
469.98	271.93
470.35	271.27
470.72	270.66
471.08	269.96
471.45	269.44
471.82	268.89
472.18	268.25
472.55	267.79
472.92	267.23
473.28	266.77
473.65	266.27
474.02	265.83
474.38	265.46
474.75	265.15
475.11	264.83
475.48	264.55
475.85	264.29
476.21	264.01
476.58	263.84
476.94	263.67
477.31	263.49
477.67	263.34
478.04	263.24
478.41	263.18
478.77	263.21
479.14	263.12
479.50	263.16
479.87	263.22
480.23	263.31
480.60	263.38
480.96	263.46
481.33	263.68
481.69	263.86
482.06	264.01
482.42	264.16
482.79	264.38
483.15	264.71
483.52	265.08
483.88	265.47
484.25	265.86
484.61	266.29
484.98	266.73
485.34	267.28
485.71	267.87
486.07	268.49
486.44	269.05
486.80	269.73
487.17	270.42
487.53	271.26
487.90	272.07
488.26	272.98
488.62	273.95
488.99	274.88
489.35	275.92
489.72	277.08
490.08	278.27
490.44	279.52
490.81	280.85
491.17	282.21
491.54	283.66
491.90	285.20
492.26	286.83
492.63	288.57
492.99	290.36
493.36	292.23
493.72	294.25
494.08	296.32
494.45	298.60
494.81	300.99
495.17	303.42
495.54	305.98
495.90	308.66
496.26	311.46
496.63	314.44
496.99	317.56
497.35	320.80
497.72	324.22
498.08	327.75
498.44	331.42
498.80	335.32
499.17	339.37
499.53	343.53
499.89	347.94
500.26	352.42
500.62	357.11
500.98	362.03
501.34	367.10
501.71	372.49
502.07	377.92
502.43	383.51
502.79	389.39
503.16	395.48
503.52	401.82
503.88	408.27
504.24	414.94
504.60	421.85
504.97	429.01
505.33	436.34
505.69	444.02
506.05	451.80
506.41	459.72
506.78	467.92
507.14	476.39
507.50	485.05
507.86	494.08
508.22	503.24
508.59	512.44
508.95	522.05
509.31	531.82
509.67	542.01
510.03	552.30
510.39	562.85
510.75	573.67
511.12	584.57
511.48	595.86
511.84	607.36
512.20	618.87
512.56	630.80
512.92	643.06
513.28	655.40
513.64	667.91
514.00	680.65
514.37	693.60
514.73	706.71
515.09	719.81
515.45	733.14
515.81	746.82
516.17	760.87
516.53	774.98
516.89	789.13
517.25	803.24
517.61	817.69
517.97	832.15
518.33	846.67
518.69	861.46
519.05	876.57
519.41	891.63
519.77	907.22
520.13	922.75
520.49	938.07
520.85	953.50
521.21	969.23
521.57	985.42
521.93	1001.21
522.29	1017.55
522.65	1033.74
523.01	1050.08
523.37	1066.08
523.73	1082.27
524.09	1098.45
524.45	1114.83
524.81	1131.39
525.17	1148.31
525.53	1165.20
525.89	1182.05
526.25	1198.93
526.61	1215.33
526.97	1232.20
527.33	1248.68
527.68	1265.25
528.04	1281.77
528.40	1298.52
528.76	1315.60
529.12	1332.28
529.48	1349.15
529.84	1365.37
530.20	1382.15
530.56	1399.03
530.91	1416.52
531.27	1433.42
531.63	1449.95
531.99	1466.64
532.35	1482.74
532.71	1498.65
533.07	1514.95
533.42	1530.82
533.78	1546.94
534.14	1563.11
534.50	1578.47
534.86	1594.43
535.21	1609.65
535.57	1625.76
535.93	1641.23
536.29	1656.18
536.65	1671.44
537.00	1686.38
537.36	1701.61
537.72	1716.23
538.08	1730.72
538.44	1744.64
538.79	1758.47
539.15	1772.27
539.51	1785.94
539.87	1800.42
540.22	1814.16
540.58	1828.14
540.94	1841.65
541.29	1854.64
541.65	1867.55
542.01	1880.94
542.37	1893.30
542.72	1905.89
543.08	1917.71
543.44	1930.19
543.79	1941.47
544.15	1952.43
544.51	1963.95
544.87	1975.11
545.22	1985.94
545.58	1996.35
545.94	2006.16
546.29	2016.22
546.65	2025.90
547.01	2035.28
547.36	2044.18
547.72	2052.78
548.07	2060.71
548.43	2068.90
548.79	2077.01
549.14	2084.47
549.50	2091.82
549.86	2099.54
550.21	2106.80
550.57	2114.11
550.92	2120.74
551.28	2127.92
551.64	2135.10
551.99	2141.72
552.35	2147.76
552.70	2153.92
553.06	2159.92
553.41	2166.27
553.77	2172.24
554.13	2178.50
554.48	2184.61
554.84	2189.91
555.19	2195.26
555.55	2200.28
555.90	2204.75
556.26	2209.48
556.61	2214.24
556.97	2218.37
557.32	2222.61
557.68	2226.69
558.03	2230.88
558.39	2234.63
558.74	2239.22
559.10	2242.92
559.45	2246.54
559.81	2250.84
560.16	2254.67
560.52	2257.79
560.87	2261.13
561.23	2263.76
561.58	2266.72
561.94	2269.40
562.29	2271.84
562.64	2274.40
563.00	2276.97
563.35	2280.58
563.71	2283.87
564.06	2287.04
564.42	2289.91
564.77	2292.21
565.12	2294.49
565.48	2296.13
565.83	2297.88
566.19	2298.94
566.54	2299.87
566.89	2300.78
567.25	2301.35
567.60	2302.63
567.96	2304.19
568.31	2305.05
568.66	2306.15
569.02	2306.64
569.37	2306.76
569.72	2307.58
570.08	2307.62
570.43	2307.66
570.78	2306.84
571.14	2305.03
571.49	2303.68
571.84	2303.31
572.20	2302.06
572.55	2300.93
572.90	2299.50
573.26	2298.04
573.61	2296.36
573.96	2294.49
574.31	2291.65
574.67	2288.50
575.02	2284.76
575.37	2281.39
575.72	2277.39
576.08	2273.90
576.43	2270.48
576.78	2266.86
577.13	2263.62
577.49	2260.59
577.84	2256.91
578.19	2253.16
578.54	2249.41
578.90	2245.08
579.25	2239.54
579.60	2234.50
579.95	2229.50
580.30	2224.38
580.66	2219.20
581.01	2214.15
581.36	2209.13
581.71	2204.77
582.06	2200.23
582.42	2195.66
582.77	2190.33
583.12	2185.71
583.47	2180.77
583.82	2175.56
584.17	2170.20
584.53	2164.52
584.88	2158.76
585.23	2152.90
585.58	2147.42
585.93	2142.10
586.28	2137.28
586.63	2132.02
586.98	2126.95
587.34	2122.21
587.69	2117.20
588.04	2111.75
588.39	2106.11
588.74	2099.64
589.09	2093.61
589.44	2086.78
589.79	2080.87
590.14	2075.25
590.49	2068.56
590.84	2062.35
591.19	2056.38
591.54	2049.73
591.89	2042.19
592.25	2035.26
592.60	2028.04
592.95	2020.34
593.30	2012.81
593.65	2005.11
594.00	1998.03
594.35	1990.80
594.70	1982.61
595.05	1975.29
595.40	1968.00
595.75	1960.19
596.10	1953.76
596.45	1946.73
596.80	1940.55
597.15	1933.65
597.50	1926.35
597.85	1920.01
598.19	1913.20
598.54	1906.07
598.89	1899.53
599.24	1893.65
599.59	1886.93
599.94	1880.70
600.29	1874.32
600.64	1867.79
600.99	1860.19
601.34	1853.34
601.69	1846.35
602.04	1839.34
602.39	1832.04
602.74	1825.21
603.08	1818.59
603.43	1812.05
603.78	1804.84
604.13	1797.45
604.48	1790.18
604.83	1783.48
605.18	1776.31
605.53	1768.23
605.87	1760.16
606.22	1752.88
606.57	1744.82
606.92	1737.41
607.27	1730.13
607.62	1723.19
607.96	1715.74
608.31	1709.19
608.66	1701.51
609.01	1693.92
609.36	1686.33
609.70	1678.25
610.05	1670.09
610.40	1662.38
610.75	1654.04
611.10	1646.27
611.44	1638.05
611.79	1630.08
612.14	1621.17
612.49	1612.16
612.83	1603.84
613.18	1595.72
613.53	1587.55
613.88	1579.16
614.22	1570.80
614.57	1562.29
614.92	1554.13
615.27	1546.58
615.61	1538.20
615.96	1530.20
616.31	1522.54
616.65	1515.18
617.00	1507.66
617.35	1500.11
617.70	1491.74
618.04	1483.06
618.39	1474.89
618.74	1467.14
619.08	1458.78
619.43	1451.35
619.78	1444.39
620.12	1437.25
620.47	1429.59
620.82	1421.35
621.16	1414.02
621.51	1406.58
621.85	1398.85
622.20	1390.39
622.55	1382.03
622.89	1374.17
623.24	1366.66
623.59	1359.31
623.93	1351.85
624.28	1344.50
624.62	1336.86
624.97	1329.67
625.32	1323.00
625.66	1315.98
626.01	1308.83
626.35	1301.36
626.70	1293.53
627.04	1285.71
627.39	1277.88
627.73	1270.54
628.08	1263.64
628.43	1256.10
628.77	1248.57
629.12	1241.03
629.46	1233.86
629.81	1226.56
630.15	1219.34
630.50	1211.83
630.84	1203.60
631.19	1195.69
631.53	1188.34
631.88	1180.83
632.22	1173.24
632.57	1165.94
632.91	1158.40
633.26	1151.08
633.60	1143.81
633.95	1136.76
634.29	1129.73
634.64	1123.13
634.98	1115.80
635.32	1108.75
635.67	1102.28
636.01	1095.75
636.36	1089.05
636.70	1082.58
637.05	1075.91
637.39	1069.48
637.73	1063.00
638.08	1057.11
638.42	1051.09
638.77	1044.59
639.11	1038.04
639.45	1031.73
639.80	1024.97
640.14	1018.56
640.49	1012.12
640.83	1005.81
641.17	999.64
641.52	993.34
641.86	986.96
642.20	981.11
642.55	974.91
642.89	968.43
643.23	961.91
643.58	956.05
643.92	949.80
644.26	943.79
644.61	937.86
644.95	931.80
645.29	925.18
645.64	918.45
645.98	912.14
646.32	906.30
646.66	900.27
647.01	894.55
647.35	888.88
647.69	882.92
648.04	877.38
648.38	871.58
648.72	865.63
649.06	859.52
649.41	853.61
649.75	847.49
650.09	841.60
650.43	835.75
650.78	829.66
651.12	823.70
651.46	817.94
651.80	812.05
652.14	806.66
652.49	801.40
652.83	796.29
653.17	790.57
653.51	784.78
653.85	779.35
654.20	773.57
654.54	767.51
654.88	761.80
655.22	755.96
655.56	750.26
655.90	744.78
656.25	739.43
656.59	734.07
656.93	729.06
657.27	723.85
657.61	718.47
657.95	713.34
658.29	708.30
658.64	703.06
658.98	697.86
659.32	692.38
659.66	687.09
660.00	681.72
660.34	676.76
660.68	671.88
661.02	666.82
661.36	662.26
661.70	657.80
662.05	653.43
662.39	649.06
662.73	644.61
663.07	640.22
663.41	635.81
663.75	631.31
664.09	626.70
664.43	622.30
664.77	618.18
665.11	613.91
665.45	609.76
665.79	605.66
666.13	601.51
666.47	597.44
666.81	593.29
667.15	589.19
667.49	585.38
667.83	581.56
668.17	577.69
668.51	573.57
668.85	569.50
669.19	565.67
669.53	561.80
669.87	557.90
670.21	554.24
670.55	550.55
670.89	547.18
671.23	543.79
671.57	540.29
671.91	536.83
672.25	533.42
672.58	529.97
672.92	526.65
673.26	523.55
673.60	520.45
673.94	517.33
674.28	514.46
674.62	511.51
674.96	508.41
675.30	505.47
675.64	502.63
675.97	499.94
676.31	497.08
676.65	494.17
676.99	491.49
677.33	488.63
677.67	485.87
678.01	482.78
678.34	479.81
678.68	477.00
679.02	474.13
679.36	471.35
679.70	468.61
680.04	465.84
680.37	462.91
680.71	460.10
681.05	457.52
681.39	454.80
681.73	452.13
682.06	449.66
682.40	447.12
682.74	444.54
683.08	441.99
683.42	439.34
683.75	436.94
684.09	434.38
684.43	431.91
684.77	429.44
685.10	427.14
685.44	424.80
685.78	422.45
686.12	420.19
686.45	417.88
686.79	415.63
687.13	413.45
687.46	411.37
687.80	409.31
688.14	407.14
688.48	405.09
688.81	402.84
689.15	400.67
689.49	398.55
689.82	396.50
690.16	394.42
690.50	392.55
690.83	390.51
691.17	388.57
691.51	386.70
691.84	384.90
692.18	383.00
692.52	381.05
692.85	379.20
693.19	377.35
693.52	375.57
693.86	373.75
694.20	371.96
694.53	370.11
694.87	368.26
695.21	366.50
695.54	364.72
695.88	363.04
696.21	361.34
696.55	359.65
696.88	357.97
697.22	356.29
697.56	354.63
697.89	352.98
698.23	351.38
698.56	349.76
698.90	348.16
699.23	346.52
699.57	344.99
699.90	343.44
700.24	341.89
700.58	340.35
700.91	338.84
701.25	337.39
701.58	336.01
701.92	334.60
702.25	333.20
702.59	331.79
702.92	330.43
703.26	329.09
703.59	327.78
703.93	326.58
704.26	325.36
704.60	324.08
704.93	322.83
705.26	321.58
705.60	320.42
705.93	319.25
706.27	318.22
706.60	317.15
706.94	316.04
707.27	314.93
707.61	313.85
707.94	312.83
708.27	311.72
708.61	310.67
708.94	309.63
709.28	308.63
709.61	307.69
709.94	306.77
710.28	305.76
710.61	304.84
710.95	303.75
711.28	302.84
711.61	301.85
711.95	300.89
712.28	299.94
712.61	298.93
712.95	297.97
713.28	297.10
713.61	296.18
713.95	295.30
714.28	294.44
714.61	293.64
714.95	292.80
715.28	291.93
715.61	291.03
715.95	290.17
716.28	289.31
716.61	288.49
716.95	287.67
717.28	286.93
717.61	286.16
717.94	285.45
718.28	284.64
718.61	283.94
718.94	283.30
719.27	282.63
719.61	281.99
719.94	281.35
720.27	280.61
720.60	279.96
720.94	279.35
721.27	278.79
721.60	278.14
721.93	277.54
722.27	277.04
722.60	276.52
722.93	276.01
723.26	275.52
723.59	274.95
723.93	274.41
724.26	273.89
724.59	273.31
724.92	272.80
725.25	272.32
725.59	271.81
725.92	271.32
726.25	270.84
726.58	270.37
726.91	269.89
727.24	269.45
727.57	268.98
727.91	268.49
728.24	268.03
728.57	267.60
728.90	267.17
729.23	266.68
729.56	266.25
729.89	265.76
730.22	265.23
730.55	264.77
730.89	264.33
731.22	263.86
731.55	263.44
731.88	263.01
732.21	262.59
732.54	262.20
732.87	261.73
733.20	261.33
733.53	260.95
733.86	260.59
734.19	260.18
734.52	259.80
734.85	259.49
735.18	259.07
735.51	258.69
735.84	258.30
736.17	257.96
736.50	257.56
736.83	257.32
737.16	257.02
737.49	256.71
737.82	256.36
738.15	256.04
738.48	255.69
738.81	255.38
739.14	255.03
739.47	254.69
739.80	254.40
740.13	254.09
740.46	253.71
740.79	253.38
741.12	253.08
741.45	252.77
741.78	252.39
742.11	252.07
742.44	251.72
742.77	251.46
743.10	251.14
743.43	250.86
743.75	250.46
744.08	250.30
744.41	250.05
744.74	249.76
745.07	249.49
745.40	249.25
745.73	249.01
746.06	248.73
746.39	248.47
746.71	248.22
747.04	247.94
747.37	247.70
747.70	247.46
748.03	247.20
748.36	246.97
748.68	246.78
749.01	246.55
749.34	246.30
749.67	246.02
750.00	245.82
750.33	245.63
750.65	245.45
750.98	245.12
751.31	244.92
751.64	244.72
751.97	244.56
752.29	244.35
752.62	244.10
752.95	243.91
753.28	243.71
753.60	243.51
753.93	243.31
754.26	243.11
754.59	242.87
754.91	242.66
755.24	242.48
755.57	242.28
755.90	242.11
756.22	241.94
756.55	241.76
756.88	241.54
757.20	241.32
757.53	241.12
757.86	240.92
758.19	240.72
758.51	240.55
758.84	240.31
759.17	240.16
759.49	240.01
759.82	239.91
760.15	239.73
760.47	239.58
760.80	239.46
761.13	239.35
761.45	239.21
761.78	239.05
762.11	238.90
762.43	238.76
762.76	238.61
763.08	238.49
763.41	238.37
763.74	238.24
764.06	238.09
764.39	237.96
764.71	237.83
765.04	237.72
765.37	237.62
765.69	237.51
766.02	237.36
766.34	237.22
766.67	237.05
767.00	236.96
767.32	236.87
767.65	236.79
767.97	236.68
768.30	236.59
768.62	236.48
768.95	236.37
769.27	236.25
769.60	236.16
769.92	236.05
770.25	235.95
770.57	235.86
770.90	235.76
771.22	235.62
771.55	235.55
771.87	235.45
772.20	235.32
772.52	235.29
772.85	235.34
773.17	235.25
773.50	235.16
773.82	235.09
774.15	234.94
774.47	234.79
774.80	234.68
775.12	234.58
775.45	234.51
775.77	234.43
776.09	234.36
776.42	234.31
776.74	234.25
777.07	234.17
777.39	234.10
777.72	234.01
778.04	234.00
778.36	233.89
778.69	233.79
779.01	233.70
779.33	233.57
779.66	233.38
779.98	233.31
780.31	233.22
780.63	233.19
780.95	233.13
781.28	233.07
781.60	233.01
781.92	232.96
782.25	232.90
782.57	232.84
782.89	232.75
783.22	232.67
783.54	232.60
783.86	232.52
784.19	232.44
784.51	232.43
784.83	232.34
785.16	232.29
785.48	232.22
785.80	232.18
786.12	232.12
786.45	232.05
786.77	232.02
787.09	231.98
787.42	231.90
787.74	231.88
788.06	231.85
788.38	231.80
788.71	231.74
789.03	231.68
789.35	231.66
789.67	231.62
789.99	231.57
790.32	231.50
790.64	231.46
790.96	231.50
791.28	231.43
791.61	231.38
791.93	231.37
792.25	231.36
792.57	231.41
792.89	231.34
793.21	231.32
793.54	231.26
793.86	231.25
794.18	231.22
794.50	231.17
794.82	231.12
795.14	231.08
795.47	231.05
795.79	230.99
796.11	230.94
796.43	230.88
796.75	230.86
797.07	230.85
797.39	230.81
797.71	230.71
798.04	230.68
798.36	230.64
798.68	230.58
799.00	230.57
799.32	230.47
799.64	230.47
799.96	230.43
800.28	230.41
800.60	230.35
800.92	230.30
801.24	230.26
801.56	230.26
801.89	230.23
802.21	230.22
802.53	230.20
802.85	230.19
803.17	230.19
803.49	230.16
803.81	230.14
804.13	230.10
804.45	230.06
804.77	230.04
805.09	230.02
805.41	229.98
805.73	229.95
806.05	229.91
806.37	229.89
806.69	229.85
807.01	229.84
807.33	229.84
807.65	229.81
807.97	229.80
808.28	229.77
808.60	229.76
808.92	229.75
809.24	229.76
809.56	229.74
809.88	229.68
810.20	229.67
810.52	229.64
810.84	229.62
811.16	229.60
811.48	229.58
811.80	229.60
812.12	229.58
812.43	229.54
812.75	229.54
813.07	229.49
813.39	229.50
813.71	229.43
814.03	229.37
814.35	229.32
814.67	229.27
814.98	229.22
815.30	229.17
815.62	229.10
815.94	229.02
816.26	229.02
816.58	228.99
816.89	228.98
817.21	228.97
817.53	228.93
817.85	228.87
818.17	228.82
818.48	228.74
818.80	228.75
819.12	228.69
819.44	228.65
819.76	228.59
820.07	228.56
820.39	228.54
820.71	228.53
821.03	228.54
821.34	228.50
821.66	228.50
821.98	228.49
822.30	228.47
822.61	228.48
822.93	228.42
823.25	228.38
823.57	228.36
823.88	228.33
824.20	228.34
824.52	228.37
824.83	228.34
825.15	228.32
825.47	228.25
825.79	228.26
826.10	228.25
826.42	228.24
826.74	228.25
827.05	228.25
827.37	228.25
827.69	228.20
828.00	228.18
828.32	228.18
828.64	228.16
828.95	228.23
829.27	228.24
829.58	228.21
829.90	228.26
830.22	228.25
830.53	228.22
830.85	228.20
831.17	228.18
831.48	228.22
831.80	228.24
832.11	228.26
832.43	228.25
832.75	228.21
833.06	228.32
833.38	228.25
833.69	228.25
834.01	228.23
834.32	228.25
834.64	228.27
834.96	228.25
835.27	228.27
835.59	228.22
835.90	228.19
836.22	228.18
836.53	228.15
836.85	228.10
837.16	228.21
837.48	228.21
837.79	228.24
838.11	228.20
838.42	228.19
838.74	228.21
839.05	228.20
839.37	228.24
839.68	228.13
840.00	228.15
840.31	228.15
840.63	228.18
840.94	228.17
841.26	228.16
841.57	228.19
841.88	228.17
842.20	228.16
842.51	228.16
842.83	228.16
843.14	228.28
843.46	228.31
843.77	228.26
844.08	228.27
844.40	228.25
844.71	228.27
845.03	228.28
845.34	228.26
845.65	228.27
845.97	228.26
846.28	228.29
846.60	228.33
846.91	228.34
847.22	228.31
847.54	228.30
847.85	228.29
848.16	228.26
848.48	228.25
848.79	228.28
849.10	228.31
849.42	228.30
849.73	228.18
850.04	228.14
850.36	228.08
850.67	228.09
850.98	228.07
851.30	228.04
851.61	228.02
851.92	228.00
852.23	228.03
852.55	228.02
852.86	227.98
853.17	227.96
853.49	227.97
853.80	227.99
854.11	228.00
854.42	228.02
854.74	227.99
855.05	227.97
855.36	227.91
855.67	227.89
855.99	227.88
856.30	227.96
856.61	227.97
856.92	227.98
857.23	227.92
857.55	227.92
857.86	227.92
858.17	227.95
858.48	227.94
858.79	227.90
859.11	227.90
859.42	227.89
859.73	227.89
860.04	227.87
860.35	227.81
860.66	227.78
860.98	227.76
861.29	227.75
861.60	227.74
861.91	227.79
862.22	227.77
862.53	227.78
862.84	227.69
863.16	227.70
863.47	227.70
863.78	227.72
864.09	227.70
864.40	227.69
864.71	227.66
865.02	227.63
865.33	227.65
865.64	227.63
865.95	227.66
866.27	227.69
866.58	227.69
866.89	227.71
867.20	227.72
867.51	227.69
867.82	227.72
868.13	227.76
868.44	227.73
868.75	227.75
869.06	227.74
869.37	227.71
869.68	227.69
869.99	227.70
870.30	227.70
870.61	227.71
870.92	227.71
871.23	227.69
871.54	227.73
871.85	227.71
872.16	227.71
872.47	227.70
872.78	227.64
873.09	227.63
873.40	227.62
873.71	227.61
874.02	227.60
874.33	227.59
874.64	227.56
874.95	227.58
875.26	227.58
875.56	227.57
875.87	227.61
876.18	227.61
876.49	227.69
876.80	227.70
877.11	227.68
877.42	227.69
877.73	227.73
878.04	227.72
878.35	227.76
878.66	227.74
878.96	227.74
879.27	227.76
879.58	227.73
879.89	227.74
880.20	227.78
880.51	227.78
880.82	227.82
881.12	227.84
881.43	227.82
881.74	227.79
882.05	227.78
882.36	227.78
882.67	227.80
882.97	227.69
883.28	227.65
883.59	227.67
883.90	227.68
884.21	227.66
884.51	227.63
884.82	227.59
885.13	227.62
885.44	227.65
885.74	227.63
886.05	227.66
886.36	227.64
886.67	227.61
886.98	227.67
887.28	227.64
887.59	227.61
887.90	227.62
888.20	227.59
888.51	227.62
888.82	227.59
889.13	227.60
889.43	227.68
889.74	227.68
890.05	227.65
890.35	227.59
890.66	227.57
890.97	227.59
891.28	227.58
891.58	227.55
891.89	227.50
892.20	227.47
892.50	227.46
892.81	227.46
893.12	227.45
893.42	227.38
893.73	227.36
894.04	227.36
894.34	227.35
894.65	227.35
894.95	227.30
895.26	227.28
895.57	227.28
895.87	227.17
896.18	227.18
896.48	227.19
896.79	227.22
897.10	227.22
897.40	227.17
897.71	227.17
898.01	227.17
898.32	227.17
898.63	227.16
898.93	227.17
899.24	227.15
899.54	227.14
899.85	227.16
900.15	227.17
900.46	227.14
900.76	227.14
901.07	227.11
901.38	227.12
901.68	227.16
901.99	227.13
902.29	227.14
902.60	227.14
902.90	227.11
903.21	227.10
903.51	227.14
903.82	227.20
904.12	227.20
904.43	227.24
904.73	227.24
905.03	227.24
905.34	227.32
905.64	227.32
905.95	227.33
906.25	227.31
906.56	227.32
906.86	227.34
907.17	227.32
907.47	227.36
907.77	227.36
908.08	227.34
908.38	227.34
908.69	227.34
908.99	227.36
909.30	227.40
909.60	227.39
909.90	227.35
910.21	227.33
910.51	227.34
910.81	227.32
911.12	227.31
911.42	227.31
911.73	227.23
912.03	227.26
912.33	227.30
912.64	227.30
912.94	227.28
913.24	227.28
913.55	227.28
913.85	227.26
914.15	227.31
914.46	227.31
914.76	227.30
915.06	227.30
915.37	227.28
915.67	227.25
915.97	227.26
916.27	227.25
916.58	227.26
916.88	227.26
917.18	227.25
917.49	227.33
917.79	227.37
918.09	227.36
918.39	227.34
918.70	227.35
919.00	227.35
919.30	227.39
919.60	227.40
919.91	227.41
920.21	227.42
920.51	227.36
920.81	227.37
921.12	227.40
921.42	227.42
921.72	227.43
922.02	227.43
922.32	227.47
922.63	227.47
922.93	227.52
923.23	227.55
923.53	227.55
923.83	227.50
924.13	227.48
924.44	227.48
924.74	227.51
925.04	227.54
925.34	227.52
925.64	227.48
925.94	227.42
926.24	227.46
926.55	227.47
926.85	227.51
927.15	227.52
927.45	227.48
927.75	227.47
928.05	227.45
928.35	227.47
928.65	227.46
928.95	227.47
929.26	227.43
929.56	227.44
929.86	227.45
930.16	227.41
930.46	227.40
930.76	227.42
931.06	227.38
931.36	227.30
931.66	227.32
931.96	227.34
932.26	227.37
932.56	227.34
932.86	227.34
933.16	227.31
933.46	227.27
933.76	227.27
934.06	227.29
934.36	227.33
934.66	227.30
934.96	227.29
935.26	227.28
935.56	227.28
935.86	227.22
936.16	227.18
936.46	227.19
936.76	227.17
937.06	227.13
937.36	227.11
937.66	227.12
937.96	227.12
938.26	227.10
938.56	227.09
938.86	227.05
939.16	227.06
939.46	227.07
939.76	227.10
940.06	227.09
940.35	227.08
940.65	227.03
940.95	227.03
941.25	227.01
941.55	227.00
941.85	227.01
942.15	227.03
942.45	227.07
942.75	227.05
943.04	227.06
943.34	227.08
943.64	227.10
943.94	227.11
944.24	227.11
944.54	227.11
944.84	227.11
945.13	227.10
945.43	227.09
945.73	227.08
946.03	227.07
946.33	227.07
946.62	227.04
946.92	227.04
947.22	227.06
947.52	227.06
947.82	227.06
948.11	227.00
948.41	226.99
948.71	226.95
949.01	226.95
949.31	226.95
949.60	226.96
949.90	226.97
950.20	226.94
950.50	226.96
950.79	226.94
951.09	226.98
951.39	226.98
951.69	226.98
951.98	227.04
952.28	227.07
952.58	227.06
952.87	227.07
953.17	227.10
953.47	227.11
953.76	227.10
954.06	227.10
954.36	227.11
954.66	227.13
954.95	227.16
955.25	227.18
955.55	227.20
955.84	227.20
956.14	227.21
956.44	227.21
956.73	227.20
957.03	227.17
957.32	227.15
957.62	227.16
957.92	227.19
958.21	227.19
958.51	227.25
958.81	227.28
959.10	227.30
959.40	227.31
959.69	227.29
959.99	227.29
960.29	227.30
960.58	227.30
960.88	227.36
961.17	227.35
961.47	227.37
961.76	227.36
962.06	227.36
962.36	227.35
962.65	227.37
962.95	227.35
963.24	227.38
963.54	227.39
963.83	227.40
964.13	227.35
964.42	227.28
964.72	227.24
965.01	227.25
965.31	227.21
965.60	227.21
965.90	227.29
966.19	227.29
966.49	227.33
966.78	227.34
967.08	227.29
967.37	227.30
967.67	227.28
967.96	227.31
968.26	227.31
968.55	227.31
968.85	227.33
969.14	227.33
969.43	227.36
969.73	227.34
970.02	227.33
970.32	227.36
970.61	227.39
970.91	227.34
971.20	227.29
971.49	227.29
971.79	227.25
972.08	227.17
972.38	227.18
972.67	227.17
972.96	227.19
973.26	227.18
973.55	227.20
973.85	227.19
974.14	227.17
974.43	227.15
974.73	227.13
975.02	227.08
975.31	227.10
975.61	227.07
975.90	227.04
976.19	227.03
976.49	227.01
976.78	227.02
977.07	227.02
977.37	227.03
977.66	227.05
977.95	227.03
978.24	227.02
978.54	227.01
978.83	226.97
979.12	226.94
979.42	226.96
979.71	226.95
980.00	226.94
980.29	226.90
980.59	226.90
980.88	226.91
981.17	226.96
981.46	226.91
981.76	226.92
982.05	226.98
982.34	226.97
982.63	226.98
982.93	226.97
983.22	226.99
983.51	227.02
983.80	227.03
984.09	227.10
984.39	227.08
984.68	227.09
984.97	227.07
985.26	227.03
985.55	227.01
985.85	226.96
986.14	226.98
986.43	227.01
986.72	226.99
987.01	226.94
987.30	226.89
987.59	226.90
987.89	226.89
988.18	226.84
988.47	226.87
988.76	226.84
989.05	226.85
989.34	226.82
989.63	226.82
989.92	226.81
990.22	226.77
990.51	226.80
990.80	226.80
991.09	226.82
991.38	226.85
991.67	226.82
991.96	226.87
992.25	226.84
992.54	226.82
992.83	226.80
993.12	226.83
993.41	226.87
993.70	226.92
993.99	226.93
994.28	226.99
994.58	226.97
994.87	226.98
995.16	226.97
995.45	226.99
995.74	226.95
996.03	226.96
996.32	226.97
996.61	226.96
996.90	226.96
997.19	226.97
997.48	227.00
997.77	227.05
998.06	227.01
998.34	227.03
998.63	227.03
998.92	227.07
999.21	227.11
999.50	227.12
999.79	227.09
1000.08	227.10
1000.37	227.09
1000.66	227.09
1000.95	227.12
1001.24	227.10
1001.53	227.09
1001.82	227.11
1002.11	227.09
1002.40	227.10
1002.68	227.14
1002.97	227.24
1003.26	227.19
1003.55	227.18
1003.84	227.17
1004.13	227.21
1004.42	227.18
1004.71	227.20
1004.99	227.15
1005.28	227.14
1005.57	227.12
1005.86	227.10
1006.15	227.08
1006.44	227.06
1006.72	227.06
1007.01	227.05
1007.30	227.05
1007.59	227.05
1007.88	227.05
1008.17	227.04
1008.45	227.00
1008.74	226.96
1009.03	226.88
1009.32	226.91
1009.60	226.89
1009.89	226.89
1010.18	226.86
1010.47	226.88
1010.76	226.90
1011.04	226.91
1011.33	226.94
1011.62	226.92
1011.91	226.94
1012.19	226.96
1012.48	226.98
1012.77	226.99
1013.05	227.01
1013.34	227.02
1013.63	227.02
1013.92	227.04
1014.20	227.03
1014.49	227.06
1014.78	227.05
1015.06	227.02
1015.35	227.02
1015.64	227.02
1015.92	227.02
1016.21	227.01
1016.50	227.01
1016.78	226.99
1017.07	227.03
1017.36	227.00
1017.64	226.99
1017.93	226.97
1018.22	226.97
1018.50	226.94
1018.79	226.92
1019.08	226.91
1019.36	226.89
1019.65	226.88
1019.93	226.86
1020.22	226.89
1020.51	226.91
1020.79	226.91
1021.08	227.08
1021.36	226.66
1021.65	226.70
1021.94	227.31
1022.22	226.50
1022.51	226.76
1022.79	227.26
1023.08	227.20
1023.36	227.73
1023.65	226.72
>>>>>End Processed Spectral Data<<<<<
