SpectraSuite Data File
++++++++++++++++++++++++++++++++++++
Date: Fri Feb 01 16:13:01 EST 2013
User: group
Dark Spectrum Present: No
Reference Spectrum Present: No
Number of Sampled Component Spectra: 1
Spectrometers: USB2E7196
Integration Time (usec): 35000 (USB2E7196)
Spectra Averaged: 100 (USB2E7196)
Boxcar Smoothing: 10 (USB2E7196)
Correct for Electrical Dark: No (USB2E7196)
Strobe/Lamp Enabled: No (USB2E7196)
Correct for Detector Non-linearity: No (USB2E7196)
Correct for Stray Light: No (USB2E7196)
Number of Pixels in Processed Spectrum: 2048
>>>>>Begin Processed Spectral Data<<<<<
339.09	0.00
339.48	214.46
339.86	215.42
340.24	217.30
340.63	219.13
341.01	221.34
341.39	221.51
341.78	222.99
342.16	223.97
342.54	224.56
342.93	212.82
343.31	223.60
343.69	224.12
344.07	224.62
344.46	225.02
344.84	225.38
345.22	225.63
345.60	225.88
345.99	226.03
346.37	226.17
346.75	226.25
347.13	226.27
347.52	226.33
347.90	226.39
348.28	226.42
348.66	226.45
349.05	226.43
349.43	226.46
349.81	226.49
350.19	226.56
350.57	226.60
350.96	226.70
351.34	226.74
351.72	226.86
352.10	226.92
352.48	227.01
352.87	227.05
353.25	227.12
353.63	227.16
354.01	227.23
354.39	227.25
354.77	227.32
355.15	227.43
355.54	227.47
355.92	227.51
356.30	227.58
356.68	227.71
357.06	227.78
357.44	227.84
357.82	227.87
358.20	227.92
358.58	228.02
358.97	228.07
359.35	228.17
359.73	228.20
360.11	228.26
360.49	228.30
360.87	228.34
361.25	228.36
361.63	228.43
362.01	228.51
362.39	228.56
362.77	228.59
363.15	228.64
363.53	228.69
363.91	228.71
364.29	228.70
364.67	228.61
365.05	228.66
365.43	228.68
365.81	228.70
366.19	228.74
366.57	228.77
366.95	228.79
367.33	228.76
367.71	228.77
368.09	228.77
368.47	228.77
368.85	228.78
369.23	228.80
369.61	228.77
369.99	228.77
370.37	228.75
370.75	228.80
371.13	228.71
371.51	228.67
371.89	228.66
372.27	228.61
372.65	228.58
373.03	228.53
373.41	228.45
373.78	228.42
374.16	228.32
374.54	228.23
374.92	228.16
375.30	228.10
375.68	228.04
376.06	227.98
376.44	227.90
376.82	227.82
377.19	227.74
377.57	227.67
377.95	227.53
378.33	227.46
378.71	227.28
379.09	227.26
379.47	227.17
379.84	227.08
380.22	227.02
380.60	226.95
380.98	226.86
381.36	226.83
381.73	226.73
382.11	226.68
382.49	226.59
382.87	226.51
383.25	226.45
383.62	226.48
384.00	226.40
384.38	226.36
384.76	226.31
385.13	226.25
385.51	226.17
385.89	226.14
386.27	226.11
386.64	226.11
387.02	226.05
387.40	226.02
387.78	225.99
388.15	225.92
388.53	225.89
388.91	225.86
389.29	225.81
389.66	225.81
390.04	225.77
390.42	225.78
390.79	225.75
391.17	225.70
391.55	225.57
391.92	225.56
392.30	225.54
392.68	225.53
393.05	225.54
393.43	225.54
393.81	225.53
394.18	225.51
394.56	225.52
394.94	225.52
395.31	225.51
395.69	225.56
396.06	225.65
396.44	225.65
396.82	225.66
397.19	225.75
397.57	225.74
397.95	225.81
398.32	225.81
398.70	225.85
399.07	225.98
399.45	226.05
399.82	226.09
400.20	226.14
400.58	226.20
400.95	226.24
401.33	226.34
401.70	226.49
402.08	226.60
402.45	226.66
402.83	226.74
403.20	226.86
403.58	226.94
403.95	227.00
404.33	227.13
404.71	227.27
405.08	227.42
405.46	227.56
405.83	227.68
406.21	227.83
406.58	227.99
406.96	228.11
407.33	228.28
407.70	228.50
408.08	228.77
408.45	229.00
408.83	229.21
409.20	229.43
409.58	229.61
409.95	229.85
410.33	230.14
410.70	230.41
411.08	230.70
411.45	231.01
411.82	231.33
412.20	231.68
412.57	232.12
412.95	232.40
413.32	232.85
413.69	233.27
414.07	233.72
414.44	234.19
414.82	234.68
415.19	235.24
415.56	235.80
415.94	236.35
416.31	236.98
416.68	237.62
417.06	238.37
417.43	239.05
417.81	239.83
418.18	240.61
418.55	241.46
418.93	242.38
419.30	243.25
419.67	244.19
420.04	245.16
420.42	246.15
420.79	247.37
421.16	248.47
421.54	249.68
421.91	250.92
422.28	252.17
422.66	253.53
423.03	254.80
423.40	256.11
423.77	257.51
424.15	258.92
424.52	260.42
424.89	261.99
425.26	263.53
425.64	264.99
426.01	266.57
426.38	268.21
426.75	269.88
427.13	271.63
427.50	273.47
427.87	275.35
428.24	277.19
428.61	278.91
428.99	280.89
429.36	282.99
429.73	285.03
430.10	287.07
430.47	289.11
430.85	291.24
431.22	293.52
431.59	295.96
431.96	298.21
432.33	300.68
432.70	303.06
433.08	305.91
433.45	308.49
433.82	311.08
434.19	313.97
434.56	316.73
434.93	319.39
435.30	321.97
435.68	324.83
436.05	327.67
436.42	330.47
436.79	332.96
437.16	335.67
437.53	338.46
437.90	341.23
438.27	343.97
438.64	346.78
439.01	349.36
439.38	351.53
439.75	353.65
440.13	356.10
440.50	358.39
440.87	360.20
441.24	362.19
441.61	364.35
441.98	365.85
442.35	367.63
442.72	369.45
443.09	371.29
443.46	372.28
443.83	372.85
444.20	373.34
444.57	374.15
444.94	374.42
445.31	374.77
445.68	375.11
446.05	375.21
446.42	374.85
446.79	374.44
447.16	374.00
447.53	373.71
447.90	372.57
448.27	371.47
448.64	369.88
449.01	368.72
449.37	366.80
449.74	364.89
450.11	362.64
450.48	360.22
450.85	357.69
451.22	355.58
451.59	353.58
451.96	351.60
452.33	349.00
452.70	346.65
453.07	343.83
453.43	340.96
453.80	338.15
454.17	335.46
454.54	332.90
454.91	330.16
455.28	327.49
455.65	325.03
456.02	322.58
456.38	320.46
456.75	317.81
457.12	315.55
457.49	313.30
457.86	311.18
458.23	309.32
458.59	307.27
458.96	305.18
459.33	303.30
459.70	301.47
460.07	299.98
460.43	298.27
460.80	296.68
461.17	295.27
461.54	293.79
461.91	292.39
462.27	290.94
462.64	289.74
463.01	288.42
463.38	287.09
463.74	285.75
464.11	284.63
464.48	283.62
464.85	282.49
465.21	281.72
465.58	280.82
465.95	279.76
466.32	278.88
466.68	277.99
467.05	277.14
467.42	276.27
467.78	275.36
468.15	274.50
468.52	273.86
468.88	273.01
469.25	272.27
469.62	271.64
469.98	270.97
470.35	270.32
470.72	269.74
471.08	269.12
471.45	268.57
471.82	268.00
472.18	267.41
472.55	266.99
472.92	266.45
473.28	265.97
473.65	265.48
474.02	265.05
474.38	264.67
474.75	264.34
475.11	264.00
475.48	263.75
475.85	263.50
476.21	263.25
476.58	263.09
476.94	262.96
477.31	262.80
477.67	262.67
478.04	262.57
478.41	262.52
478.77	262.55
479.14	262.49
479.50	262.48
479.87	262.57
480.23	262.67
480.60	262.72
480.96	262.80
481.33	263.02
481.69	263.21
482.06	263.43
482.42	263.66
482.79	263.92
483.15	264.25
483.52	264.63
483.88	265.02
484.25	265.38
484.61	265.81
484.98	266.27
485.34	266.81
485.71	267.41
486.07	268.01
486.44	268.60
486.80	269.28
487.17	270.03
487.53	270.80
487.90	271.65
488.26	272.59
488.62	273.61
488.99	274.58
489.35	275.64
489.72	276.75
490.08	277.97
490.44	279.23
490.81	280.56
491.17	281.92
491.54	283.37
491.90	284.94
492.26	286.57
492.63	288.33
492.99	290.13
493.36	292.06
493.72	294.10
494.08	296.20
494.45	298.48
494.81	300.85
495.17	303.32
495.54	305.88
495.90	308.58
496.26	311.39
496.63	314.37
496.99	317.45
497.35	320.75
497.72	324.19
498.08	327.68
498.44	331.34
498.80	335.28
499.17	339.32
499.53	343.47
499.89	347.89
500.26	352.36
500.62	357.01
500.98	361.95
501.34	367.02
501.71	372.38
502.07	377.84
502.43	383.44
502.79	389.25
503.16	395.37
503.52	401.64
503.88	408.01
504.24	414.64
504.60	421.54
504.97	428.64
505.33	435.91
505.69	443.67
506.05	451.43
506.41	459.29
506.78	467.47
507.14	476.00
507.50	484.65
507.86	493.69
508.22	502.90
508.59	512.12
508.95	521.69
509.31	531.48
509.67	541.63
510.03	552.01
510.39	562.59
510.75	573.38
511.12	584.37
511.48	595.73
511.84	607.17
512.20	618.74
512.56	630.70
512.92	642.83
513.28	655.18
513.64	667.73
514.00	680.55
514.37	693.55
514.73	706.59
515.09	719.64
515.45	732.91
515.81	746.47
516.17	760.48
516.53	774.65
516.89	788.85
517.25	803.01
517.61	817.40
517.97	831.91
518.33	846.29
518.69	861.00
519.05	876.00
519.41	891.22
519.77	906.70
520.13	922.04
520.49	937.44
520.85	952.78
521.21	968.37
521.57	984.56
521.93	1000.19
522.29	1016.54
522.65	1032.81
523.01	1049.07
523.37	1065.15
523.73	1081.16
524.09	1097.24
524.45	1113.49
524.81	1129.95
525.17	1146.62
525.53	1163.31
525.89	1180.06
526.25	1196.94
526.61	1213.19
526.97	1229.84
527.33	1246.29
527.68	1262.86
528.04	1279.26
528.40	1295.87
528.76	1312.94
529.12	1329.41
529.48	1346.16
529.84	1362.06
530.20	1378.52
530.56	1395.36
530.91	1412.68
531.27	1429.47
531.63	1445.87
531.99	1462.50
532.35	1478.56
532.71	1494.48
533.07	1510.82
533.42	1526.76
533.78	1542.58
534.14	1558.82
534.50	1574.06
534.86	1589.86
535.21	1605.01
535.57	1620.79
535.93	1636.12
536.29	1650.82
536.65	1665.75
537.00	1680.56
537.36	1695.79
537.72	1710.32
538.08	1724.69
538.44	1738.42
538.79	1752.15
539.15	1765.67
539.51	1779.33
539.87	1793.59
540.22	1807.11
540.58	1820.57
540.94	1833.71
541.29	1846.55
541.65	1859.23
542.01	1872.44
542.37	1884.77
542.72	1897.16
543.08	1908.96
543.44	1921.30
543.79	1932.57
544.15	1943.42
544.51	1954.97
544.87	1965.86
545.22	1976.73
545.58	1986.93
545.94	1996.62
546.29	2006.57
546.65	2016.41
547.01	2025.52
547.36	2034.11
547.72	2042.62
548.07	2050.58
548.43	2058.92
548.79	2066.72
549.14	2074.16
549.50	2081.32
549.86	2088.85
550.21	2096.13
550.57	2103.41
550.92	2109.98
551.28	2116.99
551.64	2124.06
551.99	2130.55
552.35	2136.65
552.70	2142.73
553.06	2148.72
553.41	2155.03
553.77	2160.89
554.13	2166.83
554.48	2173.00
554.84	2178.63
555.19	2183.89
555.55	2189.15
555.90	2193.43
556.26	2198.62
556.61	2203.28
556.97	2207.78
557.32	2211.80
557.68	2216.03
558.03	2220.15
558.39	2223.81
558.74	2228.35
559.10	2232.29
559.45	2235.85
559.81	2240.07
560.16	2243.83
560.52	2246.95
560.87	2250.34
561.23	2253.06
561.58	2255.86
561.94	2258.39
562.29	2260.46
562.64	2263.16
563.00	2265.68
563.35	2269.25
563.71	2272.32
564.06	2275.58
564.42	2278.43
564.77	2281.20
565.12	2283.46
565.48	2285.44
565.83	2287.50
566.19	2288.87
566.54	2289.73
566.89	2290.99
567.25	2291.84
567.60	2293.21
567.96	2295.01
568.31	2295.88
568.66	2297.10
569.02	2297.93
569.37	2298.27
569.72	2299.43
570.08	2299.68
570.43	2299.60
570.78	2299.01
571.14	2297.56
571.49	2296.21
571.84	2295.76
572.20	2294.58
572.55	2293.52
572.90	2291.87
573.26	2290.33
573.61	2288.65
573.96	2287.04
574.31	2284.05
574.67	2281.05
575.02	2277.42
575.37	2273.98
575.72	2270.28
576.08	2266.66
576.43	2263.23
576.78	2259.64
577.13	2256.38
577.49	2253.22
577.84	2249.88
578.19	2246.15
578.54	2242.51
578.90	2238.43
579.25	2232.97
579.60	2228.09
579.95	2223.11
580.30	2218.14
580.66	2213.09
581.01	2208.09
581.36	2203.07
581.71	2199.13
582.06	2194.69
582.42	2190.34
582.77	2185.34
583.12	2180.81
583.47	2176.47
583.82	2171.76
584.17	2166.44
584.53	2161.00
584.88	2155.37
585.23	2149.76
585.58	2144.20
585.93	2138.67
586.28	2133.71
586.63	2128.79
586.98	2123.69
587.34	2118.87
587.69	2114.00
588.04	2108.92
588.39	2103.42
588.74	2097.01
589.09	2090.64
589.44	2083.91
589.79	2077.83
590.14	2071.99
590.49	2065.40
590.84	2058.80
591.19	2052.68
591.54	2046.28
591.89	2039.06
592.25	2032.47
592.60	2025.24
592.95	2017.96
593.30	2010.69
593.65	2003.25
594.00	1996.23
594.35	1989.01
594.70	1981.02
595.05	1974.03
595.40	1966.63
595.75	1959.09
596.10	1953.01
596.45	1946.43
596.80	1940.23
597.15	1933.71
597.50	1926.81
597.85	1920.34
598.19	1913.85
598.54	1906.96
598.89	1900.31
599.24	1894.38
599.59	1887.73
599.94	1881.51
600.29	1875.11
600.64	1868.51
600.99	1861.12
601.34	1854.15
601.69	1847.10
602.04	1840.42
602.39	1833.10
602.74	1826.29
603.08	1819.63
603.43	1812.83
603.78	1805.48
604.13	1798.44
604.48	1791.18
604.83	1784.34
605.18	1777.56
605.53	1769.58
605.87	1761.45
606.22	1754.34
606.57	1746.37
606.92	1738.96
607.27	1731.84
607.62	1725.04
607.96	1717.85
608.31	1711.34
608.66	1703.82
609.01	1696.31
609.36	1688.78
609.70	1680.67
610.05	1672.68
610.40	1665.08
610.75	1656.87
611.10	1649.24
611.44	1640.63
611.79	1632.56
612.14	1623.92
612.49	1614.75
612.83	1606.39
613.18	1598.21
613.53	1590.01
613.88	1581.45
614.22	1573.18
614.57	1564.57
614.92	1556.49
615.27	1549.09
615.61	1540.65
615.96	1532.59
616.31	1524.97
616.65	1517.45
617.00	1509.87
617.35	1501.99
617.70	1493.60
618.04	1485.04
618.39	1476.77
618.74	1469.26
619.08	1460.92
619.43	1453.30
619.78	1446.28
620.12	1439.19
620.47	1431.70
620.82	1423.51
621.16	1416.06
621.51	1408.41
621.85	1400.72
622.20	1392.27
622.55	1383.65
622.89	1375.80
623.24	1368.21
623.59	1360.83
623.93	1353.37
624.28	1346.14
624.62	1338.89
624.97	1331.56
625.32	1324.78
625.66	1317.71
626.01	1310.52
626.35	1303.24
626.70	1295.48
627.04	1287.77
627.39	1279.95
627.73	1272.52
628.08	1265.66
628.43	1258.47
628.77	1251.12
629.12	1243.58
629.46	1236.31
629.81	1228.95
630.15	1221.82
630.50	1214.48
630.84	1206.34
631.19	1198.41
631.53	1190.86
631.88	1183.20
632.22	1175.68
632.57	1168.31
632.91	1160.87
633.26	1153.54
633.60	1146.00
633.95	1138.85
634.29	1131.79
634.64	1125.05
634.98	1117.70
635.32	1110.57
635.67	1103.82
636.01	1097.15
636.36	1090.33
636.70	1083.84
637.05	1077.26
637.39	1070.74
637.73	1064.16
638.08	1058.23
638.42	1052.16
638.77	1045.76
639.11	1039.18
639.45	1032.83
639.80	1026.23
640.14	1019.82
640.49	1013.23
640.83	1007.02
641.17	1000.81
641.52	994.42
641.86	987.84
642.20	981.99
642.55	975.54
642.89	969.15
643.23	962.50
643.58	956.73
643.92	950.57
644.26	944.64
644.61	938.53
644.95	932.54
645.29	925.99
645.64	919.35
645.98	912.99
646.32	907.01
646.66	900.95
647.01	895.15
647.35	889.45
647.69	883.53
648.04	877.90
648.38	872.07
648.72	866.22
649.06	860.21
649.41	854.26
649.75	848.43
650.09	842.46
650.43	836.80
650.78	830.56
651.12	824.55
651.46	818.69
651.80	813.03
652.14	807.57
652.49	802.18
652.83	797.00
653.17	791.34
653.51	785.71
653.85	780.25
654.20	774.62
654.54	768.51
654.88	762.80
655.22	756.94
655.56	751.26
655.90	745.72
656.25	740.54
656.59	735.23
656.93	729.99
657.27	724.82
657.61	719.30
657.95	714.31
658.29	709.18
658.64	703.99
658.98	698.60
659.32	693.13
659.66	687.96
660.00	682.60
660.34	677.63
660.68	672.68
661.02	667.69
661.36	662.99
661.70	658.57
662.05	654.18
662.39	649.84
662.73	645.40
663.07	641.09
663.41	636.63
663.75	632.18
664.09	627.73
664.43	623.33
664.77	619.28
665.11	614.97
665.45	610.86
665.79	606.74
666.13	602.67
666.47	598.53
666.81	594.38
667.15	590.27
667.49	586.42
667.83	582.55
668.17	578.70
668.51	574.66
668.85	570.59
669.19	566.72
669.53	562.92
669.87	559.06
670.21	555.33
670.55	551.73
670.89	548.24
671.23	544.78
671.57	541.26
671.91	537.75
672.25	534.27
672.58	530.80
672.92	527.39
673.26	524.19
673.60	521.09
673.94	518.02
674.28	515.09
674.62	512.14
674.96	509.04
675.30	506.08
675.64	503.15
675.97	500.39
676.31	497.56
676.65	494.61
676.99	491.86
677.33	488.97
677.67	486.07
678.01	483.09
678.34	480.13
678.68	477.23
679.02	474.43
679.36	471.65
679.70	468.88
680.04	466.08
680.37	463.24
680.71	460.48
681.05	457.81
681.39	455.10
681.73	452.38
682.06	449.89
682.40	447.35
682.74	444.79
683.08	442.25
683.42	439.60
683.75	437.14
684.09	434.59
684.43	432.14
684.77	429.73
685.10	427.38
685.44	425.08
685.78	422.77
686.12	420.50
686.45	418.26
686.79	416.02
687.13	413.89
687.46	411.71
687.80	409.50
688.14	407.24
688.48	405.19
688.81	402.99
689.15	400.83
689.49	398.64
689.82	396.54
690.16	394.41
690.50	392.48
690.83	390.50
691.17	388.51
691.51	386.60
691.84	384.77
692.18	382.83
692.52	380.86
692.85	378.92
693.19	377.01
693.52	375.11
693.86	373.21
694.20	371.37
694.53	369.55
694.87	367.68
695.21	365.88
695.54	364.02
695.88	362.25
696.21	360.51
696.55	358.82
696.88	357.12
697.22	355.43
697.56	353.77
697.89	352.12
698.23	350.47
698.56	348.84
698.90	347.20
699.23	345.56
699.57	344.00
699.90	342.47
700.24	340.92
700.58	339.44
700.91	337.99
701.25	336.47
701.58	335.09
701.92	333.75
702.25	332.37
702.59	331.03
702.92	329.71
703.26	328.42
703.59	327.16
703.93	325.98
704.26	324.73
704.60	323.49
704.93	322.18
705.26	320.97
705.60	319.77
705.93	318.59
706.27	317.54
706.60	316.46
706.94	315.39
707.27	314.26
707.61	313.18
707.94	312.12
708.27	311.09
708.61	310.05
708.94	309.03
709.28	308.07
709.61	307.10
709.94	306.14
710.28	305.14
710.61	304.15
710.95	303.07
711.28	302.19
711.61	301.24
711.95	300.37
712.28	299.41
712.61	298.47
712.95	297.55
713.28	296.65
713.61	295.78
713.95	294.93
714.28	294.08
714.61	293.24
714.95	292.46
715.28	291.64
715.61	290.79
715.95	289.95
716.28	289.12
716.61	288.31
716.95	287.50
717.28	286.74
717.61	286.02
717.94	285.36
718.28	284.55
718.61	283.82
718.94	283.12
719.27	282.47
719.61	281.81
719.94	281.16
720.27	280.44
720.60	279.78
720.94	279.16
721.27	278.61
721.60	278.06
721.93	277.42
722.27	276.87
722.60	276.32
722.93	275.74
723.26	275.20
723.59	274.62
723.93	274.09
724.26	273.55
724.59	272.94
724.92	272.39
725.25	271.87
725.59	271.38
725.92	270.91
726.25	270.37
726.58	269.83
726.91	269.33
727.24	268.87
727.57	268.41
727.91	267.85
728.24	267.33
728.57	266.78
728.90	266.33
729.23	265.83
729.56	265.38
729.89	264.91
730.22	264.41
730.55	263.96
730.89	263.51
731.22	263.07
731.55	262.61
731.88	262.14
732.21	261.74
732.54	261.28
732.87	260.79
733.20	260.40
733.53	260.04
733.86	259.67
734.19	259.28
734.52	258.91
734.85	258.56
735.18	258.17
735.51	257.81
735.84	257.40
736.17	257.02
736.50	256.65
736.83	256.40
737.16	256.08
737.49	255.72
737.82	255.35
738.15	254.97
738.48	254.66
738.81	254.35
739.14	254.00
739.47	253.68
739.80	253.39
740.13	253.08
740.46	252.77
740.79	252.43
741.12	252.11
741.45	251.77
741.78	251.45
742.11	251.18
742.44	250.86
742.77	250.60
743.10	250.28
743.43	249.95
743.75	249.57
744.08	249.40
744.41	249.13
744.74	248.85
745.07	248.57
745.40	248.35
745.73	248.14
746.06	247.87
746.39	247.63
746.71	247.36
747.04	247.11
747.37	246.85
747.70	246.63
748.03	246.39
748.36	246.17
748.68	245.93
749.01	245.65
749.34	245.45
749.67	245.24
750.00	245.06
750.33	244.89
750.65	244.68
750.98	244.34
751.31	244.11
751.64	243.93
751.97	243.82
752.29	243.60
752.62	243.34
752.95	243.17
753.28	242.95
753.60	242.73
753.93	242.55
754.26	242.39
754.59	242.16
754.91	241.98
755.24	241.80
755.57	241.60
755.90	241.46
756.22	241.25
756.55	241.06
756.88	240.88
757.20	240.69
757.53	240.53
757.86	240.39
758.19	240.26
758.51	240.11
758.84	239.86
759.17	239.67
759.49	239.51
759.82	239.35
760.15	239.21
760.47	239.08
760.80	238.90
761.13	238.76
761.45	238.62
761.78	238.45
762.11	238.31
762.43	238.20
762.76	238.08
763.08	237.97
763.41	237.80
763.74	237.65
764.06	237.48
764.39	237.33
764.71	237.17
765.04	237.01
765.37	236.83
765.69	236.75
766.02	236.62
766.34	236.50
766.67	236.35
767.00	236.25
767.32	236.19
767.65	236.10
767.97	235.94
768.30	235.85
768.62	235.71
768.95	235.55
769.27	235.44
769.60	235.29
769.92	235.11
770.25	234.98
770.57	234.89
770.90	234.80
771.22	234.67
771.55	234.59
771.87	234.52
772.20	234.41
772.52	234.36
772.85	234.40
773.17	234.29
773.50	234.20
773.82	234.06
774.15	233.88
774.47	233.73
774.80	233.63
775.12	233.48
775.45	233.42
775.77	233.33
776.09	233.22
776.42	233.14
776.74	233.13
777.07	233.07
777.39	232.99
777.72	232.88
778.04	232.81
778.36	232.70
778.69	232.60
779.01	232.56
779.33	232.42
779.66	232.20
779.98	232.14
780.31	232.06
780.63	232.04
780.95	232.04
781.28	232.01
781.60	231.93
781.92	231.91
782.25	231.86
782.57	231.82
782.89	231.73
783.22	231.65
783.54	231.57
783.86	231.50
784.19	231.40
784.51	231.37
784.83	231.31
785.16	231.26
785.48	231.22
785.80	231.18
786.12	231.14
786.45	231.12
786.77	231.05
787.09	231.02
787.42	230.96
787.74	230.90
788.06	230.84
788.38	230.81
788.71	230.75
789.03	230.71
789.35	230.65
789.67	230.62
789.99	230.59
790.32	230.55
790.64	230.53
790.96	230.59
791.28	230.51
791.61	230.49
791.93	230.45
792.25	230.41
792.57	230.43
792.89	230.35
793.21	230.32
793.54	230.29
793.86	230.22
794.18	230.16
794.50	230.10
794.82	230.08
795.14	230.08
795.47	230.03
795.79	230.00
796.11	229.97
796.43	229.96
796.75	229.93
797.07	229.87
797.39	229.82
797.71	229.73
798.04	229.75
798.36	229.72
798.68	229.70
799.00	229.70
799.32	229.64
799.64	229.62
799.96	229.58
800.28	229.57
800.60	229.56
800.92	229.55
801.24	229.50
801.56	229.48
801.89	229.41
802.21	229.42
802.53	229.38
802.85	229.35
803.17	229.37
803.49	229.34
803.81	229.34
804.13	229.33
804.45	229.26
804.77	229.22
805.09	229.18
805.41	229.11
805.73	229.07
806.05	228.98
806.37	228.95
806.69	228.94
807.01	228.88
807.33	228.86
807.65	228.80
807.97	228.84
808.28	228.79
808.60	228.79
808.92	228.74
809.24	228.79
809.56	228.78
809.88	228.71
810.20	228.74
810.52	228.72
810.84	228.67
811.16	228.66
811.48	228.62
811.80	228.66
812.12	228.65
812.43	228.62
812.75	228.64
813.07	228.60
813.39	228.59
813.71	228.59
814.03	228.55
814.35	228.53
814.67	228.45
814.98	228.39
815.30	228.36
815.62	228.30
815.94	228.16
816.26	228.11
816.58	228.08
816.89	228.00
817.21	227.94
817.53	227.93
817.85	227.93
818.17	227.94
818.48	227.85
818.80	227.86
819.12	227.80
819.44	227.73
819.76	227.71
820.07	227.65
820.39	227.63
820.71	227.59
821.03	227.53
821.34	227.51
821.66	227.52
821.98	227.50
822.30	227.51
822.61	227.57
822.93	227.53
823.25	227.49
823.57	227.48
823.88	227.48
824.20	227.43
824.52	227.41
824.83	227.35
825.15	227.32
825.47	227.29
825.79	227.31
826.10	227.30
826.42	227.31
826.74	227.30
827.05	227.27
827.37	227.27
827.69	227.28
828.00	227.26
828.32	227.26
828.64	227.25
828.95	227.27
829.27	227.25
829.58	227.24
829.90	227.28
830.22	227.30
830.53	227.28
830.85	227.28
831.17	227.28
831.48	227.28
831.80	227.30
832.11	227.28
832.43	227.25
832.75	227.23
833.06	227.26
833.38	227.23
833.69	227.22
834.01	227.22
834.32	227.19
834.64	227.17
834.96	227.18
835.27	227.16
835.59	227.13
835.90	227.09
836.22	227.11
836.53	227.09
836.85	227.09
837.16	227.17
837.48	227.17
837.79	227.19
838.11	227.17
838.42	227.18
838.74	227.21
839.05	227.19
839.37	227.19
839.68	227.14
840.00	227.14
840.31	227.14
840.63	227.16
840.94	227.15
841.26	227.17
841.57	227.18
841.88	227.21
842.20	227.18
842.51	227.19
842.83	227.18
843.14	227.27
843.46	227.27
843.77	227.21
844.08	227.18
844.40	227.17
844.71	227.21
845.03	227.16
845.34	227.15
845.65	227.17
845.97	227.21
846.28	227.20
846.60	227.23
846.91	227.25
847.22	227.21
847.54	227.25
847.85	227.25
848.16	227.23
848.48	227.18
848.79	227.23
849.10	227.25
849.42	227.28
849.73	227.16
850.04	227.12
850.36	227.09
850.67	227.12
850.98	227.12
851.30	227.10
851.61	227.10
851.92	227.08
852.23	227.08
852.55	227.05
852.86	227.05
853.17	227.03
853.49	227.02
853.80	227.04
854.11	227.03
854.42	227.03
854.74	227.01
855.05	227.03
855.36	226.97
855.67	226.97
855.99	226.92
856.30	227.03
856.61	227.05
856.92	227.05
857.23	227.04
857.55	227.02
857.86	227.00
858.17	227.03
858.48	227.01
858.79	227.03
859.11	227.06
859.42	227.04
859.73	227.04
860.04	227.05
860.35	227.04
860.66	227.03
860.98	227.03
861.29	227.04
861.60	226.99
861.91	226.99
862.22	226.99
862.53	226.96
862.84	226.85
863.16	226.87
863.47	226.86
863.78	226.84
864.09	226.85
864.40	226.86
864.71	226.86
865.02	226.88
865.33	226.84
865.64	226.82
865.95	226.85
866.27	226.89
866.58	226.86
866.89	226.85
867.20	226.81
867.51	226.80
867.82	226.78
868.13	226.85
868.44	226.86
868.75	226.89
869.06	226.89
869.37	226.91
869.68	226.83
869.99	226.85
870.30	226.88
870.61	226.87
870.92	226.87
871.23	226.87
871.54	226.87
871.85	226.90
872.16	226.92
872.47	226.90
872.78	226.85
873.09	226.87
873.40	226.87
873.71	226.90
874.02	226.88
874.33	226.91
874.64	226.86
874.95	226.86
875.26	226.82
875.56	226.82
875.87	226.79
876.18	226.80
876.49	226.89
876.80	226.88
877.11	226.86
877.42	226.87
877.73	226.88
878.04	226.85
878.35	226.86
878.66	226.84
878.96	226.84
879.27	226.86
879.58	226.85
879.89	226.86
880.20	226.89
880.51	226.89
880.82	226.86
881.12	226.86
881.43	226.86
881.74	226.81
882.05	226.83
882.36	226.88
882.67	226.91
882.97	226.83
883.28	226.81
883.59	226.83
883.90	226.82
884.21	226.80
884.51	226.79
884.82	226.76
885.13	226.76
885.44	226.77
885.74	226.75
886.05	226.76
886.36	226.73
886.67	226.73
886.98	226.78
887.28	226.79
887.59	226.78
887.90	226.81
888.20	226.80
888.51	226.79
888.82	226.75
889.13	226.72
889.43	226.76
889.74	226.74
890.05	226.74
890.35	226.71
890.66	226.70
890.97	226.70
891.28	226.67
891.58	226.65
891.89	226.64
892.20	226.62
892.50	226.61
892.81	226.60
893.12	226.53
893.42	226.45
893.73	226.45
894.04	226.48
894.34	226.45
894.65	226.48
894.95	226.47
895.26	226.46
895.57	226.53
895.87	226.43
896.18	226.46
896.48	226.44
896.79	226.47
897.10	226.50
897.40	226.54
897.71	226.54
898.01	226.52
898.32	226.52
898.63	226.52
898.93	226.55
899.24	226.54
899.54	226.57
899.85	226.60
900.15	226.59
900.46	226.58
900.76	226.61
901.07	226.59
901.38	226.59
901.68	226.62
901.99	226.58
902.29	226.61
902.60	226.60
902.90	226.61
903.21	226.60
903.51	226.57
903.82	226.57
904.12	226.58
904.43	226.62
904.73	226.61
905.03	226.61
905.34	226.67
905.64	226.67
905.95	226.69
906.25	226.67
906.56	226.68
906.86	226.66
907.17	226.62
907.47	226.63
907.77	226.64
908.08	226.59
908.38	226.57
908.69	226.56
908.99	226.56
909.30	226.55
909.60	226.53
909.90	226.53
910.21	226.49
910.51	226.47
910.81	226.47
911.12	226.46
911.42	226.45
911.73	226.34
912.03	226.34
912.33	226.33
912.64	226.32
912.94	226.30
913.24	226.27
913.55	226.26
913.85	226.25
914.15	226.25
914.46	226.28
914.76	226.28
915.06	226.26
915.37	226.23
915.67	226.22
915.97	226.24
916.27	226.21
916.58	226.20
916.88	226.20
917.18	226.17
917.49	226.24
917.79	226.25
918.09	226.26
918.39	226.33
918.70	226.34
919.00	226.34
919.30	226.39
919.60	226.38
919.91	226.40
920.21	226.39
920.51	226.34
920.81	226.33
921.12	226.35
921.42	226.36
921.72	226.38
922.02	226.35
922.32	226.32
922.63	226.34
922.93	226.39
923.23	226.41
923.53	226.38
923.83	226.32
924.13	226.33
924.44	226.34
924.74	226.29
925.04	226.32
925.34	226.31
925.64	226.26
925.94	226.26
926.24	226.30
926.55	226.28
926.85	226.30
927.15	226.30
927.45	226.30
927.75	226.29
928.05	226.31
928.35	226.33
928.65	226.35
928.95	226.37
929.26	226.32
929.56	226.31
929.86	226.34
930.16	226.31
930.46	226.27
930.76	226.27
931.06	226.25
931.36	226.22
931.66	226.23
931.96	226.24
932.26	226.25
932.56	226.21
932.86	226.27
933.16	226.26
933.46	226.25
933.76	226.23
934.06	226.26
934.36	226.29
934.66	226.26
934.96	226.25
935.26	226.23
935.56	226.25
935.86	226.27
936.16	226.25
936.46	226.27
936.76	226.30
937.06	226.30
937.36	226.33
937.66	226.31
937.96	226.33
938.26	226.31
938.56	226.29
938.86	226.30
939.16	226.29
939.46	226.35
939.76	226.34
940.06	226.32
940.35	226.32
940.65	226.25
940.95	226.25
941.25	226.25
941.55	226.25
941.85	226.24
942.15	226.23
942.45	226.26
942.75	226.25
943.04	226.26
943.34	226.28
943.64	226.22
943.94	226.24
944.24	226.20
944.54	226.20
944.84	226.25
945.13	226.23
945.43	226.23
945.73	226.18
946.03	226.18
946.33	226.18
946.62	226.16
946.92	226.15
947.22	226.18
947.52	226.19
947.82	226.18
948.11	226.18
948.41	226.18
948.71	226.16
949.01	226.16
949.31	226.12
949.60	226.09
949.90	226.14
950.20	226.11
950.50	226.12
950.79	226.12
951.09	226.09
951.39	226.07
951.69	226.03
951.98	226.02
952.28	226.03
952.58	226.02
952.87	226.04
953.17	226.06
953.47	226.08
953.76	226.06
954.06	226.05
954.36	226.04
954.66	226.03
954.95	226.08
955.25	226.09
955.55	226.09
955.84	226.10
956.14	226.10
956.44	226.11
956.73	226.08
957.03	226.09
957.32	226.14
957.62	226.15
957.92	226.18
958.21	226.20
958.51	226.29
958.81	226.33
959.10	226.32
959.40	226.35
959.69	226.33
959.99	226.34
960.29	226.36
960.58	226.35
960.88	226.37
961.17	226.33
961.47	226.33
961.76	226.36
962.06	226.37
962.36	226.37
962.65	226.40
962.95	226.41
963.24	226.42
963.54	226.41
963.83	226.42
964.13	226.41
964.42	226.36
964.72	226.33
965.01	226.33
965.31	226.31
965.60	226.28
965.90	226.34
966.19	226.33
966.49	226.33
966.78	226.32
967.08	226.32
967.37	226.31
967.67	226.33
967.96	226.34
968.26	226.35
968.55	226.33
968.85	226.32
969.14	226.36
969.43	226.36
969.73	226.35
970.02	226.34
970.32	226.38
970.61	226.40
970.91	226.34
971.20	226.31
971.49	226.31
971.79	226.33
972.08	226.24
972.38	226.23
972.67	226.21
972.96	226.23
973.26	226.22
973.55	226.27
973.85	226.26
974.14	226.22
974.43	226.20
974.73	226.21
975.02	226.18
975.31	226.16
975.61	226.17
975.90	226.17
976.19	226.15
976.49	226.13
976.78	226.15
977.07	226.14
977.37	226.13
977.66	226.12
977.95	226.13
978.24	226.14
978.54	226.19
978.83	226.20
979.12	226.19
979.42	226.16
979.71	226.15
980.00	226.13
980.29	226.15
980.59	226.13
980.88	226.15
981.17	226.17
981.46	226.16
981.76	226.17
982.05	226.16
982.34	226.15
982.63	226.16
982.93	226.15
983.22	226.18
983.51	226.18
983.80	226.22
984.09	226.21
984.39	226.20
984.68	226.17
984.97	226.16
985.26	226.16
985.55	226.16
985.85	226.12
986.14	226.12
986.43	226.12
986.72	226.12
987.01	226.07
987.30	226.06
987.59	226.04
987.89	226.02
988.18	226.01
988.47	226.01
988.76	225.99
989.05	225.94
989.34	225.95
989.63	225.95
989.92	225.93
990.22	225.90
990.51	225.89
990.80	225.88
991.09	225.91
991.38	225.91
991.67	225.90
991.96	225.89
992.25	225.89
992.54	225.88
992.83	225.87
993.12	225.91
993.41	225.90
993.70	225.97
993.99	225.97
994.28	225.98
994.58	225.97
994.87	225.97
995.16	226.00
995.45	225.96
995.74	225.95
996.03	225.99
996.32	225.97
996.61	226.00
996.90	226.01
997.19	225.99
997.48	225.99
997.77	225.99
998.06	226.00
998.34	226.01
998.63	226.00
998.92	226.03
999.21	226.00
999.50	226.00
999.79	225.94
1000.08	225.94
1000.37	225.91
1000.66	225.90
1000.95	225.96
1001.24	225.98
1001.53	226.01
1001.82	226.02
1002.11	226.01
1002.40	226.07
1002.68	226.10
1002.97	226.17
1003.26	226.19
1003.55	226.17
1003.84	226.19
1004.13	226.23
1004.42	226.22
1004.71	226.22
1004.99	226.24
1005.28	226.27
1005.57	226.30
1005.86	226.31
1006.15	226.32
1006.44	226.34
1006.72	226.41
1007.01	226.37
1007.30	226.35
1007.59	226.34
1007.88	226.35
1008.17	226.36
1008.45	226.33
1008.74	226.29
1009.03	226.22
1009.32	226.20
1009.60	226.21
1009.89	226.21
1010.18	226.15
1010.47	226.18
1010.76	226.17
1011.04	226.12
1011.33	226.17
1011.62	226.16
1011.91	226.18
1012.19	226.16
1012.48	226.16
1012.77	226.14
1013.05	226.19
1013.34	226.20
1013.63	226.17
1013.92	226.18
1014.20	226.19
1014.49	226.17
1014.78	226.19
1015.06	226.20
1015.35	226.19
1015.64	226.21
1015.92	226.22
1016.21	226.22
1016.50	226.19
1016.78	226.25
1017.07	226.23
1017.36	226.15
1017.64	226.14
1017.93	226.15
1018.22	226.14
1018.50	226.16
1018.79	226.14
1019.08	226.06
1019.36	226.05
1019.65	226.03
1019.93	226.03
1020.22	226.03
1020.51	226.06
1020.79	226.03
1021.08	225.91
1021.36	226.31
1021.65	225.98
1021.94	225.70
1022.22	225.83
1022.51	225.45
1022.79	226.57
1023.08	226.33
1023.36	226.72
1023.65	225.69
>>>>>End Processed Spectral Data<<<<<
