SpectraSuite Data File
++++++++++++++++++++++++++++++++++++
Date: Fri Feb 01 17:21:12 EST 2013
User: group
Dark Spectrum Present: No
Reference Spectrum Present: No
Number of Sampled Component Spectra: 1
Spectrometers: USB2E7196
Integration Time (usec): 35000 (USB2E7196)
Spectra Averaged: 100 (USB2E7196)
Boxcar Smoothing: 10 (USB2E7196)
Correct for Electrical Dark: No (USB2E7196)
Strobe/Lamp Enabled: No (USB2E7196)
Correct for Detector Non-linearity: No (USB2E7196)
Correct for Stray Light: No (USB2E7196)
Number of Pixels in Processed Spectrum: 2048
>>>>>Begin Processed Spectral Data<<<<<
339.09	0.00
339.48	212.34
339.86	214.33
340.24	215.95
340.63	216.57
341.01	219.66
341.39	219.34
341.78	221.11
342.16	222.29
342.54	222.82
342.93	211.23
343.31	221.89
343.69	222.45
344.07	222.90
344.46	223.30
344.84	223.67
345.22	223.91
345.60	224.16
345.99	224.33
346.37	224.42
346.75	224.51
347.13	224.60
347.52	224.69
347.90	224.76
348.28	224.76
348.66	224.81
349.05	224.76
349.43	224.78
349.81	224.84
350.19	224.88
350.57	224.92
350.96	224.99
351.34	225.08
351.72	225.19
352.10	225.28
352.48	225.36
352.87	225.46
353.25	225.54
353.63	225.60
354.01	225.67
354.39	225.78
354.77	225.83
355.15	225.92
355.54	225.94
355.92	225.99
356.30	226.09
356.68	226.19
357.06	226.28
357.44	226.33
357.82	226.39
358.20	226.45
358.58	226.51
358.97	226.58
359.35	226.68
359.73	226.71
360.11	226.79
360.49	226.85
360.87	226.88
361.25	226.95
361.63	227.04
362.01	227.10
362.39	227.10
362.77	227.19
363.15	227.20
363.53	227.23
363.91	227.26
364.29	227.28
364.67	227.23
365.05	227.25
365.43	227.25
365.81	227.29
366.19	227.35
366.57	227.38
366.95	227.39
367.33	227.35
367.71	227.38
368.09	227.37
368.47	227.37
368.85	227.37
369.23	227.37
369.61	227.31
369.99	227.32
370.37	227.34
370.75	227.33
371.13	227.30
371.51	227.28
371.89	227.25
372.27	227.22
372.65	227.19
373.03	227.14
373.41	227.12
373.78	227.03
374.16	226.92
374.54	226.85
374.92	226.74
375.30	226.69
375.68	226.59
376.06	226.53
376.44	226.47
376.82	226.42
377.19	226.32
377.57	226.24
377.95	226.18
378.33	226.11
378.71	226.00
379.09	225.96
379.47	225.91
379.84	225.85
380.22	225.79
380.60	225.70
380.98	225.64
381.36	225.57
381.73	225.51
382.11	225.47
382.49	225.44
382.87	225.40
383.25	225.36
383.62	225.41
384.00	225.34
384.38	225.31
384.76	225.25
385.13	225.25
385.51	225.23
385.89	225.14
386.27	225.08
386.64	225.04
387.02	224.98
387.40	224.97
387.78	224.93
388.15	224.88
388.53	224.89
388.91	224.86
389.29	224.79
389.66	224.77
390.04	224.73
390.42	224.73
390.79	224.70
391.17	224.66
391.55	224.54
391.92	224.54
392.30	224.49
392.68	224.45
393.05	224.41
393.43	224.38
393.81	224.40
394.18	224.40
394.56	224.42
394.94	224.46
395.31	224.46
395.69	224.49
396.06	224.51
396.44	224.48
396.82	224.50
397.19	224.61
397.57	224.66
397.95	224.72
398.32	224.69
398.70	224.78
399.07	224.87
399.45	224.92
399.82	224.98
400.20	225.05
400.58	225.12
400.95	225.15
401.33	225.26
401.70	225.39
402.08	225.46
402.45	225.53
402.83	225.60
403.20	225.66
403.58	225.75
403.95	225.87
404.33	226.00
404.71	226.11
405.08	226.26
405.46	226.40
405.83	226.54
406.21	226.67
406.58	226.82
406.96	226.94
407.33	227.13
407.70	227.29
408.08	227.54
408.45	227.78
408.83	228.01
409.20	228.22
409.58	228.40
409.95	228.65
410.33	228.91
410.70	229.14
411.08	229.41
411.45	229.72
411.82	230.00
412.20	230.36
412.57	230.80
412.95	231.10
413.32	231.50
413.69	231.93
414.07	232.41
414.44	232.90
414.82	233.38
415.19	233.93
415.56	234.48
415.94	235.05
416.31	235.69
416.68	236.36
417.06	237.08
417.43	237.81
417.81	238.61
418.18	239.45
418.55	240.33
418.93	241.27
419.30	242.22
419.67	243.18
420.04	244.19
420.42	245.23
420.79	246.47
421.16	247.67
421.54	248.91
421.91	250.16
422.28	251.45
422.66	252.84
423.03	254.21
423.40	255.63
423.77	257.06
424.15	258.57
424.52	260.10
424.89	261.77
425.26	263.37
425.64	264.88
426.01	266.54
426.38	268.24
426.75	269.98
427.13	271.76
427.50	273.63
427.87	275.57
428.24	277.45
428.61	279.21
428.99	281.20
429.36	283.36
429.73	285.47
430.10	287.56
430.47	289.71
430.85	291.87
431.22	294.17
431.59	296.70
431.96	298.97
432.33	301.56
432.70	304.02
433.08	306.91
433.45	309.65
433.82	312.35
434.19	315.36
434.56	318.28
434.93	321.02
435.30	323.74
435.68	326.78
436.05	329.72
436.42	332.63
436.79	335.29
437.16	338.06
437.53	341.00
437.90	343.92
438.27	346.75
438.64	349.70
439.01	352.35
439.38	354.63
439.75	356.93
440.13	359.47
440.50	361.89
440.87	363.81
441.24	365.83
441.61	368.08
441.98	369.61
442.35	371.47
442.72	373.43
443.09	375.35
443.46	376.32
443.83	376.98
444.20	377.57
444.57	378.40
444.94	378.75
445.31	379.17
445.68	379.54
446.05	379.62
446.42	379.26
446.79	378.88
447.16	378.44
447.53	378.11
447.90	376.98
448.27	375.82
448.64	374.16
449.01	373.02
449.37	371.00
449.74	369.07
450.11	366.82
450.48	364.26
450.85	361.66
451.22	359.46
451.59	357.37
451.96	355.34
452.33	352.65
452.70	350.23
453.07	347.24
453.43	344.26
453.80	341.40
454.17	338.62
454.54	335.99
454.91	333.20
455.28	330.43
455.65	327.84
456.02	325.29
456.38	323.11
456.75	320.34
457.12	317.99
457.49	315.66
457.86	313.40
458.23	311.49
458.59	309.37
458.96	307.21
459.33	305.23
459.70	303.28
460.07	301.70
460.43	299.93
460.80	298.28
461.17	296.81
461.54	295.28
461.91	293.83
462.27	292.34
462.64	291.03
463.01	289.65
463.38	288.28
463.74	286.86
464.11	285.67
464.48	284.60
464.85	283.46
465.21	282.56
465.58	281.56
465.95	280.41
466.32	279.45
466.68	278.55
467.05	277.64
467.42	276.72
467.78	275.80
468.15	274.85
468.52	274.14
468.88	273.22
469.25	272.42
469.62	271.77
469.98	271.07
470.35	270.42
470.72	269.79
471.08	269.16
471.45	268.63
471.82	268.04
472.18	267.41
472.55	266.96
472.92	266.45
473.28	266.01
473.65	265.57
474.02	265.19
474.38	264.80
474.75	264.47
475.11	264.15
475.48	263.86
475.85	263.65
476.21	263.46
476.58	263.23
476.94	263.09
477.31	262.88
477.67	262.76
478.04	262.62
478.41	262.56
478.77	262.60
479.14	262.55
479.50	262.58
479.87	262.67
480.23	262.72
480.60	262.78
480.96	262.84
481.33	263.02
481.69	263.18
482.06	263.37
482.42	263.56
482.79	263.81
483.15	264.12
483.52	264.49
483.88	264.84
484.25	265.31
484.61	265.75
484.98	266.21
485.34	266.78
485.71	267.39
486.07	268.02
486.44	268.55
486.80	269.24
487.17	269.99
487.53	270.81
487.90	271.67
488.26	272.58
488.62	273.56
488.99	274.57
489.35	275.58
489.72	276.70
490.08	277.91
490.44	279.17
490.81	280.49
491.17	281.86
491.54	283.31
491.90	284.79
492.26	286.41
492.63	288.12
492.99	289.88
493.36	291.77
493.72	293.75
494.08	295.84
494.45	298.07
494.81	300.36
495.17	302.74
495.54	305.29
495.90	307.99
496.26	310.79
496.63	313.68
496.99	316.78
497.35	319.99
497.72	323.39
498.08	326.83
498.44	330.47
498.80	334.34
499.17	338.35
499.53	342.51
499.89	346.82
500.26	351.32
500.62	355.94
500.98	360.88
501.34	365.90
501.71	371.17
502.07	376.60
502.43	382.14
502.79	387.91
503.16	393.91
503.52	400.13
503.88	406.48
504.24	412.98
504.60	419.81
504.97	426.87
505.33	434.10
505.69	441.73
506.05	449.40
506.41	457.20
506.78	465.22
507.14	473.54
507.50	482.12
507.86	490.99
508.22	500.01
508.59	509.02
508.95	518.46
509.31	528.17
509.67	538.09
510.03	548.27
510.39	558.67
510.75	569.24
511.12	579.96
511.48	591.07
511.84	602.35
512.20	613.59
512.56	625.29
512.92	637.19
513.28	649.28
513.64	661.55
514.00	674.04
514.37	686.74
514.73	699.55
515.09	712.34
515.45	725.46
515.81	738.79
516.17	752.49
516.53	766.32
516.89	780.16
517.25	793.99
517.61	808.11
517.97	822.25
518.33	836.39
518.69	850.83
519.05	865.47
519.41	880.31
519.77	895.54
520.13	910.57
520.49	925.68
520.85	940.67
521.21	955.98
521.57	971.81
521.93	987.17
522.29	1003.15
522.65	1018.99
523.01	1034.66
523.37	1050.30
523.73	1066.11
524.09	1081.84
524.45	1097.62
524.81	1113.91
525.17	1130.18
525.53	1146.68
525.89	1163.20
526.25	1179.72
526.61	1195.69
526.97	1212.08
527.33	1228.28
527.68	1244.46
528.04	1260.48
528.40	1276.67
528.76	1293.33
529.12	1309.56
529.48	1326.03
529.84	1341.75
530.20	1357.99
530.56	1374.51
530.91	1391.58
531.27	1407.93
531.63	1424.01
531.99	1440.45
532.35	1456.01
532.71	1471.71
533.07	1487.54
533.42	1503.12
533.78	1518.82
534.14	1534.74
534.50	1549.79
534.86	1565.22
535.21	1580.21
535.57	1595.97
535.93	1611.21
536.29	1625.81
536.65	1640.48
537.00	1655.08
537.36	1670.05
537.72	1684.38
538.08	1698.78
538.44	1712.36
538.79	1726.12
539.15	1739.45
539.51	1753.00
539.87	1767.23
540.22	1780.66
540.58	1794.32
540.94	1807.17
541.29	1819.63
541.65	1832.21
542.01	1845.26
542.37	1857.56
542.72	1869.91
543.08	1881.51
543.44	1893.86
543.79	1905.18
544.15	1916.29
544.51	1927.75
544.87	1938.65
545.22	1949.60
545.58	1959.83
545.94	1969.67
546.29	1979.51
546.65	1989.65
547.01	1998.98
547.36	2007.75
547.72	2016.46
548.07	2024.58
548.43	2033.19
548.79	2041.51
549.14	2049.31
549.50	2056.78
549.86	2064.51
550.21	2072.01
550.57	2079.45
550.92	2086.34
551.28	2093.38
551.64	2100.47
551.99	2107.16
552.35	2113.61
552.70	2119.86
553.06	2126.21
553.41	2132.76
553.77	2138.91
554.13	2145.11
554.48	2151.34
554.84	2157.29
555.19	2162.61
555.55	2167.90
555.90	2172.65
556.26	2177.86
556.61	2182.73
556.97	2187.44
557.32	2191.93
557.68	2196.39
558.03	2200.85
558.39	2204.73
558.74	2209.62
559.10	2213.89
559.45	2217.90
559.81	2222.33
560.16	2226.41
560.52	2229.79
560.87	2233.49
561.23	2236.61
561.58	2239.79
561.94	2242.65
562.29	2244.99
562.64	2248.25
563.00	2251.02
563.35	2254.66
563.71	2258.08
564.06	2261.43
564.42	2264.72
564.77	2267.66
565.12	2270.43
565.48	2272.77
565.83	2275.10
566.19	2276.99
566.54	2278.15
566.89	2279.71
567.25	2280.96
567.60	2282.62
567.96	2284.70
568.31	2285.90
568.66	2287.42
569.02	2288.30
569.37	2289.07
569.72	2290.44
570.08	2290.95
570.43	2291.60
570.78	2291.65
571.14	2290.42
571.49	2289.47
571.84	2289.28
572.20	2288.61
572.55	2287.76
572.90	2286.41
573.26	2285.38
573.61	2283.77
573.96	2282.60
574.31	2279.99
574.67	2277.26
575.02	2273.89
575.37	2270.90
575.72	2267.54
576.08	2264.39
576.43	2261.42
576.78	2258.23
577.13	2255.18
577.49	2252.24
577.84	2249.04
578.19	2245.43
578.54	2242.33
578.90	2238.70
579.25	2233.50
579.60	2228.75
579.95	2224.12
580.30	2219.40
580.66	2214.42
581.01	2209.85
581.36	2205.10
581.71	2201.35
582.06	2197.50
582.42	2193.55
582.77	2188.61
583.12	2184.27
583.47	2180.10
583.82	2175.57
584.17	2170.57
584.53	2165.49
584.88	2160.21
585.23	2154.72
585.58	2149.50
585.93	2144.18
586.28	2139.40
586.63	2134.61
586.98	2129.74
587.34	2125.15
587.69	2120.56
588.04	2115.76
588.39	2110.32
588.74	2103.93
589.09	2097.96
589.44	2091.27
589.79	2085.20
590.14	2079.50
590.49	2073.13
590.84	2066.73
591.19	2060.70
591.54	2054.34
591.89	2047.32
592.25	2040.91
592.60	2033.89
592.95	2026.66
593.30	2019.54
593.65	2011.99
594.00	2005.13
594.35	1998.04
594.70	1990.09
595.05	1983.19
595.40	1975.96
595.75	1968.58
596.10	1962.71
596.45	1956.11
596.80	1949.96
597.15	1943.65
597.50	1937.00
597.85	1930.55
598.19	1924.04
598.54	1917.33
598.89	1910.80
599.24	1904.97
599.59	1898.47
599.94	1892.32
600.29	1886.07
600.64	1879.47
600.99	1872.44
601.34	1865.72
601.69	1858.77
602.04	1852.16
602.39	1844.73
602.74	1838.04
603.08	1831.49
603.43	1824.69
603.78	1817.40
604.13	1810.21
604.48	1803.00
604.83	1796.12
605.18	1789.51
605.53	1781.62
605.87	1773.55
606.22	1766.34
606.57	1758.27
606.92	1750.62
607.27	1743.44
607.62	1736.56
607.96	1729.45
608.31	1722.99
608.66	1715.46
609.01	1707.99
609.36	1700.37
609.70	1692.44
610.05	1684.23
610.40	1676.45
610.75	1668.21
611.10	1660.47
611.44	1652.07
611.79	1643.92
612.14	1635.18
612.49	1625.78
612.83	1617.25
613.18	1608.96
613.53	1600.72
613.88	1592.18
614.22	1583.96
614.57	1575.17
614.92	1567.03
615.27	1559.48
615.61	1551.03
615.96	1542.86
616.31	1535.05
616.65	1527.59
617.00	1519.84
617.35	1512.05
617.70	1503.77
618.04	1495.17
618.39	1486.77
618.74	1479.13
619.08	1470.81
619.43	1463.11
619.78	1456.04
620.12	1448.89
620.47	1441.30
620.82	1433.10
621.16	1425.48
621.51	1417.64
621.85	1410.03
622.20	1401.43
622.55	1392.87
622.89	1384.85
623.24	1377.08
623.59	1369.50
623.93	1361.95
624.28	1354.65
624.62	1347.23
624.97	1339.85
625.32	1332.89
625.66	1325.81
626.01	1318.65
626.35	1311.29
626.70	1303.46
627.04	1295.65
627.39	1287.77
627.73	1280.31
628.08	1273.33
628.43	1266.15
628.77	1258.84
629.12	1251.21
629.46	1243.90
629.81	1236.26
630.15	1228.99
630.50	1221.52
630.84	1213.29
631.19	1205.11
631.53	1197.44
631.88	1189.61
632.22	1181.93
632.57	1174.60
632.91	1167.04
633.26	1159.41
633.60	1151.78
633.95	1144.52
634.29	1137.46
634.64	1130.61
634.98	1123.14
635.32	1115.96
635.67	1109.11
636.01	1102.39
636.36	1095.58
636.70	1089.06
637.05	1082.49
637.39	1075.85
637.73	1069.25
638.08	1063.36
638.42	1057.38
638.77	1050.99
639.11	1044.50
639.45	1038.03
639.80	1031.30
640.14	1024.90
640.49	1018.35
640.83	1012.04
641.17	1005.77
641.52	999.35
641.86	992.86
642.20	987.00
642.55	980.54
642.89	974.10
643.23	967.37
643.58	961.52
643.92	955.21
644.26	949.27
644.61	943.19
644.95	937.21
645.29	930.70
645.64	923.96
645.98	917.51
646.32	911.43
646.66	905.44
647.01	899.64
647.35	893.76
647.69	887.80
648.04	882.20
648.38	876.43
648.72	870.52
649.06	864.54
649.41	858.60
649.75	852.68
650.09	846.71
650.43	840.93
650.78	834.73
651.12	828.79
651.46	822.90
651.80	817.22
652.14	811.79
652.49	806.39
652.83	801.21
653.17	795.65
653.51	790.07
653.85	784.46
654.20	778.86
654.54	772.89
654.88	767.08
655.22	761.10
655.56	755.32
655.90	749.74
656.25	744.40
656.59	739.09
656.93	733.92
657.27	728.77
657.61	723.40
657.95	718.25
658.29	713.09
658.64	707.83
658.98	702.41
659.32	696.88
659.66	691.59
660.00	686.27
660.34	681.23
660.68	676.23
661.02	671.25
661.36	666.52
661.70	661.99
662.05	657.65
662.39	653.33
662.73	648.84
663.07	644.46
663.41	640.00
663.75	635.51
664.09	630.96
664.43	626.53
664.77	622.40
665.11	618.22
665.45	614.01
665.79	609.89
666.13	605.84
666.47	601.70
666.81	597.48
667.15	593.31
667.49	589.31
667.83	585.47
668.17	581.48
668.51	577.37
668.85	573.33
669.19	569.39
669.53	565.57
669.87	561.76
670.21	558.01
670.55	554.28
670.89	550.80
671.23	547.32
671.57	543.75
671.91	540.17
672.25	536.59
672.58	533.10
672.92	529.62
673.26	526.33
673.60	523.13
673.94	520.02
674.28	517.06
674.62	514.14
674.96	511.00
675.30	508.15
675.64	505.23
675.97	502.33
676.31	499.49
676.65	496.58
676.99	493.85
677.33	490.97
677.67	488.20
678.01	485.15
678.34	482.16
678.68	479.25
679.02	476.41
679.36	473.59
679.70	470.86
680.04	468.13
680.37	465.26
680.71	462.46
681.05	459.82
681.39	457.09
681.73	454.38
682.06	451.87
682.40	449.28
682.74	446.72
683.08	444.15
683.42	441.54
683.75	438.98
684.09	436.35
684.43	433.87
684.77	431.34
685.10	428.95
685.44	426.57
685.78	424.23
686.12	421.90
686.45	419.59
686.79	417.29
687.13	415.06
687.46	412.89
687.80	410.72
688.14	408.41
688.48	406.31
688.81	404.07
689.15	401.89
689.49	399.69
689.82	397.54
690.16	395.41
690.50	393.42
690.83	391.42
691.17	389.41
691.51	387.46
691.84	385.59
692.18	383.64
692.52	381.74
692.85	379.80
693.19	377.98
693.52	376.12
693.86	374.25
694.20	372.46
694.53	370.66
694.87	368.78
695.21	367.00
695.54	365.14
695.88	363.38
696.21	361.62
696.55	359.89
696.88	358.18
697.22	356.51
697.56	354.84
697.89	353.18
698.23	351.56
698.56	349.93
698.90	348.38
699.23	346.73
699.57	345.10
699.90	343.57
700.24	341.96
700.58	340.46
700.91	338.98
701.25	337.49
701.58	336.09
701.92	334.69
702.25	333.34
702.59	331.96
702.92	330.63
703.26	329.33
703.59	328.06
703.93	326.84
704.26	325.65
704.60	324.37
704.93	323.08
705.26	321.82
705.60	320.59
705.93	319.39
706.27	318.39
706.60	317.30
706.94	316.20
707.27	315.08
707.61	313.93
707.94	312.87
708.27	311.74
708.61	310.63
708.94	309.62
709.28	308.61
709.61	307.67
709.94	306.70
710.28	305.69
710.61	304.68
710.95	303.66
711.28	302.71
711.61	301.70
711.95	300.82
712.28	299.86
712.61	298.89
712.95	297.91
713.28	296.97
713.61	296.11
713.95	295.21
714.28	294.36
714.61	293.51
714.95	292.64
715.28	291.80
715.61	290.91
715.95	290.03
716.28	289.19
716.61	288.28
716.95	287.42
717.28	286.62
717.61	285.85
717.94	285.06
718.28	284.19
718.61	283.47
718.94	282.76
719.27	282.12
719.61	281.43
719.94	280.76
720.27	280.01
720.60	279.29
720.94	278.60
721.27	277.92
721.60	277.32
721.93	276.71
722.27	276.11
722.60	275.55
722.93	274.97
723.26	274.38
723.59	273.83
723.93	273.27
724.26	272.67
724.59	272.05
724.92	271.49
725.25	270.96
725.59	270.40
725.92	269.87
726.25	269.27
726.58	268.76
726.91	268.22
727.24	267.72
727.57	267.22
727.91	266.70
728.24	266.21
728.57	265.71
728.90	265.19
729.23	264.66
729.56	264.21
729.89	263.69
730.22	263.15
730.55	262.66
730.89	262.22
731.22	261.78
731.55	261.36
731.88	260.94
732.21	260.54
732.54	260.07
732.87	259.60
733.20	259.23
733.53	258.84
733.86	258.45
734.19	258.07
734.52	257.68
734.85	257.38
735.18	256.98
735.51	256.60
735.84	256.26
736.17	255.96
736.50	255.55
736.83	255.34
737.16	255.00
737.49	254.68
737.82	254.26
738.15	253.94
738.48	253.59
738.81	253.25
739.14	252.91
739.47	252.63
739.80	252.32
740.13	251.99
740.46	251.65
740.79	251.34
741.12	251.01
741.45	250.70
741.78	250.35
742.11	250.09
742.44	249.79
742.77	249.48
743.10	249.16
743.43	248.84
743.75	248.46
744.08	248.30
744.41	248.03
744.74	247.79
745.07	247.52
745.40	247.26
745.73	247.04
746.06	246.78
746.39	246.52
746.71	246.27
747.04	246.04
747.37	245.80
747.70	245.58
748.03	245.36
748.36	245.13
748.68	244.92
749.01	244.67
749.34	244.45
749.67	244.21
750.00	243.99
750.33	243.86
750.65	243.66
750.98	243.36
751.31	243.15
751.64	242.97
751.97	242.79
752.29	242.59
752.62	242.32
752.95	242.12
753.28	241.89
753.60	241.66
753.93	241.44
754.26	241.28
754.59	241.05
754.91	240.83
755.24	240.65
755.57	240.47
755.90	240.27
756.22	240.07
756.55	239.88
756.88	239.66
757.20	239.40
757.53	239.17
757.86	238.99
758.19	238.84
758.51	238.66
758.84	238.45
759.17	238.26
759.49	238.11
759.82	237.97
760.15	237.80
760.47	237.66
760.80	237.48
761.13	237.31
761.45	237.11
761.78	236.94
762.11	236.80
762.43	236.61
762.76	236.45
763.08	236.31
763.41	236.18
763.74	236.00
764.06	235.83
764.39	235.72
764.71	235.53
765.04	235.32
765.37	235.15
765.69	235.01
766.02	234.85
766.34	234.71
766.67	234.54
767.00	234.48
767.32	234.39
767.65	234.31
767.97	234.16
768.30	234.08
768.62	233.92
768.95	233.76
769.27	233.62
769.60	233.55
769.92	233.43
770.25	233.30
770.57	233.20
770.90	233.12
771.22	232.97
771.55	232.89
771.87	232.81
772.20	232.72
772.52	232.74
772.85	232.79
773.17	232.68
773.50	232.58
773.82	232.41
774.15	232.29
774.47	232.14
774.80	232.05
775.12	231.94
775.45	231.88
775.77	231.78
776.09	231.69
776.42	231.60
776.74	231.52
777.07	231.47
777.39	231.40
777.72	231.32
778.04	231.29
778.36	231.23
778.69	231.16
779.01	231.13
779.33	230.95
779.66	230.79
779.98	230.71
780.31	230.66
780.63	230.70
780.95	230.64
781.28	230.58
781.60	230.53
781.92	230.50
782.25	230.44
782.57	230.41
782.89	230.36
783.22	230.33
783.54	230.25
783.86	230.20
784.19	230.15
784.51	230.12
784.83	230.05
785.16	230.05
785.48	230.00
785.80	229.94
786.12	229.92
786.45	229.91
786.77	229.87
787.09	229.83
787.42	229.75
787.74	229.73
788.06	229.71
788.38	229.67
788.71	229.62
789.03	229.61
789.35	229.59
789.67	229.60
789.99	229.57
790.32	229.55
790.64	229.52
790.96	229.62
791.28	229.57
791.61	229.54
791.93	229.52
792.25	229.49
792.57	229.54
792.89	229.47
793.21	229.42
793.54	229.42
793.86	229.40
794.18	229.39
794.50	229.35
794.82	229.32
795.14	229.32
795.47	229.32
795.79	229.30
796.11	229.23
796.43	229.15
796.75	229.11
797.07	229.09
797.39	229.04
797.71	228.91
798.04	228.90
798.36	228.87
798.68	228.81
799.00	228.79
799.32	228.69
799.64	228.68
799.96	228.60
800.28	228.56
800.60	228.48
800.92	228.41
801.24	228.34
801.56	228.29
801.89	228.24
802.21	228.18
802.53	228.11
802.85	228.09
803.17	228.11
803.49	228.04
803.81	227.98
804.13	227.95
804.45	227.90
804.77	227.83
805.09	227.79
805.41	227.73
805.73	227.64
806.05	227.57
806.37	227.51
806.69	227.48
807.01	227.45
807.33	227.44
807.65	227.39
807.97	227.41
808.28	227.37
808.60	227.32
808.92	227.25
809.24	227.26
809.56	227.24
809.88	227.16
810.20	227.13
810.52	227.12
810.84	227.07
811.16	227.02
811.48	226.99
811.80	226.97
812.12	226.93
812.43	226.93
812.75	226.94
813.07	226.91
813.39	226.90
813.71	226.84
814.03	226.79
814.35	226.73
814.67	226.66
814.98	226.61
815.30	226.58
815.62	226.58
815.94	226.49
816.26	226.50
816.58	226.48
816.89	226.50
817.21	226.46
817.53	226.44
817.85	226.43
818.17	226.43
818.48	226.37
818.80	226.39
819.12	226.36
819.44	226.27
819.76	226.25
820.07	226.21
820.39	226.18
820.71	226.19
821.03	226.20
821.34	226.17
821.66	226.18
821.98	226.21
822.30	226.17
822.61	226.24
822.93	226.18
823.25	226.18
823.57	226.14
823.88	226.16
824.20	226.13
824.52	226.16
824.83	226.12
825.15	226.14
825.47	226.13
825.79	226.16
826.10	226.18
826.42	226.19
826.74	226.21
827.05	226.23
827.37	226.22
827.69	226.19
828.00	226.22
828.32	226.22
828.64	226.18
828.95	226.24
829.27	226.18
829.58	226.21
829.90	226.23
830.22	226.26
830.53	226.21
830.85	226.24
831.17	226.21
831.48	226.23
831.80	226.20
832.11	226.22
832.43	226.19
832.75	226.21
833.06	226.26
833.38	226.22
833.69	226.20
834.01	226.20
834.32	226.19
834.64	226.18
834.96	226.18
835.27	226.20
835.59	226.17
835.90	226.13
836.22	226.11
836.53	226.09
836.85	226.07
837.16	226.19
837.48	226.17
837.79	226.20
838.11	226.17
838.42	226.16
838.74	226.15
839.05	226.15
839.37	226.13
839.68	226.06
840.00	226.05
840.31	226.07
840.63	226.06
840.94	226.08
841.26	226.03
841.57	226.01
841.88	226.03
842.20	226.04
842.51	226.06
842.83	226.04
843.14	226.09
843.46	226.06
843.77	226.01
844.08	225.99
844.40	225.94
844.71	225.96
845.03	225.97
845.34	225.93
845.65	225.93
845.97	225.91
846.28	225.88
846.60	225.91
846.91	225.87
847.22	225.86
847.54	225.85
847.85	225.88
848.16	225.87
848.48	225.79
848.79	225.76
849.10	225.73
849.42	225.72
849.73	225.65
850.04	225.62
850.36	225.54
850.67	225.57
850.98	225.55
851.30	225.54
851.61	225.54
851.92	225.52
852.23	225.52
852.55	225.50
852.86	225.50
853.17	225.47
853.49	225.49
853.80	225.50
854.11	225.49
854.42	225.48
854.74	225.49
855.05	225.49
855.36	225.44
855.67	225.42
855.99	225.42
856.30	225.52
856.61	225.55
856.92	225.54
857.23	225.51
857.55	225.46
857.86	225.43
858.17	225.41
858.48	225.40
858.79	225.38
859.11	225.42
859.42	225.39
859.73	225.40
860.04	225.39
860.35	225.37
860.66	225.34
860.98	225.35
861.29	225.32
861.60	225.29
861.91	225.30
862.22	225.29
862.53	225.27
862.84	225.17
863.16	225.17
863.47	225.17
863.78	225.14
864.09	225.17
864.40	225.17
864.71	225.19
865.02	225.21
865.33	225.19
865.64	225.17
865.95	225.19
866.27	225.28
866.58	225.29
866.89	225.30
867.20	225.30
867.51	225.27
867.82	225.28
868.13	225.36
868.44	225.37
868.75	225.39
869.06	225.43
869.37	225.38
869.68	225.36
869.99	225.37
870.30	225.41
870.61	225.44
870.92	225.46
871.23	225.47
871.54	225.46
871.85	225.49
872.16	225.50
872.47	225.52
872.78	225.42
873.09	225.38
873.40	225.38
873.71	225.41
874.02	225.43
874.33	225.43
874.64	225.41
874.95	225.41
875.26	225.39
875.56	225.36
875.87	225.39
876.18	225.38
876.49	225.46
876.80	225.43
877.11	225.39
877.42	225.38
877.73	225.36
878.04	225.31
878.35	225.29
878.66	225.30
878.96	225.26
879.27	225.27
879.58	225.29
879.89	225.23
880.20	225.25
880.51	225.22
880.82	225.22
881.12	225.20
881.43	225.18
881.74	225.19
882.05	225.17
882.36	225.19
882.67	225.19
882.97	225.08
883.28	225.05
883.59	225.01
883.90	225.01
884.21	225.02
884.51	225.03
884.82	225.04
885.13	225.02
885.44	225.04
885.74	225.06
886.05	225.04
886.36	225.06
886.67	225.02
886.98	225.07
887.28	225.04
887.59	225.05
887.90	225.01
888.20	224.97
888.51	225.01
888.82	224.98
889.13	224.99
889.43	225.07
889.74	225.09
890.05	225.13
890.35	225.10
890.66	225.06
890.97	225.01
891.28	224.97
891.58	224.97
891.89	224.93
892.20	224.89
892.50	224.89
892.81	224.88
893.12	224.88
893.42	224.80
893.73	224.82
894.04	224.83
894.34	224.85
894.65	224.85
894.95	224.84
895.26	224.80
895.57	224.83
895.87	224.72
896.18	224.73
896.48	224.73
896.79	224.73
897.10	224.77
897.40	224.82
897.71	224.82
898.01	224.78
898.32	224.81
898.63	224.79
898.93	224.78
899.24	224.80
899.54	224.79
899.85	224.78
900.15	224.79
900.46	224.74
900.76	224.75
901.07	224.77
901.38	224.75
901.68	224.77
901.99	224.75
902.29	224.81
902.60	224.80
902.90	224.82
903.21	224.84
903.51	224.82
903.82	224.84
904.12	224.88
904.43	224.93
904.73	224.94
905.03	224.97
905.34	225.07
905.64	225.10
905.95	225.08
906.25	225.12
906.56	225.09
906.86	225.12
907.17	225.11
907.47	225.13
907.77	225.14
908.08	225.14
908.38	225.13
908.69	225.12
908.99	225.16
909.30	225.18
909.60	225.16
909.90	225.20
910.21	225.18
910.51	225.19
910.81	225.20
911.12	225.19
911.42	225.22
911.73	225.13
912.03	225.12
912.33	225.15
912.64	225.14
912.94	225.15
913.24	225.13
913.55	225.12
913.85	225.12
914.15	225.14
914.46	225.17
914.76	225.14
915.06	225.11
915.37	225.05
915.67	225.02
915.97	225.01
916.27	224.98
916.58	224.96
916.88	224.93
917.18	224.91
917.49	224.97
917.79	224.92
918.09	224.93
918.39	224.94
918.70	224.93
919.00	224.91
919.30	224.95
919.60	224.96
919.91	224.98
920.21	224.96
920.51	224.93
920.81	224.92
921.12	224.93
921.42	224.94
921.72	224.96
922.02	224.93
922.32	224.96
922.63	224.94
922.93	224.95
923.23	224.95
923.53	224.94
923.83	224.89
924.13	224.91
924.44	224.91
924.74	224.94
925.04	224.96
925.34	224.98
925.64	224.93
925.94	224.92
926.24	224.93
926.55	224.93
926.85	224.93
927.15	224.93
927.45	224.93
927.75	224.94
928.05	224.94
928.35	224.95
928.65	224.98
928.95	224.98
929.26	224.95
929.56	224.95
929.86	224.92
930.16	224.90
930.46	224.87
930.76	224.87
931.06	224.79
931.36	224.78
931.66	224.81
931.96	224.81
932.26	224.80
932.56	224.75
932.86	224.75
933.16	224.76
933.46	224.75
933.76	224.72
934.06	224.74
934.36	224.79
934.66	224.81
934.96	224.78
935.26	224.81
935.56	224.82
935.86	224.82
936.16	224.83
936.46	224.81
936.76	224.81
937.06	224.78
937.36	224.81
937.66	224.79
937.96	224.77
938.26	224.80
938.56	224.81
938.86	224.86
939.16	224.92
939.46	224.92
939.76	224.94
940.06	224.94
940.35	224.91
940.65	224.87
940.95	224.86
941.25	224.87
941.55	224.85
941.85	224.84
942.15	224.85
942.45	224.90
942.75	224.91
943.04	224.90
943.34	224.93
943.64	224.92
943.94	224.90
944.24	224.90
944.54	224.90
944.84	224.92
945.13	224.88
945.43	224.86
945.73	224.86
946.03	224.86
946.33	224.87
946.62	224.89
946.92	224.88
947.22	224.90
947.52	224.85
947.82	224.87
948.11	224.87
948.41	224.87
948.71	224.84
949.01	224.84
949.31	224.85
949.60	224.83
949.90	224.86
950.20	224.84
950.50	224.81
950.79	224.80
951.09	224.81
951.39	224.81
951.69	224.78
951.98	224.81
952.28	224.81
952.58	224.81
952.87	224.79
953.17	224.81
953.47	224.80
953.76	224.84
954.06	224.83
954.36	224.80
954.66	224.79
954.95	224.84
955.25	224.83
955.55	224.86
955.84	224.85
956.14	224.85
956.44	224.86
956.73	224.88
957.03	224.87
957.32	224.86
957.62	224.85
957.92	224.87
958.21	224.82
958.51	224.92
958.81	224.92
959.10	224.94
959.40	224.94
959.69	224.95
959.99	224.97
960.29	224.95
960.58	224.96
960.88	224.99
961.17	224.95
961.47	224.96
961.76	224.94
962.06	224.98
962.36	224.98
962.65	224.99
962.95	224.98
963.24	224.96
963.54	224.96
963.83	224.97
964.13	224.95
964.42	224.93
964.72	224.88
965.01	224.88
965.31	224.85
965.60	224.82
965.90	224.87
966.19	224.78
966.49	224.77
966.78	224.77
967.08	224.78
967.37	224.79
967.67	224.80
967.96	224.83
968.26	224.79
968.55	224.79
968.85	224.82
969.14	224.82
969.43	224.82
969.73	224.83
970.02	224.84
970.32	224.87
970.61	224.91
970.91	224.89
971.20	224.89
971.49	224.86
971.79	224.89
972.08	224.83
972.38	224.86
972.67	224.85
972.96	224.90
973.26	224.85
973.55	224.86
973.85	224.85
974.14	224.82
974.43	224.87
974.73	224.87
975.02	224.86
975.31	224.87
975.61	224.90
975.90	224.86
976.19	224.82
976.49	224.78
976.78	224.78
977.07	224.75
977.37	224.76
977.66	224.79
977.95	224.80
978.24	224.78
978.54	224.81
978.83	224.80
979.12	224.76
979.42	224.76
979.71	224.76
980.00	224.73
980.29	224.73
980.59	224.69
980.88	224.67
981.17	224.68
981.46	224.70
981.76	224.68
982.05	224.73
982.34	224.76
982.63	224.77
982.93	224.71
983.22	224.73
983.51	224.71
983.80	224.71
984.09	224.70
984.39	224.70
984.68	224.71
984.97	224.74
985.26	224.73
985.55	224.73
985.85	224.71
986.14	224.74
986.43	224.77
986.72	224.76
987.01	224.73
987.30	224.72
987.59	224.72
987.89	224.71
988.18	224.67
988.47	224.61
988.76	224.61
989.05	224.61
989.34	224.59
989.63	224.62
989.92	224.65
990.22	224.66
990.51	224.69
990.80	224.65
991.09	224.67
991.38	224.70
991.67	224.71
991.96	224.66
992.25	224.66
992.54	224.63
992.83	224.63
993.12	224.63
993.41	224.63
993.70	224.65
993.99	224.69
994.28	224.70
994.58	224.77
994.87	224.79
995.16	224.82
995.45	224.84
995.74	224.77
996.03	224.77
996.32	224.78
996.61	224.79
996.90	224.81
997.19	224.78
997.48	224.78
997.77	224.76
998.06	224.78
998.34	224.78
998.63	224.78
998.92	224.79
999.21	224.80
999.50	224.80
999.79	224.77
1000.08	224.76
1000.37	224.78
1000.66	224.78
1000.95	224.78
1001.24	224.77
1001.53	224.78
1001.82	224.82
1002.11	224.79
1002.40	224.77
1002.68	224.77
1002.97	224.83
1003.26	224.87
1003.55	224.87
1003.84	224.87
1004.13	224.94
1004.42	224.92
1004.71	224.93
1004.99	224.93
1005.28	224.95
1005.57	224.95
1005.86	224.94
1006.15	224.94
1006.44	224.88
1006.72	224.86
1007.01	224.84
1007.30	224.84
1007.59	224.81
1007.88	224.81
1008.17	224.80
1008.45	224.80
1008.74	224.78
1009.03	224.74
1009.32	224.73
1009.60	224.73
1009.89	224.75
1010.18	224.68
1010.47	224.68
1010.76	224.69
1011.04	224.67
1011.33	224.70
1011.62	224.69
1011.91	224.70
1012.19	224.67
1012.48	224.70
1012.77	224.71
1013.05	224.79
1013.34	224.78
1013.63	224.79
1013.92	224.78
1014.20	224.79
1014.49	224.77
1014.78	224.77
1015.06	224.74
1015.35	224.74
1015.64	224.70
1015.92	224.69
1016.21	224.67
1016.50	224.68
1016.78	224.67
1017.07	224.67
1017.36	224.61
1017.64	224.62
1017.93	224.60
1018.22	224.63
1018.50	224.64
1018.79	224.62
1019.08	224.53
1019.36	224.52
1019.65	224.50
1019.93	224.49
1020.22	224.49
1020.51	224.56
1020.79	224.52
1021.08	224.93
1021.36	224.56
1021.65	224.58
1021.94	224.39
1022.22	224.18
1022.51	224.36
1022.79	224.22
1023.08	224.35
1023.36	225.94
1023.65	224.11
>>>>>End Processed Spectral Data<<<<<
