SpectraSuite Data File
++++++++++++++++++++++++++++++++++++
Date: Fri Feb 01 18:07:10 EST 2013
User: group
Dark Spectrum Present: No
Reference Spectrum Present: No
Number of Sampled Component Spectra: 1
Spectrometers: USB2E7196
Integration Time (usec): 35000 (USB2E7196)
Spectra Averaged: 100 (USB2E7196)
Boxcar Smoothing: 10 (USB2E7196)
Correct for Electrical Dark: No (USB2E7196)
Strobe/Lamp Enabled: No (USB2E7196)
Correct for Detector Non-linearity: No (USB2E7196)
Correct for Stray Light: No (USB2E7196)
Number of Pixels in Processed Spectrum: 2048
>>>>>Begin Processed Spectral Data<<<<<
339.09	0.00
339.48	212.72
339.86	214.06
340.24	215.68
340.63	217.55
341.01	220.10
341.39	219.86
341.78	221.50
342.16	222.65
342.54	222.45
342.93	211.31
343.31	222.00
343.69	222.56
344.07	223.04
344.46	223.46
344.84	223.82
345.22	224.05
345.60	224.31
345.99	224.52
346.37	224.65
346.75	224.79
347.13	224.88
347.52	224.96
347.90	225.06
348.28	225.11
348.66	225.17
349.05	225.17
349.43	225.21
349.81	225.25
350.19	225.29
350.57	225.32
350.96	225.42
351.34	225.46
351.72	225.55
352.10	225.64
352.48	225.72
352.87	225.81
353.25	225.89
353.63	225.93
354.01	225.97
354.39	226.02
354.77	226.09
355.15	226.16
355.54	226.23
355.92	226.23
356.30	226.30
356.68	226.43
357.06	226.51
357.44	226.57
357.82	226.64
358.20	226.73
358.58	226.78
358.97	226.83
359.35	226.95
359.73	227.03
360.11	227.12
360.49	227.17
360.87	227.21
361.25	227.25
361.63	227.28
362.01	227.35
362.39	227.39
362.77	227.46
363.15	227.51
363.53	227.54
363.91	227.58
364.29	227.60
364.67	227.54
365.05	227.55
365.43	227.58
365.81	227.60
366.19	227.68
366.57	227.77
366.95	227.78
367.33	227.75
367.71	227.72
368.09	227.72
368.47	227.72
368.85	227.69
369.23	227.72
369.61	227.74
369.99	227.73
370.37	227.73
370.75	227.74
371.13	227.70
371.51	227.64
371.89	227.63
372.27	227.62
372.65	227.55
373.03	227.53
373.41	227.49
373.78	227.44
374.16	227.33
374.54	227.23
374.92	227.20
375.30	227.17
375.68	227.14
376.06	227.09
376.44	227.00
376.82	226.97
377.19	226.90
377.57	226.82
377.95	226.72
378.33	226.65
378.71	226.49
379.09	226.47
379.47	226.43
379.84	226.39
380.22	226.29
380.60	226.23
380.98	226.16
381.36	226.11
381.73	226.04
382.11	226.02
382.49	225.96
382.87	225.86
383.25	225.78
383.62	225.83
384.00	225.75
384.38	225.74
384.76	225.71
385.13	225.69
385.51	225.63
385.89	225.57
386.27	225.51
386.64	225.52
387.02	225.42
387.40	225.39
387.78	225.32
388.15	225.29
388.53	225.26
388.91	225.23
389.29	225.23
389.66	225.20
390.04	225.12
390.42	225.11
390.79	225.13
391.17	225.09
391.55	224.96
391.92	224.95
392.30	224.96
392.68	224.92
393.05	224.90
393.43	224.93
393.81	224.93
394.18	224.95
394.56	224.96
394.94	224.99
395.31	224.97
395.69	225.04
396.06	225.10
396.44	225.14
396.82	225.15
397.19	225.20
397.57	225.23
397.95	225.29
398.32	225.32
398.70	225.36
399.07	225.46
399.45	225.50
399.82	225.57
400.20	225.60
400.58	225.68
400.95	225.74
401.33	225.83
401.70	225.97
402.08	226.07
402.45	226.16
402.83	226.28
403.20	226.42
403.58	226.49
403.95	226.60
404.33	226.74
404.71	226.88
405.08	227.04
405.46	227.22
405.83	227.41
406.21	227.57
406.58	227.71
406.96	227.89
407.33	228.11
407.70	228.34
408.08	228.67
408.45	228.95
408.83	229.24
409.20	229.51
409.58	229.75
409.95	230.05
410.33	230.40
410.70	230.78
411.08	231.18
411.45	231.59
411.82	231.97
412.20	232.41
412.57	232.95
412.95	233.35
413.32	233.88
413.69	234.42
414.07	234.97
414.44	235.61
414.82	236.27
415.19	237.02
415.56	237.75
415.94	238.46
416.31	239.30
416.68	240.14
417.06	241.09
417.43	242.03
417.81	243.10
418.18	244.13
418.55	245.22
418.93	246.37
419.30	247.58
419.67	248.87
420.04	250.18
420.42	251.52
420.79	253.14
421.16	254.69
421.54	256.32
421.91	258.02
422.28	259.74
422.66	261.52
423.03	263.25
423.40	265.06
423.77	267.00
424.15	268.93
424.52	270.97
424.89	273.17
425.26	275.30
425.64	277.26
426.01	279.44
426.38	281.71
426.75	283.99
427.13	286.35
427.50	288.80
427.87	291.37
428.24	293.97
428.61	296.38
428.99	299.01
429.36	301.92
429.73	304.68
430.10	307.46
430.47	310.28
430.85	313.22
431.22	316.26
431.59	319.47
431.96	322.52
432.33	325.91
432.70	329.14
433.08	332.98
433.45	336.57
433.82	340.15
434.19	344.08
434.56	347.89
434.93	351.50
435.30	355.11
435.68	359.07
436.05	362.89
436.42	366.69
436.79	370.11
437.16	373.76
437.53	377.62
437.90	381.48
438.27	385.21
438.64	389.05
439.01	392.62
439.38	395.69
439.75	398.68
440.13	402.11
440.50	405.31
440.87	407.79
441.24	410.47
441.61	413.42
441.98	415.43
442.35	417.88
442.72	420.42
443.09	422.86
443.46	424.20
443.83	425.03
444.20	425.68
444.57	426.83
444.94	427.21
445.31	427.70
445.68	428.12
446.05	428.22
446.42	427.69
446.79	427.10
447.16	426.50
447.53	426.06
447.90	424.42
448.27	422.83
448.64	420.73
449.01	419.18
449.37	416.47
449.74	413.90
450.11	410.86
450.48	407.51
450.85	404.06
451.22	401.15
451.59	398.36
451.96	395.75
452.33	392.22
452.70	389.02
453.07	385.14
453.43	381.25
453.80	377.43
454.17	373.80
454.54	370.34
454.91	366.63
455.28	362.97
455.65	359.60
456.02	356.18
456.38	353.19
456.75	349.49
457.12	346.42
457.49	343.39
457.86	340.42
458.23	337.80
458.59	334.98
458.96	332.10
459.33	329.57
459.70	326.96
460.07	324.87
460.43	322.50
460.80	320.27
461.17	318.23
461.54	316.21
461.91	314.26
462.27	312.24
462.64	310.51
463.01	308.67
463.38	306.86
463.74	305.01
464.11	303.44
464.48	302.07
464.85	300.49
465.21	299.25
465.58	297.99
465.95	296.51
466.32	295.27
466.68	294.02
467.05	292.77
467.42	291.56
467.78	290.30
468.15	289.07
468.52	288.16
468.88	286.99
469.25	285.91
469.62	284.98
469.98	284.06
470.35	283.15
470.72	282.29
471.08	281.40
471.45	280.64
471.82	279.87
472.18	279.05
472.55	278.47
472.92	277.75
473.28	277.08
473.65	276.46
474.02	275.82
474.38	275.30
474.75	274.83
475.11	274.33
475.48	273.92
475.85	273.58
476.21	273.23
476.58	272.96
476.94	272.72
477.31	272.45
477.67	272.18
478.04	271.99
478.41	271.88
478.77	271.82
479.14	271.69
479.50	271.64
479.87	271.62
480.23	271.61
480.60	271.62
480.96	271.67
481.33	271.83
481.69	271.99
482.06	272.14
482.42	272.29
482.79	272.48
483.15	272.75
483.52	273.08
483.88	273.44
484.25	273.79
484.61	274.20
484.98	274.64
485.34	275.18
485.71	275.76
486.07	276.36
486.44	276.95
486.80	277.68
487.17	278.40
487.53	279.25
487.90	280.17
488.26	281.12
488.62	282.15
488.99	283.16
489.35	284.24
489.72	285.40
490.08	286.65
490.44	288.00
490.81	289.39
491.17	290.78
491.54	292.31
491.90	293.91
492.26	295.65
492.63	297.45
492.99	299.37
493.36	301.37
493.72	303.49
494.08	305.70
494.45	308.07
494.81	310.58
495.17	313.15
495.54	315.81
495.90	318.61
496.26	321.55
496.63	324.69
496.99	328.01
497.35	331.50
497.72	335.13
498.08	338.84
498.44	342.74
498.80	346.98
499.17	351.23
499.53	355.69
499.89	360.34
500.26	365.13
500.62	370.08
500.98	375.37
501.34	380.75
501.71	386.40
502.07	392.15
502.43	398.09
502.79	404.32
503.16	410.80
503.52	417.51
503.88	424.36
504.24	431.43
504.60	438.72
504.97	446.26
505.33	454.03
505.69	462.25
506.05	470.56
506.41	478.97
506.78	487.74
507.14	496.71
507.50	506.03
507.86	515.66
508.22	525.48
508.59	535.37
508.95	545.68
509.31	556.21
509.67	567.08
510.03	578.07
510.39	589.34
510.75	600.85
511.12	612.61
511.48	624.70
511.84	637.01
512.20	649.36
512.56	662.23
512.92	675.32
513.28	688.66
513.64	702.18
514.00	715.94
514.37	729.85
514.73	743.98
515.09	758.01
515.45	772.45
515.81	787.10
516.17	802.15
516.53	817.42
516.89	832.76
517.25	848.16
517.61	863.83
517.97	879.53
518.33	895.29
518.69	911.46
519.05	927.71
519.41	944.17
519.77	961.10
520.13	977.99
520.49	994.69
520.85	1011.47
521.21	1028.49
521.57	1046.17
521.93	1063.41
522.29	1081.29
522.65	1099.15
523.01	1116.86
523.37	1134.59
523.73	1152.42
524.09	1170.15
524.45	1188.03
524.81	1206.34
525.17	1224.92
525.53	1243.53
525.89	1262.21
526.25	1280.72
526.61	1299.04
526.97	1317.68
527.33	1335.97
527.68	1354.45
528.04	1373.02
528.40	1391.43
528.76	1410.56
529.12	1429.04
529.48	1447.90
529.84	1465.87
530.20	1484.50
530.56	1503.53
530.91	1522.94
531.27	1541.85
531.63	1560.51
531.99	1579.26
532.35	1597.29
532.71	1615.23
533.07	1633.64
533.42	1651.70
533.78	1669.84
534.14	1688.29
534.50	1705.78
534.86	1723.93
535.21	1741.34
535.57	1759.33
535.93	1777.13
536.29	1794.05
536.65	1811.33
537.00	1828.38
537.36	1846.02
537.72	1862.68
538.08	1879.51
538.44	1895.58
538.79	1911.69
539.15	1927.42
539.51	1943.34
539.87	1960.11
540.22	1976.12
540.58	1992.31
540.94	2007.90
541.29	2023.15
541.65	2038.03
542.01	2053.51
542.37	2068.16
542.72	2082.78
543.08	2097.00
543.44	2111.78
543.79	2125.32
544.15	2138.56
544.51	2152.54
544.87	2165.87
545.22	2179.05
545.58	2191.44
545.94	2203.39
546.29	2215.40
546.65	2227.59
547.01	2239.21
547.36	2250.04
547.72	2260.73
548.07	2270.67
548.43	2281.09
548.79	2291.28
549.14	2301.04
549.50	2310.45
549.86	2320.18
550.21	2329.65
550.57	2338.83
550.92	2347.48
551.28	2356.58
551.64	2365.68
551.99	2374.18
552.35	2382.36
552.70	2390.66
553.06	2398.63
553.41	2406.98
553.77	2415.01
554.13	2422.98
554.48	2431.12
554.84	2438.58
555.19	2445.71
555.55	2452.81
555.90	2458.89
556.26	2465.53
556.61	2471.97
556.97	2478.16
557.32	2483.99
557.68	2489.76
558.03	2495.86
558.39	2501.04
558.74	2507.38
559.10	2512.98
559.45	2518.20
559.81	2524.01
560.16	2529.27
560.52	2533.90
560.87	2538.71
561.23	2542.65
561.58	2547.03
561.94	2550.88
562.29	2554.33
562.64	2558.49
563.00	2562.27
563.35	2567.24
563.71	2571.85
564.06	2576.45
564.42	2580.67
564.77	2584.56
565.12	2588.24
565.48	2591.25
565.83	2594.39
566.19	2597.01
566.54	2598.92
566.89	2601.16
567.25	2602.83
567.60	2605.16
567.96	2608.16
568.31	2610.14
568.66	2612.45
569.02	2613.98
569.37	2615.16
569.72	2617.11
570.08	2618.03
570.43	2619.03
570.78	2619.18
571.14	2618.12
571.49	2617.22
571.84	2617.38
572.20	2616.94
572.55	2616.36
572.90	2615.22
573.26	2614.33
573.61	2612.86
573.96	2611.71
574.31	2609.07
574.67	2606.22
575.02	2602.86
575.37	2599.51
575.72	2595.71
576.08	2592.41
576.43	2589.28
576.78	2585.77
577.13	2582.60
577.49	2579.58
577.84	2576.17
578.19	2572.43
578.54	2568.90
578.90	2564.80
579.25	2559.08
579.60	2553.80
579.95	2548.58
580.30	2543.40
580.66	2537.96
581.01	2532.72
581.36	2527.37
581.71	2522.93
582.06	2518.32
582.42	2513.50
582.77	2507.84
583.12	2503.13
583.47	2498.14
583.82	2492.78
584.17	2487.15
584.53	2481.18
584.88	2475.01
585.23	2468.67
585.58	2462.58
585.93	2456.65
586.28	2451.28
586.63	2445.74
586.98	2440.19
587.34	2434.99
587.69	2429.57
588.04	2423.79
588.39	2417.50
588.74	2410.29
589.09	2403.46
589.44	2395.88
589.79	2389.15
590.14	2383.08
590.49	2375.59
590.84	2368.36
591.19	2361.48
591.54	2354.08
591.89	2346.03
592.25	2338.46
592.60	2330.17
592.95	2321.69
593.30	2313.29
593.65	2304.69
594.00	2296.63
594.35	2288.32
594.70	2279.17
595.05	2271.12
595.40	2262.77
595.75	2254.33
596.10	2247.42
596.45	2239.76
596.80	2232.73
597.15	2225.19
597.50	2216.87
597.85	2209.52
598.19	2201.75
598.54	2193.71
598.89	2186.05
599.24	2179.23
599.59	2171.68
599.94	2164.56
600.29	2157.22
600.64	2149.56
600.99	2141.03
601.34	2133.02
601.69	2124.92
602.04	2117.03
602.39	2108.46
602.74	2100.52
603.08	2092.63
603.43	2084.59
603.78	2075.90
604.13	2067.52
604.48	2059.02
604.83	2051.18
605.18	2043.19
605.53	2033.97
605.87	2024.60
606.22	2016.07
606.57	2006.62
606.92	1997.77
607.27	1989.38
607.62	1981.29
607.96	1972.73
608.31	1965.03
608.66	1956.27
609.01	1947.46
609.36	1938.48
609.70	1928.87
610.05	1919.42
610.40	1910.27
610.75	1900.50
611.10	1891.62
611.44	1881.52
611.79	1872.03
612.14	1861.68
612.49	1850.71
612.83	1840.80
613.18	1831.11
613.53	1821.68
613.88	1811.66
614.22	1801.83
614.57	1791.54
614.92	1782.04
615.27	1773.21
615.61	1763.28
615.96	1753.87
616.31	1744.79
616.65	1736.07
617.00	1727.15
617.35	1718.10
617.70	1708.35
618.04	1698.35
618.39	1688.57
618.74	1679.67
619.08	1669.90
619.43	1660.88
619.78	1652.71
620.12	1644.18
620.47	1635.28
620.82	1625.54
621.16	1616.60
621.51	1607.68
621.85	1598.70
622.20	1588.74
622.55	1578.72
622.89	1569.41
623.24	1560.27
623.59	1551.44
623.93	1542.52
624.28	1533.96
624.62	1524.98
624.97	1516.49
625.32	1508.39
625.66	1500.03
626.01	1491.48
626.35	1482.76
626.70	1473.64
627.04	1464.47
627.39	1455.26
627.73	1446.51
628.08	1438.30
628.43	1429.85
628.77	1421.12
629.12	1412.16
629.46	1403.53
629.81	1394.67
630.15	1386.19
630.50	1377.37
630.84	1367.78
631.19	1358.44
631.53	1349.63
631.88	1340.79
632.22	1331.81
632.57	1323.16
632.91	1314.13
633.26	1305.41
633.60	1296.61
633.95	1288.20
634.29	1279.88
634.64	1272.10
634.98	1263.42
635.32	1255.02
635.67	1247.16
636.01	1239.36
636.36	1231.46
636.70	1223.73
637.05	1216.13
637.39	1208.45
637.73	1200.89
638.08	1193.89
638.42	1186.74
638.77	1179.15
639.11	1171.46
639.45	1163.94
639.80	1156.23
640.14	1148.81
640.49	1141.15
640.83	1133.83
641.17	1126.60
641.52	1119.15
641.86	1111.42
642.20	1104.58
642.55	1097.15
642.89	1089.65
643.23	1081.91
643.58	1075.02
643.92	1067.86
644.26	1060.78
644.61	1053.70
644.95	1046.69
645.29	1038.99
645.64	1031.17
645.98	1023.76
646.32	1016.84
646.66	1009.75
647.01	1002.91
647.35	996.24
647.69	989.34
648.04	982.72
648.38	975.87
648.72	968.97
649.06	962.14
649.41	955.24
649.75	948.37
650.09	941.35
650.43	934.68
650.78	927.62
651.12	920.77
651.46	914.16
651.80	907.53
652.14	901.14
652.49	894.97
652.83	888.95
653.17	882.36
653.51	875.73
653.85	869.40
654.20	862.78
654.54	855.86
654.88	849.26
655.22	842.48
655.56	835.90
655.90	829.51
656.25	823.43
656.59	817.16
656.93	811.24
657.27	805.26
657.61	798.89
657.95	792.95
658.29	787.00
658.64	780.86
658.98	774.61
659.32	768.31
659.66	762.26
660.00	756.06
660.34	750.34
660.68	744.58
661.02	738.80
661.36	733.45
661.70	728.10
662.05	723.02
662.39	718.00
662.73	712.77
663.07	707.66
663.41	702.41
663.75	697.20
664.09	691.85
664.43	686.73
664.77	682.00
665.11	677.05
665.45	672.23
665.79	667.42
666.13	662.64
666.47	657.89
666.81	653.06
667.15	648.31
667.49	643.75
667.83	639.34
668.17	634.79
668.51	629.99
668.85	625.41
669.19	620.87
669.53	616.41
669.87	611.92
670.21	607.60
670.55	603.36
670.89	599.42
671.23	595.41
671.57	591.34
671.91	587.18
672.25	583.05
672.58	578.89
672.92	574.91
673.26	571.24
673.60	567.55
673.94	563.88
674.28	560.48
674.62	557.05
674.96	553.42
675.30	549.98
675.64	546.60
675.97	543.35
676.31	540.11
676.65	536.75
676.99	533.62
677.33	530.34
677.67	527.07
678.01	523.57
678.34	520.12
678.68	516.75
679.02	513.56
679.36	510.35
679.70	507.29
680.04	504.11
680.37	500.83
680.71	497.61
681.05	494.58
681.39	491.42
681.73	488.31
682.06	485.44
682.40	482.52
682.74	479.61
683.08	476.64
683.42	473.58
683.75	470.68
684.09	467.73
684.43	464.87
684.77	462.04
685.10	459.31
685.44	456.63
685.78	454.00
686.12	451.37
686.45	448.74
686.79	446.05
687.13	443.50
687.46	440.92
687.80	438.39
688.14	435.77
688.48	433.41
688.81	430.81
689.15	428.26
689.49	425.75
689.82	423.30
690.16	420.91
690.50	418.65
690.83	416.40
691.17	414.04
691.51	411.86
691.84	409.72
692.18	407.47
692.52	405.22
692.85	402.97
693.19	400.76
693.52	398.63
693.86	396.52
694.20	394.45
694.53	392.40
694.87	390.24
695.21	388.20
695.54	386.08
695.88	384.04
696.21	382.02
696.55	380.06
696.88	378.11
697.22	376.14
697.56	374.21
697.89	372.28
698.23	370.45
698.56	368.57
698.90	366.69
699.23	364.82
699.57	362.99
699.90	361.19
700.24	359.40
700.58	357.63
700.91	355.85
701.25	354.13
701.58	352.54
701.92	350.99
702.25	349.37
702.59	347.73
702.92	346.21
703.26	344.69
703.59	343.17
703.93	341.76
704.26	340.33
704.60	338.80
704.93	337.33
705.26	335.84
705.60	334.40
705.93	333.02
706.27	331.75
706.60	330.51
706.94	329.25
707.27	327.93
707.61	326.68
707.94	325.50
708.27	324.21
708.61	322.94
708.94	321.75
709.28	320.59
709.61	319.48
709.94	318.34
710.28	317.17
710.61	316.08
710.95	314.83
711.28	313.70
711.61	312.65
711.95	311.57
712.28	310.49
712.61	309.30
712.95	308.19
713.28	307.17
713.61	306.09
713.95	305.03
714.28	304.00
714.61	302.95
714.95	301.97
715.28	300.97
715.61	299.93
715.95	298.94
716.28	297.94
716.61	296.96
716.95	296.00
717.28	295.08
717.61	294.15
717.94	293.28
718.28	292.37
718.61	291.49
718.94	290.63
719.27	289.85
719.61	289.15
719.94	288.37
720.27	287.53
720.60	286.78
720.94	286.08
721.27	285.38
721.60	284.72
721.93	284.00
722.27	283.36
722.60	282.73
722.93	282.03
723.26	281.41
723.59	280.75
723.93	280.09
724.26	279.47
724.59	278.79
724.92	278.20
725.25	277.64
725.59	277.02
725.92	276.47
726.25	275.88
726.58	275.28
726.91	274.74
727.24	274.18
727.57	273.61
727.91	273.01
728.24	272.47
728.57	271.90
728.90	271.39
729.23	270.87
729.56	270.36
729.89	269.80
730.22	269.22
730.55	268.64
730.89	268.14
731.22	267.59
731.55	267.11
731.88	266.59
732.21	266.06
732.54	265.55
732.87	265.05
733.20	264.60
733.53	264.15
733.86	263.70
734.19	263.26
734.52	262.82
734.85	262.43
735.18	261.98
735.51	261.57
735.84	261.15
736.17	260.70
736.50	260.22
736.83	259.97
737.16	259.60
737.49	259.25
737.82	258.86
738.15	258.48
738.48	258.08
738.81	257.71
739.14	257.35
739.47	256.99
739.80	256.63
740.13	256.25
740.46	255.86
740.79	255.48
741.12	255.13
741.45	254.75
741.78	254.40
742.11	254.06
742.44	253.65
742.77	253.31
743.10	252.96
743.43	252.65
743.75	252.16
744.08	251.99
744.41	251.68
744.74	251.35
745.07	251.04
745.40	250.77
745.73	250.47
746.06	250.11
746.39	249.81
746.71	249.48
747.04	249.14
747.37	248.86
747.70	248.54
748.03	248.21
748.36	247.96
748.68	247.64
749.01	247.32
749.34	247.11
749.67	246.81
750.00	246.54
750.33	246.32
750.65	246.08
750.98	245.65
751.31	245.39
751.64	245.14
751.97	244.93
752.29	244.64
752.62	244.34
752.95	244.13
753.28	243.86
753.60	243.63
753.93	243.44
754.26	243.19
754.59	242.94
754.91	242.72
755.24	242.45
755.57	242.21
755.90	241.98
756.22	241.72
756.55	241.47
756.88	241.20
757.20	240.93
757.53	240.68
757.86	240.49
758.19	240.24
758.51	240.04
758.84	239.80
759.17	239.57
759.49	239.40
759.82	239.23
760.15	239.06
760.47	238.89
760.80	238.69
761.13	238.51
761.45	238.35
761.78	238.18
762.11	238.00
762.43	237.84
762.76	237.69
763.08	237.53
763.41	237.38
763.74	237.28
764.06	237.11
764.39	236.97
764.71	236.82
765.04	236.69
765.37	236.54
765.69	236.38
766.02	236.26
766.34	236.11
766.67	235.94
767.00	235.85
767.32	235.78
767.65	235.67
767.97	235.56
768.30	235.42
768.62	235.28
768.95	235.19
769.27	235.08
769.60	234.94
769.92	234.83
770.25	234.73
770.57	234.58
770.90	234.45
771.22	234.33
771.55	234.23
771.87	234.15
772.20	234.06
772.52	234.06
772.85	234.10
773.17	233.99
773.50	233.90
773.82	233.77
774.15	233.64
774.47	233.47
774.80	233.34
775.12	233.28
775.45	233.17
775.77	233.05
776.09	232.97
776.42	232.89
776.74	232.81
777.07	232.71
777.39	232.61
777.72	232.53
778.04	232.47
778.36	232.38
778.69	232.30
779.01	232.25
779.33	232.08
779.66	231.87
779.98	231.81
780.31	231.73
780.63	231.70
780.95	231.60
781.28	231.56
781.60	231.49
781.92	231.44
782.25	231.38
782.57	231.31
782.89	231.25
783.22	231.15
783.54	231.07
783.86	230.99
784.19	230.94
784.51	230.88
784.83	230.79
785.16	230.73
785.48	230.69
785.80	230.58
786.12	230.55
786.45	230.49
786.77	230.46
787.09	230.40
787.42	230.29
787.74	230.25
788.06	230.19
788.38	230.14
788.71	230.05
789.03	230.01
789.35	229.98
789.67	229.93
789.99	229.89
790.32	229.83
790.64	229.79
790.96	229.84
791.28	229.81
791.61	229.79
791.93	229.75
792.25	229.69
792.57	229.72
792.89	229.63
793.21	229.61
793.54	229.51
793.86	229.44
794.18	229.41
794.50	229.35
794.82	229.34
795.14	229.31
795.47	229.31
795.79	229.29
796.11	229.22
796.43	229.15
796.75	229.12
797.07	229.12
797.39	229.06
797.71	228.96
798.04	228.89
798.36	228.86
798.68	228.83
799.00	228.78
799.32	228.69
799.64	228.70
799.96	228.70
800.28	228.71
800.60	228.72
800.92	228.73
801.24	228.70
801.56	228.65
801.89	228.59
802.21	228.55
802.53	228.50
802.85	228.53
803.17	228.56
803.49	228.51
803.81	228.46
804.13	228.46
804.45	228.44
804.77	228.43
805.09	228.37
805.41	228.34
805.73	228.29
806.05	228.24
806.37	228.23
806.69	228.15
807.01	228.10
807.33	228.10
807.65	228.02
807.97	228.05
808.28	228.03
808.60	228.01
808.92	227.97
809.24	227.99
809.56	227.93
809.88	227.89
810.20	227.89
810.52	227.89
810.84	227.85
811.16	227.81
811.48	227.79
811.80	227.84
812.12	227.80
812.43	227.79
812.75	227.77
813.07	227.71
813.39	227.73
813.71	227.71
814.03	227.65
814.35	227.63
814.67	227.54
814.98	227.50
815.30	227.48
815.62	227.44
815.94	227.39
816.26	227.42
816.58	227.36
816.89	227.33
817.21	227.27
817.53	227.26
817.85	227.26
818.17	227.22
818.48	227.13
818.80	227.13
819.12	227.09
819.44	227.09
819.76	227.06
820.07	227.02
820.39	226.98
820.71	226.97
821.03	226.96
821.34	226.93
821.66	226.95
821.98	226.96
822.30	226.93
822.61	226.92
822.93	226.88
823.25	226.86
823.57	226.84
823.88	226.88
824.20	226.86
824.52	226.83
824.83	226.85
825.15	226.83
825.47	226.80
825.79	226.81
826.10	226.77
826.42	226.76
826.74	226.76
827.05	226.79
827.37	226.76
827.69	226.75
828.00	226.77
828.32	226.75
828.64	226.72
828.95	226.78
829.27	226.77
829.58	226.73
829.90	226.74
830.22	226.72
830.53	226.65
830.85	226.60
831.17	226.56
831.48	226.54
831.80	226.55
832.11	226.55
832.43	226.55
832.75	226.54
833.06	226.58
833.38	226.57
833.69	226.55
834.01	226.56
834.32	226.55
834.64	226.51
834.96	226.49
835.27	226.48
835.59	226.43
835.90	226.40
836.22	226.41
836.53	226.37
836.85	226.36
837.16	226.47
837.48	226.49
837.79	226.52
838.11	226.47
838.42	226.44
838.74	226.43
839.05	226.39
839.37	226.35
839.68	226.31
840.00	226.27
840.31	226.26
840.63	226.21
840.94	226.18
841.26	226.15
841.57	226.12
841.88	226.14
842.20	226.11
842.51	226.09
842.83	226.08
843.14	226.19
843.46	226.20
843.77	226.11
844.08	226.09
844.40	226.05
844.71	226.04
845.03	226.02
845.34	226.01
845.65	225.99
845.97	226.02
846.28	226.00
846.60	226.00
846.91	225.96
847.22	225.97
847.54	225.99
847.85	226.01
848.16	226.01
848.48	225.94
848.79	225.94
849.10	225.95
849.42	225.95
849.73	225.80
850.04	225.76
850.36	225.74
850.67	225.77
850.98	225.78
851.30	225.81
851.61	225.80
851.92	225.79
852.23	225.81
852.55	225.81
852.86	225.79
853.17	225.78
853.49	225.77
853.80	225.78
854.11	225.78
854.42	225.80
854.74	225.78
855.05	225.82
855.36	225.77
855.67	225.73
855.99	225.71
856.30	225.83
856.61	225.85
856.92	225.83
857.23	225.82
857.55	225.77
857.86	225.73
858.17	225.76
858.48	225.72
858.79	225.73
859.11	225.71
859.42	225.74
859.73	225.72
860.04	225.71
860.35	225.69
860.66	225.64
860.98	225.60
861.29	225.60
861.60	225.56
861.91	225.60
862.22	225.61
862.53	225.62
862.84	225.51
863.16	225.53
863.47	225.52
863.78	225.50
864.09	225.51
864.40	225.53
864.71	225.53
865.02	225.56
865.33	225.56
865.64	225.51
865.95	225.50
866.27	225.58
866.58	225.57
866.89	225.55
867.20	225.58
867.51	225.58
867.82	225.57
868.13	225.60
868.44	225.55
868.75	225.57
869.06	225.58
869.37	225.59
869.68	225.56
869.99	225.58
870.30	225.58
870.61	225.62
870.92	225.61
871.23	225.60
871.54	225.63
871.85	225.64
872.16	225.67
872.47	225.67
872.78	225.61
873.09	225.65
873.40	225.63
873.71	225.62
874.02	225.63
874.33	225.63
874.64	225.60
874.95	225.63
875.26	225.60
875.56	225.57
875.87	225.55
876.18	225.55
876.49	225.67
876.80	225.65
877.11	225.62
877.42	225.64
877.73	225.63
878.04	225.61
878.35	225.60
878.66	225.61
878.96	225.59
879.27	225.58
879.58	225.58
879.89	225.60
880.20	225.60
880.51	225.59
880.82	225.56
881.12	225.58
881.43	225.55
881.74	225.53
882.05	225.52
882.36	225.53
882.67	225.52
882.97	225.38
883.28	225.37
883.59	225.33
883.90	225.32
884.21	225.32
884.51	225.29
884.82	225.25
885.13	225.26
885.44	225.20
885.74	225.21
886.05	225.19
886.36	225.17
886.67	225.17
886.98	225.22
887.28	225.24
887.59	225.25
887.90	225.29
888.20	225.31
888.51	225.32
888.82	225.31
889.13	225.33
889.43	225.44
889.74	225.42
890.05	225.42
890.35	225.42
890.66	225.40
890.97	225.41
891.28	225.36
891.58	225.36
891.89	225.36
892.20	225.33
892.50	225.29
892.81	225.30
893.12	225.27
893.42	225.18
893.73	225.15
894.04	225.11
894.34	225.07
894.65	225.03
894.95	224.97
895.26	224.95
895.57	224.99
895.87	224.88
896.18	224.90
896.48	224.94
896.79	224.88
897.10	224.86
897.40	224.83
897.71	224.88
898.01	224.87
898.32	224.88
898.63	224.85
898.93	224.87
899.24	224.83
899.54	224.84
899.85	224.85
900.15	224.87
900.46	224.87
900.76	224.90
901.07	224.90
901.38	224.91
901.68	224.93
901.99	224.89
902.29	224.87
902.60	224.86
902.90	224.84
903.21	224.86
903.51	224.87
903.82	224.89
904.12	224.89
904.43	224.87
904.73	224.85
905.03	224.90
905.34	225.00
905.64	225.01
905.95	225.01
906.25	225.03
906.56	225.02
906.86	225.03
907.17	225.00
907.47	225.04
907.77	225.05
908.08	225.03
908.38	225.02
908.69	225.04
908.99	225.08
909.30	225.09
909.60	225.13
909.90	225.13
910.21	225.13
910.51	225.11
910.81	225.11
911.12	225.16
911.42	225.16
911.73	225.09
912.03	225.11
912.33	225.15
912.64	225.13
912.94	225.13
913.24	225.12
913.55	225.12
913.85	225.11
914.15	225.14
914.46	225.16
914.76	225.16
915.06	225.13
915.37	225.10
915.67	225.08
915.97	225.05
916.27	225.06
916.58	225.05
916.88	225.03
917.18	225.04
917.49	225.11
917.79	225.12
918.09	225.11
918.39	225.15
918.70	225.14
919.00	225.16
919.30	225.22
919.60	225.23
919.91	225.22
920.21	225.22
920.51	225.19
920.81	225.17
921.12	225.18
921.42	225.19
921.72	225.22
922.02	225.25
922.32	225.26
922.63	225.25
922.93	225.32
923.23	225.31
923.53	225.26
923.83	225.19
924.13	225.16
924.44	225.18
924.74	225.15
925.04	225.13
925.34	225.12
925.64	225.07
925.94	225.07
926.24	225.11
926.55	225.09
926.85	225.09
927.15	225.08
927.45	225.06
927.75	225.04
928.05	225.01
928.35	224.95
928.65	224.96
928.95	224.96
929.26	224.89
929.56	224.95
929.86	224.99
930.16	224.98
930.46	224.96
930.76	224.94
931.06	224.93
931.36	224.92
931.66	224.93
931.96	224.94
932.26	224.97
932.56	224.95
932.86	224.95
933.16	224.97
933.46	224.98
933.76	225.00
934.06	225.02
934.36	225.03
934.66	225.03
934.96	225.01
935.26	225.02
935.56	225.05
935.86	225.00
936.16	225.00
936.46	224.99
936.76	225.02
937.06	225.01
937.36	224.99
937.66	224.96
937.96	224.95
938.26	224.95
938.56	224.93
938.86	224.92
939.16	224.95
939.46	224.97
939.76	224.98
940.06	224.96
940.35	224.94
940.65	224.97
940.95	225.02
941.25	225.02
941.55	225.01
941.85	225.00
942.15	225.03
942.45	225.04
942.75	225.06
943.04	225.06
943.34	225.07
943.64	225.09
943.94	225.11
944.24	225.13
944.54	225.13
944.84	225.15
945.13	225.14
945.43	225.13
945.73	225.10
946.03	225.09
946.33	225.11
946.62	225.08
946.92	225.08
947.22	225.07
947.52	225.07
947.82	225.08
948.11	225.05
948.41	225.04
948.71	225.00
949.01	225.00
949.31	224.99
949.60	225.00
949.90	225.00
950.20	225.01
950.50	225.00
950.79	224.99
951.09	225.01
951.39	225.01
951.69	225.02
951.98	225.04
952.28	225.05
952.58	225.02
952.87	225.05
953.17	225.07
953.47	225.06
953.76	225.07
954.06	225.06
954.36	225.05
954.66	225.06
954.95	225.11
955.25	225.14
955.55	225.13
955.84	225.11
956.14	225.12
956.44	225.11
956.73	225.06
957.03	225.10
957.32	225.09
957.62	225.08
957.92	225.09
958.21	225.08
958.51	225.19
958.81	225.21
959.10	225.21
959.40	225.23
959.69	225.24
959.99	225.23
960.29	225.22
960.58	225.20
960.88	225.23
961.17	225.18
961.47	225.18
961.76	225.19
962.06	225.20
962.36	225.19
962.65	225.21
962.95	225.24
963.24	225.19
963.54	225.18
963.83	225.17
964.13	225.12
964.42	225.09
964.72	225.02
965.01	225.00
965.31	225.00
965.60	224.93
965.90	224.97
966.19	224.92
966.49	224.91
966.78	224.94
967.08	224.91
967.37	224.91
967.67	224.89
967.96	224.88
968.26	224.87
968.55	224.87
968.85	224.84
969.14	224.83
969.43	224.85
969.73	224.82
970.02	224.80
970.32	224.84
970.61	224.83
970.91	224.78
971.20	224.78
971.49	224.76
971.79	224.76
972.08	224.69
972.38	224.72
972.67	224.76
972.96	224.76
973.26	224.74
973.55	224.75
973.85	224.72
974.14	224.68
974.43	224.69
974.73	224.67
975.02	224.69
975.31	224.67
975.61	224.69
975.90	224.70
976.19	224.70
976.49	224.71
976.78	224.72
977.07	224.74
977.37	224.73
977.66	224.74
977.95	224.79
978.24	224.79
978.54	224.80
978.83	224.78
979.12	224.75
979.42	224.78
979.71	224.82
980.00	224.83
980.29	224.86
980.59	224.83
980.88	224.85
981.17	224.82
981.46	224.82
981.76	224.80
982.05	224.82
982.34	224.82
982.63	224.81
982.93	224.79
983.22	224.79
983.51	224.79
983.80	224.80
984.09	224.77
984.39	224.78
984.68	224.77
984.97	224.79
985.26	224.82
985.55	224.81
985.85	224.79
986.14	224.80
986.43	224.81
986.72	224.85
987.01	224.81
987.30	224.80
987.59	224.79
987.89	224.77
988.18	224.74
988.47	224.74
988.76	224.72
989.05	224.73
989.34	224.75
989.63	224.77
989.92	224.76
990.22	224.75
990.51	224.71
990.80	224.75
991.09	224.73
991.38	224.74
991.67	224.73
991.96	224.70
992.25	224.71
992.54	224.69
992.83	224.70
993.12	224.72
993.41	224.75
993.70	224.80
993.99	224.83
994.28	224.83
994.58	224.86
994.87	224.84
995.16	224.81
995.45	224.81
995.74	224.80
996.03	224.82
996.32	224.85
996.61	224.92
996.90	224.88
997.19	224.88
997.48	224.86
997.77	224.85
998.06	224.86
998.34	224.87
998.63	224.89
998.92	224.88
999.21	224.88
999.50	224.91
999.79	224.86
1000.08	224.83
1000.37	224.85
1000.66	224.81
1000.95	224.89
1001.24	224.92
1001.53	224.91
1001.82	224.90
1002.11	224.87
1002.40	224.84
1002.68	224.82
1002.97	224.92
1003.26	224.95
1003.55	224.96
1003.84	224.96
1004.13	224.99
1004.42	224.96
1004.71	224.96
1004.99	224.94
1005.28	224.95
1005.57	224.95
1005.86	224.97
1006.15	224.99
1006.44	224.96
1006.72	225.00
1007.01	224.97
1007.30	224.97
1007.59	224.97
1007.88	224.98
1008.17	224.99
1008.45	225.02
1008.74	224.97
1009.03	224.91
1009.32	224.87
1009.60	224.86
1009.89	224.86
1010.18	224.83
1010.47	224.86
1010.76	224.83
1011.04	224.83
1011.33	224.84
1011.62	224.84
1011.91	224.85
1012.19	224.86
1012.48	224.90
1012.77	224.90
1013.05	224.94
1013.34	224.95
1013.63	224.93
1013.92	224.92
1014.20	224.92
1014.49	224.91
1014.78	224.97
1015.06	224.94
1015.35	224.94
1015.64	224.99
1015.92	225.01
1016.21	225.00
1016.50	224.99
1016.78	225.03
1017.07	225.03
1017.36	225.02
1017.64	225.02
1017.93	225.01
1018.22	225.00
1018.50	224.98
1018.79	225.01
1019.08	224.98
1019.36	225.00
1019.65	225.01
1019.93	225.06
1020.22	225.07
1020.51	225.12
1020.79	225.10
1021.08	224.60
1021.36	224.84
1021.65	225.53
1021.94	225.34
1022.22	225.37
1022.51	224.75
1022.79	225.65
1023.08	224.99
1023.36	226.36
1023.65	224.82
>>>>>End Processed Spectral Data<<<<<
