SpectraSuite Data File
++++++++++++++++++++++++++++++++++++
Date: Fri Feb 01 17:58:15 EST 2013
User: group
Dark Spectrum Present: No
Reference Spectrum Present: No
Number of Sampled Component Spectra: 1
Spectrometers: USB2E7196
Integration Time (usec): 35000 (USB2E7196)
Spectra Averaged: 100 (USB2E7196)
Boxcar Smoothing: 10 (USB2E7196)
Correct for Electrical Dark: No (USB2E7196)
Strobe/Lamp Enabled: No (USB2E7196)
Correct for Detector Non-linearity: No (USB2E7196)
Correct for Stray Light: No (USB2E7196)
Number of Pixels in Processed Spectrum: 2048
>>>>>Begin Processed Spectral Data<<<<<
339.09	0.00
339.48	212.91
339.86	214.01
340.24	215.64
340.63	216.79
341.01	219.76
341.39	219.58
341.78	220.59
342.16	221.68
342.54	222.39
342.93	211.31
343.31	221.99
343.69	222.52
344.07	222.99
344.46	223.42
344.84	223.83
345.22	224.08
345.60	224.35
345.99	224.57
346.37	224.72
346.75	224.83
347.13	224.89
347.52	224.95
347.90	225.05
348.28	225.06
348.66	225.10
349.05	225.07
349.43	225.11
349.81	225.17
350.19	225.23
350.57	225.31
350.96	225.38
351.34	225.47
351.72	225.59
352.10	225.67
352.48	225.76
352.87	225.82
353.25	225.87
353.63	225.96
354.01	226.01
354.39	226.08
354.77	226.16
355.15	226.22
355.54	226.26
355.92	226.28
356.30	226.34
356.68	226.47
357.06	226.50
357.44	226.56
357.82	226.62
358.20	226.67
358.58	226.71
358.97	226.75
359.35	226.82
359.73	226.87
360.11	226.93
360.49	226.94
360.87	226.99
361.25	227.07
361.63	227.09
362.01	227.14
362.39	227.17
362.77	227.24
363.15	227.28
363.53	227.33
363.91	227.34
364.29	227.39
364.67	227.30
365.05	227.32
365.43	227.31
365.81	227.35
366.19	227.40
366.57	227.44
366.95	227.45
367.33	227.43
367.71	227.38
368.09	227.40
368.47	227.40
368.85	227.32
369.23	227.30
369.61	227.28
369.99	227.27
370.37	227.25
370.75	227.27
371.13	227.22
371.51	227.19
371.89	227.18
372.27	227.11
372.65	227.10
373.03	227.06
373.41	227.03
373.78	226.98
374.16	226.85
374.54	226.75
374.92	226.67
375.30	226.60
375.68	226.57
376.06	226.50
376.44	226.47
376.82	226.48
377.19	226.43
377.57	226.34
377.95	226.28
378.33	226.23
378.71	226.10
379.09	226.07
379.47	226.00
379.84	225.94
380.22	225.89
380.60	225.80
380.98	225.77
381.36	225.70
381.73	225.66
382.11	225.64
382.49	225.62
382.87	225.53
383.25	225.51
383.62	225.57
384.00	225.49
384.38	225.42
384.76	225.37
385.13	225.36
385.51	225.34
385.89	225.28
386.27	225.23
386.64	225.22
387.02	225.16
387.40	225.15
387.78	225.09
388.15	225.06
388.53	225.06
388.91	225.01
389.29	224.99
389.66	224.95
390.04	224.92
390.42	224.89
390.79	224.91
391.17	224.87
391.55	224.77
391.92	224.80
392.30	224.81
392.68	224.78
393.05	224.75
393.43	224.74
393.81	224.78
394.18	224.73
394.56	224.74
394.94	224.78
395.31	224.77
395.69	224.82
396.06	224.88
396.44	224.89
396.82	224.91
397.19	225.00
397.57	225.02
397.95	225.08
398.32	225.11
398.70	225.17
399.07	225.22
399.45	225.25
399.82	225.29
400.20	225.34
400.58	225.42
400.95	225.46
401.33	225.55
401.70	225.65
402.08	225.79
402.45	225.90
402.83	225.99
403.20	226.10
403.58	226.20
403.95	226.32
404.33	226.46
404.71	226.63
405.08	226.80
405.46	226.98
405.83	227.14
406.21	227.30
406.58	227.49
406.96	227.70
407.33	227.94
407.70	228.17
408.08	228.48
408.45	228.76
408.83	229.06
409.20	229.28
409.58	229.54
409.95	229.84
410.33	230.16
410.70	230.47
411.08	230.84
411.45	231.26
411.82	231.64
412.20	232.06
412.57	232.54
412.95	232.91
413.32	233.43
413.69	233.95
414.07	234.51
414.44	235.12
414.82	235.74
415.19	236.46
415.56	237.19
415.94	237.92
416.31	238.77
416.68	239.56
417.06	240.55
417.43	241.45
417.81	242.47
418.18	243.50
418.55	244.61
418.93	245.76
419.30	246.94
419.67	248.21
420.04	249.52
420.42	250.86
420.79	252.48
421.16	254.01
421.54	255.59
421.91	257.23
422.28	258.92
422.66	260.70
423.03	262.39
423.40	264.20
423.77	266.12
424.15	268.04
424.52	270.03
424.89	272.20
425.26	274.27
425.64	276.24
426.01	278.43
426.38	280.67
426.75	282.94
427.13	285.23
427.50	287.64
427.87	290.15
428.24	292.61
428.61	294.92
428.99	297.51
429.36	300.35
429.73	303.13
430.10	305.84
430.47	308.60
430.85	311.52
431.22	314.52
431.59	317.63
431.96	320.62
432.33	323.97
432.70	327.15
433.08	330.97
433.45	334.49
433.82	337.97
434.19	341.85
434.56	345.65
434.93	349.21
435.30	352.76
435.68	356.66
436.05	360.49
436.42	364.25
436.79	367.67
437.16	371.37
437.53	375.17
437.90	378.93
438.27	382.66
438.64	386.44
439.01	389.93
439.38	393.00
439.75	395.93
440.13	399.31
440.50	402.51
440.87	404.97
441.24	407.60
441.61	410.49
441.98	412.55
442.35	414.98
442.72	417.56
443.09	420.00
443.46	421.33
443.83	422.13
444.20	422.88
444.57	424.04
444.94	424.42
445.31	424.91
445.68	425.42
446.05	425.50
446.42	424.97
446.79	424.44
447.16	423.87
447.53	423.50
447.90	421.99
448.27	420.38
448.64	418.24
449.01	416.71
449.37	414.07
449.74	411.46
450.11	408.42
450.48	405.06
450.85	401.64
451.22	398.81
451.59	396.14
451.96	393.50
452.33	389.96
452.70	386.77
453.07	382.97
453.43	379.11
453.80	375.43
454.17	371.88
454.54	368.45
454.91	364.77
455.28	361.10
455.65	357.70
456.02	354.37
456.38	351.49
456.75	347.88
457.12	344.86
457.49	341.87
457.86	338.94
458.23	336.43
458.59	333.67
458.96	330.78
459.33	328.21
459.70	325.66
460.07	323.59
460.43	321.25
460.80	319.04
461.17	317.04
461.54	314.97
461.91	313.00
462.27	310.99
462.64	309.27
463.01	307.45
463.38	305.67
463.74	303.86
464.11	302.30
464.48	300.88
464.85	299.36
465.21	298.19
465.58	296.91
465.95	295.43
466.32	294.17
466.68	292.94
467.05	291.74
467.42	290.57
467.78	289.34
468.15	288.15
468.52	287.22
468.88	286.05
469.25	284.99
469.62	284.09
469.98	283.18
470.35	282.31
470.72	281.48
471.08	280.63
471.45	279.87
471.82	279.10
472.18	278.31
472.55	277.72
472.92	277.01
473.28	276.38
473.65	275.77
474.02	275.18
474.38	274.68
474.75	274.23
475.11	273.71
475.48	273.32
475.85	272.95
476.21	272.60
476.58	272.31
476.94	272.08
477.31	271.84
477.67	271.56
478.04	271.36
478.41	271.23
478.77	271.18
479.14	271.05
479.50	271.00
479.87	271.01
480.23	271.04
480.60	271.04
480.96	271.05
481.33	271.21
481.69	271.34
482.06	271.51
482.42	271.66
482.79	271.88
483.15	272.11
483.52	272.48
483.88	272.80
484.25	273.17
484.61	273.55
484.98	273.99
485.34	274.55
485.71	275.11
486.07	275.70
486.44	276.25
486.80	276.93
487.17	277.66
487.53	278.54
487.90	279.37
488.26	280.33
488.62	281.39
488.99	282.43
489.35	283.54
489.72	284.70
490.08	285.94
490.44	287.25
490.81	288.68
491.17	290.06
491.54	291.57
491.90	293.21
492.26	294.93
492.63	296.75
492.99	298.61
493.36	300.65
493.72	302.78
494.08	304.99
494.45	307.40
494.81	309.92
495.17	312.42
495.54	315.13
495.90	317.97
496.26	320.88
496.63	323.98
496.99	327.27
497.35	330.72
497.72	334.38
498.08	338.06
498.44	341.93
498.80	346.12
499.17	350.44
499.53	354.86
499.89	359.51
500.26	364.33
500.62	369.31
500.98	374.55
501.34	379.98
501.71	385.62
502.07	391.32
502.43	397.26
502.79	403.46
503.16	409.85
503.52	416.50
503.88	423.27
504.24	430.30
504.60	437.64
504.97	445.18
505.33	452.92
505.69	461.15
506.05	469.41
506.41	477.79
506.78	486.44
507.14	495.42
507.50	504.72
507.86	514.25
508.22	524.04
508.59	533.82
508.95	544.01
509.31	554.48
509.67	565.30
510.03	576.30
510.39	587.57
510.75	599.15
511.12	610.86
511.48	623.00
511.84	635.24
512.20	647.59
512.56	660.44
512.92	673.45
513.28	686.69
513.64	700.01
514.00	713.64
514.37	727.65
514.73	741.73
515.09	755.71
515.45	769.99
515.81	784.66
516.17	799.74
516.53	815.04
516.89	830.42
517.25	845.79
517.61	861.31
517.97	877.05
518.33	892.63
518.69	908.63
519.05	924.83
519.41	941.38
519.77	958.25
520.13	974.97
520.49	991.76
520.85	1008.56
521.21	1025.75
521.57	1043.47
521.93	1060.60
522.29	1078.47
522.65	1096.23
523.01	1113.96
523.37	1131.42
523.73	1149.17
524.09	1166.83
524.45	1184.58
524.81	1202.75
525.17	1221.16
525.53	1239.64
525.89	1258.25
526.25	1276.78
526.61	1294.90
526.97	1313.28
527.33	1331.37
527.68	1349.77
528.04	1367.97
528.40	1386.29
528.76	1405.26
529.12	1423.70
529.48	1442.53
529.84	1460.34
530.20	1478.91
530.56	1497.83
530.91	1517.36
531.27	1536.08
531.63	1554.53
531.99	1573.14
532.35	1591.10
532.71	1609.23
533.07	1627.54
533.42	1645.51
533.78	1663.71
534.14	1682.16
534.50	1699.63
534.86	1717.71
535.21	1735.00
535.57	1753.11
535.93	1770.78
536.29	1787.59
536.65	1804.77
537.00	1821.52
537.36	1839.07
537.72	1855.76
538.08	1872.37
538.44	1888.24
538.79	1904.29
539.15	1919.87
539.51	1935.77
539.87	1952.37
540.22	1968.17
540.58	1984.24
540.94	1999.75
541.29	2014.63
541.65	2029.48
542.01	2044.94
542.37	2059.49
542.72	2074.11
543.08	2088.12
543.44	2102.78
543.79	2116.32
544.15	2129.36
544.51	2143.25
544.87	2156.29
545.22	2169.19
545.58	2181.65
545.94	2193.63
546.29	2205.60
546.65	2217.75
547.01	2229.17
547.36	2239.85
547.72	2250.41
548.07	2260.37
548.43	2270.50
548.79	2280.64
549.14	2290.26
549.50	2299.46
549.86	2308.95
550.21	2318.25
550.57	2327.35
550.92	2335.74
551.28	2344.64
551.64	2353.67
551.99	2362.20
552.35	2370.38
552.70	2378.65
553.06	2386.47
553.41	2394.72
553.77	2402.46
554.13	2410.33
554.48	2418.37
554.84	2425.87
555.19	2432.61
555.55	2439.54
555.90	2445.72
556.26	2452.38
556.61	2458.58
556.97	2464.74
557.32	2470.68
557.68	2476.43
558.03	2482.34
558.39	2487.62
558.74	2494.02
559.10	2499.67
559.45	2504.75
559.81	2510.52
560.16	2515.68
560.52	2520.33
560.87	2525.07
561.23	2529.20
561.58	2533.51
561.94	2537.29
562.29	2540.81
562.64	2545.12
563.00	2548.79
563.35	2553.75
563.71	2558.16
564.06	2562.71
564.42	2566.88
564.77	2570.59
565.12	2574.08
565.48	2577.28
565.83	2580.45
566.19	2582.87
566.54	2584.50
566.89	2586.71
567.25	2588.26
567.60	2590.49
567.96	2593.53
568.31	2595.22
568.66	2597.40
569.02	2598.83
569.37	2600.15
569.72	2601.94
570.08	2602.79
570.43	2603.58
570.78	2603.84
571.14	2602.99
571.49	2602.26
571.84	2602.64
572.20	2602.31
572.55	2601.90
572.90	2600.62
573.26	2599.65
573.61	2598.19
573.96	2597.07
574.31	2594.31
574.67	2591.56
575.02	2588.07
575.37	2584.58
575.72	2581.07
576.08	2577.68
576.43	2574.55
576.78	2570.88
577.13	2567.72
577.49	2564.69
577.84	2561.22
578.19	2557.40
578.54	2553.83
578.90	2549.68
579.25	2543.59
579.60	2538.19
579.95	2532.92
580.30	2527.65
580.66	2522.19
581.01	2516.80
581.36	2511.49
581.71	2507.27
582.06	2502.67
582.42	2498.21
582.77	2492.64
583.12	2487.81
583.47	2483.02
583.82	2477.63
584.17	2472.04
584.53	2466.23
584.88	2460.22
585.23	2454.05
585.58	2448.00
585.93	2441.87
586.28	2436.56
586.63	2431.21
586.98	2425.64
587.34	2420.42
587.69	2415.03
588.04	2409.29
588.39	2403.33
588.74	2396.14
589.09	2389.33
589.44	2381.80
589.79	2374.74
590.14	2368.43
590.49	2361.06
590.84	2353.80
591.19	2347.04
591.54	2339.78
591.89	2331.66
592.25	2324.13
592.60	2316.06
592.95	2307.55
593.30	2299.31
593.65	2290.61
594.00	2282.57
594.35	2274.33
594.70	2265.13
595.05	2257.16
595.40	2248.89
595.75	2240.34
596.10	2233.37
596.45	2225.67
596.80	2218.79
597.15	2211.43
597.50	2203.47
597.85	2195.95
598.19	2188.26
598.54	2180.30
598.89	2172.64
599.24	2165.80
599.59	2158.22
599.94	2151.09
600.29	2143.95
600.64	2136.33
600.99	2127.92
601.34	2120.21
601.69	2112.24
602.04	2104.57
602.39	2095.96
602.74	2088.18
603.08	2080.23
603.43	2072.48
603.78	2063.79
604.13	2055.17
604.48	2046.68
604.83	2038.73
605.18	2030.90
605.53	2021.85
605.87	2012.50
606.22	2004.01
606.57	1994.65
606.92	1985.93
607.27	1977.64
607.62	1969.41
607.96	1961.03
608.31	1953.31
608.66	1944.23
609.01	1935.41
609.36	1926.48
609.70	1917.11
610.05	1907.60
610.40	1898.78
610.75	1889.04
611.10	1880.14
611.44	1870.28
611.79	1860.87
612.14	1850.62
612.49	1839.84
612.83	1829.96
613.18	1820.51
613.53	1811.00
613.88	1801.06
614.22	1791.31
614.57	1781.07
614.92	1771.60
615.27	1762.68
615.61	1752.86
615.96	1743.58
616.31	1734.47
616.65	1725.77
617.00	1716.90
617.35	1707.96
617.70	1698.19
618.04	1688.11
618.39	1678.49
618.74	1669.72
619.08	1660.06
619.43	1651.18
619.78	1643.07
620.12	1634.62
620.47	1625.73
620.82	1616.19
621.16	1607.38
621.51	1598.39
621.85	1589.40
622.20	1579.51
622.55	1569.68
622.89	1560.44
623.24	1551.45
623.59	1542.78
623.93	1533.85
624.28	1525.41
624.62	1516.47
624.97	1507.95
625.32	1499.97
625.66	1491.69
626.01	1483.16
626.35	1474.54
626.70	1465.36
627.04	1456.20
627.39	1446.93
627.73	1438.30
628.08	1430.24
628.43	1421.84
628.77	1413.28
629.12	1404.44
629.46	1396.07
629.81	1387.22
630.15	1378.78
630.50	1370.06
630.84	1360.67
631.19	1351.40
631.53	1342.48
631.88	1333.61
632.22	1324.74
632.57	1316.27
632.91	1307.52
633.26	1298.93
633.60	1290.14
633.95	1281.81
634.29	1273.53
634.64	1265.85
634.98	1257.22
635.32	1248.69
635.67	1240.72
636.01	1232.98
636.36	1225.00
636.70	1217.17
637.05	1209.58
637.39	1201.93
637.73	1194.29
638.08	1187.18
638.42	1180.15
638.77	1172.62
639.11	1164.89
639.45	1157.40
639.80	1149.51
640.14	1142.02
640.49	1134.35
640.83	1127.03
641.17	1119.81
641.52	1112.39
641.86	1104.69
642.20	1097.82
642.55	1090.51
642.89	1083.00
643.23	1075.28
643.58	1068.64
643.92	1061.48
644.26	1054.50
644.61	1047.45
644.95	1040.47
645.29	1032.93
645.64	1025.11
645.98	1017.72
646.32	1011.01
646.66	1003.99
647.01	997.29
647.35	990.60
647.69	983.78
648.04	977.31
648.38	970.60
648.72	963.69
649.06	956.77
649.41	949.98
649.75	943.21
650.09	936.51
650.43	929.90
650.78	922.70
651.12	915.86
651.46	909.25
651.80	902.72
652.14	896.44
652.49	890.22
652.83	884.25
653.17	877.85
653.51	871.22
653.85	864.95
654.20	858.54
654.54	851.66
654.88	845.03
655.22	838.30
655.56	831.65
655.90	825.35
656.25	819.32
656.59	813.06
656.93	807.05
657.27	801.02
657.61	794.68
657.95	788.82
658.29	782.97
658.64	776.80
658.98	770.68
659.32	764.35
659.66	758.38
660.00	752.37
660.34	746.56
660.68	740.91
661.02	735.13
661.36	729.67
661.70	724.48
662.05	719.42
662.39	714.40
662.73	709.30
663.07	704.24
663.41	699.12
663.75	693.99
664.09	688.73
664.43	683.66
664.77	678.90
665.11	673.99
665.45	669.18
665.79	664.51
666.13	659.72
666.47	655.01
666.81	650.22
667.15	645.38
667.49	640.93
667.83	636.45
668.17	631.92
668.51	627.25
668.85	622.57
669.19	618.15
669.53	613.74
669.87	609.27
670.21	605.04
670.55	600.78
670.89	596.76
671.23	592.85
671.57	588.73
671.91	584.68
672.25	580.64
672.58	576.64
672.92	572.69
673.26	569.03
673.60	565.33
673.94	561.78
674.28	558.41
674.62	554.99
674.96	551.43
675.30	548.03
675.64	544.66
675.97	541.41
676.31	538.13
676.65	534.77
676.99	531.68
677.33	528.35
677.67	525.10
678.01	521.69
678.34	518.29
678.68	515.02
679.02	511.75
679.36	508.52
679.70	505.38
680.04	502.21
680.37	498.93
680.71	495.75
681.05	492.69
681.39	489.55
681.73	486.47
682.06	483.59
682.40	480.67
682.74	477.73
683.08	474.76
683.42	471.72
683.75	468.79
684.09	465.80
684.43	462.89
684.77	460.07
685.10	457.29
685.44	454.57
685.78	451.87
686.12	449.34
686.45	446.66
686.79	443.94
687.13	441.40
687.46	438.88
687.80	436.35
688.14	433.72
688.48	431.38
688.81	428.78
689.15	426.27
689.49	423.77
689.82	421.30
690.16	418.88
690.50	416.65
690.83	414.47
691.17	412.17
691.51	410.00
691.84	407.87
692.18	405.65
692.52	403.33
692.85	401.08
693.19	398.86
693.52	396.74
693.86	394.71
694.20	392.65
694.53	390.55
694.87	388.43
695.21	386.42
695.54	384.27
695.88	382.21
696.21	380.20
696.55	378.29
696.88	376.37
697.22	374.45
697.56	372.53
697.89	370.59
698.23	368.73
698.56	366.88
698.90	365.05
699.23	363.15
699.57	361.37
699.90	359.57
700.24	357.79
700.58	356.09
700.91	354.34
701.25	352.68
701.58	351.12
701.92	349.57
702.25	347.95
702.59	346.38
702.92	344.90
703.26	343.44
703.59	341.98
703.93	340.61
704.26	339.24
704.60	337.73
704.93	336.28
705.26	334.82
705.60	333.43
705.93	332.05
706.27	330.84
706.60	329.66
706.94	328.42
707.27	327.09
707.61	325.81
707.94	324.63
708.27	323.37
708.61	322.10
708.94	320.93
709.28	319.78
709.61	318.67
709.94	317.57
710.28	316.29
710.61	315.14
710.95	313.89
711.28	312.79
711.61	311.73
711.95	310.68
712.28	309.63
712.61	308.51
712.95	307.38
713.28	306.34
713.61	305.27
713.95	304.30
714.28	303.33
714.61	302.32
714.95	301.34
715.28	300.31
715.61	299.26
715.95	298.29
716.28	297.28
716.61	296.30
716.95	295.31
717.28	294.48
717.61	293.56
717.94	292.69
718.28	291.77
718.61	290.91
718.94	290.08
719.27	289.28
719.61	288.51
719.94	287.76
720.27	286.93
720.60	286.18
720.94	285.42
721.27	284.74
721.60	284.10
721.93	283.35
722.27	282.72
722.60	282.09
722.93	281.41
723.26	280.80
723.59	280.15
723.93	279.54
724.26	278.93
724.59	278.29
724.92	277.67
725.25	277.09
725.59	276.49
725.92	275.88
726.25	275.28
726.58	274.69
726.91	274.14
727.24	273.58
727.57	273.05
727.91	272.43
728.24	271.88
728.57	271.30
728.90	270.79
729.23	270.22
729.56	269.70
729.89	269.14
730.22	268.58
730.55	268.04
730.89	267.51
731.22	266.98
731.55	266.48
731.88	265.99
732.21	265.52
732.54	265.02
732.87	264.57
733.20	264.10
733.53	263.69
733.86	263.29
734.19	262.84
734.52	262.37
734.85	262.03
735.18	261.55
735.51	261.11
735.84	260.69
736.17	260.27
736.50	259.83
736.83	259.58
737.16	259.20
737.49	258.83
737.82	258.40
738.15	257.98
738.48	257.59
738.81	257.21
739.14	256.82
739.47	256.42
739.80	256.02
740.13	255.65
740.46	255.23
740.79	254.83
741.12	254.50
741.45	254.12
741.78	253.71
742.11	253.40
742.44	253.01
742.77	252.71
743.10	252.38
743.43	252.01
743.75	251.60
744.08	251.38
744.41	251.09
744.74	250.76
745.07	250.49
745.40	250.21
745.73	249.94
746.06	249.65
746.39	249.39
746.71	249.08
747.04	248.77
747.37	248.49
747.70	248.19
748.03	247.91
748.36	247.68
748.68	247.43
749.01	247.13
749.34	246.89
749.67	246.57
750.00	246.29
750.33	246.10
750.65	245.83
750.98	245.45
751.31	245.19
751.64	244.99
751.97	244.78
752.29	244.51
752.62	244.17
752.95	243.93
753.28	243.66
753.60	243.42
753.93	243.23
754.26	243.02
754.59	242.79
754.91	242.50
755.24	242.24
755.57	242.01
755.90	241.80
756.22	241.58
756.55	241.37
756.88	241.15
757.20	240.87
757.53	240.60
757.86	240.45
758.19	240.24
758.51	240.03
758.84	239.79
759.17	239.61
759.49	239.47
759.82	239.31
760.15	239.16
760.47	239.00
760.80	238.80
761.13	238.63
761.45	238.43
761.78	238.27
762.11	238.11
762.43	237.95
762.76	237.75
763.08	237.59
763.41	237.44
763.74	237.30
764.06	237.14
764.39	237.01
764.71	236.80
765.04	236.64
765.37	236.47
765.69	236.28
766.02	236.13
766.34	235.95
766.67	235.80
767.00	235.68
767.32	235.59
767.65	235.50
767.97	235.36
768.30	235.23
768.62	235.09
768.95	234.96
769.27	234.83
769.60	234.74
769.92	234.60
770.25	234.47
770.57	234.34
770.90	234.23
771.22	234.11
771.55	234.03
771.87	233.91
772.20	233.78
772.52	233.81
772.85	233.82
773.17	233.69
773.50	233.55
773.82	233.41
774.15	233.26
774.47	233.08
774.80	232.96
775.12	232.89
775.45	232.82
775.77	232.74
776.09	232.63
776.42	232.52
776.74	232.49
777.07	232.41
777.39	232.32
777.72	232.23
778.04	232.17
778.36	232.06
778.69	232.01
779.01	231.96
779.33	231.77
779.66	231.57
779.98	231.53
780.31	231.48
780.63	231.44
780.95	231.39
781.28	231.34
781.60	231.28
781.92	231.18
782.25	231.08
782.57	231.01
782.89	230.94
783.22	230.88
783.54	230.79
783.86	230.74
784.19	230.69
784.51	230.67
784.83	230.59
785.16	230.56
785.48	230.50
785.80	230.48
786.12	230.47
786.45	230.44
786.77	230.41
787.09	230.36
787.42	230.32
787.74	230.25
788.06	230.23
788.38	230.20
788.71	230.18
789.03	230.16
789.35	230.12
789.67	230.12
789.99	230.10
790.32	230.02
790.64	230.00
790.96	230.05
791.28	229.98
791.61	229.97
791.93	229.92
792.25	229.85
792.57	229.84
792.89	229.79
793.21	229.75
793.54	229.70
793.86	229.64
794.18	229.58
794.50	229.55
794.82	229.53
795.14	229.49
795.47	229.47
795.79	229.44
796.11	229.39
796.43	229.30
796.75	229.26
797.07	229.24
797.39	229.19
797.71	229.08
798.04	229.05
798.36	229.00
798.68	228.98
799.00	228.98
799.32	228.91
799.64	228.89
799.96	228.88
800.28	228.82
800.60	228.80
800.92	228.75
801.24	228.70
801.56	228.64
801.89	228.58
802.21	228.57
802.53	228.52
802.85	228.52
803.17	228.58
803.49	228.50
803.81	228.48
804.13	228.43
804.45	228.37
804.77	228.34
805.09	228.28
805.41	228.23
805.73	228.18
806.05	228.12
806.37	228.07
806.69	228.01
807.01	227.96
807.33	227.90
807.65	227.84
807.97	227.87
808.28	227.84
808.60	227.82
808.92	227.72
809.24	227.74
809.56	227.65
809.88	227.56
810.20	227.54
810.52	227.50
810.84	227.45
811.16	227.43
811.48	227.37
811.80	227.40
812.12	227.35
812.43	227.32
812.75	227.29
813.07	227.22
813.39	227.18
813.71	227.16
814.03	227.13
814.35	227.12
814.67	227.06
814.98	227.02
815.30	226.97
815.62	226.96
815.94	226.90
816.26	226.92
816.58	226.89
816.89	226.89
817.21	226.86
817.53	226.85
817.85	226.81
818.17	226.81
818.48	226.76
818.80	226.76
819.12	226.74
819.44	226.72
819.76	226.72
820.07	226.73
820.39	226.69
820.71	226.67
821.03	226.64
821.34	226.60
821.66	226.61
821.98	226.64
822.30	226.60
822.61	226.61
822.93	226.54
823.25	226.53
823.57	226.53
823.88	226.52
824.20	226.48
824.52	226.50
824.83	226.49
825.15	226.45
825.47	226.42
825.79	226.41
826.10	226.38
826.42	226.38
826.74	226.32
827.05	226.32
827.37	226.32
827.69	226.29
828.00	226.29
828.32	226.26
828.64	226.21
828.95	226.24
829.27	226.21
829.58	226.19
829.90	226.19
830.22	226.16
830.53	226.14
830.85	226.15
831.17	226.13
831.48	226.10
831.80	226.10
832.11	226.09
832.43	226.07
832.75	226.07
833.06	226.10
833.38	226.10
833.69	226.10
834.01	226.08
834.32	226.10
834.64	226.09
834.96	226.08
835.27	226.07
835.59	226.05
835.90	226.04
836.22	226.06
836.53	226.03
836.85	225.97
837.16	226.08
837.48	226.04
837.79	226.07
838.11	226.08
838.42	226.07
838.74	226.09
839.05	226.06
839.37	226.07
839.68	226.01
840.00	225.99
840.31	225.98
840.63	225.95
840.94	225.93
841.26	225.92
841.57	225.90
841.88	225.92
842.20	225.90
842.51	225.89
842.83	225.87
843.14	225.96
843.46	225.96
843.77	225.90
844.08	225.90
844.40	225.83
844.71	225.82
845.03	225.82
845.34	225.82
845.65	225.80
845.97	225.79
846.28	225.77
846.60	225.80
846.91	225.78
847.22	225.81
847.54	225.81
847.85	225.81
848.16	225.78
848.48	225.74
848.79	225.80
849.10	225.82
849.42	225.84
849.73	225.73
850.04	225.75
850.36	225.70
850.67	225.71
850.98	225.72
851.30	225.71
851.61	225.67
851.92	225.63
852.23	225.67
852.55	225.67
852.86	225.69
853.17	225.67
853.49	225.68
853.80	225.69
854.11	225.67
854.42	225.69
854.74	225.67
855.05	225.69
855.36	225.60
855.67	225.56
855.99	225.52
856.30	225.62
856.61	225.59
856.92	225.57
857.23	225.53
857.55	225.52
857.86	225.48
858.17	225.51
858.48	225.49
858.79	225.45
859.11	225.44
859.42	225.41
859.73	225.38
860.04	225.36
860.35	225.32
860.66	225.32
860.98	225.28
861.29	225.30
861.60	225.26
861.91	225.26
862.22	225.25
862.53	225.24
862.84	225.13
863.16	225.16
863.47	225.15
863.78	225.19
864.09	225.17
864.40	225.19
864.71	225.19
865.02	225.21
865.33	225.20
865.64	225.20
865.95	225.19
866.27	225.24
866.58	225.24
866.89	225.24
867.20	225.23
867.51	225.23
867.82	225.22
868.13	225.26
868.44	225.22
868.75	225.23
869.06	225.26
869.37	225.24
869.68	225.21
869.99	225.25
870.30	225.24
870.61	225.24
870.92	225.24
871.23	225.21
871.54	225.22
871.85	225.24
872.16	225.23
872.47	225.24
872.78	225.24
873.09	225.27
873.40	225.28
873.71	225.31
874.02	225.31
874.33	225.32
874.64	225.30
874.95	225.34
875.26	225.32
875.56	225.32
875.87	225.34
876.18	225.34
876.49	225.43
876.80	225.42
877.11	225.41
877.42	225.40
877.73	225.41
878.04	225.36
878.35	225.37
878.66	225.39
878.96	225.38
879.27	225.37
879.58	225.34
879.89	225.34
880.20	225.34
880.51	225.36
880.82	225.37
881.12	225.38
881.43	225.37
881.74	225.39
882.05	225.36
882.36	225.35
882.67	225.36
882.97	225.26
883.28	225.27
883.59	225.30
883.90	225.31
884.21	225.32
884.51	225.32
884.82	225.32
885.13	225.28
885.44	225.26
885.74	225.24
886.05	225.24
886.36	225.25
886.67	225.19
886.98	225.24
887.28	225.23
887.59	225.23
887.90	225.24
888.20	225.20
888.51	225.25
888.82	225.24
889.13	225.23
889.43	225.30
889.74	225.28
890.05	225.29
890.35	225.27
890.66	225.27
890.97	225.25
891.28	225.22
891.58	225.24
891.89	225.25
892.20	225.24
892.50	225.24
892.81	225.21
893.12	225.22
893.42	225.17
893.73	225.17
894.04	225.14
894.34	225.15
894.65	225.14
894.95	225.10
895.26	225.10
895.57	225.15
895.87	225.05
896.18	225.06
896.48	225.01
896.79	225.01
897.10	225.01
897.40	225.05
897.71	225.06
898.01	225.03
898.32	225.03
898.63	225.03
898.93	224.99
899.24	224.97
899.54	224.95
899.85	224.93
900.15	224.92
900.46	224.95
900.76	224.92
901.07	224.91
901.38	224.93
901.68	224.91
901.99	224.84
902.29	224.83
902.60	224.83
902.90	224.84
903.21	224.83
903.51	224.85
903.82	224.85
904.12	224.84
904.43	224.86
904.73	224.84
905.03	224.83
905.34	224.96
905.64	224.97
905.95	224.95
906.25	224.94
906.56	224.93
906.86	224.91
907.17	224.92
907.47	224.93
907.77	224.90
908.08	224.90
908.38	224.92
908.69	224.96
908.99	224.95
909.30	225.00
909.60	225.00
909.90	225.00
910.21	224.95
910.51	224.95
910.81	224.92
911.12	224.94
911.42	224.96
911.73	224.85
912.03	224.88
912.33	224.94
912.64	224.94
912.94	224.95
913.24	224.93
913.55	224.92
913.85	224.91
914.15	224.94
914.46	224.95
914.76	224.94
915.06	224.90
915.37	224.92
915.67	224.87
915.97	224.88
916.27	224.84
916.58	224.85
916.88	224.88
917.18	224.90
917.49	224.96
917.79	224.96
918.09	224.97
918.39	224.97
918.70	224.95
919.00	224.97
919.30	225.00
919.60	225.00
919.91	224.96
920.21	225.00
920.51	224.97
920.81	224.97
921.12	224.97
921.42	224.98
921.72	224.95
922.02	224.94
922.32	224.96
922.63	224.96
922.93	225.02
923.23	224.98
923.53	224.96
923.83	224.92
924.13	224.93
924.44	224.92
924.74	224.98
925.04	224.95
925.34	224.95
925.64	224.89
925.94	224.91
926.24	225.00
926.55	225.00
926.85	225.02
927.15	225.02
927.45	225.01
927.75	225.02
928.05	225.04
928.35	225.03
928.65	225.00
928.95	224.99
929.26	224.93
929.56	224.98
929.86	224.96
930.16	224.93
930.46	224.90
930.76	224.94
931.06	224.88
931.36	224.91
931.66	224.94
931.96	224.97
932.26	224.95
932.56	224.90
932.86	224.88
933.16	224.88
933.46	224.84
933.76	224.83
934.06	224.81
934.36	224.85
934.66	224.82
934.96	224.81
935.26	224.85
935.56	224.86
935.86	224.83
936.16	224.84
936.46	224.84
936.76	224.82
937.06	224.75
937.36	224.73
937.66	224.73
937.96	224.71
938.26	224.67
938.56	224.68
938.86	224.68
939.16	224.68
939.46	224.68
939.76	224.72
940.06	224.72
940.35	224.70
940.65	224.64
940.95	224.68
941.25	224.67
941.55	224.65
941.85	224.64
942.15	224.66
942.45	224.70
942.75	224.69
943.04	224.71
943.34	224.76
943.64	224.77
943.94	224.72
944.24	224.73
944.54	224.73
944.84	224.71
945.13	224.70
945.43	224.71
945.73	224.72
946.03	224.68
946.33	224.66
946.62	224.67
946.92	224.68
947.22	224.68
947.52	224.71
947.82	224.73
948.11	224.72
948.41	224.70
948.71	224.66
949.01	224.65
949.31	224.63
949.60	224.61
949.90	224.62
950.20	224.65
950.50	224.66
950.79	224.64
951.09	224.64
951.39	224.64
951.69	224.60
951.98	224.59
952.28	224.62
952.58	224.64
952.87	224.61
953.17	224.61
953.47	224.61
953.76	224.58
954.06	224.56
954.36	224.54
954.66	224.52
954.95	224.59
955.25	224.64
955.55	224.66
955.84	224.64
956.14	224.64
956.44	224.61
956.73	224.57
957.03	224.61
957.32	224.62
957.62	224.61
957.92	224.65
958.21	224.63
958.51	224.74
958.81	224.76
959.10	224.81
959.40	224.85
959.69	224.83
959.99	224.86
960.29	224.85
960.58	224.83
960.88	224.88
961.17	224.81
961.47	224.80
961.76	224.78
962.06	224.78
962.36	224.78
962.65	224.81
962.95	224.82
963.24	224.79
963.54	224.81
963.83	224.83
964.13	224.81
964.42	224.79
964.72	224.68
965.01	224.69
965.31	224.69
965.60	224.64
965.90	224.70
966.19	224.71
966.49	224.73
966.78	224.74
967.08	224.75
967.37	224.76
967.67	224.72
967.96	224.74
968.26	224.75
968.55	224.77
968.85	224.76
969.14	224.78
969.43	224.80
969.73	224.77
970.02	224.73
970.32	224.75
970.61	224.76
970.91	224.77
971.20	224.73
971.49	224.71
971.79	224.77
972.08	224.68
972.38	224.67
972.67	224.65
972.96	224.67
973.26	224.63
973.55	224.70
973.85	224.69
974.14	224.67
974.43	224.67
974.73	224.64
975.02	224.62
975.31	224.61
975.61	224.60
975.90	224.61
976.19	224.64
976.49	224.65
976.78	224.66
977.07	224.65
977.37	224.68
977.66	224.72
977.95	224.70
978.24	224.71
978.54	224.72
978.83	224.70
979.12	224.69
979.42	224.69
979.71	224.66
980.00	224.65
980.29	224.69
980.59	224.68
980.88	224.69
981.17	224.69
981.46	224.66
981.76	224.65
982.05	224.65
982.34	224.64
982.63	224.63
982.93	224.65
983.22	224.67
983.51	224.67
983.80	224.65
984.09	224.63
984.39	224.60
984.68	224.60
984.97	224.60
985.26	224.60
985.55	224.61
985.85	224.57
986.14	224.57
986.43	224.57
986.72	224.57
987.01	224.57
987.30	224.56
987.59	224.57
987.89	224.59
988.18	224.58
988.47	224.59
988.76	224.57
989.05	224.55
989.34	224.51
989.63	224.54
989.92	224.52
990.22	224.53
990.51	224.55
990.80	224.52
991.09	224.55
991.38	224.53
991.67	224.54
991.96	224.53
992.25	224.56
992.54	224.56
992.83	224.57
993.12	224.55
993.41	224.58
993.70	224.61
993.99	224.60
994.28	224.63
994.58	224.63
994.87	224.60
995.16	224.61
995.45	224.59
995.74	224.54
996.03	224.56
996.32	224.57
996.61	224.58
996.90	224.57
997.19	224.57
997.48	224.56
997.77	224.50
998.06	224.52
998.34	224.48
998.63	224.46
998.92	224.46
999.21	224.49
999.50	224.48
999.79	224.45
1000.08	224.48
1000.37	224.45
1000.66	224.43
1000.95	224.48
1001.24	224.47
1001.53	224.51
1001.82	224.50
1002.11	224.47
1002.40	224.49
1002.68	224.51
1002.97	224.59
1003.26	224.55
1003.55	224.61
1003.84	224.63
1004.13	224.62
1004.42	224.62
1004.71	224.63
1004.99	224.59
1005.28	224.59
1005.57	224.58
1005.86	224.57
1006.15	224.54
1006.44	224.53
1006.72	224.54
1007.01	224.52
1007.30	224.51
1007.59	224.48
1007.88	224.49
1008.17	224.50
1008.45	224.48
1008.74	224.42
1009.03	224.35
1009.32	224.37
1009.60	224.33
1009.89	224.33
1010.18	224.30
1010.47	224.30
1010.76	224.33
1011.04	224.33
1011.33	224.33
1011.62	224.34
1011.91	224.33
1012.19	224.33
1012.48	224.34
1012.77	224.35
1013.05	224.40
1013.34	224.40
1013.63	224.41
1013.92	224.41
1014.20	224.39
1014.49	224.39
1014.78	224.43
1015.06	224.42
1015.35	224.43
1015.64	224.42
1015.92	224.43
1016.21	224.46
1016.50	224.48
1016.78	224.45
1017.07	224.49
1017.36	224.46
1017.64	224.45
1017.93	224.50
1018.22	224.50
1018.50	224.51
1018.79	224.52
1019.08	224.47
1019.36	224.49
1019.65	224.47
1019.93	224.52
1020.22	224.51
1020.51	224.58
1020.79	224.59
1021.08	224.43
1021.36	224.48
1021.65	225.05
1021.94	224.53
1022.22	224.83
1022.51	224.02
1022.79	225.17
1023.08	223.91
1023.36	225.90
1023.65	225.04
>>>>>End Processed Spectral Data<<<<<
