SpectraSuite Data File
++++++++++++++++++++++++++++++++++++
Date: Fri Feb 01 16:08:19 EST 2013
User: group
Dark Spectrum Present: No
Reference Spectrum Present: No
Number of Sampled Component Spectra: 1
Spectrometers: USB2E7196
Integration Time (usec): 35000 (USB2E7196)
Spectra Averaged: 100 (USB2E7196)
Boxcar Smoothing: 10 (USB2E7196)
Correct for Electrical Dark: No (USB2E7196)
Strobe/Lamp Enabled: No (USB2E7196)
Correct for Detector Non-linearity: No (USB2E7196)
Correct for Stray Light: No (USB2E7196)
Number of Pixels in Processed Spectrum: 2048
>>>>>Begin Processed Spectral Data<<<<<
339.09	0.00
339.48	214.71
339.86	216.18
340.24	217.20
340.63	218.89
341.01	221.55
341.39	221.75
341.78	222.62
342.16	224.09
342.54	224.36
342.93	212.94
343.31	223.69
343.69	224.20
344.07	224.65
344.46	225.09
344.84	225.42
345.22	225.65
345.60	225.87
345.99	226.05
346.37	226.19
346.75	226.29
347.13	226.32
347.52	226.36
347.90	226.43
348.28	226.45
348.66	226.51
349.05	226.50
349.43	226.54
349.81	226.55
350.19	226.60
350.57	226.66
350.96	226.72
351.34	226.78
351.72	226.90
352.10	226.99
352.48	227.05
352.87	227.16
353.25	227.21
353.63	227.29
354.01	227.37
354.39	227.44
354.77	227.51
355.15	227.63
355.54	227.71
355.92	227.74
356.30	227.78
356.68	227.90
357.06	227.95
357.44	228.00
357.82	228.08
358.20	228.20
358.58	228.24
358.97	228.31
359.35	228.43
359.73	228.48
360.11	228.54
360.49	228.61
360.87	228.63
361.25	228.71
361.63	228.77
362.01	228.81
362.39	228.80
362.77	228.82
363.15	228.79
363.53	228.78
363.91	228.81
364.29	228.88
364.67	228.79
365.05	228.79
365.43	228.80
365.81	228.83
366.19	228.84
366.57	228.87
366.95	228.85
367.33	228.77
367.71	228.76
368.09	228.79
368.47	228.75
368.85	228.74
369.23	228.76
369.61	228.72
369.99	228.73
370.37	228.73
370.75	228.73
371.13	228.71
371.51	228.72
371.89	228.70
372.27	228.67
372.65	228.63
373.03	228.61
373.41	228.58
373.78	228.51
374.16	228.40
374.54	228.34
374.92	228.29
375.30	228.26
375.68	228.19
376.06	228.09
376.44	228.04
376.82	227.97
377.19	227.88
377.57	227.79
377.95	227.70
378.33	227.64
378.71	227.57
379.09	227.54
379.47	227.47
379.84	227.36
380.22	227.28
380.60	227.20
380.98	227.15
381.36	227.07
381.73	227.01
382.11	226.97
382.49	226.89
382.87	226.82
383.25	226.80
383.62	226.86
384.00	226.81
384.38	226.76
384.76	226.73
385.13	226.72
385.51	226.69
385.89	226.63
386.27	226.57
386.64	226.55
387.02	226.45
387.40	226.37
387.78	226.37
388.15	226.33
388.53	226.33
388.91	226.27
389.29	226.21
389.66	226.20
390.04	226.20
390.42	226.19
390.79	226.18
391.17	226.14
391.55	226.02
391.92	226.00
392.30	225.99
392.68	225.98
393.05	225.94
393.43	225.92
393.81	225.94
394.18	225.96
394.56	225.93
394.94	225.98
395.31	226.01
395.69	226.05
396.06	226.08
396.44	226.11
396.82	226.15
397.19	226.25
397.57	226.28
397.95	226.29
398.32	226.31
398.70	226.37
399.07	226.46
399.45	226.52
399.82	226.58
400.20	226.67
400.58	226.75
400.95	226.77
401.33	226.87
401.70	226.99
402.08	227.07
402.45	227.23
402.83	227.34
403.20	227.44
403.58	227.53
403.95	227.65
404.33	227.79
404.71	227.92
405.08	228.09
405.46	228.23
405.83	228.40
406.21	228.55
406.58	228.70
406.96	228.79
407.33	228.95
407.70	229.14
408.08	229.40
408.45	229.60
408.83	229.88
409.20	230.09
409.58	230.26
409.95	230.53
410.33	230.77
410.70	231.00
411.08	231.29
411.45	231.61
411.82	231.94
412.20	232.28
412.57	232.69
412.95	232.99
413.32	233.39
413.69	233.78
414.07	234.22
414.44	234.68
414.82	235.19
415.19	235.75
415.56	236.28
415.94	236.79
416.31	237.45
416.68	238.07
417.06	238.78
417.43	239.46
417.81	240.21
418.18	241.00
418.55	241.87
418.93	242.75
419.30	243.65
419.67	244.55
420.04	245.53
420.42	246.55
420.79	247.73
421.16	248.89
421.54	250.06
421.91	251.27
422.28	252.52
422.66	253.87
423.03	255.18
423.40	256.54
423.77	257.98
424.15	259.39
424.52	260.88
424.89	262.49
425.26	264.09
425.64	265.50
426.01	267.09
426.38	268.75
426.75	270.43
427.13	272.11
427.50	273.91
427.87	275.75
428.24	277.57
428.61	279.30
428.99	281.22
429.36	283.34
429.73	285.40
430.10	287.45
430.47	289.47
430.85	291.59
431.22	293.79
431.59	296.15
431.96	298.40
432.33	300.87
432.70	303.27
433.08	306.08
433.45	308.75
433.82	311.35
434.19	314.21
434.56	316.97
434.93	319.65
435.30	322.30
435.68	325.15
436.05	327.98
436.42	330.77
436.79	333.26
437.16	335.96
437.53	338.76
437.90	341.52
438.27	344.30
438.64	347.09
439.01	349.72
439.38	351.94
439.75	354.08
440.13	356.58
440.50	358.84
440.87	360.64
441.24	362.58
441.61	364.67
441.98	366.18
442.35	367.98
442.72	369.81
443.09	371.59
443.46	372.60
443.83	373.16
444.20	373.67
444.57	374.55
444.94	374.82
445.31	375.15
445.68	375.48
446.05	375.52
446.42	375.12
446.79	374.71
447.16	374.26
447.53	373.92
447.90	372.73
448.27	371.60
448.64	370.02
449.01	368.90
449.37	366.96
449.74	365.04
450.11	362.81
450.48	360.37
450.85	357.90
451.22	355.78
451.59	353.81
451.96	351.87
452.33	349.25
452.70	346.89
453.07	344.12
453.43	341.27
453.80	338.50
454.17	335.90
454.54	333.32
454.91	330.64
455.28	328.01
455.65	325.57
456.02	323.13
456.38	320.95
456.75	318.29
457.12	316.06
457.49	313.90
457.86	311.74
458.23	309.88
458.59	307.81
458.96	305.72
459.33	303.86
459.70	302.01
460.07	300.50
460.43	298.82
460.80	297.19
461.17	295.79
461.54	294.32
461.91	292.87
462.27	291.46
462.64	290.20
463.01	288.82
463.38	287.51
463.74	286.15
464.11	285.03
464.48	284.01
464.85	282.94
465.21	282.05
465.58	281.14
465.95	280.06
466.32	279.16
466.68	278.23
467.05	277.34
467.42	276.44
467.78	275.57
468.15	274.71
468.52	274.06
468.88	273.21
469.25	272.45
469.62	271.87
469.98	271.20
470.35	270.57
470.72	270.01
471.08	269.36
471.45	268.83
471.82	268.30
472.18	267.71
472.55	267.26
472.92	266.72
473.28	266.28
473.65	265.81
474.02	265.39
474.38	265.05
474.75	264.70
475.11	264.35
475.48	264.05
475.85	263.80
476.21	263.57
476.58	263.38
476.94	263.23
477.31	263.05
477.67	262.92
478.04	262.84
478.41	262.74
478.77	262.78
479.14	262.74
479.50	262.74
479.87	262.84
480.23	262.90
480.60	263.00
480.96	263.10
481.33	263.35
481.69	263.50
482.06	263.72
482.42	263.94
482.79	264.22
483.15	264.55
483.52	264.93
483.88	265.28
484.25	265.69
484.61	266.14
484.98	266.62
485.34	267.19
485.71	267.76
486.07	268.39
486.44	269.01
486.80	269.72
487.17	270.52
487.53	271.32
487.90	272.16
488.26	273.11
488.62	274.10
488.99	275.06
489.35	276.15
489.72	277.26
490.08	278.49
490.44	279.72
490.81	281.06
491.17	282.42
491.54	283.89
491.90	285.41
492.26	287.05
492.63	288.80
492.99	290.55
493.36	292.44
493.72	294.51
494.08	296.53
494.45	298.80
494.81	301.15
495.17	303.60
495.54	306.22
495.90	308.87
496.26	311.68
496.63	314.65
496.99	317.77
497.35	321.01
497.72	324.35
498.08	327.90
498.44	331.55
498.80	335.44
499.17	339.48
499.53	343.67
499.89	348.04
500.26	352.53
500.62	357.22
500.98	362.19
501.34	367.25
501.71	372.63
502.07	378.05
502.43	383.67
502.79	389.46
503.16	395.52
503.52	401.79
503.88	408.20
504.24	414.86
504.60	421.70
504.97	428.84
505.33	436.22
505.69	443.94
506.05	451.72
506.41	459.61
506.78	467.77
507.14	476.24
507.50	484.97
507.86	494.03
508.22	503.26
508.59	512.45
508.95	522.07
509.31	531.90
509.67	542.00
510.03	552.26
510.39	562.84
510.75	573.63
511.12	584.60
511.48	595.87
511.84	607.36
512.20	618.89
512.56	630.87
512.92	643.06
513.28	655.38
513.64	667.83
514.00	680.54
514.37	693.49
514.73	706.49
515.09	719.47
515.45	732.76
515.81	746.29
516.17	760.29
516.53	774.45
516.89	788.55
517.25	802.73
517.61	817.16
517.97	831.54
518.33	845.98
518.69	860.70
519.05	875.59
519.41	890.65
519.77	906.21
520.13	921.55
520.49	936.85
520.85	952.24
521.21	968.06
521.57	984.30
521.93	1000.03
522.29	1016.34
522.65	1032.58
523.01	1048.66
523.37	1064.67
523.73	1080.78
524.09	1096.77
524.45	1113.01
524.81	1129.63
525.17	1146.38
525.53	1163.24
525.89	1180.06
526.25	1196.91
526.61	1213.28
526.97	1230.04
527.33	1246.36
527.68	1262.94
528.04	1279.41
528.40	1295.95
528.76	1312.83
529.12	1329.37
529.48	1346.26
529.84	1362.22
530.20	1378.82
530.56	1395.80
530.91	1413.07
531.27	1429.72
531.63	1446.11
531.99	1462.75
532.35	1478.61
532.71	1494.44
533.07	1510.63
533.42	1526.48
533.78	1542.29
534.14	1558.49
534.50	1573.71
534.86	1589.54
535.21	1604.69
535.57	1620.39
535.93	1635.84
536.29	1650.62
536.65	1665.49
537.00	1680.13
537.36	1695.36
537.72	1709.71
538.08	1724.11
538.44	1737.92
538.79	1751.74
539.15	1765.31
539.51	1779.10
539.87	1793.43
540.22	1807.05
540.58	1820.78
540.94	1833.85
541.29	1846.69
541.65	1859.32
542.01	1872.46
542.37	1884.75
542.72	1897.17
543.08	1909.18
543.44	1921.33
543.79	1932.47
544.15	1943.46
544.51	1955.04
544.87	1966.09
545.22	1976.96
545.58	1987.11
545.94	1996.75
546.29	2006.61
546.65	2016.44
547.01	2025.38
547.36	2033.92
547.72	2042.40
548.07	2050.12
548.43	2058.42
548.79	2066.44
549.14	2073.94
549.50	2081.28
549.86	2088.92
550.21	2096.02
550.57	2102.95
550.92	2109.60
551.28	2116.68
551.64	2123.78
551.99	2130.22
552.35	2136.30
552.70	2142.37
553.06	2148.36
553.41	2154.72
553.77	2160.74
554.13	2166.80
554.48	2173.06
554.84	2178.81
555.19	2184.09
555.55	2189.33
555.90	2193.79
556.26	2198.79
556.61	2203.59
556.97	2207.82
557.32	2211.94
557.68	2216.16
558.03	2220.59
558.39	2224.31
558.74	2229.00
559.10	2232.81
559.45	2236.37
559.81	2240.68
560.16	2244.60
560.52	2247.76
560.87	2251.21
561.23	2253.87
561.58	2256.82
561.94	2259.40
562.29	2261.43
562.64	2264.10
563.00	2266.71
563.35	2270.36
563.71	2273.28
564.06	2276.48
564.42	2279.58
564.77	2282.21
565.12	2284.45
565.48	2286.24
565.83	2288.26
566.19	2289.44
566.54	2290.44
566.89	2291.66
567.25	2292.22
567.60	2293.38
567.96	2295.13
568.31	2296.00
568.66	2297.17
569.02	2297.64
569.37	2297.88
569.72	2298.83
570.08	2299.06
570.43	2299.26
570.78	2298.54
571.14	2297.13
571.49	2295.90
571.84	2295.36
572.20	2294.31
572.55	2293.32
572.90	2291.76
573.26	2290.32
573.61	2288.73
573.96	2287.09
574.31	2284.23
574.67	2281.25
575.02	2277.74
575.37	2274.32
575.72	2270.54
576.08	2267.10
576.43	2263.84
576.78	2260.27
577.13	2257.14
577.49	2253.92
577.84	2250.30
578.19	2246.63
578.54	2243.00
578.90	2238.71
579.25	2233.30
579.60	2228.29
579.95	2223.30
580.30	2218.35
580.66	2213.15
581.01	2208.32
581.36	2203.32
581.71	2199.13
582.06	2194.64
582.42	2190.19
582.77	2185.10
583.12	2180.54
583.47	2176.10
583.82	2171.31
584.17	2166.15
584.53	2160.81
584.88	2155.34
585.23	2149.66
585.58	2144.26
585.93	2138.96
586.28	2134.16
586.63	2129.13
586.98	2124.06
587.34	2119.44
587.69	2114.66
588.04	2109.57
588.39	2103.86
588.74	2097.49
589.09	2091.41
589.44	2084.74
589.79	2078.70
590.14	2073.00
590.49	2066.48
590.84	2059.80
591.19	2053.63
591.54	2047.16
591.89	2039.77
592.25	2033.09
592.60	2025.93
592.95	2018.37
593.30	2010.99
593.65	2003.49
594.00	1996.40
594.35	1989.14
594.70	1981.07
595.05	1973.96
595.40	1966.68
595.75	1959.26
596.10	1953.03
596.45	1946.19
596.80	1940.10
597.15	1933.65
597.50	1926.61
597.85	1920.21
598.19	1913.83
598.54	1906.88
598.89	1900.27
599.24	1894.35
599.59	1887.60
599.94	1881.25
600.29	1874.94
600.64	1868.36
600.99	1860.93
601.34	1854.18
601.69	1847.18
602.04	1840.45
602.39	1833.10
602.74	1826.21
603.08	1819.34
603.43	1812.44
603.78	1805.19
604.13	1797.91
604.48	1790.54
604.83	1783.67
605.18	1776.62
605.53	1768.44
605.87	1760.38
606.22	1753.08
606.57	1745.10
606.92	1737.69
607.27	1730.67
607.62	1723.86
607.96	1716.65
608.31	1710.02
608.66	1702.44
609.01	1695.00
609.36	1687.30
609.70	1679.25
610.05	1671.19
610.40	1663.56
610.75	1655.33
611.10	1647.68
611.44	1639.33
611.79	1631.30
612.14	1622.67
612.49	1613.53
612.83	1605.19
613.18	1597.15
613.53	1589.13
613.88	1580.67
614.22	1572.43
614.57	1563.65
614.92	1555.46
615.27	1547.87
615.61	1539.52
615.96	1531.44
616.31	1523.76
616.65	1516.43
617.00	1508.79
617.35	1501.15
617.70	1492.77
618.04	1484.27
618.39	1476.11
618.74	1468.55
619.08	1460.26
619.43	1452.74
619.78	1445.93
620.12	1438.81
620.47	1431.22
620.82	1422.93
621.16	1415.43
621.51	1407.73
621.85	1400.12
622.20	1391.69
622.55	1383.27
622.89	1375.53
623.24	1367.92
623.59	1360.48
623.93	1353.01
624.28	1345.82
624.62	1338.23
624.97	1331.10
625.32	1324.30
625.66	1317.16
626.01	1309.87
626.35	1302.43
626.70	1294.59
627.04	1286.88
627.39	1279.18
627.73	1271.71
628.08	1264.93
628.43	1257.78
628.77	1250.50
629.12	1242.96
629.46	1235.72
629.81	1228.40
630.15	1220.99
630.50	1213.57
630.84	1205.45
631.19	1197.50
631.53	1190.05
631.88	1182.49
632.22	1174.92
632.57	1167.70
632.91	1160.27
633.26	1152.82
633.60	1145.48
633.95	1138.37
634.29	1131.31
634.64	1124.55
634.98	1117.33
635.32	1110.04
635.67	1103.27
636.01	1096.67
636.36	1089.93
636.70	1083.39
637.05	1076.77
637.39	1070.49
637.73	1063.97
638.08	1058.07
638.42	1052.02
638.77	1045.53
639.11	1039.02
639.45	1032.65
639.80	1025.94
640.14	1019.56
640.49	1013.13
640.83	1006.88
641.17	1000.61
641.52	994.31
641.86	987.78
642.20	981.91
642.55	975.69
642.89	969.34
643.23	962.77
643.58	957.05
643.92	950.93
644.26	944.85
644.61	938.84
644.95	932.83
645.29	926.20
645.64	919.46
645.98	913.13
646.32	907.28
646.66	901.25
647.01	895.50
647.35	889.71
647.69	883.85
648.04	878.30
648.38	872.58
648.72	866.52
649.06	860.55
649.41	854.60
649.75	848.60
650.09	842.67
650.43	836.86
650.78	830.62
651.12	824.64
651.46	818.99
651.80	813.22
652.14	807.86
652.49	802.60
652.83	797.41
653.17	791.76
653.51	786.04
653.85	780.61
654.20	774.93
654.54	768.94
654.88	763.15
655.22	757.25
655.56	751.55
655.90	746.09
656.25	740.89
656.59	735.56
656.93	730.48
657.27	725.27
657.61	719.79
657.95	714.75
658.29	709.71
658.64	704.38
658.98	698.98
659.32	693.49
659.66	688.25
660.00	682.99
660.34	677.98
660.68	673.00
661.02	667.92
661.36	663.25
661.70	658.75
662.05	654.39
662.39	650.02
662.73	645.50
663.07	641.10
663.41	636.56
663.75	632.00
664.09	627.43
664.43	623.04
664.77	618.99
665.11	614.68
665.45	610.51
665.79	606.46
666.13	602.35
666.47	598.23
666.81	593.99
667.15	589.87
667.49	585.98
667.83	582.22
668.17	578.31
668.51	574.20
668.85	570.20
669.19	566.40
669.53	562.67
669.87	558.85
670.21	555.19
670.55	551.56
670.89	548.13
671.23	544.69
671.57	541.17
671.91	537.56
672.25	534.04
672.58	530.48
672.92	527.05
673.26	523.88
673.60	520.71
673.94	517.62
674.28	514.72
674.62	511.81
674.96	508.67
675.30	505.79
675.64	502.86
675.97	500.06
676.31	497.13
676.65	494.11
676.99	491.35
677.33	488.43
677.67	485.65
678.01	482.68
678.34	479.68
678.68	476.78
679.02	473.98
679.36	471.29
679.70	468.59
680.04	465.84
680.37	462.93
680.71	460.17
681.05	457.56
681.39	454.79
681.73	452.11
682.06	449.61
682.40	447.02
682.74	444.52
683.08	441.97
683.42	439.43
683.75	436.96
684.09	434.37
684.43	431.94
684.77	429.50
685.10	427.12
685.44	424.86
685.78	422.62
686.12	420.36
686.45	418.09
686.79	415.78
687.13	413.59
687.46	411.47
687.80	409.31
688.14	407.09
688.48	405.07
688.81	402.84
689.15	400.70
689.49	398.55
689.82	396.47
690.16	394.39
690.50	392.42
690.83	390.43
691.17	388.48
691.51	386.60
691.84	384.73
692.18	382.76
692.52	380.77
692.85	378.82
693.19	377.00
693.52	375.16
693.86	373.38
694.20	371.58
694.53	369.80
694.87	367.95
695.21	366.17
695.54	364.33
695.88	362.62
696.21	360.86
696.55	359.19
696.88	357.47
697.22	355.78
697.56	354.19
697.89	352.58
698.23	351.02
698.56	349.39
698.90	347.81
699.23	346.22
699.57	344.70
699.90	343.16
700.24	341.59
700.58	340.05
700.91	338.55
701.25	337.13
701.58	335.78
701.92	334.38
702.25	332.95
702.59	331.58
702.92	330.25
703.26	328.96
703.59	327.68
703.93	326.52
704.26	325.26
704.60	323.90
704.93	322.62
705.26	321.32
705.60	320.13
705.93	318.96
706.27	317.89
706.60	316.81
706.94	315.76
707.27	314.64
707.61	313.62
707.94	312.59
708.27	311.47
708.61	310.37
708.94	309.38
709.28	308.46
709.61	307.51
709.94	306.48
710.28	305.45
710.61	304.45
710.95	303.36
711.28	302.44
711.61	301.51
711.95	300.56
712.28	299.63
712.61	298.62
712.95	297.69
713.28	296.81
713.61	295.92
713.95	294.99
714.28	294.14
714.61	293.23
714.95	292.40
715.28	291.53
715.61	290.67
715.95	289.84
716.28	288.95
716.61	288.15
716.95	287.36
717.28	286.62
717.61	285.89
717.94	285.16
718.28	284.35
718.61	283.63
718.94	282.91
719.27	282.25
719.61	281.63
719.94	280.95
720.27	280.22
720.60	279.55
720.94	278.92
721.27	278.34
721.60	277.76
721.93	277.12
722.27	276.62
722.60	276.07
722.93	275.46
723.26	274.93
723.59	274.34
723.93	273.79
724.26	273.22
724.59	272.66
724.92	272.16
725.25	271.68
725.59	271.21
725.92	270.72
726.25	270.19
726.58	269.70
726.91	269.23
727.24	268.77
727.57	268.26
727.91	267.77
728.24	267.29
728.57	266.78
728.90	266.34
729.23	265.80
729.56	265.36
729.89	264.89
730.22	264.40
730.55	263.94
730.89	263.50
731.22	263.10
731.55	262.62
731.88	262.16
732.21	261.74
732.54	261.26
732.87	260.87
733.20	260.48
733.53	260.09
733.86	259.72
734.19	259.34
734.52	258.97
734.85	258.66
735.18	258.25
735.51	257.91
735.84	257.56
736.17	257.24
736.50	256.84
736.83	256.63
737.16	256.28
737.49	255.94
737.82	255.61
738.15	255.29
738.48	255.00
738.81	254.71
739.14	254.36
739.47	254.09
739.80	253.80
740.13	253.50
740.46	253.14
740.79	252.80
741.12	252.47
741.45	252.12
741.78	251.77
742.11	251.49
742.44	251.14
742.77	250.85
743.10	250.54
743.43	250.24
743.75	249.85
744.08	249.75
744.41	249.46
744.74	249.18
745.07	248.85
745.40	248.59
745.73	248.31
746.06	248.09
746.39	247.81
746.71	247.53
747.04	247.28
747.37	247.05
747.70	246.82
748.03	246.58
748.36	246.40
748.68	246.14
749.01	245.88
749.34	245.65
749.67	245.37
750.00	245.17
750.33	245.02
750.65	244.82
750.98	244.48
751.31	244.30
751.64	244.10
751.97	243.94
752.29	243.72
752.62	243.48
752.95	243.24
753.28	243.01
753.60	242.77
753.93	242.58
754.26	242.40
754.59	242.15
754.91	241.93
755.24	241.70
755.57	241.53
755.90	241.35
756.22	241.17
756.55	240.98
756.88	240.78
757.20	240.54
757.53	240.35
757.86	240.16
758.19	239.98
758.51	239.81
758.84	239.64
759.17	239.43
759.49	239.25
759.82	239.15
760.15	239.01
760.47	238.89
760.80	238.72
761.13	238.55
761.45	238.40
761.78	238.27
762.11	238.15
762.43	237.99
762.76	237.87
763.08	237.74
763.41	237.64
763.74	237.53
764.06	237.40
764.39	237.26
764.71	237.12
765.04	236.97
765.37	236.83
765.69	236.70
766.02	236.58
766.34	236.46
766.67	236.31
767.00	236.21
767.32	236.12
767.65	236.07
767.97	235.93
768.30	235.85
768.62	235.75
768.95	235.60
769.27	235.48
769.60	235.39
769.92	235.26
770.25	235.14
770.57	234.98
770.90	234.89
771.22	234.77
771.55	234.69
771.87	234.60
772.20	234.52
772.52	234.50
772.85	234.56
773.17	234.49
773.50	234.38
773.82	234.28
774.15	234.18
774.47	234.02
774.80	233.97
775.12	233.89
775.45	233.82
775.77	233.75
776.09	233.69
776.42	233.60
776.74	233.57
777.07	233.50
777.39	233.46
777.72	233.36
778.04	233.31
778.36	233.20
778.69	233.14
779.01	233.06
779.33	232.90
779.66	232.73
779.98	232.65
780.31	232.62
780.63	232.60
780.95	232.52
781.28	232.49
781.60	232.40
781.92	232.33
782.25	232.25
782.57	232.20
782.89	232.14
783.22	232.09
783.54	231.99
783.86	231.93
784.19	231.85
784.51	231.84
784.83	231.79
785.16	231.74
785.48	231.70
785.80	231.67
786.12	231.65
786.45	231.62
786.77	231.59
787.09	231.53
787.42	231.45
787.74	231.41
788.06	231.38
788.38	231.36
788.71	231.30
789.03	231.30
789.35	231.27
789.67	231.23
789.99	231.19
790.32	231.13
790.64	231.10
790.96	231.16
791.28	231.07
791.61	231.01
791.93	231.02
792.25	230.96
792.57	230.97
792.89	230.89
793.21	230.84
793.54	230.79
793.86	230.76
794.18	230.76
794.50	230.69
794.82	230.62
795.14	230.56
795.47	230.54
795.79	230.49
796.11	230.44
796.43	230.38
796.75	230.34
797.07	230.35
797.39	230.31
797.71	230.19
798.04	230.17
798.36	230.14
798.68	230.06
799.00	230.06
799.32	229.97
799.64	229.95
799.96	229.91
800.28	229.88
800.60	229.78
800.92	229.74
801.24	229.69
801.56	229.68
801.89	229.63
802.21	229.60
802.53	229.56
802.85	229.59
803.17	229.63
803.49	229.60
803.81	229.52
804.13	229.49
804.45	229.48
804.77	229.44
805.09	229.42
805.41	229.41
805.73	229.35
806.05	229.30
806.37	229.26
806.69	229.22
807.01	229.18
807.33	229.18
807.65	229.12
807.97	229.14
808.28	229.10
808.60	229.08
808.92	229.05
809.24	229.08
809.56	229.02
809.88	228.93
810.20	228.88
810.52	228.93
810.84	228.89
811.16	228.82
811.48	228.79
811.80	228.81
812.12	228.79
812.43	228.75
812.75	228.74
813.07	228.74
813.39	228.72
813.71	228.66
814.03	228.66
814.35	228.63
814.67	228.56
814.98	228.52
815.30	228.53
815.62	228.46
815.94	228.36
816.26	228.35
816.58	228.32
816.89	228.33
817.21	228.24
817.53	228.23
817.85	228.22
818.17	228.21
818.48	228.16
818.80	228.16
819.12	228.14
819.44	228.10
819.76	228.06
820.07	228.03
820.39	228.05
820.71	228.02
821.03	228.02
821.34	228.04
821.66	228.07
821.98	228.04
822.30	228.06
822.61	228.08
822.93	228.05
823.25	228.05
823.57	227.99
823.88	228.04
824.20	228.06
824.52	228.06
824.83	228.06
825.15	228.02
825.47	228.01
825.79	228.04
826.10	228.01
826.42	227.99
826.74	227.98
827.05	227.99
827.37	228.00
827.69	227.97
828.00	227.95
828.32	227.92
828.64	227.91
828.95	227.95
829.27	227.92
829.58	227.87
829.90	227.86
830.22	227.90
830.53	227.82
830.85	227.77
831.17	227.72
831.48	227.70
831.80	227.72
832.11	227.69
832.43	227.63
832.75	227.66
833.06	227.72
833.38	227.70
833.69	227.66
834.01	227.65
834.32	227.66
834.64	227.62
834.96	227.59
835.27	227.60
835.59	227.55
835.90	227.53
836.22	227.56
836.53	227.52
836.85	227.48
837.16	227.58
837.48	227.57
837.79	227.61
838.11	227.63
838.42	227.58
838.74	227.55
839.05	227.50
839.37	227.51
839.68	227.43
840.00	227.41
840.31	227.42
840.63	227.41
840.94	227.39
841.26	227.41
841.57	227.41
841.88	227.39
842.20	227.35
842.51	227.33
842.83	227.30
843.14	227.42
843.46	227.40
843.77	227.35
844.08	227.34
844.40	227.28
844.71	227.29
845.03	227.27
845.34	227.29
845.65	227.29
845.97	227.26
846.28	227.28
846.60	227.26
846.91	227.23
847.22	227.22
847.54	227.24
847.85	227.21
848.16	227.20
848.48	227.17
848.79	227.22
849.10	227.23
849.42	227.23
849.73	227.12
850.04	227.14
850.36	227.12
850.67	227.14
850.98	227.16
851.30	227.11
851.61	227.13
851.92	227.10
852.23	227.17
852.55	227.15
852.86	227.14
853.17	227.16
853.49	227.20
853.80	227.20
854.11	227.19
854.42	227.20
854.74	227.21
855.05	227.24
855.36	227.18
855.67	227.16
855.99	227.16
856.30	227.25
856.61	227.22
856.92	227.20
857.23	227.17
857.55	227.15
857.86	227.13
858.17	227.16
858.48	227.15
858.79	227.11
859.11	227.12
859.42	227.09
859.73	227.05
860.04	227.02
860.35	226.99
860.66	226.96
860.98	226.96
861.29	226.93
861.60	226.92
861.91	226.95
862.22	226.96
862.53	226.95
862.84	226.86
863.16	226.90
863.47	226.86
863.78	226.86
864.09	226.89
864.40	226.90
864.71	226.88
865.02	226.90
865.33	226.90
865.64	226.89
865.95	226.90
866.27	227.01
866.58	226.98
866.89	226.96
867.20	226.93
867.51	226.93
867.82	226.94
868.13	226.96
868.44	226.95
868.75	226.93
869.06	226.93
869.37	226.95
869.68	226.93
869.99	226.96
870.30	226.94
870.61	226.94
870.92	226.93
871.23	226.95
871.54	226.97
871.85	227.00
872.16	227.05
872.47	227.06
872.78	226.99
873.09	226.99
873.40	227.03
873.71	227.03
874.02	227.01
874.33	227.00
874.64	226.96
874.95	227.00
875.26	227.00
875.56	226.97
875.87	226.96
876.18	226.95
876.49	227.07
876.80	227.07
877.11	227.04
877.42	227.04
877.73	227.02
878.04	226.98
878.35	226.96
878.66	226.91
878.96	226.90
879.27	226.88
879.58	226.93
879.89	226.90
880.20	226.96
880.51	226.95
880.82	226.96
881.12	227.03
881.43	227.00
881.74	227.01
882.05	227.00
882.36	226.99
882.67	226.99
882.97	226.87
883.28	226.86
883.59	226.89
883.90	226.90
884.21	226.87
884.51	226.87
884.82	226.84
885.13	226.86
885.44	226.83
885.74	226.86
886.05	226.81
886.36	226.85
886.67	226.78
886.98	226.87
887.28	226.87
887.59	226.81
887.90	226.83
888.20	226.83
888.51	226.86
888.82	226.85
889.13	226.85
889.43	226.92
889.74	226.90
890.05	226.88
890.35	226.86
890.66	226.86
890.97	226.83
891.28	226.83
891.58	226.82
891.89	226.85
892.20	226.81
892.50	226.82
892.81	226.79
893.12	226.79
893.42	226.69
893.73	226.66
894.04	226.69
894.34	226.66
894.65	226.65
894.95	226.62
895.26	226.65
895.57	226.68
895.87	226.58
896.18	226.57
896.48	226.61
896.79	226.61
897.10	226.61
897.40	226.64
897.71	226.67
898.01	226.66
898.32	226.64
898.63	226.65
898.93	226.65
899.24	226.66
899.54	226.65
899.85	226.64
900.15	226.65
900.46	226.64
900.76	226.64
901.07	226.64
901.38	226.69
901.68	226.70
901.99	226.68
902.29	226.70
902.60	226.71
902.90	226.70
903.21	226.70
903.51	226.73
903.82	226.75
904.12	226.75
904.43	226.77
904.73	226.79
905.03	226.82
905.34	226.89
905.64	226.88
905.95	226.89
906.25	226.92
906.56	226.92
906.86	226.93
907.17	226.93
907.47	226.94
907.77	226.91
908.08	226.88
908.38	226.87
908.69	226.88
908.99	226.90
909.30	226.89
909.60	226.88
909.90	226.86
910.21	226.88
910.51	226.85
910.81	226.85
911.12	226.88
911.42	226.87
911.73	226.81
912.03	226.81
912.33	226.85
912.64	226.87
912.94	226.84
913.24	226.83
913.55	226.84
913.85	226.83
914.15	226.84
914.46	226.84
914.76	226.85
915.06	226.89
915.37	226.88
915.67	226.89
915.97	226.90
916.27	226.90
916.58	226.85
916.88	226.84
917.18	226.83
917.49	226.86
917.79	226.86
918.09	226.88
918.39	226.90
918.70	226.90
919.00	226.84
919.30	226.90
919.60	226.89
919.91	226.86
920.21	226.87
920.51	226.86
920.81	226.83
921.12	226.84
921.42	226.80
921.72	226.78
922.02	226.78
922.32	226.79
922.63	226.76
922.93	226.80
923.23	226.80
923.53	226.81
923.83	226.76
924.13	226.77
924.44	226.75
924.74	226.78
925.04	226.80
925.34	226.83
925.64	226.82
925.94	226.82
926.24	226.89
926.55	226.85
926.85	226.86
927.15	226.86
927.45	226.85
927.75	226.86
928.05	226.85
928.35	226.85
928.65	226.87
928.95	226.87
929.26	226.86
929.56	226.86
929.86	226.89
930.16	226.85
930.46	226.85
930.76	226.83
931.06	226.76
931.36	226.72
931.66	226.76
931.96	226.72
932.26	226.74
932.56	226.69
932.86	226.69
933.16	226.67
933.46	226.66
933.76	226.62
934.06	226.64
934.36	226.68
934.66	226.66
934.96	226.64
935.26	226.67
935.56	226.67
935.86	226.64
936.16	226.60
936.46	226.58
936.76	226.57
937.06	226.58
937.36	226.59
937.66	226.57
937.96	226.54
938.26	226.54
938.56	226.50
938.86	226.49
939.16	226.53
939.46	226.54
939.76	226.55
940.06	226.58
940.35	226.55
940.65	226.50
940.95	226.52
941.25	226.49
941.55	226.47
941.85	226.45
942.15	226.45
942.45	226.48
942.75	226.49
943.04	226.48
943.34	226.50
943.64	226.49
943.94	226.48
944.24	226.49
944.54	226.47
944.84	226.49
945.13	226.51
945.43	226.47
945.73	226.50
946.03	226.50
946.33	226.48
946.62	226.51
946.92	226.51
947.22	226.50
947.52	226.53
947.82	226.56
948.11	226.55
948.41	226.56
948.71	226.52
949.01	226.53
949.31	226.50
949.60	226.46
949.90	226.50
950.20	226.54
950.50	226.49
950.79	226.52
951.09	226.52
951.39	226.51
951.69	226.51
951.98	226.50
952.28	226.49
952.58	226.49
952.87	226.45
953.17	226.45
953.47	226.47
953.76	226.43
954.06	226.41
954.36	226.45
954.66	226.44
954.95	226.49
955.25	226.50
955.55	226.53
955.84	226.52
956.14	226.50
956.44	226.48
956.73	226.49
957.03	226.46
957.32	226.41
957.62	226.40
957.92	226.40
958.21	226.40
958.51	226.50
958.81	226.49
959.10	226.51
959.40	226.51
959.69	226.51
959.99	226.56
960.29	226.54
960.58	226.49
960.88	226.53
961.17	226.52
961.47	226.51
961.76	226.53
962.06	226.55
962.36	226.54
962.65	226.54
962.95	226.54
963.24	226.56
963.54	226.60
963.83	226.60
964.13	226.59
964.42	226.59
964.72	226.52
965.01	226.52
965.31	226.54
965.60	226.51
965.90	226.57
966.19	226.52
966.49	226.52
966.78	226.51
967.08	226.54
967.37	226.54
967.67	226.54
967.96	226.51
968.26	226.48
968.55	226.50
968.85	226.51
969.14	226.56
969.43	226.54
969.73	226.53
970.02	226.54
970.32	226.53
970.61	226.54
970.91	226.50
971.20	226.52
971.49	226.50
971.79	226.50
972.08	226.45
972.38	226.49
972.67	226.50
972.96	226.52
973.26	226.44
973.55	226.45
973.85	226.44
974.14	226.45
974.43	226.48
974.73	226.47
975.02	226.47
975.31	226.43
975.61	226.45
975.90	226.44
976.19	226.41
976.49	226.46
976.78	226.47
977.07	226.45
977.37	226.46
977.66	226.44
977.95	226.45
978.24	226.41
978.54	226.40
978.83	226.36
979.12	226.34
979.42	226.35
979.71	226.32
980.00	226.33
980.29	226.35
980.59	226.29
980.88	226.28
981.17	226.26
981.46	226.28
981.76	226.30
982.05	226.33
982.34	226.31
982.63	226.26
982.93	226.23
983.22	226.25
983.51	226.25
983.80	226.30
984.09	226.32
984.39	226.33
984.68	226.31
984.97	226.36
985.26	226.33
985.55	226.36
985.85	226.34
986.14	226.37
986.43	226.39
986.72	226.40
987.01	226.38
987.30	226.37
987.59	226.35
987.89	226.35
988.18	226.31
988.47	226.33
988.76	226.33
989.05	226.32
989.34	226.34
989.63	226.33
989.92	226.25
990.22	226.23
990.51	226.23
990.80	226.23
991.09	226.25
991.38	226.31
991.67	226.28
991.96	226.26
992.25	226.23
992.54	226.18
992.83	226.19
993.12	226.20
993.41	226.21
993.70	226.24
993.99	226.23
994.28	226.22
994.58	226.25
994.87	226.24
995.16	226.22
995.45	226.19
995.74	226.14
996.03	226.20
996.32	226.18
996.61	226.20
996.90	226.19
997.19	226.13
997.48	226.11
997.77	226.10
998.06	226.12
998.34	226.10
998.63	226.09
998.92	226.08
999.21	226.07
999.50	226.08
999.79	226.05
1000.08	226.05
1000.37	226.07
1000.66	226.02
1000.95	226.04
1001.24	226.07
1001.53	226.08
1001.82	226.07
1002.11	226.03
1002.40	226.06
1002.68	226.05
1002.97	226.14
1003.26	226.15
1003.55	226.14
1003.84	226.13
1004.13	226.16
1004.42	226.16
1004.71	226.19
1004.99	226.17
1005.28	226.23
1005.57	226.26
1005.86	226.26
1006.15	226.25
1006.44	226.25
1006.72	226.29
1007.01	226.28
1007.30	226.31
1007.59	226.29
1007.88	226.32
1008.17	226.32
1008.45	226.32
1008.74	226.31
1009.03	226.24
1009.32	226.22
1009.60	226.21
1009.89	226.19
1010.18	226.18
1010.47	226.20
1010.76	226.20
1011.04	226.19
1011.33	226.15
1011.62	226.11
1011.91	226.12
1012.19	226.14
1012.48	226.14
1012.77	226.11
1013.05	226.19
1013.34	226.19
1013.63	226.18
1013.92	226.18
1014.20	226.19
1014.49	226.17
1014.78	226.14
1015.06	226.12
1015.35	226.12
1015.64	226.16
1015.92	226.18
1016.21	226.17
1016.50	226.18
1016.78	226.14
1017.07	226.15
1017.36	226.17
1017.64	226.15
1017.93	226.15
1018.22	226.13
1018.50	226.13
1018.79	226.14
1019.08	226.05
1019.36	226.05
1019.65	226.06
1019.93	226.08
1020.22	226.11
1020.51	226.18
1020.79	226.20
1021.08	226.12
1021.36	226.08
1021.65	226.51
1021.94	225.71
1022.22	226.36
1022.51	226.07
1022.79	226.50
1023.08	226.53
1023.36	227.65
1023.65	225.86
>>>>>End Processed Spectral Data<<<<<
