SpectraSuite Data File
++++++++++++++++++++++++++++++++++++
Date: Fri Feb 01 18:01:49 EST 2013
User: group
Dark Spectrum Present: No
Reference Spectrum Present: No
Number of Sampled Component Spectra: 1
Spectrometers: USB2E7196
Integration Time (usec): 35000 (USB2E7196)
Spectra Averaged: 100 (USB2E7196)
Boxcar Smoothing: 10 (USB2E7196)
Correct for Electrical Dark: No (USB2E7196)
Strobe/Lamp Enabled: No (USB2E7196)
Correct for Detector Non-linearity: No (USB2E7196)
Correct for Stray Light: No (USB2E7196)
Number of Pixels in Processed Spectrum: 2048
>>>>>Begin Processed Spectral Data<<<<<
339.09	0.00
339.48	212.03
339.86	214.44
340.24	215.79
340.63	216.82
341.01	219.75
341.39	219.57
341.78	221.17
342.16	222.27
342.54	222.49
342.93	211.17
343.31	221.87
343.69	222.44
344.07	222.93
344.46	223.35
344.84	223.71
345.22	223.99
345.60	224.26
345.99	224.46
346.37	224.59
346.75	224.72
347.13	224.83
347.52	224.90
347.90	224.99
348.28	225.04
348.66	225.09
349.05	225.08
349.43	225.13
349.81	225.21
350.19	225.28
350.57	225.31
350.96	225.41
351.34	225.49
351.72	225.58
352.10	225.66
352.48	225.73
352.87	225.82
353.25	225.88
353.63	225.98
354.01	226.05
354.39	226.12
354.77	226.21
355.15	226.31
355.54	226.36
355.92	226.40
356.30	226.47
356.68	226.67
357.06	226.74
357.44	226.80
357.82	226.84
358.20	226.90
358.58	226.99
358.97	227.03
359.35	227.11
359.73	227.19
360.11	227.23
360.49	227.28
360.87	227.34
361.25	227.36
361.63	227.40
362.01	227.46
362.39	227.52
362.77	227.56
363.15	227.57
363.53	227.59
363.91	227.57
364.29	227.59
364.67	227.48
365.05	227.50
365.43	227.51
365.81	227.53
366.19	227.59
366.57	227.61
366.95	227.60
367.33	227.56
367.71	227.55
368.09	227.57
368.47	227.57
368.85	227.54
369.23	227.57
369.61	227.49
369.99	227.46
370.37	227.44
370.75	227.44
371.13	227.39
371.51	227.34
371.89	227.32
372.27	227.30
372.65	227.25
373.03	227.20
373.41	227.17
373.78	227.09
374.16	226.99
374.54	226.93
374.92	226.87
375.30	226.82
375.68	226.74
376.06	226.71
376.44	226.63
376.82	226.54
377.19	226.47
377.57	226.42
377.95	226.33
378.33	226.24
378.71	226.15
379.09	226.10
379.47	226.08
379.84	226.00
380.22	225.89
380.60	225.79
380.98	225.72
381.36	225.64
381.73	225.59
382.11	225.56
382.49	225.52
382.87	225.45
383.25	225.37
383.62	225.42
384.00	225.31
384.38	225.26
384.76	225.25
385.13	225.23
385.51	225.20
385.89	225.15
386.27	225.10
386.64	225.06
387.02	224.99
387.40	224.93
387.78	224.92
388.15	224.90
388.53	224.88
388.91	224.85
389.29	224.81
389.66	224.80
390.04	224.76
390.42	224.73
390.79	224.74
391.17	224.72
391.55	224.63
391.92	224.63
392.30	224.61
392.68	224.62
393.05	224.56
393.43	224.54
393.81	224.56
394.18	224.56
394.56	224.54
394.94	224.58
395.31	224.59
395.69	224.64
396.06	224.70
396.44	224.74
396.82	224.79
397.19	224.88
397.57	224.89
397.95	224.95
398.32	224.95
398.70	225.02
399.07	225.11
399.45	225.13
399.82	225.22
400.20	225.33
400.58	225.40
400.95	225.50
401.33	225.62
401.70	225.77
402.08	225.90
402.45	226.01
402.83	226.16
403.20	226.25
403.58	226.35
403.95	226.47
404.33	226.63
404.71	226.76
405.08	226.93
405.46	227.10
405.83	227.25
406.21	227.46
406.58	227.64
406.96	227.80
407.33	228.04
407.70	228.28
408.08	228.54
408.45	228.79
408.83	229.05
409.20	229.32
409.58	229.54
409.95	229.83
410.33	230.19
410.70	230.49
411.08	230.89
411.45	231.31
411.82	231.68
412.20	232.12
412.57	232.66
412.95	233.08
413.32	233.60
413.69	234.16
414.07	234.71
414.44	235.34
414.82	235.97
415.19	236.69
415.56	237.41
415.94	238.17
416.31	239.02
416.68	239.86
417.06	240.78
417.43	241.68
417.81	242.69
418.18	243.72
418.55	244.87
418.93	246.02
419.30	247.21
419.67	248.46
420.04	249.74
420.42	251.06
420.79	252.63
421.16	254.17
421.54	255.74
421.91	257.41
422.28	259.07
422.66	260.87
423.03	262.60
423.40	264.40
423.77	266.30
424.15	268.24
424.52	270.24
424.89	272.40
425.26	274.52
425.64	276.47
426.01	278.60
426.38	280.78
426.75	283.07
427.13	285.41
427.50	287.87
427.87	290.40
428.24	292.90
428.61	295.32
428.99	297.97
429.36	300.87
429.73	303.64
430.10	306.39
430.47	309.23
430.85	312.10
431.22	315.16
431.59	318.35
431.96	321.38
432.33	324.79
432.70	328.05
433.08	331.82
433.45	335.42
433.82	338.98
434.19	342.89
434.56	346.66
434.93	350.20
435.30	353.78
435.68	357.72
436.05	361.58
436.42	365.32
436.79	368.69
437.16	372.30
437.53	376.13
437.90	379.97
438.27	383.62
438.64	387.47
439.01	390.95
439.38	393.98
439.75	396.91
440.13	400.26
440.50	403.40
440.87	405.95
441.24	408.62
441.61	411.57
441.98	413.62
442.35	416.16
442.72	418.75
443.09	421.23
443.46	422.60
443.83	423.43
444.20	424.16
444.57	425.39
444.94	425.75
445.31	426.22
445.68	426.65
446.05	426.80
446.42	426.30
446.79	425.81
447.16	425.25
447.53	424.85
447.90	423.30
448.27	421.78
448.64	419.62
449.01	418.10
449.37	415.43
449.74	412.89
450.11	409.81
450.48	406.47
450.85	403.05
451.22	400.16
451.59	397.42
451.96	394.81
452.33	391.26
452.70	388.15
453.07	384.39
453.43	380.51
453.80	376.81
454.17	373.21
454.54	369.76
454.91	366.08
455.28	362.48
455.65	359.09
456.02	355.72
456.38	352.80
456.75	349.13
457.12	346.04
457.49	343.04
457.86	340.06
458.23	337.49
458.59	334.63
458.96	331.79
459.33	329.29
459.70	326.74
460.07	324.67
460.43	322.31
460.80	320.07
461.17	318.07
461.54	315.96
461.91	313.99
462.27	311.99
462.64	310.26
463.01	308.38
463.38	306.58
463.74	304.72
464.11	303.16
464.48	301.75
464.85	300.26
465.21	299.03
465.58	297.77
465.95	296.32
466.32	295.11
466.68	293.84
467.05	292.59
467.42	291.34
467.78	290.05
468.15	288.84
468.52	287.91
468.88	286.76
469.25	285.70
469.62	284.82
469.98	283.86
470.35	282.96
470.72	282.11
471.08	281.20
471.45	280.47
471.82	279.67
472.18	278.84
472.55	278.20
472.92	277.46
473.28	276.86
473.65	276.20
474.02	275.59
474.38	275.06
474.75	274.55
475.11	274.02
475.48	273.60
475.85	273.25
476.21	272.89
476.58	272.60
476.94	272.36
477.31	272.08
477.67	271.83
478.04	271.62
478.41	271.51
478.77	271.48
479.14	271.34
479.50	271.28
479.87	271.31
480.23	271.33
480.60	271.33
480.96	271.33
481.33	271.47
481.69	271.59
482.06	271.75
482.42	271.90
482.79	272.09
483.15	272.38
483.52	272.72
483.88	273.06
484.25	273.36
484.61	273.75
484.98	274.15
485.34	274.73
485.71	275.32
486.07	275.91
486.44	276.45
486.80	277.17
487.17	277.92
487.53	278.76
487.90	279.65
488.26	280.63
488.62	281.63
488.99	282.67
489.35	283.74
489.72	284.90
490.08	286.16
490.44	287.51
490.81	288.96
491.17	290.36
491.54	291.90
491.90	293.52
492.26	295.31
492.63	297.15
492.99	299.01
493.36	300.96
493.72	303.09
494.08	305.33
494.45	307.63
494.81	310.14
495.17	312.68
495.54	315.37
495.90	318.20
496.26	321.16
496.63	324.24
496.99	327.57
497.35	331.06
497.72	334.65
498.08	338.32
498.44	342.18
498.80	346.35
499.17	350.62
499.53	355.11
499.89	359.70
500.26	364.46
500.62	369.40
500.98	374.67
501.34	380.05
501.71	385.70
502.07	391.55
502.43	397.56
502.79	403.75
503.16	410.20
503.52	416.89
503.88	423.69
504.24	430.77
504.60	438.05
504.97	445.61
505.33	453.41
505.69	461.62
506.05	469.89
506.41	478.28
506.78	486.96
507.14	495.97
507.50	505.27
507.86	514.88
508.22	524.69
508.59	534.50
508.95	544.70
509.31	555.12
509.67	565.96
510.03	576.89
510.39	588.15
510.75	599.70
511.12	611.38
511.48	623.53
511.84	635.84
512.20	648.23
512.56	661.08
512.92	674.14
513.28	687.44
513.64	700.96
514.00	714.69
514.37	728.64
514.73	742.64
515.09	756.67
515.45	771.05
515.81	785.70
516.17	800.85
516.53	816.13
516.89	831.55
517.25	846.76
517.61	862.36
517.97	878.12
518.33	893.74
518.69	909.74
519.05	925.98
519.41	942.52
519.77	959.39
520.13	976.21
520.49	993.01
520.85	1009.75
521.21	1026.76
521.57	1044.50
521.93	1061.70
522.29	1079.61
522.65	1097.50
523.01	1115.28
523.37	1132.94
523.73	1150.69
524.09	1168.51
524.45	1186.42
524.81	1204.78
525.17	1223.20
525.53	1241.86
525.89	1260.48
526.25	1279.13
526.61	1297.30
526.97	1315.79
527.33	1333.97
527.68	1352.31
528.04	1370.64
528.40	1389.15
528.76	1408.09
529.12	1426.50
529.48	1445.42
529.84	1463.33
530.20	1481.81
530.56	1500.73
530.91	1520.10
531.27	1538.90
531.63	1557.17
531.99	1575.80
532.35	1593.96
532.71	1612.07
533.07	1630.33
533.42	1648.37
533.78	1666.58
534.14	1684.99
534.50	1702.35
534.86	1720.57
535.21	1737.93
535.57	1755.93
535.93	1773.55
536.29	1790.58
536.65	1807.77
537.00	1824.61
537.36	1842.27
537.72	1858.97
538.08	1875.65
538.44	1891.70
538.79	1907.79
539.15	1923.76
539.51	1939.55
539.87	1956.08
540.22	1972.09
540.58	1988.11
540.94	2003.64
541.29	2018.66
541.65	2033.69
542.01	2049.29
542.37	2063.76
542.72	2078.37
543.08	2092.57
543.44	2107.45
543.79	2121.03
544.15	2134.33
544.51	2148.22
544.87	2161.31
545.22	2174.41
545.58	2186.87
545.94	2198.76
546.29	2210.80
546.65	2222.84
547.01	2234.48
547.36	2245.28
547.72	2255.74
548.07	2265.77
548.43	2276.03
548.79	2286.08
549.14	2295.61
549.50	2304.77
549.86	2314.54
550.21	2324.03
550.57	2333.03
550.92	2341.35
551.28	2350.31
551.64	2359.34
551.99	2367.87
552.35	2376.04
552.70	2384.19
553.06	2392.07
553.41	2400.39
553.77	2408.27
554.13	2416.44
554.48	2424.36
554.84	2431.73
555.19	2438.67
555.55	2445.65
555.90	2451.90
556.26	2458.76
556.61	2465.24
556.97	2471.55
557.32	2477.20
557.68	2482.90
558.03	2489.02
558.39	2494.43
558.74	2500.74
559.10	2506.18
559.45	2511.27
559.81	2517.13
560.16	2522.54
560.52	2527.27
560.87	2532.18
561.23	2536.26
561.58	2540.41
561.94	2544.34
562.29	2547.96
562.64	2552.27
563.00	2556.13
563.35	2561.04
563.71	2565.42
564.06	2569.85
564.42	2573.89
564.77	2577.91
565.12	2581.60
565.48	2584.73
565.83	2587.67
566.19	2590.19
566.54	2592.06
566.89	2594.33
567.25	2596.04
567.60	2598.29
567.96	2601.07
568.31	2602.92
568.66	2605.22
569.02	2606.68
569.37	2607.90
569.72	2609.80
570.08	2610.81
570.43	2611.58
570.78	2611.71
571.14	2610.82
571.49	2610.10
571.84	2610.33
572.20	2609.58
572.55	2608.91
572.90	2607.51
573.26	2606.80
573.61	2605.41
573.96	2604.31
574.31	2601.50
574.67	2598.59
575.02	2594.98
575.37	2591.72
575.72	2588.05
576.08	2584.62
576.43	2581.36
576.78	2577.74
577.13	2574.41
577.49	2571.10
577.84	2567.76
578.19	2563.94
578.54	2560.45
578.90	2556.33
579.25	2550.58
579.60	2545.61
579.95	2540.37
580.30	2535.26
580.66	2529.69
581.01	2524.25
581.36	2518.76
581.71	2514.58
582.06	2509.90
582.42	2505.37
582.77	2499.82
583.12	2494.89
583.47	2489.90
583.82	2484.71
584.17	2479.12
584.53	2473.33
584.88	2467.37
585.23	2461.09
585.58	2455.17
585.93	2448.90
586.28	2443.48
586.63	2437.97
586.98	2432.34
587.34	2427.23
587.69	2421.82
588.04	2416.25
588.39	2410.26
588.74	2403.19
589.09	2396.27
589.44	2388.70
589.79	2381.77
590.14	2375.38
590.49	2367.99
590.84	2360.85
591.19	2354.10
591.54	2346.84
591.89	2338.57
592.25	2331.10
592.60	2322.90
592.95	2314.41
593.30	2306.20
593.65	2297.59
594.00	2289.54
594.35	2281.17
594.70	2271.91
595.05	2264.03
595.40	2255.57
595.75	2246.89
596.10	2239.90
596.45	2232.21
596.80	2225.30
597.15	2217.91
597.50	2210.01
597.85	2202.49
598.19	2194.86
598.54	2186.72
598.89	2179.07
599.24	2172.36
599.59	2164.79
599.94	2157.58
600.29	2150.09
600.64	2142.45
600.99	2133.91
601.34	2126.23
601.69	2118.21
602.04	2110.38
602.39	2101.68
602.74	2093.77
603.08	2085.87
603.43	2078.01
603.78	2069.55
604.13	2061.13
604.48	2052.63
604.83	2044.58
605.18	2036.79
605.53	2027.42
605.87	2017.99
606.22	2009.56
606.57	2000.08
606.92	1991.11
607.27	1982.86
607.62	1974.82
607.96	1966.36
608.31	1958.67
608.66	1949.56
609.01	1940.85
609.36	1931.96
609.70	1922.41
610.05	1912.98
610.40	1904.04
610.75	1894.23
611.10	1885.29
611.44	1875.15
611.79	1865.72
612.14	1855.57
612.49	1844.71
612.83	1834.90
613.18	1825.41
613.53	1815.86
613.88	1805.98
614.22	1796.35
614.57	1786.01
614.92	1776.71
615.27	1767.98
615.61	1758.11
615.96	1748.67
616.31	1739.56
616.65	1730.90
617.00	1722.09
617.35	1713.11
617.70	1703.35
618.04	1693.41
618.39	1683.59
618.74	1674.84
619.08	1665.10
619.43	1656.04
619.78	1647.81
620.12	1639.31
620.47	1630.52
620.82	1620.87
621.16	1611.93
621.51	1602.99
621.85	1594.17
622.20	1584.18
622.55	1574.19
622.89	1564.97
623.24	1555.95
623.59	1547.21
623.93	1538.26
624.28	1529.74
624.62	1520.76
624.97	1512.25
625.32	1504.26
625.66	1496.05
626.01	1487.64
626.35	1479.01
626.70	1469.80
627.04	1460.68
627.39	1451.54
627.73	1442.68
628.08	1434.51
628.43	1426.10
628.77	1417.49
629.12	1408.51
629.46	1400.00
629.81	1391.17
630.15	1382.61
630.50	1373.96
630.84	1364.32
631.19	1354.95
631.53	1346.14
631.88	1337.22
632.22	1328.40
632.57	1319.78
632.91	1310.86
633.26	1302.12
633.60	1293.27
633.95	1284.96
634.29	1276.68
634.64	1268.73
634.98	1260.19
635.32	1251.82
635.67	1243.99
636.01	1236.22
636.36	1228.36
636.70	1220.62
637.05	1213.01
637.39	1205.43
637.73	1197.80
638.08	1190.89
638.42	1183.89
638.77	1176.34
639.11	1168.69
639.45	1161.17
639.80	1153.40
640.14	1145.93
640.49	1138.29
640.83	1130.85
641.17	1123.60
641.52	1116.22
641.86	1108.69
642.20	1101.83
642.55	1094.45
642.89	1086.89
643.23	1079.04
643.58	1072.18
643.92	1064.99
644.26	1057.96
644.61	1050.86
644.95	1043.84
645.29	1036.24
645.64	1028.33
645.98	1020.87
646.32	1014.02
646.66	1006.86
647.01	1000.05
647.35	993.44
647.69	986.55
648.04	980.14
648.38	973.42
648.72	966.55
649.06	959.61
649.41	952.70
649.75	945.70
650.09	938.78
650.43	932.08
650.78	924.96
651.12	918.01
651.46	911.28
651.80	904.72
652.14	898.50
652.49	892.23
652.83	886.33
653.17	879.84
653.51	873.29
653.85	867.11
654.20	860.70
654.54	853.69
654.88	847.03
655.22	840.15
655.56	833.55
655.90	827.14
656.25	821.12
656.59	814.94
656.93	809.07
657.27	803.18
657.61	797.01
657.95	791.15
658.29	785.22
658.64	779.10
658.98	772.90
659.32	766.49
659.66	760.49
660.00	754.36
660.34	748.60
660.68	742.82
661.02	736.98
661.36	731.46
661.70	726.20
662.05	721.16
662.39	716.23
662.73	711.07
663.07	705.94
663.41	700.72
663.75	695.55
664.09	690.27
664.43	685.13
664.77	680.34
665.11	675.41
665.45	670.68
665.79	666.02
666.13	661.32
666.47	656.62
666.81	651.83
667.15	646.97
667.49	642.44
667.83	638.01
668.17	633.42
668.51	628.70
668.85	624.04
669.19	619.55
669.53	615.15
669.87	610.68
670.21	606.45
670.55	602.24
670.89	598.24
671.23	594.27
671.57	590.19
671.91	586.10
672.25	582.02
672.58	577.89
672.92	573.86
673.26	570.13
673.60	566.43
673.94	562.83
674.28	559.55
674.62	556.16
674.96	552.57
675.30	549.24
675.64	545.87
675.97	542.67
676.31	539.43
676.65	536.05
676.99	532.86
677.33	529.53
677.67	526.24
678.01	522.74
678.34	519.35
678.68	516.01
679.02	512.73
679.36	509.54
679.70	506.42
680.04	503.28
680.37	500.02
680.71	496.82
681.05	493.80
681.39	490.63
681.73	487.59
682.06	484.72
682.40	481.84
682.74	478.88
683.08	475.94
683.42	472.92
683.75	469.99
684.09	467.03
684.43	464.16
684.77	461.33
685.10	458.56
685.44	455.86
685.78	453.24
686.12	450.58
686.45	447.90
686.79	445.26
687.13	442.69
687.46	440.15
687.80	437.57
688.14	434.93
688.48	432.56
688.81	429.93
689.15	427.37
689.49	424.80
689.82	422.32
690.16	419.83
690.50	417.51
690.83	415.23
691.17	412.93
691.51	410.74
691.84	408.56
692.18	406.40
692.52	404.12
692.85	401.80
693.19	399.64
693.52	397.50
693.86	395.36
694.20	393.27
694.53	391.18
694.87	389.07
695.21	386.99
695.54	384.80
695.88	382.78
696.21	380.77
696.55	378.84
696.88	376.93
697.22	375.02
697.56	373.12
697.89	371.27
698.23	369.44
698.56	367.57
698.90	365.74
699.23	363.75
699.57	361.91
699.90	360.16
700.24	358.33
700.58	356.59
700.91	354.88
701.25	353.21
701.58	351.59
701.92	350.01
702.25	348.43
702.59	346.91
702.92	345.34
703.26	343.88
703.59	342.39
703.93	341.00
704.26	339.54
704.60	338.05
704.93	336.54
705.26	335.05
705.60	333.63
705.93	332.28
706.27	331.13
706.60	329.89
706.94	328.63
707.27	327.38
707.61	326.12
707.94	324.89
708.27	323.59
708.61	322.38
708.94	321.22
709.28	320.09
709.61	318.95
709.94	317.88
710.28	316.68
710.61	315.50
710.95	314.30
711.28	313.22
711.61	312.15
711.95	311.10
712.28	310.03
712.61	308.94
712.95	307.85
713.28	306.77
713.61	305.74
713.95	304.69
714.28	303.69
714.61	302.69
714.95	301.74
715.28	300.81
715.61	299.76
715.95	298.75
716.28	297.70
716.61	296.72
716.95	295.71
717.28	294.82
717.61	293.89
717.94	293.01
718.28	292.09
718.61	291.27
718.94	290.45
719.27	289.66
719.61	288.91
719.94	288.15
720.27	287.32
720.60	286.55
720.94	285.81
721.27	285.14
721.60	284.44
721.93	283.72
722.27	283.05
722.60	282.41
722.93	281.76
723.26	281.15
723.59	280.52
723.93	279.88
724.26	279.26
724.59	278.66
724.92	278.04
725.25	277.48
725.59	276.84
725.92	276.25
726.25	275.63
726.58	275.02
726.91	274.44
727.24	273.93
727.57	273.37
727.91	272.77
728.24	272.19
728.57	271.66
728.90	271.14
729.23	270.54
729.56	270.05
729.89	269.51
730.22	268.95
730.55	268.40
730.89	267.94
731.22	267.39
731.55	266.88
731.88	266.37
732.21	265.87
732.54	265.34
732.87	264.86
733.20	264.40
733.53	263.95
733.86	263.49
734.19	262.96
734.52	262.54
734.85	262.18
735.18	261.68
735.51	261.23
735.84	260.78
736.17	260.42
736.50	259.94
736.83	259.63
737.16	259.24
737.49	258.86
737.82	258.43
738.15	258.04
738.48	257.65
738.81	257.29
739.14	256.91
739.47	256.56
739.80	256.19
740.13	255.81
740.46	255.43
740.79	255.04
741.12	254.72
741.45	254.33
741.78	253.93
742.11	253.63
742.44	253.28
742.77	252.94
743.10	252.56
743.43	252.24
743.75	251.83
744.08	251.67
744.41	251.35
744.74	251.05
745.07	250.72
745.40	250.42
745.73	250.12
746.06	249.82
746.39	249.53
746.71	249.20
747.04	248.88
747.37	248.60
747.70	248.37
748.03	248.09
748.36	247.84
748.68	247.58
749.01	247.24
749.34	246.97
749.67	246.72
750.00	246.46
750.33	246.25
750.65	245.98
750.98	245.56
751.31	245.27
751.64	245.03
751.97	244.83
752.29	244.57
752.62	244.31
752.95	244.08
753.28	243.83
753.60	243.57
753.93	243.34
754.26	243.14
754.59	242.85
754.91	242.61
755.24	242.37
755.57	242.13
755.90	241.99
756.22	241.76
756.55	241.53
756.88	241.33
757.20	241.06
757.53	240.84
757.86	240.67
758.19	240.50
758.51	240.31
758.84	240.10
759.17	239.93
759.49	239.71
759.82	239.56
760.15	239.39
760.47	239.24
760.80	239.08
761.13	238.92
761.45	238.76
761.78	238.60
762.11	238.43
762.43	238.30
762.76	238.12
763.08	237.94
763.41	237.79
763.74	237.59
764.06	237.42
764.39	237.25
764.71	237.10
765.04	236.93
765.37	236.75
765.69	236.59
766.02	236.43
766.34	236.27
766.67	236.07
767.00	235.96
767.32	235.86
767.65	235.76
767.97	235.59
768.30	235.46
768.62	235.31
768.95	235.21
769.27	235.06
769.60	234.94
769.92	234.81
770.25	234.66
770.57	234.56
770.90	234.45
771.22	234.33
771.55	234.18
771.87	234.05
772.20	233.93
772.52	233.89
772.85	233.90
773.17	233.83
773.50	233.73
773.82	233.62
774.15	233.47
774.47	233.32
774.80	233.23
775.12	233.14
775.45	233.05
775.77	232.91
776.09	232.85
776.42	232.75
776.74	232.69
777.07	232.60
777.39	232.50
777.72	232.42
778.04	232.36
778.36	232.27
778.69	232.21
779.01	232.16
779.33	232.00
779.66	231.80
779.98	231.68
780.31	231.59
780.63	231.57
780.95	231.49
781.28	231.40
781.60	231.34
781.92	231.27
782.25	231.22
782.57	231.16
782.89	231.09
783.22	231.00
783.54	230.93
783.86	230.89
784.19	230.82
784.51	230.78
784.83	230.69
785.16	230.63
785.48	230.58
785.80	230.53
786.12	230.51
786.45	230.46
786.77	230.46
787.09	230.45
787.42	230.33
787.74	230.29
788.06	230.26
788.38	230.21
788.71	230.15
789.03	230.08
789.35	230.07
789.67	230.01
789.99	229.98
790.32	229.91
790.64	229.87
790.96	229.90
791.28	229.83
791.61	229.80
791.93	229.81
792.25	229.77
792.57	229.75
792.89	229.69
793.21	229.67
793.54	229.60
793.86	229.51
794.18	229.47
794.50	229.43
794.82	229.41
795.14	229.36
795.47	229.35
795.79	229.33
796.11	229.26
796.43	229.23
796.75	229.20
797.07	229.16
797.39	229.15
797.71	229.05
798.04	229.04
798.36	229.00
798.68	228.94
799.00	228.92
799.32	228.87
799.64	228.83
799.96	228.77
800.28	228.73
800.60	228.72
800.92	228.69
801.24	228.64
801.56	228.63
801.89	228.63
802.21	228.58
802.53	228.52
802.85	228.49
803.17	228.49
803.49	228.42
803.81	228.38
804.13	228.33
804.45	228.29
804.77	228.22
805.09	228.20
805.41	228.17
805.73	228.10
806.05	228.03
806.37	228.01
806.69	227.97
807.01	227.92
807.33	227.90
807.65	227.82
807.97	227.87
808.28	227.80
808.60	227.74
808.92	227.71
809.24	227.72
809.56	227.67
809.88	227.58
810.20	227.53
810.52	227.52
810.84	227.48
811.16	227.45
811.48	227.41
811.80	227.39
812.12	227.35
812.43	227.35
812.75	227.31
813.07	227.26
813.39	227.24
813.71	227.21
814.03	227.15
814.35	227.17
814.67	227.07
814.98	227.06
815.30	226.99
815.62	226.92
815.94	226.85
816.26	226.87
816.58	226.85
816.89	226.87
817.21	226.82
817.53	226.78
817.85	226.74
818.17	226.74
818.48	226.70
818.80	226.69
819.12	226.66
819.44	226.65
819.76	226.63
820.07	226.61
820.39	226.60
820.71	226.63
821.03	226.62
821.34	226.60
821.66	226.59
821.98	226.62
822.30	226.64
822.61	226.68
822.93	226.62
823.25	226.61
823.57	226.60
823.88	226.62
824.20	226.63
824.52	226.67
824.83	226.64
825.15	226.63
825.47	226.60
825.79	226.57
826.10	226.56
826.42	226.54
826.74	226.56
827.05	226.59
827.37	226.58
827.69	226.58
828.00	226.58
828.32	226.58
828.64	226.55
828.95	226.58
829.27	226.53
829.58	226.51
829.90	226.52
830.22	226.51
830.53	226.48
830.85	226.46
831.17	226.41
831.48	226.44
831.80	226.43
832.11	226.40
832.43	226.39
832.75	226.38
833.06	226.46
833.38	226.42
833.69	226.38
834.01	226.35
834.32	226.34
834.64	226.28
834.96	226.25
835.27	226.22
835.59	226.16
835.90	226.12
836.22	226.16
836.53	226.14
836.85	226.12
837.16	226.19
837.48	226.18
837.79	226.20
838.11	226.19
838.42	226.18
838.74	226.20
839.05	226.20
839.37	226.19
839.68	226.08
840.00	226.08
840.31	226.08
840.63	226.05
840.94	226.01
841.26	226.01
841.57	225.99
841.88	226.01
842.20	226.00
842.51	226.00
842.83	225.96
843.14	226.03
843.46	226.02
843.77	225.96
844.08	225.98
844.40	225.93
844.71	225.88
845.03	225.86
845.34	225.85
845.65	225.82
845.97	225.81
846.28	225.77
846.60	225.74
846.91	225.69
847.22	225.68
847.54	225.69
847.85	225.66
848.16	225.65
848.48	225.63
848.79	225.65
849.10	225.66
849.42	225.64
849.73	225.52
850.04	225.50
850.36	225.45
850.67	225.42
850.98	225.39
851.30	225.41
851.61	225.38
851.92	225.36
852.23	225.38
852.55	225.39
852.86	225.42
853.17	225.43
853.49	225.47
853.80	225.49
854.11	225.47
854.42	225.50
854.74	225.48
855.05	225.46
855.36	225.42
855.67	225.40
855.99	225.39
856.30	225.52
856.61	225.51
856.92	225.49
857.23	225.49
857.55	225.50
857.86	225.46
858.17	225.48
858.48	225.46
858.79	225.49
859.11	225.48
859.42	225.47
859.73	225.44
860.04	225.41
860.35	225.38
860.66	225.36
860.98	225.36
861.29	225.37
861.60	225.37
861.91	225.37
862.22	225.40
862.53	225.40
862.84	225.32
863.16	225.36
863.47	225.39
863.78	225.39
864.09	225.41
864.40	225.44
864.71	225.47
865.02	225.49
865.33	225.44
865.64	225.44
865.95	225.47
866.27	225.56
866.58	225.59
866.89	225.61
867.20	225.63
867.51	225.61
867.82	225.65
868.13	225.67
868.44	225.67
868.75	225.65
869.06	225.65
869.37	225.63
869.68	225.60
869.99	225.60
870.30	225.60
870.61	225.60
870.92	225.58
871.23	225.55
871.54	225.55
871.85	225.57
872.16	225.56
872.47	225.53
872.78	225.46
873.09	225.44
873.40	225.45
873.71	225.47
874.02	225.49
874.33	225.42
874.64	225.42
874.95	225.44
875.26	225.42
875.56	225.40
875.87	225.37
876.18	225.34
876.49	225.42
876.80	225.45
877.11	225.43
877.42	225.42
877.73	225.41
878.04	225.40
878.35	225.38
878.66	225.40
878.96	225.41
879.27	225.39
879.58	225.39
879.89	225.33
880.20	225.32
880.51	225.28
880.82	225.29
881.12	225.28
881.43	225.23
881.74	225.22
882.05	225.20
882.36	225.20
882.67	225.20
882.97	225.10
883.28	225.05
883.59	225.03
883.90	225.01
884.21	225.01
884.51	224.97
884.82	224.97
885.13	224.93
885.44	224.88
885.74	224.88
886.05	224.83
886.36	224.83
886.67	224.80
886.98	224.86
887.28	224.84
887.59	224.80
887.90	224.79
888.20	224.77
888.51	224.80
888.82	224.79
889.13	224.82
889.43	224.87
889.74	224.86
890.05	224.83
890.35	224.86
890.66	224.85
890.97	224.84
891.28	224.81
891.58	224.82
891.89	224.81
892.20	224.81
892.50	224.83
892.81	224.84
893.12	224.83
893.42	224.78
893.73	224.80
894.04	224.80
894.34	224.86
894.65	224.84
894.95	224.83
895.26	224.84
895.57	224.88
895.87	224.82
896.18	224.84
896.48	224.88
896.79	224.85
897.10	224.89
897.40	224.94
897.71	224.97
898.01	224.97
898.32	225.01
898.63	224.99
898.93	225.01
899.24	224.99
899.54	225.00
899.85	225.00
900.15	225.00
900.46	224.98
900.76	224.95
901.07	225.00
901.38	224.99
901.68	225.00
901.99	224.92
902.29	224.95
902.60	224.99
902.90	224.99
903.21	225.00
903.51	224.96
903.82	224.98
904.12	224.99
904.43	225.00
904.73	225.00
905.03	225.04
905.34	225.12
905.64	225.13
905.95	225.13
906.25	225.13
906.56	225.11
906.86	225.12
907.17	225.15
907.47	225.16
907.77	225.21
908.08	225.21
908.38	225.24
908.69	225.22
908.99	225.22
909.30	225.23
909.60	225.26
909.90	225.27
910.21	225.22
910.51	225.21
910.81	225.17
911.12	225.18
911.42	225.17
911.73	225.07
912.03	225.07
912.33	225.11
912.64	225.10
912.94	225.12
913.24	225.13
913.55	225.10
913.85	225.08
914.15	225.03
914.46	224.99
914.76	224.98
915.06	224.94
915.37	224.90
915.67	224.86
915.97	224.81
916.27	224.78
916.58	224.78
916.88	224.78
917.18	224.79
917.49	224.82
917.79	224.81
918.09	224.81
918.39	224.85
918.70	224.82
919.00	224.83
919.30	224.85
919.60	224.84
919.91	224.85
920.21	224.85
920.51	224.84
920.81	224.84
921.12	224.82
921.42	224.84
921.72	224.86
922.02	224.90
922.32	224.93
922.63	224.94
922.93	224.98
923.23	224.98
923.53	224.96
923.83	224.90
924.13	224.91
924.44	224.89
924.74	224.86
925.04	224.89
925.34	224.87
925.64	224.82
925.94	224.83
926.24	224.87
926.55	224.87
926.85	224.90
927.15	224.90
927.45	224.92
927.75	224.91
928.05	224.88
928.35	224.85
928.65	224.87
928.95	224.87
929.26	224.84
929.56	224.87
929.86	224.93
930.16	224.90
930.46	224.88
930.76	224.89
931.06	224.91
931.36	224.89
931.66	224.92
931.96	224.96
932.26	224.98
932.56	224.96
932.86	224.96
933.16	224.94
933.46	224.97
933.76	224.97
934.06	225.03
934.36	225.10
934.66	225.11
934.96	225.09
935.26	225.14
935.56	225.16
935.86	225.17
936.16	225.15
936.46	225.21
936.76	225.22
937.06	225.22
937.36	225.22
937.66	225.22
937.96	225.22
938.26	225.19
938.56	225.18
938.86	225.22
939.16	225.23
939.46	225.28
939.76	225.31
940.06	225.31
940.35	225.31
940.65	225.25
940.95	225.26
941.25	225.27
941.55	225.24
941.85	225.25
942.15	225.21
942.45	225.27
942.75	225.26
943.04	225.29
943.34	225.34
943.64	225.32
943.94	225.30
944.24	225.31
944.54	225.34
944.84	225.32
945.13	225.30
945.43	225.27
945.73	225.25
946.03	225.22
946.33	225.20
946.62	225.16
946.92	225.17
947.22	225.16
947.52	225.17
947.82	225.18
948.11	225.17
948.41	225.16
948.71	225.10
949.01	225.09
949.31	225.07
949.60	225.01
949.90	225.03
950.20	225.03
950.50	225.03
950.79	225.00
951.09	225.02
951.39	225.02
951.69	225.02
951.98	225.04
952.28	225.05
952.58	225.02
952.87	224.99
953.17	224.99
953.47	224.99
953.76	224.95
954.06	224.90
954.36	224.89
954.66	224.87
954.95	224.91
955.25	224.91
955.55	224.91
955.84	224.90
956.14	224.87
956.44	224.89
956.73	224.84
957.03	224.88
957.32	224.90
957.62	224.88
957.92	224.86
958.21	224.83
958.51	224.93
958.81	224.96
959.10	224.94
959.40	224.95
959.69	224.95
959.99	224.99
960.29	225.04
960.58	225.01
960.88	225.04
961.17	225.02
961.47	224.97
961.76	224.94
962.06	224.99
962.36	225.00
962.65	225.00
962.95	225.00
963.24	224.96
963.54	224.93
963.83	224.93
964.13	224.95
964.42	224.92
964.72	224.87
965.01	224.88
965.31	224.91
965.60	224.90
965.90	224.95
966.19	224.92
966.49	224.90
966.78	224.92
967.08	224.92
967.37	224.90
967.67	224.95
967.96	224.95
968.26	224.92
968.55	224.94
968.85	224.92
969.14	224.94
969.43	224.90
969.73	224.93
970.02	224.94
970.32	224.93
970.61	224.96
970.91	224.92
971.20	224.91
971.49	224.91
971.79	224.91
972.08	224.89
972.38	224.89
972.67	224.85
972.96	224.89
973.26	224.86
973.55	224.91
973.85	224.89
974.14	224.90
974.43	224.89
974.73	224.89
975.02	224.89
975.31	224.89
975.61	224.94
975.90	224.88
976.19	224.91
976.49	224.91
976.78	224.88
977.07	224.89
977.37	224.91
977.66	224.90
977.95	224.89
978.24	224.88
978.54	224.95
978.83	224.99
979.12	224.97
979.42	224.98
979.71	224.96
980.00	224.97
980.29	225.00
980.59	225.00
980.88	225.01
981.17	225.01
981.46	225.00
981.76	224.98
982.05	225.03
982.34	225.03
982.63	225.04
982.93	225.03
983.22	225.05
983.51	225.01
983.80	225.03
984.09	225.05
984.39	225.03
984.68	224.99
984.97	224.96
985.26	224.95
985.55	224.97
985.85	224.92
986.14	224.91
986.43	224.92
986.72	224.93
987.01	224.90
987.30	224.91
987.59	224.92
987.89	224.92
988.18	224.88
988.47	224.89
988.76	224.86
989.05	224.86
989.34	224.84
989.63	224.87
989.92	224.85
990.22	224.84
990.51	224.81
990.80	224.79
991.09	224.83
991.38	224.82
991.67	224.81
991.96	224.81
992.25	224.80
992.54	224.77
992.83	224.76
993.12	224.76
993.41	224.76
993.70	224.79
993.99	224.83
994.28	224.84
994.58	224.80
994.87	224.78
995.16	224.74
995.45	224.75
995.74	224.73
996.03	224.73
996.32	224.71
996.61	224.76
996.90	224.72
997.19	224.68
997.48	224.69
997.77	224.62
998.06	224.62
998.34	224.62
998.63	224.59
998.92	224.58
999.21	224.57
999.50	224.56
999.79	224.51
1000.08	224.49
1000.37	224.48
1000.66	224.45
1000.95	224.47
1001.24	224.49
1001.53	224.47
1001.82	224.44
1002.11	224.43
1002.40	224.45
1002.68	224.45
1002.97	224.53
1003.26	224.53
1003.55	224.48
1003.84	224.53
1004.13	224.55
1004.42	224.51
1004.71	224.51
1004.99	224.51
1005.28	224.54
1005.57	224.54
1005.86	224.52
1006.15	224.51
1006.44	224.49
1006.72	224.51
1007.01	224.48
1007.30	224.48
1007.59	224.45
1007.88	224.46
1008.17	224.48
1008.45	224.46
1008.74	224.43
1009.03	224.41
1009.32	224.42
1009.60	224.43
1009.89	224.42
1010.18	224.40
1010.47	224.44
1010.76	224.47
1011.04	224.46
1011.33	224.48
1011.62	224.48
1011.91	224.50
1012.19	224.51
1012.48	224.55
1012.77	224.60
1013.05	224.66
1013.34	224.70
1013.63	224.74
1013.92	224.76
1014.20	224.76
1014.49	224.78
1014.78	224.82
1015.06	224.78
1015.35	224.80
1015.64	224.83
1015.92	224.86
1016.21	224.90
1016.50	224.89
1016.78	224.91
1017.07	224.95
1017.36	224.92
1017.64	224.92
1017.93	224.93
1018.22	224.93
1018.50	224.91
1018.79	224.88
1019.08	224.85
1019.36	224.85
1019.65	224.82
1019.93	224.86
1020.22	224.86
1020.51	224.92
1020.79	224.88
1021.08	224.88
1021.36	224.66
1021.65	224.64
1021.94	224.78
1022.22	224.75
1022.51	224.61
1022.79	225.67
1023.08	224.78
1023.36	226.30
1023.65	224.52
>>>>>End Processed Spectral Data<<<<<
