SpectraSuite Data File
++++++++++++++++++++++++++++++++++++
Date: Fri Feb 01 15:08:43 EST 2013
User: group
Dark Spectrum Present: No
Reference Spectrum Present: No
Number of Sampled Component Spectra: 1
Spectrometers: USB2E7196
Integration Time (usec): 35000 (USB2E7196)
Spectra Averaged: 100 (USB2E7196)
Boxcar Smoothing: 10 (USB2E7196)
Correct for Electrical Dark: No (USB2E7196)
Strobe/Lamp Enabled: No (USB2E7196)
Correct for Detector Non-linearity: No (USB2E7196)
Correct for Stray Light: No (USB2E7196)
Number of Pixels in Processed Spectrum: 2048
>>>>>Begin Processed Spectral Data<<<<<
339.09	0.00
339.48	215.19
339.86	216.91
340.24	218.12
340.63	219.38
341.01	222.25
341.39	222.24
341.78	223.44
342.16	224.42
342.54	225.20
342.93	213.47
343.31	224.26
343.69	224.81
344.07	225.25
344.46	225.68
344.84	226.07
345.22	226.29
345.60	226.52
345.99	226.71
346.37	226.86
346.75	226.92
347.13	226.96
347.52	227.00
347.90	227.06
348.28	227.09
348.66	227.11
349.05	227.13
349.43	227.18
349.81	227.22
350.19	227.26
350.57	227.33
350.96	227.41
351.34	227.50
351.72	227.55
352.10	227.63
352.48	227.68
352.87	227.73
353.25	227.79
353.63	227.86
354.01	227.92
354.39	227.97
354.77	228.09
355.15	228.22
355.54	228.27
355.92	228.29
356.30	228.37
356.68	228.51
357.06	228.58
357.44	228.61
357.82	228.68
358.20	228.73
358.58	228.78
358.97	228.86
359.35	228.92
359.73	229.00
360.11	229.07
360.49	229.12
360.87	229.14
361.25	229.21
361.63	229.31
362.01	229.34
362.39	229.39
362.77	229.38
363.15	229.35
363.53	229.37
363.91	229.41
364.29	229.40
364.67	229.33
365.05	229.34
365.43	229.34
365.81	229.36
366.19	229.39
366.57	229.43
366.95	229.40
367.33	229.39
367.71	229.37
368.09	229.33
368.47	229.34
368.85	229.34
369.23	229.30
369.61	229.20
369.99	229.21
370.37	229.15
370.75	229.19
371.13	229.16
371.51	229.12
371.89	229.07
372.27	229.06
372.65	229.02
373.03	228.94
373.41	228.90
373.78	228.84
374.16	228.74
374.54	228.68
374.92	228.59
375.30	228.52
375.68	228.43
376.06	228.40
376.44	228.30
376.82	228.23
377.19	228.19
377.57	228.13
377.95	228.04
378.33	228.01
378.71	227.89
379.09	227.85
379.47	227.80
379.84	227.70
380.22	227.63
380.60	227.56
380.98	227.53
381.36	227.43
381.73	227.33
382.11	227.31
382.49	227.25
382.87	227.21
383.25	227.13
383.62	227.21
384.00	227.10
384.38	227.06
384.76	227.00
385.13	227.00
385.51	226.95
385.89	226.89
386.27	226.84
386.64	226.82
387.02	226.75
387.40	226.70
387.78	226.68
388.15	226.66
388.53	226.58
388.91	226.54
389.29	226.51
389.66	226.52
390.04	226.47
390.42	226.44
390.79	226.42
391.17	226.42
391.55	226.30
391.92	226.33
392.30	226.36
392.68	226.37
393.05	226.35
393.43	226.34
393.81	226.39
394.18	226.36
394.56	226.40
394.94	226.45
395.31	226.47
395.69	226.53
396.06	226.56
396.44	226.65
396.82	226.66
397.19	226.79
397.57	226.84
397.95	226.93
398.32	226.99
398.70	227.08
399.07	227.18
399.45	227.27
399.82	227.36
400.20	227.41
400.58	227.52
400.95	227.59
401.33	227.69
401.70	227.85
402.08	227.98
402.45	228.05
402.83	228.20
403.20	228.33
403.58	228.49
403.95	228.61
404.33	228.76
404.71	228.93
405.08	229.09
405.46	229.23
405.83	229.37
406.21	229.50
406.58	229.65
406.96	229.80
407.33	229.97
407.70	230.17
408.08	230.46
408.45	230.67
408.83	230.92
409.20	231.15
409.58	231.30
409.95	231.59
410.33	231.90
410.70	232.10
411.08	232.38
411.45	232.65
411.82	232.96
412.20	233.28
412.57	233.69
412.95	233.98
413.32	234.38
413.69	234.81
414.07	235.26
414.44	235.74
414.82	236.24
415.19	236.79
415.56	237.33
415.94	237.86
416.31	238.51
416.68	239.12
417.06	239.83
417.43	240.51
417.81	241.25
418.18	242.03
418.55	242.89
418.93	243.79
419.30	244.69
419.67	245.64
420.04	246.61
420.42	247.62
420.79	248.84
421.16	250.01
421.54	251.19
421.91	252.41
422.28	253.66
422.66	255.02
423.03	256.37
423.40	257.69
423.77	259.12
424.15	260.49
424.52	261.97
424.89	263.58
425.26	265.17
425.64	266.63
426.01	268.18
426.38	269.83
426.75	271.51
427.13	273.23
427.50	275.08
427.87	276.95
428.24	278.79
428.61	280.53
428.99	282.46
429.36	284.59
429.73	286.63
430.10	288.67
430.47	290.73
430.85	292.82
431.22	295.08
431.59	297.45
431.96	299.74
432.33	302.25
432.70	304.64
433.08	307.42
433.45	310.07
433.82	312.69
434.19	315.59
434.56	318.41
434.93	321.09
435.30	323.67
435.68	326.58
436.05	329.45
436.42	332.25
436.79	334.78
437.16	337.45
437.53	340.37
437.90	343.15
438.27	345.85
438.64	348.70
439.01	351.25
439.38	353.51
439.75	355.70
440.13	358.18
440.50	360.56
440.87	362.43
441.24	364.33
441.61	366.54
441.98	368.07
442.35	369.89
442.72	371.74
443.09	373.58
443.46	374.57
443.83	375.13
444.20	375.57
444.57	376.39
444.94	376.69
445.31	376.97
445.68	377.37
446.05	377.47
446.42	377.08
446.79	376.72
447.16	376.27
447.53	375.95
447.90	374.79
448.27	373.59
448.64	371.99
449.01	370.94
449.37	368.91
449.74	367.01
450.11	364.72
450.48	362.23
450.85	359.65
451.22	357.46
451.59	355.42
451.96	353.52
452.33	350.93
452.70	348.56
453.07	345.70
453.43	342.80
453.80	339.99
454.17	337.27
454.54	334.71
454.91	331.97
455.28	329.27
455.65	326.75
456.02	324.25
456.38	322.09
456.75	319.36
457.12	317.11
457.49	314.84
457.86	312.64
458.23	310.80
458.59	308.76
458.96	306.69
459.33	304.87
459.70	302.97
460.07	301.49
460.43	299.72
460.80	298.11
461.17	296.63
461.54	295.14
461.91	293.69
462.27	292.22
462.64	290.94
463.01	289.56
463.38	288.26
463.74	286.92
464.11	285.74
464.48	284.73
464.85	283.62
465.21	282.74
465.58	281.84
465.95	280.68
466.32	279.82
466.68	278.91
467.05	278.00
467.42	277.12
467.78	276.11
468.15	275.27
468.52	274.58
468.88	273.73
469.25	272.95
469.62	272.35
469.98	271.66
470.35	271.01
470.72	270.40
471.08	269.75
471.45	269.18
471.82	268.65
472.18	268.01
472.55	267.59
472.92	267.09
473.28	266.59
473.65	266.19
474.02	265.69
474.38	265.29
474.75	264.96
475.11	264.60
475.48	264.39
475.85	264.13
476.21	263.87
476.58	263.66
476.94	263.50
477.31	263.29
477.67	263.15
478.04	263.06
478.41	263.01
478.77	263.03
479.14	262.97
479.50	262.98
479.87	263.04
480.23	263.09
480.60	263.14
480.96	263.22
481.33	263.42
481.69	263.64
482.06	263.85
482.42	264.04
482.79	264.30
483.15	264.61
483.52	265.00
483.88	265.36
484.25	265.74
484.61	266.14
484.98	266.63
485.34	267.16
485.71	267.72
486.07	268.32
486.44	268.90
486.80	269.61
487.17	270.34
487.53	271.19
487.90	272.01
488.26	272.94
488.62	273.91
488.99	274.86
489.35	275.91
489.72	277.05
490.08	278.28
490.44	279.50
490.81	280.78
491.17	282.10
491.54	283.62
491.90	285.17
492.26	286.86
492.63	288.59
492.99	290.37
493.36	292.23
493.72	294.25
494.08	296.39
494.45	298.62
494.81	300.93
495.17	303.33
495.54	305.87
495.90	308.53
496.26	311.33
496.63	314.27
496.99	317.30
497.35	320.55
497.72	323.87
498.08	327.42
498.44	331.10
498.80	335.05
499.17	339.04
499.53	343.19
499.89	347.55
500.26	352.00
500.62	356.68
500.98	361.63
501.34	366.70
501.71	371.94
502.07	377.35
502.43	382.94
502.79	388.69
503.16	394.79
503.52	401.06
503.88	407.46
504.24	414.08
504.60	420.99
504.97	428.04
505.33	435.35
505.69	443.03
506.05	450.83
506.41	458.67
506.78	466.83
507.14	475.24
507.50	483.95
507.86	492.94
508.22	502.12
508.59	511.33
508.95	520.90
509.31	530.70
509.67	540.78
510.03	551.06
510.39	561.63
510.75	572.40
511.12	583.33
511.48	594.58
511.84	606.01
512.20	617.55
512.56	629.53
512.92	641.75
513.28	653.94
513.64	666.38
514.00	679.04
514.37	692.00
514.73	705.06
515.09	718.03
515.45	731.42
515.81	744.96
516.17	758.96
516.53	773.02
516.89	787.25
517.25	801.46
517.61	815.98
517.97	830.54
518.33	844.96
518.69	859.80
519.05	874.93
519.41	890.16
519.77	905.73
520.13	921.13
520.49	936.50
520.85	952.04
521.21	967.81
521.57	984.19
521.93	999.99
522.29	1016.40
522.65	1032.76
523.01	1048.99
523.37	1065.08
523.73	1081.27
524.09	1097.51
524.45	1113.82
524.81	1130.48
525.17	1147.34
525.53	1164.32
525.89	1181.38
526.25	1198.15
526.61	1214.55
526.97	1231.33
527.33	1247.95
527.68	1264.63
528.04	1281.27
528.40	1297.98
528.76	1315.05
529.12	1331.70
529.48	1348.63
529.84	1364.85
530.20	1381.49
530.56	1398.55
530.91	1416.13
531.27	1432.98
531.63	1449.47
531.99	1466.25
532.35	1482.31
532.71	1498.30
533.07	1514.56
533.42	1530.42
533.78	1546.65
534.14	1563.03
534.50	1578.49
534.86	1594.34
535.21	1609.65
535.57	1625.66
535.93	1641.37
536.29	1656.28
536.65	1671.45
537.00	1686.38
537.36	1701.74
537.72	1716.50
538.08	1730.97
538.44	1744.78
538.79	1758.78
539.15	1772.63
539.51	1786.31
539.87	1800.75
540.22	1814.53
540.58	1828.49
540.94	1841.99
541.29	1855.02
541.65	1867.73
542.01	1881.02
542.37	1893.45
542.72	1906.04
543.08	1917.88
543.44	1930.18
543.79	1941.51
544.15	1952.57
544.51	1964.20
544.87	1975.28
545.22	1986.06
545.58	1996.30
545.94	2006.17
546.29	2016.09
546.65	2025.87
547.01	2035.22
547.36	2043.94
547.72	2052.39
548.07	2060.21
548.43	2068.32
548.79	2076.38
549.14	2083.90
549.50	2091.36
549.86	2099.05
550.21	2106.43
550.57	2113.63
550.92	2120.20
551.28	2127.26
551.64	2134.32
551.99	2140.86
552.35	2146.96
552.70	2153.04
553.06	2158.98
553.41	2165.33
553.77	2171.30
554.13	2177.42
554.48	2183.61
554.84	2189.08
555.19	2194.51
555.55	2199.47
555.90	2203.88
556.26	2208.49
556.61	2213.26
556.97	2217.33
557.32	2221.51
557.68	2225.41
558.03	2229.70
558.39	2233.39
558.74	2237.99
559.10	2241.69
559.45	2245.21
559.81	2249.52
560.16	2253.28
560.52	2256.53
560.87	2259.84
561.23	2262.63
561.58	2265.47
561.94	2267.90
562.29	2270.20
562.64	2272.76
563.00	2275.45
563.35	2279.03
563.71	2282.20
564.06	2285.33
564.42	2288.22
564.77	2290.46
565.12	2292.75
565.48	2294.46
565.83	2296.34
566.19	2297.51
566.54	2298.59
566.89	2299.66
567.25	2300.12
567.60	2301.46
567.96	2303.04
568.31	2303.76
568.66	2304.54
569.02	2305.15
569.37	2305.37
569.72	2306.11
570.08	2305.96
570.43	2305.90
570.78	2305.09
571.14	2303.61
571.49	2302.14
571.84	2301.61
572.20	2300.31
572.55	2299.10
572.90	2297.53
573.26	2296.00
573.61	2294.26
573.96	2292.19
574.31	2289.08
574.67	2286.02
575.02	2282.25
575.37	2278.83
575.72	2274.96
576.08	2271.60
576.43	2268.17
576.78	2264.40
577.13	2261.21
577.49	2258.07
577.84	2254.31
578.19	2250.54
578.54	2246.60
578.90	2242.16
579.25	2236.59
579.60	2231.58
579.95	2226.58
580.30	2221.41
580.66	2216.05
581.01	2210.96
581.36	2205.97
581.71	2201.66
582.06	2196.97
582.42	2192.33
582.77	2187.03
583.12	2182.34
583.47	2177.53
583.82	2172.35
584.17	2166.81
584.53	2161.21
584.88	2155.63
585.23	2149.76
585.58	2144.30
585.93	2138.86
586.28	2134.17
586.63	2128.97
586.98	2123.89
587.34	2119.02
587.69	2114.01
588.04	2108.66
588.39	2102.90
588.74	2096.28
589.09	2090.03
589.44	2083.22
589.79	2077.14
590.14	2071.41
590.49	2064.79
590.84	2058.21
591.19	2052.01
591.54	2045.62
591.89	2037.95
592.25	2030.91
592.60	2023.79
592.95	2016.00
593.30	2008.55
593.65	2000.82
594.00	1993.73
594.35	1986.37
594.70	1978.20
595.05	1970.99
595.40	1963.65
595.75	1956.06
596.10	1949.68
596.45	1942.85
596.80	1936.56
597.15	1929.79
597.50	1922.37
597.85	1915.78
598.19	1909.09
598.54	1902.07
598.89	1895.46
599.24	1889.60
599.59	1882.81
599.94	1876.56
600.29	1870.24
600.64	1863.69
600.99	1856.14
601.34	1849.19
601.69	1842.21
602.04	1835.26
602.39	1827.70
602.74	1820.81
603.08	1814.14
603.43	1807.44
603.78	1800.14
604.13	1792.86
604.48	1785.55
604.83	1778.87
605.18	1771.80
605.53	1763.58
605.87	1755.47
606.22	1748.14
606.57	1740.30
606.92	1732.98
607.27	1725.66
607.62	1718.58
607.96	1711.16
608.31	1704.52
608.66	1696.93
609.01	1689.27
609.36	1681.70
609.70	1673.79
610.05	1665.71
610.40	1657.93
610.75	1649.67
611.10	1642.06
611.44	1633.75
611.79	1625.80
612.14	1617.05
612.49	1608.06
612.83	1599.97
613.18	1591.87
613.53	1583.76
613.88	1575.09
614.22	1566.93
614.57	1558.53
614.92	1550.60
615.27	1543.11
615.61	1534.79
615.96	1526.78
616.31	1519.28
616.65	1512.01
617.00	1504.46
617.35	1496.86
617.70	1488.44
618.04	1479.80
618.39	1471.54
618.74	1463.86
619.08	1455.58
619.43	1448.09
619.78	1441.16
620.12	1433.94
620.47	1426.35
620.82	1418.27
621.16	1410.93
621.51	1403.34
621.85	1395.58
622.20	1387.05
622.55	1378.62
622.89	1370.90
623.24	1363.34
623.59	1356.02
623.93	1348.50
624.28	1341.29
624.62	1333.79
624.97	1326.75
625.32	1320.28
625.66	1313.20
626.01	1306.00
626.35	1298.61
626.70	1290.86
627.04	1283.11
627.39	1275.42
627.73	1268.11
628.08	1261.19
628.43	1253.89
628.77	1246.48
629.12	1238.98
629.46	1231.88
629.81	1224.53
630.15	1217.25
630.50	1209.82
630.84	1201.58
631.19	1193.74
631.53	1186.32
631.88	1178.74
632.22	1171.11
632.57	1163.72
632.91	1156.21
633.26	1148.95
633.60	1141.60
633.95	1134.59
634.29	1127.67
634.64	1121.04
634.98	1113.70
635.32	1106.65
635.67	1100.05
636.01	1093.39
636.36	1086.63
636.70	1080.24
637.05	1073.64
637.39	1067.23
637.73	1060.79
638.08	1055.03
638.42	1049.06
638.77	1042.59
639.11	1036.06
639.45	1029.81
639.80	1023.16
640.14	1016.75
640.49	1010.19
640.83	1003.91
641.17	997.62
641.52	991.20
641.86	984.82
642.20	979.05
642.55	972.79
642.89	966.38
643.23	959.90
643.58	954.11
643.92	947.74
644.26	941.66
644.61	935.66
644.95	929.72
645.29	923.09
645.64	916.26
645.98	909.94
646.32	904.17
646.66	898.09
647.01	892.30
647.35	886.67
647.69	880.92
648.04	875.48
648.38	869.73
648.72	863.74
649.06	857.63
649.41	851.76
649.75	845.69
650.09	839.73
650.43	833.94
650.78	827.84
651.12	821.92
651.46	816.27
651.80	810.48
652.14	804.98
652.49	799.61
652.83	794.54
653.17	788.89
653.51	783.11
653.85	777.71
654.20	772.00
654.54	766.08
654.88	760.33
655.22	754.43
655.56	748.76
655.90	743.35
656.25	738.09
656.59	732.77
656.93	727.72
657.27	722.61
657.61	717.19
657.95	712.06
658.29	707.08
658.64	701.96
658.98	696.71
659.32	691.24
659.66	685.98
660.00	680.68
660.34	675.70
660.68	670.84
661.02	665.84
661.36	661.26
661.70	656.73
662.05	652.36
662.39	648.04
662.73	643.63
663.07	639.27
663.41	634.83
663.75	630.29
664.09	625.82
664.43	621.45
664.77	617.38
665.11	613.24
665.45	609.11
665.79	605.04
666.13	600.99
666.47	596.98
666.81	592.92
667.15	588.85
667.49	585.03
667.83	581.24
668.17	577.37
668.51	573.33
668.85	569.34
669.19	565.56
669.53	561.73
669.87	557.82
670.21	554.18
670.55	550.64
670.89	547.24
671.23	543.74
671.57	540.30
671.91	536.84
672.25	533.30
672.58	529.84
672.92	526.41
673.26	523.25
673.60	520.12
673.94	517.00
674.28	514.10
674.62	511.12
674.96	508.01
675.30	505.06
675.64	502.12
675.97	499.41
676.31	496.50
676.65	493.59
676.99	490.90
677.33	488.07
677.67	485.23
678.01	482.18
678.34	479.19
678.68	476.32
679.02	473.48
679.36	470.74
679.70	468.01
680.04	465.22
680.37	462.36
680.71	459.58
681.05	456.97
681.39	454.26
681.73	451.64
682.06	449.13
682.40	446.59
682.74	444.08
683.08	441.52
683.42	438.97
683.75	436.48
684.09	433.96
684.43	431.46
684.77	428.98
685.10	426.66
685.44	424.42
685.78	422.13
686.12	419.87
686.45	417.64
686.79	415.31
687.13	413.15
687.46	410.99
687.80	408.81
688.14	406.60
688.48	404.52
688.81	402.23
689.15	400.09
689.49	397.96
689.82	395.85
690.16	393.75
690.50	391.78
690.83	389.86
691.17	387.92
691.51	386.04
691.84	384.23
692.18	382.31
692.52	380.33
692.85	378.41
693.19	376.52
693.52	374.69
693.86	372.93
694.20	371.15
694.53	369.38
694.87	367.60
695.21	365.83
695.54	364.05
695.88	362.41
696.21	360.70
696.55	359.08
696.88	357.43
697.22	355.81
697.56	354.19
697.89	352.49
698.23	350.87
698.56	349.28
698.90	347.67
699.23	346.04
699.57	344.49
699.90	342.98
700.24	341.48
700.58	339.94
700.91	338.47
701.25	337.04
701.58	335.63
701.92	334.28
702.25	332.92
702.59	331.56
702.92	330.22
703.26	328.91
703.59	327.60
703.93	326.43
704.26	325.18
704.60	323.88
704.93	322.67
705.26	321.43
705.60	320.24
705.93	319.08
706.27	318.05
706.60	317.01
706.94	315.90
707.27	314.79
707.61	313.73
707.94	312.69
708.27	311.62
708.61	310.55
708.94	309.55
709.28	308.56
709.61	307.63
709.94	306.65
710.28	305.70
710.61	304.71
710.95	303.66
711.28	302.75
711.61	301.85
711.95	300.93
712.28	299.98
712.61	299.05
712.95	298.13
713.28	297.27
713.61	296.36
713.95	295.50
714.28	294.68
714.61	293.79
714.95	292.94
715.28	292.09
715.61	291.26
715.95	290.40
716.28	289.56
716.61	288.73
716.95	287.96
717.28	287.18
717.61	286.46
717.94	285.73
718.28	284.91
718.61	284.17
718.94	283.50
719.27	282.86
719.61	282.19
719.94	281.54
720.27	280.86
720.60	280.20
720.94	279.57
721.27	278.97
721.60	278.41
721.93	277.80
722.27	277.26
722.60	276.69
722.93	276.11
723.26	275.55
723.59	274.95
723.93	274.42
724.26	273.85
724.59	273.29
724.92	272.77
725.25	272.30
725.59	271.79
725.92	271.25
726.25	270.76
726.58	270.29
726.91	269.80
727.24	269.32
727.57	268.84
727.91	268.32
728.24	267.85
728.57	267.38
728.90	266.95
729.23	266.46
729.56	266.00
729.89	265.56
730.22	265.09
730.55	264.70
730.89	264.25
731.22	263.80
731.55	263.35
731.88	262.93
732.21	262.49
732.54	262.06
732.87	261.66
733.20	261.26
733.53	260.87
733.86	260.48
734.19	260.07
734.52	259.70
734.85	259.42
735.18	259.00
735.51	258.64
735.84	258.25
736.17	257.88
736.50	257.51
736.83	257.26
737.16	256.95
737.49	256.61
737.82	256.20
738.15	255.90
738.48	255.59
738.81	255.24
739.14	254.91
739.47	254.59
739.80	254.25
740.13	253.94
740.46	253.65
740.79	253.32
741.12	253.00
741.45	252.70
741.78	252.34
742.11	252.05
742.44	251.70
742.77	251.45
743.10	251.19
743.43	250.88
743.75	250.53
744.08	250.39
744.41	250.09
744.74	249.85
745.07	249.55
745.40	249.34
745.73	249.10
746.06	248.83
746.39	248.57
746.71	248.34
747.04	248.06
747.37	247.77
747.70	247.57
748.03	247.33
748.36	247.12
748.68	246.93
749.01	246.68
749.34	246.51
749.67	246.30
750.00	246.05
750.33	245.88
750.65	245.66
750.98	245.32
751.31	245.12
751.64	244.92
751.97	244.80
752.29	244.55
752.62	244.33
752.95	244.10
753.28	243.90
753.60	243.69
753.93	243.54
754.26	243.37
754.59	243.11
754.91	242.91
755.24	242.70
755.57	242.50
755.90	242.31
756.22	242.11
756.55	241.90
756.88	241.73
757.20	241.53
757.53	241.31
757.86	241.15
758.19	241.02
758.51	240.87
758.84	240.63
759.17	240.42
759.49	240.26
759.82	240.17
760.15	240.03
760.47	239.87
760.80	239.71
761.13	239.53
761.45	239.44
761.78	239.31
762.11	239.17
762.43	239.02
762.76	238.88
763.08	238.71
763.41	238.55
763.74	238.41
764.06	238.27
764.39	238.17
764.71	238.02
765.04	237.84
765.37	237.70
765.69	237.57
766.02	237.47
766.34	237.35
766.67	237.22
767.00	237.09
767.32	237.01
767.65	236.95
767.97	236.86
768.30	236.72
768.62	236.57
768.95	236.44
769.27	236.34
769.60	236.23
769.92	236.14
770.25	236.02
770.57	235.89
770.90	235.78
771.22	235.63
771.55	235.51
771.87	235.43
772.20	235.29
772.52	235.30
772.85	235.30
773.17	235.22
773.50	235.11
773.82	235.01
774.15	234.89
774.47	234.72
774.80	234.61
775.12	234.49
775.45	234.40
775.77	234.32
776.09	234.20
776.42	234.13
776.74	234.05
777.07	233.97
777.39	233.93
777.72	233.84
778.04	233.78
778.36	233.72
778.69	233.66
779.01	233.63
779.33	233.47
779.66	233.30
779.98	233.20
780.31	233.13
780.63	233.10
780.95	233.02
781.28	232.97
781.60	232.90
781.92	232.88
782.25	232.85
782.57	232.78
782.89	232.74
783.22	232.67
783.54	232.61
783.86	232.59
784.19	232.52
784.51	232.50
784.83	232.45
785.16	232.40
785.48	232.34
785.80	232.28
786.12	232.25
786.45	232.21
786.77	232.18
787.09	232.13
787.42	232.07
787.74	232.06
788.06	231.98
788.38	231.94
788.71	231.87
789.03	231.78
789.35	231.74
789.67	231.70
789.99	231.68
790.32	231.63
790.64	231.60
790.96	231.63
791.28	231.55
791.61	231.53
791.93	231.47
792.25	231.42
792.57	231.42
792.89	231.35
793.21	231.29
793.54	231.23
793.86	231.17
794.18	231.12
794.50	231.08
794.82	231.09
795.14	231.07
795.47	231.07
795.79	231.06
796.11	231.03
796.43	231.00
796.75	230.92
797.07	230.92
797.39	230.85
797.71	230.78
798.04	230.75
798.36	230.69
798.68	230.64
799.00	230.62
799.32	230.56
799.64	230.53
799.96	230.52
800.28	230.50
800.60	230.44
800.92	230.41
801.24	230.37
801.56	230.33
801.89	230.27
802.21	230.20
802.53	230.19
802.85	230.15
803.17	230.14
803.49	230.11
803.81	230.04
804.13	230.03
804.45	229.98
804.77	229.95
805.09	229.93
805.41	229.92
805.73	229.88
806.05	229.81
806.37	229.80
806.69	229.76
807.01	229.71
807.33	229.68
807.65	229.60
807.97	229.60
808.28	229.58
808.60	229.53
808.92	229.47
809.24	229.47
809.56	229.42
809.88	229.37
810.20	229.35
810.52	229.37
810.84	229.32
811.16	229.25
811.48	229.22
811.80	229.22
812.12	229.20
812.43	229.19
812.75	229.18
813.07	229.15
813.39	229.16
813.71	229.14
814.03	229.11
814.35	229.12
814.67	229.03
814.98	229.00
815.30	228.99
815.62	228.99
815.94	228.93
816.26	228.98
816.58	228.92
816.89	228.91
817.21	228.86
817.53	228.87
817.85	228.90
818.17	228.89
818.48	228.83
818.80	228.83
819.12	228.82
819.44	228.83
819.76	228.79
820.07	228.76
820.39	228.77
820.71	228.78
821.03	228.74
821.34	228.73
821.66	228.76
821.98	228.77
822.30	228.79
822.61	228.80
822.93	228.74
823.25	228.76
823.57	228.71
823.88	228.71
824.20	228.69
824.52	228.70
824.83	228.70
825.15	228.70
825.47	228.68
825.79	228.64
826.10	228.63
826.42	228.62
826.74	228.61
827.05	228.60
827.37	228.55
827.69	228.56
828.00	228.57
828.32	228.53
828.64	228.51
828.95	228.53
829.27	228.52
829.58	228.51
829.90	228.50
830.22	228.55
830.53	228.52
830.85	228.50
831.17	228.47
831.48	228.42
831.80	228.43
832.11	228.40
832.43	228.40
832.75	228.34
833.06	228.42
833.38	228.36
833.69	228.33
834.01	228.35
834.32	228.37
834.64	228.36
834.96	228.35
835.27	228.34
835.59	228.29
835.90	228.23
836.22	228.25
836.53	228.23
836.85	228.18
837.16	228.26
837.48	228.26
837.79	228.24
838.11	228.24
838.42	228.21
838.74	228.20
839.05	228.20
839.37	228.18
839.68	228.07
840.00	228.05
840.31	228.06
840.63	228.03
840.94	227.99
841.26	227.96
841.57	227.96
841.88	227.97
842.20	227.93
842.51	227.92
842.83	227.87
843.14	227.93
843.46	227.92
843.77	227.86
844.08	227.83
844.40	227.80
844.71	227.79
845.03	227.78
845.34	227.75
845.65	227.73
845.97	227.76
846.28	227.78
846.60	227.81
846.91	227.79
847.22	227.78
847.54	227.81
847.85	227.82
848.16	227.79
848.48	227.75
848.79	227.83
849.10	227.85
849.42	227.84
849.73	227.74
850.04	227.72
850.36	227.66
850.67	227.67
850.98	227.68
851.30	227.66
851.61	227.66
851.92	227.68
852.23	227.69
852.55	227.64
852.86	227.64
853.17	227.63
853.49	227.62
853.80	227.66
854.11	227.65
854.42	227.64
854.74	227.60
855.05	227.61
855.36	227.53
855.67	227.52
855.99	227.56
856.30	227.67
856.61	227.68
856.92	227.70
857.23	227.70
857.55	227.69
857.86	227.68
858.17	227.70
858.48	227.69
858.79	227.68
859.11	227.70
859.42	227.69
859.73	227.65
860.04	227.68
860.35	227.64
860.66	227.61
860.98	227.63
861.29	227.69
861.60	227.69
861.91	227.72
862.22	227.70
862.53	227.69
862.84	227.56
863.16	227.58
863.47	227.56
863.78	227.55
864.09	227.57
864.40	227.61
864.71	227.60
865.02	227.57
865.33	227.56
865.64	227.53
865.95	227.56
866.27	227.65
866.58	227.64
866.89	227.66
867.20	227.67
867.51	227.66
867.82	227.63
868.13	227.70
868.44	227.70
868.75	227.72
869.06	227.72
869.37	227.78
869.68	227.78
869.99	227.81
870.30	227.82
870.61	227.81
870.92	227.77
871.23	227.76
871.54	227.83
871.85	227.87
872.16	227.94
872.47	227.91
872.78	227.89
873.09	227.91
873.40	227.90
873.71	227.92
874.02	227.92
874.33	227.92
874.64	227.85
874.95	227.86
875.26	227.80
875.56	227.82
875.87	227.83
876.18	227.80
876.49	227.87
876.80	227.85
877.11	227.82
877.42	227.84
877.73	227.88
878.04	227.81
878.35	227.81
878.66	227.79
878.96	227.79
879.27	227.76
879.58	227.72
879.89	227.70
880.20	227.72
880.51	227.71
880.82	227.70
881.12	227.71
881.43	227.70
881.74	227.73
882.05	227.69
882.36	227.67
882.67	227.70
882.97	227.57
883.28	227.56
883.59	227.56
883.90	227.55
884.21	227.54
884.51	227.58
884.82	227.56
885.13	227.52
885.44	227.51
885.74	227.49
886.05	227.51
886.36	227.51
886.67	227.47
886.98	227.49
887.28	227.49
887.59	227.48
887.90	227.46
888.20	227.43
888.51	227.46
888.82	227.42
889.13	227.36
889.43	227.46
889.74	227.44
890.05	227.45
890.35	227.44
890.66	227.44
890.97	227.38
891.28	227.37
891.58	227.35
891.89	227.35
892.20	227.33
892.50	227.31
892.81	227.28
893.12	227.25
893.42	227.22
893.73	227.22
894.04	227.23
894.34	227.22
894.65	227.22
894.95	227.20
895.26	227.22
895.57	227.32
895.87	227.24
896.18	227.26
896.48	227.26
896.79	227.26
897.10	227.23
897.40	227.24
897.71	227.27
898.01	227.28
898.32	227.29
898.63	227.28
898.93	227.30
899.24	227.33
899.54	227.33
899.85	227.33
900.15	227.31
900.46	227.30
900.76	227.32
901.07	227.33
901.38	227.32
901.68	227.31
901.99	227.24
902.29	227.25
902.60	227.22
902.90	227.23
903.21	227.19
903.51	227.21
903.82	227.25
904.12	227.25
904.43	227.26
904.73	227.30
905.03	227.32
905.34	227.41
905.64	227.39
905.95	227.42
906.25	227.43
906.56	227.43
906.86	227.44
907.17	227.45
907.47	227.43
907.77	227.46
908.08	227.47
908.38	227.49
908.69	227.51
908.99	227.59
909.30	227.59
909.60	227.63
909.90	227.66
910.21	227.63
910.51	227.63
910.81	227.65
911.12	227.64
911.42	227.66
911.73	227.58
912.03	227.58
912.33	227.60
912.64	227.60
912.94	227.61
913.24	227.62
913.55	227.61
913.85	227.65
914.15	227.64
914.46	227.66
914.76	227.66
915.06	227.66
915.37	227.62
915.67	227.62
915.97	227.62
916.27	227.60
916.58	227.57
916.88	227.55
917.18	227.53
917.49	227.56
917.79	227.56
918.09	227.55
918.39	227.57
918.70	227.58
919.00	227.57
919.30	227.63
919.60	227.64
919.91	227.61
920.21	227.59
920.51	227.58
920.81	227.53
921.12	227.52
921.42	227.52
921.72	227.52
922.02	227.52
922.32	227.53
922.63	227.50
922.93	227.56
923.23	227.56
923.53	227.55
923.83	227.50
924.13	227.48
924.44	227.50
924.74	227.51
925.04	227.53
925.34	227.52
925.64	227.46
925.94	227.40
926.24	227.45
926.55	227.43
926.85	227.45
927.15	227.46
927.45	227.46
927.75	227.44
928.05	227.45
928.35	227.46
928.65	227.47
928.95	227.48
929.26	227.43
929.56	227.43
929.86	227.44
930.16	227.41
930.46	227.40
930.76	227.40
931.06	227.33
931.36	227.29
931.66	227.29
931.96	227.29
932.26	227.30
932.56	227.29
932.86	227.28
933.16	227.24
933.46	227.25
933.76	227.23
934.06	227.28
934.36	227.28
934.66	227.26
934.96	227.21
935.26	227.22
935.56	227.26
935.86	227.26
936.16	227.23
936.46	227.26
936.76	227.23
937.06	227.21
937.36	227.24
937.66	227.25
937.96	227.22
938.26	227.21
938.56	227.21
938.86	227.22
939.16	227.25
939.46	227.28
939.76	227.27
940.06	227.29
940.35	227.25
940.65	227.22
940.95	227.26
941.25	227.27
941.55	227.26
941.85	227.24
942.15	227.23
942.45	227.28
942.75	227.26
943.04	227.30
943.34	227.33
943.64	227.31
943.94	227.31
944.24	227.31
944.54	227.33
944.84	227.35
945.13	227.31
945.43	227.31
945.73	227.32
946.03	227.33
946.33	227.33
946.62	227.33
946.92	227.33
947.22	227.30
947.52	227.29
947.82	227.32
948.11	227.29
948.41	227.28
948.71	227.25
949.01	227.27
949.31	227.25
949.60	227.23
949.90	227.25
950.20	227.24
950.50	227.23
950.79	227.22
951.09	227.22
951.39	227.22
951.69	227.22
951.98	227.21
952.28	227.22
952.58	227.20
952.87	227.17
953.17	227.17
953.47	227.14
953.76	227.10
954.06	227.10
954.36	227.09
954.66	227.09
954.95	227.07
955.25	227.07
955.55	227.04
955.84	227.02
956.14	227.02
956.44	227.00
956.73	226.98
957.03	226.98
957.32	226.98
957.62	226.95
957.92	226.95
958.21	226.91
958.51	226.99
958.81	226.98
959.10	227.02
959.40	227.05
959.69	227.09
959.99	227.10
960.29	227.04
960.58	227.04
960.88	227.05
961.17	227.07
961.47	227.06
961.76	227.07
962.06	227.10
962.36	227.08
962.65	227.09
962.95	227.10
963.24	227.10
963.54	227.10
963.83	227.10
964.13	227.06
964.42	227.03
964.72	226.92
965.01	226.93
965.31	226.87
965.60	226.83
965.90	226.85
966.19	226.81
966.49	226.86
966.78	226.86
967.08	226.86
967.37	226.85
967.67	226.84
967.96	226.86
968.26	226.85
968.55	226.86
968.85	226.85
969.14	226.85
969.43	226.85
969.73	226.83
970.02	226.85
970.32	226.88
970.61	226.90
970.91	226.89
971.20	226.90
971.49	226.95
971.79	226.97
972.08	226.90
972.38	226.96
972.67	226.97
972.96	226.98
973.26	226.98
973.55	227.02
973.85	227.04
974.14	227.04
974.43	227.06
974.73	227.07
975.02	227.06
975.31	227.09
975.61	227.07
975.90	227.08
976.19	227.11
976.49	227.12
976.78	227.18
977.07	227.18
977.37	227.18
977.66	227.17
977.95	227.17
978.24	227.21
978.54	227.24
978.83	227.23
979.12	227.25
979.42	227.24
979.71	227.23
980.00	227.23
980.29	227.23
980.59	227.21
980.88	227.24
981.17	227.25
981.46	227.26
981.76	227.29
982.05	227.35
982.34	227.35
982.63	227.36
982.93	227.34
983.22	227.39
983.51	227.39
983.80	227.43
984.09	227.44
984.39	227.44
984.68	227.42
984.97	227.45
985.26	227.44
985.55	227.45
985.85	227.43
986.14	227.48
986.43	227.52
986.72	227.52
987.01	227.49
987.30	227.47
987.59	227.45
987.89	227.45
988.18	227.40
988.47	227.37
988.76	227.35
989.05	227.31
989.34	227.31
989.63	227.35
989.92	227.32
990.22	227.33
990.51	227.32
990.80	227.32
991.09	227.29
991.38	227.31
991.67	227.31
991.96	227.29
992.25	227.25
992.54	227.21
992.83	227.21
993.12	227.21
993.41	227.24
993.70	227.27
993.99	227.26
994.28	227.27
994.58	227.30
994.87	227.24
995.16	227.25
995.45	227.19
995.74	227.12
996.03	227.13
996.32	227.14
996.61	227.16
996.90	227.14
997.19	227.11
997.48	227.08
997.77	227.06
998.06	227.08
998.34	227.05
998.63	227.02
998.92	227.02
999.21	227.01
999.50	227.03
999.79	226.96
1000.08	226.96
1000.37	226.95
1000.66	226.93
1000.95	226.98
1001.24	226.99
1001.53	227.00
1001.82	227.01
1002.11	226.97
1002.40	226.97
1002.68	226.99
1002.97	227.05
1003.26	227.01
1003.55	227.01
1003.84	227.01
1004.13	227.01
1004.42	227.02
1004.71	227.04
1004.99	227.03
1005.28	227.04
1005.57	227.02
1005.86	227.04
1006.15	227.02
1006.44	227.01
1006.72	227.04
1007.01	227.04
1007.30	227.03
1007.59	227.04
1007.88	227.06
1008.17	227.07
1008.45	227.03
1008.74	226.98
1009.03	226.92
1009.32	226.95
1009.60	226.96
1009.89	226.96
1010.18	226.94
1010.47	226.94
1010.76	226.94
1011.04	226.94
1011.33	226.92
1011.62	226.93
1011.91	226.92
1012.19	226.94
1012.48	226.95
1012.77	226.93
1013.05	227.00
1013.34	227.01
1013.63	227.00
1013.92	227.01
1014.20	227.03
1014.49	227.07
1014.78	227.12
1015.06	227.14
1015.35	227.16
1015.64	227.19
1015.92	227.21
1016.21	227.21
1016.50	227.24
1016.78	227.29
1017.07	227.33
1017.36	227.33
1017.64	227.33
1017.93	227.37
1018.22	227.38
1018.50	227.38
1018.79	227.41
1019.08	227.34
1019.36	227.33
1019.65	227.36
1019.93	227.37
1020.22	227.37
1020.51	227.40
1020.79	227.37
1021.08	226.93
1021.36	227.08
1021.65	227.71
1021.94	227.08
1022.22	226.92
1022.51	227.25
1022.79	227.72
1023.08	227.15
1023.36	228.41
1023.65	227.02
>>>>>End Processed Spectral Data<<<<<
