SpectraSuite Data File
++++++++++++++++++++++++++++++++++++
Date: Fri Feb 01 15:01:27 EST 2013
User: group
Dark Spectrum Present: No
Reference Spectrum Present: No
Number of Sampled Component Spectra: 1
Spectrometers: USB2E7196
Integration Time (usec): 35000 (USB2E7196)
Spectra Averaged: 100 (USB2E7196)
Boxcar Smoothing: 10 (USB2E7196)
Correct for Electrical Dark: No (USB2E7196)
Strobe/Lamp Enabled: No (USB2E7196)
Correct for Detector Non-linearity: No (USB2E7196)
Correct for Stray Light: No (USB2E7196)
Number of Pixels in Processed Spectrum: 2048
>>>>>Begin Processed Spectral Data<<<<<
339.09	0.00
339.48	215.07
339.86	217.22
340.24	218.00
340.63	219.59
341.01	222.51
341.39	222.19
341.78	224.27
342.16	224.75
342.54	225.17
342.93	213.84
343.31	224.64
343.69	225.19
344.07	225.65
344.46	226.09
344.84	226.50
345.22	226.73
345.60	227.00
345.99	227.15
346.37	227.26
346.75	227.39
347.13	227.45
347.52	227.50
347.90	227.54
348.28	227.54
348.66	227.55
349.05	227.54
349.43	227.58
349.81	227.65
350.19	227.68
350.57	227.74
350.96	227.79
351.34	227.87
351.72	227.98
352.10	228.06
352.48	228.14
352.87	228.18
353.25	228.26
353.63	228.32
354.01	228.38
354.39	228.47
354.77	228.53
355.15	228.64
355.54	228.70
355.92	228.75
356.30	228.80
356.68	228.93
357.06	229.03
357.44	229.08
357.82	229.08
358.20	229.14
358.58	229.20
358.97	229.27
359.35	229.37
359.73	229.44
360.11	229.49
360.49	229.51
360.87	229.57
361.25	229.61
361.63	229.68
362.01	229.73
362.39	229.73
362.77	229.76
363.15	229.77
363.53	229.80
363.91	229.83
364.29	229.85
364.67	229.74
365.05	229.73
365.43	229.76
365.81	229.78
366.19	229.83
366.57	229.84
366.95	229.85
367.33	229.80
367.71	229.74
368.09	229.72
368.47	229.74
368.85	229.67
369.23	229.64
369.61	229.54
369.99	229.55
370.37	229.55
370.75	229.57
371.13	229.50
371.51	229.43
371.89	229.39
372.27	229.35
372.65	229.35
373.03	229.28
373.41	229.21
373.78	229.14
374.16	228.99
374.54	228.92
374.92	228.83
375.30	228.77
375.68	228.70
376.06	228.63
376.44	228.55
376.82	228.50
377.19	228.44
377.57	228.38
377.95	228.24
378.33	228.15
378.71	228.00
379.09	227.93
379.47	227.87
379.84	227.73
380.22	227.64
380.60	227.50
380.98	227.45
381.36	227.37
381.73	227.28
382.11	227.28
382.49	227.18
382.87	227.07
383.25	226.95
383.62	227.01
384.00	226.94
384.38	226.87
384.76	226.81
385.13	226.76
385.51	226.70
385.89	226.64
386.27	226.59
386.64	226.55
387.02	226.48
387.40	226.45
387.78	226.44
388.15	226.41
388.53	226.39
388.91	226.37
389.29	226.33
389.66	226.35
390.04	226.32
390.42	226.32
390.79	226.35
391.17	226.34
391.55	226.25
391.92	226.23
392.30	226.22
392.68	226.22
393.05	226.23
393.43	226.25
393.81	226.27
394.18	226.31
394.56	226.32
394.94	226.39
395.31	226.42
395.69	226.48
396.06	226.56
396.44	226.60
396.82	226.65
397.19	226.75
397.57	226.78
397.95	226.82
398.32	226.85
398.70	226.93
399.07	227.09
399.45	227.13
399.82	227.25
400.20	227.35
400.58	227.42
400.95	227.45
401.33	227.60
401.70	227.79
402.08	227.86
402.45	227.99
402.83	228.12
403.20	228.24
403.58	228.39
403.95	228.54
404.33	228.70
404.71	228.84
405.08	229.02
405.46	229.19
405.83	229.36
406.21	229.54
406.58	229.72
406.96	229.86
407.33	230.05
407.70	230.24
408.08	230.53
408.45	230.76
408.83	231.04
409.20	231.24
409.58	231.42
409.95	231.70
410.33	231.98
410.70	232.21
411.08	232.51
411.45	232.81
411.82	233.10
412.20	233.47
412.57	233.85
412.95	234.12
413.32	234.53
413.69	234.93
414.07	235.35
414.44	235.79
414.82	236.26
415.19	236.81
415.56	237.32
415.94	237.80
416.31	238.42
416.68	239.04
417.06	239.74
417.43	240.41
417.81	241.18
418.18	241.95
418.55	242.81
418.93	243.70
419.30	244.56
419.67	245.46
420.04	246.38
420.42	247.38
420.79	248.58
421.16	249.70
421.54	250.91
421.91	252.15
422.28	253.39
422.66	254.71
423.03	255.99
423.40	257.33
423.77	258.77
424.15	260.21
424.52	261.69
424.89	263.26
425.26	264.83
425.64	266.25
426.01	267.87
426.38	269.48
426.75	271.13
427.13	272.89
427.50	274.69
427.87	276.60
428.24	278.45
428.61	280.16
428.99	282.10
429.36	284.21
429.73	286.23
430.10	288.29
430.47	290.33
430.85	292.47
431.22	294.74
431.59	297.13
431.96	299.39
432.33	301.88
432.70	304.33
433.08	307.11
433.45	309.78
433.82	312.37
434.19	315.27
434.56	318.08
434.93	320.71
435.30	323.37
435.68	326.27
436.05	329.16
436.42	332.02
436.79	334.53
437.16	337.24
437.53	340.13
437.90	342.93
438.27	345.72
438.64	348.56
439.01	351.16
439.38	353.38
439.75	355.53
440.13	358.05
440.50	360.38
440.87	362.26
441.24	364.25
441.61	366.44
441.98	367.98
442.35	369.79
442.72	371.69
443.09	373.52
443.46	374.50
443.83	375.08
444.20	375.58
444.57	376.43
444.94	376.73
445.31	377.04
445.68	377.39
446.05	377.45
446.42	377.04
446.79	376.62
447.16	376.14
447.53	375.83
447.90	374.64
448.27	373.47
448.64	371.87
449.01	370.73
449.37	368.74
449.74	366.80
450.11	364.57
450.48	362.05
450.85	359.49
451.22	357.36
451.59	355.31
451.96	353.38
452.33	350.77
452.70	348.40
453.07	345.54
453.43	342.66
453.80	339.89
454.17	337.20
454.54	334.63
454.91	331.96
455.28	329.29
455.65	326.83
456.02	324.41
456.38	322.25
456.75	319.55
457.12	317.30
457.49	315.10
457.86	312.89
458.23	311.06
458.59	309.00
458.96	306.90
459.33	305.05
459.70	303.16
460.07	301.65
460.43	299.93
460.80	298.32
461.17	296.86
461.54	295.36
461.91	293.96
462.27	292.49
462.64	291.22
463.01	289.81
463.38	288.50
463.74	287.10
464.11	285.92
464.48	284.87
464.85	283.70
465.21	282.81
465.58	281.84
465.95	280.73
466.32	279.86
466.68	278.92
467.05	277.99
467.42	277.14
467.78	276.20
468.15	275.32
468.52	274.67
468.88	273.79
469.25	273.01
469.62	272.35
469.98	271.70
470.35	271.05
470.72	270.47
471.08	269.81
471.45	269.24
471.82	268.69
472.18	268.10
472.55	267.71
472.92	267.15
473.28	266.72
473.65	266.26
474.02	265.73
474.38	265.34
474.75	265.02
475.11	264.59
475.48	264.32
475.85	264.08
476.21	263.81
476.58	263.65
476.94	263.51
477.31	263.36
477.67	263.19
478.04	263.10
478.41	263.01
478.77	262.99
479.14	262.94
479.50	262.94
479.87	263.03
480.23	263.08
480.60	263.17
480.96	263.24
481.33	263.46
481.69	263.69
482.06	263.90
482.42	264.13
482.79	264.38
483.15	264.68
483.52	265.09
483.88	265.42
484.25	265.79
484.61	266.15
484.98	266.60
485.34	267.13
485.71	267.68
486.07	268.32
486.44	268.92
486.80	269.60
487.17	270.34
487.53	271.11
487.90	271.95
488.26	272.87
488.62	273.85
488.99	274.83
489.35	275.85
489.72	276.95
490.08	278.14
490.44	279.45
490.81	280.76
491.17	282.06
491.54	283.51
491.90	285.05
492.26	286.74
492.63	288.48
492.99	290.25
493.36	292.14
493.72	294.18
494.08	296.27
494.45	298.51
494.81	300.84
495.17	303.29
495.54	305.81
495.90	308.50
496.26	311.29
496.63	314.25
496.99	317.35
497.35	320.63
497.72	324.02
498.08	327.47
498.44	331.14
498.80	335.05
499.17	339.07
499.53	343.23
499.89	347.57
500.26	352.02
500.62	356.65
500.98	361.56
501.34	366.60
501.71	371.90
502.07	377.32
502.43	382.95
502.79	388.76
503.16	394.83
503.52	401.08
503.88	407.47
504.24	414.02
504.60	420.91
504.97	427.98
505.33	435.31
505.69	442.95
506.05	450.62
506.41	458.46
506.78	466.62
507.14	474.99
507.50	483.68
507.86	492.72
508.22	501.95
508.59	511.16
508.95	520.71
509.31	530.51
509.67	540.58
510.03	550.80
510.39	561.28
510.75	572.04
511.12	582.96
511.48	594.27
511.84	605.70
512.20	617.20
512.56	629.17
512.92	641.34
513.28	653.69
513.64	666.27
514.00	679.00
514.37	691.89
514.73	704.99
515.09	718.04
515.45	731.29
515.81	744.82
516.17	758.81
516.53	772.91
516.89	787.05
517.25	801.23
517.61	815.70
517.97	830.20
518.33	844.72
518.69	859.46
519.05	874.58
519.41	889.87
519.77	905.48
520.13	920.97
520.49	936.29
520.85	951.75
521.21	967.55
521.57	983.85
521.93	999.74
522.29	1016.18
522.65	1032.52
523.01	1048.83
523.37	1065.01
523.73	1081.28
524.09	1097.54
524.45	1113.92
524.81	1130.66
525.17	1147.55
525.53	1164.57
525.89	1181.44
526.25	1198.33
526.61	1214.66
526.97	1231.40
527.33	1247.98
527.68	1264.69
528.04	1281.35
528.40	1298.11
528.76	1315.25
529.12	1331.94
529.48	1348.93
529.84	1365.07
530.20	1381.66
530.56	1398.70
530.91	1416.18
531.27	1433.03
531.63	1449.50
531.99	1466.28
532.35	1482.32
532.71	1498.26
533.07	1514.55
533.42	1530.59
533.78	1546.73
534.14	1563.15
534.50	1578.52
534.86	1594.52
535.21	1609.63
535.57	1625.63
535.93	1641.17
536.29	1655.97
536.65	1671.10
537.00	1685.99
537.36	1701.33
537.72	1716.00
538.08	1730.69
538.44	1744.55
538.79	1758.46
539.15	1772.28
539.51	1786.10
539.87	1800.57
540.22	1814.42
540.58	1828.31
540.94	1841.80
541.29	1854.93
541.65	1867.75
542.01	1881.16
542.37	1893.39
542.72	1906.09
543.08	1917.92
543.44	1930.37
543.79	1941.68
544.15	1952.73
544.51	1964.24
544.87	1975.28
545.22	1986.24
545.58	1996.45
545.94	2006.35
546.29	2016.18
546.65	2026.14
547.01	2035.33
547.36	2044.11
547.72	2052.57
548.07	2060.36
548.43	2068.49
548.79	2076.56
549.14	2084.15
549.50	2091.67
549.86	2099.50
550.21	2106.77
550.57	2113.92
550.92	2120.42
551.28	2127.58
551.64	2134.60
551.99	2141.06
552.35	2147.12
552.70	2153.05
553.06	2158.87
553.41	2165.13
553.77	2171.23
554.13	2177.26
554.48	2183.35
554.84	2188.62
555.19	2194.02
555.55	2199.13
555.90	2203.54
556.26	2208.32
556.61	2213.00
556.97	2216.94
557.32	2221.09
557.68	2225.18
558.03	2229.57
558.39	2233.40
558.74	2237.98
559.10	2242.00
559.45	2245.73
559.81	2250.10
560.16	2253.97
560.52	2257.27
560.87	2260.73
561.23	2263.39
561.58	2266.24
561.94	2268.73
562.29	2271.24
562.64	2273.77
563.00	2276.50
563.35	2280.09
563.71	2283.01
564.06	2286.09
564.42	2289.05
564.77	2291.44
565.12	2293.55
565.48	2295.24
565.83	2296.96
566.19	2298.08
566.54	2298.80
566.89	2299.95
567.25	2300.45
567.60	2301.81
567.96	2303.34
568.31	2304.02
568.66	2305.07
569.02	2305.51
569.37	2305.69
569.72	2306.29
570.08	2306.32
570.43	2306.12
570.78	2305.16
571.14	2303.60
571.49	2302.04
571.84	2301.57
572.20	2300.07
572.55	2298.95
572.90	2297.20
573.26	2295.52
573.61	2293.67
573.96	2291.75
574.31	2288.44
574.67	2285.18
575.02	2281.35
575.37	2277.92
575.72	2273.85
576.08	2270.23
576.43	2266.81
576.78	2263.12
577.13	2259.98
577.49	2256.64
577.84	2253.00
578.19	2249.32
578.54	2245.49
578.90	2241.18
579.25	2235.46
579.60	2230.46
579.95	2225.27
580.30	2220.23
580.66	2215.15
581.01	2210.09
581.36	2205.00
581.71	2200.67
582.06	2196.20
582.42	2191.54
582.77	2186.08
583.12	2181.45
583.47	2176.59
583.82	2171.43
584.17	2166.05
584.53	2160.34
584.88	2154.64
585.23	2148.72
585.58	2143.08
585.93	2137.56
586.28	2132.64
586.63	2127.43
586.98	2122.27
587.34	2117.52
587.69	2112.58
588.04	2107.15
588.39	2101.35
588.74	2094.81
589.09	2088.50
589.44	2081.63
589.79	2075.50
590.14	2069.84
590.49	2063.17
590.84	2056.72
591.19	2050.52
591.54	2043.95
591.89	2036.27
592.25	2029.38
592.60	2022.06
592.95	2014.30
593.30	2006.81
593.65	1999.17
594.00	1992.06
594.35	1984.71
594.70	1976.59
595.05	1969.12
595.40	1961.59
595.75	1954.09
596.10	1947.64
596.45	1940.89
596.80	1934.59
597.15	1927.84
597.50	1920.60
597.85	1914.12
598.19	1907.36
598.54	1900.20
598.89	1893.47
599.24	1887.70
599.59	1880.92
599.94	1874.65
600.29	1868.20
600.64	1861.59
600.99	1853.97
601.34	1847.00
601.69	1840.01
602.04	1832.95
602.39	1825.66
602.74	1818.86
603.08	1812.04
603.43	1805.32
603.78	1797.95
604.13	1790.68
604.48	1783.34
604.83	1776.42
605.18	1769.22
605.53	1761.10
605.87	1753.14
606.22	1745.90
606.57	1738.01
606.92	1730.83
607.27	1723.56
607.62	1716.66
607.96	1709.28
608.31	1702.63
608.66	1695.02
609.01	1687.44
609.36	1679.87
609.70	1671.75
610.05	1663.74
610.40	1655.98
610.75	1647.76
611.10	1640.23
611.44	1631.85
611.79	1623.87
612.14	1615.27
612.49	1606.36
612.83	1598.11
613.18	1589.99
613.53	1581.89
613.88	1573.22
614.22	1564.90
614.57	1556.48
614.92	1548.52
615.27	1540.91
615.61	1532.66
615.96	1524.82
616.31	1517.15
616.65	1509.79
617.00	1502.23
617.35	1494.62
617.70	1486.22
618.04	1477.71
618.39	1469.54
618.74	1462.01
619.08	1453.80
619.43	1446.31
619.78	1439.37
620.12	1432.22
620.47	1424.63
620.82	1416.50
621.16	1409.32
621.51	1401.66
621.85	1394.05
622.20	1385.56
622.55	1377.44
622.89	1369.58
623.24	1362.00
623.59	1354.66
623.93	1347.19
624.28	1340.06
624.62	1332.55
624.97	1325.54
625.32	1318.81
625.66	1311.76
626.01	1304.52
626.35	1296.98
626.70	1289.18
627.04	1281.46
627.39	1273.74
627.73	1266.48
628.08	1259.55
628.43	1252.09
628.77	1244.76
629.12	1237.21
629.46	1230.07
629.81	1222.65
630.15	1215.65
630.50	1208.31
630.84	1200.22
631.19	1192.41
631.53	1184.97
631.88	1177.47
632.22	1169.88
632.57	1162.61
632.91	1155.04
633.26	1147.73
633.60	1140.67
633.95	1133.71
634.29	1126.76
634.64	1120.11
634.98	1112.79
635.32	1105.77
635.67	1099.30
636.01	1092.70
636.36	1085.90
636.70	1079.40
637.05	1072.85
637.39	1066.33
637.73	1059.76
638.08	1053.92
638.42	1047.93
638.77	1041.46
639.11	1034.82
639.45	1028.48
639.80	1021.85
640.14	1015.43
640.49	1008.91
640.83	1002.46
641.17	996.13
641.52	989.83
641.86	983.48
642.20	977.61
642.55	971.33
642.89	964.84
643.23	958.42
643.58	952.58
643.92	946.37
644.26	940.23
644.61	934.29
644.95	928.20
645.29	921.56
645.64	914.83
645.98	908.56
646.32	902.76
646.66	896.76
647.01	890.92
647.35	885.34
647.69	879.54
648.04	874.06
648.38	868.27
648.72	862.28
649.06	856.18
649.41	850.31
649.75	844.21
650.09	838.26
650.43	832.45
650.78	826.38
651.12	820.51
651.46	814.83
651.80	809.07
652.14	803.68
652.49	798.37
652.83	793.26
653.17	787.59
653.51	781.87
653.85	776.48
654.20	770.93
654.54	764.95
654.88	759.25
655.22	753.40
655.56	747.79
655.90	742.37
656.25	737.14
656.59	731.84
656.93	726.90
657.27	721.80
657.61	716.39
657.95	711.36
658.29	706.31
658.64	701.20
658.98	695.96
659.32	690.56
659.66	685.39
660.00	680.09
660.34	675.26
660.68	670.41
661.02	665.42
661.36	660.74
661.70	656.30
662.05	651.93
662.39	647.58
662.73	643.17
663.07	638.74
663.41	634.38
663.75	629.87
664.09	625.34
664.43	620.97
664.77	616.90
665.11	612.69
665.45	608.60
665.79	604.53
666.13	600.37
666.47	596.38
666.81	592.27
667.15	588.25
667.49	584.34
667.83	580.62
668.17	576.77
668.51	572.72
668.85	568.70
669.19	564.93
669.53	561.17
669.87	557.31
670.21	553.70
670.55	550.02
670.89	546.70
671.23	543.27
671.57	539.81
671.91	536.30
672.25	532.85
672.58	529.33
672.92	525.95
673.26	522.86
673.60	519.69
673.94	516.61
674.28	513.71
674.62	510.78
674.96	507.71
675.30	504.81
675.64	501.93
675.97	499.17
676.31	496.31
676.65	493.44
676.99	490.78
677.33	487.91
677.67	485.10
678.01	482.05
678.34	479.09
678.68	476.22
679.02	473.39
679.36	470.66
679.70	467.98
680.04	465.21
680.37	462.29
680.71	459.54
681.05	456.95
681.39	454.22
681.73	451.55
682.06	448.96
682.40	446.37
682.74	443.82
683.08	441.28
683.42	438.68
683.75	436.18
684.09	433.61
684.43	431.16
684.77	428.70
685.10	426.36
685.44	424.08
685.78	421.79
686.12	419.55
686.45	417.23
686.79	414.95
687.13	412.79
687.46	410.69
687.80	408.52
688.14	406.33
688.48	404.32
688.81	402.05
689.15	399.97
689.49	397.87
689.82	395.83
690.16	393.76
690.50	391.81
690.83	389.84
691.17	387.90
691.51	386.03
691.84	384.24
692.18	382.29
692.52	380.31
692.85	378.41
693.19	376.54
693.52	374.72
693.86	372.88
694.20	371.11
694.53	369.33
694.87	367.50
695.21	365.74
695.54	363.91
695.88	362.26
696.21	360.52
696.55	358.82
696.88	357.15
697.22	355.52
697.56	353.95
697.89	352.35
698.23	350.71
698.56	349.11
698.90	347.48
699.23	345.86
699.57	344.32
699.90	342.78
700.24	341.20
700.58	339.67
700.91	338.19
701.25	336.75
701.58	335.37
701.92	334.07
702.25	332.70
702.59	331.38
702.92	330.05
703.26	328.74
703.59	327.54
703.93	326.36
704.26	325.15
704.60	323.84
704.93	322.57
705.26	321.41
705.60	320.27
705.93	319.14
706.27	318.11
706.60	317.06
706.94	316.06
707.27	315.01
707.61	314.00
707.94	313.07
708.27	311.98
708.61	310.94
708.94	309.94
709.28	308.93
709.61	307.95
709.94	307.00
710.28	306.01
710.61	305.01
710.95	303.93
711.28	303.00
711.61	302.07
711.95	301.16
712.28	300.17
712.61	299.24
712.95	298.33
713.28	297.49
713.61	296.61
713.95	295.68
714.28	294.84
714.61	293.98
714.95	293.08
715.28	292.23
715.61	291.37
715.95	290.50
716.28	289.69
716.61	288.87
716.95	288.03
717.28	287.31
717.61	286.57
717.94	285.86
718.28	285.06
718.61	284.34
718.94	283.69
719.27	283.05
719.61	282.34
719.94	281.72
720.27	280.98
720.60	280.33
720.94	279.73
721.27	279.15
721.60	278.58
721.93	277.97
722.27	277.45
722.60	276.86
722.93	276.28
723.26	275.74
723.59	275.16
723.93	274.61
724.26	274.04
724.59	273.45
724.92	272.93
725.25	272.43
725.59	271.87
725.92	271.32
726.25	270.80
726.58	270.33
726.91	269.79
727.24	269.32
727.57	268.86
727.91	268.34
728.24	267.89
728.57	267.37
728.90	266.93
729.23	266.41
729.56	265.98
729.89	265.53
730.22	265.01
730.55	264.59
730.89	264.19
731.22	263.75
731.55	263.29
731.88	262.83
732.21	262.39
732.54	262.00
732.87	261.61
733.20	261.20
733.53	260.82
733.86	260.44
734.19	260.05
734.52	259.68
734.85	259.37
735.18	258.92
735.51	258.58
735.84	258.19
736.17	257.85
736.50	257.47
736.83	257.24
737.16	256.93
737.49	256.56
737.82	256.20
738.15	255.86
738.48	255.52
738.81	255.20
739.14	254.87
739.47	254.52
739.80	254.21
740.13	253.90
740.46	253.56
740.79	253.23
741.12	252.92
741.45	252.57
741.78	252.18
742.11	251.91
742.44	251.59
742.77	251.35
743.10	251.02
743.43	250.71
743.75	250.31
744.08	250.18
744.41	249.90
744.74	249.63
745.07	249.36
745.40	249.15
745.73	248.93
746.06	248.67
746.39	248.48
746.71	248.20
747.04	247.93
747.37	247.68
747.70	247.45
748.03	247.20
748.36	247.00
748.68	246.81
749.01	246.54
749.34	246.32
749.67	246.09
750.00	245.88
750.33	245.74
750.65	245.56
750.98	245.23
751.31	245.05
751.64	244.85
751.97	244.73
752.29	244.52
752.62	244.29
752.95	244.08
753.28	243.87
753.60	243.66
753.93	243.49
754.26	243.31
754.59	243.12
754.91	242.93
755.24	242.75
755.57	242.55
755.90	242.42
756.22	242.25
756.55	242.04
756.88	241.87
757.20	241.63
757.53	241.41
757.86	241.23
758.19	241.06
758.51	240.87
758.84	240.64
759.17	240.46
759.49	240.27
759.82	240.14
760.15	240.01
760.47	239.88
760.80	239.71
761.13	239.59
761.45	239.39
761.78	239.27
762.11	239.11
762.43	238.95
762.76	238.78
763.08	238.61
763.41	238.49
763.74	238.33
764.06	238.19
764.39	238.06
764.71	237.90
765.04	237.75
765.37	237.60
765.69	237.44
766.02	237.29
766.34	237.17
766.67	237.03
767.00	236.88
767.32	236.80
767.65	236.73
767.97	236.56
768.30	236.46
768.62	236.35
768.95	236.20
769.27	236.07
769.60	235.97
769.92	235.86
770.25	235.73
770.57	235.63
770.90	235.51
771.22	235.41
771.55	235.33
771.87	235.26
772.20	235.18
772.52	235.16
772.85	235.20
773.17	235.11
773.50	234.99
773.82	234.89
774.15	234.75
774.47	234.60
774.80	234.52
775.12	234.47
775.45	234.38
775.77	234.31
776.09	234.26
776.42	234.15
776.74	234.08
777.07	234.01
777.39	233.96
777.72	233.90
778.04	233.85
778.36	233.76
778.69	233.67
779.01	233.60
779.33	233.47
779.66	233.30
779.98	233.21
780.31	233.17
780.63	233.12
780.95	233.06
781.28	232.97
781.60	232.91
781.92	232.81
782.25	232.76
782.57	232.71
782.89	232.62
783.22	232.59
783.54	232.54
783.86	232.51
784.19	232.42
784.51	232.38
784.83	232.33
785.16	232.26
785.48	232.23
785.80	232.18
786.12	232.14
786.45	232.09
786.77	232.11
787.09	232.07
787.42	232.02
787.74	232.00
788.06	231.98
788.38	231.95
788.71	231.92
789.03	231.85
789.35	231.85
789.67	231.82
789.99	231.78
790.32	231.73
790.64	231.71
790.96	231.77
791.28	231.70
791.61	231.65
791.93	231.65
792.25	231.61
792.57	231.66
792.89	231.64
793.21	231.60
793.54	231.54
793.86	231.51
794.18	231.50
794.50	231.44
794.82	231.43
795.14	231.38
795.47	231.34
795.79	231.33
796.11	231.25
796.43	231.26
796.75	231.25
797.07	231.24
797.39	231.20
797.71	231.12
798.04	231.12
798.36	231.11
798.68	231.07
799.00	231.03
799.32	230.94
799.64	230.90
799.96	230.87
800.28	230.83
800.60	230.76
800.92	230.70
801.24	230.67
801.56	230.63
801.89	230.63
802.21	230.61
802.53	230.54
802.85	230.54
803.17	230.54
803.49	230.50
803.81	230.41
804.13	230.36
804.45	230.28
804.77	230.22
805.09	230.19
805.41	230.13
805.73	230.07
806.05	230.00
806.37	229.94
806.69	229.91
807.01	229.89
807.33	229.90
807.65	229.82
807.97	229.83
808.28	229.80
808.60	229.79
808.92	229.71
809.24	229.75
809.56	229.69
809.88	229.61
810.20	229.55
810.52	229.57
810.84	229.52
811.16	229.47
811.48	229.47
811.80	229.44
812.12	229.43
812.43	229.42
812.75	229.43
813.07	229.40
813.39	229.37
813.71	229.33
814.03	229.28
814.35	229.31
814.67	229.22
814.98	229.17
815.30	229.13
815.62	229.11
815.94	229.02
816.26	229.06
816.58	229.02
816.89	229.02
817.21	228.97
817.53	228.98
817.85	228.98
818.17	228.94
818.48	228.90
818.80	228.89
819.12	228.86
819.44	228.82
819.76	228.82
820.07	228.79
820.39	228.76
820.71	228.74
821.03	228.70
821.34	228.71
821.66	228.73
821.98	228.70
822.30	228.69
822.61	228.76
822.93	228.69
823.25	228.69
823.57	228.67
823.88	228.65
824.20	228.65
824.52	228.68
824.83	228.65
825.15	228.61
825.47	228.63
825.79	228.63
826.10	228.62
826.42	228.60
826.74	228.62
827.05	228.63
827.37	228.63
827.69	228.65
828.00	228.64
828.32	228.64
828.64	228.64
828.95	228.73
829.27	228.72
829.58	228.71
829.90	228.70
830.22	228.67
830.53	228.65
830.85	228.62
831.17	228.60
831.48	228.60
831.80	228.64
832.11	228.61
832.43	228.62
832.75	228.61
833.06	228.68
833.38	228.68
833.69	228.67
834.01	228.65
834.32	228.61
834.64	228.62
834.96	228.60
835.27	228.60
835.59	228.53
835.90	228.49
836.22	228.53
836.53	228.52
836.85	228.54
837.16	228.67
837.48	228.67
837.79	228.69
838.11	228.70
838.42	228.69
838.74	228.68
839.05	228.65
839.37	228.61
839.68	228.55
840.00	228.54
840.31	228.53
840.63	228.53
840.94	228.54
841.26	228.47
841.57	228.47
841.88	228.45
842.20	228.43
842.51	228.39
842.83	228.36
843.14	228.40
843.46	228.36
843.77	228.25
844.08	228.26
844.40	228.20
844.71	228.20
845.03	228.19
845.34	228.18
845.65	228.19
845.97	228.21
846.28	228.17
846.60	228.15
846.91	228.09
847.22	228.07
847.54	228.07
847.85	228.08
848.16	228.03
848.48	227.99
848.79	228.02
849.10	228.00
849.42	227.96
849.73	227.90
850.04	227.91
850.36	227.87
850.67	227.87
850.98	227.87
851.30	227.83
851.61	227.80
851.92	227.78
852.23	227.79
852.55	227.78
852.86	227.77
853.17	227.75
853.49	227.77
853.80	227.79
854.11	227.81
854.42	227.82
854.74	227.82
855.05	227.81
855.36	227.71
855.67	227.72
855.99	227.72
856.30	227.79
856.61	227.78
856.92	227.79
857.23	227.80
857.55	227.77
857.86	227.76
858.17	227.77
858.48	227.74
858.79	227.68
859.11	227.66
859.42	227.66
859.73	227.66
860.04	227.63
860.35	227.58
860.66	227.52
860.98	227.54
861.29	227.58
861.60	227.61
861.91	227.65
862.22	227.64
862.53	227.65
862.84	227.55
863.16	227.56
863.47	227.56
863.78	227.54
864.09	227.55
864.40	227.57
864.71	227.58
865.02	227.59
865.33	227.63
865.64	227.64
865.95	227.63
866.27	227.69
866.58	227.72
866.89	227.73
867.20	227.76
867.51	227.74
867.82	227.71
868.13	227.74
868.44	227.72
868.75	227.74
869.06	227.75
869.37	227.76
869.68	227.74
869.99	227.75
870.30	227.73
870.61	227.75
870.92	227.74
871.23	227.74
871.54	227.77
871.85	227.79
872.16	227.82
872.47	227.85
872.78	227.83
873.09	227.85
873.40	227.87
873.71	227.86
874.02	227.86
874.33	227.85
874.64	227.82
874.95	227.83
875.26	227.83
875.56	227.82
875.87	227.79
876.18	227.80
876.49	227.90
876.80	227.92
877.11	227.87
877.42	227.87
877.73	227.85
878.04	227.83
878.35	227.82
878.66	227.79
878.96	227.77
879.27	227.74
879.58	227.74
879.89	227.74
880.20	227.79
880.51	227.76
880.82	227.76
881.12	227.78
881.43	227.75
881.74	227.74
882.05	227.70
882.36	227.76
882.67	227.74
882.97	227.62
883.28	227.62
883.59	227.60
883.90	227.58
884.21	227.55
884.51	227.52
884.82	227.46
885.13	227.46
885.44	227.46
885.74	227.45
886.05	227.41
886.36	227.40
886.67	227.32
886.98	227.37
887.28	227.39
887.59	227.37
887.90	227.37
888.20	227.34
888.51	227.37
888.82	227.32
889.13	227.32
889.43	227.37
889.74	227.33
890.05	227.36
890.35	227.35
890.66	227.35
890.97	227.35
891.28	227.36
891.58	227.36
891.89	227.37
892.20	227.37
892.50	227.35
892.81	227.33
893.12	227.36
893.42	227.30
893.73	227.28
894.04	227.25
894.34	227.25
894.65	227.25
894.95	227.22
895.26	227.24
895.57	227.27
895.87	227.19
896.18	227.21
896.48	227.21
896.79	227.21
897.10	227.21
897.40	227.22
897.71	227.23
898.01	227.24
898.32	227.22
898.63	227.22
898.93	227.22
899.24	227.23
899.54	227.21
899.85	227.19
900.15	227.17
900.46	227.20
900.76	227.22
901.07	227.23
901.38	227.28
901.68	227.28
901.99	227.25
902.29	227.26
902.60	227.25
902.90	227.23
903.21	227.24
903.51	227.25
903.82	227.25
904.12	227.25
904.43	227.22
904.73	227.24
905.03	227.22
905.34	227.33
905.64	227.29
905.95	227.30
906.25	227.29
906.56	227.29
906.86	227.28
907.17	227.26
907.47	227.25
907.77	227.23
908.08	227.19
908.38	227.20
908.69	227.22
908.99	227.23
909.30	227.23
909.60	227.24
909.90	227.29
910.21	227.30
910.51	227.28
910.81	227.32
911.12	227.30
911.42	227.32
911.73	227.24
912.03	227.25
912.33	227.28
912.64	227.32
912.94	227.35
913.24	227.33
913.55	227.35
913.85	227.37
914.15	227.39
914.46	227.40
914.76	227.41
915.06	227.40
915.37	227.41
915.67	227.43
915.97	227.40
916.27	227.34
916.58	227.34
916.88	227.34
917.18	227.33
917.49	227.40
917.79	227.39
918.09	227.39
918.39	227.41
918.70	227.41
919.00	227.42
919.30	227.47
919.60	227.45
919.91	227.46
920.21	227.45
920.51	227.39
920.81	227.42
921.12	227.41
921.42	227.41
921.72	227.41
922.02	227.40
922.32	227.43
922.63	227.44
922.93	227.49
923.23	227.48
923.53	227.47
923.83	227.43
924.13	227.42
924.44	227.43
924.74	227.43
925.04	227.44
925.34	227.45
925.64	227.39
925.94	227.37
926.24	227.41
926.55	227.39
926.85	227.41
927.15	227.40
927.45	227.41
927.75	227.39
928.05	227.37
928.35	227.34
928.65	227.37
928.95	227.36
929.26	227.31
929.56	227.34
929.86	227.33
930.16	227.29
930.46	227.29
930.76	227.26
931.06	227.22
931.36	227.20
931.66	227.19
931.96	227.18
932.26	227.19
932.56	227.16
932.86	227.18
933.16	227.18
933.46	227.17
933.76	227.12
934.06	227.15
934.36	227.18
934.66	227.20
934.96	227.16
935.26	227.17
935.56	227.20
935.86	227.15
936.16	227.12
936.46	227.14
936.76	227.13
937.06	227.17
937.36	227.19
937.66	227.21
937.96	227.21
938.26	227.19
938.56	227.19
938.86	227.17
939.16	227.20
939.46	227.21
939.76	227.20
940.06	227.25
940.35	227.23
940.65	227.18
940.95	227.21
941.25	227.18
941.55	227.19
941.85	227.17
942.15	227.22
942.45	227.28
942.75	227.27
943.04	227.28
943.34	227.30
943.64	227.29
943.94	227.27
944.24	227.27
944.54	227.31
944.84	227.32
945.13	227.32
945.43	227.31
945.73	227.31
946.03	227.30
946.33	227.28
946.62	227.29
946.92	227.30
947.22	227.31
947.52	227.37
947.82	227.36
948.11	227.36
948.41	227.32
948.71	227.30
949.01	227.33
949.31	227.34
949.60	227.33
949.90	227.33
950.20	227.32
950.50	227.33
950.79	227.33
951.09	227.32
951.39	227.36
951.69	227.34
951.98	227.36
952.28	227.38
952.58	227.39
952.87	227.40
953.17	227.44
953.47	227.43
953.76	227.37
954.06	227.37
954.36	227.35
954.66	227.39
954.95	227.41
955.25	227.40
955.55	227.38
955.84	227.37
956.14	227.39
956.44	227.40
956.73	227.37
957.03	227.40
957.32	227.43
957.62	227.42
957.92	227.42
958.21	227.41
958.51	227.55
958.81	227.56
959.10	227.54
959.40	227.53
959.69	227.51
959.99	227.58
960.29	227.55
960.58	227.53
960.88	227.55
961.17	227.54
961.47	227.54
961.76	227.53
962.06	227.51
962.36	227.47
962.65	227.44
962.95	227.45
963.24	227.40
963.54	227.37
963.83	227.33
964.13	227.32
964.42	227.27
964.72	227.18
965.01	227.13
965.31	227.13
965.60	227.08
965.90	227.11
966.19	227.06
966.49	227.07
966.78	227.05
967.08	227.00
967.37	226.97
967.67	226.95
967.96	226.96
968.26	226.94
968.55	226.93
968.85	226.93
969.14	226.91
969.43	226.91
969.73	226.90
970.02	226.88
970.32	226.89
970.61	226.92
970.91	226.86
971.20	226.85
971.49	226.84
971.79	226.85
972.08	226.81
972.38	226.81
972.67	226.76
972.96	226.81
973.26	226.82
973.55	226.83
973.85	226.80
974.14	226.76
974.43	226.78
974.73	226.78
975.02	226.79
975.31	226.81
975.61	226.79
975.90	226.78
976.19	226.78
976.49	226.78
976.78	226.76
977.07	226.77
977.37	226.78
977.66	226.77
977.95	226.80
978.24	226.84
978.54	226.88
978.83	226.91
979.12	226.92
979.42	226.90
979.71	226.92
980.00	226.96
980.29	227.02
980.59	227.00
980.88	227.02
981.17	227.03
981.46	227.03
981.76	227.08
982.05	227.14
982.34	227.16
982.63	227.15
982.93	227.19
983.22	227.23
983.51	227.28
983.80	227.32
984.09	227.36
984.39	227.35
984.68	227.32
984.97	227.32
985.26	227.31
985.55	227.32
985.85	227.30
986.14	227.31
986.43	227.34
986.72	227.35
987.01	227.34
987.30	227.35
987.59	227.34
987.89	227.33
988.18	227.29
988.47	227.31
988.76	227.31
989.05	227.30
989.34	227.29
989.63	227.29
989.92	227.26
990.22	227.20
990.51	227.20
990.80	227.21
991.09	227.24
991.38	227.23
991.67	227.22
991.96	227.23
992.25	227.24
992.54	227.21
992.83	227.18
993.12	227.19
993.41	227.20
993.70	227.26
993.99	227.25
994.28	227.28
994.58	227.25
994.87	227.23
995.16	227.21
995.45	227.18
995.74	227.14
996.03	227.16
996.32	227.21
996.61	227.20
996.90	227.17
997.19	227.16
997.48	227.16
997.77	227.17
998.06	227.16
998.34	227.13
998.63	227.11
998.92	227.12
999.21	227.12
999.50	227.11
999.79	227.06
1000.08	227.07
1000.37	227.06
1000.66	227.04
1000.95	227.09
1001.24	227.09
1001.53	227.09
1001.82	227.10
1002.11	227.10
1002.40	227.07
1002.68	227.09
1002.97	227.17
1003.26	227.13
1003.55	227.11
1003.84	227.09
1004.13	227.11
1004.42	227.09
1004.71	227.10
1004.99	227.09
1005.28	227.12
1005.57	227.12
1005.86	227.08
1006.15	227.06
1006.44	227.04
1006.72	227.03
1007.01	226.98
1007.30	227.00
1007.59	227.00
1007.88	226.99
1008.17	226.98
1008.45	226.96
1008.74	226.95
1009.03	226.91
1009.32	226.90
1009.60	226.92
1009.89	226.93
1010.18	226.90
1010.47	226.95
1010.76	226.95
1011.04	226.95
1011.33	226.96
1011.62	226.95
1011.91	227.01
1012.19	227.02
1012.48	227.05
1012.77	227.10
1013.05	227.14
1013.34	227.17
1013.63	227.18
1013.92	227.20
1014.20	227.23
1014.49	227.25
1014.78	227.26
1015.06	227.22
1015.35	227.29
1015.64	227.31
1015.92	227.32
1016.21	227.34
1016.50	227.34
1016.78	227.36
1017.07	227.39
1017.36	227.37
1017.64	227.37
1017.93	227.36
1018.22	227.38
1018.50	227.36
1018.79	227.37
1019.08	227.38
1019.36	227.36
1019.65	227.35
1019.93	227.40
1020.22	227.42
1020.51	227.46
1020.79	227.47
1021.08	227.34
1021.36	227.07
1021.65	227.51
1021.94	227.70
1022.22	227.43
1022.51	227.20
1022.79	228.41
1023.08	227.58
1023.36	228.41
1023.65	227.57
>>>>>End Processed Spectral Data<<<<<
