SpectraSuite Data File
++++++++++++++++++++++++++++++++++++
Date: Fri Feb 01 16:07:39 EST 2013
User: group
Dark Spectrum Present: No
Reference Spectrum Present: No
Number of Sampled Component Spectra: 1
Spectrometers: USB2E7196
Integration Time (usec): 35000 (USB2E7196)
Spectra Averaged: 100 (USB2E7196)
Boxcar Smoothing: 10 (USB2E7196)
Correct for Electrical Dark: No (USB2E7196)
Strobe/Lamp Enabled: No (USB2E7196)
Correct for Detector Non-linearity: No (USB2E7196)
Correct for Stray Light: No (USB2E7196)
Number of Pixels in Processed Spectrum: 2048
>>>>>Begin Processed Spectral Data<<<<<
339.09	0.00
339.48	215.33
339.86	216.71
340.24	217.82
340.63	219.02
341.01	222.07
341.39	222.23
341.78	223.44
342.16	225.04
342.54	225.01
342.93	213.40
343.31	224.19
343.69	224.73
344.07	225.17
344.46	225.61
344.84	226.01
345.22	226.25
345.60	226.49
345.99	226.64
346.37	226.74
346.75	226.85
347.13	226.92
347.52	226.95
347.90	226.99
348.28	227.03
348.66	227.02
349.05	227.02
349.43	227.08
349.81	227.11
350.19	227.16
350.57	227.18
350.96	227.19
351.34	227.25
351.72	227.29
352.10	227.37
352.48	227.39
352.87	227.38
353.25	227.42
353.63	227.45
354.01	227.53
354.39	227.58
354.77	227.61
355.15	227.73
355.54	227.77
355.92	227.81
356.30	227.84
356.68	227.97
357.06	228.00
357.44	228.01
357.82	228.09
358.20	228.13
358.58	228.18
358.97	228.28
359.35	228.34
359.73	228.42
360.11	228.47
360.49	228.52
360.87	228.55
361.25	228.63
361.63	228.70
362.01	228.71
362.39	228.72
362.77	228.78
363.15	228.80
363.53	228.84
363.91	228.87
364.29	228.90
364.67	228.82
365.05	228.84
365.43	228.87
365.81	228.87
366.19	228.93
366.57	228.96
366.95	228.97
367.33	228.92
367.71	228.90
368.09	228.90
368.47	228.88
368.85	228.86
369.23	228.85
369.61	228.78
369.99	228.80
370.37	228.79
370.75	228.77
371.13	228.67
371.51	228.64
371.89	228.63
372.27	228.59
372.65	228.56
373.03	228.53
373.41	228.47
373.78	228.38
374.16	228.29
374.54	228.22
374.92	228.11
375.30	228.07
375.68	227.99
376.06	227.96
376.44	227.95
376.82	227.91
377.19	227.82
377.57	227.75
377.95	227.65
378.33	227.60
378.71	227.51
379.09	227.46
379.47	227.38
379.84	227.28
380.22	227.22
380.60	227.14
380.98	227.07
381.36	227.00
381.73	226.93
382.11	226.87
382.49	226.82
382.87	226.77
383.25	226.72
383.62	226.78
384.00	226.67
384.38	226.61
384.76	226.59
385.13	226.59
385.51	226.59
385.89	226.52
386.27	226.49
386.64	226.43
387.02	226.39
387.40	226.32
387.78	226.27
388.15	226.24
388.53	226.21
388.91	226.17
389.29	226.16
389.66	226.17
390.04	226.16
390.42	226.17
390.79	226.19
391.17	226.21
391.55	226.11
391.92	226.13
392.30	226.14
392.68	226.11
393.05	226.09
393.43	226.08
393.81	226.11
394.18	226.09
394.56	226.14
394.94	226.18
395.31	226.22
395.69	226.30
396.06	226.35
396.44	226.36
396.82	226.39
397.19	226.46
397.57	226.50
397.95	226.56
398.32	226.58
398.70	226.61
399.07	226.66
399.45	226.69
399.82	226.76
400.20	226.80
400.58	226.86
400.95	226.89
401.33	226.99
401.70	227.15
402.08	227.25
402.45	227.34
402.83	227.45
403.20	227.57
403.58	227.66
403.95	227.79
404.33	227.94
404.71	228.05
405.08	228.23
405.46	228.40
405.83	228.53
406.21	228.67
406.58	228.83
406.96	228.99
407.33	229.19
407.70	229.34
408.08	229.61
408.45	229.86
408.83	230.12
409.20	230.33
409.58	230.48
409.95	230.73
410.33	230.98
410.70	231.22
411.08	231.49
411.45	231.82
411.82	232.11
412.20	232.45
412.57	232.86
412.95	233.14
413.32	233.51
413.69	233.88
414.07	234.30
414.44	234.75
414.82	235.21
415.19	235.78
415.56	236.33
415.94	236.90
416.31	237.53
416.68	238.14
417.06	238.85
417.43	239.56
417.81	240.34
418.18	241.15
418.55	242.00
418.93	242.83
419.30	243.69
419.67	244.65
420.04	245.63
420.42	246.62
420.79	247.83
421.16	249.01
421.54	250.23
421.91	251.49
422.28	252.79
422.66	254.13
423.03	255.40
423.40	256.77
423.77	258.13
424.15	259.51
424.52	261.00
424.89	262.60
425.26	264.15
425.64	265.60
426.01	267.15
426.38	268.79
426.75	270.49
427.13	272.21
427.50	274.00
427.87	275.89
428.24	277.73
428.61	279.45
428.99	281.38
429.36	283.45
429.73	285.46
430.10	287.47
430.47	289.51
430.85	291.59
431.22	293.80
431.59	296.19
431.96	298.43
432.33	300.94
432.70	303.33
433.08	306.11
433.45	308.73
433.82	311.33
434.19	314.24
434.56	317.07
434.93	319.74
435.30	322.35
435.68	325.21
436.05	328.00
436.42	330.80
436.79	333.29
437.16	336.00
437.53	338.88
437.90	341.63
438.27	344.39
438.64	347.25
439.01	349.82
439.38	352.07
439.75	354.22
440.13	356.69
440.50	359.01
440.87	360.85
441.24	362.81
441.61	364.99
441.98	366.46
442.35	368.21
442.72	370.08
443.09	371.88
443.46	372.90
443.83	373.53
444.20	374.02
444.57	374.85
444.94	375.16
445.31	375.47
445.68	375.84
446.05	375.89
446.42	375.47
446.79	375.07
447.16	374.57
447.53	374.25
447.90	373.09
448.27	371.91
448.64	370.37
449.01	369.19
449.37	367.21
449.74	365.31
450.11	363.10
450.48	360.61
450.85	358.06
451.22	355.90
451.59	353.90
451.96	351.98
452.33	349.38
452.70	346.99
453.07	344.16
453.43	341.27
453.80	338.50
454.17	335.88
454.54	333.33
454.91	330.66
455.28	328.03
455.65	325.53
456.02	323.07
456.38	320.87
456.75	318.26
457.12	316.04
457.49	313.80
457.86	311.65
458.23	309.77
458.59	307.76
458.96	305.67
459.33	303.80
459.70	301.94
460.07	300.43
460.43	298.73
460.80	297.10
461.17	295.67
461.54	294.18
461.91	292.76
462.27	291.33
462.64	290.08
463.01	288.72
463.38	287.46
463.74	286.11
464.11	284.97
464.48	283.97
464.85	282.86
465.21	282.03
465.58	281.11
465.95	280.03
466.32	279.14
466.68	278.23
467.05	277.37
467.42	276.51
467.78	275.59
468.15	274.76
468.52	274.13
468.88	273.26
469.25	272.51
469.62	271.90
469.98	271.23
470.35	270.60
470.72	270.03
471.08	269.36
471.45	268.85
471.82	268.30
472.18	267.69
472.55	267.28
472.92	266.77
473.28	266.30
473.65	265.87
474.02	265.44
474.38	265.07
474.75	264.73
475.11	264.38
475.48	264.15
475.85	263.88
476.21	263.62
476.58	263.44
476.94	263.31
477.31	263.13
477.67	262.99
478.04	262.89
478.41	262.81
478.77	262.87
479.14	262.80
479.50	262.81
479.87	262.89
480.23	262.97
480.60	263.02
480.96	263.11
481.33	263.31
481.69	263.48
482.06	263.69
482.42	263.88
482.79	264.15
483.15	264.42
483.52	264.83
483.88	265.19
484.25	265.57
484.61	266.00
484.98	266.42
485.34	266.98
485.71	267.56
486.07	268.17
486.44	268.72
486.80	269.43
487.17	270.17
487.53	270.98
487.90	271.81
488.26	272.74
488.62	273.75
488.99	274.73
489.35	275.76
489.72	276.88
490.08	278.10
490.44	279.32
490.81	280.69
491.17	282.01
491.54	283.51
491.90	285.05
492.26	286.71
492.63	288.47
492.99	290.25
493.36	292.18
493.72	294.22
494.08	296.31
494.45	298.54
494.81	300.88
495.17	303.28
495.54	305.82
495.90	308.51
496.26	311.30
496.63	314.24
496.99	317.40
497.35	320.69
497.72	324.08
498.08	327.57
498.44	331.22
498.80	335.15
499.17	339.19
499.53	343.34
499.89	347.74
500.26	352.23
500.62	356.88
500.98	361.79
501.34	366.88
501.71	372.22
502.07	377.64
502.43	383.24
502.79	389.09
503.16	395.22
503.52	401.48
503.88	407.91
504.24	414.60
504.60	421.51
504.97	428.63
505.33	435.93
505.69	443.70
506.05	451.50
506.41	459.35
506.78	467.57
507.14	476.01
507.50	484.71
507.86	493.78
508.22	503.06
508.59	512.27
508.95	521.91
509.31	531.76
509.67	541.88
510.03	552.21
510.39	562.81
510.75	573.53
511.12	584.49
511.48	595.78
511.84	607.29
512.20	618.88
512.56	630.82
512.92	643.08
513.28	655.41
513.64	667.91
514.00	680.70
514.37	693.56
514.73	706.68
515.09	719.71
515.45	733.00
515.81	746.53
516.17	760.53
516.53	774.58
516.89	788.70
517.25	802.92
517.61	817.27
517.97	831.64
518.33	846.10
518.69	860.89
519.05	875.88
519.41	890.91
519.77	906.39
520.13	921.79
520.49	937.10
520.85	952.49
521.21	968.16
521.57	984.39
521.93	1000.09
522.29	1016.42
522.65	1032.67
523.01	1048.76
523.37	1064.84
523.73	1080.90
524.09	1096.94
524.45	1113.17
524.81	1129.71
525.17	1146.45
525.53	1163.21
525.89	1179.99
526.25	1196.73
526.61	1213.10
526.97	1229.85
527.33	1246.25
527.68	1262.78
528.04	1279.20
528.40	1295.72
528.76	1312.65
529.12	1329.07
529.48	1345.93
529.84	1361.91
530.20	1378.36
530.56	1395.28
530.91	1412.64
531.27	1429.39
531.63	1445.71
531.99	1462.32
532.35	1478.31
532.71	1494.22
533.07	1510.56
533.42	1526.50
533.78	1542.50
534.14	1558.67
534.50	1573.92
534.86	1589.73
535.21	1604.95
535.57	1620.76
535.93	1636.08
536.29	1650.88
536.65	1665.98
537.00	1680.62
537.36	1695.84
537.72	1710.38
538.08	1724.91
538.44	1738.62
538.79	1752.50
539.15	1766.23
539.51	1779.87
539.87	1794.11
540.22	1807.77
540.58	1821.32
540.94	1834.45
541.29	1847.25
541.65	1859.80
542.01	1872.96
542.37	1885.28
542.72	1897.63
543.08	1909.41
543.44	1921.85
543.79	1932.98
544.15	1943.80
544.51	1955.46
544.87	1966.44
545.22	1977.27
545.58	1987.27
545.94	1996.94
546.29	2006.77
546.65	2016.52
547.01	2025.83
547.36	2034.49
547.72	2043.02
548.07	2050.93
548.43	2059.11
548.79	2067.04
549.14	2074.67
549.50	2081.95
549.86	2089.36
550.21	2096.59
550.57	2103.79
550.92	2110.27
551.28	2117.41
551.64	2124.49
551.99	2130.90
552.35	2136.91
552.70	2143.00
553.06	2149.01
553.41	2155.32
553.77	2161.32
554.13	2167.31
554.48	2173.36
554.84	2178.90
555.19	2183.96
555.55	2189.27
555.90	2193.72
556.26	2198.71
556.61	2203.25
556.97	2207.73
557.32	2211.87
557.68	2215.99
558.03	2220.23
558.39	2223.81
558.74	2228.26
559.10	2232.10
559.45	2235.75
559.81	2239.98
560.16	2243.82
560.52	2247.01
560.87	2250.50
561.23	2253.16
561.58	2256.18
561.94	2258.66
562.29	2260.82
562.64	2263.55
563.00	2266.00
563.35	2269.67
563.71	2272.72
564.06	2275.93
564.42	2278.83
564.77	2281.52
565.12	2283.89
565.48	2285.77
565.83	2287.88
566.19	2289.44
566.54	2290.35
566.89	2291.63
567.25	2292.49
567.60	2293.66
567.96	2295.50
568.31	2296.17
568.66	2297.30
569.02	2297.97
569.37	2298.27
569.72	2299.26
570.08	2299.53
570.43	2299.63
570.78	2299.08
571.14	2297.64
571.49	2296.43
571.84	2295.92
572.20	2294.77
572.55	2293.75
572.90	2292.11
573.26	2290.68
573.61	2288.93
573.96	2287.42
574.31	2284.49
574.67	2281.22
575.02	2277.79
575.37	2274.43
575.72	2270.74
576.08	2267.35
576.43	2263.95
576.78	2260.44
577.13	2257.18
577.49	2254.16
577.84	2250.61
578.19	2246.76
578.54	2243.22
578.90	2239.10
579.25	2233.54
579.60	2228.71
579.95	2223.76
580.30	2218.86
580.66	2213.56
581.01	2208.55
581.36	2203.44
581.71	2199.25
582.06	2195.12
582.42	2190.73
582.77	2185.57
583.12	2181.11
583.47	2176.40
583.82	2171.52
584.17	2166.31
584.53	2161.01
584.88	2155.41
585.23	2149.78
585.58	2144.29
585.93	2138.67
586.28	2133.76
586.63	2128.85
586.98	2123.67
587.34	2118.85
587.69	2113.97
588.04	2109.10
588.39	2103.54
588.74	2097.06
589.09	2090.88
589.44	2084.07
589.79	2077.87
590.14	2072.01
590.49	2065.35
590.84	2059.07
591.19	2053.06
591.54	2046.62
591.89	2039.15
592.25	2032.24
592.60	2025.00
592.95	2017.51
593.30	2010.23
593.65	2002.67
594.00	1995.51
594.35	1988.36
594.70	1980.34
595.05	1973.23
595.40	1965.85
595.75	1958.29
596.10	1952.17
596.45	1945.42
596.80	1939.26
597.15	1932.74
597.50	1925.90
597.85	1919.49
598.19	1912.95
598.54	1905.89
598.89	1899.13
599.24	1893.39
599.59	1886.80
599.94	1880.52
600.29	1874.23
600.64	1867.67
600.99	1860.33
601.34	1853.52
601.69	1846.55
602.04	1839.73
602.39	1832.30
602.74	1825.46
603.08	1818.86
603.43	1812.17
603.78	1804.90
604.13	1797.77
604.48	1790.58
604.83	1783.78
605.18	1776.99
605.53	1768.94
605.87	1760.80
606.22	1753.72
606.57	1745.73
606.92	1738.34
607.27	1731.38
607.62	1724.45
607.96	1717.21
608.31	1710.69
608.66	1703.17
609.01	1695.62
609.36	1688.10
609.70	1680.22
610.05	1672.28
610.40	1664.55
610.75	1656.12
611.10	1648.52
611.44	1639.96
611.79	1631.89
612.14	1623.11
612.49	1613.81
612.83	1605.35
613.18	1597.32
613.53	1589.22
613.88	1580.69
614.22	1572.53
614.57	1563.80
614.92	1555.83
615.27	1548.43
615.61	1539.98
615.96	1531.97
616.31	1524.31
616.65	1516.92
617.00	1509.33
617.35	1501.53
617.70	1493.24
618.04	1484.87
618.39	1476.64
618.74	1469.04
619.08	1460.73
619.43	1453.12
619.78	1446.21
620.12	1439.09
620.47	1431.54
620.82	1423.27
621.16	1415.70
621.51	1407.93
621.85	1400.27
622.20	1391.66
622.55	1383.14
622.89	1375.36
623.24	1367.61
623.59	1360.20
623.93	1352.69
624.28	1345.41
624.62	1337.96
624.97	1330.68
625.32	1323.92
625.66	1316.89
626.01	1309.72
626.35	1302.33
626.70	1294.56
627.04	1286.82
627.39	1278.99
627.73	1271.64
628.08	1264.74
628.43	1257.66
628.77	1250.33
629.12	1242.84
629.46	1235.76
629.81	1228.24
630.15	1221.01
630.50	1213.69
630.84	1205.43
631.19	1197.41
631.53	1189.88
631.88	1182.25
632.22	1174.73
632.57	1167.28
632.91	1159.65
633.26	1152.28
633.60	1144.88
633.95	1137.74
634.29	1130.64
634.64	1124.02
634.98	1116.67
635.32	1109.60
635.67	1102.90
636.01	1096.26
636.36	1089.46
636.70	1082.86
637.05	1076.36
637.39	1069.90
637.73	1063.39
638.08	1057.47
638.42	1051.52
638.77	1045.13
639.11	1038.63
639.45	1032.18
639.80	1025.62
640.14	1019.27
640.49	1012.73
640.83	1006.43
641.17	1000.31
641.52	994.09
641.86	987.57
642.20	981.70
642.55	975.29
642.89	968.86
643.23	962.31
643.58	956.59
643.92	950.46
644.26	944.50
644.61	938.39
644.95	932.34
645.29	925.86
645.64	919.27
645.98	912.93
646.32	907.01
646.66	901.02
647.01	895.22
647.35	889.51
647.69	883.56
648.04	878.01
648.38	872.24
648.72	866.30
649.06	860.31
649.41	854.36
649.75	848.45
650.09	842.45
650.43	836.70
650.78	830.57
651.12	824.60
651.46	818.85
651.80	813.23
652.14	807.92
652.49	802.54
652.83	797.26
653.17	791.56
653.51	785.87
653.85	780.40
654.20	774.78
654.54	768.81
654.88	763.17
655.22	757.26
655.56	751.49
655.90	746.00
656.25	740.74
656.59	735.43
656.93	730.30
657.27	725.23
657.61	719.75
657.95	714.57
658.29	709.47
658.64	704.17
658.98	698.72
659.32	693.26
659.66	688.05
660.00	682.74
660.34	677.79
660.68	672.84
661.02	667.89
661.36	663.21
661.70	658.75
662.05	654.42
662.39	650.07
662.73	645.68
663.07	641.28
663.41	636.74
663.75	632.25
664.09	627.71
664.43	623.32
664.77	619.25
665.11	615.00
665.45	610.86
665.79	606.83
666.13	602.80
666.47	598.58
666.81	594.45
667.15	590.33
667.49	586.39
667.83	582.52
668.17	578.55
668.51	574.41
668.85	570.30
669.19	566.37
669.53	562.56
669.87	558.63
670.21	554.88
670.55	551.28
670.89	547.87
671.23	544.45
671.57	540.87
671.91	537.33
672.25	533.82
672.58	530.30
672.92	526.87
673.26	523.71
673.60	520.60
673.94	517.45
674.28	514.51
674.62	511.58
674.96	508.50
675.30	505.60
675.64	502.71
675.97	499.94
676.31	497.11
676.65	494.20
676.99	491.53
677.33	488.71
677.67	485.91
678.01	482.82
678.34	479.83
678.68	476.95
679.02	474.14
679.36	471.35
679.70	468.58
680.04	465.83
680.37	462.94
680.71	460.20
681.05	457.60
681.39	454.92
681.73	452.29
682.06	449.83
682.40	447.29
682.74	444.78
683.08	442.22
683.42	439.63
683.75	437.12
684.09	434.48
684.43	431.97
684.77	429.47
685.10	427.11
685.44	424.83
685.78	422.56
686.12	420.29
686.45	418.05
686.79	415.76
687.13	413.55
687.46	411.36
687.80	409.20
688.14	406.94
688.48	404.92
688.81	402.68
689.15	400.50
689.49	398.31
689.82	396.25
690.16	394.22
690.50	392.26
690.83	390.32
691.17	388.41
691.51	386.53
691.84	384.74
692.18	382.85
692.52	380.89
692.85	378.95
693.19	377.10
693.52	375.25
693.86	373.38
694.20	371.62
694.53	369.83
694.87	368.02
695.21	366.28
695.54	364.43
695.88	362.69
696.21	360.96
696.55	359.30
696.88	357.57
697.22	355.84
697.56	354.20
697.89	352.56
698.23	350.95
698.56	349.36
698.90	347.74
699.23	346.10
699.57	344.51
699.90	342.95
700.24	341.46
700.58	339.95
700.91	338.50
701.25	337.04
701.58	335.72
701.92	334.34
702.25	332.90
702.59	331.54
702.92	330.24
703.26	328.95
703.59	327.69
703.93	326.50
704.26	325.30
704.60	324.03
704.93	322.74
705.26	321.47
705.60	320.30
705.93	319.17
706.27	318.16
706.60	317.12
706.94	316.07
707.27	314.89
707.61	313.82
707.94	312.83
708.27	311.74
708.61	310.60
708.94	309.55
709.28	308.64
709.61	307.68
709.94	306.71
710.28	305.69
710.61	304.67
710.95	303.59
711.28	302.65
711.61	301.71
711.95	300.81
712.28	299.87
712.61	298.90
712.95	297.93
713.28	297.03
713.61	296.12
713.95	295.23
714.28	294.38
714.61	293.55
714.95	292.70
715.28	291.87
715.61	290.96
715.95	290.12
716.28	289.24
716.61	288.40
716.95	287.57
717.28	286.82
717.61	286.06
717.94	285.34
718.28	284.53
718.61	283.78
718.94	283.08
719.27	282.39
719.61	281.69
719.94	281.04
720.27	280.32
720.60	279.64
720.94	279.00
721.27	278.42
721.60	277.84
721.93	277.26
722.27	276.71
722.60	276.21
722.93	275.62
723.26	275.12
723.59	274.57
723.93	274.01
724.26	273.42
724.59	272.88
724.92	272.36
725.25	271.90
725.59	271.42
725.92	270.88
726.25	270.37
726.58	269.89
726.91	269.40
727.24	268.92
727.57	268.49
727.91	267.99
728.24	267.54
728.57	267.05
728.90	266.58
729.23	266.09
729.56	265.65
729.89	265.19
730.22	264.69
730.55	264.21
730.89	263.78
731.22	263.34
731.55	262.93
731.88	262.50
732.21	262.06
732.54	261.63
732.87	261.26
733.20	260.87
733.53	260.47
733.86	260.12
734.19	259.73
734.52	259.34
734.85	259.02
735.18	258.61
735.51	258.24
735.84	257.88
736.17	257.54
736.50	257.12
736.83	256.89
737.16	256.53
737.49	256.21
737.82	255.85
738.15	255.52
738.48	255.18
738.81	254.86
739.14	254.51
739.47	254.21
739.80	253.87
740.13	253.55
740.46	253.26
740.79	252.93
741.12	252.62
741.45	252.30
741.78	251.94
742.11	251.64
742.44	251.32
742.77	251.01
743.10	250.70
743.43	250.41
743.75	250.02
744.08	249.87
744.41	249.57
744.74	249.31
745.07	249.02
745.40	248.73
745.73	248.47
746.06	248.21
746.39	247.94
746.71	247.65
747.04	247.38
747.37	247.08
747.70	246.83
748.03	246.58
748.36	246.37
748.68	246.16
749.01	245.90
749.34	245.70
749.67	245.47
750.00	245.22
750.33	245.09
750.65	244.91
750.98	244.56
751.31	244.34
751.64	244.14
751.97	244.00
752.29	243.77
752.62	243.52
752.95	243.30
753.28	243.07
753.60	242.89
753.93	242.72
754.26	242.55
754.59	242.30
754.91	242.06
755.24	241.85
755.57	241.66
755.90	241.48
756.22	241.27
756.55	241.05
756.88	240.85
757.20	240.58
757.53	240.38
757.86	240.22
758.19	240.08
758.51	239.89
758.84	239.64
759.17	239.49
759.49	239.34
759.82	239.18
760.15	239.04
760.47	238.84
760.80	238.66
761.13	238.53
761.45	238.41
761.78	238.28
762.11	238.13
762.43	237.97
762.76	237.83
763.08	237.69
763.41	237.60
763.74	237.48
764.06	237.35
764.39	237.23
764.71	237.09
765.04	236.95
765.37	236.84
765.69	236.75
766.02	236.62
766.34	236.49
766.67	236.37
767.00	236.26
767.32	236.22
767.65	236.18
767.97	236.05
768.30	235.92
768.62	235.84
768.95	235.74
769.27	235.61
769.60	235.51
769.92	235.39
770.25	235.26
770.57	235.14
770.90	235.05
771.22	234.93
771.55	234.84
771.87	234.76
772.20	234.65
772.52	234.62
772.85	234.68
773.17	234.60
773.50	234.51
773.82	234.41
774.15	234.27
774.47	234.10
774.80	234.03
775.12	233.96
775.45	233.84
775.77	233.73
776.09	233.65
776.42	233.56
776.74	233.52
777.07	233.43
777.39	233.39
777.72	233.30
778.04	233.26
778.36	233.17
778.69	233.10
779.01	233.03
779.33	232.89
779.66	232.73
779.98	232.64
780.31	232.60
780.63	232.58
780.95	232.54
781.28	232.45
781.60	232.37
781.92	232.30
782.25	232.26
782.57	232.20
782.89	232.14
783.22	232.07
783.54	231.99
783.86	231.95
784.19	231.88
784.51	231.87
784.83	231.77
785.16	231.74
785.48	231.66
785.80	231.61
786.12	231.58
786.45	231.47
786.77	231.44
787.09	231.35
787.42	231.30
787.74	231.24
788.06	231.22
788.38	231.19
788.71	231.15
789.03	231.11
789.35	231.12
789.67	231.05
789.99	231.02
790.32	230.95
790.64	230.95
790.96	230.97
791.28	230.87
791.61	230.86
791.93	230.81
792.25	230.79
792.57	230.82
792.89	230.73
793.21	230.70
793.54	230.67
793.86	230.67
794.18	230.63
794.50	230.59
794.82	230.56
795.14	230.51
795.47	230.50
795.79	230.46
796.11	230.37
796.43	230.37
796.75	230.34
797.07	230.33
797.39	230.28
797.71	230.23
798.04	230.22
798.36	230.17
798.68	230.14
799.00	230.12
799.32	230.01
799.64	230.03
799.96	230.01
800.28	230.00
800.60	229.96
800.92	229.93
801.24	229.90
801.56	229.87
801.89	229.83
802.21	229.77
802.53	229.75
802.85	229.75
803.17	229.77
803.49	229.71
803.81	229.65
804.13	229.58
804.45	229.52
804.77	229.51
805.09	229.48
805.41	229.43
805.73	229.37
806.05	229.35
806.37	229.32
806.69	229.31
807.01	229.25
807.33	229.22
807.65	229.16
807.97	229.16
808.28	229.13
808.60	229.12
808.92	229.10
809.24	229.15
809.56	229.10
809.88	229.04
810.20	229.02
810.52	229.06
810.84	229.03
811.16	229.00
811.48	228.97
811.80	229.00
812.12	228.96
812.43	228.96
812.75	228.94
813.07	228.92
813.39	228.90
813.71	228.89
814.03	228.85
814.35	228.82
814.67	228.79
814.98	228.75
815.30	228.76
815.62	228.71
815.94	228.58
816.26	228.61
816.58	228.57
816.89	228.59
817.21	228.52
817.53	228.55
817.85	228.50
818.17	228.48
818.48	228.42
818.80	228.43
819.12	228.38
819.44	228.36
819.76	228.31
820.07	228.26
820.39	228.22
820.71	228.22
821.03	228.19
821.34	228.16
821.66	228.16
821.98	228.11
822.30	228.11
822.61	228.17
822.93	228.11
823.25	228.09
823.57	228.05
823.88	228.06
824.20	228.00
824.52	227.99
824.83	227.97
825.15	227.93
825.47	227.92
825.79	227.93
826.10	227.90
826.42	227.90
826.74	227.92
827.05	227.92
827.37	227.94
827.69	227.91
828.00	227.90
828.32	227.90
828.64	227.87
828.95	227.92
829.27	227.89
829.58	227.89
829.90	227.90
830.22	227.86
830.53	227.82
830.85	227.81
831.17	227.80
831.48	227.79
831.80	227.78
832.11	227.77
832.43	227.73
832.75	227.72
833.06	227.74
833.38	227.70
833.69	227.68
834.01	227.66
834.32	227.67
834.64	227.65
834.96	227.63
835.27	227.64
835.59	227.59
835.90	227.57
836.22	227.54
836.53	227.49
836.85	227.49
837.16	227.57
837.48	227.57
837.79	227.55
838.11	227.55
838.42	227.55
838.74	227.53
839.05	227.53
839.37	227.52
839.68	227.46
840.00	227.46
840.31	227.49
840.63	227.48
840.94	227.46
841.26	227.45
841.57	227.45
841.88	227.45
842.20	227.45
842.51	227.42
842.83	227.41
843.14	227.53
843.46	227.55
843.77	227.47
844.08	227.44
844.40	227.42
844.71	227.38
845.03	227.37
845.34	227.37
845.65	227.37
845.97	227.37
846.28	227.38
846.60	227.40
846.91	227.37
847.22	227.36
847.54	227.35
847.85	227.35
848.16	227.30
848.48	227.28
848.79	227.31
849.10	227.32
849.42	227.33
849.73	227.24
850.04	227.19
850.36	227.22
850.67	227.26
850.98	227.30
851.30	227.34
851.61	227.35
851.92	227.36
852.23	227.35
852.55	227.36
852.86	227.35
853.17	227.35
853.49	227.35
853.80	227.36
854.11	227.37
854.42	227.39
854.74	227.39
855.05	227.40
855.36	227.34
855.67	227.31
855.99	227.32
856.30	227.41
856.61	227.42
856.92	227.40
857.23	227.41
857.55	227.37
857.86	227.35
858.17	227.36
858.48	227.33
858.79	227.34
859.11	227.34
859.42	227.33
859.73	227.31
860.04	227.31
860.35	227.28
860.66	227.28
860.98	227.28
861.29	227.30
861.60	227.27
861.91	227.30
862.22	227.31
862.53	227.27
862.84	227.16
863.16	227.18
863.47	227.16
863.78	227.15
864.09	227.14
864.40	227.13
864.71	227.13
865.02	227.11
865.33	227.08
865.64	227.06
865.95	227.06
866.27	227.13
866.58	227.14
866.89	227.17
867.20	227.15
867.51	227.13
867.82	227.12
868.13	227.14
868.44	227.12
868.75	227.15
869.06	227.15
869.37	227.18
869.68	227.11
869.99	227.13
870.30	227.12
870.61	227.14
870.92	227.13
871.23	227.11
871.54	227.15
871.85	227.19
872.16	227.18
872.47	227.16
872.78	227.10
873.09	227.07
873.40	227.05
873.71	227.08
874.02	227.10
874.33	227.09
874.64	227.09
874.95	227.10
875.26	227.07
875.56	227.06
875.87	227.07
876.18	227.08
876.49	227.17
876.80	227.15
877.11	227.10
877.42	227.10
877.73	227.11
878.04	227.10
878.35	227.08
878.66	227.10
878.96	227.09
879.27	227.09
879.58	227.12
879.89	227.12
880.20	227.13
880.51	227.07
880.82	227.06
881.12	227.02
881.43	227.00
881.74	226.97
882.05	226.97
882.36	226.95
882.67	226.96
882.97	226.85
883.28	226.84
883.59	226.82
883.90	226.88
884.21	226.87
884.51	226.86
884.82	226.85
885.13	226.84
885.44	226.84
885.74	226.80
886.05	226.76
886.36	226.73
886.67	226.68
886.98	226.77
887.28	226.78
887.59	226.84
887.90	226.84
888.20	226.85
888.51	226.85
888.82	226.83
889.13	226.83
889.43	226.90
889.74	226.89
890.05	226.92
890.35	226.87
890.66	226.86
890.97	226.86
891.28	226.83
891.58	226.83
891.89	226.83
892.20	226.82
892.50	226.80
892.81	226.80
893.12	226.82
893.42	226.81
893.73	226.80
894.04	226.76
894.34	226.78
894.65	226.78
894.95	226.76
895.26	226.76
895.57	226.80
895.87	226.72
896.18	226.77
896.48	226.75
896.79	226.76
897.10	226.81
897.40	226.81
897.71	226.85
898.01	226.85
898.32	226.88
898.63	226.90
898.93	226.93
899.24	226.94
899.54	226.92
899.85	226.87
900.15	226.90
900.46	226.90
900.76	226.89
901.07	226.86
901.38	226.87
901.68	226.90
901.99	226.84
902.29	226.82
902.60	226.80
902.90	226.83
903.21	226.85
903.51	226.80
903.82	226.83
904.12	226.83
904.43	226.83
904.73	226.83
905.03	226.80
905.34	226.89
905.64	226.90
905.95	226.90
906.25	226.90
906.56	226.86
906.86	226.89
907.17	226.91
907.47	226.92
907.77	226.92
908.08	226.88
908.38	226.89
908.69	226.92
908.99	226.94
909.30	226.91
909.60	226.88
909.90	226.88
910.21	226.86
910.51	226.85
910.81	226.85
911.12	226.82
911.42	226.84
911.73	226.73
912.03	226.74
912.33	226.76
912.64	226.76
912.94	226.78
913.24	226.73
913.55	226.70
913.85	226.72
914.15	226.71
914.46	226.74
914.76	226.76
915.06	226.74
915.37	226.72
915.67	226.73
915.97	226.76
916.27	226.75
916.58	226.72
916.88	226.71
917.18	226.69
917.49	226.77
917.79	226.76
918.09	226.79
918.39	226.82
918.70	226.80
919.00	226.79
919.30	226.83
919.60	226.85
919.91	226.82
920.21	226.81
920.51	226.80
920.81	226.80
921.12	226.79
921.42	226.81
921.72	226.80
922.02	226.80
922.32	226.79
922.63	226.78
922.93	226.85
923.23	226.86
923.53	226.85
923.83	226.80
924.13	226.83
924.44	226.80
924.74	226.82
925.04	226.84
925.34	226.86
925.64	226.79
925.94	226.81
926.24	226.88
926.55	226.89
926.85	226.89
927.15	226.92
927.45	226.89
927.75	226.86
928.05	226.85
928.35	226.82
928.65	226.82
928.95	226.82
929.26	226.79
929.56	226.81
929.86	226.79
930.16	226.80
930.46	226.75
930.76	226.76
931.06	226.69
931.36	226.65
931.66	226.65
931.96	226.65
932.26	226.61
932.56	226.58
932.86	226.59
933.16	226.60
933.46	226.57
933.76	226.58
934.06	226.62
934.36	226.69
934.66	226.68
934.96	226.66
935.26	226.67
935.56	226.67
935.86	226.62
936.16	226.61
936.46	226.57
936.76	226.57
937.06	226.54
937.36	226.54
937.66	226.53
937.96	226.50
938.26	226.52
938.56	226.51
938.86	226.50
939.16	226.52
939.46	226.51
939.76	226.49
940.06	226.48
940.35	226.45
940.65	226.37
940.95	226.44
941.25	226.41
941.55	226.41
941.85	226.39
942.15	226.41
942.45	226.45
942.75	226.47
943.04	226.50
943.34	226.51
943.64	226.51
943.94	226.51
944.24	226.51
944.54	226.50
944.84	226.53
945.13	226.52
945.43	226.48
945.73	226.49
946.03	226.52
946.33	226.52
946.62	226.55
946.92	226.55
947.22	226.53
947.52	226.58
947.82	226.60
948.11	226.56
948.41	226.55
948.71	226.53
949.01	226.56
949.31	226.55
949.60	226.56
949.90	226.60
950.20	226.62
950.50	226.60
950.79	226.59
951.09	226.58
951.39	226.59
951.69	226.58
951.98	226.59
952.28	226.57
952.58	226.56
952.87	226.56
953.17	226.56
953.47	226.53
953.76	226.50
954.06	226.48
954.36	226.51
954.66	226.52
954.95	226.57
955.25	226.58
955.55	226.56
955.84	226.52
956.14	226.52
956.44	226.50
956.73	226.52
957.03	226.53
957.32	226.57
957.62	226.57
957.92	226.60
958.21	226.58
958.51	226.71
958.81	226.73
959.10	226.74
959.40	226.78
959.69	226.80
959.99	226.83
960.29	226.82
960.58	226.80
960.88	226.87
961.17	226.85
961.47	226.85
961.76	226.85
962.06	226.92
962.36	226.93
962.65	226.93
962.95	226.94
963.24	226.92
963.54	226.90
963.83	226.89
964.13	226.89
964.42	226.86
964.72	226.77
965.01	226.76
965.31	226.74
965.60	226.68
965.90	226.73
966.19	226.70
966.49	226.73
966.78	226.74
967.08	226.69
967.37	226.70
967.67	226.65
967.96	226.67
968.26	226.64
968.55	226.63
968.85	226.64
969.14	226.64
969.43	226.65
969.73	226.64
970.02	226.66
970.32	226.62
970.61	226.64
970.91	226.60
971.20	226.61
971.49	226.62
971.79	226.64
972.08	226.57
972.38	226.60
972.67	226.60
972.96	226.58
973.26	226.56
973.55	226.59
973.85	226.58
974.14	226.54
974.43	226.53
974.73	226.51
975.02	226.52
975.31	226.50
975.61	226.48
975.90	226.46
976.19	226.44
976.49	226.47
976.78	226.45
977.07	226.46
977.37	226.45
977.66	226.48
977.95	226.48
978.24	226.51
978.54	226.47
978.83	226.48
979.12	226.48
979.42	226.46
979.71	226.41
980.00	226.45
980.29	226.48
980.59	226.47
980.88	226.53
981.17	226.53
981.46	226.50
981.76	226.51
982.05	226.54
982.34	226.54
982.63	226.53
982.93	226.58
983.22	226.62
983.51	226.61
983.80	226.56
984.09	226.55
984.39	226.50
984.68	226.52
984.97	226.51
985.26	226.49
985.55	226.48
985.85	226.47
986.14	226.46
986.43	226.45
986.72	226.42
987.01	226.37
987.30	226.31
987.59	226.35
987.89	226.31
988.18	226.28
988.47	226.25
988.76	226.23
989.05	226.21
989.34	226.15
989.63	226.17
989.92	226.19
990.22	226.18
990.51	226.21
990.80	226.20
991.09	226.18
991.38	226.21
991.67	226.25
991.96	226.23
992.25	226.23
992.54	226.21
992.83	226.25
993.12	226.23
993.41	226.28
993.70	226.31
993.99	226.34
994.28	226.35
994.58	226.36
994.87	226.36
995.16	226.36
995.45	226.37
995.74	226.34
996.03	226.34
996.32	226.35
996.61	226.35
996.90	226.36
997.19	226.33
997.48	226.31
997.77	226.27
998.06	226.28
998.34	226.28
998.63	226.29
998.92	226.31
999.21	226.32
999.50	226.30
999.79	226.28
1000.08	226.28
1000.37	226.28
1000.66	226.27
1000.95	226.29
1001.24	226.28
1001.53	226.30
1001.82	226.32
1002.11	226.29
1002.40	226.30
1002.68	226.32
1002.97	226.37
1003.26	226.39
1003.55	226.39
1003.84	226.42
1004.13	226.44
1004.42	226.42
1004.71	226.44
1004.99	226.45
1005.28	226.47
1005.57	226.47
1005.86	226.47
1006.15	226.50
1006.44	226.46
1006.72	226.47
1007.01	226.46
1007.30	226.46
1007.59	226.47
1007.88	226.46
1008.17	226.48
1008.45	226.47
1008.74	226.42
1009.03	226.42
1009.32	226.42
1009.60	226.45
1009.89	226.44
1010.18	226.41
1010.47	226.43
1010.76	226.42
1011.04	226.42
1011.33	226.46
1011.62	226.48
1011.91	226.50
1012.19	226.51
1012.48	226.53
1012.77	226.57
1013.05	226.65
1013.34	226.70
1013.63	226.67
1013.92	226.69
1014.20	226.68
1014.49	226.68
1014.78	226.71
1015.06	226.65
1015.35	226.67
1015.64	226.68
1015.92	226.68
1016.21	226.69
1016.50	226.68
1016.78	226.72
1017.07	226.73
1017.36	226.68
1017.64	226.67
1017.93	226.69
1018.22	226.68
1018.50	226.69
1018.79	226.66
1019.08	226.56
1019.36	226.53
1019.65	226.52
1019.93	226.56
1020.22	226.59
1020.51	226.67
1020.79	226.65
1021.08	226.65
1021.36	226.44
1021.65	226.14
1021.94	226.24
1022.22	226.21
1022.51	226.23
1022.79	227.41
1023.08	227.01
1023.36	227.86
1023.65	226.24
>>>>>End Processed Spectral Data<<<<<
