SpectraSuite Data File
++++++++++++++++++++++++++++++++++++
Date: Fri Feb 01 15:17:14 EST 2013
User: group
Dark Spectrum Present: No
Reference Spectrum Present: No
Number of Sampled Component Spectra: 1
Spectrometers: USB2E7196
Integration Time (usec): 35000 (USB2E7196)
Spectra Averaged: 100 (USB2E7196)
Boxcar Smoothing: 10 (USB2E7196)
Correct for Electrical Dark: No (USB2E7196)
Strobe/Lamp Enabled: No (USB2E7196)
Correct for Detector Non-linearity: No (USB2E7196)
Correct for Stray Light: No (USB2E7196)
Number of Pixels in Processed Spectrum: 2048
>>>>>Begin Processed Spectral Data<<<<<
339.09	0.00
339.48	215.69
339.86	216.74
340.24	218.22
340.63	219.56
341.01	222.17
341.39	222.11
341.78	224.19
342.16	224.85
342.54	225.09
342.93	213.76
343.31	224.55
343.69	225.08
344.07	225.53
344.46	225.97
344.84	226.33
345.22	226.57
345.60	226.83
345.99	226.98
346.37	227.09
346.75	227.22
347.13	227.25
347.52	227.31
347.90	227.36
348.28	227.36
348.66	227.41
349.05	227.36
349.43	227.42
349.81	227.48
350.19	227.50
350.57	227.56
350.96	227.65
351.34	227.71
351.72	227.79
352.10	227.89
352.48	227.93
352.87	227.99
353.25	228.06
353.63	228.11
354.01	228.17
354.39	228.24
354.77	228.28
355.15	228.38
355.54	228.44
355.92	228.45
356.30	228.55
356.68	228.65
357.06	228.74
357.44	228.77
357.82	228.82
358.20	228.88
358.58	228.91
358.97	228.95
359.35	229.05
359.73	229.10
360.11	229.16
360.49	229.22
360.87	229.29
361.25	229.34
361.63	229.40
362.01	229.46
362.39	229.49
362.77	229.54
363.15	229.54
363.53	229.54
363.91	229.61
364.29	229.61
364.67	229.57
365.05	229.57
365.43	229.60
365.81	229.60
366.19	229.65
366.57	229.68
366.95	229.67
367.33	229.63
367.71	229.61
368.09	229.60
368.47	229.58
368.85	229.56
369.23	229.53
369.61	229.49
369.99	229.46
370.37	229.44
370.75	229.45
371.13	229.42
371.51	229.37
371.89	229.33
372.27	229.29
372.65	229.22
373.03	229.18
373.41	229.09
373.78	229.03
374.16	228.90
374.54	228.82
374.92	228.72
375.30	228.65
375.68	228.59
376.06	228.53
376.44	228.43
376.82	228.32
377.19	228.26
377.57	228.16
377.95	228.03
378.33	227.93
378.71	227.79
379.09	227.76
379.47	227.68
379.84	227.58
380.22	227.48
380.60	227.39
380.98	227.32
381.36	227.26
381.73	227.17
382.11	227.15
382.49	227.08
382.87	227.02
383.25	226.95
383.62	227.01
384.00	226.92
384.38	226.89
384.76	226.85
385.13	226.86
385.51	226.83
385.89	226.79
386.27	226.74
386.64	226.67
387.02	226.60
387.40	226.56
387.78	226.53
388.15	226.53
388.53	226.50
388.91	226.47
389.29	226.43
389.66	226.47
390.04	226.43
390.42	226.46
390.79	226.47
391.17	226.46
391.55	226.34
391.92	226.34
392.30	226.34
392.68	226.37
393.05	226.34
393.43	226.34
393.81	226.37
394.18	226.40
394.56	226.45
394.94	226.47
395.31	226.50
395.69	226.57
396.06	226.57
396.44	226.61
396.82	226.66
397.19	226.78
397.57	226.79
397.95	226.85
398.32	226.88
398.70	226.92
399.07	227.02
399.45	227.04
399.82	227.11
400.20	227.18
400.58	227.24
400.95	227.30
401.33	227.41
401.70	227.57
402.08	227.70
402.45	227.81
402.83	227.98
403.20	228.11
403.58	228.21
403.95	228.37
404.33	228.51
404.71	228.65
405.08	228.87
405.46	229.03
405.83	229.16
406.21	229.29
406.58	229.46
406.96	229.60
407.33	229.85
407.70	230.07
408.08	230.35
408.45	230.59
408.83	230.85
409.20	231.08
409.58	231.26
409.95	231.53
410.33	231.82
410.70	232.06
411.08	232.35
411.45	232.64
411.82	232.92
412.20	233.33
412.57	233.74
412.95	234.00
413.32	234.40
413.69	234.83
414.07	235.30
414.44	235.79
414.82	236.28
415.19	236.82
415.56	237.33
415.94	237.86
416.31	238.48
416.68	239.10
417.06	239.80
417.43	240.51
417.81	241.25
418.18	242.00
418.55	242.86
418.93	243.73
419.30	244.63
419.67	245.58
420.04	246.49
420.42	247.45
420.79	248.64
421.16	249.79
421.54	250.97
421.91	252.17
422.28	253.45
422.66	254.77
423.03	256.09
423.40	257.46
423.77	258.88
424.15	260.31
424.52	261.79
424.89	263.42
425.26	264.93
425.64	266.37
426.01	267.96
426.38	269.61
426.75	271.25
427.13	272.99
427.50	274.78
427.87	276.65
428.24	278.52
428.61	280.21
428.99	282.13
429.36	284.26
429.73	286.33
430.10	288.35
430.47	290.43
430.85	292.51
431.22	294.73
431.59	297.09
431.96	299.32
432.33	301.79
432.70	304.17
433.08	307.02
433.45	309.67
433.82	312.32
434.19	315.21
434.56	318.07
434.93	320.78
435.30	323.43
435.68	326.31
436.05	329.14
436.42	331.96
436.79	334.51
437.16	337.22
437.53	340.11
437.90	342.92
438.27	345.67
438.64	348.48
439.01	351.04
439.38	353.30
439.75	355.47
440.13	357.97
440.50	360.29
440.87	362.14
441.24	364.09
441.61	366.18
441.98	367.69
442.35	369.47
442.72	371.31
443.09	373.17
443.46	374.18
443.83	374.76
444.20	375.26
444.57	376.08
444.94	376.33
445.31	376.61
445.68	376.93
446.05	377.01
446.42	376.70
446.79	376.30
447.16	375.85
447.53	375.55
447.90	374.42
448.27	373.25
448.64	371.65
449.01	370.49
449.37	368.53
449.74	366.63
450.11	364.38
450.48	361.85
450.85	359.33
451.22	357.23
451.59	355.20
451.96	353.30
452.33	350.65
452.70	348.29
453.07	345.47
453.43	342.56
453.80	339.76
454.17	337.03
454.54	334.51
454.91	331.78
455.28	329.07
455.65	326.55
456.02	324.12
456.38	321.94
456.75	319.30
457.12	317.07
457.49	314.82
457.86	312.63
458.23	310.78
458.59	308.69
458.96	306.59
459.33	304.75
459.70	302.86
460.07	301.38
460.43	299.66
460.80	298.04
461.17	296.60
461.54	295.08
461.91	293.66
462.27	292.19
462.64	290.93
463.01	289.57
463.38	288.24
463.74	286.83
464.11	285.70
464.48	284.68
464.85	283.56
465.21	282.70
465.58	281.78
465.95	280.70
466.32	279.73
466.68	278.81
467.05	277.89
467.42	276.99
467.78	276.07
468.15	275.19
468.52	274.48
468.88	273.64
469.25	272.90
469.62	272.29
469.98	271.59
470.35	270.95
470.72	270.39
471.08	269.73
471.45	269.23
471.82	268.65
472.18	268.01
472.55	267.58
472.92	267.03
473.28	266.56
473.65	266.10
474.02	265.65
474.38	265.27
474.75	264.90
475.11	264.52
475.48	264.23
475.85	264.00
476.21	263.80
476.58	263.55
476.94	263.40
477.31	263.19
477.67	263.06
478.04	262.95
478.41	262.92
478.77	262.99
479.14	262.84
479.50	262.85
479.87	262.94
480.23	262.98
480.60	263.05
480.96	263.14
481.33	263.32
481.69	263.52
482.06	263.69
482.42	263.94
482.79	264.21
483.15	264.54
483.52	264.90
483.88	265.20
484.25	265.65
484.61	266.05
484.98	266.51
485.34	267.06
485.71	267.62
486.07	268.17
486.44	268.70
486.80	269.42
487.17	270.20
487.53	271.01
487.90	271.85
488.26	272.78
488.62	273.77
488.99	274.79
489.35	275.85
489.72	276.97
490.08	278.16
490.44	279.42
490.81	280.74
491.17	282.09
491.54	283.58
491.90	285.10
492.26	286.72
492.63	288.44
492.99	290.21
493.36	292.13
493.72	294.19
494.08	296.29
494.45	298.54
494.81	300.90
495.17	303.30
495.54	305.87
495.90	308.55
496.26	311.33
496.63	314.25
496.99	317.33
497.35	320.55
497.72	323.98
498.08	327.43
498.44	331.09
498.80	335.01
499.17	339.04
499.53	343.24
499.89	347.62
500.26	352.11
500.62	356.82
500.98	361.77
501.34	366.79
501.71	372.10
502.07	377.55
502.43	383.12
502.79	388.96
503.16	395.03
503.52	401.31
503.88	407.75
504.24	414.40
504.60	421.31
504.97	428.46
505.33	435.79
505.69	443.52
506.05	451.25
506.41	459.10
506.78	467.27
507.14	475.64
507.50	484.36
507.86	493.36
508.22	502.48
508.59	511.64
508.95	521.31
509.31	531.15
509.67	541.30
510.03	551.60
510.39	562.14
510.75	572.92
511.12	583.86
511.48	595.14
511.84	606.56
512.20	618.08
512.56	630.05
512.92	642.10
513.28	654.48
513.64	667.03
514.00	679.73
514.37	692.70
514.73	705.79
515.09	718.79
515.45	732.15
515.81	745.83
516.17	759.83
516.53	773.94
516.89	788.11
517.25	802.25
517.61	816.79
517.97	831.26
518.33	845.73
518.69	860.51
519.05	875.62
519.41	890.88
519.77	906.50
520.13	921.94
520.49	937.44
520.85	952.82
521.21	968.55
521.57	984.86
521.93	1000.73
522.29	1017.15
522.65	1033.45
523.01	1049.70
523.37	1065.71
523.73	1081.93
524.09	1098.01
524.45	1114.47
524.81	1131.16
525.17	1148.08
525.53	1165.10
525.89	1182.02
526.25	1198.91
526.61	1215.31
526.97	1232.02
527.33	1248.52
527.68	1265.27
528.04	1281.80
528.40	1298.53
528.76	1315.62
529.12	1332.36
529.48	1349.19
529.84	1365.22
530.20	1381.98
530.56	1399.09
530.91	1416.49
531.27	1433.35
531.63	1449.87
531.99	1466.48
532.35	1482.58
532.71	1498.25
533.07	1514.43
533.42	1530.33
533.78	1546.40
534.14	1562.61
534.50	1578.08
534.86	1594.04
535.21	1609.20
535.57	1625.30
535.93	1640.88
536.29	1655.81
536.65	1670.93
537.00	1685.77
537.36	1701.17
537.72	1715.78
538.08	1730.17
538.44	1744.20
538.79	1758.29
539.15	1772.23
539.51	1786.03
539.87	1800.39
540.22	1814.21
540.58	1828.24
540.94	1841.74
541.29	1854.80
541.65	1867.64
542.01	1880.98
542.37	1893.32
542.72	1905.91
543.08	1917.65
543.44	1930.06
543.79	1941.28
544.15	1952.34
544.51	1963.99
544.87	1975.09
545.22	1985.89
545.58	1996.10
545.94	2005.71
546.29	2015.41
546.65	2025.09
547.01	2034.28
547.36	2043.03
547.72	2051.82
548.07	2059.60
548.43	2067.88
548.79	2075.87
549.14	2083.61
549.50	2090.91
549.86	2098.71
550.21	2105.92
550.57	2113.19
550.92	2119.89
551.28	2127.09
551.64	2133.99
551.99	2140.52
552.35	2146.52
552.70	2152.65
553.06	2158.69
553.41	2165.18
553.77	2171.28
554.13	2177.52
554.48	2183.72
554.84	2189.09
555.19	2194.20
555.55	2199.21
555.90	2203.54
556.26	2208.41
556.61	2212.96
556.97	2217.07
557.32	2221.17
557.68	2225.51
558.03	2229.69
558.39	2233.41
558.74	2237.95
559.10	2241.97
559.45	2245.66
559.81	2250.19
560.16	2253.98
560.52	2257.20
560.87	2260.73
561.23	2263.37
561.58	2266.20
561.94	2268.70
562.29	2271.26
562.64	2273.82
563.00	2276.57
563.35	2280.16
563.71	2283.27
564.06	2286.47
564.42	2289.48
564.77	2291.96
565.12	2294.04
565.48	2295.82
565.83	2297.57
566.19	2298.83
566.54	2299.77
566.89	2300.87
567.25	2301.36
567.60	2302.67
567.96	2304.25
568.31	2304.89
568.66	2305.90
569.02	2306.46
569.37	2306.65
569.72	2307.33
570.08	2307.52
570.43	2307.46
570.78	2306.79
571.14	2305.16
571.49	2303.72
571.84	2303.38
572.20	2301.96
572.55	2300.86
572.90	2299.37
573.26	2297.79
573.61	2295.92
573.96	2293.99
574.31	2290.91
574.67	2287.65
575.02	2284.05
575.37	2280.65
575.72	2276.77
576.08	2273.35
576.43	2269.99
576.78	2266.30
577.13	2263.08
577.49	2259.85
577.84	2256.29
578.19	2252.39
578.54	2248.60
578.90	2244.23
579.25	2238.53
579.60	2233.55
579.95	2228.37
580.30	2223.36
580.66	2218.25
581.01	2213.29
581.36	2208.32
581.71	2203.92
582.06	2199.44
582.42	2194.78
582.77	2189.44
583.12	2184.81
583.47	2180.02
583.82	2174.76
584.17	2169.39
584.53	2163.78
584.88	2157.98
585.23	2152.07
585.58	2146.60
585.93	2141.23
586.28	2136.44
586.63	2131.37
586.98	2126.25
587.34	2121.67
587.69	2116.62
588.04	2111.11
588.39	2105.33
588.74	2098.63
589.09	2092.39
589.44	2085.56
589.79	2079.49
590.14	2073.84
590.49	2067.05
590.84	2060.59
591.19	2054.53
591.54	2048.06
591.89	2040.55
592.25	2033.83
592.60	2026.59
592.95	2018.85
593.30	2011.34
593.65	2003.82
594.00	1996.62
594.35	1989.32
594.70	1981.11
595.05	1973.74
595.40	1966.49
595.75	1958.94
596.10	1952.61
596.45	1945.86
596.80	1939.67
597.15	1933.08
597.50	1925.91
597.85	1919.54
598.19	1912.87
598.54	1905.73
598.89	1899.06
599.24	1893.14
599.59	1886.30
599.94	1880.14
600.29	1873.77
600.64	1867.24
600.99	1859.55
601.34	1852.64
601.69	1845.71
602.04	1838.70
602.39	1831.41
602.74	1824.55
603.08	1817.92
603.43	1811.20
603.78	1803.96
604.13	1796.63
604.48	1789.19
604.83	1782.22
605.18	1775.09
605.53	1767.00
605.87	1758.96
606.22	1751.67
606.57	1743.57
606.92	1736.28
607.27	1728.91
607.62	1721.99
607.96	1714.64
608.31	1707.96
608.66	1700.22
609.01	1692.58
609.36	1685.06
609.70	1676.95
610.05	1668.84
610.40	1660.94
610.75	1652.64
611.10	1644.99
611.44	1636.72
611.79	1628.85
612.14	1620.11
612.49	1611.07
612.83	1602.67
613.18	1594.47
613.53	1586.45
613.88	1578.01
614.22	1569.77
614.57	1561.18
614.92	1553.08
615.27	1545.44
615.61	1537.22
615.96	1529.32
616.31	1521.64
616.65	1514.19
617.00	1506.72
617.35	1499.02
617.70	1490.73
618.04	1482.29
618.39	1473.97
618.74	1466.23
619.08	1457.78
619.43	1450.32
619.78	1443.35
620.12	1436.28
620.47	1428.86
620.82	1420.62
621.16	1413.30
621.51	1405.73
621.85	1398.14
622.20	1389.67
622.55	1381.39
622.89	1373.57
623.24	1365.88
623.59	1358.54
623.93	1351.06
624.28	1343.80
624.62	1336.30
624.97	1329.06
625.32	1322.39
625.66	1315.38
626.01	1308.24
626.35	1300.81
626.70	1293.13
627.04	1285.33
627.39	1277.52
627.73	1270.12
628.08	1263.16
628.43	1255.80
628.77	1248.41
629.12	1240.84
629.46	1233.64
629.81	1226.29
630.15	1219.03
630.50	1211.69
630.84	1203.53
631.19	1195.64
631.53	1188.13
631.88	1180.60
632.22	1173.03
632.57	1165.65
632.91	1158.14
633.26	1150.77
633.60	1143.49
633.95	1136.40
634.29	1129.47
634.64	1122.88
634.98	1115.48
635.32	1108.39
635.67	1101.78
636.01	1095.11
636.36	1088.35
636.70	1081.91
637.05	1075.34
637.39	1068.96
637.73	1062.48
638.08	1056.65
638.42	1050.76
638.77	1044.32
639.11	1037.76
639.45	1031.42
639.80	1024.71
640.14	1018.30
640.49	1011.70
640.83	1005.39
641.17	999.10
641.52	992.80
641.86	986.38
642.20	980.55
642.55	974.29
642.89	967.80
643.23	961.31
643.58	955.51
643.92	949.31
644.26	943.18
644.61	937.07
644.95	931.05
645.29	924.37
645.64	917.58
645.98	911.30
646.32	905.42
646.66	899.42
647.01	893.75
647.35	888.10
647.69	882.32
648.04	876.82
648.38	871.01
648.72	865.05
649.06	858.94
649.41	853.16
649.75	847.12
650.09	841.16
650.43	835.40
650.78	829.28
651.12	823.30
651.46	817.59
651.80	811.83
652.14	806.53
652.49	801.26
652.83	796.07
653.17	790.32
653.51	784.65
653.85	779.27
654.20	773.52
654.54	767.51
654.88	761.82
655.22	755.90
655.56	750.26
655.90	744.83
656.25	739.57
656.59	734.16
656.93	729.13
657.27	723.99
657.61	718.55
657.95	713.39
658.29	708.39
658.64	703.16
658.98	697.83
659.32	692.22
659.66	686.92
660.00	681.55
660.34	676.68
660.68	671.81
661.02	666.74
661.36	662.05
661.70	657.55
662.05	653.19
662.39	648.86
662.73	644.42
663.07	639.95
663.41	635.47
663.75	630.98
664.09	626.41
664.43	622.00
664.77	617.83
665.11	613.62
665.45	609.52
665.79	605.43
666.13	601.33
666.47	597.27
666.81	593.11
667.15	589.07
667.49	585.14
667.83	581.33
668.17	577.42
668.51	573.38
668.85	569.35
669.19	565.48
669.53	561.69
669.87	557.84
670.21	554.20
670.55	550.66
670.89	547.21
671.23	543.82
671.57	540.37
671.91	536.89
672.25	533.43
672.58	529.87
672.92	526.50
673.26	523.38
673.60	520.29
673.94	517.22
674.28	514.35
674.62	511.43
674.96	508.36
675.30	505.45
675.64	502.55
675.97	499.78
676.31	496.90
676.65	493.95
676.99	491.19
677.33	488.34
677.67	485.49
678.01	482.49
678.34	479.47
678.68	476.62
679.02	473.85
679.36	471.08
679.70	468.36
680.04	465.60
680.37	462.69
680.71	459.98
681.05	457.42
681.39	454.69
681.73	452.02
682.06	449.45
682.40	446.97
682.74	444.49
683.08	441.93
683.42	439.38
683.75	436.88
684.09	434.37
684.43	431.96
684.77	429.53
685.10	427.17
685.44	424.89
685.78	422.62
686.12	420.38
686.45	418.13
686.79	415.84
687.13	413.66
687.46	411.58
687.80	409.33
688.14	407.13
688.48	405.07
688.81	402.84
689.15	400.73
689.49	398.58
689.82	396.44
690.16	394.37
690.50	392.42
690.83	390.50
691.17	388.53
691.51	386.57
691.84	384.76
692.18	382.87
692.52	380.84
692.85	378.95
693.19	377.05
693.52	375.28
693.86	373.47
694.20	371.67
694.53	369.89
694.87	368.08
695.21	366.31
695.54	364.50
695.88	362.76
696.21	361.01
696.55	359.31
696.88	357.62
697.22	355.99
697.56	354.37
697.89	352.71
698.23	351.09
698.56	349.53
698.90	347.86
699.23	346.20
699.57	344.70
699.90	343.12
700.24	341.61
700.58	340.05
700.91	338.56
701.25	337.09
701.58	335.73
701.92	334.37
702.25	332.98
702.59	331.61
702.92	330.28
703.26	329.01
703.59	327.72
703.93	326.57
704.26	325.33
704.60	324.04
704.93	322.74
705.26	321.50
705.60	320.31
705.93	319.22
706.27	318.19
706.60	317.12
706.94	316.06
707.27	314.92
707.61	313.86
707.94	312.81
708.27	311.77
708.61	310.67
708.94	309.70
709.28	308.71
709.61	307.76
709.94	306.84
710.28	305.80
710.61	304.85
710.95	303.77
711.28	302.85
711.61	301.89
711.95	301.01
712.28	300.03
712.61	299.04
712.95	298.09
713.28	297.24
713.61	296.36
713.95	295.47
714.28	294.63
714.61	293.75
714.95	292.91
715.28	292.07
715.61	291.19
715.95	290.30
716.28	289.43
716.61	288.63
716.95	287.79
717.28	287.10
717.61	286.32
717.94	285.57
718.28	284.78
718.61	284.08
718.94	283.40
719.27	282.80
719.61	282.17
719.94	281.50
720.27	280.79
720.60	280.12
720.94	279.48
721.27	278.86
721.60	278.31
721.93	277.73
722.27	277.13
722.60	276.57
722.93	276.02
723.26	275.49
723.59	274.90
723.93	274.38
724.26	273.81
724.59	273.27
724.92	272.78
725.25	272.31
725.59	271.80
725.92	271.32
726.25	270.82
726.58	270.32
726.91	269.82
727.24	269.33
727.57	268.87
727.91	268.37
728.24	267.91
728.57	267.44
728.90	266.99
729.23	266.53
729.56	266.11
729.89	265.63
730.22	265.18
730.55	264.69
730.89	264.23
731.22	263.79
731.55	263.35
731.88	262.88
732.21	262.45
732.54	262.02
732.87	261.54
733.20	261.10
733.53	260.72
733.86	260.34
734.19	259.96
734.52	259.60
734.85	259.27
735.18	258.86
735.51	258.48
735.84	258.11
736.17	257.76
736.50	257.38
736.83	257.17
737.16	256.83
737.49	256.58
737.82	256.25
738.15	255.91
738.48	255.58
738.81	255.28
739.14	254.95
739.47	254.66
739.80	254.41
740.13	254.13
740.46	253.80
740.79	253.49
741.12	253.18
741.45	252.87
741.78	252.56
742.11	252.29
742.44	251.99
742.77	251.69
743.10	251.41
743.43	251.13
743.75	250.72
744.08	250.54
744.41	250.23
744.74	249.94
745.07	249.63
745.40	249.38
745.73	249.15
746.06	248.85
746.39	248.55
746.71	248.25
747.04	247.95
747.37	247.70
747.70	247.42
748.03	247.17
748.36	246.93
748.68	246.67
749.01	246.38
749.34	246.12
749.67	245.88
750.00	245.63
750.33	245.45
750.65	245.21
750.98	244.89
751.31	244.67
751.64	244.46
751.97	244.30
752.29	244.04
752.62	243.78
752.95	243.60
753.28	243.40
753.60	243.17
753.93	242.99
754.26	242.80
754.59	242.60
754.91	242.35
755.24	242.13
755.57	241.94
755.90	241.79
756.22	241.63
756.55	241.43
756.88	241.20
757.20	240.97
757.53	240.80
757.86	240.61
758.19	240.44
758.51	240.26
758.84	240.08
759.17	239.95
759.49	239.77
759.82	239.63
760.15	239.50
760.47	239.38
760.80	239.24
761.13	239.12
761.45	238.99
761.78	238.88
762.11	238.75
762.43	238.61
762.76	238.44
763.08	238.30
763.41	238.18
763.74	238.07
764.06	237.94
764.39	237.82
764.71	237.71
765.04	237.57
765.37	237.45
765.69	237.33
766.02	237.18
766.34	237.07
766.67	236.95
767.00	236.83
767.32	236.75
767.65	236.68
767.97	236.55
768.30	236.47
768.62	236.36
768.95	236.29
769.27	236.17
769.60	236.12
769.92	236.00
770.25	235.89
770.57	235.82
770.90	235.70
771.22	235.60
771.55	235.49
771.87	235.41
772.20	235.35
772.52	235.32
772.85	235.34
773.17	235.26
773.50	235.12
773.82	235.02
774.15	234.88
774.47	234.72
774.80	234.62
775.12	234.49
775.45	234.41
775.77	234.33
776.09	234.24
776.42	234.13
776.74	234.08
777.07	234.02
777.39	233.91
777.72	233.83
778.04	233.77
778.36	233.71
778.69	233.63
779.01	233.55
779.33	233.45
779.66	233.30
779.98	233.19
780.31	233.16
780.63	233.13
780.95	233.10
781.28	233.07
781.60	232.99
781.92	232.92
782.25	232.85
782.57	232.78
782.89	232.74
783.22	232.66
783.54	232.57
783.86	232.49
784.19	232.41
784.51	232.39
784.83	232.32
785.16	232.24
785.48	232.19
785.80	232.15
786.12	232.07
786.45	232.02
786.77	232.00
787.09	231.95
787.42	231.89
787.74	231.83
788.06	231.76
788.38	231.70
788.71	231.67
789.03	231.62
789.35	231.58
789.67	231.54
789.99	231.54
790.32	231.50
790.64	231.49
790.96	231.55
791.28	231.46
791.61	231.42
791.93	231.40
792.25	231.35
792.57	231.33
792.89	231.27
793.21	231.25
793.54	231.20
793.86	231.16
794.18	231.09
794.50	231.03
794.82	230.98
795.14	230.96
795.47	230.94
795.79	230.87
796.11	230.79
796.43	230.74
796.75	230.68
797.07	230.65
797.39	230.63
797.71	230.52
798.04	230.51
798.36	230.51
798.68	230.46
799.00	230.45
799.32	230.40
799.64	230.38
799.96	230.33
800.28	230.33
800.60	230.29
800.92	230.27
801.24	230.24
801.56	230.22
801.89	230.18
802.21	230.16
802.53	230.14
802.85	230.16
803.17	230.19
803.49	230.16
803.81	230.12
804.13	230.04
804.45	229.98
804.77	229.95
805.09	229.90
805.41	229.84
805.73	229.78
806.05	229.76
806.37	229.73
806.69	229.71
807.01	229.65
807.33	229.61
807.65	229.58
807.97	229.59
808.28	229.57
808.60	229.55
808.92	229.50
809.24	229.55
809.56	229.52
809.88	229.46
810.20	229.44
810.52	229.42
810.84	229.41
811.16	229.42
811.48	229.41
811.80	229.45
812.12	229.46
812.43	229.49
812.75	229.43
813.07	229.40
813.39	229.37
813.71	229.37
814.03	229.37
814.35	229.33
814.67	229.29
814.98	229.29
815.30	229.28
815.62	229.25
815.94	229.17
816.26	229.17
816.58	229.12
816.89	229.10
817.21	229.07
817.53	229.08
817.85	229.06
818.17	229.04
818.48	228.94
818.80	228.96
819.12	228.90
819.44	228.90
819.76	228.88
820.07	228.88
820.39	228.85
820.71	228.79
821.03	228.77
821.34	228.74
821.66	228.70
821.98	228.69
822.30	228.68
822.61	228.71
822.93	228.64
823.25	228.63
823.57	228.60
823.88	228.60
824.20	228.54
824.52	228.51
824.83	228.49
825.15	228.49
825.47	228.42
825.79	228.41
826.10	228.37
826.42	228.32
826.74	228.31
827.05	228.29
827.37	228.30
827.69	228.26
828.00	228.24
828.32	228.23
828.64	228.17
828.95	228.23
829.27	228.20
829.58	228.18
829.90	228.17
830.22	228.15
830.53	228.12
830.85	228.12
831.17	228.10
831.48	228.08
831.80	228.04
832.11	228.03
832.43	228.00
832.75	227.98
833.06	228.06
833.38	227.99
833.69	227.97
834.01	227.96
834.32	227.95
834.64	227.94
834.96	227.93
835.27	227.91
835.59	227.85
835.90	227.80
836.22	227.80
836.53	227.80
836.85	227.79
837.16	227.89
837.48	227.88
837.79	227.93
838.11	227.91
838.42	227.94
838.74	227.95
839.05	227.92
839.37	227.93
839.68	227.84
840.00	227.83
840.31	227.87
840.63	227.86
840.94	227.88
841.26	227.85
841.57	227.85
841.88	227.89
842.20	227.84
842.51	227.84
842.83	227.85
843.14	227.94
843.46	227.92
843.77	227.84
844.08	227.83
844.40	227.79
844.71	227.79
845.03	227.75
845.34	227.73
845.65	227.76
845.97	227.73
846.28	227.76
846.60	227.77
846.91	227.76
847.22	227.75
847.54	227.76
847.85	227.79
848.16	227.80
848.48	227.78
848.79	227.85
849.10	227.84
849.42	227.85
849.73	227.77
850.04	227.79
850.36	227.81
850.67	227.80
850.98	227.79
851.30	227.80
851.61	227.79
851.92	227.83
852.23	227.86
852.55	227.89
852.86	227.88
853.17	227.91
853.49	227.95
853.80	227.96
854.11	227.97
854.42	227.95
854.74	227.92
855.05	227.94
855.36	227.89
855.67	227.90
855.99	227.90
856.30	227.98
856.61	227.99
856.92	227.95
857.23	227.98
857.55	228.00
857.86	227.99
858.17	228.02
858.48	227.96
858.79	227.95
859.11	227.95
859.42	227.96
859.73	227.93
860.04	227.89
860.35	227.87
860.66	227.85
860.98	227.85
861.29	227.87
861.60	227.83
861.91	227.84
862.22	227.82
862.53	227.78
862.84	227.65
863.16	227.66
863.47	227.63
863.78	227.62
864.09	227.58
864.40	227.57
864.71	227.59
865.02	227.60
865.33	227.57
865.64	227.55
865.95	227.56
866.27	227.60
866.58	227.62
866.89	227.63
867.20	227.61
867.51	227.58
867.82	227.59
868.13	227.63
868.44	227.62
868.75	227.62
869.06	227.62
869.37	227.64
869.68	227.60
869.99	227.60
870.30	227.55
870.61	227.61
870.92	227.59
871.23	227.57
871.54	227.59
871.85	227.59
872.16	227.63
872.47	227.59
872.78	227.54
873.09	227.51
873.40	227.49
873.71	227.49
874.02	227.49
874.33	227.46
874.64	227.45
874.95	227.48
875.26	227.46
875.56	227.43
875.87	227.43
876.18	227.42
876.49	227.53
876.80	227.54
877.11	227.50
877.42	227.47
877.73	227.47
878.04	227.47
878.35	227.49
878.66	227.50
878.96	227.49
879.27	227.48
879.58	227.47
879.89	227.46
880.20	227.47
880.51	227.49
880.82	227.46
881.12	227.46
881.43	227.41
881.74	227.42
882.05	227.46
882.36	227.46
882.67	227.47
882.97	227.33
883.28	227.33
883.59	227.34
883.90	227.36
884.21	227.38
884.51	227.35
884.82	227.31
885.13	227.30
885.44	227.30
885.74	227.28
886.05	227.29
886.36	227.26
886.67	227.27
886.98	227.31
887.28	227.34
887.59	227.32
887.90	227.33
888.20	227.32
888.51	227.33
888.82	227.31
889.13	227.31
889.43	227.45
889.74	227.44
890.05	227.44
890.35	227.42
890.66	227.40
890.97	227.40
891.28	227.40
891.58	227.38
891.89	227.38
892.20	227.38
892.50	227.38
892.81	227.42
893.12	227.40
893.42	227.41
893.73	227.41
894.04	227.39
894.34	227.39
894.65	227.37
894.95	227.37
895.26	227.43
895.57	227.48
895.87	227.34
896.18	227.36
896.48	227.36
896.79	227.39
897.10	227.43
897.40	227.41
897.71	227.41
898.01	227.42
898.32	227.42
898.63	227.42
898.93	227.42
899.24	227.45
899.54	227.45
899.85	227.39
900.15	227.40
900.46	227.41
900.76	227.42
901.07	227.44
901.38	227.46
901.68	227.43
901.99	227.35
902.29	227.39
902.60	227.37
902.90	227.36
903.21	227.34
903.51	227.29
903.82	227.33
904.12	227.34
904.43	227.34
904.73	227.33
905.03	227.34
905.34	227.39
905.64	227.35
905.95	227.32
906.25	227.33
906.56	227.32
906.86	227.31
907.17	227.31
907.47	227.30
907.77	227.25
908.08	227.20
908.38	227.20
908.69	227.19
908.99	227.20
909.30	227.23
909.60	227.23
909.90	227.22
910.21	227.18
910.51	227.14
910.81	227.14
911.12	227.15
911.42	227.15
911.73	227.07
912.03	227.07
912.33	227.09
912.64	227.07
912.94	227.05
913.24	227.03
913.55	227.02
913.85	226.99
914.15	227.01
914.46	227.03
914.76	227.03
915.06	227.03
915.37	226.99
915.67	226.93
915.97	226.91
916.27	226.91
916.58	226.92
916.88	226.91
917.18	226.92
917.49	226.98
917.79	226.96
918.09	226.94
918.39	226.96
918.70	226.97
919.00	226.98
919.30	227.03
919.60	227.01
919.91	226.98
920.21	227.01
920.51	226.99
920.81	227.00
921.12	227.01
921.42	227.00
921.72	227.05
922.02	227.05
922.32	227.11
922.63	227.13
922.93	227.19
923.23	227.19
923.53	227.15
923.83	227.10
924.13	227.12
924.44	227.18
924.74	227.19
925.04	227.20
925.34	227.23
925.64	227.19
925.94	227.25
926.24	227.33
926.55	227.33
926.85	227.35
927.15	227.39
927.45	227.39
927.75	227.40
928.05	227.42
928.35	227.41
928.65	227.43
928.95	227.42
929.26	227.36
929.56	227.41
929.86	227.45
930.16	227.46
930.46	227.45
930.76	227.42
931.06	227.42
931.36	227.41
931.66	227.43
931.96	227.45
932.26	227.44
932.56	227.41
932.86	227.40
933.16	227.41
933.46	227.41
933.76	227.39
934.06	227.43
934.36	227.46
934.66	227.46
934.96	227.42
935.26	227.45
935.56	227.47
935.86	227.43
936.16	227.39
936.46	227.38
936.76	227.38
937.06	227.37
937.36	227.37
937.66	227.37
937.96	227.35
938.26	227.31
938.56	227.30
938.86	227.30
939.16	227.31
939.46	227.34
939.76	227.33
940.06	227.35
940.35	227.32
940.65	227.25
940.95	227.29
941.25	227.25
941.55	227.20
941.85	227.20
942.15	227.21
942.45	227.26
942.75	227.23
943.04	227.21
943.34	227.23
943.64	227.19
943.94	227.16
944.24	227.14
944.54	227.12
944.84	227.12
945.13	227.11
945.43	227.11
945.73	227.08
946.03	227.05
946.33	227.00
946.62	226.94
946.92	226.94
947.22	226.94
947.52	226.94
947.82	226.96
948.11	226.94
948.41	226.94
948.71	226.86
949.01	226.88
949.31	226.88
949.60	226.87
949.90	226.88
950.20	226.85
950.50	226.83
950.79	226.87
951.09	226.87
951.39	226.86
951.69	226.83
951.98	226.82
952.28	226.85
952.58	226.86
952.87	226.88
953.17	226.90
953.47	226.86
953.76	226.87
954.06	226.84
954.36	226.84
954.66	226.81
954.95	226.85
955.25	226.82
955.55	226.81
955.84	226.77
956.14	226.79
956.44	226.79
956.73	226.77
957.03	226.77
957.32	226.75
957.62	226.74
957.92	226.77
958.21	226.78
958.51	226.87
958.81	226.88
959.10	226.90
959.40	226.91
959.69	226.93
959.99	226.98
960.29	226.99
960.58	226.98
960.88	227.00
961.17	227.00
961.47	227.05
961.76	227.04
962.06	227.08
962.36	227.05
962.65	227.07
962.95	227.12
963.24	227.10
963.54	227.14
963.83	227.13
964.13	227.13
964.42	227.09
964.72	227.03
965.01	227.03
965.31	227.04
965.60	227.03
965.90	227.11
966.19	227.06
966.49	227.07
966.78	227.10
967.08	227.12
967.37	227.12
967.67	227.09
967.96	227.14
968.26	227.15
968.55	227.20
968.85	227.21
969.14	227.22
969.43	227.25
969.73	227.22
970.02	227.24
970.32	227.20
970.61	227.22
970.91	227.19
971.20	227.19
971.49	227.22
971.79	227.22
972.08	227.12
972.38	227.13
972.67	227.14
972.96	227.12
973.26	227.09
973.55	227.15
973.85	227.17
974.14	227.16
974.43	227.18
974.73	227.15
975.02	227.12
975.31	227.07
975.61	227.07
975.90	227.05
976.19	227.05
976.49	227.08
976.78	227.06
977.07	227.03
977.37	227.03
977.66	227.00
977.95	226.96
978.24	226.97
978.54	226.98
978.83	226.96
979.12	226.94
979.42	226.95
979.71	226.92
980.00	226.88
980.29	226.87
980.59	226.83
980.88	226.88
981.17	226.88
981.46	226.89
981.76	226.89
982.05	226.94
982.34	226.94
982.63	226.94
982.93	226.96
983.22	227.02
983.51	227.03
983.80	227.04
984.09	227.07
984.39	227.03
984.68	227.01
984.97	227.01
985.26	226.97
985.55	226.94
985.85	226.92
986.14	226.97
986.43	226.97
986.72	226.96
987.01	226.90
987.30	226.90
987.59	226.89
987.89	226.85
988.18	226.79
988.47	226.75
988.76	226.73
989.05	226.70
989.34	226.67
989.63	226.66
989.92	226.62
990.22	226.59
990.51	226.62
990.80	226.60
991.09	226.59
991.38	226.66
991.67	226.67
991.96	226.67
992.25	226.65
992.54	226.61
992.83	226.60
993.12	226.61
993.41	226.64
993.70	226.64
993.99	226.65
994.28	226.70
994.58	226.75
994.87	226.75
995.16	226.76
995.45	226.76
995.74	226.75
996.03	226.77
996.32	226.80
996.61	226.83
996.90	226.87
997.19	226.87
997.48	226.86
997.77	226.84
998.06	226.83
998.34	226.82
998.63	226.82
998.92	226.85
999.21	226.87
999.50	226.85
999.79	226.84
1000.08	226.85
1000.37	226.84
1000.66	226.82
1000.95	226.87
1001.24	226.91
1001.53	226.94
1001.82	226.94
1002.11	226.96
1002.40	226.96
1002.68	226.99
1002.97	227.06
1003.26	227.07
1003.55	227.09
1003.84	227.12
1004.13	227.18
1004.42	227.18
1004.71	227.22
1004.99	227.20
1005.28	227.23
1005.57	227.24
1005.86	227.26
1006.15	227.26
1006.44	227.27
1006.72	227.30
1007.01	227.28
1007.30	227.27
1007.59	227.23
1007.88	227.24
1008.17	227.22
1008.45	227.22
1008.74	227.17
1009.03	227.13
1009.32	227.13
1009.60	227.14
1009.89	227.12
1010.18	227.08
1010.47	227.07
1010.76	227.07
1011.04	227.07
1011.33	227.10
1011.62	227.08
1011.91	227.09
1012.19	227.13
1012.48	227.14
1012.77	227.11
1013.05	227.15
1013.34	227.14
1013.63	227.14
1013.92	227.13
1014.20	227.13
1014.49	227.15
1014.78	227.14
1015.06	227.08
1015.35	227.10
1015.64	227.10
1015.92	227.13
1016.21	227.12
1016.50	227.13
1016.78	227.14
1017.07	227.16
1017.36	227.12
1017.64	227.13
1017.93	227.14
1018.22	227.07
1018.50	227.07
1018.79	227.10
1019.08	227.02
1019.36	227.03
1019.65	227.00
1019.93	227.04
1020.22	227.06
1020.51	227.09
1020.79	227.08
1021.08	226.36
1021.36	227.42
1021.65	227.44
1021.94	226.64
1022.22	226.68
1022.51	226.52
1022.79	227.48
1023.08	227.14
1023.36	228.30
1023.65	226.59
>>>>>End Processed Spectral Data<<<<<
