SpectraSuite Data File
++++++++++++++++++++++++++++++++++++
Date: Fri Feb 01 15:57:39 EST 2013
User: group
Dark Spectrum Present: No
Reference Spectrum Present: No
Number of Sampled Component Spectra: 1
Spectrometers: USB2E7196
Integration Time (usec): 35000 (USB2E7196)
Spectra Averaged: 100 (USB2E7196)
Boxcar Smoothing: 10 (USB2E7196)
Correct for Electrical Dark: No (USB2E7196)
Strobe/Lamp Enabled: No (USB2E7196)
Correct for Detector Non-linearity: No (USB2E7196)
Correct for Stray Light: No (USB2E7196)
Number of Pixels in Processed Spectrum: 2048
>>>>>Begin Processed Spectral Data<<<<<
339.09	0.00
339.48	214.23
339.86	216.11
340.24	217.67
340.63	219.39
341.01	221.02
341.39	221.31
341.78	223.19
342.16	224.25
342.54	224.43
342.93	213.05
343.31	223.85
343.69	224.42
344.07	224.88
344.46	225.33
344.84	225.70
345.22	225.97
345.60	226.21
345.99	226.41
346.37	226.55
346.75	226.64
347.13	226.71
347.52	226.75
347.90	226.83
348.28	226.87
348.66	226.91
349.05	226.91
349.43	226.93
349.81	226.97
350.19	227.00
350.57	227.05
350.96	227.09
351.34	227.14
351.72	227.23
352.10	227.34
352.48	227.37
352.87	227.40
353.25	227.48
353.63	227.57
354.01	227.58
354.39	227.64
354.77	227.70
355.15	227.80
355.54	227.84
355.92	227.88
356.30	227.95
356.68	228.05
357.06	228.13
357.44	228.15
357.82	228.21
358.20	228.27
358.58	228.35
358.97	228.39
359.35	228.48
359.73	228.53
360.11	228.54
360.49	228.62
360.87	228.68
361.25	228.73
361.63	228.78
362.01	228.86
362.39	228.90
362.77	228.98
363.15	229.04
363.53	229.12
363.91	229.12
364.29	229.13
364.67	229.06
365.05	229.07
365.43	229.12
365.81	229.16
366.19	229.20
366.57	229.25
366.95	229.29
367.33	229.23
367.71	229.23
368.09	229.29
368.47	229.25
368.85	229.23
369.23	229.22
369.61	229.16
369.99	229.17
370.37	229.15
370.75	229.16
371.13	229.08
371.51	229.01
371.89	228.99
372.27	228.98
372.65	228.98
373.03	228.96
373.41	228.94
373.78	228.86
374.16	228.75
374.54	228.64
374.92	228.58
375.30	228.50
375.68	228.41
376.06	228.33
376.44	228.26
376.82	228.19
377.19	228.10
377.57	228.05
377.95	227.94
378.33	227.85
378.71	227.71
379.09	227.66
379.47	227.62
379.84	227.53
380.22	227.44
380.60	227.33
380.98	227.26
381.36	227.16
381.73	227.07
382.11	227.05
382.49	227.02
382.87	226.92
383.25	226.89
383.62	226.97
384.00	226.89
384.38	226.85
384.76	226.82
385.13	226.83
385.51	226.77
385.89	226.68
386.27	226.65
386.64	226.66
387.02	226.62
387.40	226.53
387.78	226.54
388.15	226.53
388.53	226.52
388.91	226.47
389.29	226.43
389.66	226.43
390.04	226.42
390.42	226.40
390.79	226.41
391.17	226.40
391.55	226.26
391.92	226.25
392.30	226.27
392.68	226.25
393.05	226.25
393.43	226.26
393.81	226.31
394.18	226.31
394.56	226.31
394.94	226.35
395.31	226.42
395.69	226.46
396.06	226.46
396.44	226.50
396.82	226.55
397.19	226.68
397.57	226.69
397.95	226.73
398.32	226.75
398.70	226.80
399.07	226.90
399.45	226.98
399.82	227.06
400.20	227.10
400.58	227.16
400.95	227.18
401.33	227.30
401.70	227.45
402.08	227.56
402.45	227.63
402.83	227.73
403.20	227.81
403.58	227.93
403.95	228.07
404.33	228.21
404.71	228.30
405.08	228.45
405.46	228.59
405.83	228.72
406.21	228.87
406.58	229.06
406.96	229.19
407.33	229.36
407.70	229.56
408.08	229.85
408.45	230.08
408.83	230.29
409.20	230.49
409.58	230.68
409.95	230.91
410.33	231.19
410.70	231.42
411.08	231.71
411.45	231.96
411.82	232.24
412.20	232.58
412.57	233.00
412.95	233.27
413.32	233.68
413.69	234.10
414.07	234.52
414.44	234.95
414.82	235.39
415.19	235.94
415.56	236.47
415.94	236.98
416.31	237.63
416.68	238.29
417.06	238.98
417.43	239.63
417.81	240.43
418.18	241.21
418.55	242.04
418.93	242.89
419.30	243.82
419.67	244.74
420.04	245.67
420.42	246.63
420.79	247.82
421.16	248.95
421.54	250.11
421.91	251.30
422.28	252.56
422.66	253.92
423.03	255.21
423.40	256.52
423.77	257.92
424.15	259.34
424.52	260.80
424.89	262.42
425.26	263.98
425.64	265.38
426.01	266.96
426.38	268.60
426.75	270.31
427.13	272.00
427.50	273.81
427.87	275.74
428.24	277.61
428.61	279.33
428.99	281.27
429.36	283.40
429.73	285.49
430.10	287.49
430.47	289.55
430.85	291.69
431.22	293.96
431.59	296.34
431.96	298.55
432.33	301.06
432.70	303.45
433.08	306.30
433.45	308.94
433.82	311.57
434.19	314.46
434.56	317.29
434.93	319.95
435.30	322.62
435.68	325.46
436.05	328.30
436.42	331.14
436.79	333.68
437.16	336.40
437.53	339.24
437.90	342.09
438.27	344.81
438.64	347.62
439.01	350.21
439.38	352.42
439.75	354.64
440.13	357.07
440.50	359.38
440.87	361.18
441.24	363.13
441.61	365.25
441.98	366.76
442.35	368.53
442.72	370.38
443.09	372.16
443.46	373.16
443.83	373.72
444.20	374.19
444.57	375.04
444.94	375.29
445.31	375.64
445.68	376.02
446.05	376.12
446.42	375.74
446.79	375.32
447.16	374.87
447.53	374.53
447.90	373.44
448.27	372.28
448.64	370.72
449.01	369.62
449.37	367.68
449.74	365.77
450.11	363.52
450.48	361.07
450.85	358.53
451.22	356.43
451.59	354.42
451.96	352.53
452.33	349.92
452.70	347.60
453.07	344.75
453.43	341.81
453.80	339.04
454.17	336.36
454.54	333.81
454.91	331.11
455.28	328.43
455.65	325.94
456.02	323.51
456.38	321.37
456.75	318.70
457.12	316.46
457.49	314.24
457.86	312.09
458.23	310.22
458.59	308.19
458.96	306.08
459.33	304.23
459.70	302.35
460.07	300.82
460.43	299.09
460.80	297.48
461.17	296.07
461.54	294.60
461.91	293.21
462.27	291.80
462.64	290.58
463.01	289.24
463.38	287.93
463.74	286.54
464.11	285.39
464.48	284.37
464.85	283.25
465.21	282.40
465.58	281.47
465.95	280.39
466.32	279.48
466.68	278.60
467.05	277.71
467.42	276.80
467.78	275.88
468.15	274.97
468.52	274.34
468.88	273.47
469.25	272.69
469.62	272.04
469.98	271.36
470.35	270.72
470.72	270.10
471.08	269.44
471.45	268.88
471.82	268.32
472.18	267.72
472.55	267.29
472.92	266.75
473.28	266.26
473.65	265.81
474.02	265.38
474.38	265.01
474.75	264.69
475.11	264.35
475.48	264.07
475.85	263.87
476.21	263.62
476.58	263.44
476.94	263.27
477.31	263.08
477.67	262.92
478.04	262.80
478.41	262.76
478.77	262.84
479.14	262.78
479.50	262.78
479.87	262.85
480.23	262.92
480.60	263.00
480.96	263.09
481.33	263.29
481.69	263.46
482.06	263.64
482.42	263.85
482.79	264.10
483.15	264.48
483.52	264.83
483.88	265.15
484.25	265.54
484.61	265.97
484.98	266.44
485.34	266.99
485.71	267.60
486.07	268.20
486.44	268.76
486.80	269.50
487.17	270.23
487.53	271.06
487.90	271.92
488.26	272.86
488.62	273.84
488.99	274.83
489.35	275.90
489.72	277.05
490.08	278.25
490.44	279.51
490.81	280.81
491.17	282.24
491.54	283.72
491.90	285.26
492.26	286.91
492.63	288.67
492.99	290.45
493.36	292.32
493.72	294.33
494.08	296.44
494.45	298.69
494.81	301.09
495.17	303.51
495.54	306.08
495.90	308.80
496.26	311.64
496.63	314.61
496.99	317.74
497.35	321.01
497.72	324.40
498.08	327.93
498.44	331.62
498.80	335.50
499.17	339.59
499.53	343.75
499.89	348.11
500.26	352.59
500.62	357.28
500.98	362.23
501.34	367.35
501.71	372.69
502.07	378.14
502.43	383.77
502.79	389.56
503.16	395.65
503.52	401.91
503.88	408.32
504.24	414.98
504.60	421.89
504.97	429.02
505.33	436.41
505.69	444.08
506.05	451.84
506.41	459.70
506.78	467.82
507.14	476.31
507.50	485.04
507.86	494.08
508.22	503.33
508.59	512.56
508.95	522.17
509.31	531.97
509.67	542.11
510.03	552.40
510.39	562.99
510.75	573.74
511.12	584.69
511.48	596.03
511.84	607.52
512.20	619.02
512.56	630.91
512.92	643.10
513.28	655.45
513.64	667.93
514.00	680.65
514.37	693.53
514.73	706.56
515.09	719.56
515.45	732.92
515.81	746.48
516.17	760.48
516.53	774.61
516.89	788.81
517.25	802.92
517.61	817.28
517.97	831.71
518.33	846.21
518.69	860.99
519.05	875.88
519.41	890.97
519.77	906.57
520.13	922.07
520.49	937.34
520.85	952.69
521.21	968.42
521.57	984.66
521.93	1000.35
522.29	1016.83
522.65	1033.09
523.01	1049.18
523.37	1065.05
523.73	1081.15
524.09	1097.15
524.45	1113.34
524.81	1129.86
525.17	1146.64
525.53	1163.49
525.89	1180.32
526.25	1197.12
526.61	1213.53
526.97	1230.25
527.33	1246.57
527.68	1263.12
528.04	1279.67
528.40	1296.29
528.76	1313.36
529.12	1329.95
529.48	1346.94
529.84	1362.83
530.20	1379.40
530.56	1396.48
530.91	1414.04
531.27	1430.80
531.63	1447.26
531.99	1463.82
532.35	1479.81
532.71	1495.61
533.07	1511.82
533.42	1527.63
533.78	1543.62
534.14	1559.93
534.50	1575.23
534.86	1591.05
535.21	1606.14
535.57	1622.02
535.93	1637.39
536.29	1652.08
536.65	1666.93
537.00	1681.60
537.36	1696.84
537.72	1711.39
538.08	1725.74
538.44	1739.40
538.79	1753.20
539.15	1766.86
539.51	1780.57
539.87	1794.84
540.22	1808.62
540.58	1822.42
540.94	1835.70
541.29	1848.55
541.65	1861.13
542.01	1874.28
542.37	1886.67
542.72	1898.98
543.08	1910.72
543.44	1923.12
543.79	1934.33
544.15	1945.45
544.51	1957.06
544.87	1967.97
545.22	1978.74
545.58	1989.00
545.94	1998.59
546.29	2008.51
546.65	2018.21
547.01	2027.53
547.36	2036.28
547.72	2044.74
548.07	2052.49
548.43	2060.67
548.79	2068.77
549.14	2076.20
549.50	2083.52
549.86	2091.10
550.21	2098.61
550.57	2105.81
550.92	2112.29
551.28	2119.27
551.64	2126.22
551.99	2132.65
552.35	2138.82
552.70	2144.87
553.06	2150.83
553.41	2157.40
553.77	2163.45
554.13	2169.68
554.48	2175.76
554.84	2181.22
555.19	2186.57
555.55	2191.80
555.90	2196.35
556.26	2201.12
556.61	2206.01
556.97	2210.34
557.32	2214.44
557.68	2218.50
558.03	2222.67
558.39	2226.56
558.74	2231.30
559.10	2235.31
559.45	2239.03
559.81	2243.41
560.16	2247.40
560.52	2250.60
560.87	2253.83
561.23	2256.50
561.58	2259.31
561.94	2261.85
562.29	2264.31
562.64	2266.96
563.00	2269.40
563.35	2272.89
563.71	2276.06
564.06	2279.25
564.42	2282.07
564.77	2284.52
565.12	2286.81
565.48	2288.71
565.83	2290.47
566.19	2291.83
566.54	2292.74
566.89	2293.86
567.25	2294.34
567.60	2295.43
567.96	2297.05
568.31	2298.02
568.66	2299.02
569.02	2299.70
569.37	2299.92
569.72	2300.66
570.08	2300.77
570.43	2301.06
570.78	2300.45
571.14	2298.80
571.49	2297.57
571.84	2297.30
572.20	2296.38
572.55	2295.31
572.90	2293.75
573.26	2292.48
573.61	2290.71
573.96	2288.87
574.31	2285.87
574.67	2283.00
575.02	2279.52
575.37	2276.04
575.72	2272.20
576.08	2268.89
576.43	2265.59
576.78	2261.93
577.13	2258.79
577.49	2255.73
577.84	2251.97
578.19	2248.06
578.54	2244.46
578.90	2239.94
579.25	2234.42
579.60	2229.39
579.95	2224.37
580.30	2219.40
580.66	2214.14
581.01	2209.25
581.36	2204.26
581.71	2200.02
582.06	2195.46
582.42	2190.96
582.77	2185.83
583.12	2181.34
583.47	2176.50
583.82	2171.38
584.17	2166.12
584.53	2160.68
584.88	2155.09
585.23	2149.47
585.58	2144.17
585.93	2138.81
586.28	2134.14
586.63	2129.07
586.98	2123.92
587.34	2119.22
587.69	2114.37
588.04	2109.04
588.39	2103.23
588.74	2096.95
589.09	2090.91
589.44	2084.11
589.79	2078.20
590.14	2072.70
590.49	2066.10
590.84	2059.92
591.19	2053.89
591.54	2047.46
591.89	2040.13
592.25	2033.19
592.60	2025.90
592.95	2018.34
593.30	2010.97
593.65	2003.41
594.00	1996.29
594.35	1989.15
594.70	1981.06
595.05	1973.83
595.40	1966.78
595.75	1959.26
596.10	1952.96
596.45	1946.22
596.80	1940.10
597.15	1933.39
597.50	1926.14
597.85	1919.67
598.19	1912.92
598.54	1905.81
598.89	1899.24
599.24	1893.24
599.59	1886.65
599.94	1880.65
600.29	1874.27
600.64	1867.69
600.99	1860.25
601.34	1853.42
601.69	1846.50
602.04	1839.71
602.39	1832.35
602.74	1825.42
603.08	1818.76
603.43	1811.92
603.78	1804.61
604.13	1797.47
604.48	1790.11
604.83	1783.38
605.18	1776.35
605.53	1768.39
605.87	1760.47
606.22	1753.22
606.57	1745.33
606.92	1738.07
607.27	1730.82
607.62	1724.03
607.96	1716.74
608.31	1710.14
608.66	1702.62
609.01	1694.89
609.36	1687.27
609.70	1679.33
610.05	1671.25
610.40	1663.53
610.75	1655.32
611.10	1647.56
611.44	1639.07
611.79	1631.12
612.14	1622.33
612.49	1613.35
612.83	1605.04
613.18	1596.97
613.53	1588.96
613.88	1580.36
614.22	1572.01
614.57	1563.37
614.92	1555.19
615.27	1547.61
615.61	1539.15
615.96	1531.04
616.31	1523.48
616.65	1516.14
617.00	1508.56
617.35	1500.89
617.70	1492.55
618.04	1484.19
618.39	1476.08
618.74	1468.55
619.08	1460.29
619.43	1452.75
619.78	1445.76
620.12	1438.57
620.47	1430.99
620.82	1422.87
621.16	1415.51
621.51	1407.92
621.85	1400.34
622.20	1391.94
622.55	1383.60
622.89	1375.96
623.24	1368.41
623.59	1360.96
623.93	1353.50
624.28	1346.22
624.62	1338.67
624.97	1331.46
625.32	1324.58
625.66	1317.54
626.01	1310.32
626.35	1302.87
626.70	1295.37
627.04	1287.62
627.39	1279.72
627.73	1272.39
628.08	1265.46
628.43	1258.05
628.77	1250.65
629.12	1243.05
629.46	1235.85
629.81	1228.45
630.15	1221.09
630.50	1213.65
630.84	1205.54
631.19	1197.56
631.53	1190.08
631.88	1182.57
632.22	1175.00
632.57	1167.62
632.91	1160.06
633.26	1152.58
633.60	1145.20
633.95	1137.93
634.29	1130.92
634.64	1124.36
634.98	1116.92
635.32	1109.68
635.67	1103.14
636.01	1096.55
636.36	1089.66
636.70	1083.04
637.05	1076.44
637.39	1069.92
637.73	1063.44
638.08	1057.55
638.42	1051.47
638.77	1045.03
639.11	1038.49
639.45	1032.15
639.80	1025.58
640.14	1019.20
640.49	1012.80
640.83	1006.56
641.17	1000.27
641.52	993.92
641.86	987.44
642.20	981.61
642.55	975.29
642.89	968.83
643.23	962.33
643.58	956.63
643.92	950.59
644.26	944.50
644.61	938.61
644.95	932.51
645.29	925.95
645.64	919.32
645.98	913.01
646.32	907.17
646.66	901.10
647.01	895.34
647.35	889.53
647.69	883.69
648.04	878.06
648.38	872.27
648.72	866.21
649.06	860.17
649.41	854.20
649.75	848.24
650.09	842.34
650.43	836.53
650.78	830.35
651.12	824.35
651.46	818.64
651.80	812.88
652.14	807.60
652.49	802.25
652.83	797.07
653.17	791.37
653.51	785.54
653.85	780.19
654.20	774.49
654.54	768.56
654.88	762.84
655.22	756.97
655.56	751.27
655.90	745.82
656.25	740.56
656.59	735.27
656.93	730.19
657.27	725.05
657.61	719.60
657.95	714.57
658.29	709.43
658.64	704.22
658.98	698.86
659.32	693.30
659.66	688.09
660.00	682.73
660.34	677.85
660.68	672.98
661.02	667.87
661.36	663.14
661.70	658.69
662.05	654.29
662.39	650.01
662.73	645.55
663.07	641.21
663.41	636.75
663.75	632.26
664.09	627.74
664.43	623.34
664.77	619.27
665.11	614.96
665.45	610.88
665.79	606.85
666.13	602.74
666.47	598.71
666.81	594.51
667.15	590.45
667.49	586.52
667.83	582.72
668.17	578.86
668.51	574.78
668.85	570.67
669.19	566.87
669.53	562.95
669.87	559.08
670.21	555.36
670.55	551.72
670.89	548.25
671.23	544.79
671.57	541.24
671.91	537.63
672.25	534.17
672.58	530.58
672.92	527.11
673.26	523.94
673.60	520.76
673.94	517.62
674.28	514.67
674.62	511.74
674.96	508.61
675.30	505.67
675.64	502.77
675.97	500.05
676.31	497.14
676.65	494.27
676.99	491.61
677.33	488.76
677.67	485.91
678.01	482.91
678.34	479.92
678.68	477.06
679.02	474.29
679.36	471.51
679.70	468.84
680.04	466.10
680.37	463.28
680.71	460.49
681.05	457.93
681.39	455.22
681.73	452.53
682.06	450.06
682.40	447.47
682.74	444.93
683.08	442.41
683.42	439.79
683.75	437.24
684.09	434.67
684.43	432.18
684.77	429.74
685.10	427.40
685.44	425.14
685.78	422.90
686.12	420.59
686.45	418.22
686.79	415.88
687.13	413.64
687.46	411.46
687.80	409.30
688.14	407.08
688.48	405.04
688.81	402.78
689.15	400.58
689.49	398.48
689.82	396.45
690.16	394.32
690.50	392.39
690.83	390.48
691.17	388.54
691.51	386.67
691.84	384.82
692.18	382.93
692.52	380.92
692.85	378.95
693.19	377.09
693.52	375.34
693.86	373.58
694.20	371.82
694.53	369.99
694.87	368.16
695.21	366.39
695.54	364.55
695.88	362.80
696.21	361.14
696.55	359.49
696.88	357.77
697.22	356.08
697.56	354.48
697.89	352.80
698.23	351.16
698.56	349.55
698.90	347.97
699.23	346.34
699.57	344.80
699.90	343.29
700.24	341.75
700.58	340.22
700.91	338.71
701.25	337.28
701.58	335.95
701.92	334.57
702.25	333.17
702.59	331.78
702.92	330.48
703.26	329.15
703.59	327.83
703.93	326.66
704.26	325.47
704.60	324.16
704.93	322.87
705.26	321.62
705.60	320.38
705.93	319.22
706.27	318.18
706.60	317.07
706.94	315.99
707.27	314.81
707.61	313.73
707.94	312.71
708.27	311.63
708.61	310.54
708.94	309.55
709.28	308.58
709.61	307.63
709.94	306.68
710.28	305.63
710.61	304.67
710.95	303.58
711.28	302.63
711.61	301.68
711.95	300.77
712.28	299.80
712.61	298.86
712.95	297.96
713.28	297.02
713.61	296.16
713.95	295.23
714.28	294.42
714.61	293.55
714.95	292.71
715.28	291.76
715.61	290.91
715.95	290.05
716.28	289.19
716.61	288.35
716.95	287.54
717.28	286.86
717.61	286.09
717.94	285.38
718.28	284.58
718.61	283.85
718.94	283.18
719.27	282.54
719.61	281.91
719.94	281.19
720.27	280.49
720.60	279.78
720.94	279.15
721.27	278.55
721.60	277.97
721.93	277.40
722.27	276.91
722.60	276.35
722.93	275.76
723.26	275.21
723.59	274.68
723.93	274.12
724.26	273.54
724.59	272.99
724.92	272.46
725.25	271.95
725.59	271.47
725.92	270.99
726.25	270.49
726.58	270.02
726.91	269.57
727.24	269.12
727.57	268.71
727.91	268.23
728.24	267.81
728.57	267.33
728.90	266.85
729.23	266.36
729.56	265.92
729.89	265.47
730.22	265.01
730.55	264.54
730.89	264.10
731.22	263.65
731.55	263.19
731.88	262.78
732.21	262.37
732.54	261.92
732.87	261.51
733.20	261.10
733.53	260.67
733.86	260.28
734.19	259.88
734.52	259.49
734.85	259.18
735.18	258.73
735.51	258.37
735.84	258.03
736.17	257.73
736.50	257.34
736.83	257.10
737.16	256.77
737.49	256.41
737.82	256.10
738.15	255.80
738.48	255.48
738.81	255.15
739.14	254.83
739.47	254.51
739.80	254.19
740.13	253.88
740.46	253.58
740.79	253.26
741.12	252.95
741.45	252.64
741.78	252.27
742.11	252.02
742.44	251.72
742.77	251.37
743.10	251.05
743.43	250.74
743.75	250.35
744.08	250.16
744.41	249.92
744.74	249.62
745.07	249.31
745.40	249.04
745.73	248.77
746.06	248.50
746.39	248.20
746.71	247.86
747.04	247.58
747.37	247.32
747.70	247.05
748.03	246.76
748.36	246.53
748.68	246.31
749.01	246.02
749.34	245.77
749.67	245.54
750.00	245.26
750.33	245.07
750.65	244.89
750.98	244.56
751.31	244.32
751.64	244.10
751.97	243.91
752.29	243.70
752.62	243.46
752.95	243.25
753.28	243.03
753.60	242.87
753.93	242.70
754.26	242.48
754.59	242.21
754.91	242.01
755.24	241.77
755.57	241.57
755.90	241.41
756.22	241.20
756.55	241.00
756.88	240.79
757.20	240.58
757.53	240.35
757.86	240.19
758.19	240.02
758.51	239.84
758.84	239.64
759.17	239.45
759.49	239.29
759.82	239.17
760.15	239.05
760.47	238.87
760.80	238.68
761.13	238.54
761.45	238.42
761.78	238.28
762.11	238.16
762.43	238.02
762.76	237.85
763.08	237.74
763.41	237.64
763.74	237.54
764.06	237.41
764.39	237.26
764.71	237.13
765.04	237.01
765.37	236.89
765.69	236.78
766.02	236.67
766.34	236.55
766.67	236.42
767.00	236.32
767.32	236.27
767.65	236.25
767.97	236.17
768.30	236.06
768.62	235.94
768.95	235.81
769.27	235.72
769.60	235.64
769.92	235.53
770.25	235.40
770.57	235.29
770.90	235.18
771.22	235.14
771.55	235.06
771.87	235.00
772.20	234.90
772.52	234.92
772.85	234.98
773.17	234.90
773.50	234.79
773.82	234.67
774.15	234.56
774.47	234.41
774.80	234.35
775.12	234.28
775.45	234.23
775.77	234.16
776.09	234.08
776.42	234.00
776.74	233.93
777.07	233.86
777.39	233.81
777.72	233.74
778.04	233.65
778.36	233.56
778.69	233.47
779.01	233.44
779.33	233.23
779.66	233.04
779.98	232.99
780.31	232.93
780.63	232.94
780.95	232.89
781.28	232.82
781.60	232.73
781.92	232.66
782.25	232.58
782.57	232.55
782.89	232.47
783.22	232.43
783.54	232.37
783.86	232.30
784.19	232.24
784.51	232.18
784.83	232.14
785.16	232.10
785.48	232.03
785.80	231.96
786.12	231.94
786.45	231.88
786.77	231.80
787.09	231.74
787.42	231.64
787.74	231.59
788.06	231.56
788.38	231.50
788.71	231.45
789.03	231.41
789.35	231.36
789.67	231.32
789.99	231.28
790.32	231.20
790.64	231.17
790.96	231.19
791.28	231.14
791.61	231.10
791.93	231.05
792.25	231.00
792.57	231.01
792.89	230.95
793.21	230.89
793.54	230.87
793.86	230.80
794.18	230.75
794.50	230.69
794.82	230.64
795.14	230.61
795.47	230.58
795.79	230.57
796.11	230.51
796.43	230.47
796.75	230.42
797.07	230.40
797.39	230.39
797.71	230.27
798.04	230.26
798.36	230.19
798.68	230.14
799.00	230.14
799.32	230.08
799.64	230.06
799.96	230.03
800.28	229.99
800.60	229.97
800.92	229.92
801.24	229.85
801.56	229.85
801.89	229.82
802.21	229.79
802.53	229.74
802.85	229.72
803.17	229.74
803.49	229.70
803.81	229.68
804.13	229.61
804.45	229.59
804.77	229.57
805.09	229.55
805.41	229.50
805.73	229.46
806.05	229.39
806.37	229.36
806.69	229.36
807.01	229.34
807.33	229.33
807.65	229.32
807.97	229.36
808.28	229.31
808.60	229.29
808.92	229.27
809.24	229.31
809.56	229.27
809.88	229.23
810.20	229.20
810.52	229.22
810.84	229.20
811.16	229.16
811.48	229.14
811.80	229.16
812.12	229.17
812.43	229.16
812.75	229.16
813.07	229.15
813.39	229.11
813.71	229.10
814.03	229.05
814.35	229.05
814.67	228.99
814.98	228.97
815.30	228.94
815.62	228.92
815.94	228.82
816.26	228.83
816.58	228.78
816.89	228.78
817.21	228.71
817.53	228.71
817.85	228.69
818.17	228.64
818.48	228.56
818.80	228.56
819.12	228.51
819.44	228.48
819.76	228.44
820.07	228.46
820.39	228.40
820.71	228.41
821.03	228.37
821.34	228.37
821.66	228.37
821.98	228.37
822.30	228.32
822.61	228.36
822.93	228.32
823.25	228.32
823.57	228.28
823.88	228.29
824.20	228.23
824.52	228.24
824.83	228.22
825.15	228.18
825.47	228.18
825.79	228.20
826.10	228.18
826.42	228.18
826.74	228.14
827.05	228.14
827.37	228.11
827.69	228.09
828.00	228.09
828.32	228.07
828.64	228.06
828.95	228.11
829.27	228.09
829.58	228.06
829.90	228.06
830.22	228.04
830.53	228.00
830.85	227.98
831.17	227.91
831.48	227.90
831.80	227.88
832.11	227.84
832.43	227.78
832.75	227.76
833.06	227.76
833.38	227.71
833.69	227.71
834.01	227.71
834.32	227.68
834.64	227.62
834.96	227.59
835.27	227.57
835.59	227.56
835.90	227.49
836.22	227.47
836.53	227.44
836.85	227.44
837.16	227.52
837.48	227.53
837.79	227.57
838.11	227.58
838.42	227.57
838.74	227.57
839.05	227.57
839.37	227.54
839.68	227.48
840.00	227.50
840.31	227.49
840.63	227.44
840.94	227.42
841.26	227.42
841.57	227.39
841.88	227.39
842.20	227.33
842.51	227.34
842.83	227.32
843.14	227.41
843.46	227.41
843.77	227.36
844.08	227.37
844.40	227.37
844.71	227.37
845.03	227.39
845.34	227.37
845.65	227.36
845.97	227.33
846.28	227.34
846.60	227.34
846.91	227.32
847.22	227.33
847.54	227.36
847.85	227.38
848.16	227.37
848.48	227.35
848.79	227.40
849.10	227.40
849.42	227.42
849.73	227.35
850.04	227.31
850.36	227.27
850.67	227.24
850.98	227.24
851.30	227.23
851.61	227.22
851.92	227.20
852.23	227.26
852.55	227.31
852.86	227.32
853.17	227.32
853.49	227.32
853.80	227.36
854.11	227.36
854.42	227.36
854.74	227.37
855.05	227.39
855.36	227.32
855.67	227.31
855.99	227.31
856.30	227.39
856.61	227.39
856.92	227.44
857.23	227.42
857.55	227.40
857.86	227.39
858.17	227.40
858.48	227.42
858.79	227.36
859.11	227.34
859.42	227.32
859.73	227.30
860.04	227.30
860.35	227.26
860.66	227.25
860.98	227.25
861.29	227.23
861.60	227.25
861.91	227.27
862.22	227.28
862.53	227.27
862.84	227.14
863.16	227.16
863.47	227.13
863.78	227.11
864.09	227.11
864.40	227.11
864.71	227.11
865.02	227.09
865.33	227.07
865.64	227.04
865.95	227.07
866.27	227.14
866.58	227.13
866.89	227.13
867.20	227.10
867.51	227.11
867.82	227.12
868.13	227.12
868.44	227.12
868.75	227.11
869.06	227.11
869.37	227.11
869.68	227.09
869.99	227.08
870.30	227.12
870.61	227.11
870.92	227.09
871.23	227.10
871.54	227.09
871.85	227.15
872.16	227.16
872.47	227.12
872.78	227.05
873.09	227.06
873.40	227.03
873.71	227.03
874.02	227.01
874.33	227.02
874.64	226.98
874.95	226.98
875.26	226.97
875.56	226.96
875.87	226.97
876.18	226.95
876.49	227.04
876.80	227.03
877.11	227.03
877.42	227.03
877.73	226.98
878.04	226.99
878.35	226.99
878.66	227.00
878.96	227.00
879.27	227.02
879.58	227.03
879.89	227.03
880.20	227.06
880.51	227.04
880.82	227.05
881.12	227.05
881.43	227.01
881.74	227.01
882.05	227.03
882.36	227.04
882.67	227.08
882.97	226.95
883.28	226.95
883.59	226.96
883.90	226.96
884.21	227.01
884.51	227.03
884.82	227.01
885.13	227.01
885.44	227.00
885.74	227.03
886.05	227.02
886.36	227.05
886.67	227.02
886.98	227.10
887.28	227.09
887.59	227.10
887.90	227.11
888.20	227.09
888.51	227.07
888.82	227.04
889.13	227.07
889.43	227.18
889.74	227.19
890.05	227.18
890.35	227.20
890.66	227.16
890.97	227.14
891.28	227.13
891.58	227.10
891.89	227.12
892.20	227.08
892.50	227.07
892.81	227.06
893.12	227.09
893.42	227.05
893.73	227.08
894.04	227.11
894.34	227.13
894.65	227.15
894.95	227.16
895.26	227.16
895.57	227.17
895.87	227.10
896.18	227.13
896.48	227.11
896.79	227.10
897.10	227.14
897.40	227.12
897.71	227.12
898.01	227.13
898.32	227.13
898.63	227.12
898.93	227.14
899.24	227.13
899.54	227.11
899.85	227.06
900.15	227.00
900.46	226.95
900.76	226.99
901.07	227.01
901.38	227.01
901.68	227.04
901.99	227.01
902.29	226.97
902.60	226.98
902.90	226.97
903.21	226.96
903.51	226.96
903.82	227.00
904.12	227.02
904.43	227.04
904.73	227.07
905.03	227.08
905.34	227.15
905.64	227.15
905.95	227.15
906.25	227.19
906.56	227.20
906.86	227.21
907.17	227.17
907.47	227.13
907.77	227.13
908.08	227.10
908.38	227.09
908.69	227.10
908.99	227.08
909.30	227.08
909.60	227.08
909.90	227.07
910.21	227.03
910.51	226.99
910.81	226.97
911.12	226.96
911.42	226.93
911.73	226.82
912.03	226.81
912.33	226.84
912.64	226.83
912.94	226.84
913.24	226.82
913.55	226.82
913.85	226.82
914.15	226.82
914.46	226.83
914.76	226.82
915.06	226.83
915.37	226.81
915.67	226.80
915.97	226.78
916.27	226.75
916.58	226.75
916.88	226.75
917.18	226.78
917.49	226.84
917.79	226.84
918.09	226.87
918.39	226.89
918.70	226.90
919.00	226.89
919.30	226.95
919.60	226.92
919.91	226.91
920.21	226.91
920.51	226.88
920.81	226.88
921.12	226.91
921.42	226.91
921.72	226.92
922.02	226.94
922.32	226.97
922.63	226.99
922.93	227.03
923.23	227.04
923.53	227.00
923.83	226.94
924.13	226.99
924.44	226.94
924.74	226.96
925.04	226.93
925.34	226.96
925.64	226.89
925.94	226.93
926.24	226.98
926.55	227.02
926.85	227.04
927.15	227.06
927.45	227.04
927.75	227.03
928.05	227.04
928.35	227.06
928.65	227.10
928.95	227.06
929.26	227.07
929.56	227.10
929.86	227.10
930.16	227.07
930.46	227.05
930.76	227.08
931.06	227.07
931.36	227.05
931.66	227.07
931.96	227.12
932.26	227.09
932.56	227.04
932.86	227.03
933.16	227.03
933.46	227.00
933.76	227.02
934.06	227.05
934.36	227.09
934.66	227.07
934.96	227.03
935.26	227.08
935.56	227.05
935.86	227.02
936.16	227.02
936.46	227.01
936.76	226.98
937.06	226.98
937.36	226.94
937.66	226.96
937.96	226.97
938.26	226.93
938.56	226.95
938.86	226.95
939.16	226.95
939.46	226.96
939.76	226.98
940.06	226.94
940.35	226.91
940.65	226.85
940.95	226.85
941.25	226.84
941.55	226.81
941.85	226.80
942.15	226.82
942.45	226.83
942.75	226.86
943.04	226.90
943.34	226.90
943.64	226.88
943.94	226.84
944.24	226.81
944.54	226.80
944.84	226.79
945.13	226.76
945.43	226.75
945.73	226.72
946.03	226.66
946.33	226.66
946.62	226.65
946.92	226.63
947.22	226.57
947.52	226.59
947.82	226.59
948.11	226.58
948.41	226.55
948.71	226.51
949.01	226.49
949.31	226.44
949.60	226.42
949.90	226.46
950.20	226.48
950.50	226.46
950.79	226.44
951.09	226.44
951.39	226.42
951.69	226.39
951.98	226.42
952.28	226.44
952.58	226.44
952.87	226.41
953.17	226.41
953.47	226.45
953.76	226.43
954.06	226.43
954.36	226.39
954.66	226.39
954.95	226.42
955.25	226.43
955.55	226.44
955.84	226.42
956.14	226.43
956.44	226.43
956.73	226.42
957.03	226.40
957.32	226.42
957.62	226.43
957.92	226.42
958.21	226.39
958.51	226.52
958.81	226.52
959.10	226.53
959.40	226.57
959.69	226.57
959.99	226.57
960.29	226.57
960.58	226.61
960.88	226.64
961.17	226.63
961.47	226.65
961.76	226.63
962.06	226.66
962.36	226.69
962.65	226.69
962.95	226.71
963.24	226.72
963.54	226.75
963.83	226.77
964.13	226.78
964.42	226.78
964.72	226.69
965.01	226.69
965.31	226.69
965.60	226.69
965.90	226.73
966.19	226.73
966.49	226.75
966.78	226.74
967.08	226.77
967.37	226.80
967.67	226.78
967.96	226.82
968.26	226.85
968.55	226.82
968.85	226.81
969.14	226.80
969.43	226.80
969.73	226.81
970.02	226.84
970.32	226.85
970.61	226.85
970.91	226.84
971.20	226.85
971.49	226.86
971.79	226.84
972.08	226.80
972.38	226.84
972.67	226.83
972.96	226.85
973.26	226.80
973.55	226.82
973.85	226.81
974.14	226.79
974.43	226.77
974.73	226.77
975.02	226.77
975.31	226.78
975.61	226.80
975.90	226.75
976.19	226.76
976.49	226.77
976.78	226.78
977.07	226.78
977.37	226.80
977.66	226.82
977.95	226.81
978.24	226.82
978.54	226.83
978.83	226.81
979.12	226.80
979.42	226.82
979.71	226.77
980.00	226.80
980.29	226.80
980.59	226.81
980.88	226.81
981.17	226.77
981.46	226.75
981.76	226.72
982.05	226.73
982.34	226.74
982.63	226.73
982.93	226.72
983.22	226.75
983.51	226.76
983.80	226.73
984.09	226.74
984.39	226.73
984.68	226.71
984.97	226.72
985.26	226.71
985.55	226.71
985.85	226.71
986.14	226.70
986.43	226.74
986.72	226.69
987.01	226.68
987.30	226.71
987.59	226.70
987.89	226.72
988.18	226.71
988.47	226.68
988.76	226.65
989.05	226.66
989.34	226.61
989.63	226.59
989.92	226.58
990.22	226.57
990.51	226.54
990.80	226.56
991.09	226.57
991.38	226.58
991.67	226.58
991.96	226.59
992.25	226.58
992.54	226.53
992.83	226.60
993.12	226.62
993.41	226.62
993.70	226.67
993.99	226.70
994.28	226.70
994.58	226.70
994.87	226.69
995.16	226.70
995.45	226.74
995.74	226.72
996.03	226.77
996.32	226.79
996.61	226.85
996.90	226.82
997.19	226.81
997.48	226.84
997.77	226.81
998.06	226.81
998.34	226.81
998.63	226.82
998.92	226.81
999.21	226.83
999.50	226.85
999.79	226.82
1000.08	226.78
1000.37	226.82
1000.66	226.80
1000.95	226.86
1001.24	226.88
1001.53	226.87
1001.82	226.88
1002.11	226.85
1002.40	226.87
1002.68	226.88
1002.97	226.96
1003.26	226.98
1003.55	226.94
1003.84	226.94
1004.13	226.97
1004.42	226.95
1004.71	226.94
1004.99	226.92
1005.28	226.93
1005.57	226.93
1005.86	226.91
1006.15	226.93
1006.44	226.93
1006.72	226.97
1007.01	226.94
1007.30	226.91
1007.59	226.94
1007.88	226.92
1008.17	226.92
1008.45	226.91
1008.74	226.87
1009.03	226.84
1009.32	226.82
1009.60	226.85
1009.89	226.86
1010.18	226.83
1010.47	226.87
1010.76	226.88
1011.04	226.85
1011.33	226.94
1011.62	226.94
1011.91	226.99
1012.19	226.99
1012.48	226.99
1012.77	226.97
1013.05	227.03
1013.34	227.02
1013.63	227.02
1013.92	227.04
1014.20	227.03
1014.49	227.04
1014.78	227.04
1015.06	226.98
1015.35	226.97
1015.64	226.97
1015.92	226.97
1016.21	226.98
1016.50	226.98
1016.78	226.98
1017.07	226.97
1017.36	226.84
1017.64	226.78
1017.93	226.77
1018.22	226.77
1018.50	226.76
1018.79	226.77
1019.08	226.71
1019.36	226.73
1019.65	226.71
1019.93	226.72
1020.22	226.73
1020.51	226.74
1020.79	226.71
1021.08	226.81
1021.36	227.02
1021.65	226.82
1021.94	226.65
1022.22	227.11
1022.51	226.77
1022.79	227.03
1023.08	226.91
1023.36	227.44
1023.65	225.96
>>>>>End Processed Spectral Data<<<<<
