SpectraSuite Data File
++++++++++++++++++++++++++++++++++++
Date: Fri Feb 01 16:14:10 EST 2013
User: group
Dark Spectrum Present: No
Reference Spectrum Present: No
Number of Sampled Component Spectra: 1
Spectrometers: USB2E7196
Integration Time (usec): 35000 (USB2E7196)
Spectra Averaged: 100 (USB2E7196)
Boxcar Smoothing: 10 (USB2E7196)
Correct for Electrical Dark: No (USB2E7196)
Strobe/Lamp Enabled: No (USB2E7196)
Correct for Detector Non-linearity: No (USB2E7196)
Correct for Stray Light: No (USB2E7196)
Number of Pixels in Processed Spectrum: 2048
>>>>>Begin Processed Spectral Data<<<<<
339.09	0.00
339.48	214.71
339.86	215.45
340.24	217.59
340.63	218.83
341.01	222.31
341.39	220.97
341.78	223.35
342.16	224.01
342.54	224.42
342.93	212.94
343.31	223.69
343.69	224.22
344.07	224.74
344.46	225.12
344.84	225.50
345.22	225.71
345.60	225.97
345.99	226.14
346.37	226.28
346.75	226.38
347.13	226.46
347.52	226.48
347.90	226.53
348.28	226.56
348.66	226.58
349.05	226.57
349.43	226.59
349.81	226.63
350.19	226.65
350.57	226.71
350.96	226.74
351.34	226.82
351.72	226.90
352.10	226.97
352.48	227.05
352.87	227.11
353.25	227.17
353.63	227.22
354.01	227.27
354.39	227.31
354.77	227.38
355.15	227.45
355.54	227.49
355.92	227.52
356.30	227.64
356.68	227.78
357.06	227.88
357.44	227.96
357.82	228.02
358.20	228.11
358.58	228.14
358.97	228.20
359.35	228.26
359.73	228.31
360.11	228.33
360.49	228.37
360.87	228.36
361.25	228.40
361.63	228.46
362.01	228.50
362.39	228.54
362.77	228.60
363.15	228.62
363.53	228.65
363.91	228.69
364.29	228.67
364.67	228.58
365.05	228.57
365.43	228.58
365.81	228.59
366.19	228.61
366.57	228.66
366.95	228.63
367.33	228.61
367.71	228.61
368.09	228.65
368.47	228.67
368.85	228.68
369.23	228.66
369.61	228.61
369.99	228.59
370.37	228.54
370.75	228.51
371.13	228.45
371.51	228.40
371.89	228.35
372.27	228.32
372.65	228.27
373.03	228.20
373.41	228.14
373.78	228.07
374.16	227.97
374.54	227.87
374.92	227.82
375.30	227.76
375.68	227.65
376.06	227.58
376.44	227.48
376.82	227.41
377.19	227.36
377.57	227.26
377.95	227.18
378.33	227.13
378.71	226.99
379.09	226.96
379.47	226.91
379.84	226.84
380.22	226.74
380.60	226.66
380.98	226.62
381.36	226.54
381.73	226.46
382.11	226.41
382.49	226.38
382.87	226.29
383.25	226.24
383.62	226.30
384.00	226.22
384.38	226.19
384.76	226.14
385.13	226.13
385.51	226.10
385.89	226.05
386.27	226.00
386.64	225.98
387.02	225.91
387.40	225.88
387.78	225.85
388.15	225.83
388.53	225.82
388.91	225.78
389.29	225.76
389.66	225.78
390.04	225.77
390.42	225.76
390.79	225.74
391.17	225.69
391.55	225.59
391.92	225.58
392.30	225.56
392.68	225.54
393.05	225.55
393.43	225.56
393.81	225.56
394.18	225.57
394.56	225.61
394.94	225.64
395.31	225.63
395.69	225.71
396.06	225.79
396.44	225.82
396.82	225.84
397.19	225.92
397.57	225.93
397.95	225.96
398.32	226.00
398.70	226.09
399.07	226.20
399.45	226.23
399.82	226.27
400.20	226.37
400.58	226.42
400.95	226.41
401.33	226.52
401.70	226.68
402.08	226.76
402.45	226.83
402.83	226.96
403.20	227.09
403.58	227.15
403.95	227.26
404.33	227.38
404.71	227.53
405.08	227.70
405.46	227.83
405.83	227.98
406.21	228.11
406.58	228.27
406.96	228.40
407.33	228.58
407.70	228.79
408.08	229.06
408.45	229.32
408.83	229.59
409.20	229.77
409.58	229.99
409.95	230.26
410.33	230.57
410.70	230.81
411.08	231.10
411.45	231.36
411.82	231.64
412.20	232.01
412.57	232.40
412.95	232.68
413.32	233.08
413.69	233.53
414.07	233.95
414.44	234.41
414.82	234.91
415.19	235.47
415.56	236.04
415.94	236.55
416.31	237.14
416.68	237.77
417.06	238.53
417.43	239.18
417.81	239.92
418.18	240.69
418.55	241.51
418.93	242.38
419.30	243.33
419.67	244.25
420.04	245.21
420.42	246.18
420.79	247.37
421.16	248.53
421.54	249.70
421.91	250.96
422.28	252.21
422.66	253.52
423.03	254.84
423.40	256.13
423.77	257.56
424.15	258.99
424.52	260.44
424.89	262.02
425.26	263.56
425.64	265.04
426.01	266.61
426.38	268.27
426.75	269.96
427.13	271.66
427.50	273.45
427.87	275.33
428.24	277.19
428.61	278.95
428.99	280.90
429.36	282.97
429.73	285.00
430.10	286.99
430.47	289.06
430.85	291.15
431.22	293.39
431.59	295.76
431.96	298.06
432.33	300.55
432.70	302.91
433.08	305.73
433.45	308.37
433.82	310.99
434.19	313.85
434.56	316.59
434.93	319.27
435.30	321.88
435.68	324.74
436.05	327.54
436.42	330.29
436.79	332.80
437.16	335.51
437.53	338.31
437.90	341.15
438.27	343.85
438.64	346.70
439.01	349.32
439.38	351.55
439.75	353.68
440.13	356.17
440.50	358.50
440.87	360.36
441.24	362.30
441.61	364.43
441.98	365.96
442.35	367.80
442.72	369.65
443.09	371.51
443.46	372.49
443.83	373.14
444.20	373.68
444.57	374.49
444.94	374.78
445.31	375.10
445.68	375.45
446.05	375.53
446.42	375.12
446.79	374.67
447.16	374.20
447.53	373.87
447.90	372.69
448.27	371.53
448.64	369.95
449.01	368.76
449.37	366.77
449.74	364.86
450.11	362.62
450.48	360.11
450.85	357.58
451.22	355.47
451.59	353.45
451.96	351.51
452.33	348.94
452.70	346.58
453.07	343.80
453.43	340.91
453.80	338.17
454.17	335.52
454.54	333.00
454.91	330.31
455.28	327.65
455.65	325.21
456.02	322.76
456.38	320.57
456.75	317.94
457.12	315.71
457.49	313.50
457.86	311.34
458.23	309.50
458.59	307.42
458.96	305.31
459.33	303.46
459.70	301.62
460.07	300.08
460.43	298.38
460.80	296.76
461.17	295.29
461.54	293.83
461.91	292.44
462.27	291.00
462.64	289.74
463.01	288.37
463.38	287.03
463.74	285.67
464.11	284.53
464.48	283.48
464.85	282.39
465.21	281.52
465.58	280.59
465.95	279.53
466.32	278.65
466.68	277.74
467.05	276.82
467.42	275.90
467.78	275.00
468.15	274.12
468.52	273.43
468.88	272.61
469.25	271.82
469.62	271.21
469.98	270.51
470.35	269.90
470.72	269.37
471.08	268.79
471.45	268.25
471.82	267.69
472.18	267.10
472.55	266.65
472.92	266.12
473.28	265.64
473.65	265.19
474.02	264.74
474.38	264.38
474.75	264.06
475.11	263.72
475.48	263.45
475.85	263.23
476.21	263.01
476.58	262.82
476.94	262.65
477.31	262.45
477.67	262.30
478.04	262.22
478.41	262.15
478.77	262.16
479.14	262.10
479.50	262.17
479.87	262.25
480.23	262.38
480.60	262.48
480.96	262.64
481.33	262.85
481.69	263.05
482.06	263.27
482.42	263.51
482.79	263.78
483.15	264.12
483.52	264.53
483.88	264.86
484.25	265.29
484.61	265.76
484.98	266.23
485.34	266.83
485.71	267.43
486.07	268.02
486.44	268.62
486.80	269.32
487.17	270.05
487.53	270.90
487.90	271.74
488.26	272.70
488.62	273.66
488.99	274.67
489.35	275.72
489.72	276.86
490.08	278.07
490.44	279.31
490.81	280.66
491.17	282.03
491.54	283.53
491.90	285.06
492.26	286.72
492.63	288.49
492.99	290.26
493.36	292.14
493.72	294.20
494.08	296.30
494.45	298.58
494.81	300.94
495.17	303.38
495.54	305.97
495.90	308.64
496.26	311.46
496.63	314.36
496.99	317.48
497.35	320.73
497.72	324.15
498.08	327.70
498.44	331.40
498.80	335.32
499.17	339.38
499.53	343.52
499.89	347.89
500.26	352.39
500.62	357.09
500.98	362.04
501.34	367.10
501.71	372.43
502.07	377.93
502.43	383.54
502.79	389.33
503.16	395.38
503.52	401.66
503.88	408.03
504.24	414.72
504.60	421.65
504.97	428.79
505.33	436.12
505.69	443.80
506.05	451.52
506.41	459.43
506.78	467.58
507.14	476.06
507.50	484.80
507.86	493.76
508.22	502.90
508.59	512.13
508.95	521.66
509.31	531.47
509.67	541.54
510.03	551.83
510.39	562.44
510.75	573.14
511.12	584.03
511.48	595.33
511.84	606.75
512.20	618.20
512.56	630.09
512.92	642.21
513.28	654.59
513.64	667.04
514.00	679.67
514.37	692.60
514.73	705.70
515.09	718.71
515.45	732.10
515.81	745.64
516.17	759.56
516.53	773.68
516.89	787.87
517.25	802.04
517.61	816.42
517.97	830.74
518.33	845.20
518.69	859.95
519.05	874.94
519.41	890.07
519.77	905.66
520.13	921.14
520.49	936.51
520.85	951.84
521.21	967.52
521.57	983.80
521.93	999.53
522.29	1015.80
522.65	1031.99
523.01	1048.07
523.37	1064.16
523.73	1080.28
524.09	1096.40
524.45	1112.62
524.81	1129.19
525.17	1145.90
525.53	1162.86
525.89	1179.70
526.25	1196.61
526.61	1212.98
526.97	1229.72
527.33	1246.19
527.68	1262.61
528.04	1279.10
528.40	1295.50
528.76	1312.44
529.12	1328.86
529.48	1345.66
529.84	1361.64
530.20	1378.28
530.56	1395.17
530.91	1412.42
531.27	1429.23
531.63	1445.64
531.99	1462.20
532.35	1478.14
532.71	1493.99
533.07	1510.15
533.42	1526.00
533.78	1541.97
534.14	1558.15
534.50	1573.31
534.86	1588.93
535.21	1604.18
535.57	1619.88
535.93	1635.39
536.29	1650.24
536.65	1665.33
537.00	1680.04
537.36	1695.28
537.72	1709.60
538.08	1724.05
538.44	1737.84
538.79	1751.59
539.15	1765.07
539.51	1778.64
539.87	1792.87
540.22	1806.49
540.58	1819.97
540.94	1833.06
541.29	1845.78
541.65	1858.42
542.01	1871.68
542.37	1884.08
542.72	1896.44
543.08	1908.30
543.44	1920.51
543.79	1931.69
544.15	1942.50
544.51	1954.06
544.87	1964.92
545.22	1975.79
545.58	1985.91
545.94	1995.73
546.29	2005.56
546.65	2015.47
547.01	2024.81
547.36	2033.54
547.72	2042.07
548.07	2050.12
548.43	2058.43
548.79	2066.39
549.14	2073.86
549.50	2081.11
549.86	2088.67
550.21	2095.91
550.57	2102.99
550.92	2109.64
551.28	2116.64
551.64	2123.89
551.99	2130.30
552.35	2136.51
552.70	2142.65
553.06	2148.64
553.41	2154.86
553.77	2160.72
554.13	2166.71
554.48	2172.74
554.84	2178.13
555.19	2183.30
555.55	2188.31
555.90	2192.78
556.26	2197.80
556.61	2202.54
556.97	2206.84
557.32	2210.87
557.68	2214.99
558.03	2219.21
558.39	2222.90
558.74	2227.50
559.10	2231.21
559.45	2234.96
559.81	2239.12
560.16	2242.90
560.52	2246.13
560.87	2249.55
561.23	2252.29
561.58	2255.13
561.94	2257.71
562.29	2260.04
562.64	2262.98
563.00	2265.73
563.35	2269.21
563.71	2272.21
564.06	2275.33
564.42	2278.30
564.77	2280.95
565.12	2283.26
565.48	2285.34
565.83	2287.35
566.19	2288.64
566.54	2289.36
566.89	2290.51
567.25	2291.29
567.60	2292.62
567.96	2294.37
568.31	2295.09
568.66	2296.17
569.02	2296.92
569.37	2297.28
569.72	2298.27
570.08	2298.32
570.43	2298.26
570.78	2297.76
571.14	2296.24
571.49	2294.93
571.84	2294.55
572.20	2293.45
572.55	2292.34
572.90	2290.55
573.26	2289.15
573.61	2287.37
573.96	2285.92
574.31	2282.95
574.67	2279.89
575.02	2276.22
575.37	2272.70
575.72	2269.07
576.08	2265.83
576.43	2262.50
576.78	2258.75
577.13	2255.47
577.49	2252.33
577.84	2248.98
578.19	2245.17
578.54	2241.64
578.90	2237.55
579.25	2232.11
579.60	2227.19
579.95	2222.26
580.30	2217.41
580.66	2212.19
581.01	2207.32
581.36	2202.36
581.71	2198.18
582.06	2193.88
582.42	2189.54
582.77	2184.52
583.12	2179.93
583.47	2175.38
583.82	2170.43
584.17	2165.21
584.53	2159.87
584.88	2154.24
585.23	2148.40
585.58	2142.89
585.93	2137.35
586.28	2132.48
586.63	2127.44
586.98	2122.37
587.34	2117.84
587.69	2113.12
588.04	2108.10
588.39	2102.57
588.74	2096.08
589.09	2089.90
589.44	2083.14
589.79	2076.85
590.14	2071.07
590.49	2064.49
590.84	2057.88
591.19	2051.83
591.54	2045.58
591.89	2038.26
592.25	2031.70
592.60	2024.67
592.95	2017.30
593.30	2010.13
593.65	2002.47
594.00	1995.31
594.35	1988.10
594.70	1979.90
595.05	1972.71
595.40	1965.44
595.75	1957.84
596.10	1951.77
596.45	1945.32
596.80	1939.17
597.15	1932.89
597.50	1926.09
597.85	1919.80
598.19	1913.44
598.54	1906.56
598.89	1899.85
599.24	1893.99
599.59	1887.31
599.94	1881.06
600.29	1874.66
600.64	1867.89
600.99	1860.73
601.34	1853.91
601.69	1847.02
602.04	1840.25
602.39	1832.89
602.74	1826.09
603.08	1819.50
603.43	1812.77
603.78	1805.39
604.13	1798.20
604.48	1790.92
604.83	1783.92
605.18	1777.05
605.53	1769.00
605.87	1760.87
606.22	1753.53
606.57	1745.47
606.92	1738.02
607.27	1730.91
607.62	1724.09
607.96	1717.09
608.31	1710.60
608.66	1703.20
609.01	1695.74
609.36	1688.24
609.70	1680.22
610.05	1672.22
610.40	1664.64
610.75	1656.32
611.10	1648.66
611.44	1640.19
611.79	1632.01
612.14	1623.37
612.49	1614.10
612.83	1605.65
613.18	1597.52
613.53	1589.51
613.88	1580.96
614.22	1572.73
614.57	1564.01
614.92	1556.02
615.27	1548.51
615.61	1540.08
615.96	1531.93
616.31	1524.18
616.65	1516.82
617.00	1509.33
617.35	1501.45
617.70	1493.10
618.04	1484.58
618.39	1476.30
618.74	1468.75
619.08	1460.63
619.43	1453.08
619.78	1446.10
620.12	1439.01
620.47	1431.50
620.82	1423.31
621.16	1415.88
621.51	1408.20
621.85	1400.60
622.20	1392.01
622.55	1383.59
622.89	1375.71
623.24	1368.04
623.59	1360.64
623.93	1353.02
624.28	1345.79
624.62	1338.33
624.97	1331.16
625.32	1324.36
625.66	1317.30
626.01	1310.09
626.35	1302.67
626.70	1294.89
627.04	1287.29
627.39	1279.45
627.73	1272.17
628.08	1265.27
628.43	1258.10
628.77	1250.94
629.12	1243.43
629.46	1236.27
629.81	1228.68
630.15	1221.43
630.50	1214.12
630.84	1205.87
631.19	1197.94
631.53	1190.37
631.88	1182.68
632.22	1175.06
632.57	1167.80
632.91	1160.21
633.26	1152.85
633.60	1145.41
633.95	1138.24
634.29	1131.21
634.64	1124.59
634.98	1117.13
635.32	1110.03
635.67	1103.42
636.01	1096.64
636.36	1089.86
636.70	1083.30
637.05	1076.79
637.39	1070.39
637.73	1063.89
638.08	1058.03
638.42	1052.04
638.77	1045.53
639.11	1039.17
639.45	1032.74
639.80	1026.07
640.14	1019.76
640.49	1013.20
640.83	1006.95
641.17	1000.87
641.52	994.49
641.86	987.96
642.20	982.17
642.55	975.78
642.89	969.30
643.23	962.65
643.58	956.88
643.92	950.76
644.26	944.74
644.61	938.64
644.95	932.66
645.29	926.17
645.64	919.49
645.98	913.21
646.32	907.30
646.66	901.32
647.01	895.45
647.35	889.76
647.69	883.88
648.04	878.29
648.38	872.46
648.72	866.48
649.06	860.48
649.41	854.45
649.75	848.55
650.09	842.54
650.43	836.83
650.78	830.62
651.12	824.69
651.46	818.97
651.80	813.25
652.14	807.85
652.49	802.44
652.83	797.30
653.17	791.62
653.51	785.89
653.85	780.38
654.20	774.86
654.54	768.84
654.88	763.09
655.22	757.13
655.56	751.34
655.90	745.79
656.25	740.52
656.59	735.21
656.93	730.04
657.27	724.95
657.61	719.49
657.95	714.46
658.29	709.33
658.64	703.99
658.98	698.57
659.32	693.05
659.66	687.79
660.00	682.45
660.34	677.50
660.68	672.54
661.02	667.52
661.36	662.70
661.70	658.13
662.05	653.81
662.39	649.55
662.73	645.16
663.07	640.94
663.41	636.46
663.75	632.02
664.09	627.50
664.43	623.06
664.77	619.02
665.11	614.69
665.45	610.56
665.79	606.53
666.13	602.43
666.47	598.32
666.81	594.18
667.15	590.01
667.49	586.03
667.83	582.15
668.17	578.21
668.51	574.20
668.85	570.22
669.19	566.34
669.53	562.53
669.87	558.64
670.21	554.86
670.55	551.24
670.89	547.78
671.23	544.36
671.57	540.88
671.91	537.33
672.25	533.85
672.58	530.36
672.92	526.99
673.26	523.84
673.60	520.72
673.94	517.61
674.28	514.75
674.62	511.84
674.96	508.78
675.30	505.91
675.64	502.98
675.97	500.24
676.31	497.35
676.65	494.43
676.99	491.72
677.33	488.80
677.67	485.98
678.01	482.98
678.34	480.07
678.68	477.21
679.02	474.41
679.36	471.63
679.70	468.86
680.04	466.09
680.37	463.23
680.71	460.41
681.05	457.79
681.39	455.07
681.73	452.41
682.06	449.95
682.40	447.35
682.74	444.80
683.08	442.22
683.42	439.64
683.75	437.13
684.09	434.55
684.43	432.14
684.77	429.68
685.10	427.33
685.44	424.92
685.78	422.63
686.12	420.34
686.45	418.06
686.79	415.80
687.13	413.58
687.46	411.44
687.80	409.29
688.14	407.08
688.48	405.04
688.81	402.82
689.15	400.64
689.49	398.54
689.82	396.48
690.16	394.40
690.50	392.44
690.83	390.51
691.17	388.52
691.51	386.60
691.84	384.72
692.18	382.76
692.52	380.85
692.85	378.88
693.19	377.03
693.52	375.20
693.86	373.34
694.20	371.54
694.53	369.76
694.87	367.90
695.21	366.09
695.54	364.25
695.88	362.52
696.21	360.77
696.55	359.08
696.88	357.40
697.22	355.73
697.56	354.14
697.89	352.47
698.23	350.87
698.56	349.27
698.90	347.69
699.23	346.03
699.57	344.44
699.90	342.89
700.24	341.34
700.58	339.78
700.91	338.31
701.25	336.86
701.58	335.44
701.92	334.06
702.25	332.71
702.59	331.32
702.92	329.99
703.26	328.69
703.59	327.45
703.93	326.27
704.26	325.05
704.60	323.69
704.93	322.40
705.26	321.14
705.60	319.95
705.93	318.79
706.27	317.82
706.60	316.79
706.94	315.72
707.27	314.57
707.61	313.52
707.94	312.51
708.27	311.44
708.61	310.37
708.94	309.35
709.28	308.38
709.61	307.40
709.94	306.46
710.28	305.40
710.61	304.37
710.95	303.25
711.28	302.32
711.61	301.38
711.95	300.46
712.28	299.52
712.61	298.55
712.95	297.60
713.28	296.68
713.61	295.71
713.95	294.79
714.28	293.94
714.61	293.10
714.95	292.25
715.28	291.35
715.61	290.48
715.95	289.65
716.28	288.73
716.61	287.87
716.95	287.01
717.28	286.28
717.61	285.53
717.94	284.82
718.28	284.00
718.61	283.26
718.94	282.55
719.27	281.92
719.61	281.26
719.94	280.61
720.27	279.87
720.60	279.21
720.94	278.61
721.27	278.04
721.60	277.42
721.93	276.78
722.27	276.25
722.60	275.70
722.93	275.12
723.26	274.59
723.59	274.08
723.93	273.54
724.26	272.94
724.59	272.38
724.92	271.82
725.25	271.33
725.59	270.86
725.92	270.33
726.25	269.81
726.58	269.32
726.91	268.83
727.24	268.37
727.57	267.90
727.91	267.38
728.24	266.89
728.57	266.42
728.90	266.00
729.23	265.50
729.56	265.07
729.89	264.61
730.22	264.18
730.55	263.72
730.89	263.28
731.22	262.88
731.55	262.44
731.88	262.05
732.21	261.63
732.54	261.16
732.87	260.77
733.20	260.36
733.53	259.95
733.86	259.56
734.19	259.19
734.52	258.84
734.85	258.56
735.18	258.18
735.51	257.85
735.84	257.50
736.17	257.18
736.50	256.79
736.83	256.58
737.16	256.25
737.49	255.91
737.82	255.59
738.15	255.27
738.48	254.96
738.81	254.61
739.14	254.30
739.47	254.01
739.80	253.74
740.13	253.44
740.46	253.11
740.79	252.78
741.12	252.45
741.45	252.14
741.78	251.79
742.11	251.49
742.44	251.14
742.77	250.85
743.10	250.52
743.43	250.19
743.75	249.82
744.08	249.65
744.41	249.35
744.74	249.04
745.07	248.78
745.40	248.52
745.73	248.32
746.06	248.03
746.39	247.77
746.71	247.48
747.04	247.20
747.37	246.94
747.70	246.74
748.03	246.51
748.36	246.28
748.68	245.99
749.01	245.74
749.34	245.52
749.67	245.23
750.00	245.01
750.33	244.88
750.65	244.61
750.98	244.27
751.31	244.08
751.64	243.90
751.97	243.72
752.29	243.48
752.62	243.19
752.95	242.96
753.28	242.74
753.60	242.54
753.93	242.38
754.26	242.18
754.59	241.93
754.91	241.71
755.24	241.51
755.57	241.32
755.90	241.12
756.22	240.88
756.55	240.71
756.88	240.50
757.20	240.24
757.53	240.08
757.86	239.88
758.19	239.72
758.51	239.49
758.84	239.28
759.17	239.11
759.49	238.95
759.82	238.81
760.15	238.62
760.47	238.45
760.80	238.27
761.13	238.16
761.45	238.01
761.78	237.84
762.11	237.67
762.43	237.51
762.76	237.39
763.08	237.29
763.41	237.18
763.74	237.02
764.06	236.88
764.39	236.73
764.71	236.60
765.04	236.44
765.37	236.35
765.69	236.19
766.02	236.06
766.34	235.92
766.67	235.79
767.00	235.70
767.32	235.61
767.65	235.54
767.97	235.43
768.30	235.35
768.62	235.25
768.95	235.13
769.27	235.05
769.60	234.94
769.92	234.80
770.25	234.65
770.57	234.56
770.90	234.48
771.22	234.36
771.55	234.28
771.87	234.18
772.20	234.11
772.52	234.11
772.85	234.12
773.17	234.04
773.50	233.94
773.82	233.85
774.15	233.73
774.47	233.58
774.80	233.45
775.12	233.34
775.45	233.28
775.77	233.25
776.09	233.17
776.42	233.11
776.74	233.07
777.07	233.00
777.39	232.92
777.72	232.82
778.04	232.82
778.36	232.74
778.69	232.71
779.01	232.64
779.33	232.49
779.66	232.34
779.98	232.26
780.31	232.20
780.63	232.20
780.95	232.16
781.28	232.11
781.60	232.05
781.92	231.99
782.25	231.90
782.57	231.84
782.89	231.78
783.22	231.71
783.54	231.65
783.86	231.61
784.19	231.59
784.51	231.57
784.83	231.50
785.16	231.45
785.48	231.37
785.80	231.33
786.12	231.33
786.45	231.26
786.77	231.25
787.09	231.18
787.42	231.07
787.74	231.05
788.06	231.00
788.38	230.93
788.71	230.89
789.03	230.90
789.35	230.84
789.67	230.77
789.99	230.74
790.32	230.69
790.64	230.67
790.96	230.66
791.28	230.59
791.61	230.54
791.93	230.48
792.25	230.43
792.57	230.43
792.89	230.33
793.21	230.30
793.54	230.23
793.86	230.18
794.18	230.14
794.50	230.06
794.82	230.02
795.14	230.02
795.47	229.96
795.79	229.91
796.11	229.85
796.43	229.83
796.75	229.81
797.07	229.76
797.39	229.72
797.71	229.64
798.04	229.60
798.36	229.56
798.68	229.52
799.00	229.49
799.32	229.42
799.64	229.42
799.96	229.35
800.28	229.37
800.60	229.35
800.92	229.35
801.24	229.33
801.56	229.31
801.89	229.27
802.21	229.28
802.53	229.25
802.85	229.24
803.17	229.24
803.49	229.15
803.81	229.12
804.13	229.05
804.45	229.00
804.77	228.99
805.09	228.97
805.41	228.95
805.73	228.94
806.05	228.91
806.37	228.87
806.69	228.87
807.01	228.86
807.33	228.85
807.65	228.77
807.97	228.79
808.28	228.73
808.60	228.70
808.92	228.68
809.24	228.69
809.56	228.68
809.88	228.62
810.20	228.65
810.52	228.65
810.84	228.63
811.16	228.61
811.48	228.58
811.80	228.58
812.12	228.55
812.43	228.50
812.75	228.47
813.07	228.45
813.39	228.43
813.71	228.38
814.03	228.35
814.35	228.34
814.67	228.28
814.98	228.30
815.30	228.28
815.62	228.22
815.94	228.15
816.26	228.13
816.58	228.12
816.89	228.12
817.21	228.11
817.53	228.11
817.85	228.12
818.17	228.11
818.48	228.10
818.80	228.12
819.12	228.14
819.44	228.13
819.76	228.12
820.07	228.11
820.39	228.08
820.71	228.05
821.03	228.04
821.34	227.99
821.66	227.99
821.98	228.00
822.30	227.97
822.61	228.05
822.93	228.02
823.25	227.97
823.57	227.92
823.88	227.91
824.20	227.88
824.52	227.89
824.83	227.90
825.15	227.84
825.47	227.85
825.79	227.83
826.10	227.78
826.42	227.76
826.74	227.74
827.05	227.70
827.37	227.70
827.69	227.66
828.00	227.66
828.32	227.63
828.64	227.61
828.95	227.65
829.27	227.57
829.58	227.58
829.90	227.58
830.22	227.58
830.53	227.50
830.85	227.49
831.17	227.43
831.48	227.40
831.80	227.39
832.11	227.32
832.43	227.26
832.75	227.25
833.06	227.29
833.38	227.26
833.69	227.27
834.01	227.30
834.32	227.30
834.64	227.28
834.96	227.26
835.27	227.21
835.59	227.17
835.90	227.15
836.22	227.12
836.53	227.10
836.85	227.07
837.16	227.18
837.48	227.18
837.79	227.20
838.11	227.18
838.42	227.18
838.74	227.19
839.05	227.18
839.37	227.20
839.68	227.13
840.00	227.15
840.31	227.16
840.63	227.10
840.94	227.10
841.26	227.11
841.57	227.10
841.88	227.13
842.20	227.11
842.51	227.11
842.83	227.08
843.14	227.17
843.46	227.16
843.77	227.07
844.08	227.04
844.40	227.02
844.71	227.00
845.03	226.97
845.34	226.95
845.65	227.02
845.97	227.01
846.28	227.02
846.60	226.99
846.91	227.01
847.22	227.02
847.54	227.05
847.85	227.07
848.16	227.10
848.48	227.11
848.79	227.15
849.10	227.13
849.42	227.16
849.73	227.09
850.04	227.09
850.36	227.08
850.67	227.09
850.98	227.10
851.30	227.11
851.61	227.15
851.92	227.16
852.23	227.17
852.55	227.19
852.86	227.20
853.17	227.21
853.49	227.18
853.80	227.21
854.11	227.20
854.42	227.22
854.74	227.20
855.05	227.20
855.36	227.17
855.67	227.20
855.99	227.17
856.30	227.30
856.61	227.31
856.92	227.35
857.23	227.37
857.55	227.34
857.86	227.36
858.17	227.34
858.48	227.30
858.79	227.27
859.11	227.26
859.42	227.23
859.73	227.24
860.04	227.28
860.35	227.22
860.66	227.17
860.98	227.15
861.29	227.14
861.60	227.14
861.91	227.14
862.22	227.12
862.53	227.14
862.84	226.98
863.16	227.04
863.47	226.99
863.78	226.97
864.09	227.00
864.40	226.98
864.71	226.98
865.02	227.03
865.33	227.00
865.64	226.97
865.95	226.99
866.27	227.04
866.58	226.98
866.89	227.02
867.20	227.04
867.51	227.00
867.82	227.01
868.13	227.01
868.44	226.99
868.75	227.01
869.06	227.01
869.37	227.04
869.68	226.96
869.99	226.96
870.30	226.99
870.61	226.98
870.92	226.94
871.23	226.95
871.54	226.94
871.85	226.94
872.16	226.97
872.47	226.91
872.78	226.83
873.09	226.84
873.40	226.79
873.71	226.79
874.02	226.81
874.33	226.76
874.64	226.73
874.95	226.71
875.26	226.70
875.56	226.68
875.87	226.65
876.18	226.67
876.49	226.74
876.80	226.71
877.11	226.70
877.42	226.70
877.73	226.70
878.04	226.66
878.35	226.67
878.66	226.63
878.96	226.65
879.27	226.65
879.58	226.65
879.89	226.64
880.20	226.65
880.51	226.63
880.82	226.64
881.12	226.62
881.43	226.60
881.74	226.56
882.05	226.55
882.36	226.55
882.67	226.51
882.97	226.41
883.28	226.38
883.59	226.38
883.90	226.42
884.21	226.43
884.51	226.45
884.82	226.43
885.13	226.45
885.44	226.46
885.74	226.45
886.05	226.45
886.36	226.46
886.67	226.45
886.98	226.50
887.28	226.51
887.59	226.54
887.90	226.56
888.20	226.57
888.51	226.59
888.82	226.60
889.13	226.61
889.43	226.71
889.74	226.74
890.05	226.72
890.35	226.67
890.66	226.68
890.97	226.67
891.28	226.66
891.58	226.66
891.89	226.66
892.20	226.66
892.50	226.66
892.81	226.69
893.12	226.66
893.42	226.62
893.73	226.63
894.04	226.65
894.34	226.65
894.65	226.65
894.95	226.62
895.26	226.61
895.57	226.69
895.87	226.60
896.18	226.59
896.48	226.63
896.79	226.65
897.10	226.63
897.40	226.62
897.71	226.65
898.01	226.64
898.32	226.67
898.63	226.71
898.93	226.71
899.24	226.68
899.54	226.70
899.85	226.70
900.15	226.72
900.46	226.71
900.76	226.72
901.07	226.72
901.38	226.69
901.68	226.73
901.99	226.68
902.29	226.67
902.60	226.66
902.90	226.61
903.21	226.58
903.51	226.58
903.82	226.59
904.12	226.55
904.43	226.53
904.73	226.47
905.03	226.41
905.34	226.49
905.64	226.50
905.95	226.49
906.25	226.50
906.56	226.46
906.86	226.44
907.17	226.44
907.47	226.45
907.77	226.46
908.08	226.41
908.38	226.38
908.69	226.41
908.99	226.44
909.30	226.44
909.60	226.48
909.90	226.46
910.21	226.44
910.51	226.45
910.81	226.46
911.12	226.46
911.42	226.49
911.73	226.43
912.03	226.41
912.33	226.41
912.64	226.39
912.94	226.36
913.24	226.32
913.55	226.29
913.85	226.25
914.15	226.27
914.46	226.27
914.76	226.27
915.06	226.24
915.37	226.23
915.67	226.26
915.97	226.24
916.27	226.25
916.58	226.23
916.88	226.21
917.18	226.20
917.49	226.29
917.79	226.29
918.09	226.27
918.39	226.28
918.70	226.26
919.00	226.25
919.30	226.33
919.60	226.33
919.91	226.34
920.21	226.38
920.51	226.37
920.81	226.35
921.12	226.36
921.42	226.38
921.72	226.36
922.02	226.37
922.32	226.37
922.63	226.36
922.93	226.44
923.23	226.47
923.53	226.44
923.83	226.37
924.13	226.37
924.44	226.39
924.74	226.41
925.04	226.45
925.34	226.45
925.64	226.39
925.94	226.39
926.24	226.42
926.55	226.39
926.85	226.36
927.15	226.40
927.45	226.41
927.75	226.41
928.05	226.41
928.35	226.38
928.65	226.41
928.95	226.43
929.26	226.35
929.56	226.35
929.86	226.37
930.16	226.38
930.46	226.37
930.76	226.37
931.06	226.35
931.36	226.32
931.66	226.36
931.96	226.36
932.26	226.35
932.56	226.32
932.86	226.34
933.16	226.37
933.46	226.33
933.76	226.30
934.06	226.31
934.36	226.35
934.66	226.35
934.96	226.33
935.26	226.34
935.56	226.39
935.86	226.37
936.16	226.34
936.46	226.31
936.76	226.29
937.06	226.28
937.36	226.28
937.66	226.30
937.96	226.27
938.26	226.28
938.56	226.30
938.86	226.27
939.16	226.29
939.46	226.31
939.76	226.31
940.06	226.31
940.35	226.29
940.65	226.22
940.95	226.23
941.25	226.18
941.55	226.15
941.85	226.14
942.15	226.14
942.45	226.19
942.75	226.25
943.04	226.25
943.34	226.24
943.64	226.21
943.94	226.19
944.24	226.19
944.54	226.19
944.84	226.17
945.13	226.20
945.43	226.20
945.73	226.19
946.03	226.21
946.33	226.24
946.62	226.20
946.92	226.24
947.22	226.24
947.52	226.25
947.82	226.28
948.11	226.26
948.41	226.25
948.71	226.22
949.01	226.18
949.31	226.22
949.60	226.21
949.90	226.22
950.20	226.21
950.50	226.20
950.79	226.22
951.09	226.25
951.39	226.21
951.69	226.18
951.98	226.22
952.28	226.21
952.58	226.20
952.87	226.21
953.17	226.21
953.47	226.21
953.76	226.21
954.06	226.18
954.36	226.19
954.66	226.21
954.95	226.26
955.25	226.28
955.55	226.28
955.84	226.28
956.14	226.30
956.44	226.29
956.73	226.31
957.03	226.31
957.32	226.30
957.62	226.34
957.92	226.38
958.21	226.37
958.51	226.49
958.81	226.53
959.10	226.54
959.40	226.57
959.69	226.59
959.99	226.60
960.29	226.60
960.58	226.60
960.88	226.64
961.17	226.62
961.47	226.61
961.76	226.61
962.06	226.64
962.36	226.64
962.65	226.68
962.95	226.67
963.24	226.61
963.54	226.62
963.83	226.62
964.13	226.59
964.42	226.54
964.72	226.46
965.01	226.43
965.31	226.44
965.60	226.41
965.90	226.46
966.19	226.43
966.49	226.44
966.78	226.43
967.08	226.41
967.37	226.41
967.67	226.41
967.96	226.42
968.26	226.39
968.55	226.41
968.85	226.37
969.14	226.36
969.43	226.36
969.73	226.35
970.02	226.34
970.32	226.36
970.61	226.35
970.91	226.33
971.20	226.33
971.49	226.33
971.79	226.33
972.08	226.24
972.38	226.28
972.67	226.25
972.96	226.26
973.26	226.22
973.55	226.20
973.85	226.18
974.14	226.16
974.43	226.17
974.73	226.15
975.02	226.16
975.31	226.15
975.61	226.18
975.90	226.15
976.19	226.13
976.49	226.12
976.78	226.12
977.07	226.11
977.37	226.11
977.66	226.10
977.95	226.06
978.24	226.07
978.54	226.07
978.83	226.08
979.12	226.07
979.42	226.09
979.71	226.08
980.00	226.07
980.29	226.08
980.59	226.05
980.88	226.05
981.17	226.04
981.46	226.06
981.76	226.05
982.05	226.08
982.34	226.07
982.63	226.07
982.93	226.09
983.22	226.10
983.51	226.13
983.80	226.15
984.09	226.18
984.39	226.16
984.68	226.13
984.97	226.14
985.26	226.13
985.55	226.13
985.85	226.13
986.14	226.16
986.43	226.13
986.72	226.15
987.01	226.12
987.30	226.12
987.59	226.10
987.89	226.12
988.18	226.08
988.47	226.08
988.76	226.09
989.05	226.11
989.34	226.08
989.63	226.10
989.92	226.07
990.22	226.05
990.51	226.06
990.80	226.06
991.09	226.08
991.38	226.12
991.67	226.13
991.96	226.11
992.25	226.10
992.54	226.12
992.83	226.13
993.12	226.15
993.41	226.17
993.70	226.19
993.99	226.21
994.28	226.26
994.58	226.32
994.87	226.27
995.16	226.27
995.45	226.27
995.74	226.25
996.03	226.29
996.32	226.29
996.61	226.35
996.90	226.36
997.19	226.34
997.48	226.32
997.77	226.31
998.06	226.32
998.34	226.33
998.63	226.35
998.92	226.35
999.21	226.38
999.50	226.37
999.79	226.37
1000.08	226.36
1000.37	226.37
1000.66	226.32
1000.95	226.37
1001.24	226.40
1001.53	226.43
1001.82	226.42
1002.11	226.37
1002.40	226.40
1002.68	226.43
1002.97	226.50
1003.26	226.50
1003.55	226.51
1003.84	226.50
1004.13	226.56
1004.42	226.52
1004.71	226.50
1004.99	226.51
1005.28	226.51
1005.57	226.55
1005.86	226.53
1006.15	226.50
1006.44	226.47
1006.72	226.52
1007.01	226.51
1007.30	226.50
1007.59	226.48
1007.88	226.48
1008.17	226.47
1008.45	226.45
1008.74	226.39
1009.03	226.37
1009.32	226.34
1009.60	226.32
1009.89	226.32
1010.18	226.26
1010.47	226.27
1010.76	226.26
1011.04	226.26
1011.33	226.27
1011.62	226.25
1011.91	226.25
1012.19	226.28
1012.48	226.29
1012.77	226.26
1013.05	226.29
1013.34	226.24
1013.63	226.22
1013.92	226.21
1014.20	226.20
1014.49	226.21
1014.78	226.20
1015.06	226.14
1015.35	226.14
1015.64	226.16
1015.92	226.17
1016.21	226.16
1016.50	226.18
1016.78	226.21
1017.07	226.17
1017.36	226.14
1017.64	226.12
1017.93	226.10
1018.22	226.10
1018.50	226.06
1018.79	226.03
1019.08	225.94
1019.36	225.94
1019.65	225.92
1019.93	225.95
1020.22	226.00
1020.51	226.04
1020.79	226.01
1021.08	226.46
1021.36	225.35
1021.65	225.60
1021.94	225.18
1022.22	225.61
1022.51	225.74
1022.79	226.75
1023.08	226.49
1023.36	227.00
1023.65	225.59
>>>>>End Processed Spectral Data<<<<<
