SpectraSuite Data File
++++++++++++++++++++++++++++++++++++
Date: Fri Feb 01 16:18:45 EST 2013
User: group
Dark Spectrum Present: No
Reference Spectrum Present: No
Number of Sampled Component Spectra: 1
Spectrometers: USB2E7196
Integration Time (usec): 35000 (USB2E7196)
Spectra Averaged: 100 (USB2E7196)
Boxcar Smoothing: 10 (USB2E7196)
Correct for Electrical Dark: No (USB2E7196)
Strobe/Lamp Enabled: No (USB2E7196)
Correct for Detector Non-linearity: No (USB2E7196)
Correct for Stray Light: No (USB2E7196)
Number of Pixels in Processed Spectrum: 2048
>>>>>Begin Processed Spectral Data<<<<<
339.09	0.00
339.48	214.29
339.86	215.35
340.24	217.03
340.63	218.59
341.01	220.80
341.39	220.65
341.78	222.40
342.16	223.83
342.54	224.26
342.93	212.41
343.31	223.15
343.69	223.67
344.07	224.13
344.46	224.54
344.84	224.94
345.22	225.16
345.60	225.41
345.99	225.61
346.37	225.73
346.75	225.84
347.13	225.90
347.52	225.98
347.90	226.09
348.28	226.16
348.66	226.19
349.05	226.18
349.43	226.22
349.81	226.24
350.19	226.29
350.57	226.34
350.96	226.43
351.34	226.53
351.72	226.61
352.10	226.71
352.48	226.80
352.87	226.83
353.25	226.94
353.63	227.02
354.01	227.06
354.39	227.13
354.77	227.21
355.15	227.30
355.54	227.37
355.92	227.39
356.30	227.43
356.68	227.57
357.06	227.64
357.44	227.68
357.82	227.75
358.20	227.78
358.58	227.82
358.97	227.87
359.35	227.95
359.73	228.02
360.11	228.06
360.49	228.08
360.87	228.11
361.25	228.14
361.63	228.22
362.01	228.30
362.39	228.30
362.77	228.33
363.15	228.35
363.53	228.37
363.91	228.39
364.29	228.43
364.67	228.37
365.05	228.38
365.43	228.42
365.81	228.47
366.19	228.56
366.57	228.61
366.95	228.59
367.33	228.53
367.71	228.49
368.09	228.50
368.47	228.52
368.85	228.49
369.23	228.50
369.61	228.43
369.99	228.43
370.37	228.43
370.75	228.44
371.13	228.42
371.51	228.34
371.89	228.33
372.27	228.27
372.65	228.22
373.03	228.19
373.41	228.14
373.78	228.10
374.16	227.96
374.54	227.87
374.92	227.75
375.30	227.71
375.68	227.66
376.06	227.57
376.44	227.50
376.82	227.46
377.19	227.38
377.57	227.32
377.95	227.19
378.33	227.11
378.71	227.00
379.09	226.94
379.47	226.92
379.84	226.79
380.22	226.72
380.60	226.60
380.98	226.51
381.36	226.43
381.73	226.36
382.11	226.33
382.49	226.30
382.87	226.28
383.25	226.20
383.62	226.29
384.00	226.22
384.38	226.16
384.76	226.12
385.13	226.11
385.51	226.05
385.89	226.01
386.27	225.99
386.64	225.93
387.02	225.87
387.40	225.81
387.78	225.81
388.15	225.77
388.53	225.77
388.91	225.78
389.29	225.76
389.66	225.72
390.04	225.72
390.42	225.69
390.79	225.68
391.17	225.67
391.55	225.55
391.92	225.58
392.30	225.58
392.68	225.54
393.05	225.51
393.43	225.51
393.81	225.54
394.18	225.57
394.56	225.61
394.94	225.66
395.31	225.66
395.69	225.72
396.06	225.78
396.44	225.83
396.82	225.82
397.19	225.91
397.57	225.95
397.95	225.98
398.32	226.02
398.70	226.09
399.07	226.17
399.45	226.20
399.82	226.30
400.20	226.35
400.58	226.44
400.95	226.48
401.33	226.57
401.70	226.69
402.08	226.75
402.45	226.84
402.83	226.90
403.20	227.01
403.58	227.13
403.95	227.22
404.33	227.34
404.71	227.49
405.08	227.64
405.46	227.77
405.83	227.91
406.21	228.07
406.58	228.23
406.96	228.39
407.33	228.57
407.70	228.73
408.08	229.03
408.45	229.25
408.83	229.50
409.20	229.72
409.58	229.91
409.95	230.16
410.33	230.43
410.70	230.66
411.08	230.96
411.45	231.27
411.82	231.62
412.20	231.96
412.57	232.33
412.95	232.62
413.32	233.03
413.69	233.45
414.07	233.87
414.44	234.33
414.82	234.83
415.19	235.38
415.56	235.88
415.94	236.39
416.31	237.04
416.68	237.68
417.06	238.39
417.43	239.08
417.81	239.85
418.18	240.61
418.55	241.47
418.93	242.34
419.30	243.21
419.67	244.10
420.04	245.06
420.42	246.08
420.79	247.28
421.16	248.40
421.54	249.58
421.91	250.79
422.28	252.02
422.66	253.35
423.03	254.63
423.40	255.97
423.77	257.40
424.15	258.81
424.52	260.27
424.89	261.90
425.26	263.45
425.64	264.88
426.01	266.46
426.38	268.11
426.75	269.80
427.13	271.53
427.50	273.37
427.87	275.26
428.24	277.11
428.61	278.85
428.99	280.81
429.36	282.91
429.73	284.98
430.10	286.95
430.47	289.02
430.85	291.17
431.22	293.43
431.59	295.80
431.96	298.01
432.33	300.48
432.70	302.83
433.08	305.66
433.45	308.34
433.82	310.96
434.19	313.88
434.56	316.71
434.93	319.33
435.30	321.93
435.68	324.82
436.05	327.63
436.42	330.40
436.79	332.90
437.16	335.61
437.53	338.45
437.90	341.29
438.27	343.97
438.64	346.77
439.01	349.34
439.38	351.57
439.75	353.73
440.13	356.21
440.50	358.54
440.87	360.34
441.24	362.26
441.61	364.39
441.98	365.83
442.35	367.61
442.72	369.51
443.09	371.30
443.46	372.21
443.83	372.84
444.20	373.35
444.57	374.25
444.94	374.52
445.31	374.84
445.68	375.23
446.05	375.32
446.42	374.96
446.79	374.56
447.16	374.10
447.53	373.84
447.90	372.71
448.27	371.56
448.64	369.98
449.01	368.80
449.37	366.84
449.74	364.98
450.11	362.72
450.48	360.24
450.85	357.71
451.22	355.62
451.59	353.57
451.96	351.66
452.33	348.98
452.70	346.64
453.07	343.82
453.43	340.88
453.80	338.13
454.17	335.45
454.54	332.89
454.91	330.17
455.28	327.47
455.65	324.95
456.02	322.52
456.38	320.36
456.75	317.73
457.12	315.47
457.49	313.24
457.86	311.04
458.23	309.18
458.59	307.15
458.96	305.08
459.33	303.25
459.70	301.33
460.07	299.85
460.43	298.13
460.80	296.49
461.17	295.06
461.54	293.54
461.91	292.11
462.27	290.70
462.64	289.50
463.01	288.13
463.38	286.87
463.74	285.50
464.11	284.33
464.48	283.28
464.85	282.21
465.21	281.35
465.58	280.45
465.95	279.38
466.32	278.48
466.68	277.58
467.05	276.68
467.42	275.79
467.78	274.85
468.15	273.96
468.52	273.31
468.88	272.47
469.25	271.70
469.62	271.09
469.98	270.37
470.35	269.73
470.72	269.13
471.08	268.50
471.45	267.93
471.82	267.38
472.18	266.78
472.55	266.36
472.92	265.83
473.28	265.36
473.65	264.89
474.02	264.46
474.38	264.08
474.75	263.77
475.11	263.46
475.48	263.17
475.85	262.95
476.21	262.72
476.58	262.56
476.94	262.46
477.31	262.28
477.67	262.17
478.04	262.06
478.41	262.02
478.77	262.05
479.14	262.03
479.50	262.06
479.87	262.19
480.23	262.26
480.60	262.36
480.96	262.48
481.33	262.71
481.69	262.90
482.06	263.13
482.42	263.33
482.79	263.64
483.15	264.04
483.52	264.43
483.88	264.81
484.25	265.21
484.61	265.60
484.98	266.05
485.34	266.62
485.71	267.24
486.07	267.83
486.44	268.40
486.80	269.15
487.17	269.90
487.53	270.72
487.90	271.58
488.26	272.54
488.62	273.53
488.99	274.48
489.35	275.52
489.72	276.66
490.08	277.88
490.44	279.10
490.81	280.42
491.17	281.81
491.54	283.32
491.90	284.84
492.26	286.50
492.63	288.27
492.99	290.05
493.36	291.94
493.72	294.01
494.08	296.14
494.45	298.33
494.81	300.68
495.17	303.09
495.54	305.65
495.90	308.29
496.26	311.11
496.63	314.14
496.99	317.29
497.35	320.57
497.72	323.97
498.08	327.49
498.44	331.15
498.80	335.08
499.17	339.08
499.53	343.25
499.89	347.67
500.26	352.18
500.62	356.85
500.98	361.82
501.34	366.88
501.71	372.24
502.07	377.76
502.43	383.40
502.79	389.22
503.16	395.28
503.52	401.60
503.88	408.00
504.24	414.65
504.60	421.57
504.97	428.69
505.33	435.98
505.69	443.72
506.05	451.50
506.41	459.41
506.78	467.55
507.14	476.09
507.50	484.82
507.86	493.85
508.22	503.05
508.59	512.26
508.95	521.88
509.31	531.77
509.67	541.87
510.03	552.13
510.39	562.69
510.75	573.52
511.12	584.44
511.48	595.78
511.84	607.19
512.20	618.68
512.56	630.62
512.92	642.84
513.28	655.17
513.64	667.70
514.00	680.38
514.37	693.37
514.73	706.34
515.09	719.34
515.45	732.59
515.81	746.24
516.17	760.25
516.53	774.37
516.89	788.43
517.25	802.59
517.61	817.03
517.97	831.55
518.33	845.96
518.69	860.79
519.05	875.77
519.41	890.92
519.77	906.44
520.13	921.82
520.49	937.19
520.85	952.58
521.21	968.29
521.57	984.54
521.93	1000.20
522.29	1016.68
522.65	1032.87
523.01	1049.09
523.37	1065.05
523.73	1081.14
524.09	1097.18
524.45	1113.47
524.81	1130.05
525.17	1146.80
525.53	1163.56
525.89	1180.43
526.25	1197.21
526.61	1213.55
526.97	1230.22
527.33	1246.67
527.68	1263.26
528.04	1279.73
528.40	1296.30
528.76	1313.30
529.12	1329.74
529.48	1346.64
529.84	1362.39
530.20	1379.04
530.56	1396.01
530.91	1413.34
531.27	1430.05
531.63	1446.39
531.99	1462.95
532.35	1478.84
532.71	1494.73
533.07	1510.97
533.42	1526.70
533.78	1542.56
534.14	1558.81
534.50	1574.10
534.86	1589.86
535.21	1604.86
535.57	1620.61
535.93	1635.98
536.29	1650.57
536.65	1665.72
537.00	1680.36
537.36	1695.72
537.72	1710.22
538.08	1724.62
538.44	1738.35
538.79	1752.27
539.15	1766.07
539.51	1779.66
539.87	1794.01
540.22	1807.59
540.58	1821.35
540.94	1834.68
541.29	1847.54
541.65	1860.16
542.01	1873.31
542.37	1885.57
542.72	1898.04
543.08	1909.83
543.44	1922.22
543.79	1933.55
544.15	1944.32
544.51	1955.85
544.87	1966.72
545.22	1977.40
545.58	1987.64
545.94	1997.45
546.29	2007.15
546.65	2016.89
547.01	2026.22
547.36	2034.88
547.72	2043.34
548.07	2051.01
548.43	2059.16
548.79	2067.19
549.14	2074.61
549.50	2081.98
549.86	2089.72
550.21	2096.99
550.57	2104.12
550.92	2110.45
551.28	2117.25
551.64	2124.36
551.99	2130.99
552.35	2137.02
552.70	2143.27
553.06	2149.11
553.41	2155.45
553.77	2161.46
554.13	2167.52
554.48	2173.56
554.84	2179.00
555.19	2184.34
555.55	2189.53
555.90	2194.00
556.26	2198.72
556.61	2203.49
556.97	2207.62
557.32	2211.70
557.68	2215.80
558.03	2220.07
558.39	2224.06
558.74	2228.92
559.10	2232.76
559.45	2236.30
559.81	2240.70
560.16	2244.45
560.52	2247.60
560.87	2251.01
561.23	2253.71
561.58	2256.58
561.94	2259.15
562.29	2261.56
562.64	2264.22
563.00	2266.87
563.35	2270.43
563.71	2273.72
564.06	2276.96
564.42	2279.99
564.77	2282.48
565.12	2284.84
565.48	2286.82
565.83	2288.63
566.19	2289.90
566.54	2290.88
566.89	2292.16
567.25	2292.78
567.60	2294.02
567.96	2295.78
568.31	2296.49
568.66	2297.63
569.02	2298.28
569.37	2298.68
569.72	2299.49
570.08	2299.65
570.43	2299.68
570.78	2299.10
571.14	2297.65
571.49	2296.38
571.84	2296.06
572.20	2295.02
572.55	2293.95
572.90	2292.54
573.26	2291.18
573.61	2289.58
573.96	2287.84
574.31	2284.93
574.67	2282.09
575.02	2278.52
575.37	2275.17
575.72	2271.55
576.08	2268.28
576.43	2265.02
576.78	2261.30
577.13	2258.12
577.49	2255.06
577.84	2251.66
578.19	2247.93
578.54	2244.37
578.90	2240.11
579.25	2234.49
579.60	2229.46
579.95	2224.46
580.30	2219.40
580.66	2214.33
581.01	2209.26
581.36	2204.31
581.71	2200.18
582.06	2195.69
582.42	2191.36
582.77	2186.22
583.12	2181.58
583.47	2176.78
583.82	2171.85
584.17	2166.69
584.53	2161.33
584.88	2155.75
585.23	2149.99
585.58	2144.71
585.93	2139.20
586.28	2134.59
586.63	2129.71
586.98	2124.83
587.34	2120.25
587.69	2115.30
588.04	2109.95
588.39	2104.46
588.74	2098.02
589.09	2091.82
589.44	2085.00
589.79	2078.94
590.14	2073.44
590.49	2067.01
590.84	2060.79
591.19	2054.75
591.54	2048.42
591.89	2041.11
592.25	2034.40
592.60	2027.20
592.95	2019.64
593.30	2012.19
593.65	2004.53
594.00	1997.50
594.35	1990.25
594.70	1982.32
595.05	1975.28
595.40	1968.09
595.75	1960.73
596.10	1954.61
596.45	1947.89
596.80	1941.84
597.15	1935.36
597.50	1928.18
597.85	1921.64
598.19	1914.99
598.54	1907.91
598.89	1901.18
599.24	1895.28
599.59	1888.60
599.94	1882.41
600.29	1876.02
600.64	1869.53
600.99	1862.16
601.34	1855.40
601.69	1848.51
602.04	1841.68
602.39	1834.21
602.74	1827.47
603.08	1820.63
603.43	1813.94
603.78	1806.54
604.13	1799.38
604.48	1792.03
604.83	1785.29
605.18	1778.52
605.53	1770.51
605.87	1762.55
606.22	1755.33
606.57	1747.33
606.92	1739.97
607.27	1732.86
607.62	1725.91
607.96	1718.69
608.31	1712.00
608.66	1704.46
609.01	1696.89
609.36	1689.28
609.70	1681.33
610.05	1673.35
610.40	1665.61
610.75	1657.27
611.10	1649.66
611.44	1641.24
611.79	1633.26
612.14	1624.57
612.49	1615.43
612.83	1607.10
613.18	1598.99
613.53	1590.98
613.88	1582.51
614.22	1574.34
614.57	1565.66
614.92	1557.68
615.27	1550.16
615.61	1541.90
615.96	1533.82
616.31	1526.13
616.65	1518.79
617.00	1511.25
617.35	1503.50
617.70	1495.15
618.04	1486.65
618.39	1478.51
618.74	1470.91
619.08	1462.58
619.43	1455.00
619.78	1447.98
620.12	1440.81
620.47	1433.27
620.82	1424.87
621.16	1417.50
621.51	1409.82
621.85	1402.32
622.20	1393.75
622.55	1385.29
622.89	1377.32
623.24	1369.61
623.59	1362.27
623.93	1354.68
624.28	1347.48
624.62	1339.86
624.97	1332.66
625.32	1325.92
625.66	1318.86
626.01	1311.67
626.35	1304.32
626.70	1296.43
627.04	1288.57
627.39	1280.75
627.73	1273.39
628.08	1266.59
628.43	1259.26
628.77	1251.88
629.12	1244.27
629.46	1237.14
629.81	1229.75
630.15	1222.63
630.50	1215.13
630.84	1206.88
631.19	1198.88
631.53	1191.29
631.88	1183.72
632.22	1176.09
632.57	1168.71
632.91	1161.12
633.26	1153.62
633.60	1146.13
633.95	1139.04
634.29	1132.02
634.64	1125.34
634.98	1117.87
635.32	1110.57
635.67	1103.92
636.01	1097.23
636.36	1090.39
636.70	1083.82
637.05	1077.27
637.39	1070.72
637.73	1064.24
638.08	1058.31
638.42	1052.28
638.77	1045.82
639.11	1039.24
639.45	1032.83
639.80	1026.17
640.14	1019.76
640.49	1013.31
640.83	1007.04
641.17	1000.78
641.52	994.51
641.86	988.02
642.20	982.15
642.55	975.96
642.89	969.44
643.23	962.92
643.58	957.13
643.92	950.96
644.26	944.91
644.61	938.91
644.95	932.94
645.29	926.48
645.64	919.80
645.98	913.43
646.32	907.64
646.66	901.68
647.01	895.87
647.35	890.18
647.69	884.32
648.04	878.71
648.38	872.86
648.72	866.84
649.06	860.78
649.41	854.95
649.75	849.01
650.09	843.10
650.43	837.36
650.78	831.22
651.12	825.23
651.46	819.46
651.80	813.65
652.14	808.27
652.49	802.86
652.83	797.66
653.17	792.06
653.51	786.36
653.85	780.94
654.20	775.33
654.54	769.31
654.88	763.52
655.22	757.72
655.56	752.08
655.90	746.63
656.25	741.40
656.59	735.89
656.93	730.81
657.27	725.66
657.61	720.15
657.95	715.06
658.29	710.01
658.64	704.77
658.98	699.48
659.32	693.92
659.66	688.63
660.00	683.32
660.34	678.32
660.68	673.39
661.02	668.34
661.36	663.63
661.70	659.10
662.05	654.72
662.39	650.34
662.73	645.90
663.07	641.53
663.41	637.07
663.75	632.64
664.09	628.08
664.43	623.62
664.77	619.58
665.11	615.30
665.45	611.10
665.79	606.95
666.13	602.85
666.47	598.80
666.81	594.67
667.15	590.54
667.49	586.60
667.83	582.69
668.17	578.68
668.51	574.55
668.85	570.53
669.19	566.70
669.53	562.86
669.87	558.93
670.21	555.18
670.55	551.52
670.89	548.13
671.23	544.62
671.57	541.07
671.91	537.43
672.25	533.89
672.58	530.43
672.92	527.01
673.26	523.81
673.60	520.63
673.94	517.48
674.28	514.56
674.62	511.65
674.96	508.56
675.30	505.72
675.64	502.79
675.97	500.02
676.31	497.17
676.65	494.23
676.99	491.50
677.33	488.66
677.67	485.87
678.01	482.83
678.34	479.86
678.68	476.99
679.02	474.10
679.36	471.34
679.70	468.58
680.04	465.83
680.37	462.93
680.71	460.12
681.05	457.52
681.39	454.76
681.73	452.13
682.06	449.55
682.40	446.97
682.74	444.46
683.08	441.96
683.42	439.30
683.75	436.77
684.09	434.25
684.43	431.75
684.77	429.19
685.10	426.80
685.44	424.47
685.78	422.24
686.12	420.03
686.45	417.78
686.79	415.43
687.13	413.26
687.46	411.08
687.80	408.93
688.14	406.69
688.48	404.67
688.81	402.35
689.15	400.26
689.49	398.12
689.82	396.04
690.16	393.88
690.50	391.99
690.83	390.07
691.17	388.03
691.51	386.15
691.84	384.41
692.18	382.49
692.52	380.53
692.85	378.56
693.19	376.72
693.52	374.88
693.86	373.09
694.20	371.31
694.53	369.51
694.87	367.68
695.21	365.90
695.54	364.09
695.88	362.42
696.21	360.69
696.55	359.03
696.88	357.32
697.22	355.70
697.56	354.05
697.89	352.38
698.23	350.80
698.56	349.21
698.90	347.55
699.23	345.91
699.57	344.36
699.90	342.84
700.24	341.29
700.58	339.77
700.91	338.29
701.25	336.84
701.58	335.49
701.92	334.17
702.25	332.81
702.59	331.43
702.92	330.10
703.26	328.79
703.59	327.49
703.93	326.30
704.26	325.09
704.60	323.82
704.93	322.53
705.26	321.32
705.60	320.11
705.93	318.95
706.27	317.90
706.60	316.82
706.94	315.74
707.27	314.61
707.61	313.54
707.94	312.52
708.27	311.38
708.61	310.27
708.94	309.22
709.28	308.23
709.61	307.25
709.94	306.27
710.28	305.22
710.61	304.23
710.95	303.19
711.28	302.19
711.61	301.17
711.95	300.26
712.28	299.32
712.61	298.35
712.95	297.44
713.28	296.56
713.61	295.67
713.95	294.76
714.28	293.91
714.61	293.03
714.95	292.15
715.28	291.33
715.61	290.44
715.95	289.57
716.28	288.71
716.61	287.87
716.95	287.03
717.28	286.29
717.61	285.52
717.94	284.75
718.28	283.96
718.61	283.27
718.94	282.59
719.27	281.88
719.61	281.21
719.94	280.51
720.27	279.73
720.60	279.07
720.94	278.46
721.27	277.85
721.60	277.31
721.93	276.72
722.27	276.14
722.60	275.57
722.93	274.99
723.26	274.43
723.59	273.88
723.93	273.34
724.26	272.76
724.59	272.16
724.92	271.61
725.25	271.13
725.59	270.61
725.92	270.08
726.25	269.57
726.58	269.08
726.91	268.61
727.24	268.14
727.57	267.64
727.91	267.12
728.24	266.70
728.57	266.20
728.90	265.75
729.23	265.29
729.56	264.87
729.89	264.43
730.22	263.98
730.55	263.48
730.89	263.05
731.22	262.61
731.55	262.23
731.88	261.81
732.21	261.37
732.54	260.94
732.87	260.52
733.20	260.11
733.53	259.70
733.86	259.31
734.19	258.98
734.52	258.62
734.85	258.31
735.18	257.88
735.51	257.51
735.84	257.16
736.17	256.82
736.50	256.43
736.83	256.18
737.16	255.87
737.49	255.54
737.82	255.21
738.15	254.92
738.48	254.57
738.81	254.27
739.14	253.93
739.47	253.58
739.80	253.26
740.13	252.97
740.46	252.63
740.79	252.31
741.12	251.97
741.45	251.68
741.78	251.33
742.11	251.03
742.44	250.70
742.77	250.39
743.10	250.09
743.43	249.78
743.75	249.41
744.08	249.22
744.41	248.96
744.74	248.66
745.07	248.34
745.40	248.10
745.73	247.85
746.06	247.56
746.39	247.33
746.71	247.08
747.04	246.79
747.37	246.53
747.70	246.28
748.03	246.01
748.36	245.75
748.68	245.48
749.01	245.23
749.34	244.99
749.67	244.75
750.00	244.49
750.33	244.33
750.65	244.09
750.98	243.76
751.31	243.54
751.64	243.34
751.97	243.18
752.29	242.95
752.62	242.68
752.95	242.46
753.28	242.25
753.60	241.99
753.93	241.83
754.26	241.66
754.59	241.43
754.91	241.24
755.24	241.03
755.57	240.84
755.90	240.62
756.22	240.41
756.55	240.20
756.88	240.03
757.20	239.79
757.53	239.59
757.86	239.44
758.19	239.30
758.51	239.11
758.84	238.91
759.17	238.73
759.49	238.63
759.82	238.53
760.15	238.37
760.47	238.25
760.80	238.06
761.13	237.95
761.45	237.83
761.78	237.67
762.11	237.54
762.43	237.38
762.76	237.27
763.08	237.15
763.41	237.05
763.74	236.88
764.06	236.73
764.39	236.59
764.71	236.42
765.04	236.29
765.37	236.17
765.69	236.05
766.02	235.92
766.34	235.79
766.67	235.61
767.00	235.51
767.32	235.46
767.65	235.43
767.97	235.32
768.30	235.15
768.62	235.05
768.95	234.96
769.27	234.86
769.60	234.79
769.92	234.69
770.25	234.55
770.57	234.49
770.90	234.39
771.22	234.30
771.55	234.20
771.87	234.10
772.20	234.01
772.52	234.01
772.85	234.03
773.17	233.92
773.50	233.85
773.82	233.76
774.15	233.64
774.47	233.49
774.80	233.39
775.12	233.37
775.45	233.29
775.77	233.20
776.09	233.18
776.42	233.11
776.74	233.07
777.07	233.04
777.39	232.93
777.72	232.89
778.04	232.87
778.36	232.81
778.69	232.74
779.01	232.68
779.33	232.53
779.66	232.38
779.98	232.31
780.31	232.25
780.63	232.21
780.95	232.15
781.28	232.08
781.60	232.00
781.92	231.92
782.25	231.89
782.57	231.83
782.89	231.75
783.22	231.68
783.54	231.64
783.86	231.62
784.19	231.57
784.51	231.53
784.83	231.45
785.16	231.36
785.48	231.34
785.80	231.29
786.12	231.24
786.45	231.16
786.77	231.09
787.09	231.01
787.42	230.92
787.74	230.87
788.06	230.79
788.38	230.77
788.71	230.74
789.03	230.70
789.35	230.64
789.67	230.59
789.99	230.53
790.32	230.42
790.64	230.33
790.96	230.36
791.28	230.29
791.61	230.24
791.93	230.23
792.25	230.20
792.57	230.19
792.89	230.13
793.21	230.10
793.54	230.06
793.86	230.04
794.18	230.01
794.50	229.94
794.82	229.92
795.14	229.86
795.47	229.78
795.79	229.71
796.11	229.66
796.43	229.59
796.75	229.55
797.07	229.52
797.39	229.49
797.71	229.39
798.04	229.33
798.36	229.27
798.68	229.21
799.00	229.11
799.32	229.02
799.64	229.03
799.96	228.99
800.28	228.98
800.60	228.90
800.92	228.88
801.24	228.87
801.56	228.84
801.89	228.80
802.21	228.76
802.53	228.74
802.85	228.72
803.17	228.73
803.49	228.68
803.81	228.61
804.13	228.56
804.45	228.52
804.77	228.52
805.09	228.49
805.41	228.48
805.73	228.48
806.05	228.46
806.37	228.39
806.69	228.35
807.01	228.32
807.33	228.34
807.65	228.28
807.97	228.32
808.28	228.28
808.60	228.23
808.92	228.23
809.24	228.27
809.56	228.25
809.88	228.20
810.20	228.18
810.52	228.21
810.84	228.18
811.16	228.15
811.48	228.11
811.80	228.14
812.12	228.14
812.43	228.14
812.75	228.16
813.07	228.17
813.39	228.18
813.71	228.17
814.03	228.16
814.35	228.16
814.67	228.09
814.98	228.12
815.30	228.14
815.62	228.13
815.94	228.03
816.26	228.07
816.58	228.07
816.89	228.08
817.21	228.05
817.53	228.06
817.85	228.05
818.17	228.02
818.48	227.97
818.80	227.98
819.12	227.94
819.44	227.88
819.76	227.84
820.07	227.84
820.39	227.82
820.71	227.82
821.03	227.83
821.34	227.80
821.66	227.79
821.98	227.79
822.30	227.77
822.61	227.83
822.93	227.76
823.25	227.73
823.57	227.71
823.88	227.75
824.20	227.74
824.52	227.75
824.83	227.76
825.15	227.75
825.47	227.71
825.79	227.71
826.10	227.68
826.42	227.67
826.74	227.64
827.05	227.61
827.37	227.59
827.69	227.56
828.00	227.55
828.32	227.49
828.64	227.47
828.95	227.49
829.27	227.48
829.58	227.47
829.90	227.46
830.22	227.45
830.53	227.38
830.85	227.33
831.17	227.29
831.48	227.28
831.80	227.30
832.11	227.26
832.43	227.25
832.75	227.26
833.06	227.27
833.38	227.21
833.69	227.22
834.01	227.20
834.32	227.16
834.64	227.11
834.96	227.14
835.27	227.10
835.59	227.07
835.90	226.99
836.22	226.98
836.53	226.93
836.85	226.90
837.16	227.02
837.48	227.02
837.79	227.03
838.11	227.01
838.42	226.97
838.74	226.99
839.05	226.92
839.37	226.90
839.68	226.86
840.00	226.88
840.31	226.86
840.63	226.87
840.94	226.85
841.26	226.86
841.57	226.84
841.88	226.85
842.20	226.83
842.51	226.81
842.83	226.79
843.14	226.88
843.46	226.88
843.77	226.78
844.08	226.79
844.40	226.76
844.71	226.75
845.03	226.75
845.34	226.74
845.65	226.74
845.97	226.74
846.28	226.74
846.60	226.71
846.91	226.68
847.22	226.68
847.54	226.70
847.85	226.71
848.16	226.71
848.48	226.68
848.79	226.73
849.10	226.73
849.42	226.74
849.73	226.64
850.04	226.61
850.36	226.61
850.67	226.60
850.98	226.60
851.30	226.59
851.61	226.56
851.92	226.57
852.23	226.60
852.55	226.61
852.86	226.59
853.17	226.64
853.49	226.68
853.80	226.70
854.11	226.70
854.42	226.70
854.74	226.70
855.05	226.72
855.36	226.63
855.67	226.63
855.99	226.66
856.30	226.78
856.61	226.77
856.92	226.77
857.23	226.75
857.55	226.74
857.86	226.76
858.17	226.82
858.48	226.79
858.79	226.79
859.11	226.80
859.42	226.82
859.73	226.81
860.04	226.81
860.35	226.78
860.66	226.77
860.98	226.74
861.29	226.76
861.60	226.73
861.91	226.75
862.22	226.77
862.53	226.74
862.84	226.64
863.16	226.68
863.47	226.63
863.78	226.65
864.09	226.66
864.40	226.66
864.71	226.64
865.02	226.67
865.33	226.65
865.64	226.63
865.95	226.62
866.27	226.70
866.58	226.68
866.89	226.69
867.20	226.66
867.51	226.63
867.82	226.60
868.13	226.64
868.44	226.62
868.75	226.62
869.06	226.61
869.37	226.63
869.68	226.59
869.99	226.63
870.30	226.64
870.61	226.62
870.92	226.58
871.23	226.55
871.54	226.52
871.85	226.53
872.16	226.52
872.47	226.50
872.78	226.36
873.09	226.35
873.40	226.32
873.71	226.34
874.02	226.36
874.33	226.34
874.64	226.33
874.95	226.32
875.26	226.29
875.56	226.31
875.87	226.24
876.18	226.23
876.49	226.29
876.80	226.26
877.11	226.28
877.42	226.29
877.73	226.28
878.04	226.26
878.35	226.24
878.66	226.25
878.96	226.23
879.27	226.24
879.58	226.21
879.89	226.20
880.20	226.23
880.51	226.20
880.82	226.19
881.12	226.18
881.43	226.20
881.74	226.19
882.05	226.16
882.36	226.20
882.67	226.19
882.97	226.10
883.28	226.10
883.59	226.08
883.90	226.08
884.21	226.10
884.51	226.10
884.82	226.10
885.13	226.10
885.44	226.11
885.74	226.09
886.05	226.07
886.36	226.09
886.67	226.03
886.98	226.08
887.28	226.12
887.59	226.11
887.90	226.08
888.20	226.06
888.51	226.08
888.82	226.04
889.13	226.08
889.43	226.16
889.74	226.14
890.05	226.14
890.35	226.13
890.66	226.12
890.97	226.11
891.28	226.10
891.58	226.10
891.89	226.10
892.20	226.14
892.50	226.13
892.81	226.13
893.12	226.12
893.42	226.10
893.73	226.09
894.04	226.11
894.34	226.15
894.65	226.17
894.95	226.16
895.26	226.20
895.57	226.20
895.87	226.09
896.18	226.13
896.48	226.13
896.79	226.13
897.10	226.15
897.40	226.15
897.71	226.14
898.01	226.10
898.32	226.15
898.63	226.13
898.93	226.19
899.24	226.18
899.54	226.19
899.85	226.19
900.15	226.18
900.46	226.15
900.76	226.13
901.07	226.13
901.38	226.16
901.68	226.15
901.99	226.12
902.29	226.14
902.60	226.11
902.90	226.10
903.21	226.10
903.51	226.09
903.82	226.11
904.12	226.14
904.43	226.17
904.73	226.14
905.03	226.14
905.34	226.20
905.64	226.20
905.95	226.22
906.25	226.23
906.56	226.21
906.86	226.22
907.17	226.23
907.47	226.26
907.77	226.22
908.08	226.17
908.38	226.21
908.69	226.23
908.99	226.26
909.30	226.28
909.60	226.26
909.90	226.23
910.21	226.21
910.51	226.21
910.81	226.19
911.12	226.17
911.42	226.15
911.73	226.05
912.03	226.05
912.33	226.02
912.64	226.02
912.94	226.00
913.24	225.95
913.55	225.91
913.85	225.87
914.15	225.90
914.46	225.92
914.76	225.91
915.06	225.90
915.37	225.88
915.67	225.87
915.97	225.90
916.27	225.94
916.58	225.95
916.88	225.90
917.18	225.91
917.49	226.00
917.79	226.00
918.09	226.02
918.39	226.05
918.70	226.03
919.00	226.05
919.30	226.11
919.60	226.13
919.91	226.13
920.21	226.13
920.51	226.09
920.81	226.08
921.12	226.11
921.42	226.12
921.72	226.13
922.02	226.13
922.32	226.11
922.63	226.12
922.93	226.15
923.23	226.18
923.53	226.19
923.83	226.11
924.13	226.16
924.44	226.13
924.74	226.17
925.04	226.22
925.34	226.19
925.64	226.15
925.94	226.15
926.24	226.18
926.55	226.19
926.85	226.21
927.15	226.23
927.45	226.21
927.75	226.19
928.05	226.15
928.35	226.12
928.65	226.16
928.95	226.16
929.26	226.15
929.56	226.19
929.86	226.18
930.16	226.20
930.46	226.16
930.76	226.19
931.06	226.16
931.36	226.16
931.66	226.20
931.96	226.22
932.26	226.23
932.56	226.19
932.86	226.17
933.16	226.19
933.46	226.14
933.76	226.15
934.06	226.21
934.36	226.24
934.66	226.29
934.96	226.25
935.26	226.25
935.56	226.26
935.86	226.22
936.16	226.18
936.46	226.18
936.76	226.20
937.06	226.17
937.36	226.16
937.66	226.14
937.96	226.11
938.26	226.09
938.56	226.09
938.86	226.11
939.16	226.15
939.46	226.14
939.76	226.19
940.06	226.16
940.35	226.09
940.65	226.11
940.95	226.09
941.25	226.08
941.55	226.06
941.85	226.04
942.15	226.06
942.45	226.10
942.75	226.09
943.04	226.06
943.34	226.12
943.64	226.11
943.94	226.09
944.24	226.11
944.54	226.12
944.84	226.13
945.13	226.12
945.43	226.11
945.73	226.09
946.03	226.09
946.33	226.10
946.62	226.09
946.92	226.06
947.22	226.04
947.52	226.05
947.82	226.03
948.11	226.02
948.41	226.00
948.71	225.98
949.01	225.96
949.31	225.97
949.60	225.93
949.90	225.95
950.20	225.93
950.50	225.91
950.79	225.90
951.09	225.90
951.39	225.93
951.69	225.92
951.98	225.96
952.28	225.95
952.58	225.91
952.87	225.92
953.17	225.92
953.47	225.91
953.76	225.89
954.06	225.86
954.36	225.84
954.66	225.85
954.95	225.84
955.25	225.88
955.55	225.86
955.84	225.85
956.14	225.86
956.44	225.90
956.73	225.90
957.03	225.92
957.32	225.96
957.62	225.93
957.92	225.93
958.21	225.89
958.51	226.00
958.81	226.04
959.10	226.04
959.40	226.06
959.69	226.12
959.99	226.15
960.29	226.17
960.58	226.17
960.88	226.23
961.17	226.20
961.47	226.21
961.76	226.21
962.06	226.20
962.36	226.16
962.65	226.14
962.95	226.12
963.24	226.07
963.54	226.07
963.83	226.11
964.13	226.12
964.42	226.12
964.72	226.06
965.01	226.08
965.31	226.10
965.60	226.05
965.90	226.07
966.19	226.03
966.49	226.01
966.78	226.03
967.08	226.00
967.37	226.03
967.67	226.00
967.96	226.02
968.26	226.06
968.55	226.08
968.85	226.06
969.14	226.08
969.43	226.09
969.73	226.06
970.02	226.04
970.32	226.02
970.61	225.99
970.91	225.94
971.20	225.93
971.49	225.92
971.79	225.95
972.08	225.89
972.38	225.92
972.67	225.95
972.96	225.93
973.26	225.89
973.55	225.93
973.85	225.96
974.14	225.95
974.43	225.93
974.73	225.92
975.02	225.93
975.31	225.91
975.61	225.92
975.90	225.92
976.19	225.90
976.49	225.89
976.78	225.91
977.07	225.89
977.37	225.90
977.66	225.92
977.95	225.94
978.24	225.93
978.54	225.96
978.83	225.94
979.12	225.95
979.42	225.96
979.71	225.93
980.00	225.88
980.29	225.89
980.59	225.86
980.88	225.85
981.17	225.85
981.46	225.88
981.76	225.87
982.05	225.89
982.34	225.92
982.63	225.94
982.93	225.93
983.22	225.97
983.51	225.96
983.80	225.91
984.09	225.89
984.39	225.90
984.68	225.85
984.97	225.86
985.26	225.87
985.55	225.90
985.85	225.89
986.14	225.92
986.43	225.90
986.72	225.90
987.01	225.88
987.30	225.85
987.59	225.83
987.89	225.82
988.18	225.75
988.47	225.73
988.76	225.71
989.05	225.70
989.34	225.66
989.63	225.69
989.92	225.69
990.22	225.70
990.51	225.68
990.80	225.67
991.09	225.66
991.38	225.65
991.67	225.64
991.96	225.62
992.25	225.62
992.54	225.64
992.83	225.68
993.12	225.67
993.41	225.73
993.70	225.76
993.99	225.79
994.28	225.82
994.58	225.82
994.87	225.81
995.16	225.80
995.45	225.77
995.74	225.73
996.03	225.75
996.32	225.74
996.61	225.78
996.90	225.76
997.19	225.76
997.48	225.77
997.77	225.73
998.06	225.73
998.34	225.72
998.63	225.71
998.92	225.70
999.21	225.71
999.50	225.70
999.79	225.67
1000.08	225.66
1000.37	225.66
1000.66	225.65
1000.95	225.67
1001.24	225.72
1001.53	225.76
1001.82	225.75
1002.11	225.74
1002.40	225.75
1002.68	225.77
1002.97	225.90
1003.26	225.89
1003.55	225.89
1003.84	225.90
1004.13	225.96
1004.42	225.95
1004.71	225.92
1004.99	225.93
1005.28	225.95
1005.57	225.94
1005.86	225.92
1006.15	225.92
1006.44	225.89
1006.72	225.91
1007.01	225.88
1007.30	225.85
1007.59	225.85
1007.88	225.87
1008.17	225.87
1008.45	225.88
1008.74	225.84
1009.03	225.76
1009.32	225.77
1009.60	225.77
1009.89	225.77
1010.18	225.74
1010.47	225.73
1010.76	225.74
1011.04	225.75
1011.33	225.74
1011.62	225.75
1011.91	225.76
1012.19	225.73
1012.48	225.76
1012.77	225.76
1013.05	225.85
1013.34	225.86
1013.63	225.87
1013.92	225.86
1014.20	225.87
1014.49	225.89
1014.78	225.87
1015.06	225.84
1015.35	225.85
1015.64	225.84
1015.92	225.89
1016.21	225.87
1016.50	225.87
1016.78	225.86
1017.07	225.84
1017.36	225.84
1017.64	225.86
1017.93	225.89
1018.22	225.95
1018.50	225.94
1018.79	225.96
1019.08	225.86
1019.36	225.87
1019.65	225.87
1019.93	225.88
1020.22	225.88
1020.51	225.92
1020.79	225.93
1021.08	226.30
1021.36	225.79
1021.65	225.98
1021.94	225.44
1022.22	225.84
1022.51	226.03
1022.79	225.82
1023.08	226.21
1023.36	227.32
1023.65	225.54
>>>>>End Processed Spectral Data<<<<<
