SpectraSuite Data File
++++++++++++++++++++++++++++++++++++
Date: Fri Feb 01 15:16:56 EST 2013
User: group
Dark Spectrum Present: No
Reference Spectrum Present: No
Number of Sampled Component Spectra: 1
Spectrometers: USB2E7196
Integration Time (usec): 35000 (USB2E7196)
Spectra Averaged: 100 (USB2E7196)
Boxcar Smoothing: 10 (USB2E7196)
Correct for Electrical Dark: No (USB2E7196)
Strobe/Lamp Enabled: No (USB2E7196)
Correct for Detector Non-linearity: No (USB2E7196)
Correct for Stray Light: No (USB2E7196)
Number of Pixels in Processed Spectrum: 2048
>>>>>Begin Processed Spectral Data<<<<<
339.09	0.00
339.48	215.09
339.86	216.37
340.24	217.46
340.63	219.74
341.01	222.17
341.39	222.34
341.78	223.51
342.16	224.91
342.54	225.49
342.93	213.54
343.31	224.35
343.69	224.89
344.07	225.39
344.46	225.85
344.84	226.23
345.22	226.47
345.60	226.74
345.99	226.91
346.37	227.04
346.75	227.11
347.13	227.16
347.52	227.21
347.90	227.30
348.28	227.34
348.66	227.37
349.05	227.38
349.43	227.41
349.81	227.45
350.19	227.48
350.57	227.55
350.96	227.60
351.34	227.67
351.72	227.76
352.10	227.83
352.48	227.91
352.87	227.95
353.25	228.01
353.63	228.00
354.01	228.07
354.39	228.12
354.77	228.20
355.15	228.29
355.54	228.33
355.92	228.38
356.30	228.43
356.68	228.58
357.06	228.66
357.44	228.69
357.82	228.74
358.20	228.85
358.58	228.91
358.97	228.98
359.35	229.06
359.73	229.15
360.11	229.20
360.49	229.19
360.87	229.25
361.25	229.31
361.63	229.44
362.01	229.49
362.39	229.52
362.77	229.58
363.15	229.61
363.53	229.65
363.91	229.67
364.29	229.70
364.67	229.61
365.05	229.58
365.43	229.62
365.81	229.62
366.19	229.62
366.57	229.67
366.95	229.66
367.33	229.62
367.71	229.59
368.09	229.57
368.47	229.58
368.85	229.54
369.23	229.53
369.61	229.43
369.99	229.45
370.37	229.42
370.75	229.41
371.13	229.35
371.51	229.29
371.89	229.22
372.27	229.18
372.65	229.10
373.03	229.06
373.41	228.98
373.78	228.91
374.16	228.81
374.54	228.70
374.92	228.62
375.30	228.56
375.68	228.46
376.06	228.38
376.44	228.30
376.82	228.24
377.19	228.13
377.57	228.07
377.95	227.96
378.33	227.89
378.71	227.75
379.09	227.71
379.47	227.65
379.84	227.56
380.22	227.47
380.60	227.41
380.98	227.34
381.36	227.28
381.73	227.17
382.11	227.13
382.49	227.03
382.87	226.96
383.25	226.88
383.62	226.96
384.00	226.91
384.38	226.84
384.76	226.81
385.13	226.85
385.51	226.77
385.89	226.69
386.27	226.64
386.64	226.62
387.02	226.54
387.40	226.50
387.78	226.47
388.15	226.46
388.53	226.44
388.91	226.41
389.29	226.38
389.66	226.42
390.04	226.36
390.42	226.39
390.79	226.39
391.17	226.38
391.55	226.23
391.92	226.24
392.30	226.27
392.68	226.23
393.05	226.20
393.43	226.23
393.81	226.27
394.18	226.28
394.56	226.31
394.94	226.34
395.31	226.36
395.69	226.45
396.06	226.46
396.44	226.49
396.82	226.56
397.19	226.64
397.57	226.66
397.95	226.73
398.32	226.75
398.70	226.81
399.07	226.88
399.45	226.97
399.82	227.02
400.20	227.05
400.58	227.12
400.95	227.15
401.33	227.25
401.70	227.41
402.08	227.45
402.45	227.55
402.83	227.69
403.20	227.80
403.58	227.90
403.95	228.05
404.33	228.22
404.71	228.33
405.08	228.52
405.46	228.66
405.83	228.83
406.21	228.97
406.58	229.13
406.96	229.32
407.33	229.51
407.70	229.70
408.08	229.99
408.45	230.24
408.83	230.48
409.20	230.69
409.58	230.88
409.95	231.20
410.33	231.47
410.70	231.74
411.08	232.04
411.45	232.33
411.82	232.62
412.20	232.96
412.57	233.39
412.95	233.71
413.32	234.13
413.69	234.55
414.07	234.99
414.44	235.47
414.82	235.95
415.19	236.49
415.56	237.08
415.94	237.63
416.31	238.29
416.68	238.93
417.06	239.68
417.43	240.38
417.81	241.13
418.18	241.90
418.55	242.75
418.93	243.67
419.30	244.59
419.67	245.55
420.04	246.49
420.42	247.47
420.79	248.66
421.16	249.81
421.54	251.04
421.91	252.25
422.28	253.54
422.66	254.86
423.03	256.17
423.40	257.50
423.77	258.90
424.15	260.32
424.52	261.80
424.89	263.43
425.26	264.93
425.64	266.38
426.01	268.01
426.38	269.65
426.75	271.32
427.13	273.05
427.50	274.85
427.87	276.76
428.24	278.61
428.61	280.34
428.99	282.29
429.36	284.34
429.73	286.45
430.10	288.48
430.47	290.53
430.85	292.66
431.22	294.89
431.59	297.26
431.96	299.49
432.33	302.00
432.70	304.38
433.08	307.22
433.45	309.86
433.82	312.42
434.19	315.32
434.56	318.14
434.93	320.76
435.30	323.40
435.68	326.27
436.05	329.15
436.42	331.93
436.79	334.46
437.16	337.18
437.53	339.98
437.90	342.77
438.27	345.55
438.64	348.38
439.01	351.00
439.38	353.28
439.75	355.50
440.13	358.02
440.50	360.34
440.87	362.16
441.24	364.13
441.61	366.31
441.98	367.76
442.35	369.57
442.72	371.44
443.09	373.22
443.46	374.26
443.83	374.85
444.20	375.37
444.57	376.18
444.94	376.44
445.31	376.82
445.68	377.14
446.05	377.20
446.42	376.81
446.79	376.36
447.16	375.87
447.53	375.49
447.90	374.27
448.27	373.11
448.64	371.56
449.01	370.41
449.37	368.42
449.74	366.53
450.11	364.29
450.48	361.76
450.85	359.26
451.22	357.07
451.59	355.01
451.96	353.07
452.33	350.46
452.70	348.09
453.07	345.24
453.43	342.36
453.80	339.59
454.17	336.90
454.54	334.34
454.91	331.61
455.28	328.94
455.65	326.47
456.02	323.98
456.38	321.81
456.75	319.11
457.12	316.88
457.49	314.63
457.86	312.45
458.23	310.63
458.59	308.54
458.96	306.47
459.33	304.63
459.70	302.76
460.07	301.28
460.43	299.59
460.80	297.97
461.17	296.53
461.54	295.01
461.91	293.63
462.27	292.19
462.64	290.96
463.01	289.62
463.38	288.30
463.74	286.94
464.11	285.79
464.48	284.77
464.85	283.63
465.21	282.77
465.58	281.83
465.95	280.70
466.32	279.77
466.68	278.85
467.05	277.94
467.42	277.07
467.78	276.14
468.15	275.28
468.52	274.63
468.88	273.77
469.25	273.01
469.62	272.32
469.98	271.64
470.35	270.99
470.72	270.40
471.08	269.79
471.45	269.25
471.82	268.70
472.18	268.12
472.55	267.69
472.92	267.16
473.28	266.67
473.65	266.24
474.02	265.78
474.38	265.42
474.75	265.11
475.11	264.73
475.48	264.45
475.85	264.16
476.21	263.88
476.58	263.71
476.94	263.56
477.31	263.38
477.67	263.21
478.04	263.08
478.41	262.99
478.77	262.99
479.14	262.92
479.50	262.93
479.87	263.01
480.23	263.07
480.60	263.12
480.96	263.19
481.33	263.38
481.69	263.63
482.06	263.81
482.42	264.00
482.79	264.26
483.15	264.56
483.52	264.92
483.88	265.27
484.25	265.61
484.61	266.01
484.98	266.45
485.34	266.99
485.71	267.58
486.07	268.22
486.44	268.83
486.80	269.51
487.17	270.22
487.53	271.03
487.90	271.91
488.26	272.84
488.62	273.85
488.99	274.87
489.35	275.88
489.72	277.00
490.08	278.20
490.44	279.45
490.81	280.82
491.17	282.18
491.54	283.69
491.90	285.25
492.26	286.91
492.63	288.65
492.99	290.47
493.36	292.38
493.72	294.38
494.08	296.40
494.45	298.67
494.81	301.04
495.17	303.45
495.54	305.99
495.90	308.66
496.26	311.46
496.63	314.38
496.99	317.49
497.35	320.74
497.72	324.09
498.08	327.56
498.44	331.14
498.80	335.05
499.17	339.06
499.53	343.24
499.89	347.65
500.26	352.16
500.62	356.81
500.98	361.80
501.34	366.83
501.71	372.21
502.07	377.62
502.43	383.22
502.79	388.97
503.16	395.06
503.52	401.34
503.88	407.76
504.24	414.39
504.60	421.27
504.97	428.38
505.33	435.75
505.69	443.49
506.05	451.29
506.41	459.20
506.78	467.33
507.14	475.76
507.50	484.42
507.86	493.41
508.22	502.62
508.59	511.82
508.95	521.46
509.31	531.27
509.67	541.37
510.03	551.65
510.39	562.20
510.75	572.99
511.12	583.90
511.48	595.18
511.84	606.63
512.20	618.20
512.56	630.21
512.92	642.39
513.28	654.66
513.64	667.21
514.00	679.93
514.37	692.90
514.73	705.98
515.09	719.03
515.45	732.31
515.81	745.82
516.17	759.78
516.53	773.91
516.89	788.14
517.25	802.23
517.61	816.76
517.97	831.30
518.33	845.70
518.69	860.55
519.05	875.61
519.41	890.85
519.77	906.42
520.13	921.89
520.49	937.28
520.85	952.82
521.21	968.62
521.57	984.87
521.93	1000.70
522.29	1017.12
522.65	1033.47
523.01	1049.77
523.37	1065.96
523.73	1082.18
524.09	1098.41
524.45	1114.61
524.81	1131.40
525.17	1148.28
525.53	1165.27
525.89	1182.30
526.25	1199.16
526.61	1215.63
526.97	1232.42
527.33	1248.96
527.68	1265.64
528.04	1282.15
528.40	1298.83
528.76	1315.83
529.12	1332.31
529.48	1349.19
529.84	1365.24
530.20	1381.97
530.56	1399.11
530.91	1416.60
531.27	1433.35
531.63	1449.72
531.99	1466.49
532.35	1482.54
532.71	1498.38
533.07	1514.52
533.42	1530.34
533.78	1546.55
534.14	1562.86
534.50	1578.20
534.86	1594.15
535.21	1609.30
535.57	1625.46
535.93	1641.00
536.29	1655.88
536.65	1671.25
537.00	1686.22
537.36	1701.64
537.72	1716.23
538.08	1730.63
538.44	1744.53
538.79	1758.51
539.15	1772.51
539.51	1786.32
539.87	1800.72
540.22	1814.60
540.58	1828.64
540.94	1842.26
541.29	1855.10
541.65	1867.86
542.01	1881.25
542.37	1893.60
542.72	1906.16
543.08	1917.86
543.44	1930.34
543.79	1941.69
544.15	1952.73
544.51	1964.31
544.87	1975.46
545.22	1986.27
545.58	1996.60
545.94	2006.34
546.29	2016.29
546.65	2026.03
547.01	2035.30
547.36	2044.12
547.72	2052.61
548.07	2060.49
548.43	2068.69
548.79	2076.88
549.14	2084.41
549.50	2091.71
549.86	2099.51
550.21	2106.81
550.57	2113.99
550.92	2120.41
551.28	2127.51
551.64	2134.49
551.99	2141.13
552.35	2147.07
552.70	2153.26
553.06	2159.27
553.41	2165.62
553.77	2171.62
554.13	2177.70
554.48	2183.89
554.84	2189.15
555.19	2194.54
555.55	2199.56
555.90	2204.01
556.26	2208.78
556.61	2213.51
556.97	2217.81
557.32	2221.94
557.68	2226.15
558.03	2230.48
558.39	2234.28
558.74	2238.68
559.10	2242.65
559.45	2246.19
559.81	2250.58
560.16	2254.33
560.52	2257.44
560.87	2260.91
561.23	2263.72
561.58	2266.71
561.94	2269.22
562.29	2271.84
562.64	2274.46
563.00	2277.29
563.35	2280.70
563.71	2283.78
564.06	2287.01
564.42	2289.71
564.77	2292.06
565.12	2294.29
565.48	2296.11
565.83	2298.07
566.19	2299.49
566.54	2300.32
566.89	2301.27
567.25	2301.72
567.60	2302.91
567.96	2304.66
568.31	2305.26
568.66	2306.12
569.02	2306.62
569.37	2306.85
569.72	2307.52
570.08	2307.55
570.43	2307.36
570.78	2306.63
571.14	2305.08
571.49	2303.59
571.84	2303.26
572.20	2302.04
572.55	2300.85
572.90	2299.29
573.26	2297.73
573.61	2296.00
573.96	2294.10
574.31	2291.01
574.67	2288.06
575.02	2284.39
575.37	2280.86
575.72	2277.15
576.08	2273.85
576.43	2270.38
576.78	2266.66
577.13	2263.49
577.49	2260.30
577.84	2256.62
578.19	2252.87
578.54	2249.06
578.90	2244.83
579.25	2239.32
579.60	2234.20
579.95	2229.08
580.30	2223.84
580.66	2218.47
581.01	2213.35
581.36	2208.45
581.71	2204.33
582.06	2199.67
582.42	2195.14
582.77	2189.72
583.12	2184.92
583.47	2180.03
583.82	2174.89
584.17	2169.50
584.53	2163.77
584.88	2157.96
585.23	2152.07
585.58	2146.50
585.93	2141.03
586.28	2136.14
586.63	2130.80
586.98	2125.77
587.34	2121.10
587.69	2116.15
588.04	2110.91
588.39	2105.12
588.74	2098.51
589.09	2092.23
589.44	2085.38
589.79	2079.37
590.14	2073.73
590.49	2067.09
590.84	2060.60
591.19	2054.46
591.54	2047.91
591.89	2040.40
592.25	2033.58
592.60	2026.42
592.95	2018.69
593.30	2011.31
593.65	2003.53
594.00	1996.49
594.35	1989.15
594.70	1980.96
595.05	1973.67
595.40	1966.28
595.75	1958.76
596.10	1952.45
596.45	1945.49
596.80	1939.25
597.15	1932.40
597.50	1925.22
597.85	1918.77
598.19	1912.08
598.54	1905.00
598.89	1898.40
599.24	1892.60
599.59	1885.81
599.94	1879.53
600.29	1873.24
600.64	1866.57
600.99	1859.08
601.34	1852.25
601.69	1845.21
602.04	1838.37
602.39	1831.08
602.74	1824.19
603.08	1817.50
603.43	1810.69
603.78	1803.45
604.13	1796.27
604.48	1788.99
604.83	1782.19
605.18	1775.01
605.53	1767.08
605.87	1759.05
606.22	1751.76
606.57	1743.79
606.92	1736.54
607.27	1729.25
607.62	1722.22
607.96	1714.83
608.31	1708.22
608.66	1700.43
609.01	1692.92
609.36	1685.27
609.70	1677.29
610.05	1669.26
610.40	1661.43
610.75	1653.08
611.10	1645.51
611.44	1637.07
611.79	1629.12
612.14	1620.36
612.49	1611.42
612.83	1603.03
613.18	1594.96
613.53	1586.84
613.88	1578.20
614.22	1569.85
614.57	1561.36
614.92	1553.31
615.27	1545.76
615.61	1537.45
615.96	1529.56
616.31	1521.96
616.65	1514.43
617.00	1506.80
617.35	1499.11
617.70	1490.75
618.04	1482.21
618.39	1474.02
618.74	1466.37
619.08	1458.05
619.43	1450.42
619.78	1443.39
620.12	1436.17
620.47	1428.64
620.82	1420.53
621.16	1413.16
621.51	1405.69
621.85	1398.04
622.20	1389.57
622.55	1381.28
622.89	1373.43
623.24	1365.79
623.59	1358.35
623.93	1350.91
624.28	1343.62
624.62	1336.07
624.97	1328.86
625.32	1322.14
625.66	1314.98
626.01	1307.82
626.35	1300.31
626.70	1292.61
627.04	1284.93
627.39	1277.16
627.73	1269.60
628.08	1262.62
628.43	1255.28
628.77	1247.76
629.12	1240.16
629.46	1232.86
629.81	1225.43
630.15	1218.24
630.50	1210.81
630.84	1202.62
631.19	1194.73
631.53	1187.32
631.88	1179.86
632.22	1172.36
632.57	1165.08
632.91	1157.65
633.26	1150.27
633.60	1142.93
633.95	1135.88
634.29	1128.81
634.64	1122.03
634.98	1114.73
635.32	1107.63
635.67	1101.13
636.01	1094.55
636.36	1087.82
636.70	1081.41
637.05	1074.92
637.39	1068.44
637.73	1061.93
638.08	1056.05
638.42	1050.08
638.77	1043.55
639.11	1036.94
639.45	1030.52
639.80	1023.92
640.14	1017.44
640.49	1010.83
640.83	1004.67
641.17	998.43
641.52	992.16
641.86	985.88
642.20	980.11
642.55	973.81
642.89	967.25
643.23	960.79
643.58	954.98
643.92	948.81
644.26	942.72
644.61	936.78
644.95	930.84
645.29	924.24
645.64	917.48
645.98	911.21
646.32	905.44
646.66	899.48
647.01	893.68
647.35	888.05
647.69	882.27
648.04	876.69
648.38	870.82
648.72	864.81
649.06	858.75
649.41	852.77
649.75	846.71
650.09	840.83
650.43	835.00
650.78	828.83
651.12	822.90
651.46	817.13
651.80	811.38
652.14	805.98
652.49	800.64
652.83	795.59
653.17	789.83
653.51	784.01
653.85	778.63
654.20	773.01
654.54	767.02
654.88	761.35
655.22	755.45
655.56	749.84
655.90	744.40
656.25	739.11
656.59	733.83
656.93	728.80
657.27	723.64
657.61	718.20
657.95	713.11
658.29	707.99
658.64	702.85
658.98	697.53
659.32	692.01
659.66	686.85
660.00	681.46
660.34	676.59
660.68	671.79
661.02	666.73
661.36	662.02
661.70	657.52
662.05	653.19
662.39	648.89
662.73	644.48
663.07	640.15
663.41	635.70
663.75	631.20
664.09	626.65
664.43	622.27
664.77	618.18
665.11	613.93
665.45	609.85
665.79	605.75
666.13	601.62
666.47	597.57
666.81	593.42
667.15	589.32
667.49	585.42
667.83	581.56
668.17	577.64
668.51	573.60
668.85	569.64
669.19	565.80
669.53	561.98
669.87	558.09
670.21	554.43
670.55	550.87
670.89	547.45
671.23	544.07
671.57	540.62
671.91	537.14
672.25	533.72
672.58	530.24
672.92	526.82
673.26	523.64
673.60	520.51
673.94	517.42
674.28	514.56
674.62	511.65
674.96	508.55
675.30	505.65
675.64	502.71
675.97	499.90
676.31	497.04
676.65	494.05
676.99	491.35
677.33	488.49
677.67	485.64
678.01	482.56
678.34	479.56
678.68	476.65
679.02	473.78
679.36	471.03
679.70	468.31
680.04	465.59
680.37	462.73
680.71	459.94
681.05	457.32
681.39	454.61
681.73	451.95
682.06	449.49
682.40	446.92
682.74	444.41
683.08	441.90
683.42	439.34
683.75	436.83
684.09	434.33
684.43	431.87
684.77	429.42
685.10	427.12
685.44	424.81
685.78	422.56
686.12	420.35
686.45	418.09
686.79	415.79
687.13	413.59
687.46	411.49
687.80	409.40
688.14	407.19
688.48	405.11
688.81	402.84
689.15	400.66
689.49	398.51
689.82	396.40
690.16	394.27
690.50	392.26
690.83	390.34
691.17	388.28
691.51	386.38
691.84	384.54
692.18	382.61
692.52	380.60
692.85	378.65
693.19	376.75
693.52	374.96
693.86	373.15
694.20	371.38
694.53	369.54
694.87	367.66
695.21	365.88
695.54	364.09
695.88	362.40
696.21	360.69
696.55	359.06
696.88	357.40
697.22	355.78
697.56	354.22
697.89	352.55
698.23	350.98
698.56	349.31
698.90	347.67
699.23	346.02
699.57	344.52
699.90	343.03
700.24	341.49
700.58	339.88
700.91	338.35
701.25	336.90
701.58	335.53
701.92	334.15
702.25	332.78
702.59	331.39
702.92	330.09
703.26	328.76
703.59	327.46
703.93	326.28
704.26	325.08
704.60	323.78
704.93	322.56
705.26	321.34
705.60	320.19
705.93	319.12
706.27	318.13
706.60	317.06
706.94	315.95
707.27	314.84
707.61	313.82
707.94	312.85
708.27	311.76
708.61	310.71
708.94	309.73
709.28	308.73
709.61	307.79
709.94	306.82
710.28	305.81
710.61	304.89
710.95	303.83
711.28	302.91
711.61	301.95
711.95	301.02
712.28	300.11
712.61	299.14
712.95	298.22
713.28	297.30
713.61	296.39
713.95	295.52
714.28	294.70
714.61	293.82
714.95	293.00
715.28	292.17
715.61	291.27
715.95	290.47
716.28	289.63
716.61	288.82
716.95	288.01
717.28	287.30
717.61	286.51
717.94	285.76
718.28	284.97
718.61	284.27
718.94	283.62
719.27	282.93
719.61	282.29
719.94	281.61
720.27	280.91
720.60	280.27
720.94	279.62
721.27	279.03
721.60	278.48
721.93	277.87
722.27	277.29
722.60	276.76
722.93	276.16
723.26	275.66
723.59	275.10
723.93	274.56
724.26	273.97
724.59	273.43
724.92	272.91
725.25	272.40
725.59	271.86
725.92	271.34
726.25	270.83
726.58	270.32
726.91	269.82
727.24	269.40
727.57	268.92
727.91	268.40
728.24	267.91
728.57	267.41
728.90	266.96
729.23	266.44
729.56	265.98
729.89	265.49
730.22	264.98
730.55	264.53
730.89	264.09
731.22	263.66
731.55	263.21
731.88	262.77
732.21	262.32
732.54	261.90
732.87	261.45
733.20	261.08
733.53	260.68
733.86	260.32
734.19	259.88
734.52	259.53
734.85	259.25
735.18	258.84
735.51	258.49
735.84	258.11
736.17	257.78
736.50	257.38
736.83	257.19
737.16	256.85
737.49	256.50
737.82	256.13
738.15	255.79
738.48	255.47
738.81	255.13
739.14	254.84
739.47	254.52
739.80	254.24
740.13	253.93
740.46	253.63
740.79	253.31
741.12	252.99
741.45	252.66
741.78	252.30
742.11	252.00
742.44	251.64
742.77	251.33
743.10	251.01
743.43	250.73
743.75	250.32
744.08	250.19
744.41	249.92
744.74	249.65
745.07	249.38
745.40	249.10
745.73	248.91
746.06	248.62
746.39	248.37
746.71	248.09
747.04	247.81
747.37	247.53
747.70	247.27
748.03	247.05
748.36	246.83
748.68	246.63
749.01	246.42
749.34	246.22
749.67	246.00
750.00	245.81
750.33	245.69
750.65	245.48
750.98	245.12
751.31	244.88
751.64	244.66
751.97	244.51
752.29	244.30
752.62	244.03
752.95	243.80
753.28	243.58
753.60	243.36
753.93	243.19
754.26	243.01
754.59	242.78
754.91	242.58
755.24	242.41
755.57	242.18
755.90	241.98
756.22	241.78
756.55	241.59
756.88	241.42
757.20	241.15
757.53	241.00
757.86	240.84
758.19	240.70
758.51	240.59
758.84	240.39
759.17	240.22
759.49	240.07
759.82	239.97
760.15	239.80
760.47	239.67
760.80	239.47
761.13	239.34
761.45	239.21
761.78	239.08
762.11	238.93
762.43	238.78
762.76	238.63
763.08	238.50
763.41	238.39
763.74	238.25
764.06	238.15
764.39	237.99
764.71	237.84
765.04	237.70
765.37	237.53
765.69	237.39
766.02	237.27
766.34	237.17
766.67	237.02
767.00	236.95
767.32	236.90
767.65	236.86
767.97	236.75
768.30	236.64
768.62	236.53
768.95	236.41
769.27	236.30
769.60	236.21
769.92	236.09
770.25	235.96
770.57	235.82
770.90	235.73
771.22	235.61
771.55	235.49
771.87	235.37
772.20	235.26
772.52	235.25
772.85	235.29
773.17	235.19
773.50	235.07
773.82	234.99
774.15	234.84
774.47	234.68
774.80	234.58
775.12	234.47
775.45	234.35
775.77	234.23
776.09	234.14
776.42	234.06
776.74	234.00
777.07	233.91
777.39	233.83
777.72	233.71
778.04	233.65
778.36	233.59
778.69	233.56
779.01	233.49
779.33	233.31
779.66	233.10
779.98	232.97
780.31	232.92
780.63	232.85
780.95	232.78
781.28	232.71
781.60	232.61
781.92	232.52
782.25	232.45
782.57	232.40
782.89	232.35
783.22	232.27
783.54	232.17
783.86	232.12
784.19	232.05
784.51	232.01
784.83	231.95
785.16	231.89
785.48	231.82
785.80	231.76
786.12	231.72
786.45	231.69
786.77	231.67
787.09	231.58
787.42	231.52
787.74	231.45
788.06	231.41
788.38	231.38
788.71	231.36
789.03	231.33
789.35	231.28
789.67	231.24
789.99	231.21
790.32	231.18
790.64	231.17
790.96	231.23
791.28	231.16
791.61	231.13
791.93	231.10
792.25	231.04
792.57	231.09
792.89	231.03
793.21	230.97
793.54	230.93
793.86	230.88
794.18	230.87
794.50	230.83
794.82	230.81
795.14	230.79
795.47	230.79
795.79	230.78
796.11	230.77
796.43	230.72
796.75	230.68
797.07	230.67
797.39	230.62
797.71	230.52
798.04	230.52
798.36	230.50
798.68	230.48
799.00	230.46
799.32	230.38
799.64	230.39
799.96	230.37
800.28	230.35
800.60	230.39
800.92	230.34
801.24	230.32
801.56	230.27
801.89	230.26
802.21	230.23
802.53	230.19
802.85	230.17
803.17	230.17
803.49	230.13
803.81	230.09
804.13	230.06
804.45	230.04
804.77	229.99
805.09	229.95
805.41	229.90
805.73	229.86
806.05	229.78
806.37	229.77
806.69	229.72
807.01	229.68
807.33	229.65
807.65	229.61
807.97	229.64
808.28	229.62
808.60	229.57
808.92	229.53
809.24	229.56
809.56	229.51
809.88	229.46
810.20	229.47
810.52	229.43
810.84	229.40
811.16	229.38
811.48	229.35
811.80	229.37
812.12	229.33
812.43	229.33
812.75	229.34
813.07	229.30
813.39	229.34
813.71	229.33
814.03	229.29
814.35	229.26
814.67	229.19
814.98	229.15
815.30	229.10
815.62	229.07
815.94	228.99
816.26	229.02
816.58	228.97
816.89	228.96
817.21	228.92
817.53	228.88
817.85	228.86
818.17	228.84
818.48	228.79
818.80	228.79
819.12	228.78
819.44	228.73
819.76	228.69
820.07	228.65
820.39	228.61
820.71	228.60
821.03	228.58
821.34	228.55
821.66	228.55
821.98	228.57
822.30	228.55
822.61	228.56
822.93	228.48
823.25	228.49
823.57	228.44
823.88	228.45
824.20	228.44
824.52	228.44
824.83	228.41
825.15	228.35
825.47	228.35
825.79	228.33
826.10	228.30
826.42	228.28
826.74	228.25
827.05	228.23
827.37	228.23
827.69	228.20
828.00	228.18
828.32	228.19
828.64	228.15
828.95	228.17
829.27	228.13
829.58	228.11
829.90	228.14
830.22	228.15
830.53	228.15
830.85	228.13
831.17	228.09
831.48	228.09
831.80	228.14
832.11	228.11
832.43	228.05
832.75	228.08
833.06	228.16
833.38	228.13
833.69	228.15
834.01	228.13
834.32	228.13
834.64	228.10
834.96	228.05
835.27	228.05
835.59	228.01
835.90	228.02
836.22	228.00
836.53	227.98
836.85	227.97
837.16	228.05
837.48	228.06
837.79	228.11
838.11	228.12
838.42	228.10
838.74	228.14
839.05	228.15
839.37	228.14
839.68	228.08
840.00	228.08
840.31	228.07
840.63	228.07
840.94	228.06
841.26	228.08
841.57	228.11
841.88	228.12
842.20	228.13
842.51	228.14
842.83	228.17
843.14	228.24
843.46	228.26
843.77	228.18
844.08	228.20
844.40	228.17
844.71	228.15
845.03	228.12
845.34	228.07
845.65	228.08
845.97	228.09
846.28	228.09
846.60	228.11
846.91	228.13
847.22	228.13
847.54	228.14
847.85	228.13
848.16	228.11
848.48	228.11
848.79	228.14
849.10	228.11
849.42	228.11
849.73	228.01
850.04	227.94
850.36	227.93
850.67	227.93
850.98	227.92
851.30	227.90
851.61	227.93
851.92	227.93
852.23	227.95
852.55	227.95
852.86	227.93
853.17	227.95
853.49	227.93
853.80	227.94
854.11	227.96
854.42	227.96
854.74	227.93
855.05	227.91
855.36	227.84
855.67	227.83
855.99	227.82
856.30	227.91
856.61	227.93
856.92	227.89
857.23	227.87
857.55	227.83
857.86	227.81
858.17	227.77
858.48	227.73
858.79	227.72
859.11	227.70
859.42	227.68
859.73	227.64
860.04	227.60
860.35	227.56
860.66	227.50
860.98	227.48
861.29	227.51
861.60	227.51
861.91	227.54
862.22	227.54
862.53	227.48
862.84	227.33
863.16	227.36
863.47	227.34
863.78	227.33
864.09	227.35
864.40	227.38
864.71	227.39
865.02	227.41
865.33	227.37
865.64	227.31
865.95	227.30
866.27	227.35
866.58	227.31
866.89	227.31
867.20	227.33
867.51	227.32
867.82	227.32
868.13	227.34
868.44	227.33
868.75	227.33
869.06	227.38
869.37	227.40
869.68	227.35
869.99	227.40
870.30	227.37
870.61	227.36
870.92	227.36
871.23	227.33
871.54	227.33
871.85	227.36
872.16	227.40
872.47	227.39
872.78	227.33
873.09	227.37
873.40	227.34
873.71	227.34
874.02	227.33
874.33	227.33
874.64	227.33
874.95	227.29
875.26	227.29
875.56	227.31
875.87	227.35
876.18	227.35
876.49	227.41
876.80	227.44
877.11	227.44
877.42	227.44
877.73	227.45
878.04	227.42
878.35	227.45
878.66	227.45
878.96	227.47
879.27	227.46
879.58	227.45
879.89	227.47
880.20	227.49
880.51	227.54
880.82	227.56
881.12	227.50
881.43	227.50
881.74	227.49
882.05	227.47
882.36	227.46
882.67	227.48
882.97	227.38
883.28	227.35
883.59	227.35
883.90	227.31
884.21	227.35
884.51	227.37
884.82	227.34
885.13	227.33
885.44	227.34
885.74	227.34
886.05	227.35
886.36	227.35
886.67	227.33
886.98	227.34
887.28	227.34
887.59	227.35
887.90	227.36
888.20	227.37
888.51	227.38
888.82	227.37
889.13	227.35
889.43	227.43
889.74	227.46
890.05	227.47
890.35	227.48
890.66	227.45
890.97	227.46
891.28	227.44
891.58	227.45
891.89	227.44
892.20	227.44
892.50	227.44
892.81	227.42
893.12	227.41
893.42	227.37
893.73	227.34
894.04	227.34
894.34	227.37
894.65	227.38
894.95	227.36
895.26	227.34
895.57	227.39
895.87	227.31
896.18	227.31
896.48	227.28
896.79	227.27
897.10	227.31
897.40	227.30
897.71	227.32
898.01	227.30
898.32	227.32
898.63	227.33
898.93	227.32
899.24	227.33
899.54	227.30
899.85	227.31
900.15	227.31
900.46	227.33
900.76	227.34
901.07	227.29
901.38	227.30
901.68	227.31
901.99	227.31
902.29	227.29
902.60	227.29
902.90	227.29
903.21	227.31
903.51	227.27
903.82	227.30
904.12	227.30
904.43	227.28
904.73	227.21
905.03	227.21
905.34	227.29
905.64	227.26
905.95	227.26
906.25	227.21
906.56	227.22
906.86	227.16
907.17	227.12
907.47	227.13
907.77	227.09
908.08	227.06
908.38	226.99
908.69	227.02
908.99	227.00
909.30	227.01
909.60	226.99
909.90	227.00
910.21	226.94
910.51	226.92
910.81	226.92
911.12	226.97
911.42	226.99
911.73	226.90
912.03	226.89
912.33	226.92
912.64	226.93
912.94	226.92
913.24	226.95
913.55	226.96
913.85	226.97
914.15	227.05
914.46	227.04
914.76	227.05
915.06	227.04
915.37	227.05
915.67	227.05
915.97	227.06
916.27	227.04
916.58	227.07
916.88	227.07
917.18	227.06
917.49	227.10
917.79	227.09
918.09	227.09
918.39	227.13
918.70	227.12
919.00	227.15
919.30	227.21
919.60	227.21
919.91	227.19
920.21	227.21
920.51	227.15
920.81	227.17
921.12	227.20
921.42	227.19
921.72	227.21
922.02	227.20
922.32	227.23
922.63	227.24
922.93	227.27
923.23	227.27
923.53	227.28
923.83	227.24
924.13	227.24
924.44	227.27
924.74	227.30
925.04	227.34
925.34	227.33
925.64	227.27
925.94	227.28
926.24	227.35
926.55	227.32
926.85	227.36
927.15	227.37
927.45	227.36
927.75	227.38
928.05	227.37
928.35	227.38
928.65	227.36
928.95	227.37
929.26	227.34
929.56	227.34
929.86	227.39
930.16	227.38
930.46	227.40
930.76	227.41
931.06	227.39
931.36	227.34
931.66	227.37
931.96	227.37
932.26	227.38
932.56	227.34
932.86	227.36
933.16	227.35
933.46	227.34
933.76	227.34
934.06	227.34
934.36	227.40
934.66	227.40
934.96	227.41
935.26	227.43
935.56	227.45
935.86	227.45
936.16	227.43
936.46	227.38
936.76	227.34
937.06	227.29
937.36	227.26
937.66	227.29
937.96	227.28
938.26	227.26
938.56	227.23
938.86	227.25
939.16	227.28
939.46	227.28
939.76	227.29
940.06	227.27
940.35	227.24
940.65	227.16
940.95	227.14
941.25	227.12
941.55	227.10
941.85	227.10
942.15	227.13
942.45	227.14
942.75	227.21
943.04	227.24
943.34	227.26
943.64	227.24
943.94	227.19
944.24	227.19
944.54	227.21
944.84	227.19
945.13	227.14
945.43	227.11
945.73	227.12
946.03	227.08
946.33	227.09
946.62	227.08
946.92	227.10
947.22	227.10
947.52	227.10
947.82	227.11
948.11	227.09
948.41	227.06
948.71	227.04
949.01	226.97
949.31	226.94
949.60	226.96
949.90	227.00
950.20	227.01
950.50	226.99
950.79	226.98
951.09	227.02
951.39	227.03
951.69	227.00
951.98	227.04
952.28	227.08
952.58	227.07
952.87	227.07
953.17	227.06
953.47	227.07
953.76	227.06
954.06	227.02
954.36	227.01
954.66	227.00
954.95	227.02
955.25	227.06
955.55	227.10
955.84	227.08
956.14	227.06
956.44	227.09
956.73	227.05
957.03	227.07
957.32	227.06
957.62	227.08
957.92	227.10
958.21	227.06
958.51	227.13
958.81	227.14
959.10	227.17
959.40	227.19
959.69	227.19
959.99	227.20
960.29	227.22
960.58	227.24
960.88	227.28
961.17	227.26
961.47	227.28
961.76	227.26
962.06	227.26
962.36	227.27
962.65	227.26
962.95	227.31
963.24	227.27
963.54	227.28
963.83	227.28
964.13	227.29
964.42	227.23
964.72	227.18
965.01	227.18
965.31	227.16
965.60	227.14
965.90	227.19
966.19	227.18
966.49	227.19
966.78	227.17
967.08	227.16
967.37	227.16
967.67	227.15
967.96	227.17
968.26	227.14
968.55	227.15
968.85	227.13
969.14	227.11
969.43	227.14
969.73	227.09
970.02	227.09
970.32	227.08
970.61	227.11
970.91	227.09
971.20	227.08
971.49	227.08
971.79	227.10
972.08	227.01
972.38	227.01
972.67	227.00
972.96	227.02
973.26	227.00
973.55	227.03
973.85	227.03
974.14	227.01
974.43	227.04
974.73	227.00
975.02	227.00
975.31	227.01
975.61	227.00
975.90	226.99
976.19	226.98
976.49	226.97
976.78	226.98
977.07	226.95
977.37	226.98
977.66	226.97
977.95	226.95
978.24	226.96
978.54	226.98
978.83	226.94
979.12	226.92
979.42	226.93
979.71	226.90
980.00	226.88
980.29	226.87
980.59	226.86
980.88	226.92
981.17	226.93
981.46	226.89
981.76	226.87
982.05	226.91
982.34	226.94
982.63	226.95
982.93	226.96
983.22	226.99
983.51	226.97
983.80	227.01
984.09	227.03
984.39	227.04
984.68	227.02
984.97	227.04
985.26	227.05
985.55	227.06
985.85	227.05
986.14	227.06
986.43	227.06
986.72	227.04
987.01	227.00
987.30	227.00
987.59	227.03
987.89	227.07
988.18	227.06
988.47	227.04
988.76	227.05
989.05	227.04
989.34	227.03
989.63	227.06
989.92	227.04
990.22	227.04
990.51	227.03
990.80	227.02
991.09	227.05
991.38	227.07
991.67	227.08
991.96	227.09
992.25	227.10
992.54	227.09
992.83	227.08
993.12	227.08
993.41	227.09
993.70	227.10
993.99	227.12
994.28	227.10
994.58	227.12
994.87	227.10
995.16	227.13
995.45	227.11
995.74	227.08
996.03	227.06
996.32	227.06
996.61	227.09
996.90	227.08
997.19	227.09
997.48	227.08
997.77	227.04
998.06	227.02
998.34	226.99
998.63	227.03
998.92	227.05
999.21	227.04
999.50	227.05
999.79	227.01
1000.08	226.99
1000.37	227.03
1000.66	227.00
1000.95	227.03
1001.24	227.00
1001.53	227.02
1001.82	227.02
1002.11	227.02
1002.40	227.06
1002.68	227.08
1002.97	227.15
1003.26	227.13
1003.55	227.13
1003.84	227.15
1004.13	227.20
1004.42	227.21
1004.71	227.21
1004.99	227.19
1005.28	227.26
1005.57	227.25
1005.86	227.22
1006.15	227.22
1006.44	227.20
1006.72	227.22
1007.01	227.17
1007.30	227.18
1007.59	227.16
1007.88	227.16
1008.17	227.16
1008.45	227.13
1008.74	227.08
1009.03	227.05
1009.32	227.03
1009.60	227.00
1009.89	226.98
1010.18	226.92
1010.47	226.90
1010.76	226.88
1011.04	226.86
1011.33	226.85
1011.62	226.86
1011.91	226.90
1012.19	226.90
1012.48	226.90
1012.77	226.88
1013.05	226.95
1013.34	226.96
1013.63	226.93
1013.92	226.94
1014.20	226.91
1014.49	226.88
1014.78	226.89
1015.06	226.83
1015.35	226.83
1015.64	226.85
1015.92	226.86
1016.21	226.86
1016.50	226.90
1016.78	226.90
1017.07	226.90
1017.36	226.88
1017.64	226.84
1017.93	226.84
1018.22	226.85
1018.50	226.85
1018.79	226.86
1019.08	226.82
1019.36	226.81
1019.65	226.81
1019.93	226.83
1020.22	226.87
1020.51	226.95
1020.79	226.94
1021.08	226.96
1021.36	226.68
1021.65	227.21
1021.94	227.09
1022.22	226.82
1022.51	226.65
1022.79	227.59
1023.08	227.11
1023.36	228.37
1023.65	226.69
>>>>>End Processed Spectral Data<<<<<
