SpectraSuite Data File
++++++++++++++++++++++++++++++++++++
Date: Fri Feb 01 16:08:01 EST 2013
User: group
Dark Spectrum Present: No
Reference Spectrum Present: No
Number of Sampled Component Spectra: 1
Spectrometers: USB2E7196
Integration Time (usec): 35000 (USB2E7196)
Spectra Averaged: 100 (USB2E7196)
Boxcar Smoothing: 10 (USB2E7196)
Correct for Electrical Dark: No (USB2E7196)
Strobe/Lamp Enabled: No (USB2E7196)
Correct for Detector Non-linearity: No (USB2E7196)
Correct for Stray Light: No (USB2E7196)
Number of Pixels in Processed Spectrum: 2048
>>>>>Begin Processed Spectral Data<<<<<
339.09	0.00
339.48	214.51
339.86	216.38
340.24	217.95
340.63	218.80
341.01	221.83
341.39	221.24
341.78	223.48
342.16	223.31
342.54	225.10
342.93	212.94
343.31	223.71
343.69	224.26
344.07	224.67
344.46	225.08
344.84	225.49
345.22	225.73
345.60	226.00
345.99	226.15
346.37	226.31
346.75	226.36
347.13	226.42
347.52	226.48
347.90	226.53
348.28	226.60
348.66	226.64
349.05	226.65
349.43	226.67
349.81	226.73
350.19	226.80
350.57	226.85
350.96	226.92
351.34	226.98
351.72	227.09
352.10	227.22
352.48	227.28
352.87	227.29
353.25	227.33
353.63	227.42
354.01	227.49
354.39	227.57
354.77	227.66
355.15	227.76
355.54	227.84
355.92	227.91
356.30	227.98
356.68	228.10
357.06	228.18
357.44	228.23
357.82	228.29
358.20	228.32
358.58	228.39
358.97	228.49
359.35	228.59
359.73	228.63
360.11	228.66
360.49	228.72
360.87	228.77
361.25	228.87
361.63	228.92
362.01	228.99
362.39	229.04
362.77	229.09
363.15	229.11
363.53	229.12
363.91	229.12
364.29	229.11
364.67	229.06
365.05	229.07
365.43	229.09
365.81	229.12
366.19	229.19
366.57	229.23
366.95	229.19
367.33	229.15
367.71	229.15
368.09	229.17
368.47	229.14
368.85	229.13
369.23	229.12
369.61	229.09
369.99	229.04
370.37	229.01
370.75	229.03
371.13	229.00
371.51	228.95
371.89	228.94
372.27	228.93
372.65	228.86
373.03	228.80
373.41	228.75
373.78	228.67
374.16	228.55
374.54	228.47
374.92	228.40
375.30	228.34
375.68	228.24
376.06	228.16
376.44	228.07
376.82	228.04
377.19	227.95
377.57	227.84
377.95	227.77
378.33	227.70
378.71	227.58
379.09	227.50
379.47	227.44
379.84	227.34
380.22	227.25
380.60	227.17
380.98	227.13
381.36	227.04
381.73	226.99
382.11	226.95
382.49	226.88
382.87	226.84
383.25	226.77
383.62	226.85
384.00	226.78
384.38	226.76
384.76	226.71
385.13	226.69
385.51	226.66
385.89	226.57
386.27	226.49
386.64	226.44
387.02	226.41
387.40	226.39
387.78	226.37
388.15	226.33
388.53	226.30
388.91	226.27
389.29	226.21
389.66	226.20
390.04	226.19
390.42	226.18
390.79	226.16
391.17	226.16
391.55	226.04
391.92	226.07
392.30	226.09
392.68	226.06
393.05	226.05
393.43	226.03
393.81	226.07
394.18	226.10
394.56	226.13
394.94	226.17
395.31	226.20
395.69	226.25
396.06	226.31
396.44	226.36
396.82	226.38
397.19	226.52
397.57	226.55
397.95	226.61
398.32	226.66
398.70	226.71
399.07	226.79
399.45	226.85
399.82	226.91
400.20	226.94
400.58	227.01
400.95	227.06
401.33	227.20
401.70	227.34
402.08	227.42
402.45	227.54
402.83	227.66
403.20	227.74
403.58	227.84
403.95	227.97
404.33	228.09
404.71	228.23
405.08	228.38
405.46	228.56
405.83	228.69
406.21	228.81
406.58	228.99
406.96	229.16
407.33	229.34
407.70	229.53
408.08	229.81
408.45	230.03
408.83	230.26
409.20	230.48
409.58	230.69
409.95	230.94
410.33	231.20
410.70	231.44
411.08	231.71
411.45	232.01
411.82	232.29
412.20	232.66
412.57	233.06
412.95	233.35
413.32	233.73
413.69	234.10
414.07	234.55
414.44	235.01
414.82	235.47
415.19	235.98
415.56	236.51
415.94	237.06
416.31	237.71
416.68	238.35
417.06	239.04
417.43	239.67
417.81	240.46
418.18	241.21
418.55	242.01
418.93	242.88
419.30	243.78
419.67	244.71
420.04	245.65
420.42	246.61
420.79	247.82
421.16	248.92
421.54	250.13
421.91	251.32
422.28	252.56
422.66	253.92
423.03	255.24
423.40	256.59
423.77	257.96
424.15	259.36
424.52	260.84
424.89	262.44
425.26	263.99
425.64	265.40
426.01	266.98
426.38	268.69
426.75	270.39
427.13	272.08
427.50	273.85
427.87	275.73
428.24	277.63
428.61	279.30
428.99	281.28
429.36	283.37
429.73	285.44
430.10	287.43
430.47	289.47
430.85	291.56
431.22	293.78
431.59	296.15
431.96	298.39
432.33	300.86
432.70	303.19
433.08	306.00
433.45	308.66
433.82	311.25
434.19	314.10
434.56	316.88
434.93	319.55
435.30	322.18
435.68	325.04
436.05	327.85
436.42	330.67
436.79	333.18
437.16	335.85
437.53	338.68
437.90	341.46
438.27	344.18
438.64	347.02
439.01	349.59
439.38	351.82
439.75	354.01
440.13	356.51
440.50	358.82
440.87	360.64
441.24	362.58
441.61	364.74
441.98	366.22
442.35	368.06
442.72	369.91
443.09	371.71
443.46	372.71
443.83	373.32
444.20	373.80
444.57	374.63
444.94	374.98
445.31	375.33
445.68	375.74
446.05	375.82
446.42	375.41
446.79	375.03
447.16	374.58
447.53	374.23
447.90	373.03
448.27	371.90
448.64	370.34
449.01	369.22
449.37	367.29
449.74	365.37
450.11	363.11
450.48	360.60
450.85	358.09
451.22	355.94
451.59	353.93
451.96	352.02
452.33	349.38
452.70	347.01
453.07	344.17
453.43	341.27
453.80	338.48
454.17	335.84
454.54	333.30
454.91	330.56
455.28	327.90
455.65	325.42
456.02	322.98
456.38	320.86
456.75	318.17
457.12	315.91
457.49	313.69
457.86	311.49
458.23	309.69
458.59	307.66
458.96	305.63
459.33	303.77
459.70	301.91
460.07	300.47
460.43	298.77
460.80	297.14
461.17	295.71
461.54	294.25
461.91	292.82
462.27	291.34
462.64	290.10
463.01	288.77
463.38	287.48
463.74	286.12
464.11	284.98
464.48	283.96
464.85	282.86
465.21	282.01
465.58	281.13
465.95	280.04
466.32	279.13
466.68	278.20
467.05	277.27
467.42	276.37
467.78	275.41
468.15	274.50
468.52	273.88
468.88	273.03
469.25	272.25
469.62	271.62
469.98	270.99
470.35	270.36
470.72	269.74
471.08	269.09
471.45	268.57
471.82	268.00
472.18	267.41
472.55	266.97
472.92	266.47
473.28	266.04
473.65	265.61
474.02	265.18
474.38	264.81
474.75	264.49
475.11	264.16
475.48	263.87
475.85	263.61
476.21	263.36
476.58	263.18
476.94	262.99
477.31	262.83
477.67	262.69
478.04	262.61
478.41	262.58
478.77	262.64
479.14	262.55
479.50	262.58
479.87	262.66
480.23	262.76
480.60	262.84
480.96	262.92
481.33	263.15
481.69	263.32
482.06	263.50
482.42	263.71
482.79	263.95
483.15	264.30
483.52	264.71
483.88	265.07
484.25	265.45
484.61	265.91
484.98	266.36
485.34	266.93
485.71	267.52
486.07	268.11
486.44	268.70
486.80	269.47
487.17	270.20
487.53	271.00
487.90	271.83
488.26	272.73
488.62	273.69
488.99	274.61
489.35	275.66
489.72	276.82
490.08	278.03
490.44	279.27
490.81	280.62
491.17	281.97
491.54	283.42
491.90	284.96
492.26	286.61
492.63	288.34
492.99	290.11
493.36	292.03
493.72	294.05
494.08	296.16
494.45	298.39
494.81	300.77
495.17	303.21
495.54	305.76
495.90	308.45
496.26	311.26
496.63	314.21
496.99	317.34
497.35	320.60
497.72	323.99
498.08	327.51
498.44	331.16
498.80	335.12
499.17	339.23
499.53	343.47
499.89	347.88
500.26	352.39
500.62	357.05
500.98	362.02
501.34	367.11
501.71	372.46
502.07	377.91
502.43	383.51
502.79	389.36
503.16	395.49
503.52	401.80
503.88	408.18
504.24	414.87
504.60	421.78
504.97	428.90
505.33	436.23
505.69	443.96
506.05	451.82
506.41	459.70
506.78	467.86
507.14	476.30
507.50	484.99
507.86	494.07
508.22	503.26
508.59	512.50
508.95	522.11
509.31	531.92
509.67	541.96
510.03	552.38
510.39	562.92
510.75	573.75
511.12	584.69
511.48	595.98
511.84	607.43
512.20	618.94
512.56	630.94
512.92	643.14
513.28	655.52
513.64	667.92
514.00	680.60
514.37	693.50
514.73	706.57
515.09	719.60
515.45	732.81
515.81	746.44
516.17	760.32
516.53	774.48
516.89	788.62
517.25	802.83
517.61	817.09
517.97	831.49
518.33	845.86
518.69	860.64
519.05	875.66
519.41	890.74
519.77	906.18
520.13	921.52
520.49	936.85
520.85	952.13
521.21	967.84
521.57	984.05
521.93	999.74
522.29	1016.00
522.65	1032.10
523.01	1048.30
523.37	1064.29
523.73	1080.40
524.09	1096.33
524.45	1112.60
524.81	1129.20
525.17	1145.98
525.53	1162.87
525.89	1179.65
526.25	1196.36
526.61	1212.70
526.97	1229.50
527.33	1245.98
527.68	1262.51
528.04	1278.97
528.40	1295.55
528.76	1312.60
529.12	1329.11
529.48	1346.01
529.84	1362.01
530.20	1378.66
530.56	1395.69
530.91	1412.96
531.27	1429.65
531.63	1446.06
531.99	1462.64
532.35	1478.52
532.71	1494.33
533.07	1510.45
533.42	1526.31
533.78	1542.39
534.14	1558.57
534.50	1573.73
534.86	1589.58
535.21	1604.70
535.57	1620.51
535.93	1636.00
536.29	1650.63
536.65	1665.62
537.00	1680.13
537.36	1695.39
537.72	1709.89
538.08	1724.11
538.44	1737.94
538.79	1751.79
539.15	1765.41
539.51	1779.08
539.87	1793.30
540.22	1806.96
540.58	1820.60
540.94	1833.90
541.29	1846.64
541.65	1859.12
542.01	1872.36
542.37	1884.44
542.72	1896.85
543.08	1908.63
543.44	1920.89
543.79	1932.14
544.15	1943.03
544.51	1954.70
544.87	1965.59
545.22	1976.37
545.58	1986.65
545.94	1996.38
546.29	2006.22
546.65	2016.06
547.01	2025.16
547.36	2034.04
547.72	2042.60
548.07	2050.58
548.43	2058.71
548.79	2066.71
549.14	2074.35
549.50	2081.48
549.86	2089.19
550.21	2096.44
550.57	2103.60
550.92	2110.21
551.28	2117.21
551.64	2124.48
551.99	2130.94
552.35	2137.14
552.70	2143.28
553.06	2149.31
553.41	2155.52
553.77	2161.53
554.13	2167.52
554.48	2173.61
554.84	2179.01
555.19	2184.09
555.55	2189.34
555.90	2193.84
556.26	2198.74
556.61	2203.41
556.97	2207.98
557.32	2212.11
557.68	2216.12
558.03	2220.30
558.39	2223.90
558.74	2228.53
559.10	2232.29
559.45	2236.05
559.81	2240.20
560.16	2244.05
560.52	2247.19
560.87	2250.67
561.23	2253.35
561.58	2256.39
561.94	2259.05
562.29	2261.19
562.64	2264.10
563.00	2266.62
563.35	2270.06
563.71	2273.04
564.06	2276.33
564.42	2279.05
564.77	2281.67
565.12	2284.25
565.48	2286.30
565.83	2288.25
566.19	2289.58
566.54	2290.36
566.89	2291.46
567.25	2292.23
567.60	2293.41
567.96	2295.18
568.31	2296.01
568.66	2297.17
569.02	2297.78
569.37	2298.12
569.72	2299.35
570.08	2299.36
570.43	2299.38
570.78	2298.86
571.14	2297.36
571.49	2295.99
571.84	2295.72
572.20	2294.67
572.55	2293.39
572.90	2291.73
573.26	2290.29
573.61	2288.50
573.96	2286.96
574.31	2284.09
574.67	2281.11
575.02	2277.63
575.37	2274.25
575.72	2270.46
576.08	2267.08
576.43	2263.70
576.78	2260.03
577.13	2256.51
577.49	2253.49
577.84	2249.96
578.19	2246.31
578.54	2242.80
578.90	2238.75
579.25	2233.17
579.60	2228.20
579.95	2223.33
580.30	2218.29
580.66	2213.15
581.01	2208.33
581.36	2203.29
581.71	2199.10
582.06	2194.63
582.42	2190.24
582.77	2184.99
583.12	2180.63
583.47	2176.12
583.82	2171.18
584.17	2166.07
584.53	2160.70
584.88	2155.00
585.23	2149.28
585.58	2143.76
585.93	2138.35
586.28	2133.59
586.63	2128.54
586.98	2123.53
587.34	2118.80
587.69	2114.13
588.04	2108.96
588.39	2103.42
588.74	2097.01
589.09	2090.85
589.44	2084.14
589.79	2078.07
590.14	2072.50
590.49	2065.73
590.84	2059.08
591.19	2053.15
591.54	2046.59
591.89	2039.27
592.25	2032.66
592.60	2025.48
592.95	2017.86
593.30	2010.59
593.65	2002.88
594.00	1995.94
594.35	1988.61
594.70	1980.51
595.05	1973.16
595.40	1966.00
595.75	1958.39
596.10	1952.23
596.45	1945.59
596.80	1939.44
597.15	1932.91
597.50	1925.94
597.85	1919.62
598.19	1913.12
598.54	1905.99
598.89	1899.42
599.24	1893.69
599.59	1887.03
599.94	1880.85
600.29	1874.53
600.64	1867.87
600.99	1860.54
601.34	1853.77
601.69	1846.81
602.04	1840.09
602.39	1832.86
602.74	1826.04
603.08	1819.32
603.43	1812.65
603.78	1805.32
604.13	1798.06
604.48	1790.69
604.83	1783.61
605.18	1776.71
605.53	1768.73
605.87	1760.68
606.22	1753.43
606.57	1745.37
606.92	1738.01
607.27	1731.01
607.62	1724.19
607.96	1717.09
608.31	1710.65
608.66	1702.91
609.01	1695.49
609.36	1687.94
609.70	1679.95
610.05	1671.87
610.40	1664.28
610.75	1655.86
611.10	1648.25
611.44	1639.85
611.79	1631.77
612.14	1623.20
612.49	1614.00
612.83	1605.64
613.18	1597.56
613.53	1589.43
613.88	1580.90
614.22	1572.55
614.57	1563.72
614.92	1555.64
615.27	1547.95
615.61	1539.46
615.96	1531.41
616.31	1523.72
616.65	1516.30
617.00	1508.67
617.35	1500.97
617.70	1492.70
618.04	1484.25
618.39	1475.95
618.74	1468.45
619.08	1460.21
619.43	1452.58
619.78	1445.62
620.12	1438.52
620.47	1431.02
620.82	1422.86
621.16	1415.45
621.51	1407.84
621.85	1400.24
622.20	1391.83
622.55	1383.50
622.89	1375.66
623.24	1368.11
623.59	1360.65
623.93	1353.16
624.28	1345.99
624.62	1338.38
624.97	1331.13
625.32	1324.35
625.66	1317.32
626.01	1310.02
626.35	1302.64
626.70	1294.93
627.04	1287.36
627.39	1279.61
627.73	1272.19
628.08	1265.28
628.43	1257.96
628.77	1250.56
629.12	1243.09
629.46	1235.91
629.81	1228.41
630.15	1221.15
630.50	1213.75
630.84	1205.55
631.19	1197.57
631.53	1190.00
631.88	1182.46
632.22	1174.84
632.57	1167.58
632.91	1160.05
633.26	1152.69
633.60	1145.29
633.95	1138.15
634.29	1130.91
634.64	1124.17
634.98	1116.78
635.32	1109.68
635.67	1103.01
636.01	1096.41
636.36	1089.58
636.70	1083.01
637.05	1076.49
637.39	1070.10
637.73	1063.54
638.08	1057.70
638.42	1051.78
638.77	1045.32
639.11	1038.82
639.45	1032.49
639.80	1025.74
640.14	1019.37
640.49	1012.79
640.83	1006.47
641.17	1000.28
641.52	993.99
641.86	987.47
642.20	981.63
642.55	975.24
642.89	968.85
643.23	962.31
643.58	956.62
643.92	950.42
644.26	944.40
644.61	938.26
644.95	932.32
645.29	925.71
645.64	919.01
645.98	912.84
646.32	907.06
646.66	901.02
647.01	895.29
647.35	889.60
647.69	883.77
648.04	878.21
648.38	872.42
648.72	866.45
649.06	860.40
649.41	854.46
649.75	848.55
650.09	842.69
650.43	836.86
650.78	830.66
651.12	824.70
651.46	818.97
651.80	813.27
652.14	807.87
652.49	802.59
652.83	797.32
653.17	791.60
653.51	785.75
653.85	780.25
654.20	774.56
654.54	768.50
654.88	762.78
655.22	756.95
655.56	751.29
655.90	745.82
656.25	740.64
656.59	735.37
656.93	730.28
657.27	725.05
657.61	719.63
657.95	714.49
658.29	709.43
658.64	704.09
658.98	698.83
659.32	693.36
659.66	688.13
660.00	682.88
660.34	677.86
660.68	672.97
661.02	668.00
661.36	663.32
661.70	658.78
662.05	654.40
662.39	650.03
662.73	645.50
663.07	641.14
663.41	636.59
663.75	632.00
664.09	627.38
664.43	623.01
664.77	619.00
665.11	614.82
665.45	610.68
665.79	606.62
666.13	602.41
666.47	598.31
666.81	594.18
667.15	590.03
667.49	586.12
667.83	582.27
668.17	578.39
668.51	574.34
668.85	570.38
669.19	566.53
669.53	562.72
669.87	558.88
670.21	555.22
670.55	551.63
670.89	548.25
671.23	544.82
671.57	541.31
671.91	537.72
672.25	534.19
672.58	530.67
672.92	527.29
673.26	524.12
673.60	520.96
673.94	517.81
674.28	514.92
674.62	512.03
674.96	508.96
675.30	506.00
675.64	503.04
675.97	500.22
676.31	497.40
676.65	494.46
676.99	491.79
677.33	488.89
677.67	486.06
678.01	483.02
678.34	480.09
678.68	477.22
679.02	474.40
679.36	471.63
679.70	468.91
680.04	466.14
680.37	463.30
680.71	460.54
681.05	457.92
681.39	455.22
681.73	452.47
682.06	449.97
682.40	447.41
682.74	444.87
683.08	442.35
683.42	439.66
683.75	437.18
684.09	434.61
684.43	432.13
684.77	429.66
685.10	427.34
685.44	425.02
685.78	422.69
686.12	420.42
686.45	418.12
686.79	415.79
687.13	413.57
687.46	411.40
687.80	409.19
688.14	406.97
688.48	404.87
688.81	402.66
689.15	400.44
689.49	398.27
689.82	396.23
690.16	394.16
690.50	392.26
690.83	390.32
691.17	388.26
691.51	386.34
691.84	384.49
692.18	382.53
692.52	380.56
692.85	378.62
693.19	376.74
693.52	374.91
693.86	373.11
694.20	371.30
694.53	369.50
694.87	367.70
695.21	365.95
695.54	364.11
695.88	362.40
696.21	360.67
696.55	359.02
696.88	357.29
697.22	355.58
697.56	353.95
697.89	352.26
698.23	350.71
698.56	349.09
698.90	347.53
699.23	345.92
699.57	344.38
699.90	342.87
700.24	341.32
700.58	339.83
700.91	338.35
701.25	336.96
701.58	335.60
701.92	334.28
702.25	332.92
702.59	331.57
702.92	330.21
703.26	328.91
703.59	327.65
703.93	326.49
704.26	325.31
704.60	324.01
704.93	322.74
705.26	321.48
705.60	320.32
705.93	319.16
706.27	318.10
706.60	317.05
706.94	315.95
707.27	314.88
707.61	313.80
707.94	312.76
708.27	311.69
708.61	310.59
708.94	309.56
709.28	308.58
709.61	307.63
709.94	306.73
710.28	305.72
710.61	304.75
710.95	303.69
711.28	302.75
711.61	301.82
711.95	300.92
712.28	300.00
712.61	298.98
712.95	298.07
713.28	297.22
713.61	296.30
713.95	295.48
714.28	294.63
714.61	293.79
714.95	292.96
715.28	292.07
715.61	291.21
715.95	290.34
716.28	289.43
716.61	288.59
716.95	287.77
717.28	287.07
717.61	286.29
717.94	285.56
718.28	284.76
718.61	284.04
718.94	283.34
719.27	282.72
719.61	282.11
719.94	281.38
720.27	280.63
720.60	279.98
720.94	279.31
721.27	278.70
721.60	278.12
721.93	277.52
722.27	277.00
722.60	276.47
722.93	275.90
723.26	275.39
723.59	274.83
723.93	274.29
724.26	273.70
724.59	273.11
724.92	272.55
725.25	272.05
725.59	271.58
725.92	271.06
726.25	270.47
726.58	269.96
726.91	269.48
727.24	269.04
727.57	268.56
727.91	268.05
728.24	267.60
728.57	267.06
728.90	266.58
729.23	266.06
729.56	265.64
729.89	265.18
730.22	264.71
730.55	264.23
730.89	263.77
731.22	263.33
731.55	262.90
731.88	262.49
732.21	262.01
732.54	261.49
732.87	261.06
733.20	260.68
733.53	260.29
733.86	259.95
734.19	259.54
734.52	259.15
734.85	258.83
735.18	258.40
735.51	258.08
735.84	257.67
736.17	257.30
736.50	256.88
736.83	256.61
737.16	256.25
737.49	255.92
737.82	255.60
738.15	255.26
738.48	254.94
738.81	254.60
739.14	254.33
739.47	254.06
739.80	253.76
740.13	253.48
740.46	253.14
740.79	252.78
741.12	252.49
741.45	252.18
741.78	251.77
742.11	251.50
742.44	251.16
742.77	250.87
743.10	250.57
743.43	250.30
743.75	249.92
744.08	249.76
744.41	249.51
744.74	249.21
745.07	248.94
745.40	248.68
745.73	248.43
746.06	248.16
746.39	247.91
746.71	247.62
747.04	247.32
747.37	247.05
747.70	246.81
748.03	246.56
748.36	246.35
748.68	246.13
749.01	245.85
749.34	245.61
749.67	245.39
750.00	245.16
750.33	244.97
750.65	244.77
750.98	244.45
751.31	244.24
751.64	243.99
751.97	243.81
752.29	243.58
752.62	243.35
752.95	243.11
753.28	242.88
753.60	242.68
753.93	242.47
754.26	242.30
754.59	242.07
754.91	241.85
755.24	241.61
755.57	241.42
755.90	241.27
756.22	241.08
756.55	240.88
756.88	240.69
757.20	240.47
757.53	240.27
757.86	240.08
758.19	239.90
758.51	239.79
758.84	239.60
759.17	239.41
759.49	239.26
759.82	239.15
760.15	239.01
760.47	238.85
760.80	238.72
761.13	238.58
761.45	238.43
761.78	238.31
762.11	238.19
762.43	238.08
762.76	237.90
763.08	237.80
763.41	237.71
763.74	237.59
764.06	237.47
764.39	237.33
764.71	237.19
765.04	237.05
765.37	236.90
765.69	236.73
766.02	236.61
766.34	236.46
766.67	236.31
767.00	236.20
767.32	236.14
767.65	236.09
767.97	235.97
768.30	235.87
768.62	235.73
768.95	235.60
769.27	235.49
769.60	235.40
769.92	235.28
770.25	235.12
770.57	235.00
770.90	234.89
771.22	234.78
771.55	234.71
771.87	234.64
772.20	234.52
772.52	234.55
772.85	234.57
773.17	234.50
773.50	234.43
773.82	234.33
774.15	234.22
774.47	234.07
774.80	233.99
775.12	233.92
775.45	233.83
775.77	233.77
776.09	233.69
776.42	233.63
776.74	233.55
777.07	233.49
777.39	233.37
777.72	233.32
778.04	233.27
778.36	233.15
778.69	233.09
779.01	233.02
779.33	232.87
779.66	232.71
779.98	232.64
780.31	232.58
780.63	232.54
780.95	232.48
781.28	232.42
781.60	232.35
781.92	232.29
782.25	232.25
782.57	232.18
782.89	232.13
783.22	232.06
783.54	232.01
783.86	231.97
784.19	231.96
784.51	231.89
784.83	231.83
785.16	231.79
785.48	231.71
785.80	231.70
786.12	231.66
786.45	231.60
786.77	231.55
787.09	231.49
787.42	231.45
787.74	231.41
788.06	231.32
788.38	231.28
788.71	231.24
789.03	231.18
789.35	231.16
789.67	231.06
789.99	231.02
790.32	230.95
790.64	230.92
790.96	230.96
791.28	230.90
791.61	230.84
791.93	230.85
792.25	230.80
792.57	230.78
792.89	230.70
793.21	230.62
793.54	230.60
793.86	230.54
794.18	230.48
794.50	230.42
794.82	230.40
795.14	230.39
795.47	230.34
795.79	230.32
796.11	230.29
796.43	230.29
796.75	230.29
797.07	230.28
797.39	230.24
797.71	230.13
798.04	230.09
798.36	230.05
798.68	230.02
799.00	230.00
799.32	229.92
799.64	229.91
799.96	229.95
800.28	229.91
800.60	229.88
800.92	229.84
801.24	229.79
801.56	229.79
801.89	229.70
802.21	229.69
802.53	229.66
802.85	229.59
803.17	229.59
803.49	229.53
803.81	229.47
804.13	229.42
804.45	229.38
804.77	229.36
805.09	229.36
805.41	229.35
805.73	229.29
806.05	229.28
806.37	229.26
806.69	229.22
807.01	229.20
807.33	229.18
807.65	229.16
807.97	229.22
808.28	229.15
808.60	229.16
808.92	229.13
809.24	229.15
809.56	229.13
809.88	229.09
810.20	229.05
810.52	229.05
810.84	228.99
811.16	228.98
811.48	228.93
811.80	228.94
812.12	228.87
812.43	228.87
812.75	228.83
813.07	228.79
813.39	228.74
813.71	228.70
814.03	228.68
814.35	228.66
814.67	228.59
814.98	228.62
815.30	228.56
815.62	228.52
815.94	228.44
816.26	228.47
816.58	228.43
816.89	228.45
817.21	228.40
817.53	228.44
817.85	228.43
818.17	228.42
818.48	228.36
818.80	228.40
819.12	228.39
819.44	228.37
819.76	228.37
820.07	228.35
820.39	228.33
820.71	228.33
821.03	228.28
821.34	228.24
821.66	228.20
821.98	228.22
822.30	228.18
822.61	228.23
822.93	228.17
823.25	228.14
823.57	228.11
823.88	228.13
824.20	228.11
824.52	228.13
824.83	228.13
825.15	228.11
825.47	228.06
825.79	228.06
826.10	228.04
826.42	228.02
826.74	228.03
827.05	228.02
827.37	227.98
827.69	227.98
828.00	228.02
828.32	228.06
828.64	228.03
828.95	228.11
829.27	228.07
829.58	228.06
829.90	228.07
830.22	228.07
830.53	228.03
830.85	228.00
831.17	227.89
831.48	227.87
831.80	227.85
832.11	227.84
832.43	227.81
832.75	227.81
833.06	227.86
833.38	227.82
833.69	227.81
834.01	227.81
834.32	227.80
834.64	227.76
834.96	227.70
835.27	227.69
835.59	227.64
835.90	227.64
836.22	227.63
836.53	227.58
836.85	227.55
837.16	227.61
837.48	227.62
837.79	227.66
838.11	227.64
838.42	227.64
838.74	227.63
839.05	227.62
839.37	227.60
839.68	227.49
840.00	227.51
840.31	227.52
840.63	227.49
840.94	227.46
841.26	227.44
841.57	227.45
841.88	227.45
842.20	227.42
842.51	227.38
842.83	227.37
843.14	227.43
843.46	227.43
843.77	227.39
844.08	227.37
844.40	227.34
844.71	227.36
845.03	227.34
845.34	227.34
845.65	227.33
845.97	227.33
846.28	227.36
846.60	227.37
846.91	227.37
847.22	227.36
847.54	227.38
847.85	227.38
848.16	227.33
848.48	227.30
848.79	227.31
849.10	227.32
849.42	227.32
849.73	227.25
850.04	227.20
850.36	227.16
850.67	227.16
850.98	227.17
851.30	227.16
851.61	227.15
851.92	227.12
852.23	227.14
852.55	227.09
852.86	227.08
853.17	227.07
853.49	227.07
853.80	227.10
854.11	227.08
854.42	227.05
854.74	227.09
855.05	227.09
855.36	227.02
855.67	227.02
855.99	226.99
856.30	227.08
856.61	227.09
856.92	227.08
857.23	227.08
857.55	227.04
857.86	227.01
858.17	227.05
858.48	227.03
858.79	227.00
859.11	227.04
859.42	227.03
859.73	227.03
860.04	227.00
860.35	226.97
860.66	226.93
860.98	226.95
861.29	226.96
861.60	226.94
861.91	226.99
862.22	226.98
862.53	226.99
862.84	226.93
863.16	226.96
863.47	226.95
863.78	226.93
864.09	226.94
864.40	226.94
864.71	226.92
865.02	226.94
865.33	226.94
865.64	226.90
865.95	226.89
866.27	226.94
866.58	226.93
866.89	226.95
867.20	226.96
867.51	226.93
867.82	226.90
868.13	226.94
868.44	226.91
868.75	226.88
869.06	226.87
869.37	226.84
869.68	226.78
869.99	226.79
870.30	226.81
870.61	226.85
870.92	226.84
871.23	226.81
871.54	226.85
871.85	226.89
872.16	226.93
872.47	226.90
872.78	226.82
873.09	226.84
873.40	226.83
873.71	226.84
874.02	226.87
874.33	226.86
874.64	226.82
874.95	226.86
875.26	226.86
875.56	226.88
875.87	226.91
876.18	226.94
876.49	227.06
876.80	227.06
877.11	227.03
877.42	227.03
877.73	227.01
878.04	226.98
878.35	226.98
878.66	226.98
878.96	227.01
879.27	227.02
879.58	227.04
879.89	227.00
880.20	227.02
880.51	226.99
880.82	226.99
881.12	227.02
881.43	226.97
881.74	226.95
882.05	226.94
882.36	226.91
882.67	226.90
882.97	226.80
883.28	226.77
883.59	226.79
883.90	226.80
884.21	226.86
884.51	226.85
884.82	226.83
885.13	226.78
885.44	226.77
885.74	226.75
886.05	226.73
886.36	226.74
886.67	226.73
886.98	226.80
887.28	226.81
887.59	226.78
887.90	226.83
888.20	226.83
888.51	226.87
888.82	226.83
889.13	226.84
889.43	226.91
889.74	226.93
890.05	226.88
890.35	226.87
890.66	226.85
890.97	226.84
891.28	226.82
891.58	226.83
891.89	226.83
892.20	226.82
892.50	226.83
892.81	226.84
893.12	226.80
893.42	226.75
893.73	226.75
894.04	226.74
894.34	226.72
894.65	226.72
894.95	226.70
895.26	226.69
895.57	226.76
895.87	226.65
896.18	226.63
896.48	226.65
896.79	226.66
897.10	226.65
897.40	226.67
897.71	226.67
898.01	226.65
898.32	226.63
898.63	226.64
898.93	226.59
899.24	226.59
899.54	226.57
899.85	226.57
900.15	226.59
900.46	226.60
900.76	226.62
901.07	226.61
901.38	226.59
901.68	226.62
901.99	226.53
902.29	226.56
902.60	226.56
902.90	226.58
903.21	226.57
903.51	226.55
903.82	226.58
904.12	226.58
904.43	226.61
904.73	226.60
905.03	226.61
905.34	226.74
905.64	226.72
905.95	226.74
906.25	226.74
906.56	226.74
906.86	226.74
907.17	226.70
907.47	226.72
907.77	226.73
908.08	226.74
908.38	226.76
908.69	226.79
908.99	226.76
909.30	226.76
909.60	226.75
909.90	226.82
910.21	226.75
910.51	226.72
910.81	226.74
911.12	226.79
911.42	226.80
911.73	226.71
912.03	226.74
912.33	226.76
912.64	226.75
912.94	226.74
913.24	226.72
913.55	226.75
913.85	226.76
914.15	226.77
914.46	226.78
914.76	226.78
915.06	226.71
915.37	226.78
915.67	226.79
915.97	226.81
916.27	226.73
916.58	226.77
916.88	226.79
917.18	226.77
917.49	226.81
917.79	226.79
918.09	226.82
918.39	226.82
918.70	226.79
919.00	226.81
919.30	226.83
919.60	226.83
919.91	226.85
920.21	226.84
920.51	226.84
920.81	226.81
921.12	226.81
921.42	226.82
921.72	226.79
922.02	226.79
922.32	226.78
922.63	226.80
922.93	226.82
923.23	226.80
923.53	226.78
923.83	226.70
924.13	226.68
924.44	226.68
924.74	226.71
925.04	226.73
925.34	226.74
925.64	226.71
925.94	226.70
926.24	226.72
926.55	226.68
926.85	226.64
927.15	226.61
927.45	226.61
927.75	226.60
928.05	226.61
928.35	226.57
928.65	226.59
928.95	226.57
929.26	226.52
929.56	226.55
929.86	226.54
930.16	226.55
930.46	226.53
930.76	226.51
931.06	226.46
931.36	226.44
931.66	226.41
931.96	226.40
932.26	226.39
932.56	226.36
932.86	226.37
933.16	226.40
933.46	226.42
933.76	226.38
934.06	226.39
934.36	226.44
934.66	226.45
934.96	226.42
935.26	226.43
935.56	226.45
935.86	226.46
936.16	226.48
936.46	226.46
936.76	226.47
937.06	226.48
937.36	226.49
937.66	226.48
937.96	226.51
938.26	226.51
938.56	226.52
938.86	226.50
939.16	226.49
939.46	226.48
939.76	226.49
940.06	226.50
940.35	226.51
940.65	226.43
940.95	226.43
941.25	226.38
941.55	226.40
941.85	226.39
942.15	226.39
942.45	226.40
942.75	226.40
943.04	226.41
943.34	226.41
943.64	226.38
943.94	226.39
944.24	226.38
944.54	226.39
944.84	226.40
945.13	226.44
945.43	226.44
945.73	226.45
946.03	226.44
946.33	226.48
946.62	226.49
946.92	226.52
947.22	226.56
947.52	226.63
947.82	226.66
948.11	226.65
948.41	226.63
948.71	226.62
949.01	226.64
949.31	226.63
949.60	226.62
949.90	226.65
950.20	226.62
950.50	226.62
950.79	226.63
951.09	226.68
951.39	226.66
951.69	226.70
951.98	226.70
952.28	226.69
952.58	226.66
952.87	226.67
953.17	226.68
953.47	226.67
953.76	226.66
954.06	226.63
954.36	226.61
954.66	226.59
954.95	226.63
955.25	226.63
955.55	226.66
955.84	226.66
956.14	226.66
956.44	226.73
956.73	226.71
957.03	226.66
957.32	226.61
957.62	226.61
957.92	226.61
958.21	226.60
958.51	226.73
958.81	226.74
959.10	226.71
959.40	226.73
959.69	226.73
959.99	226.73
960.29	226.70
960.58	226.73
960.88	226.77
961.17	226.74
961.47	226.77
961.76	226.74
962.06	226.73
962.36	226.72
962.65	226.69
962.95	226.73
963.24	226.73
963.54	226.72
963.83	226.71
964.13	226.69
964.42	226.71
964.72	226.63
965.01	226.61
965.31	226.63
965.60	226.58
965.90	226.62
966.19	226.61
966.49	226.62
966.78	226.61
967.08	226.58
967.37	226.57
967.67	226.55
967.96	226.54
968.26	226.55
968.55	226.55
968.85	226.53
969.14	226.51
969.43	226.52
969.73	226.55
970.02	226.57
970.32	226.56
970.61	226.52
970.91	226.49
971.20	226.51
971.49	226.46
971.79	226.50
972.08	226.44
972.38	226.41
972.67	226.42
972.96	226.44
973.26	226.40
973.55	226.43
973.85	226.41
974.14	226.42
974.43	226.43
974.73	226.41
975.02	226.41
975.31	226.39
975.61	226.39
975.90	226.36
976.19	226.32
976.49	226.31
976.78	226.33
977.07	226.35
977.37	226.34
977.66	226.39
977.95	226.35
978.24	226.34
978.54	226.38
978.83	226.35
979.12	226.36
979.42	226.38
979.71	226.38
980.00	226.37
980.29	226.41
980.59	226.41
980.88	226.45
981.17	226.44
981.46	226.44
981.76	226.46
982.05	226.53
982.34	226.57
982.63	226.59
982.93	226.61
983.22	226.62
983.51	226.65
983.80	226.65
984.09	226.69
984.39	226.71
984.68	226.72
984.97	226.74
985.26	226.74
985.55	226.81
985.85	226.82
986.14	226.84
986.43	226.82
986.72	226.81
987.01	226.76
987.30	226.75
987.59	226.75
987.89	226.74
988.18	226.67
988.47	226.64
988.76	226.59
989.05	226.56
989.34	226.57
989.63	226.56
989.92	226.54
990.22	226.52
990.51	226.48
990.80	226.47
991.09	226.49
991.38	226.46
991.67	226.37
991.96	226.35
992.25	226.34
992.54	226.30
992.83	226.30
993.12	226.30
993.41	226.35
993.70	226.34
993.99	226.34
994.28	226.36
994.58	226.38
994.87	226.40
995.16	226.42
995.45	226.40
995.74	226.37
996.03	226.37
996.32	226.35
996.61	226.38
996.90	226.37
997.19	226.35
997.48	226.37
997.77	226.37
998.06	226.33
998.34	226.33
998.63	226.30
998.92	226.27
999.21	226.29
999.50	226.24
999.79	226.27
1000.08	226.28
1000.37	226.26
1000.66	226.25
1000.95	226.27
1001.24	226.26
1001.53	226.26
1001.82	226.26
1002.11	226.26
1002.40	226.28
1002.68	226.28
1002.97	226.34
1003.26	226.32
1003.55	226.28
1003.84	226.27
1004.13	226.31
1004.42	226.32
1004.71	226.36
1004.99	226.39
1005.28	226.43
1005.57	226.45
1005.86	226.38
1006.15	226.40
1006.44	226.39
1006.72	226.39
1007.01	226.37
1007.30	226.38
1007.59	226.35
1007.88	226.35
1008.17	226.34
1008.45	226.33
1008.74	226.31
1009.03	226.27
1009.32	226.25
1009.60	226.28
1009.89	226.29
1010.18	226.30
1010.47	226.29
1010.76	226.31
1011.04	226.30
1011.33	226.27
1011.62	226.28
1011.91	226.33
1012.19	226.36
1012.48	226.37
1012.77	226.37
1013.05	226.44
1013.34	226.45
1013.63	226.47
1013.92	226.50
1014.20	226.52
1014.49	226.52
1014.78	226.55
1015.06	226.54
1015.35	226.56
1015.64	226.59
1015.92	226.64
1016.21	226.64
1016.50	226.65
1016.78	226.67
1017.07	226.70
1017.36	226.73
1017.64	226.73
1017.93	226.73
1018.22	226.70
1018.50	226.72
1018.79	226.76
1019.08	226.70
1019.36	226.68
1019.65	226.69
1019.93	226.71
1020.22	226.70
1020.51	226.78
1020.79	226.76
1021.08	226.47
1021.36	226.53
1021.65	227.14
1021.94	226.64
1022.22	226.41
1022.51	226.52
1022.79	227.28
1023.08	226.29
1023.36	228.04
1023.65	226.52
>>>>>End Processed Spectral Data<<<<<
