SpectraSuite Data File
++++++++++++++++++++++++++++++++++++
Date: Fri Feb 01 15:15:06 EST 2013
User: group
Dark Spectrum Present: No
Reference Spectrum Present: No
Number of Sampled Component Spectra: 1
Spectrometers: USB2E7196
Integration Time (usec): 35000 (USB2E7196)
Spectra Averaged: 100 (USB2E7196)
Boxcar Smoothing: 10 (USB2E7196)
Correct for Electrical Dark: No (USB2E7196)
Strobe/Lamp Enabled: No (USB2E7196)
Correct for Detector Non-linearity: No (USB2E7196)
Correct for Stray Light: No (USB2E7196)
Number of Pixels in Processed Spectrum: 2048
>>>>>Begin Processed Spectral Data<<<<<
339.09	0.00
339.48	214.90
339.86	216.22
340.24	217.89
340.63	219.16
341.01	221.81
341.39	221.97
341.78	223.49
342.16	224.66
342.54	224.95
342.93	213.33
343.31	224.10
343.69	224.66
344.07	225.11
344.46	225.54
344.84	225.91
345.22	226.17
345.60	226.39
345.99	226.58
346.37	226.69
346.75	226.80
347.13	226.85
347.52	226.90
347.90	226.96
348.28	227.00
348.66	227.06
349.05	227.02
349.43	227.07
349.81	227.14
350.19	227.18
350.57	227.21
350.96	227.27
351.34	227.35
351.72	227.42
352.10	227.55
352.48	227.60
352.87	227.66
353.25	227.71
353.63	227.80
354.01	227.86
354.39	227.94
354.77	227.99
355.15	228.11
355.54	228.17
355.92	228.24
356.30	228.27
356.68	228.38
357.06	228.46
357.44	228.51
357.82	228.57
358.20	228.67
358.58	228.72
358.97	228.79
359.35	228.86
359.73	228.91
360.11	228.94
360.49	229.00
360.87	229.08
361.25	229.14
361.63	229.23
362.01	229.23
362.39	229.28
362.77	229.32
363.15	229.32
363.53	229.35
363.91	229.36
364.29	229.39
364.67	229.30
365.05	229.29
365.43	229.29
365.81	229.32
366.19	229.35
366.57	229.40
366.95	229.41
367.33	229.41
367.71	229.42
368.09	229.39
368.47	229.37
368.85	229.36
369.23	229.34
369.61	229.25
369.99	229.27
370.37	229.23
370.75	229.27
371.13	229.22
371.51	229.17
371.89	229.14
372.27	229.12
372.65	229.10
373.03	229.07
373.41	229.01
373.78	228.92
374.16	228.80
374.54	228.71
374.92	228.58
375.30	228.51
375.68	228.41
376.06	228.36
376.44	228.29
376.82	228.22
377.19	228.13
377.57	228.07
377.95	228.01
378.33	227.93
378.71	227.78
379.09	227.72
379.47	227.68
379.84	227.57
380.22	227.46
380.60	227.38
380.98	227.28
381.36	227.23
381.73	227.16
382.11	227.11
382.49	227.09
382.87	227.03
383.25	226.96
383.62	227.01
384.00	226.93
384.38	226.89
384.76	226.81
385.13	226.80
385.51	226.76
385.89	226.68
386.27	226.64
386.64	226.65
387.02	226.60
387.40	226.54
387.78	226.53
388.15	226.51
388.53	226.47
388.91	226.48
389.29	226.44
389.66	226.44
390.04	226.39
390.42	226.35
390.79	226.38
391.17	226.40
391.55	226.31
391.92	226.32
392.30	226.29
392.68	226.27
393.05	226.28
393.43	226.29
393.81	226.30
394.18	226.29
394.56	226.30
394.94	226.32
395.31	226.35
395.69	226.41
396.06	226.43
396.44	226.49
396.82	226.51
397.19	226.60
397.57	226.63
397.95	226.72
398.32	226.77
398.70	226.81
399.07	226.85
399.45	226.91
399.82	226.99
400.20	227.10
400.58	227.19
400.95	227.20
401.33	227.31
401.70	227.49
402.08	227.61
402.45	227.71
402.83	227.86
403.20	227.97
403.58	228.05
403.95	228.25
404.33	228.37
404.71	228.52
405.08	228.71
405.46	228.86
405.83	229.02
406.21	229.18
406.58	229.38
406.96	229.54
407.33	229.74
407.70	229.92
408.08	230.21
408.45	230.44
408.83	230.73
409.20	230.95
409.58	231.12
409.95	231.38
410.33	231.65
410.70	231.92
411.08	232.24
411.45	232.56
411.82	232.83
412.20	233.18
412.57	233.58
412.95	233.89
413.32	234.33
413.69	234.74
414.07	235.17
414.44	235.63
414.82	236.12
415.19	236.67
415.56	237.25
415.94	237.78
416.31	238.42
416.68	239.01
417.06	239.75
417.43	240.42
417.81	241.19
418.18	241.97
418.55	242.79
418.93	243.68
419.30	244.58
419.67	245.54
420.04	246.49
420.42	247.52
420.79	248.68
421.16	249.81
421.54	250.99
421.91	252.22
422.28	253.46
422.66	254.77
423.03	256.10
423.40	257.43
423.77	258.84
424.15	260.27
424.52	261.80
424.89	263.43
425.26	264.97
425.64	266.42
426.01	268.05
426.38	269.73
426.75	271.38
427.13	273.10
427.50	274.89
427.87	276.81
428.24	278.65
428.61	280.41
428.99	282.34
429.36	284.45
429.73	286.52
430.10	288.60
430.47	290.68
430.85	292.79
431.22	294.99
431.59	297.37
431.96	299.64
432.33	302.12
432.70	304.45
433.08	307.30
433.45	309.92
433.82	312.56
434.19	315.45
434.56	318.29
434.93	320.96
435.30	323.56
435.68	326.43
436.05	329.29
436.42	332.10
436.79	334.62
437.16	337.32
437.53	340.17
437.90	342.92
438.27	345.67
438.64	348.50
439.01	351.11
439.38	353.34
439.75	355.54
440.13	357.98
440.50	360.33
440.87	362.16
441.24	364.12
441.61	366.24
441.98	367.72
442.35	369.53
442.72	371.42
443.09	373.26
443.46	374.26
443.83	374.84
444.20	375.30
444.57	376.12
444.94	376.40
445.31	376.69
445.68	377.06
446.05	377.14
446.42	376.75
446.79	376.31
447.16	375.84
447.53	375.42
447.90	374.24
448.27	373.03
448.64	371.44
449.01	370.29
449.37	368.28
449.74	366.36
450.11	364.02
450.48	361.48
450.85	358.99
451.22	356.83
451.59	354.80
451.96	352.85
452.33	350.25
452.70	347.88
453.07	345.05
453.43	342.14
453.80	339.36
454.17	336.69
454.54	334.17
454.91	331.45
455.28	328.80
455.65	326.35
456.02	323.91
456.38	321.76
456.75	319.10
457.12	316.86
457.49	314.67
457.86	312.54
458.23	310.70
458.59	308.62
458.96	306.56
459.33	304.70
459.70	302.85
460.07	301.34
460.43	299.63
460.80	298.00
461.17	296.56
461.54	295.07
461.91	293.61
462.27	292.12
462.64	290.92
463.01	289.58
463.38	288.27
463.74	286.90
464.11	285.74
464.48	284.69
464.85	283.60
465.21	282.69
465.58	281.76
465.95	280.67
466.32	279.75
466.68	278.80
467.05	277.87
467.42	277.01
467.78	276.09
468.15	275.19
468.52	274.55
468.88	273.69
469.25	272.89
469.62	272.28
469.98	271.61
470.35	270.94
470.72	270.32
471.08	269.66
471.45	269.15
471.82	268.61
472.18	268.04
472.55	267.60
472.92	267.09
473.28	266.60
473.65	266.16
474.02	265.73
474.38	265.39
474.75	265.07
475.11	264.69
475.48	264.43
475.85	264.26
476.21	264.03
476.58	263.84
476.94	263.73
477.31	263.58
477.67	263.45
478.04	263.37
478.41	263.33
478.77	263.37
479.14	263.28
479.50	263.26
479.87	263.32
480.23	263.38
480.60	263.43
480.96	263.52
481.33	263.75
481.69	263.94
482.06	264.14
482.42	264.38
482.79	264.65
483.15	264.96
483.52	265.28
483.88	265.62
484.25	266.00
484.61	266.38
484.98	266.81
485.34	267.38
485.71	267.91
486.07	268.48
486.44	269.09
486.80	269.82
487.17	270.56
487.53	271.37
487.90	272.22
488.26	273.17
488.62	274.18
488.99	275.11
489.35	276.14
489.72	277.27
490.08	278.41
490.44	279.60
490.81	280.96
491.17	282.32
491.54	283.79
491.90	285.30
492.26	286.97
492.63	288.69
492.99	290.47
493.36	292.39
493.72	294.44
494.08	296.51
494.45	298.69
494.81	301.03
495.17	303.45
495.54	306.00
495.90	308.67
496.26	311.44
496.63	314.38
496.99	317.49
497.35	320.69
497.72	324.10
498.08	327.63
498.44	331.20
498.80	335.12
499.17	339.12
499.53	343.27
499.89	347.64
500.26	352.12
500.62	356.75
500.98	361.68
501.34	366.75
501.71	372.06
502.07	377.53
502.43	383.13
502.79	388.95
503.16	395.02
503.52	401.31
503.88	407.73
504.24	414.40
504.60	421.25
504.97	428.41
505.33	435.75
505.69	443.47
506.05	451.30
506.41	459.21
506.78	467.41
507.14	475.86
507.50	484.52
507.86	493.54
508.22	502.69
508.59	511.93
508.95	521.51
509.31	531.29
509.67	541.37
510.03	551.65
510.39	562.24
510.75	572.97
511.12	583.95
511.48	595.21
511.84	606.65
512.20	618.24
512.56	630.24
512.92	642.38
513.28	654.62
513.64	667.12
514.00	679.76
514.37	692.66
514.73	705.73
515.09	718.85
515.45	732.11
515.81	745.76
516.17	759.80
516.53	773.87
516.89	788.03
517.25	802.22
517.61	816.79
517.97	831.20
518.33	845.73
518.69	860.44
519.05	875.55
519.41	890.77
519.77	906.29
520.13	921.65
520.49	937.02
520.85	952.64
521.21	968.35
521.57	984.64
521.93	1000.56
522.29	1017.03
522.65	1033.30
523.01	1049.71
523.37	1065.77
523.73	1081.95
524.09	1098.15
524.45	1114.63
524.81	1131.38
525.17	1148.20
525.53	1165.23
525.89	1182.09
526.25	1198.94
526.61	1215.27
526.97	1232.03
527.33	1248.53
527.68	1265.23
528.04	1281.91
528.40	1298.48
528.76	1315.59
529.12	1332.25
529.48	1349.15
529.84	1365.30
530.20	1382.02
530.56	1399.12
530.91	1416.61
531.27	1433.36
531.63	1449.90
531.99	1466.44
532.35	1482.52
532.71	1498.27
533.07	1514.52
533.42	1530.54
533.78	1546.60
534.14	1562.94
534.50	1578.35
534.86	1594.36
535.21	1609.58
535.57	1625.52
535.93	1641.12
536.29	1655.96
536.65	1671.08
537.00	1685.91
537.36	1701.35
537.72	1715.98
538.08	1730.28
538.44	1744.05
538.79	1758.18
539.15	1772.03
539.51	1785.88
539.87	1800.20
540.22	1814.15
540.58	1828.06
540.94	1841.52
541.29	1854.73
541.65	1867.54
542.01	1880.90
542.37	1893.27
542.72	1905.82
543.08	1917.63
543.44	1930.03
543.79	1941.25
544.15	1952.40
544.51	1963.96
544.87	1974.87
545.22	1985.52
545.58	1995.82
545.94	2005.71
546.29	2015.57
546.65	2025.28
547.01	2034.62
547.36	2043.36
547.72	2051.89
548.07	2059.69
548.43	2067.90
548.79	2075.94
549.14	2083.42
549.50	2090.81
549.86	2098.54
550.21	2105.84
550.57	2112.99
550.92	2119.56
551.28	2126.80
551.64	2133.75
551.99	2140.41
552.35	2146.56
552.70	2152.80
553.06	2158.82
553.41	2165.13
553.77	2171.21
554.13	2177.24
554.48	2183.29
554.84	2188.75
555.19	2194.06
555.55	2199.19
555.90	2203.58
556.26	2208.35
556.61	2213.27
556.97	2217.39
557.32	2221.39
557.68	2225.48
558.03	2229.84
558.39	2233.72
558.74	2238.42
559.10	2242.32
559.45	2246.03
559.81	2250.34
560.16	2254.31
560.52	2257.59
560.87	2261.05
561.23	2263.53
561.58	2266.60
561.94	2269.15
562.29	2271.60
562.64	2274.30
563.00	2276.95
563.35	2280.48
563.71	2283.58
564.06	2286.70
564.42	2289.54
564.77	2292.05
565.12	2294.43
565.48	2296.17
565.83	2297.86
566.19	2299.03
566.54	2299.92
566.89	2300.80
567.25	2301.28
567.60	2302.44
567.96	2303.97
568.31	2304.71
568.66	2305.81
569.02	2306.29
569.37	2306.44
569.72	2307.01
570.08	2306.97
570.43	2306.95
570.78	2306.23
571.14	2304.60
571.49	2303.10
571.84	2302.73
572.20	2301.43
572.55	2300.29
572.90	2298.78
573.26	2297.40
573.61	2295.60
573.96	2293.52
574.31	2290.50
574.67	2287.37
575.02	2283.62
575.37	2280.15
575.72	2276.28
576.08	2272.87
576.43	2269.37
576.78	2265.71
577.13	2262.68
577.49	2259.60
577.84	2256.00
578.19	2252.16
578.54	2248.33
578.90	2244.10
579.25	2238.57
579.60	2233.52
579.95	2228.29
580.30	2223.11
580.66	2217.79
581.01	2212.73
581.36	2207.99
581.71	2203.82
582.06	2199.36
582.42	2194.82
582.77	2189.45
583.12	2184.78
583.47	2179.94
583.82	2174.82
584.17	2169.51
584.53	2163.92
584.88	2158.15
585.23	2152.17
585.58	2146.82
585.93	2141.31
586.28	2136.33
586.63	2131.00
586.98	2125.97
587.34	2121.19
587.69	2116.16
588.04	2110.77
588.39	2105.02
588.74	2098.39
589.09	2092.07
589.44	2085.16
589.79	2079.11
590.14	2073.45
590.49	2066.73
590.84	2060.17
591.19	2054.14
591.54	2047.54
591.89	2039.89
592.25	2032.96
592.60	2025.72
592.95	2017.86
593.30	2010.40
593.65	2002.85
594.00	1995.79
594.35	1988.44
594.70	1980.25
595.05	1973.05
595.40	1965.76
595.75	1958.20
596.10	1951.82
596.45	1944.85
596.80	1938.50
597.15	1931.69
597.50	1924.37
597.85	1917.87
598.19	1911.14
598.54	1904.00
598.89	1897.36
599.24	1891.46
599.59	1884.69
599.94	1878.45
600.29	1872.03
600.64	1865.39
600.99	1857.80
601.34	1850.90
601.69	1843.92
602.04	1836.98
602.39	1829.44
602.74	1822.64
603.08	1815.89
603.43	1809.18
603.78	1801.93
604.13	1794.83
604.48	1787.48
604.83	1780.82
605.18	1773.75
605.53	1765.80
605.87	1757.71
606.22	1750.35
606.57	1742.40
606.92	1735.09
607.27	1727.86
607.62	1720.88
607.96	1713.55
608.31	1706.92
608.66	1699.22
609.01	1691.53
609.36	1684.00
609.70	1676.10
610.05	1667.90
610.40	1660.07
610.75	1651.79
611.10	1644.14
611.44	1635.78
611.79	1627.81
612.14	1618.96
612.49	1609.94
612.83	1601.58
613.18	1593.61
613.53	1585.58
613.88	1577.16
614.22	1568.88
614.57	1560.29
614.92	1552.33
615.27	1544.80
615.61	1536.40
615.96	1528.44
616.31	1520.92
616.65	1513.56
617.00	1505.92
617.35	1498.18
617.70	1489.87
618.04	1481.27
618.39	1473.06
618.74	1465.47
619.08	1457.26
619.43	1449.77
619.78	1443.00
620.12	1435.93
620.47	1428.35
620.82	1420.26
621.16	1412.81
621.51	1405.17
621.85	1397.67
622.20	1389.06
622.55	1380.84
622.89	1373.14
623.24	1365.60
623.59	1358.30
623.93	1350.80
624.28	1343.65
624.62	1336.16
624.97	1328.98
625.32	1322.31
625.66	1315.28
626.01	1307.98
626.35	1300.44
626.70	1292.68
627.04	1284.80
627.39	1276.96
627.73	1269.40
628.08	1262.34
628.43	1254.92
628.77	1247.64
629.12	1239.93
629.46	1232.81
629.81	1225.37
630.15	1218.09
630.50	1210.71
630.84	1202.41
631.19	1194.53
631.53	1187.14
631.88	1179.66
632.22	1172.10
632.57	1164.77
632.91	1157.22
633.26	1149.88
633.60	1142.59
633.95	1135.59
634.29	1128.63
634.64	1121.92
634.98	1114.62
635.32	1107.55
635.67	1101.08
636.01	1094.43
636.36	1087.76
636.70	1081.35
637.05	1074.77
637.39	1068.32
637.73	1061.81
638.08	1055.97
638.42	1050.01
638.77	1043.49
639.11	1036.84
639.45	1030.49
639.80	1023.89
640.14	1017.47
640.49	1010.95
640.83	1004.68
641.17	998.33
641.52	992.05
641.86	985.65
642.20	979.82
642.55	973.57
642.89	967.01
643.23	960.49
643.58	954.66
643.92	948.44
644.26	942.41
644.61	936.37
644.95	930.27
645.29	923.64
645.64	916.88
645.98	910.49
646.32	904.74
646.66	898.68
647.01	892.85
647.35	887.24
647.69	881.43
648.04	875.93
648.38	870.20
648.72	864.10
649.06	858.06
649.41	852.22
649.75	846.21
650.09	840.32
650.43	834.53
650.78	828.38
651.12	822.39
651.46	816.67
651.80	810.97
652.14	805.62
652.49	800.27
652.83	795.11
653.17	789.46
653.51	783.71
653.85	778.31
654.20	772.70
654.54	766.78
654.88	761.02
655.22	755.12
655.56	749.47
655.90	744.05
656.25	738.84
656.59	733.58
656.93	728.55
657.27	723.39
657.61	717.97
657.95	712.87
658.29	707.81
658.64	702.53
658.98	697.26
659.32	691.81
659.66	686.69
660.00	681.39
660.34	676.52
660.68	671.62
661.02	666.69
661.36	662.00
661.70	657.48
662.05	653.09
662.39	648.77
662.73	644.39
663.07	640.04
663.41	635.53
663.75	630.95
664.09	626.38
664.43	622.00
664.77	617.88
665.11	613.69
665.45	609.64
665.79	605.62
666.13	601.44
666.47	597.36
666.81	593.15
667.15	589.12
667.49	585.25
667.83	581.50
668.17	577.51
668.51	573.48
668.85	569.47
669.19	565.74
669.53	561.89
669.87	557.98
670.21	554.29
670.55	550.67
670.89	547.33
671.23	543.87
671.57	540.43
671.91	536.94
672.25	533.47
672.58	529.91
672.92	526.54
673.26	523.50
673.60	520.37
673.94	517.31
674.28	514.38
674.62	511.41
674.96	508.33
675.30	505.40
675.64	502.48
675.97	499.70
676.31	496.81
676.65	493.92
676.99	491.28
677.33	488.47
677.67	485.62
678.01	482.57
678.34	479.61
678.68	476.72
679.02	473.84
679.36	471.05
679.70	468.39
680.04	465.58
680.37	462.63
680.71	459.84
681.05	457.19
681.39	454.45
681.73	451.79
682.06	449.21
682.40	446.70
682.74	444.20
683.08	441.63
683.42	439.03
683.75	436.58
684.09	433.98
684.43	431.52
684.77	429.10
685.10	426.76
685.44	424.50
685.78	422.22
686.12	420.02
686.45	417.73
686.79	415.42
687.13	413.27
687.46	411.13
687.80	409.03
688.14	406.89
688.48	404.88
688.81	402.62
689.15	400.54
689.49	398.39
689.82	396.32
690.16	394.26
690.50	392.32
690.83	390.34
691.17	388.39
691.51	386.49
691.84	384.67
692.18	382.72
692.52	380.68
692.85	378.81
693.19	376.93
693.52	375.20
693.86	373.38
694.20	371.60
694.53	369.82
694.87	367.96
695.21	366.18
695.54	364.36
695.88	362.68
696.21	360.91
696.55	359.27
696.88	357.53
697.22	355.87
697.56	354.27
697.89	352.60
698.23	351.01
698.56	349.38
698.90	347.76
699.23	346.15
699.57	344.62
699.90	343.06
700.24	341.55
700.58	339.93
700.91	338.47
701.25	337.06
701.58	335.66
701.92	334.33
702.25	332.92
702.59	331.59
702.92	330.26
703.26	328.99
703.59	327.68
703.93	326.54
704.26	325.33
704.60	324.03
704.93	322.78
705.26	321.55
705.60	320.40
705.93	319.27
706.27	318.26
706.60	317.24
706.94	316.19
707.27	315.01
707.61	313.98
707.94	312.94
708.27	311.87
708.61	310.82
708.94	309.77
709.28	308.78
709.61	307.80
709.94	306.88
710.28	305.89
710.61	304.94
710.95	303.86
711.28	302.95
711.61	302.01
711.95	301.10
712.28	300.14
712.61	299.18
712.95	298.25
713.28	297.37
713.61	296.49
713.95	295.64
714.28	294.84
714.61	294.02
714.95	293.21
715.28	292.34
715.61	291.49
715.95	290.67
716.28	289.87
716.61	289.02
716.95	288.17
717.28	287.44
717.61	286.67
717.94	285.96
718.28	285.13
718.61	284.41
718.94	283.72
719.27	283.04
719.61	282.37
719.94	281.73
720.27	281.06
720.60	280.41
720.94	279.72
721.27	279.14
721.60	278.56
721.93	277.92
722.27	277.39
722.60	276.85
722.93	276.27
723.26	275.68
723.59	275.11
723.93	274.57
724.26	273.99
724.59	273.46
724.92	272.92
725.25	272.41
725.59	271.89
725.92	271.37
726.25	270.86
726.58	270.34
726.91	269.81
727.24	269.30
727.57	268.79
727.91	268.30
728.24	267.80
728.57	267.28
728.90	266.82
729.23	266.30
729.56	265.86
729.89	265.37
730.22	264.92
730.55	264.46
730.89	264.01
731.22	263.55
731.55	263.09
731.88	262.63
732.21	262.23
732.54	261.79
732.87	261.36
733.20	261.00
733.53	260.63
733.86	260.25
734.19	259.84
734.52	259.50
734.85	259.22
735.18	258.80
735.51	258.46
735.84	258.07
736.17	257.73
736.50	257.33
736.83	257.10
737.16	256.78
737.49	256.48
737.82	256.12
738.15	255.81
738.48	255.46
738.81	255.17
739.14	254.85
739.47	254.53
739.80	254.23
740.13	253.92
740.46	253.56
740.79	253.25
741.12	252.93
741.45	252.58
741.78	252.18
742.11	251.89
742.44	251.56
742.77	251.30
743.10	251.00
743.43	250.73
743.75	250.39
744.08	250.23
744.41	249.92
744.74	249.67
745.07	249.42
745.40	249.22
745.73	248.97
746.06	248.71
746.39	248.46
746.71	248.17
747.04	247.88
747.37	247.65
747.70	247.44
748.03	247.22
748.36	246.99
748.68	246.80
749.01	246.58
749.34	246.37
749.67	246.12
750.00	245.86
750.33	245.69
750.65	245.48
750.98	245.15
751.31	244.92
751.64	244.70
751.97	244.52
752.29	244.24
752.62	243.97
752.95	243.75
753.28	243.53
753.60	243.34
753.93	243.18
754.26	243.00
754.59	242.78
754.91	242.57
755.24	242.39
755.57	242.20
755.90	242.00
756.22	241.78
756.55	241.57
756.88	241.39
757.20	241.17
757.53	240.96
757.86	240.81
758.19	240.66
758.51	240.49
758.84	240.28
759.17	240.15
759.49	240.04
759.82	239.95
760.15	239.80
760.47	239.66
760.80	239.46
761.13	239.30
761.45	239.11
761.78	238.96
762.11	238.82
762.43	238.66
762.76	238.52
763.08	238.43
763.41	238.31
763.74	238.18
764.06	238.02
764.39	237.87
764.71	237.71
765.04	237.58
765.37	237.47
765.69	237.31
766.02	237.16
766.34	237.00
766.67	236.83
767.00	236.76
767.32	236.69
767.65	236.63
767.97	236.52
768.30	236.42
768.62	236.29
768.95	236.12
769.27	235.99
769.60	235.88
769.92	235.75
770.25	235.65
770.57	235.55
770.90	235.44
771.22	235.29
771.55	235.18
771.87	235.09
772.20	234.97
772.52	234.96
772.85	235.02
773.17	234.94
773.50	234.81
773.82	234.67
774.15	234.53
774.47	234.38
774.80	234.30
775.12	234.20
775.45	234.12
775.77	234.07
776.09	233.98
776.42	233.91
776.74	233.84
777.07	233.77
777.39	233.69
777.72	233.61
778.04	233.59
778.36	233.53
778.69	233.47
779.01	233.38
779.33	233.25
779.66	233.05
779.98	232.98
780.31	232.93
780.63	232.88
780.95	232.82
781.28	232.78
781.60	232.70
781.92	232.61
782.25	232.56
782.57	232.52
782.89	232.44
783.22	232.37
783.54	232.31
783.86	232.23
784.19	232.15
784.51	232.13
784.83	232.05
785.16	231.97
785.48	231.90
785.80	231.89
786.12	231.84
786.45	231.80
786.77	231.78
787.09	231.72
787.42	231.66
787.74	231.59
788.06	231.55
788.38	231.48
788.71	231.46
789.03	231.44
789.35	231.43
789.67	231.44
789.99	231.46
790.32	231.39
790.64	231.37
790.96	231.45
791.28	231.39
791.61	231.33
791.93	231.34
792.25	231.31
792.57	231.32
792.89	231.26
793.21	231.23
793.54	231.16
793.86	231.10
794.18	231.05
794.50	231.05
794.82	231.00
795.14	231.00
795.47	230.96
795.79	230.91
796.11	230.86
796.43	230.78
796.75	230.74
797.07	230.73
797.39	230.70
797.71	230.57
798.04	230.53
798.36	230.53
798.68	230.46
799.00	230.42
799.32	230.37
799.64	230.36
799.96	230.34
800.28	230.32
800.60	230.33
800.92	230.29
801.24	230.23
801.56	230.21
801.89	230.17
802.21	230.17
802.53	230.12
802.85	230.10
803.17	230.09
803.49	230.00
803.81	229.97
804.13	229.93
804.45	229.91
804.77	229.91
805.09	229.88
805.41	229.87
805.73	229.84
806.05	229.80
806.37	229.77
806.69	229.71
807.01	229.66
807.33	229.63
807.65	229.61
807.97	229.65
808.28	229.61
808.60	229.58
808.92	229.57
809.24	229.60
809.56	229.55
809.88	229.51
810.20	229.52
810.52	229.46
810.84	229.43
811.16	229.39
811.48	229.35
811.80	229.34
812.12	229.29
812.43	229.32
812.75	229.25
813.07	229.25
813.39	229.24
813.71	229.24
814.03	229.25
814.35	229.24
814.67	229.17
814.98	229.17
815.30	229.12
815.62	229.06
815.94	229.01
816.26	229.02
816.58	229.00
816.89	228.97
817.21	229.01
817.53	228.99
817.85	228.96
818.17	228.94
818.48	228.91
818.80	228.95
819.12	228.88
819.44	228.88
819.76	228.82
820.07	228.83
820.39	228.80
820.71	228.76
821.03	228.73
821.34	228.71
821.66	228.71
821.98	228.71
822.30	228.69
822.61	228.72
822.93	228.69
823.25	228.69
823.57	228.69
823.88	228.72
824.20	228.72
824.52	228.73
824.83	228.72
825.15	228.69
825.47	228.66
825.79	228.67
826.10	228.67
826.42	228.64
826.74	228.65
827.05	228.64
827.37	228.64
827.69	228.65
828.00	228.66
828.32	228.63
828.64	228.66
828.95	228.71
829.27	228.70
829.58	228.67
829.90	228.66
830.22	228.65
830.53	228.57
830.85	228.56
831.17	228.51
831.48	228.51
831.80	228.52
832.11	228.54
832.43	228.53
832.75	228.50
833.06	228.56
833.38	228.48
833.69	228.46
834.01	228.47
834.32	228.42
834.64	228.39
834.96	228.39
835.27	228.38
835.59	228.31
835.90	228.25
836.22	228.26
836.53	228.22
836.85	228.16
837.16	228.26
837.48	228.21
837.79	228.24
838.11	228.24
838.42	228.24
838.74	228.20
839.05	228.16
839.37	228.15
839.68	228.07
840.00	228.10
840.31	228.09
840.63	228.04
840.94	228.05
841.26	228.03
841.57	228.01
841.88	227.98
842.20	228.01
842.51	227.98
842.83	227.96
843.14	228.03
843.46	228.08
843.77	228.02
844.08	228.04
844.40	228.02
844.71	227.97
845.03	227.94
845.34	227.92
845.65	227.89
845.97	227.91
846.28	227.92
846.60	227.92
846.91	227.89
847.22	227.90
847.54	227.93
847.85	227.90
848.16	227.87
848.48	227.85
848.79	227.84
849.10	227.87
849.42	227.86
849.73	227.76
850.04	227.72
850.36	227.68
850.67	227.68
850.98	227.66
851.30	227.64
851.61	227.64
851.92	227.67
852.23	227.75
852.55	227.74
852.86	227.73
853.17	227.70
853.49	227.76
853.80	227.77
854.11	227.73
854.42	227.76
854.74	227.74
855.05	227.74
855.36	227.73
855.67	227.71
855.99	227.72
856.30	227.83
856.61	227.80
856.92	227.80
857.23	227.76
857.55	227.77
857.86	227.77
858.17	227.78
858.48	227.71
858.79	227.65
859.11	227.66
859.42	227.67
859.73	227.66
860.04	227.66
860.35	227.63
860.66	227.62
860.98	227.66
861.29	227.71
861.60	227.72
861.91	227.73
862.22	227.73
862.53	227.71
862.84	227.61
863.16	227.67
863.47	227.68
863.78	227.70
864.09	227.71
864.40	227.75
864.71	227.74
865.02	227.76
865.33	227.75
865.64	227.72
865.95	227.71
866.27	227.76
866.58	227.75
866.89	227.78
867.20	227.78
867.51	227.71
867.82	227.70
868.13	227.70
868.44	227.66
868.75	227.69
869.06	227.71
869.37	227.73
869.68	227.71
869.99	227.70
870.30	227.72
870.61	227.73
870.92	227.67
871.23	227.64
871.54	227.68
871.85	227.69
872.16	227.68
872.47	227.66
872.78	227.61
873.09	227.60
873.40	227.55
873.71	227.55
874.02	227.55
874.33	227.52
874.64	227.54
874.95	227.53
875.26	227.47
875.56	227.42
875.87	227.42
876.18	227.38
876.49	227.44
876.80	227.42
877.11	227.39
877.42	227.42
877.73	227.43
878.04	227.42
878.35	227.44
878.66	227.43
878.96	227.45
879.27	227.43
879.58	227.40
879.89	227.40
880.20	227.42
880.51	227.43
880.82	227.42
881.12	227.40
881.43	227.37
881.74	227.37
882.05	227.38
882.36	227.37
882.67	227.38
882.97	227.30
883.28	227.30
883.59	227.28
883.90	227.25
884.21	227.24
884.51	227.20
884.82	227.16
885.13	227.18
885.44	227.17
885.74	227.18
886.05	227.19
886.36	227.19
886.67	227.16
886.98	227.16
887.28	227.16
887.59	227.17
887.90	227.17
888.20	227.19
888.51	227.21
888.82	227.21
889.13	227.22
889.43	227.32
889.74	227.32
890.05	227.32
890.35	227.33
890.66	227.33
890.97	227.33
891.28	227.36
891.58	227.36
891.89	227.34
892.20	227.32
892.50	227.31
892.81	227.31
893.12	227.31
893.42	227.27
893.73	227.31
894.04	227.32
894.34	227.34
894.65	227.33
894.95	227.31
895.26	227.32
895.57	227.37
895.87	227.27
896.18	227.26
896.48	227.27
896.79	227.27
897.10	227.29
897.40	227.30
897.71	227.31
898.01	227.30
898.32	227.32
898.63	227.33
898.93	227.34
899.24	227.34
899.54	227.33
899.85	227.34
900.15	227.30
900.46	227.29
900.76	227.28
901.07	227.31
901.38	227.29
901.68	227.30
901.99	227.25
902.29	227.24
902.60	227.25
902.90	227.24
903.21	227.25
903.51	227.23
903.82	227.24
904.12	227.22
904.43	227.24
904.73	227.24
905.03	227.28
905.34	227.37
905.64	227.36
905.95	227.37
906.25	227.37
906.56	227.38
906.86	227.39
907.17	227.39
907.47	227.36
907.77	227.39
908.08	227.36
908.38	227.37
908.69	227.38
908.99	227.42
909.30	227.44
909.60	227.41
909.90	227.41
910.21	227.37
910.51	227.35
910.81	227.35
911.12	227.40
911.42	227.39
911.73	227.29
912.03	227.28
912.33	227.31
912.64	227.30
912.94	227.30
913.24	227.26
913.55	227.24
913.85	227.26
914.15	227.27
914.46	227.28
914.76	227.24
915.06	227.21
915.37	227.19
915.67	227.17
915.97	227.13
916.27	227.14
916.58	227.14
916.88	227.15
917.18	227.13
917.49	227.15
917.79	227.12
918.09	227.13
918.39	227.15
918.70	227.16
919.00	227.17
919.30	227.19
919.60	227.20
919.91	227.22
920.21	227.21
920.51	227.16
920.81	227.14
921.12	227.17
921.42	227.18
921.72	227.18
922.02	227.19
922.32	227.25
922.63	227.22
922.93	227.29
923.23	227.32
923.53	227.28
923.83	227.21
924.13	227.23
924.44	227.24
924.74	227.27
925.04	227.26
925.34	227.29
925.64	227.26
925.94	227.26
926.24	227.30
926.55	227.33
926.85	227.37
927.15	227.36
927.45	227.36
927.75	227.37
928.05	227.38
928.35	227.39
928.65	227.41
928.95	227.44
929.26	227.43
929.56	227.38
929.86	227.41
930.16	227.42
930.46	227.45
930.76	227.43
931.06	227.38
931.36	227.36
931.66	227.38
931.96	227.40
932.26	227.41
932.56	227.34
932.86	227.34
933.16	227.33
933.46	227.34
933.76	227.35
934.06	227.41
934.36	227.42
934.66	227.42
934.96	227.42
935.26	227.42
935.56	227.42
935.86	227.46
936.16	227.44
936.46	227.44
936.76	227.39
937.06	227.39
937.36	227.39
937.66	227.40
937.96	227.36
938.26	227.32
938.56	227.32
938.86	227.33
939.16	227.32
939.46	227.31
939.76	227.32
940.06	227.30
940.35	227.24
940.65	227.21
940.95	227.21
941.25	227.18
941.55	227.17
941.85	227.15
942.15	227.14
942.45	227.16
942.75	227.13
943.04	227.14
943.34	227.16
943.64	227.15
943.94	227.13
944.24	227.13
944.54	227.13
944.84	227.14
945.13	227.14
945.43	227.15
945.73	227.15
946.03	227.12
946.33	227.08
946.62	227.08
946.92	227.06
947.22	227.05
947.52	227.05
947.82	227.05
948.11	227.02
948.41	226.98
948.71	226.96
949.01	226.96
949.31	226.95
949.60	226.93
949.90	226.92
950.20	226.89
950.50	226.88
950.79	226.88
951.09	226.86
951.39	226.84
951.69	226.78
951.98	226.79
952.28	226.82
952.58	226.82
952.87	226.77
953.17	226.77
953.47	226.75
953.76	226.74
954.06	226.75
954.36	226.74
954.66	226.73
954.95	226.74
955.25	226.77
955.55	226.78
955.84	226.75
956.14	226.75
956.44	226.82
956.73	226.80
957.03	226.79
957.32	226.80
957.62	226.82
957.92	226.84
958.21	226.85
958.51	226.95
958.81	226.95
959.10	226.99
959.40	226.99
959.69	226.99
959.99	227.01
960.29	227.01
960.58	227.02
960.88	227.10
961.17	227.10
961.47	227.12
961.76	227.10
962.06	227.11
962.36	227.14
962.65	227.12
962.95	227.15
963.24	227.16
963.54	227.17
963.83	227.19
964.13	227.20
964.42	227.14
964.72	227.04
965.01	227.09
965.31	227.10
965.60	227.11
965.90	227.19
966.19	227.16
966.49	227.20
966.78	227.22
967.08	227.20
967.37	227.20
967.67	227.16
967.96	227.17
968.26	227.18
968.55	227.21
968.85	227.18
969.14	227.21
969.43	227.19
969.73	227.19
970.02	227.20
970.32	227.17
970.61	227.20
970.91	227.18
971.20	227.16
971.49	227.15
971.79	227.16
972.08	227.11
972.38	227.15
972.67	227.14
972.96	227.14
973.26	227.11
973.55	227.16
973.85	227.17
974.14	227.17
974.43	227.18
974.73	227.15
975.02	227.15
975.31	227.12
975.61	227.12
975.90	227.12
976.19	227.09
976.49	227.13
976.78	227.12
977.07	227.14
977.37	227.16
977.66	227.19
977.95	227.17
978.24	227.17
978.54	227.17
978.83	227.14
979.12	227.13
979.42	227.13
979.71	227.09
980.00	227.07
980.29	227.08
980.59	227.07
980.88	227.10
981.17	227.10
981.46	227.10
981.76	227.11
982.05	227.13
982.34	227.13
982.63	227.14
982.93	227.15
983.22	227.16
983.51	227.16
983.80	227.17
984.09	227.17
984.39	227.16
984.68	227.13
984.97	227.13
985.26	227.11
985.55	227.08
985.85	227.08
986.14	227.08
986.43	227.06
986.72	227.04
987.01	226.98
987.30	226.96
987.59	226.94
987.89	226.96
988.18	226.89
988.47	226.88
988.76	226.86
989.05	226.86
989.34	226.84
989.63	226.84
989.92	226.83
990.22	226.80
990.51	226.76
990.80	226.75
991.09	226.76
991.38	226.80
991.67	226.81
991.96	226.77
992.25	226.80
992.54	226.79
992.83	226.75
993.12	226.77
993.41	226.75
993.70	226.80
993.99	226.79
994.28	226.86
994.58	226.89
994.87	226.84
995.16	226.81
995.45	226.80
995.74	226.76
996.03	226.74
996.32	226.80
996.61	226.88
996.90	226.88
997.19	226.88
997.48	226.87
997.77	226.86
998.06	226.85
998.34	226.85
998.63	226.86
998.92	226.90
999.21	226.92
999.50	226.96
999.79	226.90
1000.08	226.91
1000.37	226.85
1000.66	226.82
1000.95	226.89
1001.24	226.91
1001.53	226.96
1001.82	226.98
1002.11	226.96
1002.40	226.96
1002.68	226.97
1002.97	227.03
1003.26	227.01
1003.55	227.00
1003.84	227.02
1004.13	227.08
1004.42	227.10
1004.71	227.11
1004.99	227.13
1005.28	227.16
1005.57	227.20
1005.86	227.22
1006.15	227.21
1006.44	227.23
1006.72	227.25
1007.01	227.22
1007.30	227.24
1007.59	227.21
1007.88	227.20
1008.17	227.19
1008.45	227.15
1008.74	227.10
1009.03	227.06
1009.32	227.06
1009.60	227.07
1009.89	227.04
1010.18	227.01
1010.47	226.99
1010.76	226.99
1011.04	226.95
1011.33	226.94
1011.62	226.92
1011.91	226.96
1012.19	226.96
1012.48	226.98
1012.77	227.03
1013.05	227.10
1013.34	227.06
1013.63	227.05
1013.92	227.06
1014.20	227.07
1014.49	227.11
1014.78	227.12
1015.06	227.10
1015.35	227.10
1015.64	227.11
1015.92	227.13
1016.21	227.16
1016.50	227.14
1016.78	227.15
1017.07	227.14
1017.36	227.16
1017.64	227.12
1017.93	227.10
1018.22	227.09
1018.50	227.06
1018.79	227.00
1019.08	226.93
1019.36	226.97
1019.65	226.95
1019.93	226.99
1020.22	227.00
1020.51	227.02
1020.79	227.00
1021.08	227.08
1021.36	226.74
1021.65	226.65
1021.94	226.83
1022.22	227.15
1022.51	226.63
1022.79	227.50
1023.08	227.27
1023.36	228.05
1023.65	226.36
>>>>>End Processed Spectral Data<<<<<
