SpectraSuite Data File
++++++++++++++++++++++++++++++++++++
Date: Fri Feb 01 15:59:18 EST 2013
User: group
Dark Spectrum Present: No
Reference Spectrum Present: No
Number of Sampled Component Spectra: 1
Spectrometers: USB2E7196
Integration Time (usec): 35000 (USB2E7196)
Spectra Averaged: 100 (USB2E7196)
Boxcar Smoothing: 10 (USB2E7196)
Correct for Electrical Dark: No (USB2E7196)
Strobe/Lamp Enabled: No (USB2E7196)
Correct for Detector Non-linearity: No (USB2E7196)
Correct for Stray Light: No (USB2E7196)
Number of Pixels in Processed Spectrum: 2048
>>>>>Begin Processed Spectral Data<<<<<
339.09	0.00
339.48	214.75
339.86	215.86
340.24	217.81
340.63	219.05
341.01	222.17
341.39	221.36
341.78	223.91
342.16	224.31
342.54	224.57
342.93	213.28
343.31	224.07
343.69	224.58
344.07	225.09
344.46	225.52
344.84	225.91
345.22	226.12
345.60	226.37
345.99	226.50
346.37	226.64
346.75	226.76
347.13	226.80
347.52	226.87
347.90	226.95
348.28	226.97
348.66	227.01
349.05	226.97
349.43	226.97
349.81	227.02
350.19	227.04
350.57	227.11
350.96	227.15
351.34	227.21
351.72	227.36
352.10	227.46
352.48	227.54
352.87	227.59
353.25	227.67
353.63	227.74
354.01	227.82
354.39	227.88
354.77	227.96
355.15	228.06
355.54	228.11
355.92	228.17
356.30	228.26
356.68	228.39
357.06	228.50
357.44	228.57
357.82	228.62
358.20	228.69
358.58	228.75
358.97	228.83
359.35	228.94
359.73	229.00
360.11	229.00
360.49	229.04
360.87	229.09
361.25	229.18
361.63	229.23
362.01	229.30
362.39	229.32
362.77	229.38
363.15	229.43
363.53	229.46
363.91	229.48
364.29	229.48
364.67	229.40
365.05	229.39
365.43	229.42
365.81	229.43
366.19	229.49
366.57	229.52
366.95	229.51
367.33	229.44
367.71	229.40
368.09	229.45
368.47	229.42
368.85	229.39
369.23	229.35
369.61	229.31
369.99	229.30
370.37	229.29
370.75	229.27
371.13	229.23
371.51	229.16
371.89	229.08
372.27	229.02
372.65	229.01
373.03	228.97
373.41	228.92
373.78	228.86
374.16	228.74
374.54	228.62
374.92	228.56
375.30	228.47
375.68	228.41
376.06	228.30
376.44	228.23
376.82	228.15
377.19	228.07
377.57	227.97
377.95	227.90
378.33	227.77
378.71	227.65
379.09	227.56
379.47	227.53
379.84	227.46
380.22	227.42
380.60	227.30
380.98	227.21
381.36	227.14
381.73	227.06
382.11	227.00
382.49	226.96
382.87	226.89
383.25	226.88
383.62	226.94
384.00	226.89
384.38	226.83
384.76	226.81
385.13	226.78
385.51	226.72
385.89	226.64
386.27	226.62
386.64	226.59
387.02	226.51
387.40	226.45
387.78	226.42
388.15	226.38
388.53	226.33
388.91	226.32
389.29	226.31
389.66	226.29
390.04	226.29
390.42	226.28
390.79	226.25
391.17	226.23
391.55	226.10
391.92	226.06
392.30	226.08
392.68	226.07
393.05	226.09
393.43	226.16
393.81	226.16
394.18	226.16
394.56	226.17
394.94	226.20
395.31	226.21
395.69	226.27
396.06	226.31
396.44	226.37
396.82	226.41
397.19	226.49
397.57	226.55
397.95	226.60
398.32	226.65
398.70	226.73
399.07	226.80
399.45	226.88
399.82	226.98
400.20	227.03
400.58	227.09
400.95	227.12
401.33	227.18
401.70	227.37
402.08	227.45
402.45	227.53
402.83	227.68
403.20	227.81
403.58	227.91
403.95	228.03
404.33	228.15
404.71	228.29
405.08	228.44
405.46	228.55
405.83	228.70
406.21	228.87
406.58	229.01
406.96	229.16
407.33	229.31
407.70	229.48
408.08	229.74
408.45	230.00
408.83	230.25
409.20	230.46
409.58	230.58
409.95	230.85
410.33	231.16
410.70	231.38
411.08	231.64
411.45	231.94
411.82	232.22
412.20	232.59
412.57	232.97
412.95	233.27
413.32	233.69
413.69	234.07
414.07	234.46
414.44	234.92
414.82	235.40
415.19	235.92
415.56	236.49
415.94	237.05
416.31	237.66
416.68	238.28
417.06	238.98
417.43	239.68
417.81	240.45
418.18	241.18
418.55	242.05
418.93	242.92
419.30	243.82
419.67	244.74
420.04	245.68
420.42	246.66
420.79	247.82
421.16	248.95
421.54	250.15
421.91	251.34
422.28	252.61
422.66	253.92
423.03	255.27
423.40	256.61
423.77	258.00
424.15	259.42
424.52	260.89
424.89	262.50
425.26	264.08
425.64	265.51
426.01	267.10
426.38	268.73
426.75	270.41
427.13	272.15
427.50	273.99
427.87	275.90
428.24	277.76
428.61	279.51
428.99	281.43
429.36	283.55
429.73	285.66
430.10	287.66
430.47	289.72
430.85	291.81
431.22	294.03
431.59	296.45
431.96	298.71
432.33	301.20
432.70	303.62
433.08	306.45
433.45	309.12
433.82	311.76
434.19	314.66
434.56	317.52
434.93	320.18
435.30	322.81
435.68	325.68
436.05	328.53
436.42	331.31
436.79	333.86
437.16	336.58
437.53	339.42
437.90	342.27
438.27	345.04
438.64	347.83
439.01	350.43
439.38	352.63
439.75	354.78
440.13	357.28
440.50	359.60
440.87	361.43
441.24	363.34
441.61	365.49
441.98	366.95
442.35	368.66
442.72	370.50
443.09	372.27
443.46	373.21
443.83	373.78
444.20	374.34
444.57	375.18
444.94	375.45
445.31	375.78
445.68	376.10
446.05	376.18
446.42	375.84
446.79	375.41
447.16	374.95
447.53	374.60
447.90	373.40
448.27	372.21
448.64	370.63
449.01	369.51
449.37	367.50
449.74	365.63
450.11	363.42
450.48	360.99
450.85	358.45
451.22	356.35
451.59	354.35
451.96	352.38
452.33	349.74
452.70	347.37
453.07	344.53
453.43	341.63
453.80	338.88
454.17	336.15
454.54	333.61
454.91	330.91
455.28	328.23
455.65	325.73
456.02	323.27
456.38	321.10
456.75	318.41
457.12	316.21
457.49	313.99
457.86	311.83
458.23	309.92
458.59	307.93
458.96	305.85
459.33	303.96
459.70	302.06
460.07	300.55
460.43	298.82
460.80	297.22
461.17	295.78
461.54	294.25
461.91	292.88
462.27	291.43
462.64	290.15
463.01	288.84
463.38	287.56
463.74	286.19
464.11	285.03
464.48	284.03
464.85	282.90
465.21	282.01
465.58	281.03
465.95	279.95
466.32	278.98
466.68	278.04
467.05	277.16
467.42	276.28
467.78	275.39
468.15	274.54
468.52	273.86
468.88	273.01
469.25	272.23
469.62	271.59
469.98	270.94
470.35	270.32
470.72	269.71
471.08	269.09
471.45	268.59
471.82	268.06
472.18	267.46
472.55	267.00
472.92	266.51
473.28	266.10
473.65	265.67
474.02	265.27
474.38	264.92
474.75	264.59
475.11	264.26
475.48	264.00
475.85	263.78
476.21	263.57
476.58	263.37
476.94	263.26
477.31	263.08
477.67	262.96
478.04	262.87
478.41	262.82
478.77	262.84
479.14	262.77
479.50	262.76
479.87	262.86
480.23	262.96
480.60	263.01
480.96	263.13
481.33	263.34
481.69	263.55
482.06	263.75
482.42	263.96
482.79	264.23
483.15	264.51
483.52	264.88
483.88	265.22
484.25	265.62
484.61	266.03
484.98	266.48
485.34	267.06
485.71	267.63
486.07	268.24
486.44	268.82
486.80	269.52
487.17	270.26
487.53	271.07
487.90	271.89
488.26	272.84
488.62	273.81
488.99	274.77
489.35	275.79
489.72	276.94
490.08	278.14
490.44	279.39
490.81	280.75
491.17	282.11
491.54	283.61
491.90	285.18
492.26	286.81
492.63	288.59
492.99	290.34
493.36	292.24
493.72	294.24
494.08	296.36
494.45	298.63
494.81	301.03
495.17	303.46
495.54	306.10
495.90	308.77
496.26	311.61
496.63	314.60
496.99	317.75
497.35	321.01
497.72	324.42
498.08	327.94
498.44	331.61
498.80	335.55
499.17	339.60
499.53	343.73
499.89	348.14
500.26	352.63
500.62	357.34
500.98	362.36
501.34	367.45
501.71	372.80
502.07	378.29
502.43	383.92
502.79	389.82
503.16	395.82
503.52	402.13
503.88	408.50
504.24	415.14
504.60	421.99
504.97	429.14
505.33	436.51
505.69	444.23
506.05	452.03
506.41	459.88
506.78	467.97
507.14	476.48
507.50	485.14
507.86	494.21
508.22	503.38
508.59	512.54
508.95	522.16
509.31	532.04
509.67	542.14
510.03	552.37
510.39	562.95
510.75	573.84
511.12	584.79
511.48	596.03
511.84	607.46
512.20	618.93
512.56	630.79
512.92	642.98
513.28	655.27
513.64	667.79
514.00	680.50
514.37	693.53
514.73	706.56
515.09	719.66
515.45	732.91
515.81	746.53
516.17	760.50
516.53	774.54
516.89	788.68
517.25	802.83
517.61	817.34
517.97	831.72
518.33	846.07
518.69	860.86
519.05	875.95
519.41	891.07
519.77	906.67
520.13	922.12
520.49	937.48
520.85	952.93
521.21	968.60
521.57	984.82
521.93	1000.57
522.29	1016.92
522.65	1033.16
523.01	1049.39
523.37	1065.42
523.73	1081.61
524.09	1097.75
524.45	1113.94
524.81	1130.57
525.17	1147.18
525.53	1164.03
525.89	1180.91
526.25	1197.67
526.61	1214.00
526.97	1230.76
527.33	1247.16
527.68	1263.70
528.04	1280.16
528.40	1296.73
528.76	1313.71
529.12	1330.29
529.48	1347.03
529.84	1362.99
530.20	1379.61
530.56	1396.59
530.91	1413.91
531.27	1430.76
531.63	1447.20
531.99	1463.79
532.35	1479.67
532.71	1495.60
533.07	1511.72
533.42	1527.61
533.78	1543.64
534.14	1559.95
534.50	1575.31
534.86	1591.17
535.21	1606.31
535.57	1622.28
535.93	1637.70
536.29	1652.48
536.65	1667.46
537.00	1682.27
537.36	1697.57
537.72	1712.05
538.08	1726.32
538.44	1740.15
538.79	1753.86
539.15	1767.48
539.51	1781.15
539.87	1795.42
540.22	1809.05
540.58	1822.88
540.94	1836.08
541.29	1849.00
541.65	1861.48
542.01	1874.63
542.37	1886.84
542.72	1899.23
543.08	1910.85
543.44	1923.20
543.79	1934.38
544.15	1945.38
544.51	1956.91
544.87	1967.92
545.22	1978.57
545.58	1988.83
545.94	1998.53
546.29	2008.35
546.65	2018.04
547.01	2027.24
547.36	2035.87
547.72	2044.39
548.07	2052.12
548.43	2060.21
548.79	2068.06
549.14	2075.60
549.50	2082.87
549.86	2090.60
550.21	2097.98
550.57	2105.14
550.92	2111.64
551.28	2118.78
551.64	2125.88
551.99	2132.33
552.35	2138.57
552.70	2144.84
553.06	2150.77
553.41	2157.09
553.77	2163.03
554.13	2169.29
554.48	2175.52
554.84	2181.00
555.19	2186.29
555.55	2191.65
555.90	2196.25
556.26	2201.12
556.61	2205.85
556.97	2210.08
557.32	2214.18
557.68	2218.26
558.03	2222.63
558.39	2226.48
558.74	2231.05
559.10	2234.72
559.45	2238.37
559.81	2242.54
560.16	2246.36
560.52	2249.49
560.87	2252.94
561.23	2255.67
561.58	2258.57
561.94	2260.94
562.29	2263.41
562.64	2266.04
563.00	2268.51
563.35	2271.93
563.71	2275.17
564.06	2278.26
564.42	2281.18
564.77	2283.69
565.12	2286.12
565.48	2287.97
565.83	2289.74
566.19	2290.89
566.54	2291.99
566.89	2293.09
567.25	2293.70
567.60	2295.04
567.96	2296.77
568.31	2297.57
568.66	2298.78
569.02	2299.23
569.37	2299.62
569.72	2300.61
570.08	2300.86
570.43	2300.98
570.78	2300.46
571.14	2298.90
571.49	2297.64
571.84	2297.32
572.20	2296.10
572.55	2294.87
572.90	2293.36
573.26	2291.94
573.61	2290.42
573.96	2288.67
574.31	2285.66
574.67	2282.56
575.02	2278.88
575.37	2275.60
575.72	2271.77
576.08	2268.40
576.43	2265.16
576.78	2261.49
577.13	2258.28
577.49	2255.13
577.84	2251.63
578.19	2248.01
578.54	2244.36
578.90	2240.18
579.25	2234.65
579.60	2229.77
579.95	2224.95
580.30	2219.88
580.66	2214.68
581.01	2209.70
581.36	2204.62
581.71	2200.63
582.06	2196.35
582.42	2191.89
582.77	2186.79
583.12	2182.25
583.47	2177.45
583.82	2172.41
584.17	2167.18
584.53	2161.54
584.88	2155.91
585.23	2150.17
585.58	2144.60
585.93	2139.25
586.28	2134.59
586.63	2129.56
586.98	2124.52
587.34	2119.66
587.69	2114.77
588.04	2109.49
588.39	2103.74
588.74	2097.48
589.09	2091.39
589.44	2084.42
589.79	2078.46
590.14	2072.74
590.49	2066.26
590.84	2060.00
591.19	2053.98
591.54	2047.59
591.89	2040.21
592.25	2033.48
592.60	2026.16
592.95	2018.66
593.30	2011.20
593.65	2003.49
594.00	1996.40
594.35	1989.23
594.70	1981.17
595.05	1974.03
595.40	1967.08
595.75	1959.67
596.10	1953.33
596.45	1946.47
596.80	1940.42
597.15	1933.78
597.50	1926.66
597.85	1920.17
598.19	1913.49
598.54	1906.30
598.89	1899.69
599.24	1893.94
599.59	1887.08
599.94	1880.95
600.29	1874.65
600.64	1868.25
600.99	1860.91
601.34	1854.11
601.69	1847.19
602.04	1840.36
602.39	1833.03
602.74	1826.04
603.08	1819.38
603.43	1812.77
603.78	1805.55
604.13	1798.37
604.48	1791.02
604.83	1784.18
605.18	1777.15
605.53	1769.16
605.87	1761.36
606.22	1754.08
606.57	1746.05
606.92	1738.93
607.27	1731.76
607.62	1724.68
607.96	1717.23
608.31	1710.50
608.66	1702.90
609.01	1695.28
609.36	1687.63
609.70	1679.59
610.05	1671.45
610.40	1663.59
610.75	1655.25
611.10	1647.56
611.44	1639.11
611.79	1631.16
612.14	1622.40
612.49	1613.26
612.83	1604.85
613.18	1596.65
613.53	1588.55
613.88	1580.03
614.22	1571.65
614.57	1563.02
614.92	1555.00
615.27	1547.44
615.61	1539.23
615.96	1531.27
616.31	1523.74
616.65	1516.46
617.00	1508.88
617.35	1501.22
617.70	1493.02
618.04	1484.48
618.39	1476.22
618.74	1468.65
619.08	1460.40
619.43	1452.87
619.78	1446.10
620.12	1438.85
620.47	1431.28
620.82	1423.09
621.16	1415.73
621.51	1408.26
621.85	1400.66
622.20	1392.16
622.55	1383.84
622.89	1375.96
623.24	1368.21
623.59	1360.72
623.93	1353.22
624.28	1346.06
624.62	1338.56
624.97	1331.32
625.32	1324.71
625.66	1317.74
626.01	1310.51
626.35	1302.98
626.70	1295.24
627.04	1287.43
627.39	1279.74
627.73	1272.45
628.08	1265.55
628.43	1258.24
628.77	1250.80
629.12	1243.30
629.46	1236.20
629.81	1228.73
630.15	1221.49
630.50	1214.24
630.84	1206.05
631.19	1198.08
631.53	1190.61
631.88	1183.12
632.22	1175.55
632.57	1168.12
632.91	1160.49
633.26	1153.06
633.60	1145.71
633.95	1138.66
634.29	1131.62
634.64	1124.86
634.98	1117.45
635.32	1110.28
635.67	1103.74
636.01	1097.12
636.36	1090.27
636.70	1083.72
637.05	1077.15
637.39	1070.65
637.73	1064.11
638.08	1058.27
638.42	1052.35
638.77	1045.79
639.11	1039.12
639.45	1032.83
639.80	1026.14
640.14	1019.75
640.49	1013.23
640.83	1006.98
641.17	1000.63
641.52	994.31
641.86	987.93
642.20	982.06
642.55	975.77
642.89	969.21
643.23	962.61
643.58	956.76
643.92	950.55
644.26	944.50
644.61	938.48
644.95	932.37
645.29	925.77
645.64	918.98
645.98	912.65
646.32	906.87
646.66	900.62
647.01	894.81
647.35	889.05
647.69	883.27
648.04	877.67
648.38	871.81
648.72	865.74
649.06	859.61
649.41	853.69
649.75	847.71
650.09	841.79
650.43	836.00
650.78	829.92
651.12	823.98
651.46	818.26
651.80	812.55
652.14	807.26
652.49	801.90
652.83	796.80
653.17	791.11
653.51	785.29
653.85	780.04
654.20	774.40
654.54	768.42
654.88	762.66
655.22	756.79
655.56	751.23
655.90	745.81
656.25	740.59
656.59	735.33
656.93	730.32
657.27	725.15
657.61	719.76
657.95	714.62
658.29	709.58
658.64	704.38
658.98	699.13
659.32	693.58
659.66	688.33
660.00	682.95
660.34	677.97
660.68	673.07
661.02	667.99
661.36	663.29
661.70	658.84
662.05	654.50
662.39	650.20
662.73	645.79
663.07	641.39
663.41	637.00
663.75	632.42
664.09	627.81
664.43	623.42
664.77	619.30
665.11	615.09
665.45	610.94
665.79	606.85
666.13	602.68
666.47	598.66
666.81	594.50
667.15	590.40
667.49	586.57
667.83	582.86
668.17	578.93
668.51	574.85
668.85	570.82
669.19	567.02
669.53	563.12
669.87	559.14
670.21	555.47
670.55	551.81
670.89	548.44
671.23	545.05
671.57	541.53
671.91	537.94
672.25	534.42
672.58	530.91
672.92	527.48
673.26	524.33
673.60	521.12
673.94	518.00
674.28	515.10
674.62	512.10
674.96	508.95
675.30	506.10
675.64	503.14
675.97	500.37
676.31	497.46
676.65	494.54
676.99	491.90
677.33	489.05
677.67	486.24
678.01	483.19
678.34	480.16
678.68	477.26
679.02	474.45
679.36	471.68
679.70	468.92
680.04	466.12
680.37	463.24
680.71	460.52
681.05	457.91
681.39	455.21
681.73	452.59
682.06	450.06
682.40	447.46
682.74	444.96
683.08	442.43
683.42	439.79
683.75	437.31
684.09	434.75
684.43	432.31
684.77	429.81
685.10	427.46
685.44	425.17
685.78	422.94
686.12	420.65
686.45	418.35
686.79	416.04
687.13	413.91
687.46	411.68
687.80	409.49
688.14	407.31
688.48	405.19
688.81	402.93
689.15	400.79
689.49	398.64
689.82	396.57
690.16	394.47
690.50	392.49
690.83	390.55
691.17	388.57
691.51	386.65
691.84	384.81
692.18	382.87
692.52	380.88
692.85	378.92
693.19	377.07
693.52	375.28
693.86	373.48
694.20	371.70
694.53	369.92
694.87	368.04
695.21	366.24
695.54	364.43
695.88	362.67
696.21	360.91
696.55	359.24
696.88	357.52
697.22	355.88
697.56	354.29
697.89	352.62
698.23	351.00
698.56	349.32
698.90	347.75
699.23	346.12
699.57	344.61
699.90	343.04
700.24	341.50
700.58	339.95
700.91	338.40
701.25	336.93
701.58	335.61
701.92	334.26
702.25	332.87
702.59	331.51
702.92	330.19
703.26	328.93
703.59	327.64
703.93	326.46
704.26	325.23
704.60	323.89
704.93	322.60
705.26	321.34
705.60	320.23
705.93	319.05
706.27	318.04
706.60	316.95
706.94	315.87
707.27	314.73
707.61	313.71
707.94	312.73
708.27	311.63
708.61	310.52
708.94	309.52
709.28	308.58
709.61	307.64
709.94	306.70
710.28	305.66
710.61	304.71
710.95	303.64
711.28	302.75
711.61	301.81
711.95	300.92
712.28	299.96
712.61	298.95
712.95	298.03
713.28	297.11
713.61	296.22
713.95	295.36
714.28	294.53
714.61	293.65
714.95	292.80
715.28	291.96
715.61	291.11
715.95	290.25
716.28	289.35
716.61	288.54
716.95	287.69
717.28	286.97
717.61	286.22
717.94	285.50
718.28	284.64
718.61	283.94
718.94	283.25
719.27	282.62
719.61	281.98
719.94	281.31
720.27	280.58
720.60	279.94
720.94	279.33
721.27	278.76
721.60	278.19
721.93	277.59
722.27	277.08
722.60	276.53
722.93	275.95
723.26	275.43
723.59	274.85
723.93	274.32
724.26	273.77
724.59	273.20
724.92	272.67
725.25	272.19
725.59	271.67
725.92	271.16
726.25	270.65
726.58	270.16
726.91	269.69
727.24	269.24
727.57	268.74
727.91	268.22
728.24	267.69
728.57	267.23
728.90	266.76
729.23	266.21
729.56	265.78
729.89	265.31
730.22	264.78
730.55	264.30
730.89	263.88
731.22	263.40
731.55	262.99
731.88	262.54
732.21	262.09
732.54	261.68
732.87	261.25
733.20	260.86
733.53	260.50
733.86	260.11
734.19	259.70
734.52	259.28
734.85	258.96
735.18	258.54
735.51	258.14
735.84	257.79
736.17	257.48
736.50	257.05
736.83	256.83
737.16	256.57
737.49	256.22
737.82	255.88
738.15	255.53
738.48	255.15
738.81	254.86
739.14	254.55
739.47	254.20
739.80	253.92
740.13	253.64
740.46	253.29
740.79	252.94
741.12	252.65
741.45	252.39
741.78	252.03
742.11	251.79
742.44	251.44
742.77	251.14
743.10	250.82
743.43	250.52
743.75	250.13
744.08	249.97
744.41	249.70
744.74	249.39
745.07	249.12
745.40	248.89
745.73	248.62
746.06	248.38
746.39	248.11
746.71	247.80
747.04	247.50
747.37	247.24
747.70	247.02
748.03	246.78
748.36	246.54
748.68	246.31
749.01	246.06
749.34	245.85
749.67	245.62
750.00	245.41
750.33	245.23
750.65	244.99
750.98	244.64
751.31	244.43
751.64	244.22
751.97	244.06
752.29	243.85
752.62	243.61
752.95	243.37
753.28	243.18
753.60	243.01
753.93	242.85
754.26	242.67
754.59	242.44
754.91	242.21
755.24	242.01
755.57	241.81
755.90	241.62
756.22	241.47
756.55	241.26
756.88	241.04
757.20	240.85
757.53	240.68
757.86	240.52
758.19	240.35
758.51	240.20
758.84	239.99
759.17	239.82
759.49	239.63
759.82	239.55
760.15	239.38
760.47	239.23
760.80	239.03
761.13	238.87
761.45	238.69
761.78	238.54
762.11	238.43
762.43	238.25
762.76	238.11
763.08	237.95
763.41	237.84
763.74	237.75
764.06	237.58
764.39	237.45
764.71	237.33
765.04	237.19
765.37	237.02
765.69	236.94
766.02	236.78
766.34	236.66
766.67	236.49
767.00	236.38
767.32	236.30
767.65	236.26
767.97	236.13
768.30	236.03
768.62	235.91
768.95	235.76
769.27	235.67
769.60	235.58
769.92	235.44
770.25	235.33
770.57	235.19
770.90	235.08
771.22	234.99
771.55	234.89
771.87	234.82
772.20	234.75
772.52	234.69
772.85	234.74
773.17	234.67
773.50	234.58
773.82	234.48
774.15	234.34
774.47	234.21
774.80	234.15
775.12	234.08
775.45	234.00
775.77	233.93
776.09	233.85
776.42	233.77
776.74	233.75
777.07	233.68
777.39	233.58
777.72	233.53
778.04	233.47
778.36	233.38
778.69	233.29
779.01	233.24
779.33	233.09
779.66	232.91
779.98	232.82
780.31	232.76
780.63	232.74
780.95	232.68
781.28	232.56
781.60	232.50
781.92	232.45
782.25	232.41
782.57	232.34
782.89	232.28
783.22	232.20
783.54	232.12
783.86	232.06
784.19	232.03
784.51	232.02
784.83	231.93
785.16	231.88
785.48	231.84
785.80	231.78
786.12	231.75
786.45	231.70
786.77	231.64
787.09	231.58
787.42	231.51
787.74	231.45
788.06	231.44
788.38	231.41
788.71	231.37
789.03	231.34
789.35	231.33
789.67	231.30
789.99	231.28
790.32	231.24
790.64	231.20
790.96	231.24
791.28	231.17
791.61	231.15
791.93	231.13
792.25	231.09
792.57	231.10
792.89	230.98
793.21	230.97
793.54	230.98
793.86	230.93
794.18	230.91
794.50	230.88
794.82	230.84
795.14	230.79
795.47	230.78
795.79	230.72
796.11	230.69
796.43	230.63
796.75	230.58
797.07	230.56
797.39	230.50
797.71	230.40
798.04	230.41
798.36	230.38
798.68	230.33
799.00	230.30
799.32	230.23
799.64	230.25
799.96	230.20
800.28	230.16
800.60	230.12
800.92	230.08
801.24	230.03
801.56	230.02
801.89	229.97
802.21	229.90
802.53	229.85
802.85	229.81
803.17	229.85
803.49	229.83
803.81	229.79
804.13	229.78
804.45	229.73
804.77	229.67
805.09	229.64
805.41	229.58
805.73	229.55
806.05	229.53
806.37	229.50
806.69	229.46
807.01	229.43
807.33	229.41
807.65	229.34
807.97	229.38
808.28	229.33
808.60	229.31
808.92	229.27
809.24	229.33
809.56	229.28
809.88	229.18
810.20	229.14
810.52	229.12
810.84	229.09
811.16	229.08
811.48	229.04
811.80	229.03
812.12	229.04
812.43	229.05
812.75	229.02
813.07	228.98
813.39	228.97
813.71	228.96
814.03	228.92
814.35	228.92
814.67	228.85
814.98	228.82
815.30	228.82
815.62	228.82
815.94	228.70
816.26	228.76
816.58	228.75
816.89	228.78
817.21	228.73
817.53	228.73
817.85	228.69
818.17	228.65
818.48	228.59
818.80	228.58
819.12	228.52
819.44	228.49
819.76	228.48
820.07	228.43
820.39	228.39
820.71	228.43
821.03	228.40
821.34	228.40
821.66	228.37
821.98	228.32
822.30	228.26
822.61	228.31
822.93	228.24
823.25	228.21
823.57	228.15
823.88	228.15
824.20	228.11
824.52	228.12
824.83	228.10
825.15	228.10
825.47	228.08
825.79	228.09
826.10	228.06
826.42	228.05
826.74	228.05
827.05	228.04
827.37	228.01
827.69	227.99
828.00	227.97
828.32	227.95
828.64	227.97
828.95	228.07
829.27	228.04
829.58	228.02
829.90	228.07
830.22	228.08
830.53	228.09
830.85	228.07
831.17	228.03
831.48	228.05
831.80	228.03
832.11	228.03
832.43	227.98
832.75	227.99
833.06	228.02
833.38	228.01
833.69	227.99
834.01	228.02
834.32	228.00
834.64	228.01
834.96	228.02
835.27	227.98
835.59	227.94
835.90	227.94
836.22	227.92
836.53	227.89
836.85	227.87
837.16	227.96
837.48	227.96
837.79	228.02
838.11	228.03
838.42	228.03
838.74	228.01
839.05	228.03
839.37	228.02
839.68	227.98
840.00	227.96
840.31	227.97
840.63	227.93
840.94	227.95
841.26	227.94
841.57	227.94
841.88	227.94
842.20	227.92
842.51	227.88
842.83	227.89
843.14	227.96
843.46	227.96
843.77	227.91
844.08	227.90
844.40	227.84
844.71	227.80
845.03	227.76
845.34	227.76
845.65	227.72
845.97	227.71
846.28	227.73
846.60	227.75
846.91	227.72
847.22	227.71
847.54	227.72
847.85	227.73
848.16	227.72
848.48	227.72
848.79	227.72
849.10	227.73
849.42	227.72
849.73	227.61
850.04	227.60
850.36	227.54
850.67	227.55
850.98	227.58
851.30	227.61
851.61	227.63
851.92	227.63
852.23	227.66
852.55	227.64
852.86	227.63
853.17	227.61
853.49	227.64
853.80	227.67
854.11	227.66
854.42	227.63
854.74	227.63
855.05	227.61
855.36	227.56
855.67	227.53
855.99	227.54
856.30	227.62
856.61	227.59
856.92	227.61
857.23	227.60
857.55	227.57
857.86	227.57
858.17	227.57
858.48	227.54
858.79	227.52
859.11	227.54
859.42	227.54
859.73	227.51
860.04	227.51
860.35	227.45
860.66	227.41
860.98	227.39
861.29	227.38
861.60	227.38
861.91	227.39
862.22	227.36
862.53	227.32
862.84	227.22
863.16	227.21
863.47	227.14
863.78	227.11
864.09	227.09
864.40	227.08
864.71	227.11
865.02	227.12
865.33	227.10
865.64	227.07
865.95	227.05
866.27	227.11
866.58	227.05
866.89	227.06
867.20	227.07
867.51	227.07
867.82	227.03
868.13	227.05
868.44	227.01
868.75	227.05
869.06	227.08
869.37	227.07
869.68	227.08
869.99	227.14
870.30	227.15
870.61	227.16
870.92	227.15
871.23	227.10
871.54	227.10
871.85	227.14
872.16	227.16
872.47	227.15
872.78	227.09
873.09	227.11
873.40	227.10
873.71	227.10
874.02	227.11
874.33	227.11
874.64	227.08
874.95	227.10
875.26	227.07
875.56	227.06
875.87	227.09
876.18	227.06
876.49	227.13
876.80	227.10
877.11	227.13
877.42	227.11
877.73	227.09
878.04	227.05
878.35	227.00
878.66	226.98
878.96	226.99
879.27	226.97
879.58	226.97
879.89	226.99
880.20	227.03
880.51	227.01
880.82	227.03
881.12	227.06
881.43	227.07
881.74	227.05
882.05	227.04
882.36	227.04
882.67	227.05
882.97	226.95
883.28	226.97
883.59	226.95
883.90	226.98
884.21	227.00
884.51	227.05
884.82	227.07
885.13	227.07
885.44	227.07
885.74	227.07
886.05	227.08
886.36	227.06
886.67	226.98
886.98	227.04
887.28	227.05
887.59	227.04
887.90	227.01
888.20	227.02
888.51	227.05
888.82	227.07
889.13	227.09
889.43	227.20
889.74	227.18
890.05	227.17
890.35	227.14
890.66	227.12
890.97	227.10
891.28	227.11
891.58	227.14
891.89	227.16
892.20	227.17
892.50	227.17
892.81	227.17
893.12	227.21
893.42	227.15
893.73	227.18
894.04	227.15
894.34	227.21
894.65	227.19
894.95	227.15
895.26	227.13
895.57	227.15
895.87	227.04
896.18	227.06
896.48	227.05
896.79	227.07
897.10	227.08
897.40	227.08
897.71	227.12
898.01	227.10
898.32	227.07
898.63	227.06
898.93	227.04
899.24	227.03
899.54	227.02
899.85	227.06
900.15	226.99
900.46	227.02
900.76	227.01
901.07	227.03
901.38	227.07
901.68	227.08
901.99	227.06
902.29	227.09
902.60	227.08
902.90	227.08
903.21	227.06
903.51	227.05
903.82	227.06
904.12	227.07
904.43	227.08
904.73	227.11
905.03	227.16
905.34	227.25
905.64	227.28
905.95	227.29
906.25	227.28
906.56	227.30
906.86	227.32
907.17	227.31
907.47	227.28
907.77	227.28
908.08	227.26
908.38	227.28
908.69	227.27
908.99	227.26
909.30	227.28
909.60	227.27
909.90	227.28
910.21	227.25
910.51	227.19
910.81	227.17
911.12	227.14
911.42	227.09
911.73	226.99
912.03	226.97
912.33	226.98
912.64	226.96
912.94	226.96
913.24	226.91
913.55	226.90
913.85	226.93
914.15	226.90
914.46	226.89
914.76	226.86
915.06	226.84
915.37	226.83
915.67	226.81
915.97	226.82
916.27	226.81
916.58	226.81
916.88	226.80
917.18	226.75
917.49	226.82
917.79	226.80
918.09	226.83
918.39	226.83
918.70	226.81
919.00	226.83
919.30	226.88
919.60	226.88
919.91	226.86
920.21	226.84
920.51	226.83
920.81	226.82
921.12	226.82
921.42	226.84
921.72	226.82
922.02	226.81
922.32	226.82
922.63	226.80
922.93	226.82
923.23	226.84
923.53	226.85
923.83	226.78
924.13	226.78
924.44	226.75
924.74	226.76
925.04	226.78
925.34	226.74
925.64	226.66
925.94	226.67
926.24	226.73
926.55	226.71
926.85	226.74
927.15	226.74
927.45	226.73
927.75	226.73
928.05	226.74
928.35	226.72
928.65	226.71
928.95	226.74
929.26	226.73
929.56	226.76
929.86	226.75
930.16	226.74
930.46	226.74
930.76	226.73
931.06	226.69
931.36	226.68
931.66	226.73
931.96	226.76
932.26	226.75
932.56	226.68
932.86	226.66
933.16	226.66
933.46	226.65
933.76	226.65
934.06	226.66
934.36	226.72
934.66	226.75
934.96	226.77
935.26	226.77
935.56	226.79
935.86	226.74
936.16	226.75
936.46	226.77
936.76	226.75
937.06	226.76
937.36	226.80
937.66	226.79
937.96	226.78
938.26	226.73
938.56	226.76
938.86	226.79
939.16	226.87
939.46	226.85
939.76	226.87
940.06	226.88
940.35	226.85
940.65	226.79
940.95	226.74
941.25	226.69
941.55	226.70
941.85	226.68
942.15	226.72
942.45	226.76
942.75	226.77
943.04	226.80
943.34	226.83
943.64	226.81
943.94	226.83
944.24	226.82
944.54	226.82
944.84	226.80
945.13	226.76
945.43	226.74
945.73	226.76
946.03	226.73
946.33	226.73
946.62	226.73
946.92	226.74
947.22	226.80
947.52	226.82
947.82	226.81
948.11	226.82
948.41	226.81
948.71	226.76
949.01	226.72
949.31	226.72
949.60	226.70
949.90	226.72
950.20	226.70
950.50	226.70
950.79	226.69
951.09	226.69
951.39	226.72
951.69	226.72
951.98	226.71
952.28	226.72
952.58	226.69
952.87	226.68
953.17	226.68
953.47	226.65
953.76	226.67
954.06	226.65
954.36	226.66
954.66	226.67
954.95	226.67
955.25	226.65
955.55	226.66
955.84	226.62
956.14	226.64
956.44	226.64
956.73	226.64
957.03	226.69
957.32	226.68
957.62	226.66
957.92	226.67
958.21	226.67
958.51	226.79
958.81	226.81
959.10	226.85
959.40	226.86
959.69	226.86
959.99	226.86
960.29	226.84
960.58	226.82
960.88	226.84
961.17	226.85
961.47	226.88
961.76	226.86
962.06	226.89
962.36	226.86
962.65	226.86
962.95	226.84
963.24	226.80
963.54	226.84
963.83	226.85
964.13	226.85
964.42	226.82
964.72	226.74
965.01	226.75
965.31	226.73
965.60	226.72
965.90	226.75
966.19	226.71
966.49	226.76
966.78	226.74
967.08	226.75
967.37	226.72
967.67	226.75
967.96	226.75
968.26	226.78
968.55	226.77
968.85	226.80
969.14	226.78
969.43	226.78
969.73	226.74
970.02	226.73
970.32	226.70
970.61	226.70
970.91	226.65
971.20	226.65
971.49	226.62
971.79	226.62
972.08	226.57
972.38	226.60
972.67	226.58
972.96	226.58
973.26	226.56
973.55	226.63
973.85	226.60
974.14	226.58
974.43	226.57
974.73	226.57
975.02	226.56
975.31	226.62
975.61	226.62
975.90	226.64
976.19	226.65
976.49	226.68
976.78	226.69
977.07	226.71
977.37	226.73
977.66	226.77
977.95	226.77
978.24	226.79
978.54	226.83
978.83	226.83
979.12	226.82
979.42	226.80
979.71	226.77
980.00	226.77
980.29	226.80
980.59	226.80
980.88	226.84
981.17	226.83
981.46	226.82
981.76	226.81
982.05	226.84
982.34	226.85
982.63	226.83
982.93	226.85
983.22	226.88
983.51	226.85
983.80	226.85
984.09	226.86
984.39	226.86
984.68	226.83
984.97	226.85
985.26	226.86
985.55	226.90
985.85	226.89
986.14	226.88
986.43	226.90
986.72	226.91
987.01	226.89
987.30	226.87
987.59	226.83
987.89	226.85
988.18	226.81
988.47	226.78
988.76	226.81
989.05	226.81
989.34	226.76
989.63	226.79
989.92	226.75
990.22	226.73
990.51	226.73
990.80	226.71
991.09	226.69
991.38	226.66
991.67	226.65
991.96	226.65
992.25	226.68
992.54	226.63
992.83	226.60
993.12	226.57
993.41	226.60
993.70	226.66
993.99	226.65
994.28	226.65
994.58	226.67
994.87	226.62
995.16	226.60
995.45	226.60
995.74	226.53
996.03	226.55
996.32	226.57
996.61	226.60
996.90	226.61
997.19	226.63
997.48	226.63
997.77	226.64
998.06	226.65
998.34	226.61
998.63	226.63
998.92	226.66
999.21	226.67
999.50	226.67
999.79	226.62
1000.08	226.64
1000.37	226.62
1000.66	226.60
1000.95	226.64
1001.24	226.64
1001.53	226.69
1001.82	226.70
1002.11	226.70
1002.40	226.69
1002.68	226.69
1002.97	226.76
1003.26	226.74
1003.55	226.74
1003.84	226.73
1004.13	226.77
1004.42	226.78
1004.71	226.77
1004.99	226.76
1005.28	226.79
1005.57	226.79
1005.86	226.77
1006.15	226.77
1006.44	226.78
1006.72	226.79
1007.01	226.78
1007.30	226.78
1007.59	226.77
1007.88	226.79
1008.17	226.78
1008.45	226.78
1008.74	226.75
1009.03	226.69
1009.32	226.67
1009.60	226.65
1009.89	226.64
1010.18	226.57
1010.47	226.54
1010.76	226.55
1011.04	226.53
1011.33	226.54
1011.62	226.52
1011.91	226.55
1012.19	226.54
1012.48	226.55
1012.77	226.56
1013.05	226.61
1013.34	226.61
1013.63	226.59
1013.92	226.57
1014.20	226.58
1014.49	226.58
1014.78	226.59
1015.06	226.56
1015.35	226.57
1015.64	226.62
1015.92	226.63
1016.21	226.65
1016.50	226.66
1016.78	226.69
1017.07	226.70
1017.36	226.68
1017.64	226.67
1017.93	226.67
1018.22	226.66
1018.50	226.68
1018.79	226.70
1019.08	226.61
1019.36	226.62
1019.65	226.60
1019.93	226.65
1020.22	226.63
1020.51	226.69
1020.79	226.67
1021.08	226.49
1021.36	226.97
1021.65	227.26
1021.94	225.94
1022.22	226.72
1022.51	226.20
1022.79	227.23
1023.08	226.44
1023.36	227.93
1023.65	226.31
>>>>>End Processed Spectral Data<<<<<
