SpectraSuite Data File
++++++++++++++++++++++++++++++++++++
Date: Fri Feb 01 15:57:43 EST 2013
User: group
Dark Spectrum Present: No
Reference Spectrum Present: No
Number of Sampled Component Spectra: 1
Spectrometers: USB2E7196
Integration Time (usec): 35000 (USB2E7196)
Spectra Averaged: 100 (USB2E7196)
Boxcar Smoothing: 10 (USB2E7196)
Correct for Electrical Dark: No (USB2E7196)
Strobe/Lamp Enabled: No (USB2E7196)
Correct for Detector Non-linearity: No (USB2E7196)
Correct for Stray Light: No (USB2E7196)
Number of Pixels in Processed Spectrum: 2048
>>>>>Begin Processed Spectral Data<<<<<
339.09	0.00
339.48	214.71
339.86	216.81
340.24	217.99
340.63	219.20
341.01	222.52
341.39	221.85
341.78	223.71
342.16	225.17
342.54	225.08
342.93	213.36
343.31	224.15
343.69	224.70
344.07	225.16
344.46	225.57
344.84	225.94
345.22	226.14
345.60	226.40
345.99	226.54
346.37	226.60
346.75	226.69
347.13	226.69
347.52	226.71
347.90	226.77
348.28	226.78
348.66	226.81
349.05	226.84
349.43	226.89
349.81	226.90
350.19	226.95
350.57	226.99
350.96	227.06
351.34	227.13
351.72	227.22
352.10	227.27
352.48	227.36
352.87	227.41
353.25	227.48
353.63	227.51
354.01	227.56
354.39	227.67
354.77	227.75
355.15	227.86
355.54	227.92
355.92	227.96
356.30	228.04
356.68	228.15
357.06	228.22
357.44	228.25
357.82	228.34
358.20	228.41
358.58	228.49
358.97	228.56
359.35	228.65
359.73	228.74
360.11	228.79
360.49	228.82
360.87	228.86
361.25	228.92
361.63	229.00
362.01	229.07
362.39	229.09
362.77	229.13
363.15	229.14
363.53	229.19
363.91	229.23
364.29	229.24
364.67	229.18
365.05	229.19
365.43	229.23
365.81	229.25
366.19	229.30
366.57	229.34
366.95	229.35
367.33	229.31
367.71	229.25
368.09	229.27
368.47	229.26
368.85	229.25
369.23	229.23
369.61	229.18
369.99	229.19
370.37	229.16
370.75	229.17
371.13	229.14
371.51	229.07
371.89	229.05
372.27	229.05
372.65	229.04
373.03	228.99
373.41	228.92
373.78	228.84
374.16	228.71
374.54	228.62
374.92	228.53
375.30	228.45
375.68	228.38
376.06	228.33
376.44	228.28
376.82	228.23
377.19	228.19
377.57	228.11
377.95	228.01
378.33	227.94
378.71	227.82
379.09	227.81
379.47	227.80
379.84	227.70
380.22	227.60
380.60	227.53
380.98	227.46
381.36	227.39
381.73	227.34
382.11	227.33
382.49	227.26
382.87	227.18
383.25	227.16
383.62	227.22
384.00	227.14
384.38	227.09
384.76	227.06
385.13	227.02
385.51	227.02
385.89	226.94
386.27	226.93
386.64	226.88
387.02	226.82
387.40	226.73
387.78	226.72
388.15	226.69
388.53	226.59
388.91	226.58
389.29	226.54
389.66	226.52
390.04	226.48
390.42	226.47
390.79	226.48
391.17	226.46
391.55	226.36
391.92	226.35
392.30	226.35
392.68	226.34
393.05	226.34
393.43	226.31
393.81	226.30
394.18	226.29
394.56	226.31
394.94	226.30
395.31	226.35
395.69	226.35
396.06	226.40
396.44	226.46
396.82	226.45
397.19	226.54
397.57	226.55
397.95	226.59
398.32	226.61
398.70	226.63
399.07	226.68
399.45	226.70
399.82	226.76
400.20	226.80
400.58	226.85
400.95	226.87
401.33	226.97
401.70	227.15
402.08	227.21
402.45	227.27
402.83	227.37
403.20	227.45
403.58	227.54
403.95	227.62
404.33	227.72
404.71	227.86
405.08	228.02
405.46	228.14
405.83	228.28
406.21	228.43
406.58	228.60
406.96	228.75
407.33	228.91
407.70	229.09
408.08	229.35
408.45	229.54
408.83	229.75
409.20	229.94
409.58	230.07
409.95	230.35
410.33	230.65
410.70	230.92
411.08	231.23
411.45	231.56
411.82	231.87
412.20	232.24
412.57	232.64
412.95	232.92
413.32	233.35
413.69	233.75
414.07	234.16
414.44	234.63
414.82	235.10
415.19	235.67
415.56	236.20
415.94	236.78
416.31	237.43
416.68	238.08
417.06	238.79
417.43	239.51
417.81	240.28
418.18	241.05
418.55	241.88
418.93	242.75
419.30	243.63
419.67	244.57
420.04	245.53
420.42	246.54
420.79	247.74
421.16	248.90
421.54	250.11
421.91	251.34
422.28	252.60
422.66	253.95
423.03	255.28
423.40	256.63
423.77	258.02
424.15	259.46
424.52	260.95
424.89	262.59
425.26	264.13
425.64	265.56
426.01	267.13
426.38	268.81
426.75	270.48
427.13	272.22
427.50	274.04
427.87	275.94
428.24	277.77
428.61	279.51
428.99	281.46
429.36	283.55
429.73	285.64
430.10	287.67
430.47	289.73
430.85	291.85
431.22	294.12
431.59	296.48
431.96	298.73
432.33	301.23
432.70	303.58
433.08	306.39
433.45	309.08
433.82	311.72
434.19	314.61
434.56	317.45
434.93	320.10
435.30	322.71
435.68	325.61
436.05	328.46
436.42	331.29
436.79	333.83
437.16	336.53
437.53	339.37
437.90	342.20
438.27	344.94
438.64	347.75
439.01	350.37
439.38	352.65
439.75	354.83
440.13	357.31
440.50	359.63
440.87	361.48
441.24	363.39
441.61	365.53
441.98	366.98
442.35	368.74
442.72	370.61
443.09	372.44
443.46	373.42
443.83	374.02
444.20	374.50
444.57	375.32
444.94	375.61
445.31	375.94
445.68	376.28
446.05	376.39
446.42	376.03
446.79	375.57
447.16	375.07
447.53	374.75
447.90	373.58
448.27	372.45
448.64	370.88
449.01	369.77
449.37	367.79
449.74	365.91
450.11	363.66
450.48	361.18
450.85	358.67
451.22	356.53
451.59	354.48
451.96	352.53
452.33	349.92
452.70	347.54
453.07	344.66
453.43	341.75
453.80	338.93
454.17	336.24
454.54	333.70
454.91	331.01
455.28	328.30
455.65	325.83
456.02	323.35
456.38	321.18
456.75	318.51
457.12	316.25
457.49	314.06
457.86	311.90
458.23	310.06
458.59	308.01
458.96	305.88
459.33	304.05
459.70	302.15
460.07	300.65
460.43	298.96
460.80	297.36
461.17	295.92
461.54	294.43
461.91	292.98
462.27	291.52
462.64	290.26
463.01	288.93
463.38	287.65
463.74	286.28
464.11	285.08
464.48	284.03
464.85	282.92
465.21	282.03
465.58	281.10
465.95	280.00
466.32	279.06
466.68	278.19
467.05	277.29
467.42	276.44
467.78	275.48
468.15	274.63
468.52	273.94
468.88	273.07
469.25	272.34
469.62	271.74
469.98	271.11
470.35	270.46
470.72	269.85
471.08	269.17
471.45	268.66
471.82	268.17
472.18	267.58
472.55	267.17
472.92	266.65
473.28	266.22
473.65	265.77
474.02	265.31
474.38	264.94
474.75	264.64
475.11	264.30
475.48	264.07
475.85	263.84
476.21	263.63
476.58	263.48
476.94	263.30
477.31	263.14
477.67	262.96
478.04	262.85
478.41	262.80
478.77	262.86
479.14	262.80
479.50	262.81
479.87	262.93
480.23	263.04
480.60	263.09
480.96	263.18
481.33	263.42
481.69	263.65
482.06	263.85
482.42	264.06
482.79	264.35
483.15	264.68
483.52	265.02
483.88	265.35
484.25	265.77
484.61	266.24
484.98	266.71
485.34	267.29
485.71	267.89
486.07	268.49
486.44	269.08
486.80	269.75
487.17	270.48
487.53	271.28
487.90	272.14
488.26	273.09
488.62	274.09
488.99	275.06
489.35	276.08
489.72	277.21
490.08	278.39
490.44	279.60
490.81	280.92
491.17	282.33
491.54	283.86
491.90	285.36
492.26	286.96
492.63	288.70
492.99	290.48
493.36	292.36
493.72	294.40
494.08	296.50
494.45	298.79
494.81	301.15
495.17	303.57
495.54	306.11
495.90	308.82
496.26	311.63
496.63	314.59
496.99	317.70
497.35	320.96
497.72	324.35
498.08	327.85
498.44	331.52
498.80	335.43
499.17	339.43
499.53	343.61
499.89	348.01
500.26	352.51
500.62	357.18
500.98	362.16
501.34	367.27
501.71	372.57
502.07	378.01
502.43	383.60
502.79	389.42
503.16	395.51
503.52	401.76
503.88	408.11
504.24	414.77
504.60	421.67
504.97	428.78
505.33	436.13
505.69	443.85
506.05	451.68
506.41	459.52
506.78	467.71
507.14	476.17
507.50	484.88
507.86	493.84
508.22	503.03
508.59	512.24
508.95	521.82
509.31	531.62
509.67	541.67
510.03	552.05
510.39	562.64
510.75	573.45
511.12	584.38
511.48	595.77
511.84	607.13
512.20	618.67
512.56	630.64
512.92	642.85
513.28	655.19
513.64	667.61
514.00	680.40
514.37	693.32
514.73	706.33
515.09	719.38
515.45	732.71
515.81	746.33
516.17	760.30
516.53	774.42
516.89	788.63
517.25	802.79
517.61	817.19
517.97	831.59
518.33	846.03
518.69	860.77
519.05	875.68
519.41	890.88
519.77	906.36
520.13	921.81
520.49	937.13
520.85	952.51
521.21	968.29
521.57	984.49
521.93	1000.30
522.29	1016.72
522.65	1032.94
523.01	1049.10
523.37	1065.02
523.73	1081.15
524.09	1097.16
524.45	1113.37
524.81	1129.99
525.17	1146.76
525.53	1163.68
525.89	1180.53
526.25	1197.35
526.61	1213.75
526.97	1230.51
527.33	1247.02
527.68	1263.49
528.04	1280.01
528.40	1296.53
528.76	1313.51
529.12	1330.01
529.48	1346.71
529.84	1362.70
530.20	1379.35
530.56	1396.39
530.91	1413.76
531.27	1430.52
531.63	1447.03
531.99	1463.64
532.35	1479.60
532.71	1495.36
533.07	1511.64
533.42	1527.40
533.78	1543.50
534.14	1559.62
534.50	1574.99
534.86	1590.88
535.21	1606.03
535.57	1621.93
535.93	1637.48
536.29	1652.29
536.65	1667.27
537.00	1682.08
537.36	1697.40
537.72	1711.91
538.08	1726.20
538.44	1740.02
538.79	1753.83
539.15	1767.43
539.51	1781.11
539.87	1795.42
540.22	1809.18
540.58	1822.81
540.94	1836.11
541.29	1848.92
541.65	1861.75
542.01	1874.82
542.37	1887.04
542.72	1899.37
543.08	1911.09
543.44	1923.46
543.79	1934.60
544.15	1945.70
544.51	1957.21
544.87	1968.12
545.22	1978.76
545.58	1989.04
545.94	1998.70
546.29	2008.54
546.65	2018.24
547.01	2027.47
547.36	2036.12
547.72	2044.57
548.07	2052.45
548.43	2060.65
548.79	2068.66
549.14	2076.16
549.50	2083.44
549.86	2091.11
550.21	2098.56
550.57	2105.69
550.92	2112.14
551.28	2119.14
551.64	2126.07
551.99	2132.62
552.35	2138.64
552.70	2144.86
553.06	2150.79
553.41	2157.27
553.77	2163.32
554.13	2169.54
554.48	2175.66
554.84	2181.11
555.19	2186.42
555.55	2191.48
555.90	2195.86
556.26	2200.70
556.61	2205.41
556.97	2209.64
557.32	2213.70
557.68	2217.89
558.03	2222.13
558.39	2225.96
558.74	2230.71
559.10	2234.60
559.45	2238.21
559.81	2242.57
560.16	2246.38
560.52	2249.57
560.87	2252.86
561.23	2255.44
561.58	2258.36
561.94	2260.87
562.29	2263.25
562.64	2265.80
563.00	2268.38
563.35	2272.04
563.71	2275.25
564.06	2278.44
564.42	2281.45
564.77	2283.99
565.12	2286.06
565.48	2287.99
565.83	2289.88
566.19	2291.05
566.54	2291.82
566.89	2292.93
567.25	2293.49
567.60	2294.76
567.96	2296.33
568.31	2297.25
568.66	2298.46
569.02	2299.07
569.37	2299.34
569.72	2300.23
570.08	2300.46
570.43	2300.60
570.78	2299.93
571.14	2298.38
571.49	2297.00
571.84	2296.58
572.20	2295.49
572.55	2294.61
572.90	2293.11
573.26	2291.68
573.61	2289.94
573.96	2288.22
574.31	2285.30
574.67	2282.43
575.02	2278.93
575.37	2275.74
575.72	2271.88
576.08	2268.52
576.43	2265.24
576.78	2261.62
577.13	2258.53
577.49	2255.41
577.84	2251.87
578.19	2248.13
578.54	2244.53
578.90	2240.27
579.25	2234.80
579.60	2229.84
579.95	2224.73
580.30	2219.78
580.66	2214.70
581.01	2209.90
581.36	2205.04
581.71	2200.91
582.06	2196.37
582.42	2191.97
582.77	2186.73
583.12	2182.20
583.47	2177.42
583.82	2172.40
584.17	2167.30
584.53	2161.77
584.88	2156.10
585.23	2150.41
585.58	2144.96
585.93	2139.54
586.28	2134.91
586.63	2129.72
586.98	2124.63
587.34	2119.96
587.69	2114.93
588.04	2109.57
588.39	2103.89
588.74	2097.48
589.09	2091.37
589.44	2084.62
589.79	2078.69
590.14	2073.17
590.49	2066.62
590.84	2060.41
591.19	2054.42
591.54	2047.86
591.89	2040.46
592.25	2033.73
592.60	2026.42
592.95	2018.85
593.30	2011.45
593.65	2003.76
594.00	1996.81
594.35	1989.53
594.70	1981.50
595.05	1974.30
595.40	1966.95
595.75	1959.50
596.10	1953.33
596.45	1946.51
596.80	1940.33
597.15	1933.56
597.50	1926.36
597.85	1919.92
598.19	1913.16
598.54	1905.92
598.89	1899.30
599.24	1893.48
599.59	1886.72
599.94	1880.62
600.29	1874.27
600.64	1867.71
600.99	1860.23
601.34	1853.45
601.69	1846.59
602.04	1839.76
602.39	1832.49
602.74	1825.68
603.08	1818.86
603.43	1812.07
603.78	1804.73
604.13	1797.56
604.48	1790.16
604.83	1783.37
605.18	1776.31
605.53	1768.31
605.87	1760.44
606.22	1753.20
606.57	1745.17
606.92	1737.93
607.27	1730.70
607.62	1723.81
607.96	1716.41
608.31	1709.78
608.66	1702.13
609.01	1694.47
609.36	1686.81
609.70	1678.73
610.05	1670.61
610.40	1662.94
610.75	1654.63
611.10	1647.04
611.44	1638.65
611.79	1630.74
612.14	1621.91
612.49	1612.81
612.83	1604.54
613.18	1596.29
613.53	1588.19
613.88	1579.63
614.22	1571.30
614.57	1562.75
614.92	1554.60
615.27	1547.12
615.61	1538.90
615.96	1530.95
616.31	1523.32
616.65	1516.04
617.00	1508.53
617.35	1500.97
617.70	1492.63
618.04	1484.15
618.39	1475.93
618.74	1468.33
619.08	1460.02
619.43	1452.58
619.78	1445.71
620.12	1438.53
620.47	1430.98
620.82	1422.84
621.16	1415.53
621.51	1408.03
621.85	1400.42
622.20	1391.98
622.55	1383.68
622.89	1375.85
623.24	1368.20
623.59	1360.93
623.93	1353.40
624.28	1346.25
624.62	1338.65
624.97	1331.58
625.32	1324.82
625.66	1317.81
626.01	1310.56
626.35	1303.07
626.70	1295.32
627.04	1287.58
627.39	1279.73
627.73	1272.34
628.08	1265.51
628.43	1258.18
628.77	1250.77
629.12	1243.23
629.46	1236.17
629.81	1228.74
630.15	1221.41
630.50	1214.11
630.84	1205.91
631.19	1197.98
631.53	1190.40
631.88	1182.86
632.22	1175.23
632.57	1167.90
632.91	1160.44
633.26	1153.01
633.60	1145.78
633.95	1138.57
634.29	1131.53
634.64	1124.87
634.98	1117.55
635.32	1110.25
635.67	1103.69
636.01	1097.08
636.36	1090.17
636.70	1083.50
637.05	1076.84
637.39	1070.35
637.73	1063.74
638.08	1057.84
638.42	1051.83
638.77	1045.36
639.11	1038.82
639.45	1032.42
639.80	1025.77
640.14	1019.24
640.49	1012.73
640.83	1006.36
641.17	1000.11
641.52	993.72
641.86	987.20
642.20	981.47
642.55	975.14
642.89	968.61
643.23	962.07
643.58	956.35
643.92	950.19
644.26	944.16
644.61	938.20
644.95	932.18
645.29	925.51
645.64	918.81
645.98	912.46
646.32	906.61
646.66	900.55
647.01	894.72
647.35	889.01
647.69	883.28
648.04	877.71
648.38	871.94
648.72	866.04
649.06	860.04
649.41	854.10
649.75	848.18
650.09	842.30
650.43	836.50
650.78	830.33
651.12	824.40
651.46	818.64
651.80	812.83
652.14	807.46
652.49	802.09
652.83	796.93
653.17	791.30
653.51	785.60
653.85	780.19
654.20	774.58
654.54	768.61
654.88	762.79
655.22	756.94
655.56	751.28
655.90	745.74
656.25	740.53
656.59	735.18
656.93	730.12
657.27	724.88
657.61	719.41
657.95	714.33
658.29	709.22
658.64	704.06
658.98	698.78
659.32	693.27
659.66	688.13
660.00	682.76
660.34	677.82
660.68	672.87
661.02	667.85
661.36	663.14
661.70	658.66
662.05	654.33
662.39	649.95
662.73	645.52
663.07	641.23
663.41	636.72
663.75	632.20
664.09	627.68
664.43	623.37
664.77	619.30
665.11	615.04
665.45	610.91
665.79	606.77
666.13	602.66
666.47	598.55
666.81	594.40
667.15	590.32
667.49	586.38
667.83	582.59
668.17	578.63
668.51	574.60
668.85	570.50
669.19	566.63
669.53	562.82
669.87	558.91
670.21	555.16
670.55	551.54
670.89	548.12
671.23	544.64
671.57	541.09
671.91	537.52
672.25	534.06
672.58	530.52
672.92	527.09
673.26	523.96
673.60	520.80
673.94	517.67
674.28	514.79
674.62	511.85
674.96	508.72
675.30	505.81
675.64	502.84
675.97	500.13
676.31	497.30
676.65	494.35
676.99	491.66
677.33	488.83
677.67	486.02
678.01	482.96
678.34	480.01
678.68	477.11
679.02	474.27
679.36	471.51
679.70	468.85
680.04	466.08
680.37	463.14
680.71	460.42
681.05	457.78
681.39	455.00
681.73	452.34
682.06	449.85
682.40	447.27
682.74	444.79
683.08	442.18
683.42	439.56
683.75	437.06
684.09	434.45
684.43	431.99
684.77	429.50
685.10	427.20
685.44	424.84
685.78	422.55
686.12	420.33
686.45	418.00
686.79	415.68
687.13	413.56
687.46	411.46
687.80	409.32
688.14	407.13
688.48	405.11
688.81	402.93
689.15	400.76
689.49	398.65
689.82	396.62
690.16	394.55
690.50	392.63
690.83	390.72
691.17	388.78
691.51	386.87
691.84	385.06
692.18	383.08
692.52	381.13
692.85	379.23
693.19	377.34
693.52	375.53
693.86	373.74
694.20	371.95
694.53	370.12
694.87	368.23
695.21	366.40
695.54	364.57
695.88	362.83
696.21	361.16
696.55	359.53
696.88	357.80
697.22	356.19
697.56	354.53
697.89	352.87
698.23	351.26
698.56	349.67
698.90	348.07
699.23	346.45
699.57	344.95
699.90	343.39
700.24	341.86
700.58	340.38
700.91	338.88
701.25	337.46
701.58	336.09
701.92	334.75
702.25	333.40
702.59	332.03
702.92	330.69
703.26	329.36
703.59	328.07
703.93	326.89
704.26	325.61
704.60	324.33
704.93	323.04
705.26	321.75
705.60	320.59
705.93	319.40
706.27	318.34
706.60	317.24
706.94	316.14
707.27	314.98
707.61	313.86
707.94	312.84
708.27	311.73
708.61	310.62
708.94	309.59
709.28	308.60
709.61	307.63
709.94	306.71
710.28	305.69
710.61	304.67
710.95	303.56
711.28	302.65
711.61	301.69
711.95	300.76
712.28	299.86
712.61	298.82
712.95	297.93
713.28	297.06
713.61	296.19
713.95	295.31
714.28	294.49
714.61	293.65
714.95	292.77
715.28	291.91
715.61	291.05
715.95	290.18
716.28	289.31
716.61	288.50
716.95	287.66
717.28	286.90
717.61	286.13
717.94	285.44
718.28	284.61
718.61	283.92
718.94	283.22
719.27	282.56
719.61	281.92
719.94	281.25
720.27	280.54
720.60	279.83
720.94	279.23
721.27	278.60
721.60	278.02
721.93	277.41
722.27	276.87
722.60	276.33
722.93	275.76
723.26	275.24
723.59	274.62
723.93	274.04
724.26	273.50
724.59	272.94
724.92	272.41
725.25	271.91
725.59	271.37
725.92	270.88
726.25	270.38
726.58	269.92
726.91	269.39
727.24	268.92
727.57	268.47
727.91	267.96
728.24	267.50
728.57	267.02
728.90	266.59
729.23	266.09
729.56	265.66
729.89	265.21
730.22	264.72
730.55	264.34
730.89	263.93
731.22	263.48
731.55	263.05
731.88	262.61
732.21	262.18
732.54	261.76
732.87	261.36
733.20	260.96
733.53	260.57
733.86	260.23
734.19	259.87
734.52	259.50
734.85	259.20
735.18	258.80
735.51	258.43
735.84	258.07
736.17	257.73
736.50	257.32
736.83	257.06
737.16	256.73
737.49	256.37
737.82	256.02
738.15	255.70
738.48	255.38
738.81	255.07
739.14	254.76
739.47	254.43
739.80	254.10
740.13	253.79
740.46	253.44
740.79	253.10
741.12	252.77
741.45	252.45
741.78	252.08
742.11	251.81
742.44	251.49
742.77	251.16
743.10	250.86
743.43	250.56
743.75	250.17
744.08	250.04
744.41	249.75
744.74	249.46
745.07	249.18
745.40	248.94
745.73	248.68
746.06	248.40
746.39	248.14
746.71	247.88
747.04	247.60
747.37	247.37
747.70	247.14
748.03	246.84
748.36	246.60
748.68	246.34
749.01	246.05
749.34	245.82
749.67	245.59
750.00	245.37
750.33	245.23
750.65	245.01
750.98	244.66
751.31	244.45
751.64	244.22
751.97	244.02
752.29	243.80
752.62	243.59
752.95	243.37
753.28	243.15
753.60	242.91
753.93	242.74
754.26	242.53
754.59	242.28
754.91	242.10
755.24	241.91
755.57	241.75
755.90	241.58
756.22	241.38
756.55	241.21
756.88	241.01
757.20	240.75
757.53	240.63
757.86	240.44
758.19	240.30
758.51	240.14
758.84	239.95
759.17	239.77
759.49	239.55
759.82	239.44
760.15	239.30
760.47	239.15
760.80	239.00
761.13	238.85
761.45	238.73
761.78	238.57
762.11	238.44
762.43	238.29
762.76	238.12
763.08	238.01
763.41	237.90
763.74	237.79
764.06	237.66
764.39	237.45
764.71	237.35
765.04	237.18
765.37	237.08
765.69	236.93
766.02	236.82
766.34	236.75
766.67	236.60
767.00	236.48
767.32	236.42
767.65	236.34
767.97	236.21
768.30	236.11
768.62	236.03
768.95	235.92
769.27	235.79
769.60	235.72
769.92	235.59
770.25	235.44
770.57	235.31
770.90	235.22
771.22	235.16
771.55	235.05
771.87	234.95
772.20	234.81
772.52	234.84
772.85	234.84
773.17	234.74
773.50	234.66
773.82	234.56
774.15	234.42
774.47	234.29
774.80	234.20
775.12	234.11
775.45	234.00
775.77	233.93
776.09	233.87
776.42	233.79
776.74	233.76
777.07	233.70
777.39	233.63
777.72	233.54
778.04	233.47
778.36	233.38
778.69	233.32
779.01	233.29
779.33	233.09
779.66	232.94
779.98	232.87
780.31	232.83
780.63	232.79
780.95	232.76
781.28	232.68
781.60	232.63
781.92	232.57
782.25	232.50
782.57	232.44
782.89	232.41
783.22	232.36
783.54	232.26
783.86	232.18
784.19	232.12
784.51	232.11
784.83	232.03
785.16	231.97
785.48	231.93
785.80	231.88
786.12	231.92
786.45	231.84
786.77	231.78
787.09	231.69
787.42	231.59
787.74	231.54
788.06	231.50
788.38	231.46
788.71	231.39
789.03	231.37
789.35	231.30
789.67	231.23
789.99	231.15
790.32	231.08
790.64	231.08
790.96	231.13
791.28	231.01
791.61	230.98
791.93	230.94
792.25	230.89
792.57	230.89
792.89	230.78
793.21	230.75
793.54	230.70
793.86	230.66
794.18	230.67
794.50	230.61
794.82	230.57
795.14	230.55
795.47	230.54
795.79	230.51
796.11	230.46
796.43	230.42
796.75	230.42
797.07	230.41
797.39	230.37
797.71	230.22
798.04	230.23
798.36	230.24
798.68	230.19
799.00	230.17
799.32	230.10
799.64	230.11
799.96	230.07
800.28	230.10
800.60	230.05
800.92	229.97
801.24	229.93
801.56	229.91
801.89	229.87
802.21	229.83
802.53	229.76
802.85	229.75
803.17	229.78
803.49	229.73
803.81	229.70
804.13	229.64
804.45	229.62
804.77	229.62
805.09	229.54
805.41	229.54
805.73	229.49
806.05	229.42
806.37	229.39
806.69	229.34
807.01	229.25
807.33	229.26
807.65	229.21
807.97	229.20
808.28	229.17
808.60	229.15
808.92	229.13
809.24	229.15
809.56	229.16
809.88	229.10
810.20	229.09
810.52	229.07
810.84	229.06
811.16	229.04
811.48	229.00
811.80	229.03
812.12	228.99
812.43	228.99
812.75	229.01
813.07	228.95
813.39	228.97
813.71	228.95
814.03	228.89
814.35	228.89
814.67	228.86
814.98	228.81
815.30	228.77
815.62	228.70
815.94	228.65
816.26	228.63
816.58	228.58
816.89	228.53
817.21	228.47
817.53	228.46
817.85	228.45
818.17	228.41
818.48	228.36
818.80	228.37
819.12	228.34
819.44	228.31
819.76	228.30
820.07	228.27
820.39	228.28
820.71	228.31
821.03	228.31
821.34	228.27
821.66	228.30
821.98	228.31
822.30	228.30
822.61	228.32
822.93	228.31
823.25	228.29
823.57	228.31
823.88	228.36
824.20	228.34
824.52	228.35
824.83	228.35
825.15	228.30
825.47	228.27
825.79	228.27
826.10	228.23
826.42	228.21
826.74	228.18
827.05	228.19
827.37	228.14
827.69	228.14
828.00	228.14
828.32	228.12
828.64	228.08
828.95	228.15
829.27	228.12
829.58	228.09
829.90	228.10
830.22	228.08
830.53	228.04
830.85	228.01
831.17	227.97
831.48	227.96
831.80	227.97
832.11	227.95
832.43	227.92
832.75	227.94
833.06	228.02
833.38	227.99
833.69	227.93
834.01	227.95
834.32	227.89
834.64	227.87
834.96	227.83
835.27	227.82
835.59	227.76
835.90	227.74
836.22	227.73
836.53	227.69
836.85	227.65
837.16	227.74
837.48	227.72
837.79	227.73
838.11	227.70
838.42	227.69
838.74	227.70
839.05	227.66
839.37	227.63
839.68	227.55
840.00	227.55
840.31	227.59
840.63	227.56
840.94	227.56
841.26	227.56
841.57	227.59
841.88	227.60
842.20	227.58
842.51	227.57
842.83	227.55
843.14	227.64
843.46	227.65
843.77	227.57
844.08	227.57
844.40	227.53
844.71	227.52
845.03	227.51
845.34	227.48
845.65	227.48
845.97	227.47
846.28	227.45
846.60	227.45
846.91	227.43
847.22	227.42
847.54	227.46
847.85	227.45
848.16	227.41
848.48	227.37
848.79	227.40
849.10	227.41
849.42	227.43
849.73	227.36
850.04	227.35
850.36	227.34
850.67	227.36
850.98	227.39
851.30	227.42
851.61	227.41
851.92	227.44
852.23	227.48
852.55	227.50
852.86	227.52
853.17	227.53
853.49	227.53
853.80	227.55
854.11	227.52
854.42	227.51
854.74	227.50
855.05	227.53
855.36	227.49
855.67	227.48
855.99	227.49
856.30	227.56
856.61	227.58
856.92	227.57
857.23	227.55
857.55	227.54
857.86	227.52
858.17	227.54
858.48	227.49
858.79	227.44
859.11	227.47
859.42	227.46
859.73	227.43
860.04	227.41
860.35	227.39
860.66	227.39
860.98	227.39
861.29	227.43
861.60	227.40
861.91	227.43
862.22	227.41
862.53	227.37
862.84	227.27
863.16	227.28
863.47	227.29
863.78	227.28
864.09	227.28
864.40	227.28
864.71	227.27
865.02	227.32
865.33	227.32
865.64	227.25
865.95	227.23
866.27	227.32
866.58	227.31
866.89	227.32
867.20	227.34
867.51	227.31
867.82	227.29
868.13	227.34
868.44	227.31
868.75	227.32
869.06	227.36
869.37	227.37
869.68	227.35
869.99	227.37
870.30	227.40
870.61	227.42
870.92	227.39
871.23	227.36
871.54	227.35
871.85	227.39
872.16	227.43
872.47	227.44
872.78	227.37
873.09	227.40
873.40	227.39
873.71	227.37
874.02	227.40
874.33	227.41
874.64	227.38
874.95	227.42
875.26	227.38
875.56	227.38
875.87	227.35
876.18	227.34
876.49	227.39
876.80	227.35
877.11	227.30
877.42	227.31
877.73	227.35
878.04	227.32
878.35	227.31
878.66	227.30
878.96	227.28
879.27	227.29
879.58	227.25
879.89	227.25
880.20	227.29
880.51	227.29
880.82	227.24
881.12	227.22
881.43	227.18
881.74	227.16
882.05	227.12
882.36	227.10
882.67	227.11
882.97	227.02
883.28	227.05
883.59	227.02
883.90	227.04
884.21	227.02
884.51	227.05
884.82	227.02
885.13	226.99
885.44	226.99
885.74	226.98
886.05	227.00
886.36	227.01
886.67	226.99
886.98	227.01
887.28	227.03
887.59	227.04
887.90	227.03
888.20	227.05
888.51	227.04
888.82	227.04
889.13	227.02
889.43	227.11
889.74	227.08
890.05	227.11
890.35	227.10
890.66	227.06
890.97	227.03
891.28	227.02
891.58	227.04
891.89	227.06
892.20	227.05
892.50	227.02
892.81	226.95
893.12	226.93
893.42	226.91
893.73	226.92
894.04	226.91
894.34	226.89
894.65	226.89
894.95	226.88
895.26	226.91
895.57	226.95
895.87	226.85
896.18	226.87
896.48	226.88
896.79	226.88
897.10	226.91
897.40	226.89
897.71	226.90
898.01	226.88
898.32	226.86
898.63	226.86
898.93	226.86
899.24	226.91
899.54	226.89
899.85	226.86
900.15	226.87
900.46	226.87
900.76	226.90
901.07	226.92
901.38	226.91
901.68	226.90
901.99	226.85
902.29	226.83
902.60	226.83
902.90	226.80
903.21	226.79
903.51	226.80
903.82	226.83
904.12	226.86
904.43	226.85
904.73	226.84
905.03	226.85
905.34	226.95
905.64	226.94
905.95	226.95
906.25	226.94
906.56	226.91
906.86	226.91
907.17	226.92
907.47	226.92
907.77	226.92
908.08	226.91
908.38	226.92
908.69	226.92
908.99	226.91
909.30	226.89
909.60	226.88
909.90	226.89
910.21	226.88
910.51	226.85
910.81	226.88
911.12	226.89
911.42	226.89
911.73	226.81
912.03	226.80
912.33	226.81
912.64	226.82
912.94	226.83
913.24	226.82
913.55	226.78
913.85	226.75
914.15	226.82
914.46	226.83
914.76	226.83
915.06	226.81
915.37	226.79
915.67	226.83
915.97	226.81
916.27	226.79
916.58	226.76
916.88	226.78
917.18	226.75
917.49	226.80
917.79	226.82
918.09	226.83
918.39	226.86
918.70	226.87
919.00	226.87
919.30	226.92
919.60	226.90
919.91	226.91
920.21	226.93
920.51	226.86
920.81	226.87
921.12	226.91
921.42	226.92
921.72	226.94
922.02	226.93
922.32	226.97
922.63	226.98
922.93	227.05
923.23	227.06
923.53	227.06
923.83	226.99
924.13	226.98
924.44	226.96
924.74	226.98
925.04	227.00
925.34	226.99
925.64	226.95
925.94	226.96
926.24	227.00
926.55	226.99
926.85	227.03
927.15	227.03
927.45	227.00
927.75	227.02
928.05	227.01
928.35	227.02
928.65	227.02
928.95	227.01
929.26	226.99
929.56	226.99
929.86	227.03
930.16	227.05
930.46	227.08
930.76	227.07
931.06	227.03
931.36	226.98
931.66	226.99
931.96	227.04
932.26	227.04
932.56	227.00
932.86	226.99
933.16	226.99
933.46	226.97
933.76	227.00
934.06	227.01
934.36	227.03
934.66	227.02
934.96	227.01
935.26	226.98
935.56	226.98
935.86	226.95
936.16	226.88
936.46	226.86
936.76	226.82
937.06	226.82
937.36	226.81
937.66	226.82
937.96	226.76
938.26	226.71
938.56	226.68
938.86	226.68
939.16	226.69
939.46	226.71
939.76	226.69
940.06	226.66
940.35	226.64
940.65	226.58
940.95	226.60
941.25	226.54
941.55	226.52
941.85	226.51
942.15	226.53
942.45	226.60
942.75	226.59
943.04	226.60
943.34	226.61
943.64	226.59
943.94	226.55
944.24	226.59
944.54	226.59
944.84	226.60
945.13	226.57
945.43	226.53
945.73	226.50
946.03	226.50
946.33	226.46
946.62	226.44
946.92	226.45
947.22	226.43
947.52	226.45
947.82	226.47
948.11	226.46
948.41	226.41
948.71	226.38
949.01	226.38
949.31	226.36
949.60	226.30
949.90	226.31
950.20	226.32
950.50	226.34
950.79	226.30
951.09	226.33
951.39	226.36
951.69	226.36
951.98	226.37
952.28	226.38
952.58	226.38
952.87	226.36
953.17	226.38
953.47	226.38
953.76	226.37
954.06	226.38
954.36	226.37
954.66	226.38
954.95	226.39
955.25	226.39
955.55	226.42
955.84	226.45
956.14	226.48
956.44	226.48
956.73	226.43
957.03	226.45
957.32	226.43
957.62	226.46
957.92	226.45
958.21	226.45
958.51	226.56
958.81	226.60
959.10	226.63
959.40	226.68
959.69	226.71
959.99	226.76
960.29	226.79
960.58	226.78
960.88	226.83
961.17	226.85
961.47	226.86
961.76	226.83
962.06	226.83
962.36	226.86
962.65	226.88
962.95	226.93
963.24	226.94
963.54	226.94
963.83	226.94
964.13	226.96
964.42	226.98
964.72	226.93
965.01	226.96
965.31	226.96
965.60	226.93
965.90	227.03
966.19	226.99
966.49	226.98
966.78	226.99
967.08	227.00
967.37	226.96
967.67	226.97
967.96	226.98
968.26	226.99
968.55	227.00
968.85	227.00
969.14	227.01
969.43	227.04
969.73	227.04
970.02	227.03
970.32	227.01
970.61	227.01
970.91	226.96
971.20	226.94
971.49	226.93
971.79	226.94
972.08	226.84
972.38	226.85
972.67	226.85
972.96	226.86
973.26	226.85
973.55	226.88
973.85	226.87
974.14	226.87
974.43	226.87
974.73	226.85
975.02	226.84
975.31	226.82
975.61	226.78
975.90	226.76
976.19	226.72
976.49	226.77
976.78	226.76
977.07	226.76
977.37	226.76
977.66	226.76
977.95	226.71
978.24	226.69
978.54	226.71
978.83	226.68
979.12	226.65
979.42	226.65
979.71	226.62
980.00	226.62
980.29	226.60
980.59	226.57
980.88	226.59
981.17	226.58
981.46	226.57
981.76	226.57
982.05	226.59
982.34	226.59
982.63	226.57
982.93	226.54
983.22	226.52
983.51	226.51
983.80	226.53
984.09	226.55
984.39	226.53
984.68	226.51
984.97	226.52
985.26	226.53
985.55	226.51
985.85	226.51
986.14	226.51
986.43	226.51
986.72	226.51
987.01	226.47
987.30	226.48
987.59	226.48
987.89	226.50
988.18	226.46
988.47	226.47
988.76	226.45
989.05	226.48
989.34	226.49
989.63	226.49
989.92	226.46
990.22	226.46
990.51	226.47
990.80	226.46
991.09	226.45
991.38	226.47
991.67	226.46
991.96	226.41
992.25	226.41
992.54	226.38
992.83	226.39
993.12	226.38
993.41	226.39
993.70	226.42
993.99	226.41
994.28	226.45
994.58	226.47
994.87	226.45
995.16	226.43
995.45	226.46
995.74	226.46
996.03	226.49
996.32	226.53
996.61	226.56
996.90	226.57
997.19	226.58
997.48	226.55
997.77	226.54
998.06	226.58
998.34	226.59
998.63	226.63
998.92	226.63
999.21	226.66
999.50	226.64
999.79	226.60
1000.08	226.63
1000.37	226.64
1000.66	226.64
1000.95	226.69
1001.24	226.72
1001.53	226.71
1001.82	226.72
1002.11	226.71
1002.40	226.72
1002.68	226.76
1002.97	226.83
1003.26	226.81
1003.55	226.84
1003.84	226.88
1004.13	226.92
1004.42	226.91
1004.71	226.90
1004.99	226.87
1005.28	226.90
1005.57	226.91
1005.86	226.92
1006.15	226.89
1006.44	226.87
1006.72	226.88
1007.01	226.82
1007.30	226.83
1007.59	226.82
1007.88	226.79
1008.17	226.80
1008.45	226.78
1008.74	226.71
1009.03	226.65
1009.32	226.65
1009.60	226.63
1009.89	226.60
1010.18	226.57
1010.47	226.55
1010.76	226.54
1011.04	226.56
1011.33	226.58
1011.62	226.57
1011.91	226.59
1012.19	226.56
1012.48	226.58
1012.77	226.57
1013.05	226.64
1013.34	226.59
1013.63	226.55
1013.92	226.58
1014.20	226.55
1014.49	226.53
1014.78	226.53
1015.06	226.53
1015.35	226.50
1015.64	226.52
1015.92	226.55
1016.21	226.55
1016.50	226.55
1016.78	226.57
1017.07	226.54
1017.36	226.47
1017.64	226.44
1017.93	226.40
1018.22	226.41
1018.50	226.38
1018.79	226.34
1019.08	226.28
1019.36	226.31
1019.65	226.33
1019.93	226.34
1020.22	226.33
1020.51	226.39
1020.79	226.37
1021.08	226.29
1021.36	226.06
1021.65	225.86
1021.94	226.30
1022.22	226.61
1022.51	226.29
1022.79	227.11
1023.08	226.12
1023.36	227.53
1023.65	225.94
>>>>>End Processed Spectral Data<<<<<
