SpectraSuite Data File
++++++++++++++++++++++++++++++++++++
Date: Fri Feb 01 15:47:08 EST 2013
User: group
Dark Spectrum Present: No
Reference Spectrum Present: No
Number of Sampled Component Spectra: 1
Spectrometers: USB2E7196
Integration Time (usec): 35000 (USB2E7196)
Spectra Averaged: 100 (USB2E7196)
Boxcar Smoothing: 10 (USB2E7196)
Correct for Electrical Dark: No (USB2E7196)
Strobe/Lamp Enabled: No (USB2E7196)
Correct for Detector Non-linearity: No (USB2E7196)
Correct for Stray Light: No (USB2E7196)
Number of Pixels in Processed Spectrum: 2048
>>>>>Begin Processed Spectral Data<<<<<
339.09	0.00
339.48	215.09
339.86	215.92
340.24	217.49
340.63	218.89
341.01	221.65
341.39	221.85
341.78	223.61
342.16	224.71
342.54	225.13
342.93	213.17
343.31	223.94
343.69	224.47
344.07	224.94
344.46	225.39
344.84	225.77
345.22	226.04
345.60	226.27
345.99	226.46
346.37	226.56
346.75	226.64
347.13	226.69
347.52	226.77
347.90	226.85
348.28	226.87
348.66	226.89
349.05	226.92
349.43	226.98
349.81	227.01
350.19	227.06
350.57	227.14
350.96	227.20
351.34	227.31
351.72	227.37
352.10	227.45
352.48	227.53
352.87	227.58
353.25	227.62
353.63	227.70
354.01	227.74
354.39	227.81
354.77	227.90
355.15	228.00
355.54	228.04
355.92	228.10
356.30	228.20
356.68	228.31
357.06	228.39
357.44	228.46
357.82	228.56
358.20	228.68
358.58	228.74
358.97	228.82
359.35	228.88
359.73	228.99
360.11	229.05
360.49	229.09
360.87	229.15
361.25	229.23
361.63	229.31
362.01	229.35
362.39	229.40
362.77	229.46
363.15	229.48
363.53	229.52
363.91	229.52
364.29	229.53
364.67	229.48
365.05	229.48
365.43	229.48
365.81	229.49
366.19	229.51
366.57	229.53
366.95	229.50
367.33	229.48
367.71	229.48
368.09	229.48
368.47	229.47
368.85	229.45
369.23	229.42
369.61	229.36
369.99	229.38
370.37	229.34
370.75	229.34
371.13	229.29
371.51	229.22
371.89	229.21
372.27	229.16
372.65	229.12
373.03	229.10
373.41	229.06
373.78	228.97
374.16	228.87
374.54	228.77
374.92	228.73
375.30	228.64
375.68	228.56
376.06	228.55
376.44	228.45
376.82	228.39
377.19	228.33
377.57	228.24
377.95	228.14
378.33	228.09
378.71	227.95
379.09	227.86
379.47	227.81
379.84	227.72
380.22	227.63
380.60	227.56
380.98	227.46
381.36	227.37
381.73	227.32
382.11	227.26
382.49	227.20
382.87	227.10
383.25	227.08
383.62	227.11
384.00	227.00
384.38	226.95
384.76	226.91
385.13	226.91
385.51	226.88
385.89	226.81
386.27	226.76
386.64	226.76
387.02	226.73
387.40	226.70
387.78	226.66
388.15	226.67
388.53	226.62
388.91	226.57
389.29	226.54
389.66	226.53
390.04	226.51
390.42	226.50
390.79	226.49
391.17	226.46
391.55	226.32
391.92	226.29
392.30	226.32
392.68	226.31
393.05	226.29
393.43	226.28
393.81	226.30
394.18	226.28
394.56	226.27
394.94	226.29
395.31	226.32
395.69	226.40
396.06	226.43
396.44	226.49
396.82	226.55
397.19	226.65
397.57	226.66
397.95	226.71
398.32	226.75
398.70	226.84
399.07	226.89
399.45	226.98
399.82	227.06
400.20	227.13
400.58	227.21
400.95	227.22
401.33	227.34
401.70	227.51
402.08	227.60
402.45	227.70
402.83	227.82
403.20	227.91
403.58	227.98
403.95	228.11
404.33	228.21
404.71	228.31
405.08	228.46
405.46	228.61
405.83	228.80
406.21	228.95
406.58	229.13
406.96	229.31
407.33	229.48
407.70	229.70
408.08	229.97
408.45	230.19
408.83	230.45
409.20	230.65
409.58	230.81
409.95	231.09
410.33	231.35
410.70	231.60
411.08	231.90
411.45	232.21
411.82	232.53
412.20	232.89
412.57	233.34
412.95	233.62
413.32	234.05
413.69	234.42
414.07	234.85
414.44	235.31
414.82	235.78
415.19	236.34
415.56	236.88
415.94	237.41
416.31	238.02
416.68	238.64
417.06	239.35
417.43	240.04
417.81	240.82
418.18	241.60
418.55	242.42
418.93	243.30
419.30	244.16
419.67	245.07
420.04	246.03
420.42	246.98
420.79	248.16
421.16	249.32
421.54	250.55
421.91	251.76
422.28	253.03
422.66	254.34
423.03	255.59
423.40	256.92
423.77	258.35
424.15	259.77
424.52	261.22
424.89	262.82
425.26	264.34
425.64	265.76
426.01	267.37
426.38	269.04
426.75	270.73
427.13	272.47
427.50	274.27
427.87	276.12
428.24	278.02
428.61	279.78
428.99	281.69
429.36	283.77
429.73	285.83
430.10	287.80
430.47	289.91
430.85	292.04
431.22	294.29
431.59	296.66
431.96	298.92
432.33	301.44
432.70	303.86
433.08	306.68
433.45	309.36
433.82	311.94
434.19	314.81
434.56	317.63
434.93	320.31
435.30	322.96
435.68	325.83
436.05	328.65
436.42	331.45
436.79	333.99
437.16	336.73
437.53	339.64
437.90	342.46
438.27	345.21
438.64	348.06
439.01	350.59
439.38	352.79
439.75	354.95
440.13	357.45
440.50	359.82
440.87	361.68
441.24	363.58
441.61	365.72
441.98	367.23
442.35	369.01
442.72	370.84
443.09	372.65
443.46	373.68
443.83	374.27
444.20	374.79
444.57	375.67
444.94	375.91
445.31	376.17
445.68	376.55
446.05	376.58
446.42	376.21
446.79	375.83
447.16	375.45
447.53	375.12
447.90	373.93
448.27	372.69
448.64	371.12
449.01	369.97
449.37	368.05
449.74	366.19
450.11	363.97
450.48	361.51
450.85	358.98
451.22	356.81
451.59	354.76
451.96	352.82
452.33	350.17
452.70	347.84
453.07	345.04
453.43	342.10
453.80	339.35
454.17	336.62
454.54	334.10
454.91	331.31
455.28	328.64
455.65	326.18
456.02	323.77
456.38	321.62
456.75	318.97
457.12	316.71
457.49	314.46
457.86	312.21
458.23	310.39
458.59	308.37
458.96	306.29
459.33	304.46
459.70	302.58
460.07	301.07
460.43	299.35
460.80	297.72
461.17	296.32
461.54	294.83
461.91	293.42
462.27	291.99
462.64	290.78
463.01	289.47
463.38	288.17
463.74	286.78
464.11	285.63
464.48	284.61
464.85	283.50
465.21	282.64
465.58	281.76
465.95	280.67
466.32	279.74
466.68	278.84
467.05	277.93
467.42	277.03
467.78	276.08
468.15	275.15
468.52	274.45
468.88	273.58
469.25	272.80
469.62	272.15
469.98	271.44
470.35	270.77
470.72	270.17
471.08	269.51
471.45	268.98
471.82	268.40
472.18	267.80
472.55	267.37
472.92	266.84
473.28	266.38
473.65	265.94
474.02	265.48
474.38	265.11
474.75	264.79
475.11	264.44
475.48	264.19
475.85	263.98
476.21	263.74
476.58	263.54
476.94	263.40
477.31	263.28
477.67	263.15
478.04	263.05
478.41	262.96
478.77	263.00
479.14	262.94
479.50	262.96
479.87	263.03
480.23	263.10
480.60	263.17
480.96	263.21
481.33	263.37
481.69	263.60
482.06	263.79
482.42	264.00
482.79	264.29
483.15	264.63
483.52	265.06
483.88	265.46
484.25	265.85
484.61	266.29
484.98	266.71
485.34	267.27
485.71	267.90
486.07	268.50
486.44	269.07
486.80	269.78
487.17	270.49
487.53	271.33
487.90	272.17
488.26	273.07
488.62	274.05
488.99	275.02
489.35	276.03
489.72	277.14
490.08	278.35
490.44	279.60
490.81	280.91
491.17	282.25
491.54	283.74
491.90	285.31
492.26	286.92
492.63	288.67
492.99	290.42
493.36	292.27
493.72	294.34
494.08	296.43
494.45	298.64
494.81	301.03
495.17	303.49
495.54	306.08
495.90	308.82
496.26	311.63
496.63	314.61
496.99	317.75
497.35	321.06
497.72	324.47
498.08	328.00
498.44	331.66
498.80	335.55
499.17	339.57
499.53	343.77
499.89	348.19
500.26	352.64
500.62	357.34
500.98	362.30
501.34	367.37
501.71	372.65
502.07	378.13
502.43	383.73
502.79	389.54
503.16	395.62
503.52	401.86
503.88	408.32
504.24	414.97
504.60	421.81
504.97	428.90
505.33	436.18
505.69	443.87
506.05	451.65
506.41	459.55
506.78	467.69
507.14	476.12
507.50	484.82
507.86	493.91
508.22	503.09
508.59	512.31
508.95	521.90
509.31	531.74
509.67	541.83
510.03	552.13
510.39	562.59
510.75	573.37
511.12	584.36
511.48	595.61
511.84	607.05
512.20	618.58
512.56	630.50
512.92	642.72
513.28	655.11
513.64	667.61
514.00	680.34
514.37	693.27
514.73	706.31
515.09	719.39
515.45	732.68
515.81	746.27
516.17	760.31
516.53	774.37
516.89	788.52
517.25	802.66
517.61	817.11
517.97	831.60
518.33	845.98
518.69	860.71
519.05	875.73
519.41	890.94
519.77	906.55
520.13	922.12
520.49	937.39
520.85	952.78
521.21	968.56
521.57	984.82
521.93	1000.68
522.29	1017.07
522.65	1033.30
523.01	1049.50
523.37	1065.58
523.73	1081.64
524.09	1097.65
524.45	1114.08
524.81	1130.76
525.17	1147.64
525.53	1164.58
525.89	1181.55
526.25	1198.36
526.61	1214.82
526.97	1231.57
527.33	1247.95
527.68	1264.43
528.04	1281.06
528.40	1297.62
528.76	1314.57
529.12	1331.09
529.48	1347.91
529.84	1364.05
530.20	1380.75
530.56	1397.88
530.91	1415.27
531.27	1432.13
531.63	1448.64
531.99	1465.09
532.35	1481.14
532.71	1497.00
533.07	1513.19
533.42	1529.04
533.78	1545.09
534.14	1561.31
534.50	1576.67
534.86	1592.65
535.21	1607.82
535.57	1623.69
535.93	1639.35
536.29	1654.13
536.65	1669.22
537.00	1684.04
537.36	1699.34
537.72	1713.75
538.08	1728.07
538.44	1741.87
538.79	1755.75
539.15	1769.49
539.51	1783.36
539.87	1797.55
540.22	1811.25
540.58	1825.10
540.94	1838.44
541.29	1851.40
541.65	1864.05
542.01	1877.19
542.37	1889.53
542.72	1902.01
543.08	1913.93
543.44	1926.15
543.79	1937.40
544.15	1948.43
544.51	1959.97
544.87	1970.84
545.22	1981.61
545.58	1991.79
545.94	2001.44
546.29	2011.30
546.65	2021.18
547.01	2030.35
547.36	2039.11
547.72	2047.61
548.07	2055.34
548.43	2063.55
548.79	2071.55
549.14	2079.15
549.50	2086.49
549.86	2094.21
550.21	2101.57
550.57	2108.65
550.92	2115.17
551.28	2122.16
551.64	2129.19
551.99	2135.63
552.35	2141.79
552.70	2148.01
553.06	2154.10
553.41	2160.58
553.77	2166.59
554.13	2172.68
554.48	2178.96
554.84	2184.38
555.19	2189.68
555.55	2194.90
555.90	2199.30
556.26	2204.20
556.61	2208.98
556.97	2213.23
557.32	2217.19
557.68	2221.25
558.03	2225.52
558.39	2229.35
558.74	2234.14
559.10	2238.00
559.45	2241.76
559.81	2246.20
560.16	2250.00
560.52	2253.11
560.87	2256.45
561.23	2259.17
561.58	2262.13
561.94	2264.53
562.29	2266.99
562.64	2269.54
563.00	2272.09
563.35	2275.77
563.71	2278.82
564.06	2282.09
564.42	2284.96
564.77	2287.57
565.12	2289.90
565.48	2291.78
565.83	2293.64
566.19	2294.84
566.54	2295.73
566.89	2296.80
567.25	2297.25
567.60	2298.62
567.96	2300.27
568.31	2301.24
568.66	2302.19
569.02	2302.76
569.37	2303.05
569.72	2303.92
570.08	2304.10
570.43	2304.21
570.78	2303.50
571.14	2301.94
571.49	2300.50
571.84	2300.19
572.20	2299.00
572.55	2298.02
572.90	2296.48
573.26	2295.15
573.61	2293.60
573.96	2291.66
574.31	2288.61
574.67	2285.54
575.02	2281.78
575.37	2278.45
575.72	2274.33
576.08	2271.10
576.43	2267.75
576.78	2264.12
577.13	2260.99
577.49	2257.91
577.84	2254.43
578.19	2250.72
578.54	2247.04
578.90	2242.73
579.25	2237.22
579.60	2232.10
579.95	2227.01
580.30	2221.97
580.66	2216.83
581.01	2211.75
581.36	2206.93
581.71	2202.84
582.06	2198.35
582.42	2193.97
582.77	2188.67
583.12	2184.32
583.47	2179.50
583.82	2174.41
584.17	2169.10
584.53	2163.42
584.88	2157.90
585.23	2152.00
585.58	2146.48
585.93	2141.03
586.28	2136.18
586.63	2130.97
586.98	2126.04
587.34	2121.30
587.69	2116.40
588.04	2110.92
588.39	2105.18
588.74	2098.84
589.09	2092.69
589.44	2085.88
589.79	2079.97
590.14	2074.53
590.49	2067.97
590.84	2061.76
591.19	2055.84
591.54	2049.31
591.89	2041.97
592.25	2034.97
592.60	2027.84
592.95	2020.25
593.30	2012.93
593.65	2005.37
594.00	1998.48
594.35	1991.22
594.70	1983.12
595.05	1975.65
595.40	1968.40
595.75	1960.97
596.10	1954.55
596.45	1947.75
596.80	1941.63
597.15	1934.92
597.50	1927.77
597.85	1921.19
598.19	1914.28
598.54	1907.16
598.89	1900.52
599.24	1894.68
599.59	1887.99
599.94	1881.75
600.29	1875.48
600.64	1868.94
600.99	1861.50
601.34	1854.65
601.69	1847.70
602.04	1840.81
602.39	1833.67
602.74	1826.80
603.08	1819.92
603.43	1813.26
603.78	1805.97
604.13	1798.71
604.48	1791.37
604.83	1784.37
605.18	1777.32
605.53	1769.37
605.87	1761.30
606.22	1754.18
606.57	1746.15
606.92	1738.81
607.27	1731.73
607.62	1724.68
607.96	1717.32
608.31	1710.64
608.66	1702.89
609.01	1695.29
609.36	1687.73
609.70	1679.69
610.05	1671.70
610.40	1664.02
610.75	1655.70
611.10	1648.01
611.44	1639.76
611.79	1631.70
612.14	1622.95
612.49	1613.87
612.83	1605.54
613.18	1597.39
613.53	1589.29
613.88	1580.67
614.22	1572.47
614.57	1563.76
614.92	1555.76
615.27	1548.25
615.61	1540.01
615.96	1532.07
616.31	1524.48
616.65	1517.18
617.00	1509.64
617.35	1501.94
617.70	1493.64
618.04	1485.18
618.39	1476.89
618.74	1469.24
619.08	1460.89
619.43	1453.37
619.78	1446.49
620.12	1439.25
620.47	1431.69
620.82	1423.49
621.16	1416.07
621.51	1408.46
621.85	1400.77
622.20	1392.21
622.55	1383.84
622.89	1375.85
623.24	1368.22
623.59	1360.75
623.93	1353.13
624.28	1345.87
624.62	1338.24
624.97	1331.06
625.32	1324.29
625.66	1317.38
626.01	1310.04
626.35	1302.60
626.70	1294.85
627.04	1287.15
627.39	1279.36
627.73	1271.97
628.08	1264.99
628.43	1257.79
628.77	1250.36
629.12	1242.76
629.46	1235.55
629.81	1228.18
630.15	1221.01
630.50	1213.54
630.84	1205.35
631.19	1197.51
631.53	1189.98
631.88	1182.46
632.22	1174.89
632.57	1167.52
632.91	1159.91
633.26	1152.57
633.60	1145.27
633.95	1138.21
634.29	1131.07
634.64	1124.53
634.98	1117.12
635.32	1109.96
635.67	1103.40
636.01	1096.75
636.36	1090.04
636.70	1083.59
637.05	1076.96
637.39	1070.53
637.73	1063.97
638.08	1058.12
638.42	1052.14
638.77	1045.72
639.11	1039.19
639.45	1032.75
639.80	1026.10
640.14	1019.65
640.49	1013.13
640.83	1006.79
641.17	1000.40
641.52	994.16
641.86	987.68
642.20	981.84
642.55	975.55
642.89	969.05
643.23	962.54
643.58	956.68
643.92	950.45
644.26	944.36
644.61	938.34
644.95	932.34
645.29	925.71
645.64	918.92
645.98	912.60
646.32	906.75
646.66	900.76
647.01	894.98
647.35	889.29
647.69	883.45
648.04	877.96
648.38	872.29
648.72	866.18
649.06	860.07
649.41	854.24
649.75	848.25
650.09	842.25
650.43	836.43
650.78	830.30
651.12	824.42
651.46	818.73
651.80	812.95
652.14	807.53
652.49	802.19
652.83	797.03
653.17	791.27
653.51	785.50
653.85	780.05
654.20	774.42
654.54	768.38
654.88	762.67
655.22	756.76
655.56	751.03
655.90	745.70
656.25	740.45
656.59	735.08
656.93	730.02
657.27	724.83
657.61	719.39
657.95	714.29
658.29	709.22
658.64	703.95
658.98	698.66
659.32	693.22
659.66	688.00
660.00	682.60
660.34	677.73
660.68	672.88
661.02	667.86
661.36	663.15
661.70	658.72
662.05	654.28
662.39	650.01
662.73	645.59
663.07	641.16
663.41	636.77
663.75	632.30
664.09	627.70
664.43	623.33
664.77	619.23
665.11	615.05
665.45	610.92
665.79	606.83
666.13	602.70
666.47	598.59
666.81	594.43
667.15	590.39
667.49	586.48
667.83	582.67
668.17	578.74
668.51	574.61
668.85	570.60
669.19	566.79
669.53	562.87
669.87	558.96
670.21	555.20
670.55	551.55
670.89	548.13
671.23	544.71
671.57	541.23
671.91	537.72
672.25	534.19
672.58	530.61
672.92	527.19
673.26	524.01
673.60	520.88
673.94	517.73
674.28	514.81
674.62	511.85
674.96	508.71
675.30	505.79
675.64	502.92
675.97	500.09
676.31	497.22
676.65	494.33
676.99	491.54
677.33	488.69
677.67	485.82
678.01	482.77
678.34	479.78
678.68	476.92
679.02	474.12
679.36	471.35
679.70	468.68
680.04	465.88
680.37	462.96
680.71	460.15
681.05	457.56
681.39	454.85
681.73	452.17
682.06	449.69
682.40	447.22
682.74	444.68
683.08	442.15
683.42	439.57
683.75	437.04
684.09	434.59
684.43	432.17
684.77	429.74
685.10	427.39
685.44	425.09
685.78	422.79
686.12	420.49
686.45	418.24
686.79	415.90
687.13	413.74
687.46	411.61
687.80	409.52
688.14	407.35
688.48	405.27
688.81	403.05
689.15	400.83
689.49	398.60
689.82	396.53
690.16	394.44
690.50	392.49
690.83	390.55
691.17	388.53
691.51	386.65
691.84	384.85
692.18	382.90
692.52	380.95
692.85	379.06
693.19	377.17
693.52	375.33
693.86	373.53
694.20	371.78
694.53	370.02
694.87	368.12
695.21	366.28
695.54	364.46
695.88	362.73
696.21	361.00
696.55	359.33
696.88	357.62
697.22	355.93
697.56	354.34
697.89	352.74
698.23	351.15
698.56	349.48
698.90	347.81
699.23	346.16
699.57	344.60
699.90	343.04
700.24	341.49
700.58	339.91
700.91	338.39
701.25	336.95
701.58	335.53
701.92	334.25
702.25	332.90
702.59	331.53
702.92	330.23
703.26	328.94
703.59	327.67
703.93	326.51
704.26	325.28
704.60	323.96
704.93	322.63
705.26	321.40
705.60	320.29
705.93	319.17
706.27	318.16
706.60	317.13
706.94	316.02
707.27	314.90
707.61	313.89
707.94	312.90
708.27	311.78
708.61	310.72
708.94	309.67
709.28	308.70
709.61	307.73
709.94	306.74
710.28	305.73
710.61	304.79
710.95	303.74
711.28	302.81
711.61	301.87
711.95	300.95
712.28	299.96
712.61	298.97
712.95	298.03
713.28	297.12
713.61	296.20
713.95	295.32
714.28	294.53
714.61	293.64
714.95	292.76
715.28	291.94
715.61	291.08
715.95	290.23
716.28	289.36
716.61	288.57
716.95	287.80
717.28	287.07
717.61	286.27
717.94	285.52
718.28	284.73
718.61	283.98
718.94	283.31
719.27	282.69
719.61	282.06
719.94	281.41
720.27	280.74
720.60	280.10
720.94	279.47
721.27	278.88
721.60	278.30
721.93	277.75
722.27	277.22
722.60	276.66
722.93	276.06
723.26	275.52
723.59	274.95
723.93	274.39
724.26	273.86
724.59	273.30
724.92	272.77
725.25	272.27
725.59	271.82
725.92	271.32
726.25	270.78
726.58	270.27
726.91	269.75
727.24	269.26
727.57	268.78
727.91	268.29
728.24	267.77
728.57	267.29
728.90	266.81
729.23	266.30
729.56	265.85
729.89	265.41
730.22	264.94
730.55	264.48
730.89	264.05
731.22	263.58
731.55	263.17
731.88	262.76
732.21	262.36
732.54	261.88
732.87	261.49
733.20	261.11
733.53	260.72
733.86	260.36
734.19	260.00
734.52	259.61
734.85	259.29
735.18	258.91
735.51	258.55
735.84	258.20
736.17	257.84
736.50	257.48
736.83	257.25
737.16	256.93
737.49	256.58
737.82	256.20
738.15	255.90
738.48	255.55
738.81	255.23
739.14	254.90
739.47	254.58
739.80	254.26
740.13	253.93
740.46	253.59
740.79	253.25
741.12	252.92
741.45	252.60
741.78	252.24
742.11	251.93
742.44	251.63
742.77	251.30
743.10	251.00
743.43	250.66
743.75	250.30
744.08	250.12
744.41	249.83
744.74	249.58
745.07	249.26
745.40	249.02
745.73	248.80
746.06	248.50
746.39	248.22
746.71	247.93
747.04	247.63
747.37	247.39
747.70	247.14
748.03	246.91
748.36	246.70
748.68	246.46
749.01	246.20
749.34	245.94
749.67	245.73
750.00	245.49
750.33	245.34
750.65	245.09
750.98	244.73
751.31	244.52
751.64	244.28
751.97	244.10
752.29	243.86
752.62	243.56
752.95	243.35
753.28	243.15
753.60	242.94
753.93	242.80
754.26	242.56
754.59	242.31
754.91	242.05
755.24	241.84
755.57	241.65
755.90	241.44
756.22	241.27
756.55	241.06
756.88	240.86
757.20	240.63
757.53	240.45
757.86	240.30
758.19	240.13
758.51	239.97
758.84	239.79
759.17	239.66
759.49	239.54
759.82	239.44
760.15	239.31
760.47	239.17
760.80	238.99
761.13	238.88
761.45	238.74
761.78	238.64
762.11	238.49
762.43	238.33
762.76	238.20
763.08	238.08
763.41	237.98
763.74	237.87
764.06	237.74
764.39	237.58
764.71	237.45
765.04	237.35
765.37	237.25
765.69	237.14
766.02	236.99
766.34	236.82
766.67	236.67
767.00	236.57
767.32	236.51
767.65	236.44
767.97	236.36
768.30	236.26
768.62	236.12
768.95	236.00
769.27	235.89
769.60	235.82
769.92	235.67
770.25	235.55
770.57	235.42
770.90	235.33
771.22	235.22
771.55	235.10
771.87	234.97
772.20	234.90
772.52	234.86
772.85	234.88
773.17	234.81
773.50	234.72
773.82	234.62
774.15	234.47
774.47	234.34
774.80	234.21
775.12	234.10
775.45	234.04
775.77	233.99
776.09	233.96
776.42	233.84
776.74	233.80
777.07	233.70
777.39	233.64
777.72	233.56
778.04	233.54
778.36	233.46
778.69	233.39
779.01	233.27
779.33	233.12
779.66	232.92
779.98	232.85
780.31	232.77
780.63	232.74
780.95	232.68
781.28	232.62
781.60	232.60
781.92	232.56
782.25	232.52
782.57	232.46
782.89	232.38
783.22	232.35
783.54	232.29
783.86	232.27
784.19	232.21
784.51	232.18
784.83	232.10
785.16	232.05
785.48	232.03
785.80	232.03
786.12	231.96
786.45	231.91
786.77	231.88
787.09	231.85
787.42	231.75
787.74	231.73
788.06	231.71
788.38	231.65
788.71	231.60
789.03	231.51
789.35	231.51
789.67	231.47
789.99	231.43
790.32	231.36
790.64	231.30
790.96	231.32
791.28	231.23
791.61	231.21
791.93	231.22
792.25	231.16
792.57	231.16
792.89	231.12
793.21	231.09
793.54	231.01
793.86	230.91
794.18	230.86
794.50	230.80
794.82	230.73
795.14	230.69
795.47	230.68
795.79	230.63
796.11	230.51
796.43	230.43
796.75	230.39
797.07	230.37
797.39	230.32
797.71	230.23
798.04	230.21
798.36	230.16
798.68	230.07
799.00	230.04
799.32	229.97
799.64	229.98
799.96	229.95
800.28	229.94
800.60	229.94
800.92	229.91
801.24	229.84
801.56	229.81
801.89	229.78
802.21	229.74
802.53	229.72
802.85	229.73
803.17	229.76
803.49	229.70
803.81	229.64
804.13	229.60
804.45	229.57
804.77	229.57
805.09	229.56
805.41	229.52
805.73	229.45
806.05	229.38
806.37	229.36
806.69	229.33
807.01	229.32
807.33	229.29
807.65	229.26
807.97	229.30
808.28	229.28
808.60	229.25
808.92	229.20
809.24	229.27
809.56	229.25
809.88	229.25
810.20	229.25
810.52	229.27
810.84	229.25
811.16	229.21
811.48	229.14
811.80	229.14
812.12	229.16
812.43	229.18
812.75	229.19
813.07	229.15
813.39	229.17
813.71	229.12
814.03	229.10
814.35	229.11
814.67	229.08
814.98	229.05
815.30	229.04
815.62	229.01
815.94	228.92
816.26	228.93
816.58	228.85
816.89	228.87
817.21	228.83
817.53	228.86
817.85	228.85
818.17	228.84
818.48	228.78
818.80	228.80
819.12	228.79
819.44	228.75
819.76	228.72
820.07	228.69
820.39	228.68
820.71	228.66
821.03	228.64
821.34	228.61
821.66	228.61
821.98	228.57
822.30	228.56
822.61	228.58
822.93	228.53
823.25	228.50
823.57	228.47
823.88	228.48
824.20	228.41
824.52	228.41
824.83	228.40
825.15	228.36
825.47	228.33
825.79	228.33
826.10	228.28
826.42	228.28
826.74	228.23
827.05	228.22
827.37	228.23
827.69	228.23
828.00	228.22
828.32	228.18
828.64	228.19
828.95	228.23
829.27	228.19
829.58	228.15
829.90	228.15
830.22	228.12
830.53	228.07
830.85	228.06
831.17	228.03
831.48	228.04
831.80	228.04
832.11	227.97
832.43	227.92
832.75	227.92
833.06	227.97
833.38	227.96
833.69	227.93
834.01	227.93
834.32	227.89
834.64	227.87
834.96	227.84
835.27	227.83
835.59	227.75
835.90	227.77
836.22	227.75
836.53	227.73
836.85	227.72
837.16	227.83
837.48	227.81
837.79	227.85
838.11	227.83
838.42	227.80
838.74	227.84
839.05	227.84
839.37	227.81
839.68	227.72
840.00	227.72
840.31	227.74
840.63	227.70
840.94	227.70
841.26	227.66
841.57	227.69
841.88	227.70
842.20	227.71
842.51	227.67
842.83	227.67
843.14	227.75
843.46	227.73
843.77	227.63
844.08	227.64
844.40	227.59
844.71	227.59
845.03	227.60
845.34	227.61
845.65	227.62
845.97	227.66
846.28	227.70
846.60	227.68
846.91	227.65
847.22	227.65
847.54	227.67
847.85	227.69
848.16	227.70
848.48	227.66
848.79	227.70
849.10	227.69
849.42	227.71
849.73	227.62
850.04	227.61
850.36	227.58
850.67	227.59
850.98	227.58
851.30	227.57
851.61	227.56
851.92	227.58
852.23	227.60
852.55	227.59
852.86	227.60
853.17	227.60
853.49	227.66
853.80	227.67
854.11	227.66
854.42	227.68
854.74	227.65
855.05	227.65
855.36	227.60
855.67	227.63
855.99	227.62
856.30	227.73
856.61	227.75
856.92	227.79
857.23	227.79
857.55	227.80
857.86	227.79
858.17	227.81
858.48	227.75
858.79	227.71
859.11	227.71
859.42	227.66
859.73	227.64
860.04	227.58
860.35	227.56
860.66	227.51
860.98	227.50
861.29	227.48
861.60	227.47
861.91	227.47
862.22	227.46
862.53	227.42
862.84	227.32
863.16	227.31
863.47	227.26
863.78	227.25
864.09	227.24
864.40	227.23
864.71	227.22
865.02	227.22
865.33	227.22
865.64	227.21
865.95	227.19
866.27	227.27
866.58	227.26
866.89	227.26
867.20	227.25
867.51	227.23
867.82	227.25
868.13	227.29
868.44	227.29
868.75	227.31
869.06	227.31
869.37	227.32
869.68	227.29
869.99	227.30
870.30	227.31
870.61	227.32
870.92	227.34
871.23	227.31
871.54	227.32
871.85	227.32
872.16	227.32
872.47	227.35
872.78	227.29
873.09	227.31
873.40	227.30
873.71	227.31
874.02	227.33
874.33	227.29
874.64	227.24
874.95	227.25
875.26	227.19
875.56	227.19
875.87	227.20
876.18	227.22
876.49	227.31
876.80	227.30
877.11	227.28
877.42	227.28
877.73	227.28
878.04	227.27
878.35	227.23
878.66	227.24
878.96	227.23
879.27	227.22
879.58	227.21
879.89	227.21
880.20	227.25
880.51	227.23
880.82	227.28
881.12	227.30
881.43	227.25
881.74	227.24
882.05	227.24
882.36	227.21
882.67	227.19
882.97	227.10
883.28	227.12
883.59	227.10
883.90	227.08
884.21	227.09
884.51	227.09
884.82	227.09
885.13	227.09
885.44	227.05
885.74	227.04
886.05	227.04
886.36	227.03
886.67	227.01
886.98	227.03
887.28	226.99
887.59	226.98
887.90	227.00
888.20	226.99
888.51	227.02
888.82	227.00
889.13	227.06
889.43	227.14
889.74	227.10
890.05	227.09
890.35	227.08
890.66	227.08
890.97	227.04
891.28	227.06
891.58	227.06
891.89	227.10
892.20	227.09
892.50	227.10
892.81	227.10
893.12	227.09
893.42	227.08
893.73	227.09
894.04	227.07
894.34	227.09
894.65	227.11
894.95	227.09
895.26	227.09
895.57	227.08
895.87	226.97
896.18	226.98
896.48	226.99
896.79	226.96
897.10	226.95
897.40	226.99
897.71	227.01
898.01	226.99
898.32	226.99
898.63	227.00
898.93	226.96
899.24	226.97
899.54	226.96
899.85	226.95
900.15	226.94
900.46	226.96
900.76	226.95
901.07	226.94
901.38	226.95
901.68	226.98
901.99	226.93
902.29	226.94
902.60	226.94
902.90	226.96
903.21	226.99
903.51	227.01
903.82	227.01
904.12	227.02
904.43	227.02
904.73	227.07
905.03	227.06
905.34	227.14
905.64	227.13
905.95	227.11
906.25	227.09
906.56	227.09
906.86	227.11
907.17	227.07
907.47	227.10
907.77	227.06
908.08	227.04
908.38	227.05
908.69	227.08
908.99	227.09
909.30	227.07
909.60	227.08
909.90	227.09
910.21	227.08
910.51	227.04
910.81	227.03
911.12	226.99
911.42	227.00
911.73	226.94
912.03	226.96
912.33	226.99
912.64	227.01
912.94	227.00
913.24	226.96
913.55	226.97
913.85	226.94
914.15	226.98
914.46	227.01
914.76	227.01
915.06	226.97
915.37	226.97
915.67	226.96
915.97	226.96
916.27	226.93
916.58	226.93
916.88	226.92
917.18	226.96
917.49	227.01
917.79	227.00
918.09	227.00
918.39	226.99
918.70	226.99
919.00	226.98
919.30	227.03
919.60	227.01
919.91	226.99
920.21	226.99
920.51	226.96
920.81	226.94
921.12	226.97
921.42	226.97
921.72	226.94
922.02	226.94
922.32	226.93
922.63	226.94
922.93	226.99
923.23	226.99
923.53	226.97
923.83	226.90
924.13	226.91
924.44	226.90
924.74	226.91
925.04	226.94
925.34	226.94
925.64	226.88
925.94	226.90
926.24	226.97
926.55	226.96
926.85	226.97
927.15	226.98
927.45	226.97
927.75	226.94
928.05	226.98
928.35	226.97
928.65	226.99
928.95	226.98
929.26	226.93
929.56	226.94
929.86	226.98
930.16	226.99
930.46	226.96
930.76	226.99
931.06	226.94
931.36	226.91
931.66	226.96
931.96	226.99
932.26	227.02
932.56	226.99
932.86	226.98
933.16	226.97
933.46	226.94
933.76	226.90
934.06	226.96
934.36	227.00
934.66	226.99
934.96	226.98
935.26	227.00
935.56	227.02
935.86	227.02
936.16	226.96
936.46	226.93
936.76	226.90
937.06	226.87
937.36	226.91
937.66	226.92
937.96	226.91
938.26	226.89
938.56	226.87
938.86	226.88
939.16	226.92
939.46	226.94
939.76	226.94
940.06	226.96
940.35	226.91
940.65	226.87
940.95	226.92
941.25	226.87
941.55	226.86
941.85	226.88
942.15	226.87
942.45	226.89
942.75	226.92
943.04	226.93
943.34	226.96
943.64	226.95
943.94	226.91
944.24	226.88
944.54	226.88
944.84	226.89
945.13	226.86
945.43	226.84
945.73	226.84
946.03	226.87
946.33	226.86
946.62	226.86
946.92	226.85
947.22	226.85
947.52	226.90
947.82	226.88
948.11	226.86
948.41	226.86
948.71	226.85
949.01	226.84
949.31	226.86
949.60	226.87
949.90	226.86
950.20	226.88
950.50	226.87
950.79	226.86
951.09	226.84
951.39	226.88
951.69	226.89
951.98	226.92
952.28	226.93
952.58	226.94
952.87	226.94
953.17	226.95
953.47	226.90
953.76	226.89
954.06	226.91
954.36	226.89
954.66	226.88
954.95	226.92
955.25	226.95
955.55	226.94
955.84	226.91
956.14	226.96
956.44	226.98
956.73	226.97
957.03	226.99
957.32	227.01
957.62	226.99
957.92	226.98
958.21	226.97
958.51	227.06
958.81	227.07
959.10	227.11
959.40	227.14
959.69	227.16
959.99	227.20
960.29	227.21
960.58	227.22
960.88	227.27
961.17	227.23
961.47	227.20
961.76	227.20
962.06	227.21
962.36	227.18
962.65	227.17
962.95	227.19
963.24	227.21
963.54	227.21
963.83	227.23
964.13	227.22
964.42	227.19
964.72	227.10
965.01	227.11
965.31	227.08
965.60	227.07
965.90	227.13
966.19	227.06
966.49	227.06
966.78	227.03
967.08	226.99
967.37	227.03
967.67	227.03
967.96	227.04
968.26	227.06
968.55	227.05
968.85	227.03
969.14	227.05
969.43	227.01
969.73	227.03
970.02	227.01
970.32	227.02
970.61	227.01
970.91	227.00
971.20	226.97
971.49	226.98
971.79	226.97
972.08	226.88
972.38	226.88
972.67	226.88
972.96	226.91
973.26	226.94
973.55	226.93
973.85	226.91
974.14	226.90
974.43	226.92
974.73	226.90
975.02	226.90
975.31	226.85
975.61	226.85
975.90	226.81
976.19	226.77
976.49	226.76
976.78	226.79
977.07	226.78
977.37	226.80
977.66	226.80
977.95	226.79
978.24	226.79
978.54	226.82
978.83	226.82
979.12	226.83
979.42	226.81
979.71	226.77
980.00	226.80
980.29	226.82
980.59	226.78
980.88	226.80
981.17	226.80
981.46	226.83
981.76	226.82
982.05	226.83
982.34	226.87
982.63	226.87
982.93	226.89
983.22	226.91
983.51	226.90
983.80	226.92
984.09	226.93
984.39	226.94
984.68	226.95
984.97	226.91
985.26	226.88
985.55	226.88
985.85	226.86
986.14	226.88
986.43	226.88
986.72	226.86
987.01	226.84
987.30	226.83
987.59	226.82
987.89	226.82
988.18	226.82
988.47	226.78
988.76	226.76
989.05	226.74
989.34	226.72
989.63	226.75
989.92	226.72
990.22	226.72
990.51	226.72
990.80	226.72
991.09	226.75
991.38	226.77
991.67	226.76
991.96	226.75
992.25	226.75
992.54	226.73
992.83	226.75
993.12	226.73
993.41	226.75
993.70	226.78
993.99	226.80
994.28	226.80
994.58	226.82
994.87	226.82
995.16	226.82
995.45	226.84
995.74	226.79
996.03	226.79
996.32	226.82
996.61	226.84
996.90	226.83
997.19	226.82
997.48	226.83
997.77	226.81
998.06	226.82
998.34	226.78
998.63	226.80
998.92	226.81
999.21	226.86
999.50	226.85
999.79	226.82
1000.08	226.79
1000.37	226.79
1000.66	226.79
1000.95	226.82
1001.24	226.81
1001.53	226.81
1001.82	226.81
1002.11	226.78
1002.40	226.75
1002.68	226.73
1002.97	226.80
1003.26	226.77
1003.55	226.74
1003.84	226.77
1004.13	226.83
1004.42	226.80
1004.71	226.79
1004.99	226.77
1005.28	226.75
1005.57	226.75
1005.86	226.77
1006.15	226.79
1006.44	226.77
1006.72	226.82
1007.01	226.81
1007.30	226.83
1007.59	226.81
1007.88	226.81
1008.17	226.85
1008.45	226.83
1008.74	226.81
1009.03	226.77
1009.32	226.72
1009.60	226.71
1009.89	226.69
1010.18	226.62
1010.47	226.63
1010.76	226.62
1011.04	226.61
1011.33	226.63
1011.62	226.61
1011.91	226.59
1012.19	226.62
1012.48	226.64
1012.77	226.63
1013.05	226.67
1013.34	226.63
1013.63	226.62
1013.92	226.64
1014.20	226.62
1014.49	226.63
1014.78	226.67
1015.06	226.63
1015.35	226.66
1015.64	226.66
1015.92	226.71
1016.21	226.72
1016.50	226.74
1016.78	226.74
1017.07	226.74
1017.36	226.73
1017.64	226.77
1017.93	226.78
1018.22	226.74
1018.50	226.72
1018.79	226.71
1019.08	226.63
1019.36	226.63
1019.65	226.61
1019.93	226.65
1020.22	226.65
1020.51	226.69
1020.79	226.65
1021.08	226.37
1021.36	226.33
1021.65	226.89
1021.94	226.22
1022.22	226.49
1022.51	226.19
1022.79	227.43
1023.08	226.58
1023.36	227.58
1023.65	226.37
>>>>>End Processed Spectral Data<<<<<
