SpectraSuite Data File
++++++++++++++++++++++++++++++++++++
Date: Fri Feb 01 16:43:10 EST 2013
User: group
Dark Spectrum Present: No
Reference Spectrum Present: No
Number of Sampled Component Spectra: 1
Spectrometers: USB2E7196
Integration Time (usec): 35000 (USB2E7196)
Spectra Averaged: 100 (USB2E7196)
Boxcar Smoothing: 10 (USB2E7196)
Correct for Electrical Dark: No (USB2E7196)
Strobe/Lamp Enabled: No (USB2E7196)
Correct for Detector Non-linearity: No (USB2E7196)
Correct for Stray Light: No (USB2E7196)
Number of Pixels in Processed Spectrum: 2048
>>>>>Begin Processed Spectral Data<<<<<
339.09	0.00
339.48	213.37
339.86	214.77
340.24	216.57
340.63	218.26
341.01	220.33
341.39	220.65
341.78	221.45
342.16	223.09
342.54	223.84
342.93	211.94
343.31	222.68
343.69	223.22
344.07	223.69
344.46	224.14
344.84	224.49
345.22	224.76
345.60	225.01
345.99	225.20
346.37	225.35
346.75	225.43
347.13	225.48
347.52	225.53
347.90	225.64
348.28	225.67
348.66	225.75
349.05	225.75
349.43	225.80
349.81	225.83
350.19	225.84
350.57	225.89
350.96	225.94
351.34	225.98
351.72	226.07
352.10	226.19
352.48	226.22
352.87	226.29
353.25	226.31
353.63	226.35
354.01	226.43
354.39	226.51
354.77	226.57
355.15	226.67
355.54	226.75
355.92	226.79
356.30	226.86
356.68	226.96
357.06	227.02
357.44	227.06
357.82	227.17
358.20	227.26
358.58	227.35
358.97	227.44
359.35	227.54
359.73	227.61
360.11	227.64
360.49	227.73
360.87	227.77
361.25	227.87
361.63	227.94
362.01	228.00
362.39	228.01
362.77	228.05
363.15	228.07
363.53	228.09
363.91	228.08
364.29	228.14
364.67	228.07
365.05	228.07
365.43	228.14
365.81	228.16
366.19	228.22
366.57	228.25
366.95	228.21
367.33	228.20
367.71	228.21
368.09	228.23
368.47	228.18
368.85	228.16
369.23	228.15
369.61	228.13
369.99	228.13
370.37	228.14
370.75	228.18
371.13	228.11
371.51	228.08
371.89	228.06
372.27	228.03
372.65	227.98
373.03	227.94
373.41	227.85
373.78	227.75
374.16	227.65
374.54	227.55
374.92	227.50
375.30	227.45
375.68	227.36
376.06	227.32
376.44	227.27
376.82	227.21
377.19	227.16
377.57	227.08
377.95	226.98
378.33	226.89
378.71	226.77
379.09	226.76
379.47	226.70
379.84	226.60
380.22	226.49
380.60	226.41
380.98	226.36
381.36	226.29
381.73	226.24
382.11	226.18
382.49	226.13
382.87	226.07
383.25	225.97
383.62	226.00
384.00	225.93
384.38	225.86
384.76	225.84
385.13	225.80
385.51	225.74
385.89	225.68
386.27	225.62
386.64	225.56
387.02	225.48
387.40	225.42
387.78	225.41
388.15	225.40
388.53	225.37
388.91	225.35
389.29	225.32
389.66	225.29
390.04	225.27
390.42	225.27
390.79	225.25
391.17	225.27
391.55	225.16
391.92	225.11
392.30	225.12
392.68	225.09
393.05	225.10
393.43	225.10
393.81	225.13
394.18	225.16
394.56	225.20
394.94	225.22
395.31	225.26
395.69	225.29
396.06	225.31
396.44	225.36
396.82	225.38
397.19	225.46
397.57	225.49
397.95	225.55
398.32	225.57
398.70	225.59
399.07	225.67
399.45	225.68
399.82	225.75
400.20	225.77
400.58	225.85
400.95	225.88
401.33	225.94
401.70	226.08
402.08	226.13
402.45	226.20
402.83	226.34
403.20	226.44
403.58	226.54
403.95	226.70
404.33	226.81
404.71	226.92
405.08	227.11
405.46	227.24
405.83	227.36
406.21	227.52
406.58	227.69
406.96	227.82
407.33	228.02
407.70	228.21
408.08	228.49
408.45	228.69
408.83	228.93
409.20	229.15
409.58	229.29
409.95	229.56
410.33	229.86
410.70	230.09
411.08	230.39
411.45	230.69
411.82	230.97
412.20	231.29
412.57	231.73
412.95	232.00
413.32	232.41
413.69	232.83
414.07	233.22
414.44	233.71
414.82	234.18
415.19	234.74
415.56	235.32
415.94	235.82
416.31	236.42
416.68	237.05
417.06	237.75
417.43	238.43
417.81	239.21
418.18	239.92
418.55	240.75
418.93	241.58
419.30	242.46
419.67	243.38
420.04	244.35
420.42	245.31
420.79	246.49
421.16	247.62
421.54	248.81
421.91	250.03
422.28	251.28
422.66	252.62
423.03	253.91
423.40	255.24
423.77	256.63
424.15	258.09
424.52	259.55
424.89	261.14
425.26	262.68
425.64	264.09
426.01	265.68
426.38	267.36
426.75	269.04
427.13	270.77
427.50	272.58
427.87	274.45
428.24	276.33
428.61	278.04
428.99	280.00
429.36	282.05
429.73	284.06
430.10	286.06
430.47	288.07
430.85	290.11
431.22	292.32
431.59	294.72
431.96	296.93
432.33	299.36
432.70	301.73
433.08	304.47
433.45	307.09
433.82	309.68
434.19	312.48
434.56	315.25
434.93	317.81
435.30	320.39
435.68	323.23
436.05	325.98
436.42	328.76
436.79	331.22
437.16	333.89
437.53	336.69
437.90	339.41
438.27	342.15
438.64	344.95
439.01	347.50
439.38	349.67
439.75	351.83
440.13	354.30
440.50	356.58
440.87	358.44
441.24	360.32
441.61	362.42
441.98	363.92
442.35	365.74
442.72	367.61
443.09	369.37
443.46	370.37
443.83	370.95
444.20	371.41
444.57	372.26
444.94	372.51
445.31	372.86
445.68	373.29
446.05	373.37
446.42	373.00
446.79	372.60
447.16	372.20
447.53	371.91
447.90	370.79
448.27	369.67
448.64	368.11
449.01	367.04
449.37	365.16
449.74	363.33
450.11	361.10
450.48	358.68
450.85	356.17
451.22	354.10
451.59	352.15
451.96	350.30
452.33	347.73
452.70	345.46
453.07	342.67
453.43	339.78
453.80	337.04
454.17	334.45
454.54	331.91
454.91	329.20
455.28	326.53
455.65	324.07
456.02	321.65
456.38	319.55
456.75	316.94
457.12	314.67
457.49	312.43
457.86	310.28
458.23	308.44
458.59	306.45
458.96	304.37
459.33	302.49
459.70	300.63
460.07	299.15
460.43	297.44
460.80	295.85
461.17	294.45
461.54	293.00
461.91	291.55
462.27	290.17
462.64	288.94
463.01	287.57
463.38	286.29
463.74	284.93
464.11	283.74
464.48	282.71
464.85	281.62
465.21	280.77
465.58	279.84
465.95	278.78
466.32	277.86
466.68	277.00
467.05	276.12
467.42	275.20
467.78	274.23
468.15	273.37
468.52	272.70
468.88	271.83
469.25	271.06
469.62	270.44
469.98	269.74
470.35	269.10
470.72	268.53
471.08	267.86
471.45	267.37
471.82	266.84
472.18	266.26
472.55	265.87
472.92	265.34
473.28	264.90
473.65	264.44
474.02	264.03
474.38	263.61
474.75	263.34
475.11	263.04
475.48	262.81
475.85	262.59
476.21	262.36
476.58	262.18
476.94	262.05
477.31	261.87
477.67	261.75
478.04	261.69
478.41	261.67
478.77	261.75
479.14	261.69
479.50	261.71
479.87	261.79
480.23	261.86
480.60	261.95
480.96	262.05
481.33	262.26
481.69	262.45
482.06	262.67
482.42	262.85
482.79	263.08
483.15	263.39
483.52	263.73
483.88	264.08
484.25	264.48
484.61	264.89
484.98	265.33
485.34	265.93
485.71	266.50
486.07	267.08
486.44	267.65
486.80	268.34
487.17	269.08
487.53	269.91
487.90	270.76
488.26	271.67
488.62	272.65
488.99	273.59
489.35	274.65
489.72	275.78
490.08	277.00
490.44	278.21
490.81	279.58
491.17	280.96
491.54	282.44
491.90	284.01
492.26	285.69
492.63	287.44
492.99	289.18
493.36	291.06
493.72	293.10
494.08	295.20
494.45	297.47
494.81	299.83
495.17	302.28
495.54	304.87
495.90	307.60
496.26	310.42
496.63	313.48
496.99	316.60
497.35	319.85
497.72	323.30
498.08	326.88
498.44	330.53
498.80	334.45
499.17	338.52
499.53	342.63
499.89	346.97
500.26	351.52
500.62	356.21
500.98	361.18
501.34	366.27
501.71	371.59
502.07	377.00
502.43	382.58
502.79	388.39
503.16	394.42
503.52	400.65
503.88	407.01
504.24	413.57
504.60	420.43
504.97	427.58
505.33	434.80
505.69	442.44
506.05	450.23
506.41	458.05
506.78	466.18
507.14	474.62
507.50	483.30
507.86	492.28
508.22	501.49
508.59	510.70
508.95	520.25
509.31	530.03
509.67	540.18
510.03	550.41
510.39	560.92
510.75	571.70
511.12	582.59
511.48	593.90
511.84	605.34
512.20	616.82
512.56	628.70
512.92	640.87
513.28	653.19
513.64	665.61
514.00	678.31
514.37	691.20
514.73	704.18
515.09	717.20
515.45	730.35
515.81	743.84
516.17	757.75
516.53	771.81
516.89	785.91
517.25	799.93
517.61	814.31
517.97	828.66
518.33	842.99
518.69	857.64
519.05	872.51
519.41	887.53
519.77	902.96
520.13	918.35
520.49	933.64
520.85	948.94
521.21	964.47
521.57	980.54
521.93	996.12
522.29	1012.36
522.65	1028.44
523.01	1044.45
523.37	1060.36
523.73	1076.35
524.09	1092.27
524.45	1108.35
524.81	1124.92
525.17	1141.50
525.53	1158.32
525.89	1175.06
526.25	1191.83
526.61	1208.03
526.97	1224.72
527.33	1241.05
527.68	1257.44
528.04	1273.71
528.40	1290.03
528.76	1306.91
529.12	1323.43
529.48	1340.21
529.84	1356.13
530.20	1372.65
530.56	1389.59
530.91	1406.79
531.27	1423.44
531.63	1439.62
531.99	1456.11
532.35	1471.94
532.71	1487.80
533.07	1503.84
533.42	1519.60
533.78	1535.35
534.14	1551.36
534.50	1566.45
534.86	1582.08
535.21	1597.10
535.57	1612.81
535.93	1628.09
536.29	1642.79
536.65	1657.53
537.00	1672.07
537.36	1687.18
537.72	1701.40
538.08	1715.69
538.44	1729.24
538.79	1742.89
539.15	1756.45
539.51	1769.96
539.87	1784.05
540.22	1797.35
540.58	1810.78
540.94	1823.78
541.29	1836.54
541.65	1849.07
542.01	1862.03
542.37	1874.25
542.72	1886.48
543.08	1898.15
543.44	1910.41
543.79	1921.49
544.15	1932.45
544.51	1943.77
544.87	1954.54
545.22	1965.34
545.58	1975.36
545.94	1984.97
546.29	1994.87
546.65	2004.63
547.01	2013.86
547.36	2022.42
547.72	2031.06
548.07	2038.98
548.43	2047.18
548.79	2055.04
549.14	2062.62
549.50	2069.96
549.86	2077.61
550.21	2084.93
550.57	2092.10
550.92	2098.66
551.28	2105.73
551.64	2112.70
551.99	2119.30
552.35	2125.54
552.70	2131.65
553.06	2137.71
553.41	2144.19
553.77	2150.00
554.13	2156.04
554.48	2162.10
554.84	2167.64
555.19	2172.76
555.55	2177.91
555.90	2182.38
556.26	2187.43
556.61	2192.08
556.97	2196.47
557.32	2200.59
557.68	2204.62
558.03	2208.75
558.39	2212.39
558.74	2216.83
559.10	2220.70
559.45	2224.30
559.81	2228.35
560.16	2232.12
560.52	2235.18
560.87	2238.47
561.23	2241.24
561.58	2244.08
561.94	2246.48
562.29	2248.77
562.64	2251.58
563.00	2254.08
563.35	2257.49
563.71	2260.63
564.06	2263.69
564.42	2266.56
564.77	2269.11
565.12	2271.76
565.48	2273.82
565.83	2275.91
566.19	2277.49
566.54	2278.42
566.89	2279.74
567.25	2280.58
567.60	2281.96
567.96	2283.90
568.31	2284.80
568.66	2285.90
569.02	2286.56
569.37	2287.15
569.72	2288.11
570.08	2288.29
570.43	2288.54
570.78	2288.17
571.14	2286.66
571.49	2285.40
571.84	2285.11
572.20	2284.00
572.55	2282.85
572.90	2281.25
573.26	2279.86
573.61	2277.92
573.96	2276.33
574.31	2273.37
574.67	2270.49
575.02	2266.95
575.37	2263.54
575.72	2259.95
576.08	2256.61
576.43	2253.34
576.78	2249.88
577.13	2246.69
577.49	2243.54
577.84	2240.05
578.19	2236.51
578.54	2232.96
578.90	2229.03
579.25	2223.42
579.60	2218.69
579.95	2213.80
580.30	2208.89
580.66	2203.85
581.01	2199.15
581.36	2194.22
581.71	2190.24
582.06	2185.98
582.42	2181.72
582.77	2176.58
583.12	2172.18
583.47	2167.76
583.82	2163.00
584.17	2157.81
584.53	2152.50
584.88	2147.08
585.23	2141.53
585.58	2135.98
585.93	2130.51
586.28	2125.62
586.63	2120.77
586.98	2115.63
587.34	2110.85
587.69	2105.98
588.04	2100.84
588.39	2095.28
588.74	2088.94
589.09	2082.78
589.44	2076.02
589.79	2069.84
590.14	2064.23
590.49	2057.64
590.84	2051.17
591.19	2045.17
591.54	2038.67
591.89	2031.52
592.25	2024.91
592.60	2017.80
592.95	2010.42
593.30	2003.28
593.65	1995.85
594.00	1988.79
594.35	1981.67
594.70	1973.56
595.05	1966.80
595.40	1959.54
595.75	1952.06
596.10	1946.11
596.45	1939.59
596.80	1933.46
597.15	1927.04
597.50	1920.28
597.85	1913.87
598.19	1907.47
598.54	1900.69
598.89	1894.18
599.24	1888.21
599.59	1881.68
599.94	1875.47
600.29	1869.12
600.64	1862.52
600.99	1855.33
601.34	1848.71
601.69	1841.75
602.04	1835.12
602.39	1827.71
602.74	1821.03
603.08	1814.47
603.43	1807.63
603.78	1800.35
604.13	1793.27
604.48	1786.22
604.83	1779.30
605.18	1772.63
605.53	1764.67
605.87	1756.51
606.22	1749.22
606.57	1741.24
606.92	1733.79
607.27	1726.68
607.62	1719.90
607.96	1712.68
608.31	1706.14
608.66	1698.58
609.01	1691.04
609.36	1683.62
609.70	1675.54
610.05	1667.50
610.40	1659.76
610.75	1651.41
611.10	1643.66
611.44	1635.11
611.79	1626.97
612.14	1618.32
612.49	1609.00
612.83	1600.51
613.18	1592.46
613.53	1584.37
613.88	1576.09
614.22	1567.88
614.57	1559.29
614.92	1551.33
615.27	1544.08
615.61	1535.83
615.96	1527.94
616.31	1520.36
616.65	1513.11
617.00	1505.75
617.35	1498.19
617.70	1490.06
618.04	1481.79
618.39	1473.54
618.74	1466.20
619.08	1457.97
619.43	1450.46
619.78	1443.55
620.12	1436.53
620.47	1429.08
620.82	1421.01
621.16	1413.48
621.51	1405.83
621.85	1398.19
622.20	1389.69
622.55	1381.10
622.89	1373.14
623.24	1365.39
623.59	1358.03
623.93	1350.36
624.28	1343.09
624.62	1335.64
624.97	1328.47
625.32	1321.56
625.66	1314.59
626.01	1307.32
626.35	1300.05
626.70	1292.23
627.04	1284.60
627.39	1276.81
627.73	1269.40
628.08	1262.50
628.43	1255.43
628.77	1248.24
629.12	1240.79
629.46	1233.64
629.81	1226.16
630.15	1218.97
630.50	1211.61
630.84	1203.45
631.19	1195.50
631.53	1187.97
631.88	1180.25
632.22	1172.65
632.57	1165.36
632.91	1157.96
633.26	1150.59
633.60	1143.13
633.95	1135.97
634.29	1128.88
634.64	1122.22
634.98	1114.93
635.32	1107.86
635.67	1101.06
636.01	1094.34
636.36	1087.54
636.70	1080.97
637.05	1074.52
637.39	1068.12
637.73	1061.67
638.08	1055.83
638.42	1049.95
638.77	1043.54
639.11	1037.15
639.45	1030.74
639.80	1024.21
640.14	1017.86
640.49	1011.40
640.83	1005.09
641.17	999.04
641.52	992.84
641.86	986.34
642.20	980.50
642.55	974.20
642.89	967.86
643.23	961.28
643.58	955.55
643.92	949.41
644.26	943.46
644.61	937.38
644.95	931.39
645.29	924.85
645.64	918.14
645.98	911.84
646.32	905.87
646.66	899.85
647.01	894.04
647.35	888.24
647.69	882.32
648.04	876.81
648.38	870.98
648.72	865.01
649.06	859.02
649.41	853.06
649.75	847.14
650.09	841.16
650.43	835.53
650.78	829.42
651.12	823.47
651.46	817.74
651.80	812.09
652.14	806.77
652.49	801.41
652.83	796.20
653.17	790.57
653.51	784.89
653.85	779.45
654.20	773.84
654.54	767.83
654.88	762.08
655.22	756.19
655.56	750.47
655.90	744.90
656.25	739.70
656.59	734.34
656.93	729.22
657.27	724.08
657.61	718.53
657.95	713.36
658.29	708.32
658.64	703.01
658.98	697.64
659.32	692.09
659.66	686.90
660.00	681.65
660.34	676.69
660.68	671.78
661.02	666.80
661.36	662.14
661.70	657.75
662.05	653.46
662.39	649.18
662.73	644.73
663.07	640.42
663.41	635.97
663.75	631.58
664.09	626.99
664.43	622.66
664.77	618.64
665.11	614.40
665.45	610.20
665.79	606.17
666.13	602.10
666.47	597.99
666.81	593.91
667.15	589.77
667.49	585.84
667.83	582.00
668.17	578.15
668.51	574.02
668.85	569.93
669.19	566.05
669.53	562.22
669.87	558.37
670.21	554.67
670.55	550.99
670.89	547.45
671.23	544.08
671.57	540.52
671.91	536.95
672.25	533.46
672.58	529.99
672.92	526.53
673.26	523.35
673.60	520.20
673.94	517.08
674.28	514.13
674.62	511.19
674.96	508.08
675.30	505.15
675.64	502.27
675.97	499.50
676.31	496.65
676.65	493.73
676.99	491.06
677.33	488.17
677.67	485.33
678.01	482.44
678.34	479.45
678.68	476.56
679.02	473.74
679.36	470.97
679.70	468.26
680.04	465.51
680.37	462.66
680.71	459.83
681.05	457.20
681.39	454.51
681.73	451.80
682.06	449.25
682.40	446.64
682.74	444.06
683.08	441.53
683.42	438.91
683.75	436.38
684.09	433.79
684.43	431.36
684.77	428.92
685.10	426.49
685.44	424.13
685.78	421.82
686.12	419.63
686.45	417.33
686.79	414.96
687.13	412.76
687.46	410.60
687.80	408.48
688.14	406.22
688.48	404.18
688.81	401.97
689.15	399.88
689.49	397.77
689.82	395.70
690.16	393.57
690.50	391.61
690.83	389.66
691.17	387.62
691.51	385.72
691.84	383.87
692.18	381.98
692.52	380.05
692.85	378.11
693.19	376.17
693.52	374.34
693.86	372.52
694.20	370.70
694.53	368.87
694.87	366.94
695.21	365.12
695.54	363.28
695.88	361.52
696.21	359.75
696.55	358.03
696.88	356.30
697.22	354.62
697.56	352.94
697.89	351.27
698.23	349.72
698.56	348.08
698.90	346.51
699.23	344.86
699.57	343.32
699.90	341.75
700.24	340.20
700.58	338.67
700.91	337.22
701.25	335.81
701.58	334.47
701.92	333.15
702.25	331.84
702.59	330.47
702.92	329.17
703.26	327.89
703.59	326.63
703.93	325.45
704.26	324.23
704.60	322.99
704.93	321.75
705.26	320.48
705.60	319.25
705.93	318.11
706.27	317.08
706.60	316.01
706.94	314.98
707.27	313.85
707.61	312.78
707.94	311.74
708.27	310.66
708.61	309.56
708.94	308.54
709.28	307.54
709.61	306.58
709.94	305.62
710.28	304.57
710.61	303.58
710.95	302.53
711.28	301.61
711.61	300.67
711.95	299.74
712.28	298.84
712.61	297.91
712.95	296.96
713.28	296.06
713.61	295.17
713.95	294.28
714.28	293.47
714.61	292.62
714.95	291.78
715.28	290.94
715.61	290.07
715.95	289.23
716.28	288.36
716.61	287.52
716.95	286.69
717.28	285.97
717.61	285.25
717.94	284.50
718.28	283.72
718.61	282.98
718.94	282.24
719.27	281.56
719.61	280.90
719.94	280.22
720.27	279.49
720.60	278.80
720.94	278.17
721.27	277.56
721.60	276.97
721.93	276.40
722.27	275.85
722.60	275.33
722.93	274.74
723.26	274.20
723.59	273.64
723.93	273.09
724.26	272.52
724.59	271.94
724.92	271.42
725.25	270.91
725.59	270.40
725.92	269.94
726.25	269.45
726.58	268.97
726.91	268.47
727.24	268.02
727.57	267.54
727.91	267.01
728.24	266.53
728.57	266.03
728.90	265.53
729.23	265.03
729.56	264.57
729.89	264.12
730.22	263.66
730.55	263.19
730.89	262.75
731.22	262.29
731.55	261.83
731.88	261.42
732.21	260.97
732.54	260.55
732.87	260.12
733.20	259.70
733.53	259.32
733.86	258.95
734.19	258.53
734.52	258.16
734.85	257.90
735.18	257.49
735.51	257.14
735.84	256.77
736.17	256.42
736.50	256.02
736.83	255.77
737.16	255.42
737.49	255.05
737.82	254.69
738.15	254.36
738.48	254.00
738.81	253.65
739.14	253.30
739.47	252.95
739.80	252.59
740.13	252.28
740.46	251.92
740.79	251.61
741.12	251.27
741.45	250.95
741.78	250.57
742.11	250.29
742.44	249.92
742.77	249.65
743.10	249.32
743.43	249.01
743.75	248.62
744.08	248.47
744.41	248.21
744.74	247.97
745.07	247.67
745.40	247.45
745.73	247.21
746.06	246.95
746.39	246.72
746.71	246.46
747.04	246.19
747.37	245.96
747.70	245.70
748.03	245.49
748.36	245.27
748.68	245.04
749.01	244.75
749.34	244.55
749.67	244.30
750.00	244.07
750.33	243.92
750.65	243.68
750.98	243.33
751.31	243.12
751.64	242.86
751.97	242.71
752.29	242.47
752.62	242.20
752.95	242.00
753.28	241.73
753.60	241.53
753.93	241.32
754.26	241.10
754.59	240.86
754.91	240.65
755.24	240.43
755.57	240.22
755.90	240.07
756.22	239.83
756.55	239.62
756.88	239.43
757.20	239.19
757.53	239.00
757.86	238.84
758.19	238.65
758.51	238.53
758.84	238.33
759.17	238.14
759.49	237.99
759.82	237.89
760.15	237.76
760.47	237.60
760.80	237.43
761.13	237.30
761.45	237.19
761.78	237.02
762.11	236.87
762.43	236.73
762.76	236.56
763.08	236.48
763.41	236.36
763.74	236.22
764.06	236.07
764.39	235.97
764.71	235.85
765.04	235.74
765.37	235.60
765.69	235.48
766.02	235.38
766.34	235.26
766.67	235.12
767.00	235.03
767.32	234.99
767.65	234.93
767.97	234.81
768.30	234.66
768.62	234.55
768.95	234.42
769.27	234.32
769.60	234.25
769.92	234.12
770.25	234.02
770.57	233.93
770.90	233.86
771.22	233.73
771.55	233.66
771.87	233.57
772.20	233.45
772.52	233.44
772.85	233.47
773.17	233.39
773.50	233.29
773.82	233.19
774.15	233.02
774.47	232.91
774.80	232.82
775.12	232.73
775.45	232.67
775.77	232.63
776.09	232.54
776.42	232.47
776.74	232.43
777.07	232.33
777.39	232.24
777.72	232.15
778.04	232.06
778.36	231.98
778.69	231.91
779.01	231.90
779.33	231.75
779.66	231.56
779.98	231.50
780.31	231.43
780.63	231.42
780.95	231.42
781.28	231.33
781.60	231.31
781.92	231.27
782.25	231.22
782.57	231.15
782.89	231.11
783.22	231.04
783.54	230.96
783.86	230.94
784.19	230.91
784.51	230.87
784.83	230.84
785.16	230.73
785.48	230.69
785.80	230.63
786.12	230.61
786.45	230.57
786.77	230.54
787.09	230.53
787.42	230.43
787.74	230.35
788.06	230.33
788.38	230.27
788.71	230.22
789.03	230.16
789.35	230.16
789.67	230.09
789.99	230.08
790.32	230.05
790.64	230.02
790.96	230.06
791.28	230.00
791.61	229.96
791.93	229.96
792.25	229.92
792.57	229.96
792.89	229.88
793.21	229.86
793.54	229.78
793.86	229.68
794.18	229.66
794.50	229.64
794.82	229.57
795.14	229.55
795.47	229.53
795.79	229.51
796.11	229.43
796.43	229.38
796.75	229.35
797.07	229.29
797.39	229.23
797.71	229.14
798.04	229.10
798.36	229.11
798.68	229.05
799.00	229.02
799.32	228.93
799.64	228.92
799.96	228.88
800.28	228.89
800.60	228.89
800.92	228.85
801.24	228.82
801.56	228.84
801.89	228.80
802.21	228.78
802.53	228.75
802.85	228.73
803.17	228.77
803.49	228.71
803.81	228.67
804.13	228.64
804.45	228.58
804.77	228.59
805.09	228.55
805.41	228.55
805.73	228.47
806.05	228.41
806.37	228.38
806.69	228.32
807.01	228.28
807.33	228.25
807.65	228.20
807.97	228.18
808.28	228.13
808.60	228.08
808.92	228.04
809.24	228.04
809.56	228.02
809.88	227.95
810.20	227.96
810.52	227.97
810.84	227.94
811.16	227.92
811.48	227.88
811.80	227.85
812.12	227.83
812.43	227.82
812.75	227.81
813.07	227.79
813.39	227.81
813.71	227.77
814.03	227.74
814.35	227.73
814.67	227.68
814.98	227.66
815.30	227.62
815.62	227.59
815.94	227.51
816.26	227.50
816.58	227.44
816.89	227.38
817.21	227.32
817.53	227.32
817.85	227.27
818.17	227.23
818.48	227.15
818.80	227.14
819.12	227.13
819.44	227.08
819.76	227.06
820.07	227.04
820.39	226.99
820.71	227.00
821.03	226.99
821.34	226.96
821.66	226.96
821.98	226.93
822.30	226.90
822.61	226.96
822.93	226.93
823.25	226.92
823.57	226.90
823.88	226.91
824.20	226.86
824.52	226.86
824.83	226.87
825.15	226.89
825.47	226.86
825.79	226.85
826.10	226.82
826.42	226.75
826.74	226.74
827.05	226.74
827.37	226.71
827.69	226.69
828.00	226.69
828.32	226.65
828.64	226.66
828.95	226.70
829.27	226.68
829.58	226.64
829.90	226.67
830.22	226.66
830.53	226.62
830.85	226.62
831.17	226.59
831.48	226.53
831.80	226.52
832.11	226.53
832.43	226.51
832.75	226.54
833.06	226.62
833.38	226.58
833.69	226.56
834.01	226.55
834.32	226.55
834.64	226.51
834.96	226.51
835.27	226.52
835.59	226.48
835.90	226.44
836.22	226.46
836.53	226.46
836.85	226.45
837.16	226.58
837.48	226.59
837.79	226.61
838.11	226.63
838.42	226.62
838.74	226.62
839.05	226.63
839.37	226.57
839.68	226.52
840.00	226.53
840.31	226.53
840.63	226.55
840.94	226.52
841.26	226.51
841.57	226.51
841.88	226.54
842.20	226.49
842.51	226.50
842.83	226.47
843.14	226.55
843.46	226.57
843.77	226.51
844.08	226.49
844.40	226.46
844.71	226.45
845.03	226.43
845.34	226.40
845.65	226.36
845.97	226.39
846.28	226.36
846.60	226.38
846.91	226.39
847.22	226.35
847.54	226.35
847.85	226.38
848.16	226.36
848.48	226.29
848.79	226.31
849.10	226.29
849.42	226.29
849.73	226.19
850.04	226.18
850.36	226.13
850.67	226.14
850.98	226.15
851.30	226.16
851.61	226.20
851.92	226.18
852.23	226.22
852.55	226.23
852.86	226.27
853.17	226.24
853.49	226.25
853.80	226.28
854.11	226.29
854.42	226.31
854.74	226.31
855.05	226.35
855.36	226.33
855.67	226.32
855.99	226.32
856.30	226.43
856.61	226.40
856.92	226.41
857.23	226.40
857.55	226.39
857.86	226.37
858.17	226.36
858.48	226.35
858.79	226.36
859.11	226.35
859.42	226.33
859.73	226.33
860.04	226.33
860.35	226.29
860.66	226.26
860.98	226.25
861.29	226.27
861.60	226.22
861.91	226.27
862.22	226.26
862.53	226.26
862.84	226.14
863.16	226.19
863.47	226.16
863.78	226.20
864.09	226.21
864.40	226.22
864.71	226.22
865.02	226.26
865.33	226.20
865.64	226.20
865.95	226.19
866.27	226.25
866.58	226.23
866.89	226.25
867.20	226.25
867.51	226.22
867.82	226.20
868.13	226.24
868.44	226.19
868.75	226.20
869.06	226.18
869.37	226.18
869.68	226.11
869.99	226.15
870.30	226.13
870.61	226.10
870.92	226.07
871.23	226.04
871.54	226.02
871.85	226.05
872.16	226.03
872.47	226.03
872.78	226.00
873.09	225.99
873.40	225.97
873.71	225.97
874.02	225.96
874.33	225.95
874.64	225.93
874.95	225.96
875.26	225.95
875.56	225.95
875.87	225.93
876.18	225.95
876.49	226.01
876.80	225.98
877.11	225.96
877.42	225.99
877.73	225.97
878.04	225.96
878.35	225.95
878.66	225.95
878.96	225.94
879.27	225.91
879.58	225.89
879.89	225.89
880.20	225.89
880.51	225.91
880.82	225.91
881.12	225.89
881.43	225.87
881.74	225.88
882.05	225.85
882.36	225.87
882.67	225.89
882.97	225.79
883.28	225.79
883.59	225.78
883.90	225.77
884.21	225.81
884.51	225.82
884.82	225.79
885.13	225.81
885.44	225.80
885.74	225.82
886.05	225.81
886.36	225.78
886.67	225.75
886.98	225.81
887.28	225.82
887.59	225.83
887.90	225.84
888.20	225.79
888.51	225.82
888.82	225.80
889.13	225.81
889.43	225.87
889.74	225.87
890.05	225.88
890.35	225.87
890.66	225.87
890.97	225.83
891.28	225.84
891.58	225.82
891.89	225.82
892.20	225.81
892.50	225.80
892.81	225.81
893.12	225.82
893.42	225.76
893.73	225.77
894.04	225.76
894.34	225.75
894.65	225.78
894.95	225.77
895.26	225.77
895.57	225.80
895.87	225.70
896.18	225.73
896.48	225.75
896.79	225.76
897.10	225.76
897.40	225.79
897.71	225.80
898.01	225.80
898.32	225.84
898.63	225.80
898.93	225.86
899.24	225.86
899.54	225.87
899.85	225.86
900.15	225.87
900.46	225.87
900.76	225.93
901.07	225.91
901.38	225.91
901.68	225.93
901.99	225.90
902.29	225.90
902.60	225.90
902.90	225.89
903.21	225.88
903.51	225.88
903.82	225.91
904.12	225.91
904.43	225.88
904.73	225.89
905.03	225.94
905.34	226.01
905.64	226.01
905.95	226.02
906.25	226.05
906.56	226.03
906.86	226.03
907.17	226.00
907.47	226.02
907.77	226.02
908.08	225.97
908.38	225.96
908.69	225.99
908.99	226.01
909.30	226.04
909.60	226.03
909.90	226.02
910.21	226.00
910.51	225.98
910.81	226.01
911.12	225.99
911.42	225.97
911.73	225.87
912.03	225.86
912.33	225.85
912.64	225.80
912.94	225.80
913.24	225.78
913.55	225.77
913.85	225.73
914.15	225.74
914.46	225.78
914.76	225.79
915.06	225.78
915.37	225.75
915.67	225.69
915.97	225.71
916.27	225.69
916.58	225.67
916.88	225.67
917.18	225.65
917.49	225.67
917.79	225.65
918.09	225.66
918.39	225.69
918.70	225.68
919.00	225.67
919.30	225.74
919.60	225.74
919.91	225.73
920.21	225.73
920.51	225.68
920.81	225.66
921.12	225.66
921.42	225.64
921.72	225.63
922.02	225.64
922.32	225.65
922.63	225.65
922.93	225.71
923.23	225.71
923.53	225.71
923.83	225.65
924.13	225.70
924.44	225.66
924.74	225.68
925.04	225.69
925.34	225.70
925.64	225.60
925.94	225.58
926.24	225.62
926.55	225.63
926.85	225.68
927.15	225.68
927.45	225.67
927.75	225.65
928.05	225.65
928.35	225.64
928.65	225.67
928.95	225.69
929.26	225.60
929.56	225.56
929.86	225.57
930.16	225.55
930.46	225.50
930.76	225.54
931.06	225.51
931.36	225.47
931.66	225.50
931.96	225.50
932.26	225.50
932.56	225.48
932.86	225.50
933.16	225.46
933.46	225.47
933.76	225.46
934.06	225.49
934.36	225.55
934.66	225.58
934.96	225.54
935.26	225.52
935.56	225.61
935.86	225.64
936.16	225.63
936.46	225.67
936.76	225.68
937.06	225.65
937.36	225.67
937.66	225.68
937.96	225.70
938.26	225.72
938.56	225.73
938.86	225.73
939.16	225.74
939.46	225.78
939.76	225.79
940.06	225.80
940.35	225.76
940.65	225.69
940.95	225.71
941.25	225.69
941.55	225.66
941.85	225.60
942.15	225.64
942.45	225.69
942.75	225.65
943.04	225.64
943.34	225.66
943.64	225.63
943.94	225.64
944.24	225.63
944.54	225.65
944.84	225.64
945.13	225.59
945.43	225.58
945.73	225.54
946.03	225.53
946.33	225.51
946.62	225.54
946.92	225.57
947.22	225.56
947.52	225.59
947.82	225.62
948.11	225.62
948.41	225.56
948.71	225.52
949.01	225.55
949.31	225.57
949.60	225.58
949.90	225.60
950.20	225.59
950.50	225.58
950.79	225.57
951.09	225.58
951.39	225.59
951.69	225.57
951.98	225.62
952.28	225.62
952.58	225.64
952.87	225.64
953.17	225.63
953.47	225.59
953.76	225.59
954.06	225.62
954.36	225.60
954.66	225.60
954.95	225.62
955.25	225.60
955.55	225.63
955.84	225.57
956.14	225.55
956.44	225.55
956.73	225.52
957.03	225.51
957.32	225.49
957.62	225.48
957.92	225.53
958.21	225.52
958.51	225.62
958.81	225.59
959.10	225.61
959.40	225.59
959.69	225.59
959.99	225.62
960.29	225.57
960.58	225.55
960.88	225.58
961.17	225.55
961.47	225.53
961.76	225.48
962.06	225.53
962.36	225.52
962.65	225.53
962.95	225.52
963.24	225.49
963.54	225.55
963.83	225.58
964.13	225.53
964.42	225.50
964.72	225.41
965.01	225.43
965.31	225.40
965.60	225.39
965.90	225.45
966.19	225.41
966.49	225.44
966.78	225.45
967.08	225.46
967.37	225.48
967.67	225.48
967.96	225.50
968.26	225.48
968.55	225.50
968.85	225.50
969.14	225.49
969.43	225.53
969.73	225.49
970.02	225.46
970.32	225.47
970.61	225.46
970.91	225.41
971.20	225.38
971.49	225.37
971.79	225.40
972.08	225.35
972.38	225.36
972.67	225.35
972.96	225.37
973.26	225.35
973.55	225.38
973.85	225.41
974.14	225.40
974.43	225.43
974.73	225.45
975.02	225.45
975.31	225.46
975.61	225.43
975.90	225.43
976.19	225.43
976.49	225.44
976.78	225.48
977.07	225.49
977.37	225.50
977.66	225.52
977.95	225.52
978.24	225.53
978.54	225.53
978.83	225.54
979.12	225.55
979.42	225.55
979.71	225.55
980.00	225.57
980.29	225.59
980.59	225.59
980.88	225.62
981.17	225.60
981.46	225.61
981.76	225.64
982.05	225.68
982.34	225.69
982.63	225.68
982.93	225.67
983.22	225.71
983.51	225.74
983.80	225.76
984.09	225.75
984.39	225.75
984.68	225.74
984.97	225.72
985.26	225.71
985.55	225.73
985.85	225.67
986.14	225.65
986.43	225.68
986.72	225.67
987.01	225.62
987.30	225.65
987.59	225.65
987.89	225.63
988.18	225.60
988.47	225.57
988.76	225.57
989.05	225.56
989.34	225.54
989.63	225.58
989.92	225.54
990.22	225.52
990.51	225.53
990.80	225.52
991.09	225.52
991.38	225.53
991.67	225.54
991.96	225.52
992.25	225.53
992.54	225.49
992.83	225.47
993.12	225.46
993.41	225.43
993.70	225.49
993.99	225.54
994.28	225.53
994.58	225.57
994.87	225.59
995.16	225.59
995.45	225.59
995.74	225.52
996.03	225.56
996.32	225.57
996.61	225.61
996.90	225.61
997.19	225.61
997.48	225.58
997.77	225.54
998.06	225.58
998.34	225.58
998.63	225.57
998.92	225.59
999.21	225.61
999.50	225.64
999.79	225.58
1000.08	225.54
1000.37	225.57
1000.66	225.53
1000.95	225.50
1001.24	225.50
1001.53	225.51
1001.82	225.53
1002.11	225.48
1002.40	225.48
1002.68	225.47
1002.97	225.53
1003.26	225.52
1003.55	225.51
1003.84	225.50
1004.13	225.51
1004.42	225.50
1004.71	225.50
1004.99	225.45
1005.28	225.46
1005.57	225.42
1005.86	225.40
1006.15	225.44
1006.44	225.40
1006.72	225.43
1007.01	225.43
1007.30	225.44
1007.59	225.45
1007.88	225.44
1008.17	225.43
1008.45	225.41
1008.74	225.36
1009.03	225.32
1009.32	225.30
1009.60	225.30
1009.89	225.32
1010.18	225.27
1010.47	225.24
1010.76	225.27
1011.04	225.29
1011.33	225.29
1011.62	225.32
1011.91	225.37
1012.19	225.32
1012.48	225.33
1012.77	225.32
1013.05	225.37
1013.34	225.36
1013.63	225.33
1013.92	225.34
1014.20	225.37
1014.49	225.37
1014.78	225.35
1015.06	225.33
1015.35	225.37
1015.64	225.41
1015.92	225.41
1016.21	225.43
1016.50	225.45
1016.78	225.42
1017.07	225.46
1017.36	225.44
1017.64	225.42
1017.93	225.39
1018.22	225.38
1018.50	225.37
1018.79	225.37
1019.08	225.31
1019.36	225.34
1019.65	225.30
1019.93	225.32
1020.22	225.31
1020.51	225.40
1020.79	225.40
1021.08	224.67
1021.36	225.33
1021.65	225.00
1021.94	225.35
1022.22	226.07
1022.51	224.47
1022.79	225.73
1023.08	225.14
1023.36	226.82
1023.65	225.10
>>>>>End Processed Spectral Data<<<<<
