SpectraSuite Data File
++++++++++++++++++++++++++++++++++++
Date: Fri Feb 01 16:28:05 EST 2013
User: group
Dark Spectrum Present: No
Reference Spectrum Present: No
Number of Sampled Component Spectra: 1
Spectrometers: USB2E7196
Integration Time (usec): 35000 (USB2E7196)
Spectra Averaged: 100 (USB2E7196)
Boxcar Smoothing: 10 (USB2E7196)
Correct for Electrical Dark: No (USB2E7196)
Strobe/Lamp Enabled: No (USB2E7196)
Correct for Detector Non-linearity: No (USB2E7196)
Correct for Stray Light: No (USB2E7196)
Number of Pixels in Processed Spectrum: 2048
>>>>>Begin Processed Spectral Data<<<<<
339.09	0.00
339.48	213.58
339.86	215.36
340.24	216.85
340.63	218.67
341.01	221.07
341.39	220.73
341.78	222.00
342.16	222.83
342.54	224.38
342.93	212.32
343.31	223.03
343.69	223.59
344.07	224.06
344.46	224.50
344.84	224.84
345.22	225.06
345.60	225.32
345.99	225.54
346.37	225.71
346.75	225.79
347.13	225.86
347.52	225.92
347.90	225.99
348.28	226.03
348.66	226.07
349.05	226.06
349.43	226.10
349.81	226.14
350.19	226.13
350.57	226.22
350.96	226.33
351.34	226.44
351.72	226.52
352.10	226.62
352.48	226.65
352.87	226.72
353.25	226.80
353.63	226.87
354.01	226.91
354.39	226.96
354.77	227.02
355.15	227.11
355.54	227.18
355.92	227.23
356.30	227.35
356.68	227.46
357.06	227.54
357.44	227.60
357.82	227.65
358.20	227.73
358.58	227.80
358.97	227.83
359.35	227.89
359.73	227.99
360.11	228.03
360.49	228.09
360.87	228.14
361.25	228.22
361.63	228.30
362.01	228.39
362.39	228.43
362.77	228.48
363.15	228.52
363.53	228.54
363.91	228.55
364.29	228.53
364.67	228.44
365.05	228.47
365.43	228.50
365.81	228.54
366.19	228.62
366.57	228.67
366.95	228.68
367.33	228.65
367.71	228.62
368.09	228.66
368.47	228.70
368.85	228.69
369.23	228.68
369.61	228.62
369.99	228.60
370.37	228.61
370.75	228.66
371.13	228.61
371.51	228.55
371.89	228.55
372.27	228.53
372.65	228.50
373.03	228.48
373.41	228.47
373.78	228.44
374.16	228.34
374.54	228.22
374.92	228.15
375.30	228.12
375.68	228.04
376.06	227.97
376.44	227.88
376.82	227.82
377.19	227.73
377.57	227.69
377.95	227.59
378.33	227.48
378.71	227.33
379.09	227.29
379.47	227.24
379.84	227.18
380.22	227.11
380.60	227.05
380.98	226.97
381.36	226.87
381.73	226.77
382.11	226.72
382.49	226.69
382.87	226.65
383.25	226.57
383.62	226.64
384.00	226.58
384.38	226.52
384.76	226.51
385.13	226.52
385.51	226.42
385.89	226.37
386.27	226.35
386.64	226.35
387.02	226.32
387.40	226.25
387.78	226.18
388.15	226.13
388.53	226.06
388.91	226.04
389.29	226.02
389.66	225.99
390.04	225.94
390.42	225.96
390.79	225.91
391.17	225.91
391.55	225.77
391.92	225.74
392.30	225.78
392.68	225.72
393.05	225.67
393.43	225.68
393.81	225.68
394.18	225.67
394.56	225.64
394.94	225.67
395.31	225.69
395.69	225.76
396.06	225.78
396.44	225.84
396.82	225.84
397.19	225.92
397.57	225.95
397.95	225.96
398.32	225.97
398.70	226.04
399.07	226.10
399.45	226.16
399.82	226.24
400.20	226.26
400.58	226.36
400.95	226.40
401.33	226.49
401.70	226.64
402.08	226.73
402.45	226.82
402.83	226.93
403.20	227.03
403.58	227.09
403.95	227.24
404.33	227.34
404.71	227.48
405.08	227.65
405.46	227.78
405.83	227.94
406.21	228.05
406.58	228.20
406.96	228.35
407.33	228.53
407.70	228.73
408.08	228.97
408.45	229.16
408.83	229.39
409.20	229.60
409.58	229.75
409.95	230.02
410.33	230.30
410.70	230.54
411.08	230.84
411.45	231.14
411.82	231.42
412.20	231.78
412.57	232.15
412.95	232.42
413.32	232.85
413.69	233.27
414.07	233.74
414.44	234.20
414.82	234.66
415.19	235.18
415.56	235.68
415.94	236.25
416.31	236.87
416.68	237.49
417.06	238.18
417.43	238.89
417.81	239.67
418.18	240.44
418.55	241.29
418.93	242.15
419.30	243.07
419.67	244.00
420.04	244.97
420.42	245.95
420.79	247.10
421.16	248.25
421.54	249.45
421.91	250.65
422.28	251.89
422.66	253.26
423.03	254.55
423.40	255.90
423.77	257.29
424.15	258.73
424.52	260.21
424.89	261.87
425.26	263.42
425.64	264.84
426.01	266.41
426.38	268.06
426.75	269.75
427.13	271.47
427.50	273.27
427.87	275.14
428.24	276.98
428.61	278.75
428.99	280.63
429.36	282.70
429.73	284.75
430.10	286.79
430.47	288.80
430.85	290.91
431.22	293.14
431.59	295.51
431.96	297.72
432.33	300.24
432.70	302.58
433.08	305.34
433.45	307.97
433.82	310.56
434.19	313.41
434.56	316.18
434.93	318.79
435.30	321.42
435.68	324.26
436.05	327.08
436.42	329.87
436.79	332.39
437.16	335.06
437.53	337.83
437.90	340.62
438.27	343.34
438.64	346.14
439.01	348.72
439.38	350.92
439.75	353.09
440.13	355.50
440.50	357.78
440.87	359.66
441.24	361.58
441.61	363.76
441.98	365.24
442.35	367.03
442.72	368.89
443.09	370.67
443.46	371.64
443.83	372.24
444.20	372.68
444.57	373.50
444.94	373.81
445.31	374.18
445.68	374.53
446.05	374.61
446.42	374.25
446.79	373.85
447.16	373.40
447.53	373.06
447.90	371.89
448.27	370.76
448.64	369.15
449.01	368.03
449.37	366.02
449.74	364.11
450.11	361.88
450.48	359.39
450.85	356.85
451.22	354.77
451.59	352.80
451.96	350.89
452.33	348.34
452.70	345.98
453.07	343.16
453.43	340.27
453.80	337.54
454.17	334.89
454.54	332.32
454.91	329.63
455.28	326.96
455.65	324.54
456.02	322.07
456.38	319.92
456.75	317.23
457.12	315.01
457.49	312.83
457.86	310.68
458.23	308.90
458.59	306.88
458.96	304.76
459.33	302.88
459.70	301.02
460.07	299.54
460.43	297.82
460.80	296.22
461.17	294.79
461.54	293.33
461.91	291.88
462.27	290.45
462.64	289.22
463.01	287.91
463.38	286.59
463.74	285.29
464.11	284.13
464.48	283.12
464.85	282.01
465.21	281.13
465.58	280.22
465.95	279.12
466.32	278.19
466.68	277.32
467.05	276.44
467.42	275.58
467.78	274.65
468.15	273.81
468.52	273.17
468.88	272.32
469.25	271.54
469.62	270.98
469.98	270.36
470.35	269.77
470.72	269.17
471.08	268.53
471.45	267.98
471.82	267.46
472.18	266.89
472.55	266.48
472.92	265.96
473.28	265.50
473.65	265.06
474.02	264.68
474.38	264.32
474.75	263.98
475.11	263.65
475.48	263.37
475.85	263.13
476.21	262.92
476.58	262.72
476.94	262.57
477.31	262.35
477.67	262.19
478.04	262.07
478.41	262.02
478.77	262.10
479.14	262.06
479.50	262.11
479.87	262.20
480.23	262.28
480.60	262.39
480.96	262.51
481.33	262.75
481.69	262.94
482.06	263.17
482.42	263.39
482.79	263.65
483.15	263.99
483.52	264.44
483.88	264.80
484.25	265.23
484.61	265.69
484.98	266.19
485.34	266.78
485.71	267.36
486.07	267.95
486.44	268.53
486.80	269.23
487.17	269.97
487.53	270.79
487.90	271.64
488.26	272.58
488.62	273.58
488.99	274.53
489.35	275.58
489.72	276.74
490.08	278.00
490.44	279.24
490.81	280.61
491.17	281.96
491.54	283.47
491.90	285.02
492.26	286.63
492.63	288.37
492.99	290.09
493.36	291.99
493.72	294.05
494.08	296.15
494.45	298.40
494.81	300.77
495.17	303.22
495.54	305.81
495.90	308.49
496.26	311.30
496.63	314.30
496.99	317.41
497.35	320.61
497.72	323.94
498.08	327.51
498.44	331.12
498.80	335.03
499.17	339.04
499.53	343.23
499.89	347.63
500.26	352.12
500.62	356.83
500.98	361.81
501.34	366.88
501.71	372.25
502.07	377.67
502.43	383.26
502.79	389.07
503.16	395.11
503.52	401.39
503.88	407.80
504.24	414.38
504.60	421.27
504.97	428.41
505.33	435.79
505.69	443.44
506.05	451.28
506.41	459.10
506.78	467.24
507.14	475.68
507.50	484.38
507.86	493.44
508.22	502.67
508.59	511.84
508.95	521.41
509.31	531.15
509.67	541.26
510.03	551.55
510.39	562.03
510.75	572.86
511.12	583.79
511.48	595.04
511.84	606.53
512.20	618.02
512.56	629.95
512.92	642.04
513.28	654.41
513.64	666.88
514.00	679.60
514.37	692.54
514.73	705.58
515.09	718.64
515.45	731.85
515.81	745.34
516.17	759.35
516.53	773.45
516.89	787.69
517.25	801.87
517.61	816.18
517.97	830.75
518.33	845.07
518.69	859.73
519.05	874.69
519.41	889.86
519.77	905.42
520.13	920.83
520.49	936.19
520.85	951.52
521.21	967.22
521.57	983.40
521.93	999.07
522.29	1015.38
522.65	1031.60
523.01	1047.77
523.37	1063.75
523.73	1079.84
524.09	1095.97
524.45	1112.11
524.81	1128.61
525.17	1145.39
525.53	1162.18
525.89	1179.06
526.25	1195.95
526.61	1212.27
526.97	1228.88
527.33	1245.19
527.68	1261.68
528.04	1278.12
528.40	1294.63
528.76	1311.51
529.12	1328.04
529.48	1344.89
529.84	1360.85
530.20	1377.29
530.56	1394.26
530.91	1411.64
531.27	1428.26
531.63	1444.63
531.99	1461.13
532.35	1476.98
532.71	1492.89
533.07	1508.98
533.42	1524.82
533.78	1540.73
534.14	1556.92
534.50	1572.21
534.86	1588.04
535.21	1603.27
535.57	1619.15
535.93	1634.63
536.29	1649.43
536.65	1664.32
537.00	1678.89
537.36	1694.07
537.72	1708.56
538.08	1722.94
538.44	1736.63
538.79	1750.53
539.15	1764.04
539.51	1777.78
539.87	1792.16
540.22	1805.75
540.58	1819.35
540.94	1832.58
541.29	1845.30
541.65	1857.99
542.01	1871.07
542.37	1883.39
542.72	1895.68
543.08	1907.29
543.44	1919.50
543.79	1930.59
544.15	1941.56
544.51	1953.07
544.87	1963.98
545.22	1974.81
545.58	1984.81
545.94	1994.42
546.29	2004.11
546.65	2013.95
547.01	2023.00
547.36	2031.68
547.72	2040.01
548.07	2047.81
548.43	2055.83
548.79	2063.80
549.14	2071.22
549.50	2078.51
549.86	2086.05
550.21	2093.32
550.57	2100.46
550.92	2107.07
551.28	2114.06
551.64	2121.10
551.99	2127.58
552.35	2133.72
552.70	2139.75
553.06	2145.82
553.41	2152.29
553.77	2158.31
554.13	2164.39
554.48	2170.54
554.84	2175.82
555.19	2181.10
555.55	2186.25
555.90	2190.70
556.26	2195.65
556.61	2200.40
556.97	2204.68
557.32	2208.82
557.68	2212.88
558.03	2217.12
558.39	2220.69
558.74	2225.39
559.10	2229.37
559.45	2233.16
559.81	2237.47
560.16	2241.25
560.52	2244.52
560.87	2247.73
561.23	2250.44
561.58	2253.34
561.94	2255.85
562.29	2258.26
562.64	2260.99
563.00	2263.63
563.35	2267.15
563.71	2270.22
564.06	2273.43
564.42	2276.29
564.77	2278.76
565.12	2281.05
565.48	2283.09
565.83	2285.11
566.19	2286.25
566.54	2287.06
566.89	2288.12
567.25	2288.59
567.60	2289.89
567.96	2291.55
568.31	2292.46
568.66	2293.66
569.02	2294.27
569.37	2294.67
569.72	2295.67
570.08	2295.85
570.43	2295.93
570.78	2295.46
571.14	2294.01
571.49	2292.70
571.84	2292.51
572.20	2291.52
572.55	2290.53
572.90	2288.98
573.26	2287.63
573.61	2286.22
573.96	2284.45
574.31	2281.48
574.67	2278.71
575.02	2275.31
575.37	2271.94
575.72	2268.28
576.08	2264.90
576.43	2261.59
576.78	2258.04
577.13	2254.80
577.49	2251.75
577.84	2248.41
578.19	2244.85
578.54	2241.34
578.90	2237.19
579.25	2231.48
579.60	2226.59
579.95	2221.60
580.30	2216.84
580.66	2211.68
581.01	2206.69
581.36	2201.97
581.71	2198.03
582.06	2193.68
582.42	2189.11
582.77	2184.01
583.12	2179.54
583.47	2174.89
583.82	2170.09
584.17	2164.84
584.53	2159.52
584.88	2154.04
585.23	2148.30
585.58	2142.89
585.93	2137.57
586.28	2132.84
586.63	2128.01
586.98	2122.99
587.34	2118.45
587.69	2113.36
588.04	2108.13
588.39	2102.64
588.74	2096.26
589.09	2090.13
589.44	2083.40
589.79	2077.56
590.14	2071.97
590.49	2065.48
590.84	2059.14
591.19	2052.98
591.54	2046.67
591.89	2039.39
592.25	2032.61
592.60	2025.52
592.95	2017.98
593.30	2010.49
593.65	2003.13
594.00	1996.10
594.35	1988.84
594.70	1980.77
595.05	1973.70
595.40	1966.61
595.75	1959.11
596.10	1952.87
596.45	1946.14
596.80	1940.00
597.15	1933.45
597.50	1926.44
597.85	1919.94
598.19	1913.33
598.54	1906.30
598.89	1899.75
599.24	1893.90
599.59	1887.15
599.94	1880.97
600.29	1874.60
600.64	1868.12
600.99	1860.50
601.34	1853.79
601.69	1846.88
602.04	1840.17
602.39	1832.79
602.74	1825.89
603.08	1819.14
603.43	1812.50
603.78	1805.28
604.13	1798.02
604.48	1790.65
604.83	1783.72
605.18	1776.84
605.53	1768.79
605.87	1760.74
606.22	1753.40
606.57	1745.41
606.92	1738.19
607.27	1730.99
607.62	1724.10
607.96	1716.82
608.31	1710.32
608.66	1702.66
609.01	1695.16
609.36	1687.60
609.70	1679.64
610.05	1671.60
610.40	1663.87
610.75	1655.50
611.10	1647.73
611.44	1639.35
611.79	1631.44
612.14	1622.86
612.49	1613.69
612.83	1605.51
613.18	1597.56
613.53	1589.47
613.88	1580.91
614.22	1572.51
614.57	1563.91
614.92	1555.87
615.27	1548.29
615.61	1539.92
615.96	1531.98
616.31	1524.42
616.65	1516.99
617.00	1509.44
617.35	1501.89
617.70	1493.66
618.04	1485.09
618.39	1476.88
618.74	1469.24
619.08	1460.84
619.43	1453.30
619.78	1446.40
620.12	1439.17
620.47	1431.58
620.82	1423.35
621.16	1416.01
621.51	1408.50
621.85	1400.88
622.20	1392.33
622.55	1384.03
622.89	1376.18
623.24	1368.45
623.59	1360.87
623.93	1353.37
624.28	1346.15
624.62	1338.48
624.97	1331.18
625.32	1324.50
625.66	1317.50
626.01	1310.34
626.35	1302.94
626.70	1295.17
627.04	1287.54
627.39	1279.75
627.73	1272.43
628.08	1265.60
628.43	1258.27
628.77	1250.86
629.12	1243.28
629.46	1236.25
629.81	1228.76
630.15	1221.57
630.50	1214.12
630.84	1205.99
631.19	1198.04
631.53	1190.56
631.88	1183.09
632.22	1175.54
632.57	1168.26
632.91	1160.76
633.26	1153.37
633.60	1145.96
633.95	1138.82
634.29	1131.79
634.64	1125.12
634.98	1117.61
635.32	1110.39
635.67	1103.78
636.01	1097.14
636.36	1090.32
636.70	1083.64
637.05	1077.15
637.39	1070.58
637.73	1064.08
638.08	1058.26
638.42	1052.23
638.77	1045.74
639.11	1039.05
639.45	1032.61
639.80	1025.92
640.14	1019.50
640.49	1012.94
640.83	1006.64
641.17	1000.31
641.52	993.86
641.86	987.32
642.20	981.53
642.55	975.31
642.89	968.87
643.23	962.42
643.58	956.71
643.92	950.52
644.26	944.44
644.61	938.43
644.95	932.40
645.29	925.75
645.64	918.99
645.98	912.77
646.32	907.04
646.66	901.04
647.01	895.24
647.35	889.43
647.69	883.60
648.04	878.09
648.38	872.32
648.72	866.33
649.06	860.30
649.41	854.41
649.75	848.36
650.09	842.44
650.43	836.62
650.78	830.39
651.12	824.47
651.46	818.73
651.80	812.99
652.14	807.64
652.49	802.36
652.83	797.22
653.17	791.40
653.51	785.67
653.85	780.30
654.20	774.62
654.54	768.67
654.88	762.94
655.22	757.00
655.56	751.33
655.90	745.82
656.25	740.60
656.59	735.21
656.93	730.16
657.27	724.93
657.61	719.49
657.95	714.44
658.29	709.39
658.64	704.17
658.98	698.86
659.32	693.37
659.66	688.10
660.00	682.79
660.34	677.86
660.68	672.85
661.02	667.81
661.36	663.12
661.70	658.59
662.05	654.24
662.39	649.97
662.73	645.50
663.07	641.15
663.41	636.76
663.75	632.30
664.09	627.70
664.43	623.20
664.77	619.11
665.11	614.82
665.45	610.65
665.79	606.54
666.13	602.42
666.47	598.37
666.81	594.15
667.15	590.04
667.49	586.14
667.83	582.39
668.17	578.46
668.51	574.37
668.85	570.34
669.19	566.47
669.53	562.55
669.87	558.67
670.21	554.98
670.55	551.29
670.89	547.84
671.23	544.41
671.57	540.98
671.91	537.40
672.25	533.92
672.58	530.38
672.92	526.89
673.26	523.72
673.60	520.54
673.94	517.47
674.28	514.56
674.62	511.58
674.96	508.43
675.30	505.48
675.64	502.57
675.97	499.78
676.31	496.92
676.65	494.03
676.99	491.29
677.33	488.44
677.67	485.57
678.01	482.53
678.34	479.56
678.68	476.71
679.02	473.84
679.36	471.11
679.70	468.39
680.04	465.73
680.37	462.81
680.71	459.99
681.05	457.39
681.39	454.61
681.73	451.97
682.06	449.43
682.40	446.88
682.74	444.35
683.08	441.83
683.42	439.24
683.75	436.75
684.09	434.27
684.43	431.79
684.77	429.36
685.10	427.03
685.44	424.69
685.78	422.38
686.12	420.17
686.45	417.82
686.79	415.54
687.13	413.28
687.46	411.15
687.80	408.94
688.14	406.74
688.48	404.70
688.81	402.45
689.15	400.30
689.49	398.11
689.82	396.02
690.16	393.92
690.50	391.95
690.83	389.97
691.17	387.96
691.51	386.05
691.84	384.17
692.18	382.20
692.52	380.24
692.85	378.28
693.19	376.41
693.52	374.58
693.86	372.80
694.20	370.99
694.53	369.19
694.87	367.41
695.21	365.58
695.54	363.73
695.88	361.97
696.21	360.26
696.55	358.60
696.88	356.93
697.22	355.28
697.56	353.63
697.89	352.00
698.23	350.41
698.56	348.80
698.90	347.23
699.23	345.63
699.57	344.09
699.90	342.57
700.24	340.99
700.58	339.46
700.91	337.91
701.25	336.48
701.58	335.10
701.92	333.71
702.25	332.33
702.59	331.00
702.92	329.71
703.26	328.38
703.59	327.15
703.93	325.96
704.26	324.73
704.60	323.41
704.93	322.13
705.26	320.87
705.60	319.67
705.93	318.48
706.27	317.42
706.60	316.35
706.94	315.23
707.27	314.12
707.61	313.07
707.94	312.09
708.27	311.04
708.61	309.96
708.94	308.97
709.28	308.01
709.61	307.02
709.94	306.03
710.28	305.04
710.61	304.01
710.95	302.96
711.28	302.03
711.61	301.10
711.95	300.19
712.28	299.22
712.61	298.24
712.95	297.36
713.28	296.49
713.61	295.58
713.95	294.73
714.28	293.91
714.61	293.05
714.95	292.16
715.28	291.31
715.61	290.42
715.95	289.54
716.28	288.65
716.61	287.81
716.95	286.99
717.28	286.27
717.61	285.53
717.94	284.77
718.28	283.95
718.61	283.24
718.94	282.52
719.27	281.89
719.61	281.28
719.94	280.61
720.27	279.88
720.60	279.24
720.94	278.61
721.27	278.02
721.60	277.44
721.93	276.85
722.27	276.29
722.60	275.74
722.93	275.21
723.26	274.70
723.59	274.17
723.93	273.63
724.26	273.06
724.59	272.47
724.92	271.94
725.25	271.45
725.59	270.92
725.92	270.43
726.25	269.93
726.58	269.42
726.91	268.90
727.24	268.47
727.57	267.99
727.91	267.48
728.24	267.03
728.57	266.54
728.90	266.09
729.23	265.61
729.56	265.19
729.89	264.70
730.22	264.19
730.55	263.72
730.89	263.29
731.22	262.83
731.55	262.42
731.88	262.04
732.21	261.58
732.54	261.17
732.87	260.72
733.20	260.31
733.53	259.93
733.86	259.58
734.19	259.18
734.52	258.80
734.85	258.52
735.18	258.08
735.51	257.74
735.84	257.37
736.17	257.03
736.50	256.62
736.83	256.39
737.16	256.08
737.49	255.75
737.82	255.40
738.15	255.09
738.48	254.73
738.81	254.38
739.14	254.06
739.47	253.75
739.80	253.46
740.13	253.18
740.46	252.87
740.79	252.50
741.12	252.15
741.45	251.85
741.78	251.48
742.11	251.17
742.44	250.82
742.77	250.52
743.10	250.19
743.43	249.90
743.75	249.52
744.08	249.37
744.41	249.11
744.74	248.82
745.07	248.50
745.40	248.27
745.73	248.04
746.06	247.79
746.39	247.54
746.71	247.30
747.04	247.02
747.37	246.73
747.70	246.54
748.03	246.30
748.36	246.06
748.68	245.79
749.01	245.56
749.34	245.34
749.67	245.12
750.00	244.90
750.33	244.77
750.65	244.51
750.98	244.16
751.31	243.94
751.64	243.73
751.97	243.63
752.29	243.36
752.62	243.11
752.95	242.90
753.28	242.67
753.60	242.44
753.93	242.25
754.26	242.04
754.59	241.80
754.91	241.61
755.24	241.40
755.57	241.23
755.90	241.07
756.22	240.88
756.55	240.68
756.88	240.50
757.20	240.27
757.53	240.11
757.86	239.94
758.19	239.76
758.51	239.60
758.84	239.38
759.17	239.24
759.49	239.10
759.82	238.96
760.15	238.84
760.47	238.70
760.80	238.53
761.13	238.41
761.45	238.22
761.78	238.06
762.11	237.92
762.43	237.80
762.76	237.65
763.08	237.53
763.41	237.37
763.74	237.23
764.06	237.06
764.39	236.94
764.71	236.79
765.04	236.68
765.37	236.56
765.69	236.40
766.02	236.28
766.34	236.12
766.67	236.00
767.00	235.91
767.32	235.84
767.65	235.79
767.97	235.67
768.30	235.59
768.62	235.51
768.95	235.39
769.27	235.27
769.60	235.14
769.92	235.03
770.25	234.92
770.57	234.79
770.90	234.72
771.22	234.62
771.55	234.55
771.87	234.45
772.20	234.36
772.52	234.36
772.85	234.37
773.17	234.30
773.50	234.19
773.82	234.02
774.15	233.88
774.47	233.69
774.80	233.58
775.12	233.48
775.45	233.36
775.77	233.29
776.09	233.20
776.42	233.16
776.74	233.09
777.07	233.03
777.39	232.95
777.72	232.85
778.04	232.76
778.36	232.64
778.69	232.55
779.01	232.46
779.33	232.28
779.66	232.07
779.98	231.98
780.31	231.90
780.63	231.89
780.95	231.81
781.28	231.76
781.60	231.68
781.92	231.60
782.25	231.56
782.57	231.50
782.89	231.40
783.22	231.30
783.54	231.23
783.86	231.14
784.19	231.06
784.51	231.02
784.83	230.95
785.16	230.90
785.48	230.84
785.80	230.76
786.12	230.71
786.45	230.65
786.77	230.59
787.09	230.55
787.42	230.43
787.74	230.39
788.06	230.33
788.38	230.27
788.71	230.21
789.03	230.12
789.35	230.07
789.67	230.03
789.99	229.97
790.32	229.88
790.64	229.89
790.96	229.92
791.28	229.85
791.61	229.82
791.93	229.79
792.25	229.75
792.57	229.79
792.89	229.76
793.21	229.75
793.54	229.73
793.86	229.69
794.18	229.68
794.50	229.61
794.82	229.58
795.14	229.56
795.47	229.58
795.79	229.58
796.11	229.53
796.43	229.50
796.75	229.48
797.07	229.48
797.39	229.45
797.71	229.35
798.04	229.35
798.36	229.32
798.68	229.29
799.00	229.26
799.32	229.16
799.64	229.16
799.96	229.14
800.28	229.10
800.60	229.03
800.92	229.00
801.24	228.96
801.56	228.96
801.89	228.92
802.21	228.88
802.53	228.84
802.85	228.83
803.17	228.85
803.49	228.83
803.81	228.80
804.13	228.75
804.45	228.77
804.77	228.72
805.09	228.72
805.41	228.69
805.73	228.66
806.05	228.67
806.37	228.62
806.69	228.59
807.01	228.58
807.33	228.61
807.65	228.57
807.97	228.62
808.28	228.60
808.60	228.61
808.92	228.59
809.24	228.62
809.56	228.59
809.88	228.55
810.20	228.53
810.52	228.53
810.84	228.48
811.16	228.41
811.48	228.39
811.80	228.39
812.12	228.35
812.43	228.31
812.75	228.26
813.07	228.24
813.39	228.23
813.71	228.17
814.03	228.14
814.35	228.09
814.67	228.00
814.98	227.97
815.30	227.92
815.62	227.87
815.94	227.78
816.26	227.81
816.58	227.75
816.89	227.71
817.21	227.62
817.53	227.64
817.85	227.64
818.17	227.60
818.48	227.55
818.80	227.55
819.12	227.55
819.44	227.52
819.76	227.49
820.07	227.49
820.39	227.48
820.71	227.47
821.03	227.49
821.34	227.49
821.66	227.48
821.98	227.48
822.30	227.47
822.61	227.52
822.93	227.45
823.25	227.44
823.57	227.45
823.88	227.48
824.20	227.43
824.52	227.42
824.83	227.42
825.15	227.37
825.47	227.32
825.79	227.30
826.10	227.30
826.42	227.25
826.74	227.21
827.05	227.23
827.37	227.21
827.69	227.20
828.00	227.18
828.32	227.14
828.64	227.11
828.95	227.12
829.27	227.10
829.58	227.10
829.90	227.10
830.22	227.08
830.53	227.04
830.85	227.04
831.17	227.01
831.48	227.00
831.80	227.01
832.11	226.99
832.43	226.97
832.75	226.94
833.06	227.03
833.38	227.02
833.69	226.97
834.01	226.98
834.32	226.96
834.64	226.98
834.96	226.99
835.27	227.00
835.59	226.98
835.90	226.95
836.22	226.96
836.53	226.93
836.85	226.93
837.16	227.01
837.48	227.01
837.79	227.01
838.11	227.04
838.42	227.03
838.74	227.06
839.05	227.05
839.37	227.04
839.68	226.94
840.00	226.93
840.31	226.92
840.63	226.89
840.94	226.88
841.26	226.85
841.57	226.80
841.88	226.82
842.20	226.80
842.51	226.77
842.83	226.76
843.14	226.86
843.46	226.88
843.77	226.86
844.08	226.86
844.40	226.82
844.71	226.78
845.03	226.79
845.34	226.75
845.65	226.78
845.97	226.78
846.28	226.81
846.60	226.83
846.91	226.81
847.22	226.81
847.54	226.85
847.85	226.84
848.16	226.84
848.48	226.80
848.79	226.83
849.10	226.84
849.42	226.84
849.73	226.71
850.04	226.71
850.36	226.68
850.67	226.68
850.98	226.69
851.30	226.71
851.61	226.72
851.92	226.75
852.23	226.75
852.55	226.76
852.86	226.75
853.17	226.76
853.49	226.81
853.80	226.83
854.11	226.79
854.42	226.80
854.74	226.83
855.05	226.83
855.36	226.78
855.67	226.79
855.99	226.74
856.30	226.86
856.61	226.84
856.92	226.79
857.23	226.81
857.55	226.80
857.86	226.73
858.17	226.72
858.48	226.68
858.79	226.69
859.11	226.70
859.42	226.68
859.73	226.64
860.04	226.62
860.35	226.59
860.66	226.58
860.98	226.60
861.29	226.59
861.60	226.57
861.91	226.61
862.22	226.60
862.53	226.58
862.84	226.48
863.16	226.51
863.47	226.50
863.78	226.49
864.09	226.49
864.40	226.55
864.71	226.56
865.02	226.55
865.33	226.49
865.64	226.44
865.95	226.42
866.27	226.48
866.58	226.48
866.89	226.49
867.20	226.48
867.51	226.44
867.82	226.43
868.13	226.47
868.44	226.43
868.75	226.42
869.06	226.44
869.37	226.46
869.68	226.42
869.99	226.42
870.30	226.40
870.61	226.43
870.92	226.40
871.23	226.36
871.54	226.37
871.85	226.40
872.16	226.46
872.47	226.46
872.78	226.38
873.09	226.36
873.40	226.36
873.71	226.34
874.02	226.34
874.33	226.31
874.64	226.29
874.95	226.33
875.26	226.31
875.56	226.33
875.87	226.26
876.18	226.26
876.49	226.35
876.80	226.34
877.11	226.30
877.42	226.29
877.73	226.27
878.04	226.25
878.35	226.24
878.66	226.25
878.96	226.27
879.27	226.29
879.58	226.28
879.89	226.24
880.20	226.28
880.51	226.25
880.82	226.26
881.12	226.27
881.43	226.23
881.74	226.20
882.05	226.21
882.36	226.24
882.67	226.23
882.97	226.14
883.28	226.14
883.59	226.13
883.90	226.18
884.21	226.21
884.51	226.24
884.82	226.23
885.13	226.22
885.44	226.18
885.74	226.19
886.05	226.21
886.36	226.23
886.67	226.19
886.98	226.28
887.28	226.28
887.59	226.24
887.90	226.24
888.20	226.24
888.51	226.26
888.82	226.25
889.13	226.29
889.43	226.40
889.74	226.40
890.05	226.41
890.35	226.38
890.66	226.38
890.97	226.36
891.28	226.36
891.58	226.31
891.89	226.37
892.20	226.35
892.50	226.32
892.81	226.33
893.12	226.34
893.42	226.26
893.73	226.27
894.04	226.33
894.34	226.34
894.65	226.38
894.95	226.33
895.26	226.35
895.57	226.40
895.87	226.26
896.18	226.28
896.48	226.30
896.79	226.28
897.10	226.27
897.40	226.26
897.71	226.31
898.01	226.33
898.32	226.32
898.63	226.33
898.93	226.35
899.24	226.35
899.54	226.35
899.85	226.36
900.15	226.35
900.46	226.30
900.76	226.31
901.07	226.29
901.38	226.29
901.68	226.30
901.99	226.22
902.29	226.24
902.60	226.24
902.90	226.21
903.21	226.21
903.51	226.20
903.82	226.21
904.12	226.19
904.43	226.18
904.73	226.18
905.03	226.17
905.34	226.24
905.64	226.24
905.95	226.26
906.25	226.25
906.56	226.23
906.86	226.26
907.17	226.25
907.47	226.23
907.77	226.23
908.08	226.18
908.38	226.21
908.69	226.21
908.99	226.22
909.30	226.19
909.60	226.21
909.90	226.22
910.21	226.19
910.51	226.17
910.81	226.14
911.12	226.14
911.42	226.13
911.73	226.02
912.03	226.00
912.33	225.98
912.64	225.97
912.94	225.96
913.24	225.90
913.55	225.90
913.85	225.93
914.15	225.94
914.46	225.94
914.76	225.90
915.06	225.90
915.37	225.88
915.67	225.90
915.97	225.90
916.27	225.89
916.58	225.90
916.88	225.90
917.18	225.94
917.49	226.04
917.79	226.03
918.09	226.04
918.39	226.09
918.70	226.07
919.00	226.10
919.30	226.19
919.60	226.21
919.91	226.17
920.21	226.16
920.51	226.15
920.81	226.15
921.12	226.17
921.42	226.16
921.72	226.16
922.02	226.16
922.32	226.19
922.63	226.20
922.93	226.25
923.23	226.25
923.53	226.26
923.83	226.16
924.13	226.18
924.44	226.19
924.74	226.20
925.04	226.24
925.34	226.21
925.64	226.14
925.94	226.15
926.24	226.23
926.55	226.23
926.85	226.24
927.15	226.25
927.45	226.25
927.75	226.25
928.05	226.26
928.35	226.25
928.65	226.24
928.95	226.24
929.26	226.19
929.56	226.24
929.86	226.21
930.16	226.20
930.46	226.20
930.76	226.19
931.06	226.15
931.36	226.10
931.66	226.15
931.96	226.15
932.26	226.12
932.56	226.09
932.86	226.09
933.16	226.08
933.46	226.06
933.76	226.02
934.06	226.02
934.36	226.03
934.66	226.01
934.96	226.01
935.26	226.02
935.56	226.03
935.86	225.96
936.16	225.94
936.46	225.95
936.76	225.90
937.06	225.88
937.36	225.89
937.66	225.93
937.96	225.91
938.26	225.88
938.56	225.86
938.86	225.85
939.16	225.89
939.46	225.90
939.76	225.94
940.06	225.96
940.35	225.94
940.65	225.91
940.95	225.91
941.25	225.92
941.55	225.87
941.85	225.87
942.15	225.91
942.45	225.94
942.75	225.95
943.04	225.96
943.34	225.99
943.64	225.96
943.94	225.93
944.24	225.92
944.54	225.94
944.84	225.98
945.13	225.96
945.43	225.90
945.73	225.92
946.03	225.88
946.33	225.88
946.62	225.88
946.92	225.83
947.22	225.85
947.52	225.82
947.82	225.86
948.11	225.84
948.41	225.82
948.71	225.80
949.01	225.80
949.31	225.82
949.60	225.83
949.90	225.84
950.20	225.85
950.50	225.83
950.79	225.83
951.09	225.82
951.39	225.84
951.69	225.83
951.98	225.83
952.28	225.82
952.58	225.78
952.87	225.78
953.17	225.81
953.47	225.80
953.76	225.84
954.06	225.83
954.36	225.79
954.66	225.78
954.95	225.79
955.25	225.81
955.55	225.83
955.84	225.77
956.14	225.78
956.44	225.78
956.73	225.83
957.03	225.85
957.32	225.89
957.62	225.90
957.92	225.96
958.21	225.94
958.51	226.06
958.81	226.10
959.10	226.13
959.40	226.17
959.69	226.19
959.99	226.19
960.29	226.20
960.58	226.22
960.88	226.27
961.17	226.26
961.47	226.24
961.76	226.23
962.06	226.31
962.36	226.31
962.65	226.35
962.95	226.28
963.24	226.26
963.54	226.24
963.83	226.24
964.13	226.21
964.42	226.18
964.72	226.10
965.01	226.15
965.31	226.15
965.60	226.12
965.90	226.13
966.19	226.11
966.49	226.12
966.78	226.13
967.08	226.15
967.37	226.17
967.67	226.19
967.96	226.22
968.26	226.15
968.55	226.17
968.85	226.15
969.14	226.16
969.43	226.16
969.73	226.16
970.02	226.14
970.32	226.13
970.61	226.14
970.91	226.14
971.20	226.10
971.49	226.08
971.79	226.13
972.08	226.10
972.38	226.12
972.67	226.13
972.96	226.14
973.26	226.09
973.55	226.10
973.85	226.10
974.14	226.06
974.43	226.09
974.73	226.05
975.02	226.02
975.31	226.04
975.61	226.05
975.90	226.02
976.19	226.02
976.49	226.03
976.78	226.03
977.07	226.00
977.37	226.00
977.66	226.00
977.95	225.96
978.24	225.97
978.54	226.00
978.83	225.97
979.12	225.97
979.42	225.98
979.71	225.96
980.00	225.95
980.29	225.98
980.59	225.98
980.88	226.07
981.17	226.08
981.46	226.06
981.76	226.03
982.05	226.05
982.34	226.04
982.63	226.05
982.93	226.05
983.22	226.09
983.51	226.10
983.80	226.16
984.09	226.16
984.39	226.14
984.68	226.14
984.97	226.14
985.26	226.13
985.55	226.13
985.85	226.14
986.14	226.14
986.43	226.11
986.72	226.10
987.01	226.03
987.30	226.02
987.59	226.03
987.89	226.04
988.18	226.04
988.47	226.04
988.76	226.02
989.05	226.02
989.34	226.01
989.63	226.00
989.92	225.96
990.22	225.95
990.51	225.96
990.80	225.93
991.09	225.96
991.38	225.96
991.67	225.91
991.96	225.89
992.25	225.90
992.54	225.90
992.83	225.90
993.12	225.91
993.41	225.94
993.70	225.97
993.99	225.96
994.28	225.96
994.58	225.98
994.87	225.96
995.16	225.93
995.45	225.92
995.74	225.91
996.03	225.91
996.32	225.91
996.61	225.92
996.90	225.89
997.19	225.85
997.48	225.85
997.77	225.89
998.06	225.89
998.34	225.84
998.63	225.84
998.92	225.83
999.21	225.85
999.50	225.82
999.79	225.79
1000.08	225.78
1000.37	225.77
1000.66	225.77
1000.95	225.78
1001.24	225.80
1001.53	225.82
1001.82	225.81
1002.11	225.81
1002.40	225.80
1002.68	225.82
1002.97	225.92
1003.26	225.90
1003.55	225.88
1003.84	225.87
1004.13	225.90
1004.42	225.91
1004.71	225.89
1004.99	225.90
1005.28	225.90
1005.57	225.91
1005.86	225.90
1006.15	225.94
1006.44	225.97
1006.72	225.98
1007.01	226.00
1007.30	226.02
1007.59	226.00
1007.88	225.99
1008.17	225.98
1008.45	226.00
1008.74	225.95
1009.03	225.92
1009.32	225.97
1009.60	225.98
1009.89	225.97
1010.18	225.93
1010.47	225.94
1010.76	225.95
1011.04	225.94
1011.33	225.95
1011.62	225.96
1011.91	225.96
1012.19	225.94
1012.48	225.92
1012.77	225.91
1013.05	225.97
1013.34	225.91
1013.63	225.91
1013.92	225.91
1014.20	225.92
1014.49	225.90
1014.78	225.91
1015.06	225.84
1015.35	225.81
1015.64	225.82
1015.92	225.84
1016.21	225.86
1016.50	225.87
1016.78	225.85
1017.07	225.88
1017.36	225.87
1017.64	225.83
1017.93	225.85
1018.22	225.86
1018.50	225.85
1018.79	225.87
1019.08	225.81
1019.36	225.84
1019.65	225.82
1019.93	225.86
1020.22	225.84
1020.51	225.89
1020.79	225.89
1021.08	226.13
1021.36	225.37
1021.65	226.22
1021.94	226.04
1022.22	225.98
1022.51	225.43
1022.79	226.30
1023.08	225.52
1023.36	226.71
1023.65	225.73
>>>>>End Processed Spectral Data<<<<<
