SpectraSuite Data File
++++++++++++++++++++++++++++++++++++
Date: Fri Feb 01 16:04:04 EST 2013
User: group
Dark Spectrum Present: No
Reference Spectrum Present: No
Number of Sampled Component Spectra: 1
Spectrometers: USB2E7196
Integration Time (usec): 35000 (USB2E7196)
Spectra Averaged: 100 (USB2E7196)
Boxcar Smoothing: 10 (USB2E7196)
Correct for Electrical Dark: No (USB2E7196)
Strobe/Lamp Enabled: No (USB2E7196)
Correct for Detector Non-linearity: No (USB2E7196)
Correct for Stray Light: No (USB2E7196)
Number of Pixels in Processed Spectrum: 2048
>>>>>Begin Processed Spectral Data<<<<<
339.09	0.00
339.48	214.28
339.86	216.22
340.24	218.10
340.63	219.48
341.01	221.91
341.39	222.17
341.78	222.89
342.16	224.23
342.54	224.39
342.93	213.18
343.31	223.97
343.69	224.54
344.07	225.01
344.46	225.41
344.84	225.76
345.22	225.96
345.60	226.20
345.99	226.37
346.37	226.50
346.75	226.61
347.13	226.69
347.52	226.78
347.90	226.82
348.28	226.84
348.66	226.85
349.05	226.81
349.43	226.83
349.81	226.86
350.19	226.92
350.57	226.97
350.96	227.07
351.34	227.13
351.72	227.22
352.10	227.33
352.48	227.39
352.87	227.45
353.25	227.56
353.63	227.62
354.01	227.71
354.39	227.78
354.77	227.86
355.15	227.97
355.54	227.99
355.92	228.04
356.30	228.10
356.68	228.23
357.06	228.32
357.44	228.37
357.82	228.46
358.20	228.52
358.58	228.55
358.97	228.60
359.35	228.67
359.73	228.72
360.11	228.77
360.49	228.81
360.87	228.85
361.25	228.89
361.63	228.93
362.01	228.98
362.39	229.03
362.77	229.08
363.15	229.11
363.53	229.14
363.91	229.19
364.29	229.21
364.67	229.16
365.05	229.18
365.43	229.25
365.81	229.24
366.19	229.26
366.57	229.28
366.95	229.28
367.33	229.24
367.71	229.22
368.09	229.23
368.47	229.23
368.85	229.22
369.23	229.20
369.61	229.16
369.99	229.17
370.37	229.14
370.75	229.16
371.13	229.08
371.51	229.07
371.89	229.03
372.27	228.97
372.65	228.92
373.03	228.87
373.41	228.79
373.78	228.73
374.16	228.65
374.54	228.57
374.92	228.54
375.30	228.51
375.68	228.44
376.06	228.39
376.44	228.31
376.82	228.22
377.19	228.18
377.57	228.12
377.95	228.02
378.33	227.95
378.71	227.81
379.09	227.74
379.47	227.68
379.84	227.64
380.22	227.59
380.60	227.53
380.98	227.43
381.36	227.34
381.73	227.27
382.11	227.21
382.49	227.16
382.87	227.04
383.25	226.96
383.62	227.01
384.00	226.92
384.38	226.88
384.76	226.84
385.13	226.81
385.51	226.76
385.89	226.68
386.27	226.62
386.64	226.57
387.02	226.54
387.40	226.50
387.78	226.46
388.15	226.42
388.53	226.37
388.91	226.34
389.29	226.32
389.66	226.30
390.04	226.28
390.42	226.29
390.79	226.29
391.17	226.30
391.55	226.18
391.92	226.18
392.30	226.21
392.68	226.21
393.05	226.22
393.43	226.25
393.81	226.29
394.18	226.30
394.56	226.33
394.94	226.38
395.31	226.37
395.69	226.37
396.06	226.40
396.44	226.46
396.82	226.51
397.19	226.59
397.57	226.64
397.95	226.70
398.32	226.72
398.70	226.80
399.07	226.85
399.45	226.91
399.82	227.00
400.20	227.00
400.58	227.09
400.95	227.14
401.33	227.19
401.70	227.31
402.08	227.39
402.45	227.49
402.83	227.61
403.20	227.73
403.58	227.82
403.95	227.95
404.33	228.06
404.71	228.16
405.08	228.34
405.46	228.49
405.83	228.60
406.21	228.76
406.58	228.90
406.96	229.07
407.33	229.24
407.70	229.43
408.08	229.73
408.45	229.93
408.83	230.13
409.20	230.37
409.58	230.56
409.95	230.83
410.33	231.09
410.70	231.32
411.08	231.60
411.45	231.93
411.82	232.24
412.20	232.59
412.57	233.03
412.95	233.30
413.32	233.71
413.69	234.13
414.07	234.56
414.44	235.05
414.82	235.53
415.19	236.11
415.56	236.65
415.94	237.17
416.31	237.83
416.68	238.45
417.06	239.18
417.43	239.89
417.81	240.67
418.18	241.48
418.55	242.32
418.93	243.21
419.30	244.13
419.67	245.08
420.04	246.08
420.42	247.06
420.79	248.26
421.16	249.37
421.54	250.55
421.91	251.77
422.28	253.00
422.66	254.34
423.03	255.65
423.40	256.99
423.77	258.43
424.15	259.85
424.52	261.36
424.89	262.99
425.26	264.52
425.64	265.95
426.01	267.51
426.38	269.13
426.75	270.81
427.13	272.54
427.50	274.36
427.87	276.22
428.24	278.09
428.61	279.80
428.99	281.81
429.36	283.93
429.73	286.02
430.10	288.02
430.47	290.08
430.85	292.15
431.22	294.39
431.59	296.76
431.96	298.96
432.33	301.39
432.70	303.75
433.08	306.56
433.45	309.18
433.82	311.82
434.19	314.74
434.56	317.52
434.93	320.16
435.30	322.74
435.68	325.61
436.05	328.42
436.42	331.28
436.79	333.74
437.16	336.46
437.53	339.30
437.90	342.11
438.27	344.85
438.64	347.69
439.01	350.23
439.38	352.41
439.75	354.59
440.13	357.11
440.50	359.40
440.87	361.20
441.24	363.16
441.61	365.27
441.98	366.72
442.35	368.51
442.72	370.33
443.09	372.12
443.46	373.08
443.83	373.66
444.20	374.10
444.57	374.94
444.94	375.19
445.31	375.47
445.68	375.79
446.05	375.84
446.42	375.46
446.79	375.02
447.16	374.64
447.53	374.27
447.90	373.11
448.27	371.97
448.64	370.37
449.01	369.19
449.37	367.19
449.74	365.31
450.11	363.10
450.48	360.60
450.85	358.06
451.22	355.94
451.59	353.90
451.96	351.98
452.33	349.35
452.70	347.00
453.07	344.19
453.43	341.32
453.80	338.60
454.17	335.89
454.54	333.34
454.91	330.56
455.28	327.90
455.65	325.42
456.02	322.96
456.38	320.86
456.75	318.19
457.12	315.98
457.49	313.79
457.86	311.62
458.23	309.82
458.59	307.81
458.96	305.71
459.33	303.86
459.70	302.00
460.07	300.57
460.43	298.83
460.80	297.22
461.17	295.80
461.54	294.29
461.91	292.92
462.27	291.52
462.64	290.31
463.01	288.99
463.38	287.69
463.74	286.37
464.11	285.19
464.48	284.24
464.85	283.15
465.21	282.25
465.58	281.33
465.95	280.19
466.32	279.26
466.68	278.39
467.05	277.53
467.42	276.66
467.78	275.68
468.15	274.85
468.52	274.20
468.88	273.33
469.25	272.56
469.62	271.94
469.98	271.30
470.35	270.70
470.72	270.10
471.08	269.44
471.45	268.93
471.82	268.42
472.18	267.81
472.55	267.37
472.92	266.89
473.28	266.45
473.65	266.05
474.02	265.66
474.38	265.30
474.75	264.97
475.11	264.64
475.48	264.42
475.85	264.17
476.21	263.94
476.58	263.77
476.94	263.66
477.31	263.48
477.67	263.34
478.04	263.24
478.41	263.16
478.77	263.23
479.14	263.11
479.50	263.14
479.87	263.19
480.23	263.29
480.60	263.34
480.96	263.40
481.33	263.62
481.69	263.79
482.06	263.97
482.42	264.20
482.79	264.43
483.15	264.72
483.52	265.09
483.88	265.44
484.25	265.82
484.61	266.18
484.98	266.67
485.34	267.19
485.71	267.77
486.07	268.40
486.44	268.95
486.80	269.64
487.17	270.33
487.53	271.12
487.90	271.92
488.26	272.85
488.62	273.85
488.99	274.79
489.35	275.84
489.72	276.97
490.08	278.14
490.44	279.41
490.81	280.73
491.17	282.13
491.54	283.57
491.90	285.09
492.26	286.74
492.63	288.44
492.99	290.21
493.36	292.07
493.72	294.09
494.08	296.19
494.45	298.45
494.81	300.77
495.17	303.24
495.54	305.81
495.90	308.51
496.26	311.30
496.63	314.26
496.99	317.39
497.35	320.66
497.72	324.03
498.08	327.52
498.44	331.15
498.80	335.08
499.17	339.16
499.53	343.34
499.89	347.71
500.26	352.22
500.62	356.92
500.98	361.95
501.34	367.06
501.71	372.42
502.07	377.85
502.43	383.54
502.79	389.35
503.16	395.45
503.52	401.72
503.88	408.17
504.24	414.87
504.60	421.77
504.97	428.91
505.33	436.28
505.69	444.04
506.05	451.89
506.41	459.77
506.78	467.96
507.14	476.47
507.50	485.23
507.86	494.34
508.22	503.53
508.59	512.70
508.95	522.26
509.31	532.07
509.67	542.24
510.03	552.52
510.39	563.09
510.75	573.89
511.12	584.86
511.48	596.13
511.84	607.61
512.20	619.12
512.56	631.09
512.92	643.29
513.28	655.66
513.64	668.11
514.00	680.79
514.37	693.73
514.73	706.76
515.09	719.81
515.45	733.10
515.81	746.75
516.17	760.72
516.53	774.91
516.89	789.11
517.25	803.27
517.61	817.70
517.97	832.15
518.33	846.60
518.69	861.30
519.05	876.26
519.41	891.29
519.77	906.85
520.13	922.29
520.49	937.66
520.85	953.03
521.21	968.81
521.57	984.93
521.93	1000.69
522.29	1017.10
522.65	1033.26
523.01	1049.38
523.37	1065.34
523.73	1081.54
524.09	1097.51
524.45	1113.83
524.81	1130.49
525.17	1147.25
525.53	1164.05
525.89	1180.80
526.25	1197.59
526.61	1213.97
526.97	1230.68
527.33	1247.15
527.68	1263.64
528.04	1280.05
528.40	1296.56
528.76	1313.59
529.12	1330.19
529.48	1347.02
529.84	1362.94
530.20	1379.64
530.56	1396.55
530.91	1413.97
531.27	1430.65
531.63	1447.10
531.99	1463.51
532.35	1479.27
532.71	1495.20
533.07	1511.48
533.42	1527.37
533.78	1543.41
534.14	1559.67
534.50	1574.99
534.86	1590.74
535.21	1605.97
535.57	1621.86
535.93	1637.39
536.29	1652.07
536.65	1667.11
537.00	1681.80
537.36	1697.07
537.72	1711.48
538.08	1725.81
538.44	1739.50
538.79	1753.39
539.15	1766.96
539.51	1780.66
539.87	1795.07
540.22	1808.70
540.58	1822.39
540.94	1835.69
541.29	1848.50
541.65	1861.07
542.01	1874.27
542.37	1886.55
542.72	1898.86
543.08	1910.59
543.44	1922.87
543.79	1934.05
544.15	1944.98
544.51	1956.48
544.87	1967.41
545.22	1978.23
545.58	1988.55
545.94	1998.31
546.29	2008.03
546.65	2017.99
547.01	2027.33
547.36	2035.96
547.72	2044.43
548.07	2052.26
548.43	2060.38
548.79	2068.42
549.14	2076.01
549.50	2083.34
549.86	2091.07
550.21	2098.51
550.57	2105.69
550.92	2112.25
551.28	2119.26
551.64	2126.40
551.99	2132.96
552.35	2139.08
552.70	2145.28
553.06	2151.33
553.41	2157.62
553.77	2163.71
554.13	2169.76
554.48	2175.75
554.84	2181.35
555.19	2186.56
555.55	2191.73
555.90	2196.13
556.26	2201.04
556.61	2205.67
556.97	2210.08
557.32	2214.29
557.68	2218.46
558.03	2222.77
558.39	2226.62
558.74	2231.22
559.10	2235.06
559.45	2238.79
559.81	2243.11
560.16	2246.97
560.52	2250.02
560.87	2253.49
561.23	2256.23
561.58	2259.20
561.94	2261.77
562.29	2264.07
562.64	2266.80
563.00	2269.34
563.35	2272.96
563.71	2276.12
564.06	2279.41
564.42	2282.11
564.77	2284.43
565.12	2286.43
565.48	2288.33
565.83	2290.09
566.19	2291.44
566.54	2292.42
566.89	2293.53
567.25	2294.06
567.60	2295.30
567.96	2297.03
568.31	2297.86
568.66	2298.87
569.02	2299.40
569.37	2299.76
569.72	2300.52
570.08	2300.75
570.43	2300.91
570.78	2300.35
571.14	2298.67
571.49	2297.49
571.84	2297.21
572.20	2296.29
572.55	2295.42
572.90	2293.82
573.26	2292.37
573.61	2290.79
573.96	2289.00
574.31	2285.95
574.67	2283.07
575.02	2279.42
575.37	2276.18
575.72	2272.51
576.08	2269.15
576.43	2265.77
576.78	2262.13
577.13	2259.07
577.49	2255.92
577.84	2252.39
578.19	2248.63
578.54	2245.08
578.90	2240.76
579.25	2235.34
579.60	2230.29
579.95	2225.28
580.30	2220.39
580.66	2215.38
581.01	2210.34
581.36	2205.38
581.71	2201.29
582.06	2196.74
582.42	2192.30
582.77	2186.98
583.12	2182.30
583.47	2177.63
583.82	2172.73
584.17	2167.65
584.53	2162.14
584.88	2156.45
585.23	2150.81
585.58	2145.39
585.93	2140.05
586.28	2135.19
586.63	2130.05
586.98	2125.11
587.34	2120.41
587.69	2115.48
588.04	2110.02
588.39	2104.45
588.74	2097.97
589.09	2091.84
589.44	2085.11
589.79	2079.03
590.14	2073.40
590.49	2066.85
590.84	2060.44
591.19	2054.41
591.54	2047.86
591.89	2040.47
592.25	2033.66
592.60	2026.42
592.95	2018.91
593.30	2011.35
593.65	2003.72
594.00	1996.68
594.35	1989.23
594.70	1981.20
595.05	1974.01
595.40	1966.89
595.75	1959.41
596.10	1953.29
596.45	1946.54
596.80	1940.34
597.15	1933.85
597.50	1926.83
597.85	1920.29
598.19	1913.73
598.54	1906.70
598.89	1900.01
599.24	1894.13
599.59	1887.55
599.94	1881.29
600.29	1874.90
600.64	1868.47
600.99	1861.14
601.34	1854.23
601.69	1847.41
602.04	1840.50
602.39	1833.09
602.74	1826.22
603.08	1819.50
603.43	1812.75
603.78	1805.53
604.13	1798.37
604.48	1790.96
604.83	1784.03
605.18	1777.16
605.53	1769.16
605.87	1761.16
606.22	1753.96
606.57	1745.96
606.92	1738.60
607.27	1731.51
607.62	1724.56
607.96	1717.35
608.31	1710.80
608.66	1703.26
609.01	1695.65
609.36	1688.12
609.70	1680.19
610.05	1672.25
610.40	1664.62
610.75	1656.32
611.10	1648.56
611.44	1640.16
611.79	1632.24
612.14	1623.60
612.49	1614.41
612.83	1606.08
613.18	1598.04
613.53	1589.99
613.88	1581.50
614.22	1573.30
614.57	1564.60
614.92	1556.72
615.27	1549.14
615.61	1540.76
615.96	1532.85
616.31	1525.27
616.65	1517.90
617.00	1510.31
617.35	1502.58
617.70	1494.07
618.04	1485.61
618.39	1477.40
618.74	1469.83
619.08	1461.57
619.43	1454.04
619.78	1447.24
620.12	1439.95
620.47	1432.38
620.82	1424.19
621.16	1416.80
621.51	1409.25
621.85	1401.64
622.20	1393.03
622.55	1384.52
622.89	1376.80
623.24	1369.19
623.59	1361.71
623.93	1354.16
624.28	1346.86
624.62	1339.37
624.97	1332.30
625.32	1325.49
625.66	1318.48
626.01	1311.20
626.35	1303.73
626.70	1295.95
627.04	1288.10
627.39	1280.36
627.73	1272.88
628.08	1265.99
628.43	1258.65
628.77	1251.23
629.12	1243.57
629.46	1236.37
629.81	1229.10
630.15	1221.72
630.50	1214.13
630.84	1206.00
631.19	1198.03
631.53	1190.56
631.88	1182.93
632.22	1175.19
632.57	1167.81
632.91	1160.18
633.26	1152.82
633.60	1145.40
633.95	1138.25
634.29	1131.21
634.64	1124.55
634.98	1117.18
635.32	1109.98
635.67	1103.38
636.01	1096.70
636.36	1089.96
636.70	1083.38
637.05	1076.74
637.39	1070.33
637.73	1063.81
638.08	1057.84
638.42	1051.99
638.77	1045.52
639.11	1039.01
639.45	1032.70
639.80	1026.07
640.14	1019.64
640.49	1013.13
640.83	1006.88
641.17	1000.65
641.52	994.29
641.86	987.81
642.20	981.94
642.55	975.67
642.89	969.20
643.23	962.60
643.58	956.87
643.92	950.76
644.26	944.68
644.61	938.66
644.95	932.66
645.29	926.12
645.64	919.29
645.98	912.92
646.32	907.02
646.66	900.88
647.01	895.17
647.35	889.50
647.69	883.70
648.04	878.23
648.38	872.39
648.72	866.41
649.06	860.35
649.41	854.49
649.75	848.51
650.09	842.59
650.43	836.87
650.78	830.66
651.12	824.71
651.46	818.96
651.80	813.13
652.14	807.82
652.49	802.46
652.83	797.33
653.17	791.78
653.51	786.06
653.85	780.74
654.20	775.02
654.54	768.99
654.88	763.23
655.22	757.33
655.56	751.65
655.90	746.26
656.25	741.01
656.59	735.61
656.93	730.52
657.27	725.36
657.61	719.97
657.95	714.84
658.29	709.75
658.64	704.55
658.98	699.34
659.32	693.81
659.66	688.58
660.00	683.24
660.34	678.20
660.68	673.27
661.02	668.21
661.36	663.51
661.70	659.07
662.05	654.66
662.39	650.23
662.73	645.79
663.07	641.37
663.41	636.89
663.75	632.42
664.09	627.78
664.43	623.36
664.77	619.19
665.11	614.98
665.45	610.85
665.79	606.78
666.13	602.56
666.47	598.49
666.81	594.39
667.15	590.27
667.49	586.36
667.83	582.54
668.17	578.60
668.51	574.53
668.85	570.49
669.19	566.63
669.53	562.76
669.87	558.88
670.21	555.19
670.55	551.51
670.89	548.08
671.23	544.67
671.57	541.12
671.91	537.54
672.25	533.96
672.58	530.39
672.92	526.99
673.26	523.86
673.60	520.66
673.94	517.52
674.28	514.61
674.62	511.64
674.96	508.61
675.30	505.69
675.64	502.74
675.97	500.02
676.31	497.13
676.65	494.27
676.99	491.59
677.33	488.72
677.67	485.93
678.01	482.92
678.34	479.98
678.68	477.15
679.02	474.45
679.36	471.75
679.70	469.06
680.04	466.27
680.37	463.35
680.71	460.58
681.05	457.94
681.39	455.18
681.73	452.55
682.06	449.96
682.40	447.44
682.74	444.89
683.08	442.25
683.42	439.68
683.75	437.16
684.09	434.61
684.43	432.10
684.77	429.66
685.10	427.27
685.44	424.92
685.78	422.59
686.12	420.25
686.45	417.95
686.79	415.63
687.13	413.45
687.46	411.31
687.80	409.21
688.14	407.00
688.48	404.97
688.81	402.71
689.15	400.58
689.49	398.40
689.82	396.34
690.16	394.32
690.50	392.43
690.83	390.47
691.17	388.48
691.51	386.58
691.84	384.73
692.18	382.83
692.52	380.86
692.85	378.98
693.19	377.14
693.52	375.34
693.86	373.54
694.20	371.72
694.53	369.89
694.87	367.98
695.21	366.15
695.54	364.34
695.88	362.63
696.21	360.93
696.55	359.30
696.88	357.62
697.22	355.93
697.56	354.27
697.89	352.64
698.23	351.02
698.56	349.45
698.90	347.85
699.23	346.20
699.57	344.65
699.90	343.11
700.24	341.57
700.58	340.03
700.91	338.52
701.25	337.10
701.58	335.73
701.92	334.36
702.25	333.05
702.59	331.66
702.92	330.34
703.26	329.02
703.59	327.73
703.93	326.57
704.26	325.37
704.60	324.05
704.93	322.79
705.26	321.57
705.60	320.39
705.93	319.25
706.27	318.22
706.60	317.17
706.94	316.05
707.27	314.91
707.61	313.88
707.94	312.89
708.27	311.82
708.61	310.74
708.94	309.78
709.28	308.78
709.61	307.90
709.94	306.93
710.28	305.92
710.61	304.91
710.95	303.82
711.28	302.91
711.61	301.99
711.95	301.10
712.28	300.14
712.61	299.15
712.95	298.21
713.28	297.33
713.61	296.41
713.95	295.53
714.28	294.71
714.61	293.80
714.95	292.94
715.28	292.04
715.61	291.21
715.95	290.35
716.28	289.52
716.61	288.63
716.95	287.82
717.28	287.06
717.61	286.30
717.94	285.55
718.28	284.71
718.61	283.99
718.94	283.24
719.27	282.55
719.61	281.92
719.94	281.25
720.27	280.49
720.60	279.87
720.94	279.23
721.27	278.59
721.60	277.98
721.93	277.38
722.27	276.86
722.60	276.31
722.93	275.69
723.26	275.14
723.59	274.56
723.93	273.99
724.26	273.43
724.59	272.85
724.92	272.36
725.25	271.86
725.59	271.30
725.92	270.82
726.25	270.32
726.58	269.78
726.91	269.29
727.24	268.86
727.57	268.35
727.91	267.83
728.24	267.38
728.57	266.91
728.90	266.48
729.23	265.94
729.56	265.51
729.89	265.06
730.22	264.54
730.55	264.10
730.89	263.67
731.22	263.23
731.55	262.79
731.88	262.33
732.21	261.88
732.54	261.49
732.87	261.06
733.20	260.66
733.53	260.26
733.86	259.90
734.19	259.51
734.52	259.12
734.85	258.85
735.18	258.43
735.51	258.05
735.84	257.60
736.17	257.29
736.50	256.88
736.83	256.64
737.16	256.33
737.49	256.02
737.82	255.66
738.15	255.31
738.48	254.99
738.81	254.70
739.14	254.37
739.47	254.06
739.80	253.72
740.13	253.39
740.46	253.10
740.79	252.78
741.12	252.42
741.45	252.13
741.78	251.77
742.11	251.49
742.44	251.18
742.77	250.96
743.10	250.65
743.43	250.36
743.75	249.98
744.08	249.82
744.41	249.51
744.74	249.25
745.07	248.93
745.40	248.69
745.73	248.43
746.06	248.20
746.39	247.93
746.71	247.65
747.04	247.43
747.37	247.16
747.70	246.90
748.03	246.66
748.36	246.47
748.68	246.22
749.01	245.97
749.34	245.78
749.67	245.53
750.00	245.32
750.33	245.15
750.65	244.91
750.98	244.60
751.31	244.39
751.64	244.19
751.97	244.07
752.29	243.86
752.62	243.63
752.95	243.40
753.28	243.18
753.60	242.98
753.93	242.80
754.26	242.62
754.59	242.41
754.91	242.19
755.24	241.96
755.57	241.78
755.90	241.60
756.22	241.39
756.55	241.18
756.88	241.01
757.20	240.80
757.53	240.65
757.86	240.45
758.19	240.30
758.51	240.13
758.84	239.93
759.17	239.75
759.49	239.58
759.82	239.42
760.15	239.26
760.47	239.15
760.80	238.98
761.13	238.88
761.45	238.71
761.78	238.58
762.11	238.42
762.43	238.26
762.76	238.13
763.08	238.04
763.41	237.93
763.74	237.79
764.06	237.71
764.39	237.59
764.71	237.47
765.04	237.35
765.37	237.24
765.69	237.10
766.02	236.98
766.34	236.84
766.67	236.71
767.00	236.61
767.32	236.54
767.65	236.46
767.97	236.30
768.30	236.20
768.62	236.12
768.95	236.02
769.27	235.91
769.60	235.79
769.92	235.62
770.25	235.49
770.57	235.32
770.90	235.13
771.22	235.01
771.55	234.90
771.87	234.80
772.20	234.68
772.52	234.65
772.85	234.65
773.17	234.58
773.50	234.46
773.82	234.36
774.15	234.22
774.47	234.08
774.80	234.00
775.12	233.91
775.45	233.81
775.77	233.72
776.09	233.65
776.42	233.58
776.74	233.55
777.07	233.46
777.39	233.45
777.72	233.37
778.04	233.30
778.36	233.23
778.69	233.16
779.01	233.09
779.33	232.97
779.66	232.82
779.98	232.71
780.31	232.67
780.63	232.63
780.95	232.55
781.28	232.50
781.60	232.46
781.92	232.40
782.25	232.36
782.57	232.28
782.89	232.22
783.22	232.15
783.54	232.09
783.86	232.06
784.19	231.98
784.51	231.99
784.83	231.90
785.16	231.88
785.48	231.83
785.80	231.79
786.12	231.74
786.45	231.72
786.77	231.70
787.09	231.64
787.42	231.59
787.74	231.57
788.06	231.51
788.38	231.42
788.71	231.34
789.03	231.33
789.35	231.31
789.67	231.25
789.99	231.22
790.32	231.14
790.64	231.13
790.96	231.16
791.28	231.06
791.61	231.04
791.93	230.99
792.25	230.96
792.57	230.99
792.89	230.96
793.21	230.90
793.54	230.87
793.86	230.83
794.18	230.79
794.50	230.73
794.82	230.72
795.14	230.73
795.47	230.75
795.79	230.66
796.11	230.61
796.43	230.56
796.75	230.52
797.07	230.51
797.39	230.46
797.71	230.38
798.04	230.38
798.36	230.36
798.68	230.35
799.00	230.30
799.32	230.22
799.64	230.18
799.96	230.14
800.28	230.11
800.60	230.09
800.92	230.05
801.24	230.04
801.56	230.04
801.89	229.96
802.21	229.91
802.53	229.88
802.85	229.88
803.17	229.93
803.49	229.90
803.81	229.86
804.13	229.81
804.45	229.76
804.77	229.73
805.09	229.70
805.41	229.62
805.73	229.62
806.05	229.53
806.37	229.52
806.69	229.48
807.01	229.47
807.33	229.43
807.65	229.40
807.97	229.40
808.28	229.32
808.60	229.31
808.92	229.27
809.24	229.30
809.56	229.24
809.88	229.14
810.20	229.10
810.52	229.06
810.84	229.00
811.16	228.96
811.48	228.93
811.80	228.94
812.12	228.92
812.43	228.91
812.75	228.91
813.07	228.89
813.39	228.89
813.71	228.82
814.03	228.79
814.35	228.72
814.67	228.66
814.98	228.65
815.30	228.61
815.62	228.56
815.94	228.50
816.26	228.53
816.58	228.50
816.89	228.50
817.21	228.48
817.53	228.49
817.85	228.46
818.17	228.42
818.48	228.32
818.80	228.32
819.12	228.29
819.44	228.23
819.76	228.17
820.07	228.15
820.39	228.13
820.71	228.11
821.03	228.10
821.34	228.08
821.66	228.09
821.98	228.08
822.30	228.07
822.61	228.08
822.93	228.02
823.25	228.02
823.57	227.98
823.88	228.00
824.20	227.95
824.52	227.97
824.83	227.92
825.15	227.91
825.47	227.88
825.79	227.84
826.10	227.86
826.42	227.84
826.74	227.82
827.05	227.84
827.37	227.83
827.69	227.81
828.00	227.80
828.32	227.80
828.64	227.77
828.95	227.82
829.27	227.83
829.58	227.83
829.90	227.86
830.22	227.88
830.53	227.84
830.85	227.85
831.17	227.80
831.48	227.81
831.80	227.81
832.11	227.81
832.43	227.79
832.75	227.81
833.06	227.87
833.38	227.86
833.69	227.80
834.01	227.81
834.32	227.84
834.64	227.84
834.96	227.81
835.27	227.82
835.59	227.79
835.90	227.77
836.22	227.76
836.53	227.74
836.85	227.72
837.16	227.80
837.48	227.79
837.79	227.85
838.11	227.87
838.42	227.92
838.74	227.94
839.05	227.95
839.37	227.91
839.68	227.87
840.00	227.87
840.31	227.91
840.63	227.92
840.94	227.92
841.26	227.89
841.57	227.88
841.88	227.89
842.20	227.89
842.51	227.83
842.83	227.83
843.14	227.90
843.46	227.91
843.77	227.87
844.08	227.86
844.40	227.79
844.71	227.79
845.03	227.74
845.34	227.71
845.65	227.68
845.97	227.69
846.28	227.66
846.60	227.67
846.91	227.64
847.22	227.64
847.54	227.63
847.85	227.64
848.16	227.63
848.48	227.61
848.79	227.61
849.10	227.62
849.42	227.61
849.73	227.50
850.04	227.48
850.36	227.43
850.67	227.46
850.98	227.46
851.30	227.46
851.61	227.44
851.92	227.46
852.23	227.48
852.55	227.48
852.86	227.48
853.17	227.48
853.49	227.47
853.80	227.46
854.11	227.48
854.42	227.47
854.74	227.48
855.05	227.48
855.36	227.44
855.67	227.44
855.99	227.45
856.30	227.57
856.61	227.59
856.92	227.59
857.23	227.57
857.55	227.55
857.86	227.53
858.17	227.55
858.48	227.50
858.79	227.47
859.11	227.47
859.42	227.45
859.73	227.44
860.04	227.45
860.35	227.40
860.66	227.32
860.98	227.34
861.29	227.32
861.60	227.30
861.91	227.32
862.22	227.29
862.53	227.25
862.84	227.13
863.16	227.08
863.47	227.07
863.78	227.05
864.09	227.05
864.40	227.06
864.71	227.05
865.02	227.06
865.33	227.02
865.64	227.00
865.95	226.98
866.27	227.03
866.58	226.99
866.89	227.02
867.20	227.03
867.51	226.98
867.82	226.98
868.13	226.98
868.44	226.96
868.75	226.97
869.06	226.98
869.37	226.96
869.68	226.98
869.99	226.99
870.30	226.98
870.61	227.00
870.92	226.96
871.23	226.92
871.54	226.95
871.85	227.00
872.16	227.01
872.47	227.01
872.78	226.92
873.09	226.96
873.40	226.94
873.71	226.96
874.02	227.00
874.33	226.99
874.64	226.99
874.95	227.00
875.26	226.97
875.56	227.00
875.87	227.02
876.18	227.01
876.49	227.12
876.80	227.15
877.11	227.12
877.42	227.15
877.73	227.16
878.04	227.16
878.35	227.13
878.66	227.13
878.96	227.14
879.27	227.16
879.58	227.12
879.89	227.11
880.20	227.12
880.51	227.10
880.82	227.11
881.12	227.10
881.43	227.06
881.74	227.06
882.05	227.03
882.36	227.03
882.67	227.04
882.97	226.91
883.28	226.87
883.59	226.87
883.90	226.86
884.21	226.87
884.51	226.82
884.82	226.82
885.13	226.83
885.44	226.82
885.74	226.80
886.05	226.78
886.36	226.79
886.67	226.75
886.98	226.80
887.28	226.81
887.59	226.80
887.90	226.81
888.20	226.80
888.51	226.78
888.82	226.75
889.13	226.74
889.43	226.81
889.74	226.78
890.05	226.79
890.35	226.77
890.66	226.77
890.97	226.76
891.28	226.74
891.58	226.73
891.89	226.71
892.20	226.70
892.50	226.70
892.81	226.71
893.12	226.70
893.42	226.63
893.73	226.61
894.04	226.61
894.34	226.64
894.65	226.66
894.95	226.66
895.26	226.66
895.57	226.70
895.87	226.60
896.18	226.63
896.48	226.61
896.79	226.62
897.10	226.61
897.40	226.66
897.71	226.67
898.01	226.68
898.32	226.71
898.63	226.72
898.93	226.75
899.24	226.75
899.54	226.76
899.85	226.78
900.15	226.79
900.46	226.81
900.76	226.82
901.07	226.79
901.38	226.83
901.68	226.84
901.99	226.81
902.29	226.85
902.60	226.85
902.90	226.87
903.21	226.89
903.51	226.92
903.82	226.89
904.12	226.94
904.43	226.93
904.73	226.96
905.03	227.00
905.34	227.06
905.64	227.05
905.95	227.07
906.25	227.09
906.56	227.09
906.86	227.06
907.17	227.03
907.47	227.03
907.77	227.03
908.08	227.02
908.38	227.02
908.69	227.03
908.99	227.05
909.30	227.05
909.60	227.00
909.90	226.98
910.21	226.97
910.51	226.91
910.81	226.92
911.12	226.91
911.42	226.87
911.73	226.77
912.03	226.78
912.33	226.79
912.64	226.78
912.94	226.76
913.24	226.77
913.55	226.77
913.85	226.78
914.15	226.80
914.46	226.83
914.76	226.84
915.06	226.84
915.37	226.83
915.67	226.84
915.97	226.86
916.27	226.85
916.58	226.85
916.88	226.89
917.18	226.88
917.49	226.92
917.79	226.96
918.09	227.02
918.39	227.05
918.70	227.05
919.00	227.05
919.30	227.10
919.60	227.10
919.91	227.10
920.21	227.13
920.51	227.10
920.81	227.05
921.12	227.07
921.42	227.02
921.72	227.01
922.02	227.00
922.32	227.02
922.63	227.01
922.93	227.07
923.23	227.06
923.53	227.04
923.83	226.97
924.13	226.96
924.44	226.95
924.74	226.94
925.04	226.97
925.34	226.94
925.64	226.90
925.94	226.87
926.24	226.94
926.55	226.89
926.85	226.91
927.15	226.93
927.45	226.92
927.75	226.93
928.05	226.94
928.35	226.90
928.65	226.91
928.95	226.90
929.26	226.88
929.56	226.94
929.86	226.91
930.16	226.92
930.46	226.91
930.76	226.92
931.06	226.86
931.36	226.82
931.66	226.85
931.96	226.82
932.26	226.88
932.56	226.81
932.86	226.83
933.16	226.77
933.46	226.75
933.76	226.72
934.06	226.77
934.36	226.83
934.66	226.86
934.96	226.88
935.26	226.89
935.56	226.87
935.86	226.82
936.16	226.84
936.46	226.81
936.76	226.81
937.06	226.78
937.36	226.79
937.66	226.78
937.96	226.76
938.26	226.77
938.56	226.74
938.86	226.76
939.16	226.78
939.46	226.82
939.76	226.85
940.06	226.87
940.35	226.82
940.65	226.76
940.95	226.77
941.25	226.73
941.55	226.74
941.85	226.76
942.15	226.80
942.45	226.81
942.75	226.84
943.04	226.85
943.34	226.85
943.64	226.82
943.94	226.80
944.24	226.83
944.54	226.82
944.84	226.82
945.13	226.79
945.43	226.78
945.73	226.81
946.03	226.77
946.33	226.75
946.62	226.77
946.92	226.75
947.22	226.75
947.52	226.77
947.82	226.75
948.11	226.74
948.41	226.70
948.71	226.71
949.01	226.70
949.31	226.68
949.60	226.72
949.90	226.75
950.20	226.75
950.50	226.75
950.79	226.76
951.09	226.78
951.39	226.80
951.69	226.79
951.98	226.77
952.28	226.79
952.58	226.81
952.87	226.80
953.17	226.80
953.47	226.77
953.76	226.77
954.06	226.74
954.36	226.73
954.66	226.75
954.95	226.77
955.25	226.78
955.55	226.79
955.84	226.77
956.14	226.79
956.44	226.84
956.73	226.83
957.03	226.83
957.32	226.83
957.62	226.80
957.92	226.82
958.21	226.81
958.51	226.89
958.81	226.90
959.10	226.93
959.40	226.97
959.69	227.00
959.99	226.99
960.29	227.02
960.58	227.00
960.88	227.04
961.17	227.02
961.47	227.03
961.76	227.05
962.06	227.05
962.36	227.01
962.65	226.97
962.95	226.95
963.24	226.95
963.54	226.96
963.83	227.01
964.13	226.98
964.42	226.91
964.72	226.88
965.01	226.88
965.31	226.86
965.60	226.84
965.90	226.88
966.19	226.85
966.49	226.83
966.78	226.82
967.08	226.80
967.37	226.79
967.67	226.76
967.96	226.72
968.26	226.69
968.55	226.72
968.85	226.73
969.14	226.73
969.43	226.73
969.73	226.72
970.02	226.74
970.32	226.76
970.61	226.79
970.91	226.75
971.20	226.74
971.49	226.74
971.79	226.76
972.08	226.69
972.38	226.72
972.67	226.72
972.96	226.76
973.26	226.73
973.55	226.73
973.85	226.72
974.14	226.74
974.43	226.75
974.73	226.74
975.02	226.71
975.31	226.72
975.61	226.70
975.90	226.68
976.19	226.64
976.49	226.63
976.78	226.66
977.07	226.67
977.37	226.66
977.66	226.66
977.95	226.65
978.24	226.68
978.54	226.68
978.83	226.70
979.12	226.66
979.42	226.68
979.71	226.70
980.00	226.72
980.29	226.74
980.59	226.76
980.88	226.80
981.17	226.79
981.46	226.79
981.76	226.80
982.05	226.82
982.34	226.81
982.63	226.82
982.93	226.80
983.22	226.81
983.51	226.81
983.80	226.84
984.09	226.82
984.39	226.80
984.68	226.82
984.97	226.79
985.26	226.83
985.55	226.86
985.85	226.82
986.14	226.84
986.43	226.83
986.72	226.80
987.01	226.78
987.30	226.80
987.59	226.78
987.89	226.79
988.18	226.78
988.47	226.79
988.76	226.79
989.05	226.77
989.34	226.78
989.63	226.80
989.92	226.78
990.22	226.77
990.51	226.78
990.80	226.76
991.09	226.79
991.38	226.79
991.67	226.75
991.96	226.71
992.25	226.70
992.54	226.67
992.83	226.69
993.12	226.67
993.41	226.68
993.70	226.76
993.99	226.78
994.28	226.77
994.58	226.81
994.87	226.77
995.16	226.77
995.45	226.75
995.74	226.72
996.03	226.72
996.32	226.71
996.61	226.69
996.90	226.69
997.19	226.68
997.48	226.66
997.77	226.64
998.06	226.67
998.34	226.66
998.63	226.68
998.92	226.66
999.21	226.65
999.50	226.64
999.79	226.61
1000.08	226.59
1000.37	226.58
1000.66	226.55
1000.95	226.58
1001.24	226.63
1001.53	226.64
1001.82	226.59
1002.11	226.57
1002.40	226.61
1002.68	226.66
1002.97	226.72
1003.26	226.70
1003.55	226.69
1003.84	226.70
1004.13	226.75
1004.42	226.74
1004.71	226.72
1004.99	226.72
1005.28	226.78
1005.57	226.77
1005.86	226.74
1006.15	226.73
1006.44	226.73
1006.72	226.72
1007.01	226.72
1007.30	226.70
1007.59	226.70
1007.88	226.70
1008.17	226.73
1008.45	226.72
1008.74	226.64
1009.03	226.60
1009.32	226.61
1009.60	226.64
1009.89	226.64
1010.18	226.55
1010.47	226.55
1010.76	226.56
1011.04	226.55
1011.33	226.54
1011.62	226.54
1011.91	226.56
1012.19	226.55
1012.48	226.57
1012.77	226.60
1013.05	226.60
1013.34	226.60
1013.63	226.58
1013.92	226.62
1014.20	226.63
1014.49	226.63
1014.78	226.71
1015.06	226.66
1015.35	226.66
1015.64	226.64
1015.92	226.67
1016.21	226.71
1016.50	226.75
1016.78	226.76
1017.07	226.74
1017.36	226.73
1017.64	226.72
1017.93	226.70
1018.22	226.68
1018.50	226.65
1018.79	226.62
1019.08	226.61
1019.36	226.62
1019.65	226.64
1019.93	226.63
1020.22	226.62
1020.51	226.65
1020.79	226.60
1021.08	225.94
1021.36	226.22
1021.65	226.44
1021.94	226.89
1022.22	226.60
1022.51	226.95
1022.79	226.50
1023.08	226.53
1023.36	227.60
1023.65	226.46
>>>>>End Processed Spectral Data<<<<<
