SpectraSuite Data File
++++++++++++++++++++++++++++++++++++
Date: Fri Feb 01 17:12:07 EST 2013
User: group
Dark Spectrum Present: No
Reference Spectrum Present: No
Number of Sampled Component Spectra: 1
Spectrometers: USB2E7196
Integration Time (usec): 35000 (USB2E7196)
Spectra Averaged: 100 (USB2E7196)
Boxcar Smoothing: 10 (USB2E7196)
Correct for Electrical Dark: No (USB2E7196)
Strobe/Lamp Enabled: No (USB2E7196)
Correct for Detector Non-linearity: No (USB2E7196)
Correct for Stray Light: No (USB2E7196)
Number of Pixels in Processed Spectrum: 2048
>>>>>Begin Processed Spectral Data<<<<<
339.09	0.00
339.48	213.01
339.86	214.71
340.24	216.41
340.63	217.37
341.01	220.29
341.39	220.13
341.78	221.95
342.16	222.86
342.54	223.45
342.93	211.72
343.31	222.43
343.69	223.00
344.07	223.48
344.46	223.89
344.84	224.26
345.22	224.49
345.60	224.77
345.99	224.93
346.37	225.03
346.75	225.12
347.13	225.14
347.52	225.18
347.90	225.23
348.28	225.27
348.66	225.29
349.05	225.24
349.43	225.31
349.81	225.38
350.19	225.41
350.57	225.47
350.96	225.54
351.34	225.60
351.72	225.65
352.10	225.73
352.48	225.78
352.87	225.82
353.25	225.88
353.63	225.90
354.01	225.96
354.39	226.03
354.77	226.10
355.15	226.21
355.54	226.25
355.92	226.25
356.30	226.29
356.68	226.43
357.06	226.51
357.44	226.57
357.82	226.60
358.20	226.69
358.58	226.72
358.97	226.76
359.35	226.85
359.73	226.95
360.11	226.99
360.49	227.05
360.87	227.11
361.25	227.17
361.63	227.27
362.01	227.31
362.39	227.37
362.77	227.42
363.15	227.43
363.53	227.49
363.91	227.56
364.29	227.57
364.67	227.49
365.05	227.51
365.43	227.53
365.81	227.56
366.19	227.64
366.57	227.70
366.95	227.73
367.33	227.71
367.71	227.70
368.09	227.72
368.47	227.72
368.85	227.72
369.23	227.71
369.61	227.66
369.99	227.67
370.37	227.64
370.75	227.66
371.13	227.64
371.51	227.62
371.89	227.63
372.27	227.61
372.65	227.58
373.03	227.54
373.41	227.51
373.78	227.47
374.16	227.34
374.54	227.25
374.92	227.19
375.30	227.14
375.68	227.06
376.06	227.02
376.44	226.95
376.82	226.90
377.19	226.84
377.57	226.77
377.95	226.71
378.33	226.66
378.71	226.53
379.09	226.46
379.47	226.40
379.84	226.31
380.22	226.24
380.60	226.19
380.98	226.14
381.36	226.06
381.73	225.97
382.11	225.91
382.49	225.86
382.87	225.77
383.25	225.70
383.62	225.78
384.00	225.70
384.38	225.69
384.76	225.63
385.13	225.64
385.51	225.59
385.89	225.51
386.27	225.46
386.64	225.44
387.02	225.40
387.40	225.34
387.78	225.34
388.15	225.31
388.53	225.25
388.91	225.22
389.29	225.18
389.66	225.18
390.04	225.16
390.42	225.15
390.79	225.16
391.17	225.14
391.55	224.98
391.92	224.94
392.30	224.91
392.68	224.88
393.05	224.84
393.43	224.85
393.81	224.85
394.18	224.81
394.56	224.83
394.94	224.82
395.31	224.82
395.69	224.82
396.06	224.84
396.44	224.89
396.82	224.87
397.19	224.99
397.57	224.99
397.95	225.04
398.32	225.04
398.70	225.08
399.07	225.15
399.45	225.21
399.82	225.27
400.20	225.32
400.58	225.39
400.95	225.42
401.33	225.49
401.70	225.62
402.08	225.69
402.45	225.74
402.83	225.86
403.20	225.94
403.58	226.02
403.95	226.14
404.33	226.26
404.71	226.38
405.08	226.51
405.46	226.64
405.83	226.80
406.21	226.93
406.58	227.10
406.96	227.24
407.33	227.41
407.70	227.60
408.08	227.87
408.45	228.05
408.83	228.28
409.20	228.49
409.58	228.69
409.95	228.98
410.33	229.29
410.70	229.58
411.08	229.90
411.45	230.19
411.82	230.51
412.20	230.88
412.57	231.34
412.95	231.65
413.32	232.04
413.69	232.44
414.07	232.90
414.44	233.38
414.82	233.84
415.19	234.39
415.56	234.94
415.94	235.50
416.31	236.18
416.68	236.85
417.06	237.58
417.43	238.29
417.81	239.07
418.18	239.84
418.55	240.66
418.93	241.55
419.30	242.45
419.67	243.40
420.04	244.38
420.42	245.34
420.79	246.54
421.16	247.73
421.54	248.93
421.91	250.18
422.28	251.45
422.66	252.86
423.03	254.19
423.40	255.53
423.77	256.95
424.15	258.36
424.52	259.85
424.89	261.50
425.26	263.01
425.64	264.45
426.01	266.06
426.38	267.74
426.75	269.45
427.13	271.26
427.50	273.08
427.87	274.97
428.24	276.88
428.61	278.66
428.99	280.67
429.36	282.81
429.73	284.88
430.10	286.91
430.47	288.99
430.85	291.14
431.22	293.41
431.59	295.85
431.96	298.14
432.33	300.64
432.70	303.04
433.08	305.92
433.45	308.57
433.82	311.17
434.19	314.11
434.56	316.91
434.93	319.58
435.30	322.22
435.68	325.14
436.05	327.96
436.42	330.80
436.79	333.31
437.16	336.01
437.53	338.84
437.90	341.73
438.27	344.48
438.64	347.34
439.01	349.96
439.38	352.20
439.75	354.41
440.13	356.97
440.50	359.28
440.87	361.22
441.24	363.28
441.61	365.51
441.98	367.01
442.35	368.84
442.72	370.72
443.09	372.56
443.46	373.58
443.83	374.23
444.20	374.68
444.57	375.51
444.94	375.79
445.31	376.12
445.68	376.45
446.05	376.57
446.42	376.14
446.79	375.77
447.16	375.32
447.53	374.97
447.90	373.77
448.27	372.61
448.64	370.95
449.01	369.76
449.37	367.77
449.74	365.87
450.11	363.62
450.48	361.13
450.85	358.56
451.22	356.38
451.59	354.32
451.96	352.40
452.33	349.80
452.70	347.45
453.07	344.65
453.43	341.74
453.80	338.97
454.17	336.26
454.54	333.64
454.91	330.91
455.28	328.22
455.65	325.72
456.02	323.26
456.38	321.10
456.75	318.37
457.12	316.10
457.49	313.82
457.86	311.63
458.23	309.74
458.59	307.69
458.96	305.56
459.33	303.66
459.70	301.77
460.07	300.21
460.43	298.44
460.80	296.80
461.17	295.35
461.54	293.80
461.91	292.37
462.27	290.95
462.64	289.69
463.01	288.35
463.38	287.05
463.74	285.65
464.11	284.51
464.48	283.50
464.85	282.38
465.21	281.51
465.58	280.56
465.95	279.46
466.32	278.55
466.68	277.64
467.05	276.75
467.42	275.88
467.78	274.96
468.15	274.08
468.52	273.39
468.88	272.52
469.25	271.74
469.62	271.12
469.98	270.40
470.35	269.77
470.72	269.16
471.08	268.48
471.45	267.97
471.82	267.40
472.18	266.83
472.55	266.41
472.92	265.91
473.28	265.48
473.65	265.05
474.02	264.62
474.38	264.28
474.75	263.96
475.11	263.64
475.48	263.41
475.85	263.21
476.21	262.99
476.58	262.81
476.94	262.67
477.31	262.52
477.67	262.37
478.04	262.23
478.41	262.16
478.77	262.23
479.14	262.17
479.50	262.15
479.87	262.20
480.23	262.29
480.60	262.35
480.96	262.43
481.33	262.63
481.69	262.86
482.06	263.06
482.42	263.28
482.79	263.48
483.15	263.77
483.52	264.14
483.88	264.49
484.25	264.87
484.61	265.29
484.98	265.75
485.34	266.35
485.71	266.96
486.07	267.53
486.44	268.08
486.80	268.80
487.17	269.53
487.53	270.38
487.90	271.21
488.26	272.18
488.62	273.16
488.99	274.13
489.35	275.15
489.72	276.27
490.08	277.48
490.44	278.76
490.81	280.09
491.17	281.49
491.54	282.98
491.90	284.54
492.26	286.19
492.63	287.91
492.99	289.64
493.36	291.50
493.72	293.58
494.08	295.70
494.45	297.92
494.81	300.32
495.17	302.67
495.54	305.26
495.90	307.88
496.26	310.68
496.63	313.62
496.99	316.70
497.35	319.96
497.72	323.34
498.08	326.85
498.44	330.55
498.80	334.42
499.17	338.47
499.53	342.67
499.89	347.03
500.26	351.53
500.62	356.21
500.98	361.18
501.34	366.20
501.71	371.53
502.07	376.98
502.43	382.56
502.79	388.41
503.16	394.41
503.52	400.59
503.88	407.01
504.24	413.57
504.60	420.46
504.97	427.57
505.33	434.84
505.69	442.48
506.05	450.14
506.41	457.96
506.78	466.00
507.14	474.33
507.50	482.95
507.86	491.89
508.22	501.04
508.59	510.24
508.95	519.71
509.31	529.33
509.67	539.32
510.03	549.42
510.39	559.77
510.75	570.44
511.12	581.28
511.48	592.37
511.84	603.79
512.20	615.12
512.56	626.86
512.92	638.84
513.28	650.98
513.64	663.29
514.00	675.79
514.37	688.53
514.73	701.35
515.09	714.13
515.45	727.12
515.81	740.44
516.17	754.16
516.53	768.10
516.89	782.13
517.25	796.08
517.61	810.38
517.97	824.69
518.33	838.86
518.69	853.50
519.05	868.22
519.41	883.04
519.77	898.20
520.13	913.36
520.49	928.55
520.85	943.64
521.21	959.02
521.57	974.95
521.93	990.42
522.29	1006.49
522.65	1022.57
523.01	1038.53
523.37	1054.36
523.73	1070.16
524.09	1085.92
524.45	1101.83
524.81	1118.11
525.17	1134.47
525.53	1150.92
525.89	1167.40
526.25	1183.89
526.61	1199.96
526.97	1216.34
527.33	1232.59
527.68	1248.86
528.04	1265.04
528.40	1281.27
528.76	1298.05
529.12	1314.35
529.48	1330.94
529.84	1346.67
530.20	1362.83
530.56	1379.41
530.91	1396.46
531.27	1413.02
531.63	1429.20
531.99	1445.49
532.35	1461.18
532.71	1476.86
533.07	1492.87
533.42	1508.58
533.78	1524.29
534.14	1540.26
534.50	1555.33
534.86	1570.98
535.21	1586.02
535.57	1601.58
535.93	1616.80
536.29	1631.32
536.65	1646.00
537.00	1660.40
537.36	1675.48
537.72	1689.67
538.08	1703.99
538.44	1717.51
538.79	1731.13
539.15	1744.44
539.51	1757.90
539.87	1772.02
540.22	1785.42
540.58	1798.80
540.94	1811.71
541.29	1824.13
541.65	1836.57
542.01	1849.52
542.37	1861.61
542.72	1873.77
543.08	1885.40
543.44	1897.70
543.79	1908.76
544.15	1919.66
544.51	1931.17
544.87	1941.89
545.22	1952.93
545.58	1963.11
545.94	1972.84
546.29	1982.64
546.65	1992.58
547.01	2001.93
547.36	2010.66
547.72	2019.17
548.07	2027.36
548.43	2035.70
548.79	2043.71
549.14	2051.53
549.50	2058.93
549.86	2066.57
550.21	2073.82
550.57	2081.12
550.92	2087.80
551.28	2095.01
551.64	2102.20
551.99	2108.75
552.35	2115.19
552.70	2121.24
553.06	2127.35
553.41	2133.83
553.77	2139.84
554.13	2145.89
554.48	2152.04
554.84	2157.83
555.19	2163.26
555.55	2168.51
555.90	2173.24
556.26	2178.64
556.61	2183.20
556.97	2187.79
557.32	2192.13
557.68	2196.38
558.03	2200.66
558.39	2204.43
558.74	2209.03
559.10	2213.00
559.45	2216.89
559.81	2221.20
560.16	2225.31
560.52	2228.69
560.87	2232.06
561.23	2234.95
561.58	2237.99
561.94	2240.73
562.29	2242.97
562.64	2246.01
563.00	2248.58
563.35	2252.09
563.71	2255.40
564.06	2258.72
564.42	2261.65
564.77	2264.49
565.12	2267.26
565.48	2269.47
565.83	2271.69
566.19	2273.53
566.54	2274.60
566.89	2276.07
567.25	2276.99
567.60	2278.42
567.96	2280.37
568.31	2281.64
568.66	2283.02
569.02	2283.97
569.37	2284.61
569.72	2285.76
570.08	2286.17
570.43	2286.53
570.78	2286.41
571.14	2285.13
571.49	2284.12
571.84	2284.14
572.20	2283.20
572.55	2282.15
572.90	2280.67
573.26	2279.62
573.61	2277.87
573.96	2276.56
574.31	2273.86
574.67	2271.22
575.02	2267.88
575.37	2264.54
575.72	2260.94
576.08	2257.68
576.43	2254.50
576.78	2251.08
577.13	2248.08
577.49	2244.77
577.84	2241.58
578.19	2237.86
578.54	2234.49
578.90	2230.74
579.25	2225.37
579.60	2220.71
579.95	2216.17
580.30	2211.51
580.66	2206.50
581.01	2201.84
581.36	2196.99
581.71	2192.99
582.06	2188.81
582.42	2184.64
582.77	2179.73
583.12	2175.42
583.47	2171.17
583.82	2166.63
584.17	2161.57
584.53	2156.40
584.88	2151.24
585.23	2145.87
585.58	2140.65
585.93	2135.28
586.28	2130.54
586.63	2125.84
586.98	2120.83
587.34	2116.27
587.69	2111.46
588.04	2106.55
588.39	2101.26
588.74	2095.10
589.09	2089.20
589.44	2082.62
589.79	2076.46
590.14	2070.99
590.49	2064.62
590.84	2058.26
591.19	2052.23
591.54	2045.96
591.89	2038.95
592.25	2032.57
592.60	2025.47
592.95	2018.32
593.30	2011.14
593.65	2003.63
594.00	1996.62
594.35	1989.59
594.70	1981.51
595.05	1974.70
595.40	1967.48
595.75	1960.05
596.10	1954.14
596.45	1947.65
596.80	1941.61
597.15	1935.37
597.50	1928.72
597.85	1922.35
598.19	1915.83
598.54	1909.19
598.89	1902.78
599.24	1896.90
599.59	1890.42
599.94	1884.20
600.29	1877.88
600.64	1871.41
600.99	1864.21
601.34	1857.59
601.69	1850.74
602.04	1844.23
602.39	1836.99
602.74	1830.26
603.08	1823.64
603.43	1816.81
603.78	1809.53
604.13	1802.30
604.48	1795.25
604.83	1788.37
605.18	1781.63
605.53	1773.88
605.87	1765.79
606.22	1758.49
606.57	1750.43
606.92	1742.80
607.27	1735.67
607.62	1728.76
607.96	1721.56
608.31	1715.12
608.66	1707.52
609.01	1700.06
609.36	1692.46
609.70	1684.38
610.05	1676.35
610.40	1668.64
610.75	1660.37
611.10	1652.73
611.44	1644.21
611.79	1636.08
612.14	1627.22
612.49	1618.02
612.83	1609.44
613.18	1601.12
613.53	1593.01
613.88	1584.56
614.22	1576.36
614.57	1567.74
614.92	1559.74
615.27	1552.35
615.61	1544.01
615.96	1535.90
616.31	1528.22
616.65	1520.76
617.00	1513.21
617.35	1505.48
617.70	1497.23
618.04	1488.77
618.39	1480.37
618.74	1472.87
619.08	1464.58
619.43	1457.09
619.78	1450.07
620.12	1442.98
620.47	1435.53
620.82	1427.33
621.16	1419.81
621.51	1412.16
621.85	1404.40
622.20	1395.85
622.55	1387.31
622.89	1379.33
623.24	1371.62
623.59	1364.03
623.93	1356.52
624.28	1349.14
624.62	1341.48
624.97	1334.28
625.32	1327.41
625.66	1320.39
626.01	1313.24
626.35	1305.81
626.70	1298.01
627.04	1290.29
627.39	1282.49
627.73	1275.08
628.08	1268.09
628.43	1260.85
628.77	1253.52
629.12	1246.15
629.46	1238.92
629.81	1231.50
630.15	1224.24
630.50	1216.96
630.84	1208.86
631.19	1200.87
631.53	1193.28
631.88	1185.79
632.22	1178.05
632.57	1170.79
632.91	1163.23
633.26	1155.77
633.60	1148.25
633.95	1141.00
634.29	1133.90
634.64	1127.14
634.98	1119.84
635.32	1112.69
635.67	1105.99
636.01	1099.31
636.36	1092.41
636.70	1085.75
637.05	1079.11
637.39	1072.60
637.73	1065.99
638.08	1060.02
638.42	1053.95
638.77	1047.64
639.11	1041.12
639.45	1034.72
639.80	1027.99
640.14	1021.60
640.49	1015.08
640.83	1008.75
641.17	1002.58
641.52	996.26
641.86	989.80
642.20	983.91
642.55	977.50
642.89	971.10
643.23	964.48
643.58	958.62
643.92	952.58
644.26	946.47
644.61	940.34
644.95	934.35
645.29	927.82
645.64	921.15
645.98	914.79
646.32	908.76
646.66	902.76
647.01	896.93
647.35	891.14
647.69	885.20
648.04	879.63
648.38	873.86
648.72	867.89
649.06	861.84
649.41	855.83
649.75	849.98
650.09	843.98
650.43	838.14
650.78	832.08
651.12	826.06
651.46	820.34
651.80	814.82
652.14	809.39
652.49	803.97
652.83	798.76
653.17	793.17
653.51	787.57
653.85	782.09
654.20	776.48
654.54	770.51
654.88	764.69
655.22	758.79
655.56	753.03
655.90	747.54
656.25	742.20
656.59	736.92
656.93	731.85
657.27	726.70
657.61	721.28
657.95	716.17
658.29	711.00
658.64	705.64
658.98	700.13
659.32	694.62
659.66	689.46
660.00	684.18
660.34	679.05
660.68	674.09
661.02	669.01
661.36	664.24
661.70	659.74
662.05	655.45
662.39	651.25
662.73	646.75
663.07	642.37
663.41	637.96
663.75	633.43
664.09	628.84
664.43	624.45
664.77	620.36
665.11	616.03
665.45	611.85
665.79	607.89
666.13	603.81
666.47	599.69
666.81	595.56
667.15	591.38
667.49	587.52
667.83	583.66
668.17	579.76
668.51	575.74
668.85	571.65
669.19	567.74
669.53	563.80
669.87	559.94
670.21	556.20
670.55	552.53
670.89	549.08
671.23	545.57
671.57	542.03
671.91	538.51
672.25	534.96
672.58	531.53
672.92	528.03
673.26	524.83
673.60	521.68
673.94	518.51
674.28	515.61
674.62	512.67
674.96	509.55
675.30	506.62
675.64	503.69
675.97	500.87
676.31	497.99
676.65	495.08
676.99	492.37
677.33	489.45
677.67	486.65
678.01	483.65
678.34	480.73
678.68	477.84
679.02	475.02
679.36	472.23
679.70	469.45
680.04	466.69
680.37	463.83
680.71	461.01
681.05	458.36
681.39	455.59
681.73	452.87
682.06	450.35
682.40	447.80
682.74	445.24
683.08	442.65
683.42	440.03
683.75	437.50
684.09	434.87
684.43	432.47
684.77	430.01
685.10	427.59
685.44	425.24
685.78	422.93
686.12	420.62
686.45	418.40
686.79	416.09
687.13	413.89
687.46	411.70
687.80	409.54
688.14	407.32
688.48	405.31
688.81	403.13
689.15	400.91
689.49	398.69
689.82	396.57
690.16	394.43
690.50	392.50
690.83	390.54
691.17	388.53
691.51	386.55
691.84	384.68
692.18	382.74
692.52	380.75
692.85	378.77
693.19	376.91
693.52	375.06
693.86	373.23
694.20	371.42
694.53	369.61
694.87	367.76
695.21	365.94
695.54	364.09
695.88	362.28
696.21	360.56
696.55	358.88
696.88	357.20
697.22	355.59
697.56	353.92
697.89	352.25
698.23	350.67
698.56	349.05
698.90	347.48
699.23	345.85
699.57	344.34
699.90	342.78
700.24	341.19
700.58	339.65
700.91	338.13
701.25	336.68
701.58	335.32
701.92	333.95
702.25	332.56
702.59	331.19
702.92	329.90
703.26	328.54
703.59	327.26
703.93	326.06
704.26	324.83
704.60	323.56
704.93	322.29
705.26	321.04
705.60	319.84
705.93	318.63
706.27	317.57
706.60	316.42
706.94	315.36
707.27	314.22
707.61	313.08
707.94	312.07
708.27	310.96
708.61	309.86
708.94	308.86
709.28	307.87
709.61	306.89
709.94	305.91
710.28	304.96
710.61	303.96
710.95	302.85
711.28	301.91
711.61	300.92
711.95	300.01
712.28	299.01
712.61	298.09
712.95	297.16
713.28	296.24
713.61	295.34
713.95	294.44
714.28	293.64
714.61	292.82
714.95	291.96
715.28	291.14
715.61	290.28
715.95	289.39
716.28	288.49
716.61	287.65
716.95	286.83
717.28	286.06
717.61	285.28
717.94	284.57
718.28	283.79
718.61	283.09
718.94	282.39
719.27	281.74
719.61	281.06
719.94	280.38
720.27	279.66
720.60	279.01
720.94	278.38
721.27	277.75
721.60	277.18
721.93	276.60
722.27	276.03
722.60	275.46
722.93	274.91
723.26	274.44
723.59	273.85
723.93	273.30
724.26	272.72
724.59	272.17
724.92	271.63
725.25	271.11
725.59	270.56
725.92	270.05
726.25	269.56
726.58	269.04
726.91	268.54
727.24	268.08
727.57	267.64
727.91	267.11
728.24	266.65
728.57	266.12
728.90	265.62
729.23	265.08
729.56	264.65
729.89	264.15
730.22	263.64
730.55	263.19
730.89	262.74
731.22	262.28
731.55	261.85
731.88	261.41
732.21	260.96
732.54	260.52
732.87	260.10
733.20	259.66
733.53	259.29
733.86	258.91
734.19	258.50
734.52	258.09
734.85	257.77
735.18	257.33
735.51	256.99
735.84	256.62
736.17	256.31
736.50	255.93
736.83	255.70
737.16	255.37
737.49	255.04
737.82	254.70
738.15	254.40
738.48	254.08
738.81	253.75
739.14	253.42
739.47	253.15
739.80	252.85
740.13	252.57
740.46	252.26
740.79	251.93
741.12	251.61
741.45	251.26
741.78	250.94
742.11	250.70
742.44	250.37
742.77	250.05
743.10	249.70
743.43	249.36
743.75	248.98
744.08	248.81
744.41	248.52
744.74	248.21
745.07	247.93
745.40	247.67
745.73	247.44
746.06	247.17
746.39	246.88
746.71	246.58
747.04	246.29
747.37	246.00
747.70	245.79
748.03	245.54
748.36	245.30
748.68	245.05
749.01	244.75
749.34	244.56
749.67	244.34
750.00	244.13
750.33	243.97
750.65	243.70
750.98	243.33
751.31	243.11
751.64	242.90
751.97	242.75
752.29	242.50
752.62	242.26
752.95	242.03
753.28	241.82
753.60	241.57
753.93	241.40
754.26	241.20
754.59	240.94
754.91	240.75
755.24	240.58
755.57	240.33
755.90	240.16
756.22	239.92
756.55	239.75
756.88	239.55
757.20	239.31
757.53	239.15
757.86	239.02
758.19	238.85
758.51	238.67
758.84	238.42
759.17	238.27
759.49	238.09
759.82	238.00
760.15	237.82
760.47	237.70
760.80	237.50
761.13	237.38
761.45	237.22
761.78	237.07
762.11	236.94
762.43	236.85
762.76	236.71
763.08	236.59
763.41	236.45
763.74	236.32
764.06	236.22
764.39	236.07
764.71	235.91
765.04	235.78
765.37	235.66
765.69	235.54
766.02	235.41
766.34	235.29
766.67	235.08
767.00	234.99
767.32	234.93
767.65	234.86
767.97	234.73
768.30	234.68
768.62	234.55
768.95	234.39
769.27	234.28
769.60	234.19
769.92	234.08
770.25	233.95
770.57	233.86
770.90	233.74
771.22	233.66
771.55	233.58
771.87	233.49
772.20	233.37
772.52	233.38
772.85	233.40
773.17	233.31
773.50	233.25
773.82	233.15
774.15	233.02
774.47	232.93
774.80	232.83
775.12	232.70
775.45	232.60
775.77	232.55
776.09	232.51
776.42	232.42
776.74	232.38
777.07	232.32
777.39	232.25
777.72	232.18
778.04	232.11
778.36	232.07
778.69	232.02
779.01	231.98
779.33	231.82
779.66	231.64
779.98	231.62
780.31	231.55
780.63	231.51
780.95	231.48
781.28	231.39
781.60	231.33
781.92	231.29
782.25	231.26
782.57	231.16
782.89	231.08
783.22	231.03
783.54	230.92
783.86	230.87
784.19	230.81
784.51	230.75
784.83	230.68
785.16	230.61
785.48	230.56
785.80	230.51
786.12	230.47
786.45	230.43
786.77	230.31
787.09	230.27
787.42	230.21
787.74	230.20
788.06	230.19
788.38	230.16
788.71	230.09
789.03	230.04
789.35	230.03
789.67	229.95
789.99	229.90
790.32	229.86
790.64	229.82
790.96	229.84
791.28	229.78
791.61	229.73
791.93	229.69
792.25	229.63
792.57	229.67
792.89	229.59
793.21	229.52
793.54	229.51
793.86	229.43
794.18	229.37
794.50	229.27
794.82	229.20
795.14	229.16
795.47	229.12
795.79	229.08
796.11	229.04
796.43	228.97
796.75	228.90
797.07	228.88
797.39	228.84
797.71	228.74
798.04	228.73
798.36	228.69
798.68	228.64
799.00	228.59
799.32	228.47
799.64	228.46
799.96	228.43
800.28	228.37
800.60	228.36
800.92	228.35
801.24	228.29
801.56	228.27
801.89	228.23
802.21	228.21
802.53	228.15
802.85	228.11
803.17	228.18
803.49	228.15
803.81	228.08
804.13	227.98
804.45	227.93
804.77	227.89
805.09	227.87
805.41	227.83
805.73	227.77
806.05	227.73
806.37	227.68
806.69	227.66
807.01	227.66
807.33	227.62
807.65	227.55
807.97	227.58
808.28	227.53
808.60	227.51
808.92	227.50
809.24	227.55
809.56	227.51
809.88	227.39
810.20	227.39
810.52	227.40
810.84	227.44
811.16	227.42
811.48	227.37
811.80	227.40
812.12	227.38
812.43	227.41
812.75	227.38
813.07	227.38
813.39	227.36
813.71	227.32
814.03	227.33
814.35	227.29
814.67	227.22
814.98	227.19
815.30	227.18
815.62	227.12
815.94	227.03
816.26	227.08
816.58	227.07
816.89	227.07
817.21	227.05
817.53	227.00
817.85	227.00
818.17	227.00
818.48	226.93
818.80	226.93
819.12	226.92
819.44	226.93
819.76	226.91
820.07	226.90
820.39	226.93
820.71	226.90
821.03	226.91
821.34	226.91
821.66	226.91
821.98	226.90
822.30	226.86
822.61	226.91
822.93	226.84
823.25	226.85
823.57	226.81
823.88	226.83
824.20	226.80
824.52	226.79
824.83	226.77
825.15	226.75
825.47	226.73
825.79	226.71
826.10	226.67
826.42	226.63
826.74	226.65
827.05	226.60
827.37	226.60
827.69	226.60
828.00	226.58
828.32	226.60
828.64	226.55
828.95	226.60
829.27	226.55
829.58	226.53
829.90	226.54
830.22	226.53
830.53	226.46
830.85	226.46
831.17	226.44
831.48	226.45
831.80	226.44
832.11	226.43
832.43	226.41
832.75	226.43
833.06	226.49
833.38	226.42
833.69	226.41
834.01	226.40
834.32	226.38
834.64	226.32
834.96	226.27
835.27	226.25
835.59	226.23
835.90	226.21
836.22	226.21
836.53	226.18
836.85	226.14
837.16	226.25
837.48	226.25
837.79	226.25
838.11	226.24
838.42	226.24
838.74	226.26
839.05	226.23
839.37	226.24
839.68	226.14
840.00	226.15
840.31	226.17
840.63	226.16
840.94	226.16
841.26	226.20
841.57	226.19
841.88	226.23
842.20	226.21
842.51	226.18
842.83	226.18
843.14	226.24
843.46	226.25
843.77	226.20
844.08	226.17
844.40	226.18
844.71	226.13
845.03	226.11
845.34	226.04
845.65	226.02
845.97	226.00
846.28	226.01
846.60	226.02
846.91	225.98
847.22	225.94
847.54	225.93
847.85	225.93
848.16	225.93
848.48	225.92
848.79	225.94
849.10	225.92
849.42	225.91
849.73	225.83
850.04	225.84
850.36	225.79
850.67	225.80
850.98	225.75
851.30	225.79
851.61	225.77
851.92	225.77
852.23	225.82
852.55	225.80
852.86	225.81
853.17	225.79
853.49	225.83
853.80	225.85
854.11	225.86
854.42	225.85
854.74	225.84
855.05	225.82
855.36	225.76
855.67	225.78
855.99	225.78
856.30	225.91
856.61	225.90
856.92	225.90
857.23	225.90
857.55	225.89
857.86	225.87
858.17	225.89
858.48	225.90
858.79	225.87
859.11	225.89
859.42	225.85
859.73	225.84
860.04	225.83
860.35	225.80
860.66	225.78
860.98	225.76
861.29	225.78
861.60	225.78
861.91	225.79
862.22	225.76
862.53	225.74
862.84	225.62
863.16	225.61
863.47	225.62
863.78	225.62
864.09	225.67
864.40	225.68
864.71	225.68
865.02	225.68
865.33	225.65
865.64	225.64
865.95	225.65
866.27	225.74
866.58	225.71
866.89	225.73
867.20	225.71
867.51	225.71
867.82	225.68
868.13	225.72
868.44	225.70
868.75	225.74
869.06	225.75
869.37	225.75
869.68	225.73
869.99	225.72
870.30	225.74
870.61	225.73
870.92	225.71
871.23	225.71
871.54	225.73
871.85	225.78
872.16	225.79
872.47	225.81
872.78	225.73
873.09	225.74
873.40	225.74
873.71	225.76
874.02	225.77
874.33	225.78
874.64	225.74
874.95	225.77
875.26	225.78
875.56	225.78
875.87	225.78
876.18	225.77
876.49	225.85
876.80	225.83
877.11	225.81
877.42	225.80
877.73	225.81
878.04	225.78
878.35	225.77
878.66	225.77
878.96	225.76
879.27	225.75
879.58	225.72
879.89	225.72
880.20	225.76
880.51	225.74
880.82	225.71
881.12	225.71
881.43	225.68
881.74	225.59
882.05	225.61
882.36	225.59
882.67	225.60
882.97	225.50
883.28	225.48
883.59	225.44
883.90	225.46
884.21	225.46
884.51	225.47
884.82	225.49
885.13	225.45
885.44	225.42
885.74	225.42
886.05	225.45
886.36	225.45
886.67	225.43
886.98	225.49
887.28	225.53
887.59	225.52
887.90	225.51
888.20	225.55
888.51	225.53
888.82	225.53
889.13	225.51
889.43	225.57
889.74	225.58
890.05	225.58
890.35	225.54
890.66	225.52
890.97	225.48
891.28	225.44
891.58	225.45
891.89	225.45
892.20	225.48
892.50	225.45
892.81	225.44
893.12	225.39
893.42	225.34
893.73	225.34
894.04	225.34
894.34	225.39
894.65	225.38
894.95	225.34
895.26	225.33
895.57	225.39
895.87	225.30
896.18	225.32
896.48	225.35
896.79	225.34
897.10	225.33
897.40	225.33
897.71	225.36
898.01	225.36
898.32	225.38
898.63	225.36
898.93	225.36
899.24	225.36
899.54	225.36
899.85	225.32
900.15	225.31
900.46	225.33
900.76	225.30
901.07	225.32
901.38	225.36
901.68	225.38
901.99	225.35
902.29	225.38
902.60	225.38
902.90	225.38
903.21	225.38
903.51	225.38
903.82	225.40
904.12	225.40
904.43	225.40
904.73	225.40
905.03	225.40
905.34	225.53
905.64	225.50
905.95	225.51
906.25	225.54
906.56	225.52
906.86	225.54
907.17	225.54
907.47	225.54
907.77	225.54
908.08	225.51
908.38	225.51
908.69	225.50
908.99	225.52
909.30	225.52
909.60	225.53
909.90	225.53
910.21	225.51
910.51	225.46
910.81	225.47
911.12	225.47
911.42	225.46
911.73	225.35
912.03	225.38
912.33	225.39
912.64	225.35
912.94	225.32
913.24	225.25
913.55	225.22
913.85	225.19
914.15	225.20
914.46	225.20
914.76	225.16
915.06	225.15
915.37	225.12
915.67	225.08
915.97	225.08
916.27	225.07
916.58	225.10
916.88	225.11
917.18	225.10
917.49	225.14
917.79	225.12
918.09	225.14
918.39	225.15
918.70	225.12
919.00	225.13
919.30	225.21
919.60	225.23
919.91	225.23
920.21	225.24
920.51	225.20
920.81	225.21
921.12	225.23
921.42	225.24
921.72	225.25
922.02	225.30
922.32	225.32
922.63	225.31
922.93	225.37
923.23	225.35
923.53	225.33
923.83	225.28
924.13	225.29
924.44	225.27
924.74	225.28
925.04	225.32
925.34	225.32
925.64	225.29
925.94	225.29
926.24	225.36
926.55	225.35
926.85	225.36
927.15	225.37
927.45	225.39
927.75	225.35
928.05	225.34
928.35	225.32
928.65	225.34
928.95	225.34
929.26	225.29
929.56	225.35
929.86	225.39
930.16	225.38
930.46	225.36
930.76	225.37
931.06	225.34
931.36	225.32
931.66	225.37
931.96	225.39
932.26	225.40
932.56	225.36
932.86	225.37
933.16	225.38
933.46	225.37
933.76	225.37
934.06	225.43
934.36	225.52
934.66	225.52
934.96	225.49
935.26	225.50
935.56	225.53
935.86	225.47
936.16	225.45
936.46	225.44
936.76	225.45
937.06	225.44
937.36	225.42
937.66	225.43
937.96	225.42
938.26	225.38
938.56	225.37
938.86	225.37
939.16	225.39
939.46	225.40
939.76	225.43
940.06	225.41
940.35	225.38
940.65	225.28
940.95	225.28
941.25	225.28
941.55	225.27
941.85	225.23
942.15	225.25
942.45	225.28
942.75	225.27
943.04	225.26
943.34	225.28
943.64	225.28
943.94	225.29
944.24	225.28
944.54	225.30
944.84	225.31
945.13	225.27
945.43	225.25
945.73	225.26
946.03	225.23
946.33	225.23
946.62	225.23
946.92	225.24
947.22	225.23
947.52	225.21
947.82	225.20
948.11	225.20
948.41	225.17
948.71	225.15
949.01	225.15
949.31	225.12
949.60	225.09
949.90	225.09
950.20	225.04
950.50	225.02
950.79	224.98
951.09	224.97
951.39	224.99
951.69	224.97
951.98	224.98
952.28	224.98
952.58	224.96
952.87	224.93
953.17	224.96
953.47	224.95
953.76	224.94
954.06	224.94
954.36	224.92
954.66	224.91
954.95	224.92
955.25	224.93
955.55	224.95
955.84	224.96
956.14	224.98
956.44	225.00
956.73	224.97
957.03	225.02
957.32	225.02
957.62	224.98
957.92	225.02
958.21	225.00
958.51	225.11
958.81	225.13
959.10	225.12
959.40	225.10
959.69	225.10
959.99	225.14
960.29	225.16
960.58	225.18
960.88	225.23
961.17	225.20
961.47	225.23
961.76	225.24
962.06	225.26
962.36	225.23
962.65	225.25
962.95	225.25
963.24	225.24
963.54	225.26
963.83	225.31
964.13	225.27
964.42	225.22
964.72	225.16
965.01	225.13
965.31	225.15
965.60	225.17
965.90	225.27
966.19	225.22
966.49	225.21
966.78	225.18
967.08	225.17
967.37	225.17
967.67	225.15
967.96	225.19
968.26	225.20
968.55	225.24
968.85	225.21
969.14	225.24
969.43	225.23
969.73	225.21
970.02	225.21
970.32	225.21
970.61	225.23
970.91	225.22
971.20	225.22
971.49	225.20
971.79	225.21
972.08	225.13
972.38	225.14
972.67	225.15
972.96	225.22
973.26	225.19
973.55	225.25
973.85	225.24
974.14	225.22
974.43	225.23
974.73	225.24
975.02	225.24
975.31	225.25
975.61	225.25
975.90	225.28
976.19	225.28
976.49	225.29
976.78	225.34
977.07	225.32
977.37	225.35
977.66	225.39
977.95	225.40
978.24	225.45
978.54	225.49
978.83	225.46
979.12	225.43
979.42	225.45
979.71	225.46
980.00	225.45
980.29	225.47
980.59	225.41
980.88	225.42
981.17	225.43
981.46	225.44
981.76	225.45
982.05	225.47
982.34	225.47
982.63	225.49
982.93	225.47
983.22	225.48
983.51	225.46
983.80	225.47
984.09	225.46
984.39	225.43
984.68	225.37
984.97	225.40
985.26	225.41
985.55	225.41
985.85	225.33
986.14	225.33
986.43	225.33
986.72	225.35
987.01	225.30
987.30	225.28
987.59	225.23
987.89	225.22
988.18	225.18
988.47	225.14
988.76	225.11
989.05	225.08
989.34	225.07
989.63	225.07
989.92	225.05
990.22	225.04
990.51	225.00
990.80	225.03
991.09	225.04
991.38	224.99
991.67	224.98
991.96	224.97
992.25	224.95
992.54	224.93
992.83	224.92
993.12	224.91
993.41	224.90
993.70	224.97
993.99	224.97
994.28	224.95
994.58	224.94
994.87	224.93
995.16	224.93
995.45	224.91
995.74	224.87
996.03	224.86
996.32	224.81
996.61	224.80
996.90	224.78
997.19	224.76
997.48	224.79
997.77	224.78
998.06	224.79
998.34	224.81
998.63	224.80
998.92	224.79
999.21	224.80
999.50	224.82
999.79	224.78
1000.08	224.78
1000.37	224.79
1000.66	224.77
1000.95	224.79
1001.24	224.79
1001.53	224.80
1001.82	224.80
1002.11	224.80
1002.40	224.83
1002.68	224.89
1002.97	224.94
1003.26	224.94
1003.55	224.88
1003.84	224.90
1004.13	224.94
1004.42	224.94
1004.71	224.92
1004.99	224.94
1005.28	224.94
1005.57	224.91
1005.86	224.92
1006.15	224.94
1006.44	224.95
1006.72	224.99
1007.01	224.99
1007.30	224.99
1007.59	225.01
1007.88	225.04
1008.17	225.06
1008.45	225.09
1008.74	225.06
1009.03	225.03
1009.32	225.01
1009.60	225.06
1009.89	225.06
1010.18	225.03
1010.47	225.04
1010.76	225.08
1011.04	225.06
1011.33	225.06
1011.62	225.09
1011.91	225.09
1012.19	225.06
1012.48	225.08
1012.77	225.09
1013.05	225.18
1013.34	225.19
1013.63	225.20
1013.92	225.19
1014.20	225.18
1014.49	225.19
1014.78	225.17
1015.06	225.16
1015.35	225.17
1015.64	225.18
1015.92	225.20
1016.21	225.21
1016.50	225.22
1016.78	225.23
1017.07	225.24
1017.36	225.25
1017.64	225.29
1017.93	225.27
1018.22	225.28
1018.50	225.26
1018.79	225.25
1019.08	225.17
1019.36	225.18
1019.65	225.15
1019.93	225.19
1020.22	225.20
1020.51	225.21
1020.79	225.21
1021.08	225.04
1021.36	224.85
1021.65	225.06
1021.94	225.22
1022.22	225.21
1022.51	225.21
1022.79	225.51
1023.08	225.22
1023.36	226.05
1023.65	224.81
>>>>>End Processed Spectral Data<<<<<
