SpectraSuite Data File
++++++++++++++++++++++++++++++++++++
Date: Fri Feb 01 17:08:48 EST 2013
User: group
Dark Spectrum Present: No
Reference Spectrum Present: No
Number of Sampled Component Spectra: 1
Spectrometers: USB2E7196
Integration Time (usec): 35000 (USB2E7196)
Spectra Averaged: 100 (USB2E7196)
Boxcar Smoothing: 10 (USB2E7196)
Correct for Electrical Dark: No (USB2E7196)
Strobe/Lamp Enabled: No (USB2E7196)
Correct for Detector Non-linearity: No (USB2E7196)
Correct for Stray Light: No (USB2E7196)
Number of Pixels in Processed Spectrum: 2048
>>>>>Begin Processed Spectral Data<<<<<
339.09	0.00
339.48	213.48
339.86	214.31
340.24	215.14
340.63	217.10
341.01	220.03
341.39	220.12
341.78	221.22
342.16	222.52
342.54	222.95
342.93	211.53
343.31	222.22
343.69	222.78
344.07	223.29
344.46	223.76
344.84	224.16
345.22	224.44
345.60	224.70
345.99	224.92
346.37	225.05
346.75	225.17
347.13	225.24
347.52	225.35
347.90	225.41
348.28	225.45
348.66	225.50
349.05	225.50
349.43	225.53
349.81	225.57
350.19	225.62
350.57	225.71
350.96	225.79
351.34	225.88
351.72	225.94
352.10	226.02
352.48	226.09
352.87	226.14
353.25	226.19
353.63	226.24
354.01	226.29
354.39	226.38
354.77	226.43
355.15	226.54
355.54	226.58
355.92	226.62
356.30	226.73
356.68	226.87
357.06	226.98
357.44	227.03
357.82	227.10
358.20	227.17
358.58	227.19
358.97	227.27
359.35	227.36
359.73	227.42
360.11	227.44
360.49	227.51
360.87	227.54
361.25	227.59
361.63	227.67
362.01	227.73
362.39	227.78
362.77	227.85
363.15	227.84
363.53	227.86
363.91	227.89
364.29	227.88
364.67	227.80
365.05	227.79
365.43	227.77
365.81	227.78
366.19	227.84
366.57	227.90
366.95	227.85
367.33	227.81
367.71	227.83
368.09	227.83
368.47	227.82
368.85	227.83
369.23	227.83
369.61	227.77
369.99	227.76
370.37	227.73
370.75	227.72
371.13	227.70
371.51	227.67
371.89	227.63
372.27	227.58
372.65	227.57
373.03	227.54
373.41	227.53
373.78	227.46
374.16	227.36
374.54	227.26
374.92	227.24
375.30	227.16
375.68	227.07
376.06	227.05
376.44	226.97
376.82	226.92
377.19	226.84
377.57	226.75
377.95	226.65
378.33	226.57
378.71	226.44
379.09	226.40
379.47	226.32
379.84	226.26
380.22	226.20
380.60	226.13
380.98	226.04
381.36	225.94
381.73	225.87
382.11	225.82
382.49	225.77
382.87	225.66
383.25	225.63
383.62	225.68
384.00	225.57
384.38	225.51
384.76	225.48
385.13	225.45
385.51	225.43
385.89	225.39
386.27	225.34
386.64	225.33
387.02	225.25
387.40	225.19
387.78	225.13
388.15	225.08
388.53	225.03
388.91	225.00
389.29	225.01
389.66	225.01
390.04	224.97
390.42	224.94
390.79	224.95
391.17	224.90
391.55	224.78
391.92	224.80
392.30	224.81
392.68	224.77
393.05	224.74
393.43	224.73
393.81	224.74
394.18	224.75
394.56	224.77
394.94	224.82
395.31	224.87
395.69	224.93
396.06	224.95
396.44	224.98
396.82	225.01
397.19	225.09
397.57	225.09
397.95	225.11
398.32	225.14
398.70	225.16
399.07	225.23
399.45	225.29
399.82	225.33
400.20	225.37
400.58	225.40
400.95	225.45
401.33	225.53
401.70	225.70
402.08	225.75
402.45	225.81
402.83	225.87
403.20	225.93
403.58	226.03
403.95	226.18
404.33	226.28
404.71	226.37
405.08	226.53
405.46	226.65
405.83	226.79
406.21	226.94
406.58	227.09
406.96	227.24
407.33	227.42
407.70	227.59
408.08	227.87
408.45	228.10
408.83	228.33
409.20	228.54
409.58	228.66
409.95	228.94
410.33	229.21
410.70	229.47
411.08	229.78
411.45	230.06
411.82	230.34
412.20	230.70
412.57	231.16
412.95	231.44
413.32	231.86
413.69	232.29
414.07	232.72
414.44	233.20
414.82	233.68
415.19	234.22
415.56	234.75
415.94	235.27
416.31	235.90
416.68	236.54
417.06	237.24
417.43	237.93
417.81	238.67
418.18	239.45
418.55	240.28
418.93	241.15
419.30	242.03
419.67	242.98
420.04	243.90
420.42	244.83
420.79	245.99
421.16	247.16
421.54	248.31
421.91	249.53
422.28	250.77
422.66	252.09
423.03	253.40
423.40	254.72
423.77	256.14
424.15	257.55
424.52	259.01
424.89	260.64
425.26	262.20
425.64	263.67
426.01	265.24
426.38	266.89
426.75	268.56
427.13	270.29
427.50	272.05
427.87	273.92
428.24	275.77
428.61	277.52
428.99	279.43
429.36	281.54
429.73	283.57
430.10	285.57
430.47	287.60
430.85	289.69
431.22	291.95
431.59	294.31
431.96	296.58
432.33	299.04
432.70	301.39
433.08	304.18
433.45	306.75
433.82	309.33
434.19	312.19
434.56	314.97
434.93	317.57
435.30	320.21
435.68	323.09
436.05	325.91
436.42	328.66
436.79	331.19
437.16	333.88
437.53	336.73
437.90	339.55
438.27	342.26
438.64	345.05
439.01	347.58
439.38	349.79
439.75	351.89
440.13	354.36
440.50	356.64
440.87	358.44
441.24	360.40
441.61	362.51
441.98	364.01
442.35	365.79
442.72	367.69
443.09	369.48
443.46	370.51
443.83	371.12
444.20	371.66
444.57	372.48
444.94	372.71
445.31	373.03
445.68	373.39
446.05	373.50
446.42	373.13
446.79	372.74
447.16	372.31
447.53	372.05
447.90	370.92
448.27	369.82
448.64	368.31
449.01	367.21
449.37	365.31
449.74	363.42
450.11	361.22
450.48	358.76
450.85	356.21
451.22	354.04
451.59	352.00
451.96	350.07
452.33	347.49
452.70	345.20
453.07	342.41
453.43	339.51
453.80	336.80
454.17	334.18
454.54	331.68
454.91	328.99
455.28	326.32
455.65	323.87
456.02	321.44
456.38	319.28
456.75	316.62
457.12	314.35
457.49	312.12
457.86	309.99
458.23	308.13
458.59	306.14
458.96	304.10
459.33	302.29
459.70	300.45
460.07	298.94
460.43	297.23
460.80	295.59
461.17	294.14
461.54	292.65
461.91	291.23
462.27	289.80
462.64	288.57
463.01	287.22
463.38	285.93
463.74	284.58
464.11	283.45
464.48	282.44
464.85	281.38
465.21	280.55
465.58	279.62
465.95	278.58
466.32	277.66
466.68	276.74
467.05	275.86
467.42	275.00
467.78	274.10
468.15	273.25
468.52	272.56
468.88	271.74
469.25	270.97
469.62	270.40
469.98	269.72
470.35	269.11
470.72	268.51
471.08	267.84
471.45	267.33
471.82	266.77
472.18	266.19
472.55	265.78
472.92	265.28
473.28	264.82
473.65	264.36
474.02	263.94
474.38	263.61
474.75	263.27
475.11	262.92
475.48	262.61
475.85	262.39
476.21	262.18
476.58	261.99
476.94	261.88
477.31	261.65
477.67	261.51
478.04	261.39
478.41	261.36
478.77	261.42
479.14	261.36
479.50	261.38
479.87	261.42
480.23	261.51
480.60	261.54
480.96	261.63
481.33	261.83
481.69	262.00
482.06	262.20
482.42	262.41
482.79	262.66
483.15	263.03
483.52	263.39
483.88	263.74
484.25	264.15
484.61	264.58
484.98	265.10
485.34	265.62
485.71	266.20
486.07	266.78
486.44	267.34
486.80	268.02
487.17	268.72
487.53	269.54
487.90	270.36
488.26	271.29
488.62	272.29
488.99	273.32
489.35	274.38
489.72	275.51
490.08	276.71
490.44	277.95
490.81	279.30
491.17	280.65
491.54	282.16
491.90	283.67
492.26	285.28
492.63	287.00
492.99	288.84
493.36	290.74
493.72	292.80
494.08	294.94
494.45	297.19
494.81	299.56
495.17	301.98
495.54	304.56
495.90	307.28
496.26	310.08
496.63	313.01
496.99	316.12
497.35	319.38
497.72	322.75
498.08	326.24
498.44	329.90
498.80	333.79
499.17	337.79
499.53	341.97
499.89	346.35
500.26	350.82
500.62	355.46
500.98	360.40
501.34	365.47
501.71	370.71
502.07	376.18
502.43	381.78
502.79	387.57
503.16	393.63
503.52	399.83
503.88	406.20
504.24	412.79
504.60	419.63
504.97	426.75
505.33	434.04
505.69	441.67
506.05	449.41
506.41	457.24
506.78	465.34
507.14	473.73
507.50	482.36
507.86	491.30
508.22	500.42
508.59	509.56
508.95	519.03
509.31	528.77
509.67	538.70
510.03	548.83
510.39	559.31
510.75	569.89
511.12	580.68
511.48	591.80
511.84	603.10
512.20	614.42
512.56	626.08
512.92	638.07
513.28	650.30
513.64	662.52
514.00	674.97
514.37	687.69
514.73	700.45
515.09	713.24
515.45	726.25
515.81	739.57
516.17	753.31
516.53	767.16
516.89	781.03
517.25	794.94
517.61	809.13
517.97	823.27
518.33	837.50
518.69	852.00
519.05	866.70
519.41	881.51
519.77	896.76
520.13	911.93
520.49	926.94
520.85	941.94
521.21	957.28
521.57	973.24
521.93	988.66
522.29	1004.67
522.65	1020.58
523.01	1036.40
523.37	1052.10
523.73	1067.85
524.09	1083.52
524.45	1099.51
524.81	1115.70
525.17	1132.05
525.53	1148.58
525.89	1165.06
526.25	1181.49
526.61	1197.44
526.97	1213.85
527.33	1229.96
527.68	1246.05
528.04	1262.14
528.40	1278.29
528.76	1295.07
529.12	1311.29
529.48	1327.76
529.84	1343.40
530.20	1359.60
530.56	1376.24
530.91	1393.09
531.27	1409.45
531.63	1425.53
531.99	1441.71
532.35	1457.35
532.71	1472.90
533.07	1488.63
533.42	1504.18
533.78	1519.81
534.14	1535.67
534.50	1550.53
534.86	1565.94
535.21	1580.80
535.57	1596.27
535.93	1611.39
536.29	1625.76
536.65	1640.40
537.00	1654.78
537.36	1669.74
537.72	1683.88
538.08	1698.05
538.44	1711.69
538.79	1725.20
539.15	1738.45
539.51	1751.75
539.87	1765.71
540.22	1779.16
540.58	1792.65
540.94	1805.53
541.29	1818.09
541.65	1830.47
542.01	1843.37
542.37	1855.43
542.72	1867.52
543.08	1879.13
543.44	1891.35
543.79	1902.41
544.15	1913.14
544.51	1924.44
544.87	1935.09
545.22	1945.74
545.58	1955.74
545.94	1965.24
546.29	1974.88
546.65	1984.70
547.01	1993.96
547.36	2002.41
547.72	2010.76
548.07	2018.45
548.43	2026.53
548.79	2034.26
549.14	2041.81
549.50	2048.98
549.86	2056.38
550.21	2063.71
550.57	2070.89
550.92	2077.37
551.28	2084.31
551.64	2091.35
551.99	2097.87
552.35	2104.04
552.70	2110.15
553.06	2115.89
553.41	2122.15
553.77	2128.25
554.13	2134.28
554.48	2140.20
554.84	2145.97
555.19	2151.09
555.55	2156.27
555.90	2160.79
556.26	2165.91
556.61	2170.49
556.97	2175.06
557.32	2179.33
557.68	2183.44
558.03	2187.49
558.39	2191.19
558.74	2195.72
559.10	2199.68
559.45	2203.30
559.81	2207.55
560.16	2211.43
560.52	2214.91
560.87	2218.31
561.23	2220.97
561.58	2223.83
561.94	2226.64
562.29	2228.83
562.64	2231.76
563.00	2234.44
563.35	2237.96
563.71	2241.13
564.06	2244.41
564.42	2247.40
564.77	2250.22
565.12	2252.78
565.48	2255.13
565.83	2257.21
566.19	2258.73
566.54	2259.56
566.89	2261.04
567.25	2261.95
567.60	2263.24
567.96	2265.16
568.31	2266.21
568.66	2267.57
569.02	2268.38
569.37	2268.71
569.72	2269.83
570.08	2270.13
570.43	2270.38
570.78	2270.10
571.14	2268.74
571.49	2267.73
571.84	2267.51
572.20	2266.51
572.55	2265.51
572.90	2264.05
573.26	2262.90
573.61	2261.33
573.96	2259.98
574.31	2257.13
574.67	2254.36
575.02	2251.02
575.37	2247.65
575.72	2244.28
576.08	2240.93
576.43	2237.70
576.78	2234.35
577.13	2231.31
577.49	2228.29
577.84	2225.02
578.19	2221.43
578.54	2218.11
578.90	2214.13
579.25	2208.78
579.60	2204.04
579.95	2199.35
580.30	2194.54
580.66	2189.47
581.01	2184.87
581.36	2180.13
581.71	2176.26
582.06	2172.18
582.42	2168.15
582.77	2163.28
583.12	2158.89
583.47	2154.71
583.82	2150.20
584.17	2145.17
584.53	2139.98
584.88	2134.74
585.23	2129.29
585.58	2124.02
585.93	2118.75
586.28	2114.11
586.63	2109.30
586.98	2104.54
587.34	2100.10
587.69	2095.49
588.04	2090.58
588.39	2085.05
588.74	2078.78
589.09	2072.80
589.44	2066.23
589.79	2060.38
590.14	2054.89
590.49	2048.42
590.84	2042.08
591.19	2036.21
591.54	2030.01
591.89	2023.05
592.25	2016.46
592.60	2009.49
592.95	2002.29
593.30	1995.19
593.65	1987.78
594.00	1980.95
594.35	1973.80
594.70	1965.74
595.05	1958.93
595.40	1951.78
595.75	1944.40
596.10	1938.52
596.45	1932.13
596.80	1926.08
597.15	1919.61
597.50	1912.91
597.85	1906.71
598.19	1900.35
598.54	1893.56
598.89	1887.10
599.24	1881.27
599.59	1874.93
599.94	1868.80
600.29	1862.59
600.64	1856.12
600.99	1848.88
601.34	1842.23
601.69	1835.38
602.04	1829.01
602.39	1821.53
602.74	1814.92
603.08	1808.48
603.43	1801.75
603.78	1794.46
604.13	1787.42
604.48	1780.45
604.83	1773.63
605.18	1766.96
605.53	1759.02
605.87	1751.13
606.22	1743.99
606.57	1736.09
606.92	1728.59
607.27	1721.65
607.62	1714.77
607.96	1707.67
608.31	1701.38
608.66	1693.89
609.01	1686.61
609.36	1678.89
609.70	1671.15
610.05	1663.21
610.40	1655.57
610.75	1647.47
611.10	1639.91
611.44	1631.49
611.79	1623.33
612.14	1614.71
612.49	1605.51
612.83	1597.19
613.18	1589.07
613.53	1580.99
613.88	1572.52
614.22	1564.30
614.57	1555.66
614.92	1547.71
615.27	1540.26
615.61	1531.98
615.96	1523.96
616.31	1516.23
616.65	1509.04
617.00	1501.46
617.35	1493.80
617.70	1485.68
618.04	1477.25
618.39	1468.95
618.74	1461.42
619.08	1453.22
619.43	1445.69
619.78	1438.77
620.12	1431.71
620.47	1424.19
620.82	1416.05
621.16	1408.68
621.51	1401.20
621.85	1393.65
622.20	1385.27
622.55	1376.89
622.89	1369.06
623.24	1361.43
623.59	1354.07
623.93	1346.51
624.28	1339.27
624.62	1331.77
624.97	1324.58
625.32	1317.66
625.66	1310.74
626.01	1303.65
626.35	1296.36
626.70	1288.62
627.04	1281.05
627.39	1273.26
627.73	1265.94
628.08	1259.14
628.43	1251.96
628.77	1244.75
629.12	1237.24
629.46	1230.07
629.81	1222.62
630.15	1215.29
630.50	1208.04
630.84	1199.97
631.19	1192.03
631.53	1184.48
631.88	1177.03
632.22	1169.42
632.57	1162.15
632.91	1154.59
633.26	1147.20
633.60	1139.75
633.95	1132.66
634.29	1125.58
634.64	1118.98
634.98	1111.68
635.32	1104.57
635.67	1097.90
636.01	1091.18
636.36	1084.47
636.70	1077.92
637.05	1071.46
637.39	1065.13
637.73	1058.74
638.08	1052.92
638.42	1047.03
638.77	1040.77
639.11	1034.26
639.45	1027.92
639.80	1021.36
640.14	1015.08
640.49	1008.59
640.83	1002.37
641.17	996.23
641.52	989.94
641.86	983.46
642.20	977.64
642.55	971.32
642.89	964.92
643.23	958.36
643.58	952.64
643.92	946.59
644.26	940.61
644.61	934.53
644.95	928.50
645.29	921.93
645.64	915.31
645.98	908.90
646.32	902.94
646.66	896.96
647.01	891.18
647.35	885.48
647.69	879.64
648.04	874.17
648.38	868.36
648.72	862.44
649.06	856.53
649.41	850.63
649.75	844.78
650.09	838.91
650.43	833.21
650.78	827.03
651.12	821.09
651.46	815.33
651.80	809.73
652.14	804.28
652.49	798.92
652.83	793.79
653.17	788.17
653.51	782.68
653.85	777.37
654.20	771.85
654.54	765.94
654.88	760.22
655.22	754.30
655.56	748.64
655.90	743.06
656.25	737.85
656.59	732.47
656.93	727.36
657.27	722.20
657.61	716.79
657.95	711.76
658.29	706.65
658.64	701.37
658.98	695.99
659.32	690.61
659.66	685.40
660.00	680.16
660.34	675.30
660.68	670.33
661.02	665.31
661.36	660.57
661.70	656.04
662.05	651.74
662.39	647.45
662.73	642.99
663.07	638.69
663.41	634.20
663.75	629.77
664.09	625.20
664.43	620.80
664.77	616.75
665.11	612.50
665.45	608.35
665.79	604.34
666.13	600.28
666.47	596.21
666.81	592.07
667.15	587.88
667.49	583.95
667.83	580.10
668.17	576.08
668.51	572.07
668.85	568.05
669.19	564.19
669.53	560.35
669.87	556.57
670.21	552.86
670.55	549.19
670.89	545.78
671.23	542.34
671.57	538.96
671.91	535.40
672.25	531.84
672.58	528.42
672.92	524.99
673.26	521.84
673.60	518.66
673.94	515.63
674.28	512.71
674.62	509.78
674.96	506.72
675.30	503.88
675.64	500.99
675.97	498.21
676.31	495.36
676.65	492.51
676.99	489.78
677.33	486.96
677.67	484.17
678.01	481.21
678.34	478.32
678.68	475.36
679.02	472.64
679.36	469.91
679.70	467.12
680.04	464.41
680.37	461.54
680.71	458.73
681.05	456.04
681.39	453.36
681.73	450.71
682.06	448.16
682.40	445.62
682.74	443.01
683.08	440.49
683.42	437.91
683.75	435.39
684.09	432.84
684.43	430.43
684.77	428.05
685.10	425.65
685.44	423.35
685.78	421.06
686.12	418.77
686.45	416.48
686.79	414.27
687.13	412.08
687.46	409.90
687.80	407.77
688.14	405.57
688.48	403.51
688.81	401.31
689.15	399.19
689.49	397.05
689.82	394.98
690.16	392.86
690.50	390.88
690.83	388.93
691.17	386.96
691.51	385.01
691.84	383.17
692.18	381.28
692.52	379.30
692.85	377.39
693.19	375.53
693.52	373.74
693.86	371.94
694.20	370.15
694.53	368.38
694.87	366.55
695.21	364.77
695.54	362.92
695.88	361.13
696.21	359.43
696.55	357.77
696.88	356.10
697.22	354.44
697.56	352.82
697.89	351.19
698.23	349.58
698.56	347.98
698.90	346.38
699.23	344.74
699.57	343.17
699.90	341.63
700.24	340.04
700.58	338.54
700.91	337.02
701.25	335.58
701.58	334.23
701.92	332.87
702.25	331.49
702.59	330.15
702.92	328.90
703.26	327.57
703.59	326.28
703.93	325.12
704.26	323.93
704.60	322.66
704.93	321.40
705.26	320.17
705.60	318.95
705.93	317.76
706.27	316.71
706.60	315.71
706.94	314.65
707.27	313.54
707.61	312.45
707.94	311.43
708.27	310.33
708.61	309.23
708.94	308.21
709.28	307.25
709.61	306.26
709.94	305.27
710.28	304.23
710.61	303.25
710.95	302.16
711.28	301.25
711.61	300.30
711.95	299.38
712.28	298.42
712.61	297.48
712.95	296.60
713.28	295.74
713.61	294.83
713.95	293.93
714.28	293.07
714.61	292.24
714.95	291.39
715.28	290.57
715.61	289.65
715.95	288.81
716.28	287.95
716.61	287.13
716.95	286.32
717.28	285.60
717.61	284.81
717.94	284.08
718.28	283.26
718.61	282.52
718.94	281.81
719.27	281.17
719.61	280.54
719.94	279.81
720.27	279.08
720.60	278.40
720.94	277.76
721.27	277.18
721.60	276.57
721.93	275.93
722.27	275.34
722.60	274.83
722.93	274.24
723.26	273.72
723.59	273.13
723.93	272.57
724.26	272.02
724.59	271.47
724.92	270.95
725.25	270.44
725.59	269.93
725.92	269.41
726.25	268.90
726.58	268.41
726.91	267.94
727.24	267.47
727.57	267.00
727.91	266.48
728.24	266.01
728.57	265.53
728.90	265.08
729.23	264.61
729.56	264.16
729.89	263.73
730.22	263.22
730.55	262.77
730.89	262.35
731.22	261.89
731.55	261.47
731.88	261.03
732.21	260.62
732.54	260.19
732.87	259.77
733.20	259.37
733.53	258.95
733.86	258.59
734.19	258.20
734.52	257.79
734.85	257.49
735.18	257.07
735.51	256.72
735.84	256.37
736.17	256.03
736.50	255.63
736.83	255.35
737.16	255.02
737.49	254.69
737.82	254.37
738.15	254.06
738.48	253.70
738.81	253.39
739.14	253.04
739.47	252.69
739.80	252.39
740.13	252.10
740.46	251.79
740.79	251.47
741.12	251.15
741.45	250.84
741.78	250.50
742.11	250.24
742.44	249.90
742.77	249.61
743.10	249.29
743.43	248.98
743.75	248.60
744.08	248.45
744.41	248.18
744.74	247.87
745.07	247.55
745.40	247.34
745.73	247.07
746.06	246.81
746.39	246.63
746.71	246.36
747.04	246.08
747.37	245.81
747.70	245.53
748.03	245.28
748.36	245.05
748.68	244.79
749.01	244.52
749.34	244.30
749.67	244.09
750.00	243.85
750.33	243.73
750.65	243.51
750.98	243.17
751.31	242.93
751.64	242.74
751.97	242.58
752.29	242.35
752.62	242.11
752.95	241.89
753.28	241.64
753.60	241.44
753.93	241.22
754.26	241.07
754.59	240.86
754.91	240.66
755.24	240.50
755.57	240.33
755.90	240.16
756.22	239.98
756.55	239.77
756.88	239.58
757.20	239.35
757.53	239.17
757.86	239.02
758.19	238.90
758.51	238.75
758.84	238.57
759.17	238.41
759.49	238.25
759.82	238.16
760.15	238.02
760.47	237.89
760.80	237.77
761.13	237.64
761.45	237.52
761.78	237.38
762.11	237.23
762.43	237.11
762.76	236.95
763.08	236.86
763.41	236.72
763.74	236.62
764.06	236.49
764.39	236.32
764.71	236.15
765.04	236.01
765.37	235.89
765.69	235.77
766.02	235.62
766.34	235.49
766.67	235.36
767.00	235.26
767.32	235.18
767.65	235.11
767.97	234.98
768.30	234.83
768.62	234.74
768.95	234.62
769.27	234.46
769.60	234.39
769.92	234.25
770.25	234.18
770.57	234.07
770.90	233.98
771.22	233.89
771.55	233.82
771.87	233.71
772.20	233.58
772.52	233.59
772.85	233.64
773.17	233.57
773.50	233.43
773.82	233.32
774.15	233.20
774.47	233.06
774.80	232.93
775.12	232.86
775.45	232.80
775.77	232.72
776.09	232.65
776.42	232.56
776.74	232.47
777.07	232.35
777.39	232.26
777.72	232.17
778.04	232.10
778.36	232.03
778.69	231.94
779.01	231.90
779.33	231.69
779.66	231.50
779.98	231.39
780.31	231.32
780.63	231.28
780.95	231.21
781.28	231.13
781.60	231.02
781.92	230.95
782.25	230.84
782.57	230.75
782.89	230.68
783.22	230.60
783.54	230.54
783.86	230.46
784.19	230.40
784.51	230.35
784.83	230.30
785.16	230.25
785.48	230.19
785.80	230.11
786.12	230.08
786.45	230.02
786.77	230.00
787.09	229.95
787.42	229.84
787.74	229.79
788.06	229.77
788.38	229.77
788.71	229.74
789.03	229.70
789.35	229.66
789.67	229.61
789.99	229.58
790.32	229.55
790.64	229.54
790.96	229.57
791.28	229.48
791.61	229.45
791.93	229.40
792.25	229.37
792.57	229.42
792.89	229.34
793.21	229.32
793.54	229.28
793.86	229.27
794.18	229.26
794.50	229.20
794.82	229.16
795.14	229.11
795.47	229.06
795.79	229.04
796.11	229.01
796.43	228.97
796.75	228.93
797.07	228.89
797.39	228.84
797.71	228.75
798.04	228.75
798.36	228.72
798.68	228.67
799.00	228.64
799.32	228.53
799.64	228.52
799.96	228.50
800.28	228.47
800.60	228.44
800.92	228.41
801.24	228.37
801.56	228.37
801.89	228.32
802.21	228.30
802.53	228.27
802.85	228.26
803.17	228.30
803.49	228.26
803.81	228.22
804.13	228.21
804.45	228.17
804.77	228.16
805.09	228.12
805.41	228.09
805.73	228.09
806.05	228.07
806.37	228.06
806.69	228.04
807.01	228.00
807.33	227.97
807.65	227.90
807.97	227.93
808.28	227.89
808.60	227.92
808.92	227.90
809.24	227.93
809.56	227.86
809.88	227.80
810.20	227.81
810.52	227.81
810.84	227.74
811.16	227.69
811.48	227.65
811.80	227.69
812.12	227.68
812.43	227.65
812.75	227.61
813.07	227.56
813.39	227.51
813.71	227.48
814.03	227.44
814.35	227.46
814.67	227.37
814.98	227.34
815.30	227.30
815.62	227.27
815.94	227.19
816.26	227.24
816.58	227.18
816.89	227.13
817.21	227.12
817.53	227.12
817.85	227.10
818.17	227.10
818.48	227.01
818.80	227.01
819.12	227.00
819.44	226.95
819.76	226.95
820.07	226.92
820.39	226.91
820.71	226.90
821.03	226.84
821.34	226.83
821.66	226.81
821.98	226.80
822.30	226.73
822.61	226.79
822.93	226.68
823.25	226.67
823.57	226.65
823.88	226.62
824.20	226.61
824.52	226.62
824.83	226.57
825.15	226.57
825.47	226.53
825.79	226.49
826.10	226.47
826.42	226.42
826.74	226.41
827.05	226.41
827.37	226.41
827.69	226.39
828.00	226.41
828.32	226.40
828.64	226.35
828.95	226.39
829.27	226.31
829.58	226.32
829.90	226.34
830.22	226.33
830.53	226.32
830.85	226.29
831.17	226.25
831.48	226.23
831.80	226.20
832.11	226.18
832.43	226.17
832.75	226.17
833.06	226.24
833.38	226.21
833.69	226.20
834.01	226.18
834.32	226.20
834.64	226.17
834.96	226.18
835.27	226.20
835.59	226.19
835.90	226.18
836.22	226.17
836.53	226.16
836.85	226.16
837.16	226.22
837.48	226.22
837.79	226.27
838.11	226.29
838.42	226.32
838.74	226.34
839.05	226.35
839.37	226.35
839.68	226.29
840.00	226.29
840.31	226.30
840.63	226.28
840.94	226.24
841.26	226.21
841.57	226.19
841.88	226.19
842.20	226.17
842.51	226.19
842.83	226.19
843.14	226.27
843.46	226.25
843.77	226.20
844.08	226.20
844.40	226.14
844.71	226.12
845.03	226.09
845.34	226.08
845.65	226.09
845.97	226.08
846.28	226.08
846.60	226.08
846.91	226.04
847.22	226.09
847.54	226.10
847.85	226.09
848.16	226.10
848.48	226.05
848.79	226.08
849.10	226.08
849.42	226.05
849.73	225.98
850.04	225.99
850.36	225.95
850.67	225.94
850.98	225.93
851.30	225.94
851.61	225.93
851.92	225.89
852.23	225.89
852.55	225.89
852.86	225.86
853.17	225.84
853.49	225.85
853.80	225.81
854.11	225.80
854.42	225.83
854.74	225.82
855.05	225.84
855.36	225.77
855.67	225.74
855.99	225.72
856.30	225.81
856.61	225.80
856.92	225.81
857.23	225.83
857.55	225.84
857.86	225.82
858.17	225.85
858.48	225.87
858.79	225.83
859.11	225.83
859.42	225.82
859.73	225.80
860.04	225.80
860.35	225.79
860.66	225.77
860.98	225.75
861.29	225.76
861.60	225.74
861.91	225.80
862.22	225.78
862.53	225.79
862.84	225.67
863.16	225.69
863.47	225.65
863.78	225.63
864.09	225.63
864.40	225.65
864.71	225.64
865.02	225.65
865.33	225.67
865.64	225.65
865.95	225.67
866.27	225.74
866.58	225.76
866.89	225.75
867.20	225.77
867.51	225.79
867.82	225.78
868.13	225.81
868.44	225.78
868.75	225.85
869.06	225.85
869.37	225.89
869.68	225.89
869.99	225.92
870.30	225.95
870.61	225.97
870.92	225.96
871.23	225.93
871.54	225.97
871.85	226.02
872.16	226.03
872.47	226.03
872.78	225.99
873.09	225.99
873.40	226.00
873.71	226.00
874.02	226.00
874.33	225.99
874.64	226.01
874.95	226.02
875.26	225.98
875.56	225.99
875.87	225.95
876.18	225.95
876.49	226.04
876.80	226.01
877.11	225.99
877.42	226.01
877.73	226.04
878.04	225.99
878.35	225.96
878.66	225.98
878.96	225.97
879.27	225.97
879.58	225.95
879.89	225.96
880.20	226.00
880.51	225.96
880.82	225.94
881.12	225.91
881.43	225.88
881.74	225.88
882.05	225.86
882.36	225.88
882.67	225.86
882.97	225.79
883.28	225.78
883.59	225.78
883.90	225.77
884.21	225.74
884.51	225.74
884.82	225.70
885.13	225.69
885.44	225.68
885.74	225.68
886.05	225.69
886.36	225.69
886.67	225.63
886.98	225.70
887.28	225.74
887.59	225.73
887.90	225.74
888.20	225.73
888.51	225.73
888.82	225.71
889.13	225.71
889.43	225.76
889.74	225.76
890.05	225.75
890.35	225.73
890.66	225.71
890.97	225.72
891.28	225.70
891.58	225.69
891.89	225.70
892.20	225.68
892.50	225.68
892.81	225.64
893.12	225.61
893.42	225.57
893.73	225.55
894.04	225.54
894.34	225.52
894.65	225.52
894.95	225.49
895.26	225.47
895.57	225.50
895.87	225.40
896.18	225.40
896.48	225.40
896.79	225.39
897.10	225.43
897.40	225.42
897.71	225.45
898.01	225.43
898.32	225.42
898.63	225.41
898.93	225.40
899.24	225.41
899.54	225.45
899.85	225.43
900.15	225.41
900.46	225.44
900.76	225.45
901.07	225.46
901.38	225.47
901.68	225.51
901.99	225.47
902.29	225.51
902.60	225.48
902.90	225.46
903.21	225.47
903.51	225.47
903.82	225.52
904.12	225.52
904.43	225.56
904.73	225.58
905.03	225.57
905.34	225.68
905.64	225.68
905.95	225.67
906.25	225.65
906.56	225.67
906.86	225.67
907.17	225.67
907.47	225.66
907.77	225.67
908.08	225.64
908.38	225.65
908.69	225.63
908.99	225.69
909.30	225.68
909.60	225.68
909.90	225.69
910.21	225.63
910.51	225.60
910.81	225.60
911.12	225.62
911.42	225.60
911.73	225.47
912.03	225.43
912.33	225.45
912.64	225.44
912.94	225.40
913.24	225.39
913.55	225.35
913.85	225.37
914.15	225.39
914.46	225.40
914.76	225.38
915.06	225.37
915.37	225.34
915.67	225.35
915.97	225.32
916.27	225.29
916.58	225.31
916.88	225.30
917.18	225.26
917.49	225.33
917.79	225.35
918.09	225.35
918.39	225.39
918.70	225.39
919.00	225.39
919.30	225.46
919.60	225.43
919.91	225.43
920.21	225.39
920.51	225.34
920.81	225.32
921.12	225.34
921.42	225.34
921.72	225.34
922.02	225.34
922.32	225.36
922.63	225.38
922.93	225.37
923.23	225.38
923.53	225.36
923.83	225.27
924.13	225.26
924.44	225.26
924.74	225.27
925.04	225.28
925.34	225.29
925.64	225.22
925.94	225.22
926.24	225.27
926.55	225.26
926.85	225.27
927.15	225.29
927.45	225.27
927.75	225.28
928.05	225.26
928.35	225.26
928.65	225.24
928.95	225.21
929.26	225.18
929.56	225.20
929.86	225.23
930.16	225.23
930.46	225.21
930.76	225.25
931.06	225.20
931.36	225.17
931.66	225.16
931.96	225.15
932.26	225.14
932.56	225.11
932.86	225.12
933.16	225.15
933.46	225.11
933.76	225.09
934.06	225.09
934.36	225.11
934.66	225.10
934.96	225.12
935.26	225.15
935.56	225.18
935.86	225.16
936.16	225.11
936.46	225.08
936.76	225.10
937.06	225.04
937.36	225.05
937.66	225.09
937.96	225.11
938.26	225.10
938.56	225.10
938.86	225.14
939.16	225.14
939.46	225.12
939.76	225.13
940.06	225.14
940.35	225.12
940.65	225.08
940.95	225.10
941.25	225.08
941.55	225.09
941.85	225.08
942.15	225.13
942.45	225.21
942.75	225.22
943.04	225.22
943.34	225.23
943.64	225.24
943.94	225.21
944.24	225.21
944.54	225.21
944.84	225.19
945.13	225.15
945.43	225.17
945.73	225.19
946.03	225.20
946.33	225.17
946.62	225.17
946.92	225.17
947.22	225.17
947.52	225.19
947.82	225.15
948.11	225.13
948.41	225.07
948.71	225.02
949.01	225.05
949.31	225.03
949.60	225.04
949.90	225.04
950.20	225.02
950.50	225.02
950.79	225.05
951.09	225.08
951.39	225.08
951.69	225.04
951.98	225.03
952.28	225.03
952.58	225.06
952.87	225.06
953.17	225.06
953.47	225.04
953.76	225.03
954.06	225.02
954.36	225.01
954.66	225.04
954.95	225.05
955.25	225.04
955.55	225.09
955.84	225.03
956.14	225.07
956.44	225.10
956.73	225.08
957.03	225.06
957.32	225.05
957.62	225.04
957.92	225.07
958.21	225.09
958.51	225.21
958.81	225.21
959.10	225.23
959.40	225.28
959.69	225.32
959.99	225.31
960.29	225.32
960.58	225.33
960.88	225.37
961.17	225.35
961.47	225.35
961.76	225.32
962.06	225.39
962.36	225.36
962.65	225.36
962.95	225.38
963.24	225.37
963.54	225.40
963.83	225.39
964.13	225.38
964.42	225.35
964.72	225.23
965.01	225.19
965.31	225.20
965.60	225.18
965.90	225.22
966.19	225.23
966.49	225.24
966.78	225.25
967.08	225.23
967.37	225.27
967.67	225.27
967.96	225.28
968.26	225.26
968.55	225.32
968.85	225.33
969.14	225.36
969.43	225.37
969.73	225.36
970.02	225.37
970.32	225.38
970.61	225.38
970.91	225.35
971.20	225.38
971.49	225.37
971.79	225.36
972.08	225.31
972.38	225.29
972.67	225.31
972.96	225.31
973.26	225.29
973.55	225.28
973.85	225.28
974.14	225.27
974.43	225.29
974.73	225.25
975.02	225.23
975.31	225.15
975.61	225.17
975.90	225.15
976.19	225.15
976.49	225.15
976.78	225.12
977.07	225.13
977.37	225.12
977.66	225.09
977.95	225.08
978.24	225.07
978.54	225.11
978.83	225.10
979.12	225.06
979.42	225.04
979.71	225.07
980.00	225.03
980.29	225.04
980.59	225.02
980.88	225.05
981.17	225.02
981.46	225.09
981.76	225.07
982.05	225.12
982.34	225.13
982.63	225.13
982.93	225.18
983.22	225.20
983.51	225.22
983.80	225.24
984.09	225.25
984.39	225.26
984.68	225.22
984.97	225.21
985.26	225.21
985.55	225.26
985.85	225.23
986.14	225.27
986.43	225.29
986.72	225.25
987.01	225.21
987.30	225.23
987.59	225.20
987.89	225.19
988.18	225.17
988.47	225.14
988.76	225.16
989.05	225.13
989.34	225.09
989.63	225.14
989.92	225.16
990.22	225.13
990.51	225.15
990.80	225.16
991.09	225.18
991.38	225.20
991.67	225.17
991.96	225.13
992.25	225.12
992.54	225.10
992.83	225.12
993.12	225.09
993.41	225.10
993.70	225.16
993.99	225.18
994.28	225.15
994.58	225.18
994.87	225.15
995.16	225.16
995.45	225.20
995.74	225.15
996.03	225.13
996.32	225.18
996.61	225.16
996.90	225.16
997.19	225.15
997.48	225.14
997.77	225.15
998.06	225.16
998.34	225.18
998.63	225.17
998.92	225.19
999.21	225.23
999.50	225.24
999.79	225.20
1000.08	225.18
1000.37	225.19
1000.66	225.16
1000.95	225.18
1001.24	225.19
1001.53	225.17
1001.82	225.14
1002.11	225.14
1002.40	225.12
1002.68	225.15
1002.97	225.20
1003.26	225.17
1003.55	225.15
1003.84	225.14
1004.13	225.16
1004.42	225.11
1004.71	225.12
1004.99	225.11
1005.28	225.14
1005.57	225.15
1005.86	225.12
1006.15	225.12
1006.44	225.12
1006.72	225.13
1007.01	225.10
1007.30	225.08
1007.59	225.08
1007.88	225.12
1008.17	225.12
1008.45	225.13
1008.74	225.08
1009.03	225.04
1009.32	225.07
1009.60	225.06
1009.89	225.06
1010.18	225.02
1010.47	225.03
1010.76	225.01
1011.04	224.99
1011.33	224.97
1011.62	224.95
1011.91	224.94
1012.19	224.95
1012.48	224.94
1012.77	224.93
1013.05	224.97
1013.34	224.98
1013.63	224.94
1013.92	224.95
1014.20	224.94
1014.49	224.94
1014.78	224.94
1015.06	224.92
1015.35	224.92
1015.64	224.94
1015.92	224.94
1016.21	224.95
1016.50	224.95
1016.78	224.96
1017.07	224.98
1017.36	224.95
1017.64	224.94
1017.93	224.97
1018.22	224.98
1018.50	224.98
1018.79	225.00
1019.08	224.97
1019.36	224.98
1019.65	224.99
1019.93	225.03
1020.22	225.05
1020.51	225.08
1020.79	225.07
1021.08	225.32
1021.36	224.42
1021.65	225.30
1021.94	225.00
1022.22	225.16
1022.51	224.87
1022.79	226.10
1023.08	225.18
1023.36	226.04
1023.65	224.87
>>>>>End Processed Spectral Data<<<<<
