SpectraSuite Data File
++++++++++++++++++++++++++++++++++++
Date: Fri Feb 01 16:32:55 EST 2013
User: group
Dark Spectrum Present: No
Reference Spectrum Present: No
Number of Sampled Component Spectra: 1
Spectrometers: USB2E7196
Integration Time (usec): 35000 (USB2E7196)
Spectra Averaged: 100 (USB2E7196)
Boxcar Smoothing: 10 (USB2E7196)
Correct for Electrical Dark: No (USB2E7196)
Strobe/Lamp Enabled: No (USB2E7196)
Correct for Detector Non-linearity: No (USB2E7196)
Correct for Stray Light: No (USB2E7196)
Number of Pixels in Processed Spectrum: 2048
>>>>>Begin Processed Spectral Data<<<<<
339.09	0.00
339.48	214.20
339.86	215.34
340.24	216.67
340.63	218.51
341.01	220.85
341.39	220.79
341.78	222.62
342.16	224.11
342.54	223.46
342.93	212.42
343.31	223.17
343.69	223.69
344.07	224.15
344.46	224.57
344.84	224.93
345.22	225.19
345.60	225.46
345.99	225.61
346.37	225.73
346.75	225.87
347.13	225.92
347.52	225.97
347.90	226.05
348.28	226.11
348.66	226.18
349.05	226.18
349.43	226.23
349.81	226.34
350.19	226.35
350.57	226.40
350.96	226.45
351.34	226.50
351.72	226.61
352.10	226.71
352.48	226.79
352.87	226.85
353.25	226.91
353.63	226.95
354.01	227.04
354.39	227.11
354.77	227.18
355.15	227.27
355.54	227.32
355.92	227.35
356.30	227.43
356.68	227.55
357.06	227.64
357.44	227.72
357.82	227.76
358.20	227.86
358.58	227.91
358.97	227.99
359.35	228.11
359.73	228.19
360.11	228.26
360.49	228.35
360.87	228.42
361.25	228.47
361.63	228.57
362.01	228.62
362.39	228.63
362.77	228.69
363.15	228.72
363.53	228.80
363.91	228.86
364.29	228.86
364.67	228.80
365.05	228.78
365.43	228.78
365.81	228.80
366.19	228.83
366.57	228.88
366.95	228.87
367.33	228.81
367.71	228.79
368.09	228.79
368.47	228.75
368.85	228.70
369.23	228.70
369.61	228.64
369.99	228.61
370.37	228.61
370.75	228.58
371.13	228.52
371.51	228.47
371.89	228.42
372.27	228.43
372.65	228.37
373.03	228.29
373.41	228.24
373.78	228.19
374.16	228.07
374.54	227.93
374.92	227.87
375.30	227.80
375.68	227.72
376.06	227.65
376.44	227.56
376.82	227.53
377.19	227.46
377.57	227.38
377.95	227.26
378.33	227.19
378.71	227.10
379.09	227.04
379.47	226.95
379.84	226.87
380.22	226.74
380.60	226.65
380.98	226.61
381.36	226.55
381.73	226.50
382.11	226.45
382.49	226.38
382.87	226.32
383.25	226.28
383.62	226.32
384.00	226.25
384.38	226.17
384.76	226.13
385.13	226.12
385.51	226.06
385.89	226.03
386.27	225.99
386.64	225.95
387.02	225.90
387.40	225.86
387.78	225.85
388.15	225.83
388.53	225.81
388.91	225.77
389.29	225.74
389.66	225.70
390.04	225.71
390.42	225.74
390.79	225.73
391.17	225.71
391.55	225.60
391.92	225.59
392.30	225.63
392.68	225.58
393.05	225.57
393.43	225.56
393.81	225.56
394.18	225.53
394.56	225.56
394.94	225.59
395.31	225.59
395.69	225.63
396.06	225.66
396.44	225.69
396.82	225.74
397.19	225.82
397.57	225.85
397.95	225.86
398.32	225.88
398.70	225.93
399.07	225.97
399.45	226.01
399.82	226.10
400.20	226.16
400.58	226.23
400.95	226.23
401.33	226.36
401.70	226.54
402.08	226.62
402.45	226.68
402.83	226.80
403.20	226.93
403.58	226.99
403.95	227.09
404.33	227.24
404.71	227.35
405.08	227.51
405.46	227.63
405.83	227.79
406.21	227.95
406.58	228.09
406.96	228.27
407.33	228.45
407.70	228.62
408.08	228.90
408.45	229.13
408.83	229.37
409.20	229.57
409.58	229.70
409.95	229.96
410.33	230.23
410.70	230.44
411.08	230.72
411.45	231.04
411.82	231.35
412.20	231.67
412.57	232.08
412.95	232.37
413.32	232.78
413.69	233.18
414.07	233.61
414.44	234.09
414.82	234.54
415.19	235.07
415.56	235.58
415.94	236.09
416.31	236.71
416.68	237.36
417.06	238.07
417.43	238.79
417.81	239.56
418.18	240.34
418.55	241.20
418.93	242.07
419.30	242.98
419.67	243.94
420.04	244.91
420.42	245.90
420.79	247.09
421.16	248.26
421.54	249.44
421.91	250.63
422.28	251.89
422.66	253.23
423.03	254.53
423.40	255.89
423.77	257.32
424.15	258.77
424.52	260.21
424.89	261.83
425.26	263.36
425.64	264.79
426.01	266.34
426.38	267.97
426.75	269.67
427.13	271.36
427.50	273.16
427.87	275.06
428.24	276.91
428.61	278.62
428.99	280.52
429.36	282.60
429.73	284.68
430.10	286.67
430.47	288.72
430.85	290.83
431.22	293.00
431.59	295.32
431.96	297.54
432.33	300.01
432.70	302.35
433.08	305.11
433.45	307.75
433.82	310.38
434.19	313.26
434.56	316.07
434.93	318.71
435.30	321.34
435.68	324.12
436.05	326.93
436.42	329.72
436.79	332.24
437.16	334.91
437.53	337.73
437.90	340.54
438.27	343.25
438.64	346.07
439.01	348.69
439.38	350.89
439.75	353.04
440.13	355.54
440.50	357.86
440.87	359.71
441.24	361.67
441.61	363.81
441.98	365.29
442.35	366.99
442.72	368.83
443.09	370.60
443.46	371.63
443.83	372.22
444.20	372.74
444.57	373.55
444.94	373.85
445.31	374.18
445.68	374.51
446.05	374.64
446.42	374.23
446.79	373.82
447.16	373.43
447.53	373.07
447.90	371.87
448.27	370.70
448.64	369.17
449.01	368.03
449.37	366.08
449.74	364.16
450.11	361.93
450.48	359.45
450.85	356.90
451.22	354.77
451.59	352.72
451.96	350.76
452.33	348.16
452.70	345.82
453.07	343.01
453.43	340.07
453.80	337.26
454.17	334.62
454.54	332.09
454.91	329.36
455.28	326.72
455.65	324.26
456.02	321.82
456.38	319.62
456.75	316.95
457.12	314.70
457.49	312.54
457.86	310.43
458.23	308.61
458.59	306.60
458.96	304.54
459.33	302.71
459.70	300.87
460.07	299.36
460.43	297.65
460.80	296.04
461.17	294.68
461.54	293.23
461.91	291.80
462.27	290.37
462.64	289.16
463.01	287.82
463.38	286.54
463.74	285.20
464.11	284.07
464.48	283.10
464.85	281.98
465.21	281.10
465.58	280.17
465.95	279.07
466.32	278.20
466.68	277.30
467.05	276.41
467.42	275.53
467.78	274.63
468.15	273.74
468.52	273.11
468.88	272.25
469.25	271.49
469.62	270.89
469.98	270.20
470.35	269.56
470.72	268.97
471.08	268.36
471.45	267.85
471.82	267.31
472.18	266.70
472.55	266.29
472.92	265.78
473.28	265.33
473.65	264.92
474.02	264.51
474.38	264.16
474.75	263.87
475.11	263.54
475.48	263.31
475.85	263.13
476.21	262.90
476.58	262.69
476.94	262.56
477.31	262.40
477.67	262.30
478.04	262.16
478.41	262.16
478.77	262.20
479.14	262.12
479.50	262.16
479.87	262.22
480.23	262.30
480.60	262.36
480.96	262.44
481.33	262.64
481.69	262.79
482.06	262.98
482.42	263.15
482.79	263.40
483.15	263.71
483.52	264.07
483.88	264.39
484.25	264.79
484.61	265.19
484.98	265.64
485.34	266.18
485.71	266.81
486.07	267.37
486.44	267.90
486.80	268.63
487.17	269.35
487.53	270.19
487.90	271.07
488.26	272.04
488.62	273.01
488.99	273.98
489.35	275.05
489.72	276.15
490.08	277.37
490.44	278.64
490.81	279.95
491.17	281.29
491.54	282.79
491.90	284.34
492.26	286.00
492.63	287.76
492.99	289.56
493.36	291.42
493.72	293.47
494.08	295.59
494.45	297.85
494.81	300.26
495.17	302.69
495.54	305.25
495.90	307.92
496.26	310.74
496.63	313.72
496.99	316.84
497.35	320.18
497.72	323.59
498.08	327.12
498.44	330.81
498.80	334.77
499.17	338.81
499.53	343.02
499.89	347.41
500.26	351.94
500.62	356.62
500.98	361.67
501.34	366.73
501.71	372.07
502.07	377.52
502.43	383.13
502.79	388.95
503.16	395.08
503.52	401.35
503.88	407.77
504.24	414.45
504.60	421.33
504.97	428.41
505.33	435.79
505.69	443.53
506.05	451.35
506.41	459.19
506.78	467.38
507.14	475.83
507.50	484.55
507.86	493.56
508.22	502.77
508.59	511.94
508.95	521.56
509.31	531.40
509.67	541.52
510.03	551.78
510.39	562.39
510.75	573.14
511.12	584.10
511.48	595.37
511.84	606.72
512.20	618.16
512.56	630.16
512.92	642.31
513.28	654.61
513.64	667.06
514.00	679.83
514.37	692.73
514.73	705.67
515.09	718.72
515.45	731.99
515.81	745.60
516.17	759.58
516.53	773.71
516.89	787.84
517.25	802.03
517.61	816.36
517.97	830.82
518.33	845.27
518.69	860.03
519.05	875.09
519.41	890.32
519.77	905.88
520.13	921.28
520.49	936.58
520.85	951.94
521.21	967.66
521.57	983.75
521.93	999.44
522.29	1015.76
522.65	1031.88
523.01	1047.98
523.37	1063.95
523.73	1080.03
524.09	1096.08
524.45	1112.27
524.81	1128.77
525.17	1145.65
525.53	1162.42
525.89	1179.20
526.25	1195.89
526.61	1212.13
526.97	1228.70
527.33	1245.21
527.68	1261.62
528.04	1278.02
528.40	1294.50
528.76	1311.39
529.12	1327.94
529.48	1344.82
529.84	1360.73
530.20	1377.28
530.56	1394.21
530.91	1411.49
531.27	1428.15
531.63	1444.44
531.99	1460.98
532.35	1476.88
532.71	1492.55
533.07	1508.62
533.42	1524.39
533.78	1540.25
534.14	1556.34
534.50	1571.74
534.86	1587.35
535.21	1602.47
535.57	1618.30
535.93	1633.69
536.29	1648.28
536.65	1663.29
537.00	1677.76
537.36	1692.97
537.72	1707.23
538.08	1721.55
538.44	1735.09
538.79	1748.71
539.15	1762.17
539.51	1775.72
539.87	1789.88
540.22	1803.47
540.58	1817.05
540.94	1830.14
541.29	1842.89
541.65	1855.35
542.01	1868.22
542.37	1880.33
542.72	1892.53
543.08	1904.13
543.44	1916.45
543.79	1927.75
544.15	1938.49
544.51	1950.09
544.87	1960.85
545.22	1971.74
545.58	1981.90
545.94	1991.75
546.29	2001.63
546.65	2011.49
547.01	2020.78
547.36	2029.39
547.72	2037.91
548.07	2045.74
548.43	2053.89
548.79	2061.97
549.14	2069.61
549.50	2077.00
549.86	2084.72
550.21	2092.10
550.57	2099.22
550.92	2105.73
551.28	2112.58
551.64	2119.73
551.99	2126.19
552.35	2132.52
552.70	2138.65
553.06	2144.55
553.41	2150.72
553.77	2156.72
554.13	2162.93
554.48	2168.95
554.84	2174.52
555.19	2179.72
555.55	2184.94
555.90	2189.57
556.26	2194.54
556.61	2199.25
556.97	2203.62
557.32	2207.72
557.68	2211.95
558.03	2216.35
558.39	2220.05
558.74	2224.75
559.10	2228.59
559.45	2232.30
559.81	2236.57
560.16	2240.54
560.52	2243.84
560.87	2247.37
561.23	2250.10
561.58	2252.95
561.94	2255.53
562.29	2257.78
562.64	2260.53
563.00	2263.14
563.35	2266.59
563.71	2269.63
564.06	2272.80
564.42	2275.76
564.77	2278.52
565.12	2280.78
565.48	2282.72
565.83	2284.64
566.19	2285.93
566.54	2286.78
566.89	2288.00
567.25	2288.74
567.60	2289.96
567.96	2291.68
568.31	2292.51
568.66	2293.69
569.02	2294.21
569.37	2294.48
569.72	2295.48
570.08	2295.62
570.43	2295.81
570.78	2295.40
571.14	2293.82
571.49	2292.58
571.84	2292.20
572.20	2291.03
572.55	2290.12
572.90	2288.55
573.26	2287.30
573.61	2285.75
573.96	2284.26
574.31	2281.26
574.67	2278.33
575.02	2274.88
575.37	2271.53
575.72	2267.85
576.08	2264.49
576.43	2261.26
576.78	2257.69
577.13	2254.45
577.49	2251.45
577.84	2247.97
578.19	2244.11
578.54	2240.71
578.90	2236.55
579.25	2231.09
579.60	2226.14
579.95	2221.22
580.30	2216.16
580.66	2210.98
581.01	2206.17
581.36	2201.16
581.71	2197.21
582.06	2192.70
582.42	2188.15
582.77	2183.03
583.12	2178.62
583.47	2174.11
583.82	2169.28
584.17	2164.30
584.53	2158.94
584.88	2153.35
585.23	2147.73
585.58	2142.27
585.93	2136.90
586.28	2132.26
586.63	2127.24
586.98	2122.39
587.34	2117.59
587.69	2112.89
588.04	2107.69
588.39	2101.92
588.74	2095.51
589.09	2089.31
589.44	2082.58
589.79	2076.53
590.14	2071.00
590.49	2064.38
590.84	2057.92
591.19	2051.96
591.54	2045.64
591.89	2038.42
592.25	2031.83
592.60	2024.67
592.95	2017.30
593.30	2010.00
593.65	2002.40
594.00	1995.35
594.35	1988.09
594.70	1980.08
595.05	1972.95
595.40	1965.73
595.75	1958.33
596.10	1952.35
596.45	1945.82
596.80	1939.81
597.15	1933.33
597.50	1926.28
597.85	1919.88
598.19	1913.41
598.54	1906.35
598.89	1899.60
599.24	1893.69
599.59	1887.01
599.94	1880.76
600.29	1874.39
600.64	1867.75
600.99	1860.47
601.34	1853.80
601.69	1846.82
602.04	1840.15
602.39	1832.92
602.74	1826.14
603.08	1819.49
603.43	1812.74
603.78	1805.24
604.13	1798.06
604.48	1790.90
604.83	1784.05
605.18	1777.18
605.53	1769.04
605.87	1761.04
606.22	1753.77
606.57	1745.76
606.92	1738.21
607.27	1730.91
607.62	1723.97
607.96	1716.65
608.31	1710.13
608.66	1702.31
609.01	1694.71
609.36	1687.00
609.70	1678.88
610.05	1670.84
610.40	1663.18
610.75	1654.73
611.10	1647.25
611.44	1638.74
611.79	1630.68
612.14	1621.97
612.49	1612.62
612.83	1604.31
613.18	1596.27
613.53	1588.21
613.88	1579.80
614.22	1571.64
614.57	1563.12
614.92	1555.12
615.27	1547.74
615.61	1539.30
615.96	1531.41
616.31	1523.76
616.65	1516.52
617.00	1508.98
617.35	1501.19
617.70	1492.86
618.04	1484.39
618.39	1476.02
618.74	1468.47
619.08	1460.13
619.43	1452.52
619.78	1445.77
620.12	1438.57
620.47	1430.90
620.82	1422.71
621.16	1415.25
621.51	1407.68
621.85	1400.08
622.20	1391.62
622.55	1383.23
622.89	1375.35
623.24	1367.71
623.59	1360.31
623.93	1352.77
624.28	1345.58
624.62	1338.17
624.97	1330.98
625.32	1324.22
625.66	1317.24
626.01	1310.02
626.35	1302.58
626.70	1294.82
627.04	1287.05
627.39	1279.31
627.73	1272.00
628.08	1265.13
628.43	1257.95
628.77	1250.56
629.12	1242.94
629.46	1235.80
629.81	1228.29
630.15	1221.12
630.50	1213.69
630.84	1205.54
631.19	1197.58
631.53	1190.01
631.88	1182.38
632.22	1174.74
632.57	1167.44
632.91	1159.97
633.26	1152.62
633.60	1145.24
633.95	1138.09
634.29	1131.08
634.64	1124.46
634.98	1117.10
635.32	1109.91
635.67	1103.19
636.01	1096.55
636.36	1089.84
636.70	1083.36
637.05	1076.79
637.39	1070.28
637.73	1063.80
638.08	1057.96
638.42	1052.00
638.77	1045.59
639.11	1039.05
639.45	1032.68
639.80	1026.02
640.14	1019.63
640.49	1013.04
640.83	1006.79
641.17	1000.66
641.52	994.28
641.86	987.71
642.20	981.83
642.55	975.52
642.89	969.04
643.23	962.56
643.58	956.81
643.92	950.60
644.26	944.63
644.61	938.61
644.95	932.59
645.29	925.98
645.64	919.19
645.98	912.91
646.32	907.09
646.66	901.06
647.01	895.32
647.35	889.55
647.69	883.71
648.04	878.13
648.38	872.24
648.72	866.26
649.06	860.27
649.41	854.37
649.75	848.52
650.09	842.62
650.43	836.82
650.78	830.69
651.12	824.74
651.46	818.94
651.80	813.18
652.14	807.77
652.49	802.37
652.83	797.22
653.17	791.48
653.51	785.65
653.85	780.19
654.20	774.51
654.54	768.53
654.88	762.83
655.22	756.99
655.56	751.40
655.90	746.01
656.25	740.77
656.59	735.39
656.93	730.17
657.27	724.97
657.61	719.48
657.95	714.31
658.29	709.17
658.64	703.86
658.98	698.67
659.32	693.17
659.66	687.97
660.00	682.66
660.34	677.66
660.68	672.82
661.02	667.82
661.36	663.09
661.70	658.58
662.05	654.22
662.39	649.82
662.73	645.33
663.07	640.85
663.41	636.43
663.75	631.98
664.09	627.41
664.43	622.99
664.77	618.92
665.11	614.66
665.45	610.50
665.79	606.45
666.13	602.23
666.47	598.20
666.81	594.07
667.15	589.95
667.49	586.06
667.83	582.22
668.17	578.27
668.51	574.27
668.85	570.23
669.19	566.34
669.53	562.61
669.87	558.73
670.21	555.08
670.55	551.43
670.89	547.97
671.23	544.53
671.57	541.06
671.91	537.51
672.25	534.05
672.58	530.60
672.92	527.21
673.26	524.08
673.60	520.91
673.94	517.79
674.28	514.85
674.62	511.95
674.96	508.85
675.30	505.95
675.64	502.93
675.97	500.12
676.31	497.27
676.65	494.26
676.99	491.53
677.33	488.68
677.67	485.80
678.01	482.79
678.34	479.79
678.68	476.93
679.02	474.13
679.36	471.34
679.70	468.57
680.04	465.82
680.37	462.88
680.71	460.08
681.05	457.46
681.39	454.74
681.73	452.10
682.06	449.63
682.40	447.13
682.74	444.62
683.08	442.07
683.42	439.43
683.75	436.97
684.09	434.39
684.43	431.90
684.77	429.47
685.10	427.09
685.44	424.83
685.78	422.49
686.12	420.20
686.45	417.88
686.79	415.58
687.13	413.36
687.46	411.22
687.80	409.03
688.14	406.80
688.48	404.75
688.81	402.46
689.15	400.27
689.49	398.04
689.82	395.94
690.16	393.88
690.50	391.91
690.83	389.94
691.17	388.02
691.51	386.14
691.84	384.28
692.18	382.37
692.52	380.36
692.85	378.45
693.19	376.60
693.52	374.79
693.86	372.99
694.20	371.22
694.53	369.41
694.87	367.55
695.21	365.77
695.54	363.96
695.88	362.27
696.21	360.55
696.55	358.89
696.88	357.24
697.22	355.57
697.56	353.98
697.89	352.32
698.23	350.70
698.56	349.04
698.90	347.48
699.23	345.78
699.57	344.24
699.90	342.68
700.24	341.10
700.58	339.57
700.91	338.07
701.25	336.61
701.58	335.22
701.92	333.87
702.25	332.51
702.59	331.15
702.92	329.76
703.26	328.44
703.59	327.17
703.93	325.96
704.26	324.72
704.60	323.40
704.93	322.09
705.26	320.84
705.60	319.66
705.93	318.46
706.27	317.46
706.60	316.42
706.94	315.36
707.27	314.23
707.61	313.20
707.94	312.15
708.27	311.04
708.61	309.97
708.94	308.95
709.28	307.94
709.61	306.99
709.94	306.07
710.28	305.01
710.61	304.02
710.95	302.92
711.28	301.98
711.61	301.04
711.95	300.19
712.28	299.26
712.61	298.25
712.95	297.31
713.28	296.43
713.61	295.53
713.95	294.58
714.28	293.77
714.61	292.90
714.95	292.06
715.28	291.22
715.61	290.36
715.95	289.50
716.28	288.65
716.61	287.77
716.95	286.95
717.28	286.20
717.61	285.44
717.94	284.73
718.28	283.94
718.61	283.22
718.94	282.51
719.27	281.80
719.61	281.19
719.94	280.55
720.27	279.80
720.60	279.12
720.94	278.57
721.27	277.93
721.60	277.33
721.93	276.70
722.27	276.15
722.60	275.58
722.93	275.00
723.26	274.47
723.59	273.93
723.93	273.38
724.26	272.83
724.59	272.26
724.92	271.73
725.25	271.22
725.59	270.70
725.92	270.21
726.25	269.72
726.58	269.19
726.91	268.67
727.24	268.22
727.57	267.74
727.91	267.18
728.24	266.73
728.57	266.23
728.90	265.81
729.23	265.33
729.56	264.90
729.89	264.46
730.22	263.94
730.55	263.47
730.89	263.02
731.22	262.58
731.55	262.15
731.88	261.74
732.21	261.29
732.54	260.85
732.87	260.41
733.20	260.04
733.53	259.66
733.86	259.32
734.19	258.93
734.52	258.55
734.85	258.27
735.18	257.83
735.51	257.45
735.84	257.06
736.17	256.72
736.50	256.30
736.83	256.04
737.16	255.73
737.49	255.42
737.82	255.05
738.15	254.71
738.48	254.35
738.81	253.99
739.14	253.67
739.47	253.34
739.80	252.99
740.13	252.66
740.46	252.35
740.79	252.01
741.12	251.72
741.45	251.38
741.78	251.02
742.11	250.75
742.44	250.43
742.77	250.15
743.10	249.83
743.43	249.53
743.75	249.16
744.08	249.04
744.41	248.74
744.74	248.53
745.07	248.27
745.40	248.06
745.73	247.85
746.06	247.58
746.39	247.34
746.71	247.08
747.04	246.82
747.37	246.56
747.70	246.29
748.03	246.03
748.36	245.85
748.68	245.61
749.01	245.37
749.34	245.19
749.67	244.97
750.00	244.78
750.33	244.63
750.65	244.43
750.98	244.05
751.31	243.85
751.64	243.61
751.97	243.45
752.29	243.23
752.62	242.98
752.95	242.81
753.28	242.65
753.60	242.49
753.93	242.34
754.26	242.16
754.59	241.93
754.91	241.78
755.24	241.59
755.57	241.40
755.90	241.21
756.22	240.98
756.55	240.79
756.88	240.59
757.20	240.37
757.53	240.21
757.86	240.06
758.19	239.92
758.51	239.78
758.84	239.55
759.17	239.38
759.49	239.24
759.82	239.13
760.15	238.96
760.47	238.78
760.80	238.59
761.13	238.45
761.45	238.34
761.78	238.13
762.11	237.97
762.43	237.85
762.76	237.71
763.08	237.57
763.41	237.40
763.74	237.25
764.06	237.11
764.39	236.95
764.71	236.77
765.04	236.60
765.37	236.43
765.69	236.31
766.02	236.16
766.34	236.01
766.67	235.83
767.00	235.69
767.32	235.59
767.65	235.52
767.97	235.36
768.30	235.21
768.62	235.09
768.95	234.99
769.27	234.87
769.60	234.77
769.92	234.67
770.25	234.57
770.57	234.45
770.90	234.34
771.22	234.19
771.55	234.10
771.87	233.97
772.20	233.83
772.52	233.81
772.85	233.84
773.17	233.75
773.50	233.66
773.82	233.55
774.15	233.43
774.47	233.28
774.80	233.21
775.12	233.12
775.45	233.04
775.77	232.94
776.09	232.82
776.42	232.72
776.74	232.67
777.07	232.58
777.39	232.51
777.72	232.38
778.04	232.36
778.36	232.33
778.69	232.30
779.01	232.26
779.33	232.12
779.66	231.94
779.98	231.86
780.31	231.77
780.63	231.78
780.95	231.72
781.28	231.66
781.60	231.58
781.92	231.53
782.25	231.47
782.57	231.42
782.89	231.39
783.22	231.35
783.54	231.26
783.86	231.24
784.19	231.19
784.51	231.18
784.83	231.11
785.16	231.07
785.48	230.99
785.80	230.97
786.12	230.92
786.45	230.88
786.77	230.81
787.09	230.78
787.42	230.68
787.74	230.67
788.06	230.63
788.38	230.59
788.71	230.57
789.03	230.52
789.35	230.47
789.67	230.41
789.99	230.37
790.32	230.33
790.64	230.30
790.96	230.32
791.28	230.27
791.61	230.21
791.93	230.16
792.25	230.12
792.57	230.15
792.89	230.09
793.21	230.05
793.54	230.02
793.86	229.97
794.18	229.96
794.50	229.86
794.82	229.83
795.14	229.80
795.47	229.76
795.79	229.75
796.11	229.70
796.43	229.67
796.75	229.61
797.07	229.59
797.39	229.52
797.71	229.41
798.04	229.41
798.36	229.37
798.68	229.34
799.00	229.32
799.32	229.18
799.64	229.18
799.96	229.14
800.28	229.09
800.60	229.07
800.92	229.03
801.24	229.04
801.56	229.03
801.89	229.01
802.21	228.97
802.53	228.91
802.85	228.90
803.17	228.91
803.49	228.88
803.81	228.84
804.13	228.81
804.45	228.79
804.77	228.72
805.09	228.71
805.41	228.67
805.73	228.62
806.05	228.62
806.37	228.57
806.69	228.52
807.01	228.50
807.33	228.47
807.65	228.39
807.97	228.41
808.28	228.40
808.60	228.38
808.92	228.37
809.24	228.40
809.56	228.36
809.88	228.28
810.20	228.26
810.52	228.24
810.84	228.20
811.16	228.16
811.48	228.13
811.80	228.13
812.12	228.09
812.43	228.09
812.75	228.07
813.07	228.04
813.39	228.01
813.71	228.00
814.03	227.95
814.35	227.94
814.67	227.88
814.98	227.82
815.30	227.79
815.62	227.74
815.94	227.66
816.26	227.67
816.58	227.64
816.89	227.64
817.21	227.61
817.53	227.59
817.85	227.59
818.17	227.55
818.48	227.51
818.80	227.47
819.12	227.45
819.44	227.42
819.76	227.41
820.07	227.42
820.39	227.42
820.71	227.43
821.03	227.41
821.34	227.39
821.66	227.37
821.98	227.35
822.30	227.38
822.61	227.45
822.93	227.39
823.25	227.37
823.57	227.37
823.88	227.42
824.20	227.41
824.52	227.44
824.83	227.43
825.15	227.42
825.47	227.45
825.79	227.44
826.10	227.42
826.42	227.43
826.74	227.42
827.05	227.41
827.37	227.42
827.69	227.42
828.00	227.40
828.32	227.41
828.64	227.40
828.95	227.41
829.27	227.38
829.58	227.38
829.90	227.41
830.22	227.37
830.53	227.30
830.85	227.31
831.17	227.30
831.48	227.33
831.80	227.35
832.11	227.34
832.43	227.32
832.75	227.35
833.06	227.36
833.38	227.38
833.69	227.35
834.01	227.32
834.32	227.31
834.64	227.30
834.96	227.27
835.27	227.26
835.59	227.23
835.90	227.23
836.22	227.24
836.53	227.21
836.85	227.22
837.16	227.35
837.48	227.34
837.79	227.32
838.11	227.31
838.42	227.29
838.74	227.32
839.05	227.32
839.37	227.31
839.68	227.26
840.00	227.21
840.31	227.25
840.63	227.24
840.94	227.26
841.26	227.24
841.57	227.25
841.88	227.26
842.20	227.23
842.51	227.17
842.83	227.15
843.14	227.23
843.46	227.24
843.77	227.13
844.08	227.09
844.40	227.04
844.71	227.01
845.03	226.98
845.34	226.93
845.65	226.90
845.97	226.86
846.28	226.85
846.60	226.86
846.91	226.85
847.22	226.84
847.54	226.82
847.85	226.84
848.16	226.77
848.48	226.71
848.79	226.71
849.10	226.72
849.42	226.70
849.73	226.61
850.04	226.56
850.36	226.55
850.67	226.62
850.98	226.61
851.30	226.59
851.61	226.60
851.92	226.57
852.23	226.61
852.55	226.60
852.86	226.59
853.17	226.57
853.49	226.56
853.80	226.59
854.11	226.56
854.42	226.57
854.74	226.59
855.05	226.61
855.36	226.60
855.67	226.58
855.99	226.61
856.30	226.70
856.61	226.68
856.92	226.64
857.23	226.59
857.55	226.60
857.86	226.62
858.17	226.63
858.48	226.62
858.79	226.59
859.11	226.59
859.42	226.63
859.73	226.61
860.04	226.59
860.35	226.57
860.66	226.57
860.98	226.58
861.29	226.61
861.60	226.58
861.91	226.63
862.22	226.63
862.53	226.59
862.84	226.45
863.16	226.50
863.47	226.50
863.78	226.51
864.09	226.52
864.40	226.50
864.71	226.49
865.02	226.49
865.33	226.50
865.64	226.48
865.95	226.48
866.27	226.53
866.58	226.53
866.89	226.51
867.20	226.51
867.51	226.47
867.82	226.46
868.13	226.51
868.44	226.45
868.75	226.46
869.06	226.48
869.37	226.52
869.68	226.46
869.99	226.49
870.30	226.48
870.61	226.48
870.92	226.46
871.23	226.46
871.54	226.50
871.85	226.51
872.16	226.55
872.47	226.53
872.78	226.49
873.09	226.50
873.40	226.50
873.71	226.52
874.02	226.52
874.33	226.50
874.64	226.48
874.95	226.48
875.26	226.45
875.56	226.43
875.87	226.42
876.18	226.45
876.49	226.55
876.80	226.56
877.11	226.52
877.42	226.51
877.73	226.50
878.04	226.47
878.35	226.47
878.66	226.43
878.96	226.44
879.27	226.43
879.58	226.43
879.89	226.43
880.20	226.43
880.51	226.42
880.82	226.39
881.12	226.37
881.43	226.38
881.74	226.37
882.05	226.36
882.36	226.34
882.67	226.34
882.97	226.20
883.28	226.14
883.59	226.14
883.90	226.21
884.21	226.21
884.51	226.17
884.82	226.13
885.13	226.11
885.44	226.10
885.74	226.08
886.05	226.05
886.36	226.05
886.67	226.04
886.98	226.07
887.28	226.08
887.59	226.08
887.90	226.08
888.20	226.08
888.51	226.12
888.82	226.09
889.13	226.10
889.43	226.18
889.74	226.20
890.05	226.18
890.35	226.13
890.66	226.12
890.97	226.16
891.28	226.15
891.58	226.17
891.89	226.14
892.20	226.12
892.50	226.11
892.81	226.10
893.12	226.11
893.42	226.07
893.73	226.09
894.04	226.06
894.34	226.06
894.65	226.05
894.95	226.04
895.26	226.09
895.57	226.11
895.87	226.01
896.18	226.06
896.48	226.09
896.79	226.10
897.10	226.14
897.40	226.13
897.71	226.14
898.01	226.15
898.32	226.17
898.63	226.23
898.93	226.22
899.24	226.23
899.54	226.19
899.85	226.17
900.15	226.16
900.46	226.17
900.76	226.16
901.07	226.18
901.38	226.15
901.68	226.14
901.99	226.09
902.29	226.11
902.60	226.07
902.90	226.06
903.21	226.07
903.51	226.04
903.82	226.06
904.12	226.08
904.43	226.09
904.73	226.07
905.03	226.08
905.34	226.18
905.64	226.16
905.95	226.20
906.25	226.23
906.56	226.19
906.86	226.19
907.17	226.19
907.47	226.22
907.77	226.23
908.08	226.25
908.38	226.26
908.69	226.27
908.99	226.32
909.30	226.32
909.60	226.30
909.90	226.30
910.21	226.25
910.51	226.22
910.81	226.22
911.12	226.21
911.42	226.16
911.73	226.08
912.03	226.09
912.33	226.06
912.64	226.07
912.94	226.06
913.24	226.09
913.55	226.09
913.85	226.06
914.15	226.07
914.46	226.03
914.76	226.01
915.06	226.00
915.37	225.95
915.67	225.94
915.97	225.96
916.27	225.96
916.58	225.98
916.88	225.97
917.18	225.94
917.49	226.02
917.79	226.01
918.09	226.01
918.39	226.00
918.70	226.03
919.00	226.01
919.30	226.08
919.60	226.05
919.91	226.06
920.21	226.08
920.51	226.04
920.81	226.04
921.12	226.06
921.42	226.08
921.72	226.11
922.02	226.09
922.32	226.05
922.63	226.01
922.93	226.07
923.23	226.09
923.53	226.08
923.83	226.01
924.13	226.04
924.44	226.01
924.74	226.04
925.04	226.06
925.34	226.04
925.64	226.01
925.94	225.99
926.24	226.04
926.55	226.01
926.85	226.04
927.15	226.03
927.45	226.03
927.75	226.02
928.05	225.99
928.35	225.99
928.65	226.02
928.95	226.05
929.26	225.98
929.56	226.01
929.86	226.06
930.16	226.02
930.46	225.99
930.76	226.00
931.06	225.97
931.36	225.91
931.66	225.94
931.96	225.91
932.26	225.93
932.56	225.87
932.86	225.86
933.16	225.84
933.46	225.82
933.76	225.81
934.06	225.83
934.36	225.90
934.66	225.89
934.96	225.89
935.26	225.88
935.56	225.90
935.86	225.86
936.16	225.81
936.46	225.85
936.76	225.88
937.06	225.91
937.36	225.92
937.66	225.96
937.96	225.94
938.26	225.95
938.56	225.94
938.86	225.95
939.16	225.98
939.46	226.01
939.76	226.05
940.06	226.04
940.35	226.03
940.65	225.96
940.95	225.99
941.25	225.99
941.55	225.99
941.85	225.98
942.15	225.98
942.45	226.02
942.75	226.03
943.04	226.02
943.34	226.00
943.64	226.00
943.94	225.98
944.24	226.02
944.54	226.03
944.84	226.08
945.13	226.09
945.43	226.09
945.73	226.07
946.03	226.09
946.33	226.10
946.62	226.09
946.92	226.08
947.22	226.07
947.52	226.07
947.82	226.12
948.11	226.09
948.41	226.09
948.71	226.08
949.01	226.07
949.31	226.08
949.60	226.10
949.90	226.10
950.20	226.10
950.50	226.09
950.79	226.10
951.09	226.09
951.39	226.08
951.69	226.08
951.98	226.10
952.28	226.06
952.58	226.06
952.87	226.08
953.17	226.11
953.47	226.11
953.76	226.12
954.06	226.09
954.36	226.11
954.66	226.13
954.95	226.15
955.25	226.16
955.55	226.18
955.84	226.17
956.14	226.21
956.44	226.22
956.73	226.20
957.03	226.20
957.32	226.19
957.62	226.14
957.92	226.18
958.21	226.19
958.51	226.31
958.81	226.33
959.10	226.35
959.40	226.36
959.69	226.35
959.99	226.37
960.29	226.39
960.58	226.37
960.88	226.41
961.17	226.41
961.47	226.39
961.76	226.38
962.06	226.36
962.36	226.31
962.65	226.30
962.95	226.26
963.24	226.21
963.54	226.24
963.83	226.27
964.13	226.23
964.42	226.17
964.72	226.07
965.01	226.05
965.31	226.01
965.60	225.98
965.90	226.03
966.19	225.97
966.49	225.95
966.78	225.93
967.08	225.92
967.37	225.89
967.67	225.88
967.96	225.89
968.26	225.91
968.55	225.90
968.85	225.90
969.14	225.92
969.43	225.91
969.73	225.87
970.02	225.88
970.32	225.90
970.61	225.88
970.91	225.87
971.20	225.83
971.49	225.82
971.79	225.80
972.08	225.75
972.38	225.78
972.67	225.76
972.96	225.83
973.26	225.81
973.55	225.84
973.85	225.83
974.14	225.81
974.43	225.79
974.73	225.80
975.02	225.81
975.31	225.81
975.61	225.84
975.90	225.81
976.19	225.81
976.49	225.80
976.78	225.84
977.07	225.87
977.37	225.90
977.66	225.95
977.95	225.94
978.24	225.96
978.54	225.98
978.83	225.99
979.12	225.91
979.42	225.91
979.71	225.92
980.00	225.93
980.29	225.95
980.59	225.96
980.88	225.97
981.17	225.98
981.46	226.01
981.76	226.02
982.05	226.09
982.34	226.08
982.63	226.12
982.93	226.14
983.22	226.11
983.51	226.14
983.80	226.15
984.09	226.20
984.39	226.17
984.68	226.19
984.97	226.19
985.26	226.24
985.55	226.24
985.85	226.21
986.14	226.21
986.43	226.22
986.72	226.21
987.01	226.18
987.30	226.17
987.59	226.16
987.89	226.15
988.18	226.11
988.47	226.11
988.76	226.06
989.05	226.02
989.34	226.04
989.63	226.06
989.92	226.01
990.22	226.01
990.51	226.01
990.80	225.99
991.09	225.98
991.38	225.97
991.67	225.98
991.96	225.96
992.25	225.99
992.54	225.98
992.83	226.00
993.12	226.01
993.41	226.02
993.70	226.03
993.99	226.06
994.28	226.08
994.58	226.11
994.87	226.10
995.16	226.12
995.45	226.06
995.74	226.02
996.03	226.04
996.32	226.05
996.61	226.08
996.90	226.06
997.19	226.06
997.48	226.08
997.77	226.04
998.06	226.06
998.34	226.03
998.63	225.99
998.92	225.96
999.21	225.97
999.50	225.94
999.79	225.93
1000.08	225.93
1000.37	225.91
1000.66	225.84
1000.95	225.86
1001.24	225.85
1001.53	225.87
1001.82	225.87
1002.11	225.85
1002.40	225.84
1002.68	225.85
1002.97	225.93
1003.26	225.91
1003.55	225.88
1003.84	225.87
1004.13	225.87
1004.42	225.83
1004.71	225.84
1004.99	225.83
1005.28	225.81
1005.57	225.85
1005.86	225.83
1006.15	225.79
1006.44	225.77
1006.72	225.80
1007.01	225.82
1007.30	225.84
1007.59	225.84
1007.88	225.80
1008.17	225.81
1008.45	225.76
1008.74	225.72
1009.03	225.66
1009.32	225.65
1009.60	225.66
1009.89	225.67
1010.18	225.65
1010.47	225.68
1010.76	225.65
1011.04	225.67
1011.33	225.69
1011.62	225.67
1011.91	225.66
1012.19	225.68
1012.48	225.70
1012.77	225.72
1013.05	225.75
1013.34	225.75
1013.63	225.75
1013.92	225.77
1014.20	225.79
1014.49	225.86
1014.78	225.84
1015.06	225.83
1015.35	225.87
1015.64	225.88
1015.92	225.87
1016.21	225.89
1016.50	225.89
1016.78	225.94
1017.07	225.92
1017.36	225.93
1017.64	225.92
1017.93	225.96
1018.22	225.93
1018.50	225.92
1018.79	225.91
1019.08	225.84
1019.36	225.83
1019.65	225.82
1019.93	225.87
1020.22	225.86
1020.51	225.87
1020.79	225.88
1021.08	225.05
1021.36	225.79
1021.65	225.83
1021.94	225.47
1022.22	225.83
1022.51	225.69
1022.79	226.90
1023.08	225.60
1023.36	226.99
1023.65	225.71
>>>>>End Processed Spectral Data<<<<<
