SpectraSuite Data File
++++++++++++++++++++++++++++++++++++
Date: Fri Feb 01 17:09:57 EST 2013
User: group
Dark Spectrum Present: No
Reference Spectrum Present: No
Number of Sampled Component Spectra: 1
Spectrometers: USB2E7196
Integration Time (usec): 35000 (USB2E7196)
Spectra Averaged: 100 (USB2E7196)
Boxcar Smoothing: 10 (USB2E7196)
Correct for Electrical Dark: No (USB2E7196)
Strobe/Lamp Enabled: No (USB2E7196)
Correct for Detector Non-linearity: No (USB2E7196)
Correct for Stray Light: No (USB2E7196)
Number of Pixels in Processed Spectrum: 2048
>>>>>Begin Processed Spectral Data<<<<<
339.09	0.00
339.48	213.78
339.86	215.36
340.24	216.21
340.63	217.86
341.01	221.12
341.39	220.52
341.78	221.17
342.16	223.09
342.54	223.83
342.93	211.98
343.31	222.69
343.69	223.24
344.07	223.70
344.46	224.14
344.84	224.52
345.22	224.70
345.60	224.96
345.99	225.19
346.37	225.30
346.75	225.39
347.13	225.43
347.52	225.48
347.90	225.53
348.28	225.57
348.66	225.63
349.05	225.61
349.43	225.67
349.81	225.73
350.19	225.76
350.57	225.77
350.96	225.85
351.34	225.94
351.72	226.02
352.10	226.13
352.48	226.19
352.87	226.21
353.25	226.30
353.63	226.35
354.01	226.38
354.39	226.45
354.77	226.53
355.15	226.61
355.54	226.64
355.92	226.68
356.30	226.72
356.68	226.81
357.06	226.86
357.44	226.91
357.82	226.97
358.20	227.03
358.58	227.12
358.97	227.18
359.35	227.24
359.73	227.29
360.11	227.30
360.49	227.33
360.87	227.36
361.25	227.39
361.63	227.41
362.01	227.47
362.39	227.49
362.77	227.51
363.15	227.53
363.53	227.55
363.91	227.58
364.29	227.62
364.67	227.55
365.05	227.57
365.43	227.57
365.81	227.57
366.19	227.61
366.57	227.62
366.95	227.61
367.33	227.58
367.71	227.57
368.09	227.57
368.47	227.57
368.85	227.58
369.23	227.58
369.61	227.53
369.99	227.50
370.37	227.52
370.75	227.55
371.13	227.51
371.51	227.48
371.89	227.43
372.27	227.38
372.65	227.32
373.03	227.29
373.41	227.24
373.78	227.17
374.16	227.07
374.54	227.00
374.92	226.95
375.30	226.90
375.68	226.82
376.06	226.77
376.44	226.68
376.82	226.63
377.19	226.56
377.57	226.50
377.95	226.45
378.33	226.37
378.71	226.24
379.09	226.23
379.47	226.18
379.84	226.11
380.22	226.01
380.60	225.97
380.98	225.90
381.36	225.88
381.73	225.83
382.11	225.76
382.49	225.75
382.87	225.68
383.25	225.63
383.62	225.70
384.00	225.63
384.38	225.60
384.76	225.57
385.13	225.58
385.51	225.55
385.89	225.49
386.27	225.44
386.64	225.42
387.02	225.37
387.40	225.36
387.78	225.34
388.15	225.35
388.53	225.28
388.91	225.25
389.29	225.19
389.66	225.19
390.04	225.21
390.42	225.18
390.79	225.16
391.17	225.15
391.55	225.02
391.92	225.05
392.30	225.04
392.68	225.02
393.05	225.00
393.43	225.03
393.81	225.04
394.18	225.03
394.56	225.02
394.94	225.06
395.31	225.05
395.69	225.08
396.06	225.14
396.44	225.21
396.82	225.26
397.19	225.34
397.57	225.35
397.95	225.41
398.32	225.40
398.70	225.42
399.07	225.50
399.45	225.53
399.82	225.59
400.20	225.65
400.58	225.71
400.95	225.71
401.33	225.77
401.70	225.89
402.08	225.99
402.45	226.07
402.83	226.16
403.20	226.26
403.58	226.37
403.95	226.45
404.33	226.57
404.71	226.65
405.08	226.79
405.46	226.92
405.83	227.04
406.21	227.19
406.58	227.40
406.96	227.54
407.33	227.71
407.70	227.84
408.08	228.09
408.45	228.33
408.83	228.58
409.20	228.79
409.58	228.95
409.95	229.22
410.33	229.47
410.70	229.70
411.08	230.00
411.45	230.26
411.82	230.54
412.20	230.85
412.57	231.28
412.95	231.58
413.32	231.97
413.69	232.38
414.07	232.81
414.44	233.22
414.82	233.71
415.19	234.23
415.56	234.78
415.94	235.32
416.31	235.91
416.68	236.52
417.06	237.23
417.43	237.93
417.81	238.67
418.18	239.47
418.55	240.28
418.93	241.15
419.30	242.07
419.67	243.02
420.04	243.97
420.42	244.92
420.79	246.12
421.16	247.24
421.54	248.42
421.91	249.68
422.28	250.97
422.66	252.30
423.03	253.63
423.40	254.98
423.77	256.42
424.15	257.80
424.52	259.33
424.89	260.95
425.26	262.50
425.64	263.94
426.01	265.54
426.38	267.22
426.75	268.91
427.13	270.64
427.50	272.46
427.87	274.38
428.24	276.29
428.61	278.02
428.99	279.99
429.36	282.07
429.73	284.08
430.10	286.13
430.47	288.17
430.85	290.29
431.22	292.53
431.59	294.89
431.96	297.22
432.33	299.64
432.70	301.97
433.08	304.79
433.45	307.42
433.82	310.03
434.19	312.90
434.56	315.68
434.93	318.28
435.30	320.87
435.68	323.74
436.05	326.51
436.42	329.30
436.79	331.84
437.16	334.54
437.53	337.36
437.90	340.13
438.27	342.86
438.64	345.69
439.01	348.25
439.38	350.43
439.75	352.54
440.13	355.03
440.50	357.37
440.87	359.22
441.24	361.19
441.61	363.30
441.98	364.78
442.35	366.56
442.72	368.50
443.09	370.31
443.46	371.27
443.83	371.89
444.20	372.33
444.57	373.11
444.94	373.42
445.31	373.78
445.68	374.16
446.05	374.28
446.42	373.87
446.79	373.44
447.16	373.02
447.53	372.74
447.90	371.60
448.27	370.43
448.64	368.78
449.01	367.65
449.37	365.73
449.74	363.85
450.11	361.64
450.48	359.12
450.85	356.59
451.22	354.42
451.59	352.41
451.96	350.51
452.33	347.94
452.70	345.58
453.07	342.76
453.43	339.84
453.80	337.07
454.17	334.41
454.54	331.90
454.91	329.18
455.28	326.50
455.65	324.03
456.02	321.64
456.38	319.50
456.75	316.81
457.12	314.54
457.49	312.30
457.86	310.07
458.23	308.22
458.59	306.17
458.96	304.14
459.33	302.28
459.70	300.44
460.07	298.96
460.43	297.23
460.80	295.62
461.17	294.18
461.54	292.66
461.91	291.22
462.27	289.76
462.64	288.54
463.01	287.17
463.38	285.84
463.74	284.45
464.11	283.32
464.48	282.31
464.85	281.23
465.21	280.38
465.58	279.53
465.95	278.44
466.32	277.57
466.68	276.70
467.05	275.83
467.42	274.93
467.78	274.01
468.15	273.15
468.52	272.52
468.88	271.67
469.25	270.91
469.62	270.34
469.98	269.68
470.35	269.07
470.72	268.54
471.08	267.91
471.45	267.38
471.82	266.90
472.18	266.33
472.55	265.92
472.92	265.42
473.28	264.97
473.65	264.52
474.02	264.06
474.38	263.71
474.75	263.38
475.11	263.05
475.48	262.78
475.85	262.61
476.21	262.37
476.58	262.25
476.94	262.12
477.31	261.96
477.67	261.85
478.04	261.75
478.41	261.68
478.77	261.76
479.14	261.72
479.50	261.73
479.87	261.82
480.23	261.86
480.60	261.94
480.96	262.04
481.33	262.28
481.69	262.52
482.06	262.71
482.42	262.92
482.79	263.19
483.15	263.53
483.52	263.89
483.88	264.25
484.25	264.63
484.61	265.08
484.98	265.52
485.34	266.05
485.71	266.66
486.07	267.24
486.44	267.81
486.80	268.50
487.17	269.24
487.53	270.02
487.90	270.90
488.26	271.86
488.62	272.86
488.99	273.81
489.35	274.86
489.72	275.98
490.08	277.20
490.44	278.45
490.81	279.79
491.17	281.13
491.54	282.61
491.90	284.11
492.26	285.71
492.63	287.45
492.99	289.21
493.36	291.09
493.72	293.18
494.08	295.24
494.45	297.49
494.81	299.84
495.17	302.28
495.54	304.87
495.90	307.50
496.26	310.27
496.63	313.20
496.99	316.27
497.35	319.50
497.72	322.89
498.08	326.41
498.44	330.07
498.80	333.99
499.17	337.99
499.53	342.11
499.89	346.52
500.26	350.97
500.62	355.61
500.98	360.53
501.34	365.51
501.71	370.80
502.07	376.23
502.43	381.81
502.79	387.53
503.16	393.44
503.52	399.69
503.88	406.02
504.24	412.62
504.60	419.44
504.97	426.53
505.33	433.80
505.69	441.46
506.05	449.15
506.41	456.90
506.78	465.00
507.14	473.36
507.50	481.92
507.86	490.85
508.22	499.92
508.59	509.02
508.95	518.51
509.31	528.19
509.67	538.11
510.03	548.21
510.39	558.72
510.75	569.44
511.12	580.20
511.48	591.39
511.84	602.72
512.20	614.08
512.56	625.77
512.92	637.71
513.28	649.80
513.64	662.04
514.00	674.56
514.37	687.31
514.73	700.23
515.09	713.09
515.45	726.18
515.81	739.58
516.17	753.30
516.53	767.27
516.89	781.20
517.25	795.15
517.61	809.35
517.97	823.49
518.33	837.66
518.69	852.17
519.05	866.83
519.41	881.72
519.77	896.96
520.13	912.15
520.49	927.28
520.85	942.37
521.21	957.81
521.57	973.76
521.93	989.07
522.29	1005.02
522.65	1020.91
523.01	1036.72
523.37	1052.45
523.73	1068.20
524.09	1083.85
524.45	1099.83
524.81	1116.04
525.17	1132.35
525.53	1148.87
525.89	1165.43
526.25	1181.76
526.61	1197.85
526.97	1214.20
527.33	1230.26
527.68	1246.45
528.04	1262.58
528.40	1278.76
528.76	1295.37
529.12	1311.45
529.48	1328.06
529.84	1343.71
530.20	1359.87
530.56	1376.42
530.91	1393.34
531.27	1409.80
531.63	1425.94
531.99	1442.05
532.35	1457.77
532.71	1473.42
533.07	1489.18
533.42	1504.67
533.78	1520.45
534.14	1536.28
534.50	1551.29
534.86	1566.77
535.21	1581.52
535.57	1597.00
535.93	1612.14
536.29	1626.53
536.65	1641.29
537.00	1655.61
537.36	1670.56
537.72	1684.75
538.08	1698.91
538.44	1712.35
538.79	1725.88
539.15	1739.05
539.51	1752.56
539.87	1766.52
540.22	1779.81
540.58	1793.34
540.94	1806.27
541.29	1818.83
541.65	1831.18
542.01	1843.96
542.37	1856.06
542.72	1868.29
543.08	1879.91
543.44	1892.00
543.79	1903.13
544.15	1913.92
544.51	1925.38
544.87	1936.03
545.22	1946.75
545.58	1956.70
545.94	1966.33
546.29	1976.08
546.65	1985.92
547.01	1995.01
547.36	2003.62
547.72	2012.02
548.07	2019.79
548.43	2027.85
548.79	2035.77
549.14	2043.27
549.50	2050.45
549.86	2057.82
550.21	2065.05
550.57	2072.08
550.92	2078.61
551.28	2085.59
551.64	2092.62
551.99	2098.99
552.35	2105.30
552.70	2111.25
553.06	2117.35
553.41	2123.71
553.77	2129.58
554.13	2135.58
554.48	2141.72
554.84	2147.27
555.19	2152.51
555.55	2157.68
555.90	2162.31
556.26	2167.26
556.61	2171.96
556.97	2176.47
557.32	2180.87
557.68	2185.06
558.03	2189.27
558.39	2192.94
558.74	2197.62
559.10	2201.54
559.45	2205.36
559.81	2209.58
560.16	2213.67
560.52	2217.02
560.87	2220.54
561.23	2223.30
561.58	2226.43
561.94	2229.12
562.29	2231.52
562.64	2234.54
563.00	2237.29
563.35	2240.91
563.71	2244.00
564.06	2247.25
564.42	2250.32
564.77	2252.94
565.12	2255.50
565.48	2257.88
565.83	2260.15
566.19	2261.63
566.54	2262.70
566.89	2264.05
567.25	2264.92
567.60	2266.19
567.96	2268.02
568.31	2268.91
568.66	2270.36
569.02	2271.03
569.37	2271.36
569.72	2272.40
570.08	2272.69
570.43	2272.76
570.78	2272.28
571.14	2271.21
571.49	2270.17
571.84	2269.84
572.20	2269.07
572.55	2268.16
572.90	2266.53
573.26	2265.25
573.61	2263.77
573.96	2262.47
574.31	2259.73
574.67	2256.93
575.02	2253.74
575.37	2250.59
575.72	2247.20
576.08	2244.01
576.43	2240.94
576.78	2237.67
577.13	2234.59
577.49	2231.61
577.84	2228.47
578.19	2225.08
578.54	2221.76
578.90	2217.86
579.25	2212.49
579.60	2207.71
579.95	2202.98
580.30	2198.18
580.66	2193.22
581.01	2188.37
581.36	2183.50
581.71	2179.59
582.06	2175.53
582.42	2171.28
582.77	2166.19
583.12	2161.94
583.47	2157.58
583.82	2152.86
584.17	2147.83
584.53	2142.65
584.88	2137.35
585.23	2131.99
585.58	2126.64
585.93	2121.31
586.28	2116.60
586.63	2112.02
586.98	2107.12
587.34	2102.59
587.69	2097.97
588.04	2093.08
588.39	2087.74
588.74	2081.37
589.09	2075.34
589.44	2068.65
589.79	2062.69
590.14	2057.38
590.49	2050.75
590.84	2044.47
591.19	2038.58
591.54	2032.40
591.89	2025.41
592.25	2018.95
592.60	2011.87
592.95	2004.52
593.30	1997.41
593.65	1990.20
594.00	1983.22
594.35	1976.30
594.70	1968.50
595.05	1961.62
595.40	1954.43
595.75	1947.10
596.10	1941.28
596.45	1934.91
596.80	1928.98
597.15	1922.66
597.50	1915.82
597.85	1909.67
598.19	1903.14
598.54	1896.27
598.89	1889.73
599.24	1883.91
599.59	1877.34
599.94	1871.18
600.29	1865.03
600.64	1858.43
600.99	1851.10
601.34	1844.66
601.69	1837.65
602.04	1830.98
602.39	1823.74
602.74	1817.08
603.08	1810.48
603.43	1803.74
603.78	1796.41
604.13	1789.29
604.48	1782.11
604.83	1775.24
605.18	1768.58
605.53	1760.83
605.87	1752.99
606.22	1745.84
606.57	1737.80
606.92	1730.51
607.27	1723.57
607.62	1716.88
607.96	1709.88
608.31	1703.49
608.66	1695.96
609.01	1688.69
609.36	1681.21
609.70	1673.35
610.05	1665.36
610.40	1657.71
610.75	1649.63
611.10	1642.06
611.44	1633.72
611.79	1625.78
612.14	1617.27
612.49	1608.09
612.83	1599.79
613.18	1591.74
613.53	1583.78
613.88	1575.52
614.22	1567.19
614.57	1558.50
614.92	1550.46
615.27	1542.97
615.61	1534.58
615.96	1526.41
616.31	1518.70
616.65	1511.38
617.00	1503.84
617.35	1496.07
617.70	1487.87
618.04	1479.38
618.39	1471.16
618.74	1463.68
619.08	1455.37
619.43	1447.83
619.78	1440.89
620.12	1433.82
620.47	1426.34
620.82	1418.09
621.16	1410.64
621.51	1403.06
621.85	1395.52
622.20	1387.00
622.55	1378.52
622.89	1370.79
623.24	1363.26
623.59	1355.88
623.93	1348.35
624.28	1341.13
624.62	1333.83
624.97	1326.71
625.32	1319.92
625.66	1313.00
626.01	1305.75
626.35	1298.58
626.70	1290.78
627.04	1283.13
627.39	1275.22
627.73	1267.78
628.08	1260.96
628.43	1253.75
628.77	1246.59
629.12	1239.12
629.46	1232.11
629.81	1224.71
630.15	1217.36
630.50	1210.05
630.84	1201.87
631.19	1193.88
631.53	1186.28
631.88	1178.73
632.22	1171.16
632.57	1163.83
632.91	1156.25
633.26	1148.90
633.60	1141.35
633.95	1134.27
634.29	1127.19
634.64	1120.60
634.98	1113.35
635.32	1106.16
635.67	1099.55
636.01	1092.86
636.36	1086.03
636.70	1079.34
637.05	1072.85
637.39	1066.46
637.73	1059.94
638.08	1054.05
638.42	1048.02
638.77	1041.62
639.11	1035.12
639.45	1028.70
639.80	1022.18
640.14	1015.91
640.49	1009.36
640.83	1003.12
641.17	996.97
641.52	990.73
641.86	984.18
642.20	978.27
642.55	972.03
642.89	965.65
643.23	959.08
643.58	953.38
643.92	947.25
644.26	941.29
644.61	935.26
644.95	929.27
645.29	922.83
645.64	916.29
645.98	910.11
646.32	904.16
646.66	898.19
647.01	892.35
647.35	886.62
647.69	880.86
648.04	875.36
648.38	869.56
648.72	863.66
649.06	857.72
649.41	851.80
649.75	845.86
650.09	839.94
650.43	834.21
650.78	828.09
651.12	822.23
651.46	816.49
651.80	810.84
652.14	805.37
652.49	799.95
652.83	794.73
653.17	789.11
653.51	783.57
653.85	778.13
654.20	772.60
654.54	766.63
654.88	760.84
655.22	754.92
655.56	749.25
655.90	743.73
656.25	738.54
656.59	733.27
656.93	728.20
657.27	723.04
657.61	717.61
657.95	712.46
658.29	707.38
658.64	702.12
658.98	696.78
659.32	691.40
659.66	686.26
660.00	681.05
660.34	676.06
660.68	671.12
661.02	666.16
661.36	661.41
661.70	656.92
662.05	652.64
662.39	648.38
662.73	643.90
663.07	639.51
663.41	635.10
663.75	630.69
664.09	626.11
664.43	621.72
664.77	617.68
665.11	613.48
665.45	609.33
665.79	605.29
666.13	601.17
666.47	597.12
666.81	592.93
667.15	588.79
667.49	584.91
667.83	581.02
668.17	577.10
668.51	573.06
668.85	569.04
669.19	565.19
669.53	561.42
669.87	557.59
670.21	553.91
670.55	550.30
670.89	546.87
671.23	543.45
671.57	539.95
671.91	536.41
672.25	532.90
672.58	529.43
672.92	525.99
673.26	522.83
673.60	519.64
673.94	516.63
674.28	513.71
674.62	510.73
674.96	507.67
675.30	504.75
675.64	501.78
675.97	498.97
676.31	496.14
676.65	493.22
676.99	490.55
677.33	487.72
677.67	484.90
678.01	481.88
678.34	478.99
678.68	476.13
679.02	473.31
679.36	470.56
679.70	467.81
680.04	465.14
680.37	462.36
680.71	459.60
681.05	456.94
681.39	454.25
681.73	451.61
682.06	449.06
682.40	446.54
682.74	444.05
683.08	441.56
683.42	438.92
683.75	436.34
684.09	433.72
684.43	431.25
684.77	428.77
685.10	426.43
685.44	424.05
685.78	421.71
686.12	419.44
686.45	417.08
686.79	414.79
687.13	412.54
687.46	410.34
687.80	408.19
688.14	405.96
688.48	403.83
688.81	401.65
689.15	399.53
689.49	397.34
689.82	395.26
690.16	393.12
690.50	391.17
690.83	389.30
691.17	387.36
691.51	385.42
691.84	383.53
692.18	381.61
692.52	379.65
692.85	377.73
693.19	375.87
693.52	374.09
693.86	372.28
694.20	370.49
694.53	368.71
694.87	366.83
695.21	365.04
695.54	363.27
695.88	361.47
696.21	359.77
696.55	358.11
696.88	356.39
697.22	354.71
697.56	353.08
697.89	351.42
698.23	349.83
698.56	348.23
698.90	346.67
699.23	344.99
699.57	343.47
699.90	341.95
700.24	340.40
700.58	338.90
700.91	337.42
701.25	335.98
701.58	334.62
701.92	333.22
702.25	331.86
702.59	330.51
702.92	329.19
703.26	327.95
703.59	326.70
703.93	325.55
704.26	324.36
704.60	323.10
704.93	321.83
705.26	320.58
705.60	319.42
705.93	318.28
706.27	317.26
706.60	316.17
706.94	315.12
707.27	314.00
707.61	312.94
707.94	311.87
708.27	310.78
708.61	309.64
708.94	308.68
709.28	307.71
709.61	306.70
709.94	305.77
710.28	304.68
710.61	303.65
710.95	302.58
711.28	301.65
711.61	300.72
711.95	299.84
712.28	298.91
712.61	297.91
712.95	296.94
713.28	296.06
713.61	295.17
713.95	294.26
714.28	293.43
714.61	292.56
714.95	291.74
715.28	290.85
715.61	290.00
715.95	289.15
716.28	288.26
716.61	287.45
716.95	286.59
717.28	285.84
717.61	285.07
717.94	284.34
718.28	283.49
718.61	282.73
718.94	281.97
719.27	281.31
719.61	280.64
719.94	279.99
720.27	279.27
720.60	278.58
720.94	277.92
721.27	277.32
721.60	276.73
721.93	276.10
722.27	275.57
722.60	275.02
722.93	274.42
723.26	273.88
723.59	273.29
723.93	272.79
724.26	272.26
724.59	271.66
724.92	271.12
725.25	270.65
725.59	270.14
725.92	269.63
726.25	269.07
726.58	268.59
726.91	268.09
727.24	267.60
727.57	267.11
727.91	266.60
728.24	266.11
728.57	265.61
728.90	265.17
729.23	264.65
729.56	264.21
729.89	263.77
730.22	263.27
730.55	262.83
730.89	262.33
731.22	261.85
731.55	261.43
731.88	261.01
732.21	260.55
732.54	260.10
732.87	259.66
733.20	259.27
733.53	258.88
733.86	258.49
734.19	258.08
734.52	257.72
734.85	257.40
735.18	256.96
735.51	256.58
735.84	256.21
736.17	255.89
736.50	255.50
736.83	255.26
737.16	254.93
737.49	254.57
737.82	254.26
738.15	253.95
738.48	253.63
738.81	253.29
739.14	253.00
739.47	252.70
739.80	252.39
740.13	252.09
740.46	251.75
740.79	251.41
741.12	251.12
741.45	250.81
741.78	250.46
742.11	250.18
742.44	249.86
742.77	249.58
743.10	249.28
743.43	249.01
743.75	248.65
744.08	248.53
744.41	248.25
744.74	247.98
745.07	247.69
745.40	247.45
745.73	247.21
746.06	246.95
746.39	246.69
746.71	246.46
747.04	246.17
747.37	245.93
747.70	245.73
748.03	245.48
748.36	245.26
748.68	245.07
749.01	244.85
749.34	244.64
749.67	244.41
750.00	244.22
750.33	244.03
750.65	243.79
750.98	243.42
751.31	243.24
751.64	243.03
751.97	242.90
752.29	242.69
752.62	242.45
752.95	242.26
753.28	242.08
753.60	241.83
753.93	241.68
754.26	241.52
754.59	241.29
754.91	241.06
755.24	240.88
755.57	240.72
755.90	240.51
756.22	240.32
756.55	240.12
756.88	239.95
757.20	239.72
757.53	239.52
757.86	239.38
758.19	239.21
758.51	239.04
758.84	238.81
759.17	238.64
759.49	238.47
759.82	238.34
760.15	238.17
760.47	238.03
760.80	237.82
761.13	237.66
761.45	237.50
761.78	237.39
762.11	237.19
762.43	237.02
762.76	236.86
763.08	236.74
763.41	236.60
763.74	236.45
764.06	236.33
764.39	236.19
764.71	236.05
765.04	235.90
765.37	235.76
765.69	235.61
766.02	235.47
766.34	235.35
766.67	235.16
767.00	235.03
767.32	234.95
767.65	234.89
767.97	234.76
768.30	234.63
768.62	234.51
768.95	234.37
769.27	234.21
769.60	234.16
769.92	234.02
770.25	233.89
770.57	233.77
770.90	233.66
771.22	233.55
771.55	233.43
771.87	233.36
772.20	233.22
772.52	233.21
772.85	233.21
773.17	233.08
773.50	233.00
773.82	232.92
774.15	232.80
774.47	232.66
774.80	232.53
775.12	232.46
775.45	232.39
775.77	232.34
776.09	232.27
776.42	232.14
776.74	232.07
777.07	231.99
777.39	231.88
777.72	231.78
778.04	231.70
778.36	231.64
778.69	231.53
779.01	231.49
779.33	231.32
779.66	231.16
779.98	231.09
780.31	231.01
780.63	230.98
780.95	230.89
781.28	230.84
781.60	230.79
781.92	230.74
782.25	230.66
782.57	230.60
782.89	230.54
783.22	230.47
783.54	230.42
783.86	230.39
784.19	230.35
784.51	230.33
784.83	230.27
785.16	230.20
785.48	230.15
785.80	230.13
786.12	230.12
786.45	230.06
786.77	230.02
787.09	229.98
787.42	229.89
787.74	229.86
788.06	229.81
788.38	229.77
788.71	229.71
789.03	229.67
789.35	229.65
789.67	229.63
789.99	229.62
790.32	229.57
790.64	229.53
790.96	229.59
791.28	229.54
791.61	229.52
791.93	229.51
792.25	229.50
792.57	229.55
792.89	229.50
793.21	229.50
793.54	229.52
793.86	229.50
794.18	229.49
794.50	229.48
794.82	229.44
795.14	229.45
795.47	229.42
795.79	229.42
796.11	229.35
796.43	229.30
796.75	229.30
797.07	229.26
797.39	229.22
797.71	229.11
798.04	229.09
798.36	229.08
798.68	229.02
799.00	228.97
799.32	228.87
799.64	228.85
799.96	228.80
800.28	228.75
800.60	228.71
800.92	228.69
801.24	228.65
801.56	228.65
801.89	228.60
802.21	228.59
802.53	228.52
802.85	228.52
803.17	228.49
803.49	228.42
803.81	228.40
804.13	228.36
804.45	228.34
804.77	228.29
805.09	228.20
805.41	228.16
805.73	228.13
806.05	228.06
806.37	228.00
806.69	227.97
807.01	227.95
807.33	227.94
807.65	227.87
807.97	227.91
808.28	227.86
808.60	227.81
808.92	227.77
809.24	227.80
809.56	227.75
809.88	227.73
810.20	227.71
810.52	227.67
810.84	227.59
811.16	227.52
811.48	227.47
811.80	227.52
812.12	227.49
812.43	227.46
812.75	227.43
813.07	227.43
813.39	227.44
813.71	227.38
814.03	227.30
814.35	227.26
814.67	227.14
814.98	227.10
815.30	227.08
815.62	227.03
815.94	226.92
816.26	226.95
816.58	226.88
816.89	226.89
817.21	226.86
817.53	226.85
817.85	226.86
818.17	226.85
818.48	226.80
818.80	226.80
819.12	226.78
819.44	226.76
819.76	226.72
820.07	226.67
820.39	226.66
820.71	226.67
821.03	226.65
821.34	226.64
821.66	226.64
821.98	226.63
822.30	226.63
822.61	226.67
822.93	226.61
823.25	226.60
823.57	226.55
823.88	226.59
824.20	226.63
824.52	226.63
824.83	226.62
825.15	226.59
825.47	226.60
825.79	226.61
826.10	226.60
826.42	226.58
826.74	226.61
827.05	226.60
827.37	226.62
827.69	226.61
828.00	226.63
828.32	226.64
828.64	226.63
828.95	226.67
829.27	226.66
829.58	226.65
829.90	226.67
830.22	226.70
830.53	226.64
830.85	226.62
831.17	226.62
831.48	226.62
831.80	226.62
832.11	226.59
832.43	226.60
832.75	226.60
833.06	226.70
833.38	226.65
833.69	226.63
834.01	226.61
834.32	226.63
834.64	226.63
834.96	226.61
835.27	226.60
835.59	226.57
835.90	226.57
836.22	226.60
836.53	226.60
836.85	226.55
837.16	226.66
837.48	226.63
837.79	226.62
838.11	226.60
838.42	226.60
838.74	226.61
839.05	226.57
839.37	226.55
839.68	226.45
840.00	226.43
840.31	226.44
840.63	226.42
840.94	226.41
841.26	226.40
841.57	226.39
841.88	226.38
842.20	226.33
842.51	226.30
842.83	226.26
843.14	226.33
843.46	226.35
843.77	226.30
844.08	226.29
844.40	226.25
844.71	226.27
845.03	226.24
845.34	226.24
845.65	226.22
845.97	226.23
846.28	226.22
846.60	226.24
846.91	226.23
847.22	226.18
847.54	226.17
847.85	226.16
848.16	226.14
848.48	226.13
848.79	226.16
849.10	226.14
849.42	226.15
849.73	226.06
850.04	226.03
850.36	225.97
850.67	225.99
850.98	225.99
851.30	225.96
851.61	225.95
851.92	225.93
852.23	225.99
852.55	225.96
852.86	225.95
853.17	225.93
853.49	225.93
853.80	225.97
854.11	225.95
854.42	225.95
854.74	225.96
855.05	225.94
855.36	225.87
855.67	225.90
855.99	225.84
856.30	225.92
856.61	225.92
856.92	225.93
857.23	225.93
857.55	225.90
857.86	225.88
858.17	225.89
858.48	225.85
858.79	225.76
859.11	225.83
859.42	225.79
859.73	225.80
860.04	225.79
860.35	225.76
860.66	225.75
860.98	225.73
861.29	225.72
861.60	225.72
861.91	225.76
862.22	225.74
862.53	225.76
862.84	225.65
863.16	225.68
863.47	225.66
863.78	225.66
864.09	225.68
864.40	225.70
864.71	225.72
865.02	225.76
865.33	225.79
865.64	225.72
865.95	225.78
866.27	225.80
866.58	225.81
866.89	225.84
867.20	225.85
867.51	225.86
867.82	225.85
868.13	225.89
868.44	225.86
868.75	225.87
869.06	225.87
869.37	225.87
869.68	225.83
869.99	225.85
870.30	225.86
870.61	225.89
870.92	225.86
871.23	225.84
871.54	225.86
871.85	225.87
872.16	225.87
872.47	225.83
872.78	225.79
873.09	225.80
873.40	225.80
873.71	225.79
874.02	225.79
874.33	225.76
874.64	225.73
874.95	225.76
875.26	225.76
875.56	225.74
875.87	225.76
876.18	225.75
876.49	225.83
876.80	225.80
877.11	225.75
877.42	225.78
877.73	225.76
878.04	225.73
878.35	225.73
878.66	225.78
878.96	225.79
879.27	225.79
879.58	225.79
879.89	225.78
880.20	225.80
880.51	225.79
880.82	225.78
881.12	225.80
881.43	225.77
881.74	225.75
882.05	225.73
882.36	225.75
882.67	225.77
882.97	225.66
883.28	225.65
883.59	225.64
883.90	225.63
884.21	225.67
884.51	225.66
884.82	225.63
885.13	225.58
885.44	225.58
885.74	225.56
886.05	225.52
886.36	225.49
886.67	225.47
886.98	225.51
887.28	225.53
887.59	225.53
887.90	225.51
888.20	225.49
888.51	225.52
888.82	225.48
889.13	225.49
889.43	225.58
889.74	225.57
890.05	225.58
890.35	225.56
890.66	225.53
890.97	225.53
891.28	225.53
891.58	225.54
891.89	225.54
892.20	225.55
892.50	225.54
892.81	225.57
893.12	225.55
893.42	225.53
893.73	225.50
894.04	225.52
894.34	225.52
894.65	225.54
894.95	225.53
895.26	225.56
895.57	225.55
895.87	225.46
896.18	225.51
896.48	225.53
896.79	225.52
897.10	225.55
897.40	225.53
897.71	225.53
898.01	225.54
898.32	225.52
898.63	225.49
898.93	225.51
899.24	225.50
899.54	225.49
899.85	225.48
900.15	225.48
900.46	225.44
900.76	225.45
901.07	225.45
901.38	225.45
901.68	225.45
901.99	225.41
902.29	225.38
902.60	225.35
902.90	225.32
903.21	225.35
903.51	225.34
903.82	225.36
904.12	225.37
904.43	225.36
904.73	225.41
905.03	225.43
905.34	225.52
905.64	225.50
905.95	225.52
906.25	225.50
906.56	225.50
906.86	225.54
907.17	225.50
907.47	225.54
907.77	225.53
908.08	225.49
908.38	225.50
908.69	225.54
908.99	225.57
909.30	225.55
909.60	225.56
909.90	225.54
910.21	225.50
910.51	225.47
910.81	225.46
911.12	225.48
911.42	225.47
911.73	225.37
912.03	225.37
912.33	225.37
912.64	225.37
912.94	225.37
913.24	225.32
913.55	225.32
913.85	225.27
914.15	225.26
914.46	225.29
914.76	225.31
915.06	225.31
915.37	225.26
915.67	225.28
915.97	225.26
916.27	225.23
916.58	225.24
916.88	225.25
917.18	225.23
917.49	225.24
917.79	225.24
918.09	225.25
918.39	225.29
918.70	225.25
919.00	225.27
919.30	225.30
919.60	225.30
919.91	225.32
920.21	225.34
920.51	225.35
920.81	225.32
921.12	225.28
921.42	225.27
921.72	225.28
922.02	225.26
922.32	225.29
922.63	225.29
922.93	225.35
923.23	225.36
923.53	225.35
923.83	225.29
924.13	225.31
924.44	225.29
924.74	225.31
925.04	225.36
925.34	225.34
925.64	225.28
925.94	225.28
926.24	225.33
926.55	225.32
926.85	225.29
927.15	225.30
927.45	225.33
927.75	225.34
928.05	225.36
928.35	225.37
928.65	225.38
928.95	225.41
929.26	225.36
929.56	225.40
929.86	225.41
930.16	225.40
930.46	225.39
930.76	225.38
931.06	225.33
931.36	225.31
931.66	225.34
931.96	225.36
932.26	225.40
932.56	225.37
932.86	225.40
933.16	225.41
933.46	225.40
933.76	225.36
934.06	225.39
934.36	225.40
934.66	225.37
934.96	225.35
935.26	225.33
935.56	225.34
935.86	225.27
936.16	225.26
936.46	225.23
936.76	225.22
937.06	225.24
937.36	225.25
937.66	225.24
937.96	225.21
938.26	225.24
938.56	225.21
938.86	225.22
939.16	225.26
939.46	225.30
939.76	225.33
940.06	225.34
940.35	225.28
940.65	225.22
940.95	225.26
941.25	225.22
941.55	225.19
941.85	225.21
942.15	225.28
942.45	225.33
942.75	225.34
943.04	225.36
943.34	225.39
943.64	225.36
943.94	225.34
944.24	225.36
944.54	225.33
944.84	225.34
945.13	225.29
945.43	225.25
945.73	225.22
946.03	225.17
946.33	225.18
946.62	225.20
946.92	225.22
947.22	225.21
947.52	225.19
947.82	225.23
948.11	225.21
948.41	225.19
948.71	225.16
949.01	225.18
949.31	225.16
949.60	225.13
949.90	225.17
950.20	225.18
950.50	225.16
950.79	225.15
951.09	225.16
951.39	225.19
951.69	225.16
951.98	225.21
952.28	225.22
952.58	225.22
952.87	225.21
953.17	225.22
953.47	225.23
953.76	225.23
954.06	225.19
954.36	225.20
954.66	225.21
954.95	225.22
955.25	225.22
955.55	225.23
955.84	225.21
956.14	225.19
956.44	225.18
956.73	225.18
957.03	225.21
957.32	225.20
957.62	225.18
957.92	225.21
958.21	225.21
958.51	225.32
958.81	225.30
959.10	225.33
959.40	225.36
959.69	225.38
959.99	225.45
960.29	225.44
960.58	225.43
960.88	225.43
961.17	225.45
961.47	225.48
961.76	225.47
962.06	225.48
962.36	225.50
962.65	225.52
962.95	225.54
963.24	225.51
963.54	225.54
963.83	225.56
964.13	225.58
964.42	225.55
964.72	225.49
965.01	225.51
965.31	225.45
965.60	225.45
965.90	225.50
966.19	225.47
966.49	225.50
966.78	225.52
967.08	225.52
967.37	225.51
967.67	225.48
967.96	225.50
968.26	225.51
968.55	225.51
968.85	225.50
969.14	225.48
969.43	225.53
969.73	225.50
970.02	225.50
970.32	225.49
970.61	225.50
970.91	225.46
971.20	225.47
971.49	225.47
971.79	225.46
972.08	225.37
972.38	225.36
972.67	225.34
972.96	225.37
973.26	225.35
973.55	225.33
973.85	225.30
974.14	225.29
974.43	225.30
974.73	225.28
975.02	225.28
975.31	225.31
975.61	225.28
975.90	225.27
976.19	225.26
976.49	225.25
976.78	225.24
977.07	225.26
977.37	225.27
977.66	225.27
977.95	225.29
978.24	225.31
978.54	225.31
978.83	225.32
979.12	225.26
979.42	225.27
979.71	225.27
980.00	225.28
980.29	225.27
980.59	225.25
980.88	225.28
981.17	225.29
981.46	225.30
981.76	225.30
982.05	225.33
982.34	225.27
982.63	225.29
982.93	225.25
983.22	225.25
983.51	225.23
983.80	225.26
984.09	225.25
984.39	225.24
984.68	225.25
984.97	225.25
985.26	225.26
985.55	225.24
985.85	225.22
986.14	225.23
986.43	225.28
986.72	225.27
987.01	225.24
987.30	225.22
987.59	225.19
987.89	225.18
988.18	225.16
988.47	225.19
988.76	225.18
989.05	225.19
989.34	225.20
989.63	225.25
989.92	225.25
990.22	225.25
990.51	225.23
990.80	225.23
991.09	225.23
991.38	225.21
991.67	225.22
991.96	225.21
992.25	225.25
992.54	225.21
992.83	225.23
993.12	225.25
993.41	225.28
993.70	225.31
993.99	225.34
994.28	225.36
994.58	225.36
994.87	225.34
995.16	225.36
995.45	225.34
995.74	225.28
996.03	225.30
996.32	225.28
996.61	225.31
996.90	225.32
997.19	225.34
997.48	225.39
997.77	225.40
998.06	225.44
998.34	225.41
998.63	225.42
998.92	225.41
999.21	225.39
999.50	225.39
999.79	225.38
1000.08	225.36
1000.37	225.36
1000.66	225.38
1000.95	225.39
1001.24	225.39
1001.53	225.40
1001.82	225.42
1002.11	225.39
1002.40	225.42
1002.68	225.45
1002.97	225.53
1003.26	225.50
1003.55	225.49
1003.84	225.49
1004.13	225.52
1004.42	225.51
1004.71	225.51
1004.99	225.52
1005.28	225.57
1005.57	225.54
1005.86	225.52
1006.15	225.51
1006.44	225.50
1006.72	225.48
1007.01	225.47
1007.30	225.51
1007.59	225.48
1007.88	225.53
1008.17	225.53
1008.45	225.52
1008.74	225.48
1009.03	225.39
1009.32	225.42
1009.60	225.38
1009.89	225.36
1010.18	225.33
1010.47	225.36
1010.76	225.34
1011.04	225.38
1011.33	225.38
1011.62	225.36
1011.91	225.36
1012.19	225.37
1012.48	225.36
1012.77	225.38
1013.05	225.42
1013.34	225.40
1013.63	225.42
1013.92	225.38
1014.20	225.38
1014.49	225.36
1014.78	225.35
1015.06	225.36
1015.35	225.34
1015.64	225.38
1015.92	225.39
1016.21	225.37
1016.50	225.34
1016.78	225.35
1017.07	225.29
1017.36	225.25
1017.64	225.27
1017.93	225.29
1018.22	225.26
1018.50	225.28
1018.79	225.26
1019.08	225.22
1019.36	225.22
1019.65	225.20
1019.93	225.21
1020.22	225.22
1020.51	225.29
1020.79	225.30
1021.08	224.99
1021.36	225.52
1021.65	224.98
1021.94	225.40
1022.22	225.35
1022.51	224.96
1022.79	225.46
1023.08	225.59
1023.36	226.64
1023.65	225.32
>>>>>End Processed Spectral Data<<<<<
