SpectraSuite Data File
++++++++++++++++++++++++++++++++++++
Date: Fri Feb 01 17:53:26 EST 2013
User: group
Dark Spectrum Present: No
Reference Spectrum Present: No
Number of Sampled Component Spectra: 1
Spectrometers: USB2E7196
Integration Time (usec): 35000 (USB2E7196)
Spectra Averaged: 100 (USB2E7196)
Boxcar Smoothing: 10 (USB2E7196)
Correct for Electrical Dark: No (USB2E7196)
Strobe/Lamp Enabled: No (USB2E7196)
Correct for Detector Non-linearity: No (USB2E7196)
Correct for Stray Light: No (USB2E7196)
Number of Pixels in Processed Spectrum: 2048
>>>>>Begin Processed Spectral Data<<<<<
339.09	0.00
339.48	213.02
339.86	214.36
340.24	215.65
340.63	216.67
341.01	219.61
341.39	219.63
341.78	220.96
342.16	222.21
342.54	222.32
342.93	211.09
343.31	221.74
343.69	222.27
344.07	222.71
344.46	223.13
344.84	223.54
345.22	223.78
345.60	224.02
345.99	224.20
346.37	224.33
346.75	224.45
347.13	224.49
347.52	224.55
347.90	224.63
348.28	224.69
348.66	224.71
349.05	224.70
349.43	224.76
349.81	224.80
350.19	224.85
350.57	224.92
350.96	224.96
351.34	225.05
351.72	225.13
352.10	225.22
352.48	225.28
352.87	225.33
353.25	225.38
353.63	225.45
354.01	225.53
354.39	225.58
354.77	225.66
355.15	225.75
355.54	225.81
355.92	225.85
356.30	225.93
356.68	226.08
357.06	226.15
357.44	226.21
357.82	226.26
358.20	226.35
358.58	226.45
358.97	226.53
359.35	226.62
359.73	226.71
360.11	226.79
360.49	226.89
360.87	226.94
361.25	227.02
361.63	227.12
362.01	227.18
362.39	227.24
362.77	227.29
363.15	227.36
363.53	227.40
363.91	227.45
364.29	227.49
364.67	227.43
365.05	227.45
365.43	227.48
365.81	227.53
366.19	227.57
366.57	227.61
366.95	227.60
367.33	227.58
367.71	227.58
368.09	227.57
368.47	227.54
368.85	227.54
369.23	227.53
369.61	227.48
369.99	227.48
370.37	227.47
370.75	227.48
371.13	227.43
371.51	227.41
371.89	227.40
372.27	227.37
372.65	227.34
373.03	227.31
373.41	227.26
373.78	227.20
374.16	227.10
374.54	227.02
374.92	227.01
375.30	226.96
375.68	226.91
376.06	226.88
376.44	226.82
376.82	226.74
377.19	226.68
377.57	226.58
377.95	226.50
378.33	226.43
378.71	226.34
379.09	226.29
379.47	226.23
379.84	226.13
380.22	226.06
380.60	225.95
380.98	225.89
381.36	225.81
381.73	225.74
382.11	225.71
382.49	225.66
382.87	225.59
383.25	225.54
383.62	225.55
384.00	225.46
384.38	225.41
384.76	225.39
385.13	225.36
385.51	225.36
385.89	225.27
386.27	225.20
386.64	225.15
387.02	225.09
387.40	225.01
387.78	224.98
388.15	224.96
388.53	224.94
388.91	224.89
389.29	224.85
389.66	224.82
390.04	224.78
390.42	224.75
390.79	224.72
391.17	224.67
391.55	224.59
391.92	224.57
392.30	224.56
392.68	224.53
393.05	224.54
393.43	224.50
393.81	224.54
394.18	224.52
394.56	224.52
394.94	224.55
395.31	224.56
395.69	224.60
396.06	224.59
396.44	224.60
396.82	224.61
397.19	224.71
397.57	224.74
397.95	224.76
398.32	224.79
398.70	224.83
399.07	224.88
399.45	224.91
399.82	224.98
400.20	225.03
400.58	225.10
400.95	225.12
401.33	225.22
401.70	225.37
402.08	225.50
402.45	225.61
402.83	225.73
403.20	225.88
403.58	225.97
403.95	226.09
404.33	226.28
404.71	226.46
405.08	226.66
405.46	226.79
405.83	226.95
406.21	227.11
406.58	227.31
406.96	227.54
407.33	227.76
407.70	227.99
408.08	228.31
408.45	228.60
408.83	228.92
409.20	229.20
409.58	229.41
409.95	229.73
410.33	230.07
410.70	230.39
411.08	230.74
411.45	231.15
411.82	231.56
412.20	231.98
412.57	232.48
412.95	232.87
413.32	233.45
413.69	234.02
414.07	234.57
414.44	235.21
414.82	235.80
415.19	236.51
415.56	237.23
415.94	237.96
416.31	238.76
416.68	239.55
417.06	240.47
417.43	241.39
417.81	242.40
418.18	243.41
418.55	244.50
418.93	245.65
419.30	246.80
419.67	248.05
420.04	249.31
420.42	250.66
420.79	252.23
421.16	253.76
421.54	255.29
421.91	256.90
422.28	258.53
422.66	260.33
423.03	262.05
423.40	263.83
423.77	265.70
424.15	267.60
424.52	269.57
424.89	271.70
425.26	273.79
425.64	275.73
426.01	277.86
426.38	280.04
426.75	282.28
427.13	284.59
427.50	287.01
427.87	289.49
428.24	291.94
428.61	294.24
428.99	296.77
429.36	299.60
429.73	302.37
430.10	305.05
430.47	307.77
430.85	310.62
431.22	313.56
431.59	316.69
431.96	319.65
432.33	322.91
432.70	326.03
433.08	329.73
433.45	333.22
433.82	336.70
434.19	340.57
434.56	344.28
434.93	347.79
435.30	351.19
435.68	355.02
436.05	358.80
436.42	362.49
436.79	365.86
437.16	369.40
437.53	373.12
437.90	376.85
438.27	380.46
438.64	384.19
439.01	387.62
439.38	390.62
439.75	393.51
440.13	396.91
440.50	400.06
440.87	402.57
441.24	405.12
441.61	407.99
441.98	409.91
442.35	412.35
442.72	414.88
443.09	417.36
443.46	418.70
443.83	419.46
444.20	420.16
444.57	421.29
444.94	421.70
445.31	422.19
445.68	422.68
446.05	422.83
446.42	422.34
446.79	421.81
447.16	421.21
447.53	420.83
447.90	419.21
448.27	417.69
448.64	415.53
449.01	414.04
449.37	411.43
449.74	408.94
450.11	405.91
450.48	402.62
450.85	399.25
451.22	396.45
451.59	393.79
451.96	391.24
452.33	387.81
452.70	384.68
453.07	380.95
453.43	377.13
453.80	373.46
454.17	369.95
454.54	366.59
454.91	363.01
455.28	359.45
455.65	356.19
456.02	352.86
456.38	350.01
456.75	346.47
457.12	343.47
457.49	340.57
457.86	337.69
458.23	335.19
458.59	332.47
458.96	329.69
459.33	327.20
459.70	324.73
460.07	322.73
460.43	320.43
460.80	318.22
461.17	316.29
461.54	314.29
461.91	312.34
462.27	310.41
462.64	308.70
463.01	306.90
463.38	305.17
463.74	303.38
464.11	301.84
464.48	300.48
464.85	298.95
465.21	297.74
465.58	296.51
465.95	295.06
466.32	293.82
466.68	292.61
467.05	291.42
467.42	290.19
467.78	288.92
468.15	287.78
468.52	286.88
468.88	285.71
469.25	284.67
469.62	283.80
469.98	282.85
470.35	282.02
470.72	281.19
471.08	280.31
471.45	279.59
471.82	278.85
472.18	278.01
472.55	277.45
472.92	276.75
473.28	276.12
473.65	275.50
474.02	274.89
474.38	274.35
474.75	273.86
475.11	273.39
475.48	273.00
475.85	272.60
476.21	272.29
476.58	271.99
476.94	271.76
477.31	271.52
477.67	271.29
478.04	271.07
478.41	270.95
478.77	270.89
479.14	270.72
479.50	270.62
479.87	270.65
480.23	270.64
480.60	270.63
480.96	270.64
481.33	270.80
481.69	270.94
482.06	271.08
482.42	271.24
482.79	271.41
483.15	271.69
483.52	272.10
483.88	272.39
484.25	272.74
484.61	273.09
484.98	273.51
485.34	274.06
485.71	274.64
486.07	275.19
486.44	275.76
486.80	276.47
487.17	277.22
487.53	278.04
487.90	278.94
488.26	279.91
488.62	280.94
488.99	281.92
489.35	283.00
489.72	284.19
490.08	285.40
490.44	286.66
490.81	288.04
491.17	289.41
491.54	290.94
491.90	292.54
492.26	294.30
492.63	296.13
492.99	297.98
493.36	299.93
493.72	302.09
494.08	304.30
494.45	306.66
494.81	309.12
495.17	311.68
495.54	314.34
495.90	317.17
496.26	320.11
496.63	323.19
496.99	326.47
497.35	329.89
497.72	333.51
498.08	337.26
498.44	341.11
498.80	345.25
499.17	349.54
499.53	353.96
499.89	358.52
500.26	363.23
500.62	368.12
500.98	373.38
501.34	378.74
501.71	384.32
502.07	390.07
502.43	396.04
502.79	402.17
503.16	408.56
503.52	415.17
503.88	421.89
504.24	428.91
504.60	436.12
504.97	443.62
505.33	451.30
505.69	459.45
506.05	467.70
506.41	476.01
506.78	484.67
507.14	493.57
507.50	502.84
507.86	512.39
508.22	522.20
508.59	532.04
508.95	542.15
509.31	552.64
509.67	563.43
510.03	574.38
510.39	585.67
510.75	597.13
511.12	608.76
511.48	620.87
511.84	633.10
512.20	645.47
512.56	658.22
512.92	671.22
513.28	684.45
513.64	697.79
514.00	711.41
514.37	725.25
514.73	739.30
515.09	753.22
515.45	767.49
515.81	781.99
516.17	796.96
516.53	812.16
516.89	827.39
517.25	842.55
517.61	857.95
517.97	873.43
518.33	889.09
518.69	905.09
519.05	921.20
519.41	937.61
519.77	954.35
520.13	971.04
520.49	987.91
520.85	1004.54
521.21	1021.50
521.57	1039.03
521.93	1056.11
522.29	1073.87
522.65	1091.58
523.01	1109.16
523.37	1126.66
523.73	1144.31
524.09	1161.91
524.45	1179.74
524.81	1197.90
525.17	1216.35
525.53	1234.84
525.89	1253.36
526.25	1271.78
526.61	1289.78
526.97	1308.20
527.33	1326.43
527.68	1344.73
528.04	1362.73
528.40	1380.98
528.76	1399.92
529.12	1418.38
529.48	1437.14
529.84	1454.78
530.20	1473.20
530.56	1491.94
530.91	1511.27
531.27	1530.00
531.63	1548.26
531.99	1566.57
532.35	1584.42
532.71	1602.21
533.07	1620.41
533.42	1638.25
533.78	1656.41
534.14	1674.54
534.50	1691.80
534.86	1709.53
535.21	1726.67
535.57	1744.68
535.93	1762.19
536.29	1778.80
536.65	1795.67
537.00	1812.22
537.36	1829.78
537.72	1846.31
538.08	1862.84
538.44	1878.69
538.79	1894.49
539.15	1910.19
539.51	1926.00
539.87	1942.42
540.22	1958.12
540.58	1973.99
540.94	1989.16
541.29	2003.82
541.65	2018.72
542.01	2034.00
542.37	2048.51
542.72	2063.03
543.08	2076.90
543.44	2091.45
543.79	2104.95
544.15	2118.15
544.51	2132.03
544.87	2145.06
545.22	2158.08
545.58	2170.53
545.94	2182.33
546.29	2194.28
546.65	2206.35
547.01	2217.84
547.36	2228.74
547.72	2239.32
548.07	2249.31
548.43	2259.58
548.79	2269.50
549.14	2278.96
549.50	2288.08
549.86	2297.46
550.21	2306.68
550.57	2315.71
550.92	2324.19
551.28	2332.96
551.64	2342.01
551.99	2350.24
552.35	2358.20
552.70	2366.05
553.06	2373.83
553.41	2382.01
553.77	2389.59
554.13	2397.21
554.48	2404.96
554.84	2412.12
555.19	2418.97
555.55	2425.61
555.90	2431.72
556.26	2438.39
556.61	2444.62
556.97	2450.90
557.32	2456.71
557.68	2462.32
558.03	2468.04
558.39	2473.12
558.74	2479.40
559.10	2484.60
559.45	2489.69
559.81	2495.31
560.16	2500.56
560.52	2505.07
560.87	2509.58
561.23	2513.62
561.58	2517.92
561.94	2521.72
562.29	2525.25
562.64	2529.42
563.00	2533.34
563.35	2538.11
563.71	2542.54
564.06	2546.91
564.42	2550.83
564.77	2554.70
565.12	2558.47
565.48	2561.59
565.83	2564.50
566.19	2566.80
566.54	2568.58
566.89	2570.81
567.25	2572.52
567.60	2574.68
567.96	2577.53
568.31	2579.31
568.66	2581.41
569.02	2582.66
569.37	2583.98
569.72	2585.76
570.08	2586.63
570.43	2587.08
570.78	2587.34
571.14	2586.29
571.49	2585.62
571.84	2585.83
572.20	2585.15
572.55	2584.43
572.90	2583.12
573.26	2582.45
573.61	2581.13
573.96	2579.92
574.31	2577.25
574.67	2574.52
575.02	2571.09
575.37	2567.69
575.72	2564.33
576.08	2561.04
576.43	2557.91
576.78	2554.15
577.13	2550.82
577.49	2547.44
577.84	2544.37
578.19	2540.68
578.54	2537.18
578.90	2533.07
579.25	2527.26
579.60	2522.26
579.95	2516.96
580.30	2511.80
580.66	2506.20
581.01	2500.97
581.36	2495.70
581.71	2491.54
582.06	2486.82
582.42	2482.26
582.77	2476.77
583.12	2471.87
583.47	2467.04
583.82	2462.02
584.17	2456.52
584.53	2450.74
584.88	2444.96
585.23	2438.69
585.58	2432.59
585.93	2426.45
586.28	2420.89
586.63	2415.44
586.98	2409.74
587.34	2404.67
587.69	2399.41
588.04	2393.74
588.39	2387.52
588.74	2380.39
589.09	2373.51
589.44	2366.16
589.79	2359.23
590.14	2352.88
590.49	2345.36
590.84	2338.00
591.19	2331.23
591.54	2323.95
591.89	2316.00
592.25	2308.59
592.60	2300.45
592.95	2292.11
593.30	2283.98
593.65	2275.59
594.00	2267.72
594.35	2259.51
594.70	2250.35
595.05	2242.42
595.40	2234.24
595.75	2225.69
596.10	2218.93
596.45	2211.38
596.80	2204.23
597.15	2196.89
597.50	2189.08
597.85	2181.71
598.19	2174.23
598.54	2166.29
598.89	2158.70
599.24	2151.68
599.59	2144.11
599.94	2136.98
600.29	2129.58
600.64	2122.04
600.99	2113.70
601.34	2105.83
601.69	2097.92
602.04	2090.18
602.39	2081.56
602.74	2073.66
603.08	2066.01
603.43	2058.06
603.78	2049.44
604.13	2041.14
604.48	2032.77
604.83	2024.79
605.18	2017.13
605.53	2008.19
605.87	1998.94
606.22	1990.61
606.57	1981.49
606.92	1972.68
607.27	1964.39
607.62	1956.44
607.96	1948.05
608.31	1940.56
608.66	1931.87
609.01	1923.21
609.36	1914.45
609.70	1905.23
610.05	1895.96
610.40	1887.14
610.75	1877.50
611.10	1868.55
611.44	1858.68
611.79	1849.28
612.14	1839.17
612.49	1828.33
612.83	1818.34
613.18	1808.73
613.53	1799.23
613.88	1789.32
614.22	1779.79
614.57	1769.60
614.92	1760.15
615.27	1751.46
615.61	1741.64
615.96	1732.24
616.31	1723.15
616.65	1714.53
617.00	1705.78
617.35	1696.87
617.70	1687.16
618.04	1677.30
618.39	1667.78
618.74	1659.09
619.08	1649.59
619.43	1640.71
619.78	1632.64
620.12	1624.44
620.47	1615.78
620.82	1606.28
621.16	1597.54
621.51	1588.66
621.85	1579.84
622.20	1570.01
622.55	1560.06
622.89	1550.90
623.24	1541.90
623.59	1533.29
623.93	1524.51
624.28	1516.00
624.62	1507.27
624.97	1498.86
625.32	1490.90
625.66	1482.83
626.01	1474.41
626.35	1465.79
626.70	1456.74
627.04	1447.83
627.39	1438.63
627.73	1429.88
628.08	1421.78
628.43	1413.47
628.77	1404.92
629.12	1396.27
629.46	1387.90
629.81	1379.23
630.15	1370.78
630.50	1362.21
630.84	1352.65
631.19	1343.28
631.53	1334.43
631.88	1325.49
632.22	1316.51
632.57	1308.03
632.91	1299.08
633.26	1290.47
633.60	1281.69
633.95	1273.37
634.29	1265.02
634.64	1257.29
634.98	1248.79
635.32	1240.49
635.67	1232.56
636.01	1224.86
636.36	1216.90
636.70	1209.28
637.05	1201.64
637.39	1194.17
637.73	1186.53
638.08	1179.85
638.42	1173.01
638.77	1165.60
639.11	1158.07
639.45	1150.76
639.80	1143.01
640.14	1135.74
640.49	1128.17
640.83	1121.04
641.17	1113.92
641.52	1106.65
641.86	1099.07
642.20	1092.26
642.55	1084.85
642.89	1077.58
643.23	1069.84
643.58	1063.15
643.92	1055.97
644.26	1049.17
644.61	1042.12
644.95	1035.27
645.29	1027.68
645.64	1019.88
645.98	1012.50
646.32	1005.57
646.66	998.64
647.01	991.95
647.35	985.29
647.69	978.56
648.04	972.18
648.38	965.57
648.72	958.80
649.06	952.02
649.41	945.23
649.75	938.51
650.09	931.66
650.43	925.11
650.78	918.08
651.12	911.41
651.46	904.77
651.80	898.25
652.14	891.93
652.49	885.76
652.83	879.78
653.17	873.47
653.51	867.00
653.85	860.78
654.20	854.42
654.54	847.54
654.88	840.86
655.22	834.00
655.56	827.45
655.90	821.05
656.25	815.01
656.59	808.87
656.93	803.05
657.27	797.16
657.61	790.92
657.95	785.07
658.29	779.14
658.64	773.02
658.98	766.91
659.32	760.67
659.66	754.66
660.00	748.69
660.34	742.87
660.68	737.25
661.02	731.46
661.36	726.03
661.70	720.89
662.05	715.92
662.39	710.99
662.73	705.82
663.07	700.82
663.41	695.71
663.75	690.61
664.09	685.31
664.43	680.29
664.77	675.62
665.11	670.84
665.45	666.09
665.79	661.43
666.13	656.78
666.47	652.07
666.81	647.41
667.15	642.63
667.49	638.17
667.83	633.80
668.17	629.31
668.51	624.70
668.85	620.08
669.19	615.67
669.53	611.28
669.87	606.89
670.21	602.62
670.55	598.45
670.89	594.47
671.23	590.60
671.57	586.51
671.91	582.45
672.25	578.33
672.58	574.33
672.92	570.49
673.26	566.74
673.60	563.19
673.94	559.60
674.28	556.25
674.62	552.96
674.96	549.44
675.30	546.17
675.64	542.80
675.97	539.65
676.31	536.34
676.65	533.05
676.99	529.91
677.33	526.63
677.67	523.36
678.01	519.91
678.34	516.53
678.68	513.23
679.02	510.00
679.36	506.83
679.70	503.75
680.04	500.62
680.37	497.45
680.71	494.23
681.05	491.14
681.39	488.06
681.73	484.93
682.06	482.01
682.40	479.10
682.74	476.15
683.08	473.16
683.42	470.15
683.75	467.26
684.09	464.35
684.43	461.53
684.77	458.74
685.10	455.98
685.44	453.33
685.78	450.76
686.12	448.18
686.45	445.54
686.79	442.87
687.13	440.27
687.46	437.69
687.80	435.19
688.14	432.67
688.48	430.26
688.81	427.73
689.15	425.23
689.49	422.74
689.82	420.35
690.16	417.93
690.50	415.70
690.83	413.48
691.17	411.15
691.51	408.96
691.84	406.79
692.18	404.66
692.52	402.39
692.85	400.12
693.19	397.96
693.52	395.83
693.86	393.71
694.20	391.62
694.53	389.57
694.87	387.45
695.21	385.39
695.54	383.29
695.88	381.33
696.21	379.36
696.55	377.40
696.88	375.41
697.22	373.51
697.56	371.61
697.89	369.66
698.23	367.85
698.56	366.02
698.90	364.26
699.23	362.36
699.57	360.62
699.90	358.80
700.24	356.94
700.58	355.25
700.91	353.52
701.25	351.87
701.58	350.29
701.92	348.70
702.25	347.11
702.59	345.58
702.92	344.03
703.26	342.50
703.59	341.04
703.93	339.71
704.26	338.32
704.60	336.94
704.93	335.50
705.26	334.04
705.60	332.64
705.93	331.25
706.27	330.05
706.60	328.82
706.94	327.59
707.27	326.44
707.61	325.15
707.94	324.00
708.27	322.73
708.61	321.50
708.94	320.36
709.28	319.22
709.61	318.07
709.94	316.98
710.28	315.82
710.61	314.65
710.95	313.38
711.28	312.27
711.61	311.11
711.95	310.04
712.28	308.97
712.61	307.86
712.95	306.80
713.28	305.70
713.61	304.63
713.95	303.63
714.28	302.60
714.61	301.62
714.95	300.65
715.28	299.72
715.61	298.70
715.95	297.67
716.28	296.72
716.61	295.76
716.95	294.73
717.28	293.86
717.61	293.00
717.94	292.19
718.28	291.28
718.61	290.43
718.94	289.62
719.27	288.87
719.61	288.14
719.94	287.38
720.27	286.56
720.60	285.79
720.94	285.04
721.27	284.34
721.60	283.64
721.93	282.92
722.27	282.26
722.60	281.63
722.93	281.03
723.26	280.39
723.59	279.75
723.93	279.17
724.26	278.50
724.59	277.86
724.92	277.23
725.25	276.66
725.59	276.06
725.92	275.48
726.25	274.86
726.58	274.24
726.91	273.66
727.24	273.13
727.57	272.58
727.91	271.99
728.24	271.41
728.57	270.83
728.90	270.31
729.23	269.75
729.56	269.26
729.89	268.71
730.22	268.15
730.55	267.60
730.89	267.09
731.22	266.63
731.55	266.12
731.88	265.64
732.21	265.16
732.54	264.66
732.87	264.18
733.20	263.74
733.53	263.31
733.86	262.87
734.19	262.41
734.52	261.94
734.85	261.57
735.18	261.13
735.51	260.75
735.84	260.33
736.17	259.94
736.50	259.46
736.83	259.18
737.16	258.76
737.49	258.37
737.82	257.94
738.15	257.54
738.48	257.15
738.81	256.77
739.14	256.39
739.47	256.09
739.80	255.76
740.13	255.41
740.46	255.02
740.79	254.67
741.12	254.33
741.45	254.05
741.78	253.66
742.11	253.33
742.44	252.95
742.77	252.63
743.10	252.25
743.43	251.93
743.75	251.48
744.08	251.30
744.41	250.98
744.74	250.71
745.07	250.36
745.40	250.11
745.73	249.83
746.06	249.51
746.39	249.19
746.71	248.85
747.04	248.52
747.37	248.23
747.70	247.93
748.03	247.67
748.36	247.37
748.68	247.09
749.01	246.79
749.34	246.56
749.67	246.30
750.00	246.06
750.33	245.88
750.65	245.67
750.98	245.34
751.31	245.13
751.64	244.86
751.97	244.69
752.29	244.37
752.62	244.08
752.95	243.84
753.28	243.57
753.60	243.33
753.93	243.14
754.26	242.87
754.59	242.60
754.91	242.34
755.24	242.10
755.57	241.90
755.90	241.72
756.22	241.52
756.55	241.24
756.88	241.01
757.20	240.73
757.53	240.47
757.86	240.24
758.19	240.05
758.51	239.83
758.84	239.62
759.17	239.45
759.49	239.25
759.82	239.12
760.15	238.93
760.47	238.79
760.80	238.56
761.13	238.44
761.45	238.28
761.78	238.08
762.11	237.92
762.43	237.76
762.76	237.53
763.08	237.37
763.41	237.23
763.74	237.07
764.06	236.89
764.39	236.77
764.71	236.62
765.04	236.46
765.37	236.33
765.69	236.14
766.02	235.99
766.34	235.85
766.67	235.66
767.00	235.53
767.32	235.43
767.65	235.36
767.97	235.23
768.30	235.09
768.62	234.98
768.95	234.86
769.27	234.71
769.60	234.60
769.92	234.45
770.25	234.31
770.57	234.20
770.90	234.11
771.22	233.97
771.55	233.82
771.87	233.72
772.20	233.60
772.52	233.62
772.85	233.68
773.17	233.57
773.50	233.43
773.82	233.32
774.15	233.18
774.47	233.04
774.80	232.95
775.12	232.86
775.45	232.76
775.77	232.66
776.09	232.57
776.42	232.51
776.74	232.47
777.07	232.38
777.39	232.32
777.72	232.21
778.04	232.14
778.36	232.10
778.69	232.05
779.01	231.99
779.33	231.81
779.66	231.62
779.98	231.56
780.31	231.54
780.63	231.50
780.95	231.49
781.28	231.42
781.60	231.36
781.92	231.29
782.25	231.25
782.57	231.19
782.89	231.14
783.22	231.09
783.54	231.00
783.86	230.99
784.19	230.93
784.51	230.88
784.83	230.82
785.16	230.73
785.48	230.65
785.80	230.62
786.12	230.56
786.45	230.50
786.77	230.47
787.09	230.41
787.42	230.38
787.74	230.28
788.06	230.27
788.38	230.23
788.71	230.19
789.03	230.14
789.35	230.10
789.67	230.05
789.99	230.02
790.32	229.95
790.64	229.89
790.96	229.89
791.28	229.84
791.61	229.80
791.93	229.78
792.25	229.72
792.57	229.72
792.89	229.66
793.21	229.60
793.54	229.53
793.86	229.47
794.18	229.39
794.50	229.31
794.82	229.27
795.14	229.19
795.47	229.16
795.79	229.09
796.11	229.02
796.43	228.96
796.75	228.89
797.07	228.89
797.39	228.84
797.71	228.75
798.04	228.70
798.36	228.65
798.68	228.63
799.00	228.63
799.32	228.54
799.64	228.51
799.96	228.50
800.28	228.47
800.60	228.41
800.92	228.40
801.24	228.37
801.56	228.30
801.89	228.26
802.21	228.17
802.53	228.13
802.85	228.08
803.17	228.08
803.49	228.00
803.81	227.93
804.13	227.87
804.45	227.83
804.77	227.79
805.09	227.74
805.41	227.66
805.73	227.58
806.05	227.50
806.37	227.43
806.69	227.36
807.01	227.31
807.33	227.31
807.65	227.24
807.97	227.27
808.28	227.23
808.60	227.22
808.92	227.20
809.24	227.22
809.56	227.20
809.88	227.14
810.20	227.16
810.52	227.13
810.84	227.11
811.16	227.09
811.48	227.05
811.80	227.06
812.12	227.06
812.43	227.06
812.75	227.03
813.07	227.05
813.39	227.04
813.71	227.00
814.03	226.94
814.35	226.90
814.67	226.84
814.98	226.82
815.30	226.76
815.62	226.74
815.94	226.67
816.26	226.69
816.58	226.62
816.89	226.59
817.21	226.56
817.53	226.55
817.85	226.50
818.17	226.50
818.48	226.43
818.80	226.44
819.12	226.40
819.44	226.38
819.76	226.33
820.07	226.31
820.39	226.33
820.71	226.34
821.03	226.35
821.34	226.34
821.66	226.34
821.98	226.34
822.30	226.32
822.61	226.35
822.93	226.28
823.25	226.30
823.57	226.30
823.88	226.30
824.20	226.26
824.52	226.24
824.83	226.24
825.15	226.25
825.47	226.21
825.79	226.22
826.10	226.20
826.42	226.22
826.74	226.19
827.05	226.19
827.37	226.19
827.69	226.17
828.00	226.16
828.32	226.14
828.64	226.11
828.95	226.15
829.27	226.11
829.58	226.13
829.90	226.11
830.22	226.11
830.53	226.08
830.85	226.06
831.17	226.05
831.48	226.01
831.80	225.99
832.11	225.94
832.43	225.94
832.75	225.94
833.06	225.98
833.38	225.96
833.69	225.93
834.01	225.88
834.32	225.88
834.64	225.87
834.96	225.90
835.27	225.91
835.59	225.88
835.90	225.84
836.22	225.81
836.53	225.81
836.85	225.78
837.16	225.91
837.48	225.91
837.79	225.93
838.11	225.92
838.42	225.90
838.74	225.92
839.05	225.84
839.37	225.82
839.68	225.72
840.00	225.67
840.31	225.65
840.63	225.67
840.94	225.62
841.26	225.59
841.57	225.55
841.88	225.55
842.20	225.51
842.51	225.49
842.83	225.50
843.14	225.57
843.46	225.56
843.77	225.47
844.08	225.46
844.40	225.42
844.71	225.42
845.03	225.42
845.34	225.40
845.65	225.43
845.97	225.42
846.28	225.42
846.60	225.44
846.91	225.45
847.22	225.42
847.54	225.41
847.85	225.42
848.16	225.37
848.48	225.34
848.79	225.37
849.10	225.37
849.42	225.36
849.73	225.27
850.04	225.23
850.36	225.20
850.67	225.21
850.98	225.20
851.30	225.19
851.61	225.17
851.92	225.17
852.23	225.20
852.55	225.22
852.86	225.23
853.17	225.25
853.49	225.25
853.80	225.28
854.11	225.31
854.42	225.31
854.74	225.32
855.05	225.36
855.36	225.34
855.67	225.40
855.99	225.40
856.30	225.53
856.61	225.52
856.92	225.51
857.23	225.50
857.55	225.52
857.86	225.54
858.17	225.56
858.48	225.57
858.79	225.54
859.11	225.52
859.42	225.54
859.73	225.53
860.04	225.53
860.35	225.51
860.66	225.48
860.98	225.48
861.29	225.47
861.60	225.44
861.91	225.43
862.22	225.38
862.53	225.34
862.84	225.21
863.16	225.26
863.47	225.25
863.78	225.26
864.09	225.29
864.40	225.27
864.71	225.28
865.02	225.28
865.33	225.23
865.64	225.22
865.95	225.22
866.27	225.27
866.58	225.24
866.89	225.25
867.20	225.25
867.51	225.23
867.82	225.22
868.13	225.23
868.44	225.18
868.75	225.21
869.06	225.24
869.37	225.25
869.68	225.20
869.99	225.22
870.30	225.20
870.61	225.16
870.92	225.13
871.23	225.11
871.54	225.09
871.85	225.14
872.16	225.16
872.47	225.14
872.78	225.07
873.09	225.09
873.40	225.07
873.71	225.07
874.02	225.06
874.33	225.10
874.64	225.09
874.95	225.11
875.26	225.07
875.56	225.08
875.87	225.08
876.18	225.07
876.49	225.14
876.80	225.12
877.11	225.11
877.42	225.12
877.73	225.12
878.04	225.13
878.35	225.12
878.66	225.11
878.96	225.09
879.27	225.08
879.58	225.06
879.89	225.04
880.20	225.03
880.51	225.03
880.82	224.98
881.12	225.00
881.43	224.98
881.74	224.95
882.05	224.93
882.36	224.94
882.67	224.92
882.97	224.84
883.28	224.83
883.59	224.83
883.90	224.83
884.21	224.85
884.51	224.85
884.82	224.83
885.13	224.85
885.44	224.86
885.74	224.88
886.05	224.90
886.36	224.89
886.67	224.87
886.98	224.93
887.28	224.92
887.59	224.90
887.90	224.91
888.20	224.92
888.51	224.93
888.82	224.90
889.13	224.95
889.43	225.05
889.74	225.09
890.05	225.09
890.35	225.08
890.66	225.05
890.97	225.05
891.28	225.06
891.58	225.05
891.89	225.05
892.20	225.04
892.50	225.00
892.81	225.01
893.12	225.01
893.42	224.97
893.73	225.00
894.04	225.00
894.34	225.00
894.65	225.02
894.95	225.01
895.26	225.02
895.57	225.04
895.87	224.94
896.18	224.92
896.48	224.93
896.79	224.95
897.10	225.00
897.40	224.99
897.71	224.99
898.01	224.95
898.32	224.98
898.63	224.96
898.93	224.97
899.24	225.00
899.54	225.02
899.85	225.02
900.15	225.03
900.46	225.03
900.76	225.04
901.07	225.02
901.38	224.99
901.68	225.00
901.99	224.95
902.29	224.95
902.60	224.93
902.90	224.90
903.21	224.87
903.51	224.85
903.82	224.86
904.12	224.91
904.43	224.93
904.73	224.92
905.03	224.96
905.34	225.07
905.64	225.04
905.95	225.04
906.25	225.03
906.56	225.05
906.86	225.05
907.17	225.02
907.47	225.04
907.77	225.06
908.08	225.01
908.38	225.00
908.69	225.00
908.99	225.04
909.30	225.03
909.60	225.03
909.90	225.04
910.21	224.98
910.51	224.95
910.81	224.94
911.12	224.97
911.42	224.94
911.73	224.83
912.03	224.80
912.33	224.80
912.64	224.80
912.94	224.75
913.24	224.73
913.55	224.76
913.85	224.72
914.15	224.71
914.46	224.74
914.76	224.72
915.06	224.70
915.37	224.65
915.67	224.64
915.97	224.63
916.27	224.55
916.58	224.56
916.88	224.54
917.18	224.50
917.49	224.52
917.79	224.49
918.09	224.51
918.39	224.54
918.70	224.55
919.00	224.52
919.30	224.55
919.60	224.56
919.91	224.52
920.21	224.55
920.51	224.55
920.81	224.53
921.12	224.56
921.42	224.55
921.72	224.57
922.02	224.57
922.32	224.61
922.63	224.65
922.93	224.71
923.23	224.73
923.53	224.73
923.83	224.67
924.13	224.68
924.44	224.70
924.74	224.71
925.04	224.74
925.34	224.74
925.64	224.72
925.94	224.71
926.24	224.80
926.55	224.78
926.85	224.79
927.15	224.81
927.45	224.80
927.75	224.82
928.05	224.84
928.35	224.86
928.65	224.86
928.95	224.84
929.26	224.81
929.56	224.81
929.86	224.85
930.16	224.86
930.46	224.85
930.76	224.84
931.06	224.80
931.36	224.77
931.66	224.78
931.96	224.79
932.26	224.80
932.56	224.75
932.86	224.76
933.16	224.74
933.46	224.74
933.76	224.75
934.06	224.76
934.36	224.81
934.66	224.81
934.96	224.82
935.26	224.83
935.56	224.88
935.86	224.85
936.16	224.86
936.46	224.85
936.76	224.85
937.06	224.84
937.36	224.88
937.66	224.90
937.96	224.89
938.26	224.88
938.56	224.86
938.86	224.84
939.16	224.87
939.46	224.91
939.76	224.89
940.06	224.88
940.35	224.87
940.65	224.80
940.95	224.78
941.25	224.75
941.55	224.75
941.85	224.69
942.15	224.71
942.45	224.72
942.75	224.72
943.04	224.73
943.34	224.74
943.64	224.70
943.94	224.64
944.24	224.66
944.54	224.66
944.84	224.67
945.13	224.68
945.43	224.65
945.73	224.64
946.03	224.65
946.33	224.63
946.62	224.63
946.92	224.61
947.22	224.64
947.52	224.64
947.82	224.64
948.11	224.61
948.41	224.59
948.71	224.56
949.01	224.54
949.31	224.53
949.60	224.53
949.90	224.54
950.20	224.58
950.50	224.57
950.79	224.55
951.09	224.56
951.39	224.54
951.69	224.53
951.98	224.51
952.28	224.50
952.58	224.52
952.87	224.51
953.17	224.54
953.47	224.51
953.76	224.50
954.06	224.49
954.36	224.51
954.66	224.52
954.95	224.56
955.25	224.56
955.55	224.56
955.84	224.50
956.14	224.51
956.44	224.50
956.73	224.50
957.03	224.50
957.32	224.51
957.62	224.51
957.92	224.58
958.21	224.57
958.51	224.70
958.81	224.70
959.10	224.72
959.40	224.72
959.69	224.72
959.99	224.76
960.29	224.76
960.58	224.77
960.88	224.76
961.17	224.75
961.47	224.78
961.76	224.75
962.06	224.81
962.36	224.81
962.65	224.82
962.95	224.83
963.24	224.87
963.54	224.86
963.83	224.85
964.13	224.81
964.42	224.84
964.72	224.76
965.01	224.76
965.31	224.73
965.60	224.71
965.90	224.80
966.19	224.78
966.49	224.78
966.78	224.80
967.08	224.83
967.37	224.81
967.67	224.81
967.96	224.86
968.26	224.85
968.55	224.85
968.85	224.85
969.14	224.82
969.43	224.80
969.73	224.81
970.02	224.83
970.32	224.82
970.61	224.82
970.91	224.81
971.20	224.76
971.49	224.77
971.79	224.81
972.08	224.72
972.38	224.71
972.67	224.71
972.96	224.71
973.26	224.69
973.55	224.72
973.85	224.73
974.14	224.72
974.43	224.77
974.73	224.75
975.02	224.75
975.31	224.77
975.61	224.74
975.90	224.71
976.19	224.69
976.49	224.68
976.78	224.67
977.07	224.65
977.37	224.68
977.66	224.69
977.95	224.66
978.24	224.70
978.54	224.72
978.83	224.69
979.12	224.68
979.42	224.65
979.71	224.61
980.00	224.59
980.29	224.57
980.59	224.51
980.88	224.56
981.17	224.57
981.46	224.57
981.76	224.60
982.05	224.62
982.34	224.65
982.63	224.66
982.93	224.68
983.22	224.71
983.51	224.73
983.80	224.73
984.09	224.73
984.39	224.69
984.68	224.66
984.97	224.70
985.26	224.70
985.55	224.73
985.85	224.73
986.14	224.74
986.43	224.74
986.72	224.74
987.01	224.68
987.30	224.66
987.59	224.65
987.89	224.65
988.18	224.65
988.47	224.60
988.76	224.57
989.05	224.55
989.34	224.54
989.63	224.54
989.92	224.53
990.22	224.51
990.51	224.52
990.80	224.53
991.09	224.51
991.38	224.54
991.67	224.54
991.96	224.52
992.25	224.53
992.54	224.54
992.83	224.56
993.12	224.57
993.41	224.59
993.70	224.62
993.99	224.63
994.28	224.65
994.58	224.69
994.87	224.68
995.16	224.67
995.45	224.65
995.74	224.62
996.03	224.63
996.32	224.68
996.61	224.70
996.90	224.70
997.19	224.70
997.48	224.71
997.77	224.70
998.06	224.72
998.34	224.72
998.63	224.71
998.92	224.70
999.21	224.69
999.50	224.74
999.79	224.71
1000.08	224.71
1000.37	224.71
1000.66	224.69
1000.95	224.74
1001.24	224.78
1001.53	224.79
1001.82	224.79
1002.11	224.75
1002.40	224.76
1002.68	224.78
1002.97	224.86
1003.26	224.85
1003.55	224.83
1003.84	224.86
1004.13	224.87
1004.42	224.86
1004.71	224.86
1004.99	224.88
1005.28	224.90
1005.57	224.84
1005.86	224.82
1006.15	224.82
1006.44	224.80
1006.72	224.81
1007.01	224.80
1007.30	224.79
1007.59	224.79
1007.88	224.77
1008.17	224.81
1008.45	224.79
1008.74	224.73
1009.03	224.66
1009.32	224.67
1009.60	224.65
1009.89	224.64
1010.18	224.62
1010.47	224.57
1010.76	224.57
1011.04	224.54
1011.33	224.53
1011.62	224.54
1011.91	224.55
1012.19	224.53
1012.48	224.51
1012.77	224.52
1013.05	224.57
1013.34	224.56
1013.63	224.55
1013.92	224.58
1014.20	224.56
1014.49	224.56
1014.78	224.58
1015.06	224.53
1015.35	224.56
1015.64	224.57
1015.92	224.58
1016.21	224.59
1016.50	224.62
1016.78	224.64
1017.07	224.66
1017.36	224.67
1017.64	224.62
1017.93	224.62
1018.22	224.61
1018.50	224.60
1018.79	224.58
1019.08	224.54
1019.36	224.54
1019.65	224.50
1019.93	224.48
1020.22	224.49
1020.51	224.55
1020.79	224.54
1021.08	224.29
1021.36	224.13
1021.65	224.31
1021.94	225.05
1022.22	224.55
1022.51	223.86
1022.79	224.39
1023.08	224.80
1023.36	226.05
1023.65	224.39
>>>>>End Processed Spectral Data<<<<<
