SpectraSuite Data File
++++++++++++++++++++++++++++++++++++
Date: Fri Feb 01 16:00:38 EST 2013
User: group
Dark Spectrum Present: No
Reference Spectrum Present: No
Number of Sampled Component Spectra: 1
Spectrometers: USB2E7196
Integration Time (usec): 35000 (USB2E7196)
Spectra Averaged: 100 (USB2E7196)
Boxcar Smoothing: 10 (USB2E7196)
Correct for Electrical Dark: No (USB2E7196)
Strobe/Lamp Enabled: No (USB2E7196)
Correct for Detector Non-linearity: No (USB2E7196)
Correct for Stray Light: No (USB2E7196)
Number of Pixels in Processed Spectrum: 2048
>>>>>Begin Processed Spectral Data<<<<<
339.09	0.00
339.48	214.54
339.86	216.12
340.24	217.31
340.63	218.79
341.01	221.89
341.39	221.84
341.78	222.78
342.16	223.93
342.54	224.87
342.93	212.99
343.31	223.77
343.69	224.30
344.07	224.76
344.46	225.18
344.84	225.56
345.22	225.83
345.60	226.05
345.99	226.26
346.37	226.39
346.75	226.50
347.13	226.55
347.52	226.61
347.90	226.69
348.28	226.73
348.66	226.78
349.05	226.76
349.43	226.77
349.81	226.82
350.19	226.90
350.57	226.95
350.96	227.02
351.34	227.07
351.72	227.17
352.10	227.25
352.48	227.30
352.87	227.38
353.25	227.42
353.63	227.49
354.01	227.59
354.39	227.68
354.77	227.75
355.15	227.86
355.54	227.90
355.92	227.94
356.30	228.04
356.68	228.16
357.06	228.26
357.44	228.33
357.82	228.38
358.20	228.45
358.58	228.50
358.97	228.55
359.35	228.64
359.73	228.73
360.11	228.76
360.49	228.85
360.87	228.87
361.25	228.91
361.63	229.00
362.01	228.98
362.39	228.99
362.77	229.00
363.15	229.04
363.53	229.10
363.91	229.12
364.29	229.11
364.67	229.04
365.05	229.06
365.43	229.07
365.81	229.08
366.19	229.09
366.57	229.12
366.95	229.12
367.33	229.12
367.71	229.09
368.09	229.12
368.47	229.08
368.85	229.12
369.23	229.10
369.61	229.02
369.99	229.04
370.37	229.06
370.75	229.08
371.13	229.01
371.51	228.94
371.89	228.95
372.27	228.93
372.65	228.88
373.03	228.82
373.41	228.77
373.78	228.69
374.16	228.60
374.54	228.53
374.92	228.44
375.30	228.37
375.68	228.29
376.06	228.21
376.44	228.16
376.82	228.04
377.19	227.97
377.57	227.91
377.95	227.83
378.33	227.75
378.71	227.62
379.09	227.57
379.47	227.54
379.84	227.43
380.22	227.34
380.60	227.28
380.98	227.25
381.36	227.20
381.73	227.17
382.11	227.13
382.49	227.06
382.87	226.97
383.25	226.90
383.62	226.98
384.00	226.93
384.38	226.87
384.76	226.82
385.13	226.82
385.51	226.78
385.89	226.73
386.27	226.67
386.64	226.65
387.02	226.60
387.40	226.57
387.78	226.56
388.15	226.52
388.53	226.47
388.91	226.40
389.29	226.35
389.66	226.31
390.04	226.28
390.42	226.30
390.79	226.29
391.17	226.31
391.55	226.17
391.92	226.16
392.30	226.17
392.68	226.19
393.05	226.17
393.43	226.17
393.81	226.15
394.18	226.13
394.56	226.14
394.94	226.17
395.31	226.18
395.69	226.23
396.06	226.28
396.44	226.32
396.82	226.36
397.19	226.46
397.57	226.51
397.95	226.60
398.32	226.61
398.70	226.69
399.07	226.72
399.45	226.77
399.82	226.84
400.20	226.90
400.58	226.99
400.95	227.04
401.33	227.14
401.70	227.27
402.08	227.41
402.45	227.47
402.83	227.57
403.20	227.68
403.58	227.77
403.95	227.92
404.33	228.06
404.71	228.18
405.08	228.36
405.46	228.52
405.83	228.64
406.21	228.81
406.58	228.97
406.96	229.13
407.33	229.30
407.70	229.46
408.08	229.73
408.45	229.94
408.83	230.21
409.20	230.43
409.58	230.65
409.95	230.88
410.33	231.21
410.70	231.45
411.08	231.75
411.45	232.02
411.82	232.28
412.20	232.65
412.57	233.04
412.95	233.32
413.32	233.74
413.69	234.10
414.07	234.52
414.44	234.99
414.82	235.45
415.19	236.00
415.56	236.56
415.94	237.12
416.31	237.75
416.68	238.34
417.06	239.04
417.43	239.68
417.81	240.45
418.18	241.19
418.55	242.07
418.93	242.91
419.30	243.80
419.67	244.75
420.04	245.67
420.42	246.68
420.79	247.85
421.16	248.98
421.54	250.20
421.91	251.42
422.28	252.68
422.66	254.04
423.03	255.34
423.40	256.67
423.77	258.09
424.15	259.49
424.52	260.98
424.89	262.57
425.26	264.16
425.64	265.60
426.01	267.20
426.38	268.81
426.75	270.48
427.13	272.22
427.50	274.04
427.87	275.92
428.24	277.75
428.61	279.50
428.99	281.44
429.36	283.49
429.73	285.52
430.10	287.53
430.47	289.56
430.85	291.68
431.22	293.95
431.59	296.29
431.96	298.54
432.33	301.06
432.70	303.44
433.08	306.25
433.45	308.91
433.82	311.55
434.19	314.47
434.56	317.30
434.93	319.96
435.30	322.56
435.68	325.46
436.05	328.34
436.42	331.15
436.79	333.66
437.16	336.39
437.53	339.26
437.90	342.06
438.27	344.80
438.64	347.64
439.01	350.21
439.38	352.49
439.75	354.67
440.13	357.15
440.50	359.49
440.87	361.31
441.24	363.27
441.61	365.38
441.98	366.84
442.35	368.55
442.72	370.37
443.09	372.14
443.46	373.07
443.83	373.60
444.20	374.07
444.57	374.86
444.94	375.15
445.31	375.43
445.68	375.79
446.05	375.88
446.42	375.48
446.79	375.06
447.16	374.60
447.53	374.21
447.90	372.97
448.27	371.80
448.64	370.22
449.01	369.06
449.37	367.11
449.74	365.25
450.11	363.09
450.48	360.60
450.85	358.09
451.22	355.95
451.59	354.00
451.96	352.05
452.33	349.51
452.70	347.12
453.07	344.33
453.43	341.42
453.80	338.65
454.17	335.97
454.54	333.44
454.91	330.68
455.28	328.09
455.65	325.68
456.02	323.21
456.38	321.03
456.75	318.35
457.12	316.08
457.49	313.84
457.86	311.66
458.23	309.86
458.59	307.82
458.96	305.75
459.33	303.83
459.70	301.99
460.07	300.50
460.43	298.81
460.80	297.18
461.17	295.77
461.54	294.30
461.91	292.89
462.27	291.41
462.64	290.17
463.01	288.81
463.38	287.51
463.74	286.19
464.11	285.06
464.48	284.03
464.85	282.90
465.21	282.02
465.58	281.07
465.95	279.99
466.32	279.11
466.68	278.21
467.05	277.35
467.42	276.47
467.78	275.51
468.15	274.66
468.52	274.03
468.88	273.14
469.25	272.35
469.62	271.70
469.98	271.04
470.35	270.46
470.72	269.87
471.08	269.20
471.45	268.67
471.82	268.14
472.18	267.57
472.55	267.17
472.92	266.65
473.28	266.22
473.65	265.74
474.02	265.26
474.38	264.91
474.75	264.60
475.11	264.24
475.48	264.01
475.85	263.76
476.21	263.50
476.58	263.34
476.94	263.16
477.31	263.00
477.67	262.90
478.04	262.76
478.41	262.67
478.77	262.72
479.14	262.64
479.50	262.63
479.87	262.68
480.23	262.72
480.60	262.79
480.96	262.89
481.33	263.13
481.69	263.36
482.06	263.54
482.42	263.72
482.79	264.01
483.15	264.31
483.52	264.67
483.88	265.05
484.25	265.42
484.61	265.88
484.98	266.38
485.34	266.90
485.71	267.45
486.07	268.07
486.44	268.64
486.80	269.36
487.17	270.09
487.53	270.92
487.90	271.78
488.26	272.75
488.62	273.72
488.99	274.67
489.35	275.71
489.72	276.85
490.08	278.07
490.44	279.31
490.81	280.68
491.17	282.07
491.54	283.55
491.90	285.13
492.26	286.79
492.63	288.50
492.99	290.31
493.36	292.20
493.72	294.23
494.08	296.34
494.45	298.59
494.81	301.02
495.17	303.42
495.54	305.99
495.90	308.67
496.26	311.45
496.63	314.41
496.99	317.54
497.35	320.81
497.72	324.19
498.08	327.72
498.44	331.32
498.80	335.25
499.17	339.30
499.53	343.43
499.89	347.80
500.26	352.28
500.62	356.97
500.98	361.91
501.34	367.01
501.71	372.30
502.07	377.69
502.43	383.27
502.79	389.13
503.16	395.25
503.52	401.48
503.88	407.95
504.24	414.65
504.60	421.56
504.97	428.62
505.33	436.00
505.69	443.67
506.05	451.50
506.41	459.36
506.78	467.51
507.14	476.01
507.50	484.76
507.86	493.80
508.22	503.00
508.59	512.26
508.95	521.87
509.31	531.70
509.67	541.87
510.03	552.18
510.39	562.74
510.75	573.51
511.12	584.50
511.48	595.80
511.84	607.20
512.20	618.66
512.56	630.69
512.92	642.85
513.28	655.20
513.64	667.73
514.00	680.50
514.37	693.45
514.73	706.48
515.09	719.51
515.45	732.84
515.81	746.39
516.17	760.43
516.53	774.51
516.89	788.64
517.25	802.81
517.61	817.11
517.97	831.53
518.33	845.94
518.69	860.70
519.05	875.67
519.41	890.87
519.77	906.48
520.13	921.89
520.49	937.24
520.85	952.77
521.21	968.45
521.57	984.64
521.93	1000.43
522.29	1016.83
522.65	1033.02
523.01	1049.21
523.37	1065.19
523.73	1081.35
524.09	1097.45
524.45	1113.79
524.81	1130.34
525.17	1147.20
525.53	1164.17
525.89	1181.10
526.25	1197.87
526.61	1214.29
526.97	1230.98
527.33	1247.43
527.68	1264.00
528.04	1280.38
528.40	1296.79
528.76	1313.83
529.12	1330.41
529.48	1347.15
529.84	1363.13
530.20	1379.75
530.56	1396.64
530.91	1414.14
531.27	1430.70
531.63	1447.15
531.99	1463.67
532.35	1479.72
532.71	1495.64
533.07	1511.76
533.42	1527.44
533.78	1543.56
534.14	1559.77
534.50	1575.09
534.86	1590.81
535.21	1605.97
535.57	1622.00
535.93	1637.52
536.29	1652.17
536.65	1667.24
537.00	1681.99
537.36	1697.25
537.72	1711.74
538.08	1726.26
538.44	1739.89
538.79	1753.85
539.15	1767.43
539.51	1781.06
539.87	1795.38
540.22	1809.02
540.58	1822.79
540.94	1836.24
541.29	1849.05
541.65	1861.66
542.01	1874.77
542.37	1887.20
542.72	1899.68
543.08	1911.23
543.44	1923.54
543.79	1934.86
544.15	1945.77
544.51	1957.34
544.87	1968.33
545.22	1978.95
545.58	1989.00
545.94	1998.80
546.29	2008.60
546.65	2018.44
547.01	2027.76
547.36	2036.47
547.72	2045.00
548.07	2052.83
548.43	2060.93
548.79	2068.99
549.14	2076.46
549.50	2083.71
549.86	2091.34
550.21	2098.62
550.57	2105.99
550.92	2112.50
551.28	2119.48
551.64	2126.60
551.99	2133.04
552.35	2139.01
552.70	2145.32
553.06	2151.41
553.41	2157.72
553.77	2163.74
554.13	2169.85
554.48	2175.98
554.84	2181.26
555.19	2186.64
555.55	2191.71
555.90	2196.19
556.26	2200.97
556.61	2205.77
556.97	2210.26
557.32	2214.38
557.68	2218.48
558.03	2222.71
558.39	2226.52
558.74	2231.17
559.10	2235.08
559.45	2238.81
559.81	2243.31
560.16	2247.10
560.52	2250.31
560.87	2253.65
561.23	2256.33
561.58	2259.21
561.94	2261.76
562.29	2264.25
562.64	2266.77
563.00	2269.39
563.35	2272.94
563.71	2276.16
564.06	2279.35
564.42	2282.05
564.77	2284.46
565.12	2286.61
565.48	2288.43
565.83	2290.31
566.19	2291.45
566.54	2292.37
566.89	2293.47
567.25	2294.10
567.60	2295.50
567.96	2297.12
568.31	2298.00
568.66	2299.18
569.02	2299.77
569.37	2300.15
569.72	2300.94
570.08	2301.10
570.43	2301.38
570.78	2300.80
571.14	2299.16
571.49	2297.88
571.84	2297.66
572.20	2296.63
572.55	2295.69
572.90	2294.39
573.26	2292.94
573.61	2291.46
573.96	2289.64
574.31	2286.72
574.67	2283.67
575.02	2280.08
575.37	2276.84
575.72	2273.05
576.08	2269.68
576.43	2266.34
576.78	2262.54
577.13	2259.53
577.49	2256.56
577.84	2252.89
578.19	2249.25
578.54	2245.72
578.90	2241.53
579.25	2236.01
579.60	2230.97
579.95	2225.95
580.30	2220.82
580.66	2215.73
581.01	2210.82
581.36	2205.85
581.71	2201.73
582.06	2197.26
582.42	2192.73
582.77	2187.48
583.12	2183.01
583.47	2178.31
583.82	2173.43
584.17	2168.20
584.53	2162.70
584.88	2156.98
585.23	2151.32
585.58	2145.85
585.93	2140.34
586.28	2135.68
586.63	2130.56
586.98	2125.60
587.34	2120.99
587.69	2116.09
588.04	2110.75
588.39	2105.07
588.74	2098.60
589.09	2092.38
589.44	2085.55
589.79	2079.69
590.14	2074.08
590.49	2067.54
590.84	2061.10
591.19	2055.11
591.54	2048.73
591.89	2041.26
592.25	2034.50
592.60	2027.26
592.95	2019.56
593.30	2012.34
593.65	2004.55
594.00	1997.53
594.35	1990.26
594.70	1982.29
595.05	1975.02
595.40	1967.77
595.75	1960.28
596.10	1954.12
596.45	1947.50
596.80	1941.38
597.15	1934.63
597.50	1927.41
597.85	1921.03
598.19	1914.40
598.54	1907.16
598.89	1900.46
599.24	1894.66
599.59	1887.80
599.94	1881.66
600.29	1875.29
600.64	1868.59
600.99	1861.27
601.34	1854.40
601.69	1847.47
602.04	1840.54
602.39	1833.31
602.74	1826.57
603.08	1819.80
603.43	1813.08
603.78	1805.69
604.13	1798.41
604.48	1791.05
604.83	1784.21
605.18	1777.15
605.53	1769.22
605.87	1761.25
606.22	1754.08
606.57	1746.03
606.92	1738.85
607.27	1731.53
607.62	1724.65
607.96	1717.39
608.31	1710.64
608.66	1703.18
609.01	1695.59
609.36	1687.93
609.70	1679.93
610.05	1671.83
610.40	1664.11
610.75	1655.78
611.10	1648.18
611.44	1639.78
611.79	1631.86
612.14	1623.18
612.49	1614.03
612.83	1605.68
613.18	1597.53
613.53	1589.43
613.88	1580.92
614.22	1572.60
614.57	1564.07
614.92	1555.97
615.27	1548.42
615.61	1540.11
615.96	1532.00
616.31	1524.44
616.65	1517.09
617.00	1509.39
617.35	1501.76
617.70	1493.27
618.04	1484.79
618.39	1476.58
618.74	1469.09
619.08	1460.82
619.43	1453.25
619.78	1446.34
620.12	1439.08
620.47	1431.64
620.82	1423.45
621.16	1416.02
621.51	1408.47
621.85	1400.75
622.20	1392.24
622.55	1383.93
622.89	1376.12
623.24	1368.51
623.59	1361.14
623.93	1353.63
624.28	1346.55
624.62	1338.96
624.97	1331.90
625.32	1325.18
625.66	1318.05
626.01	1310.90
626.35	1303.48
626.70	1295.78
627.04	1287.97
627.39	1280.18
627.73	1272.73
628.08	1265.83
628.43	1258.58
628.77	1251.05
629.12	1243.62
629.46	1236.58
629.81	1229.18
630.15	1221.91
630.50	1214.49
630.84	1206.29
631.19	1198.31
631.53	1190.70
631.88	1183.15
632.22	1175.60
632.57	1168.21
632.91	1160.78
633.26	1153.29
633.60	1145.93
633.95	1138.83
634.29	1131.82
634.64	1125.14
634.98	1117.71
635.32	1110.52
635.67	1103.89
636.01	1097.33
636.36	1090.52
636.70	1083.93
637.05	1077.27
637.39	1070.84
637.73	1064.23
638.08	1058.28
638.42	1052.33
638.77	1045.93
639.11	1039.28
639.45	1032.93
639.80	1026.21
640.14	1019.69
640.49	1013.09
640.83	1006.70
641.17	1000.39
641.52	994.04
641.86	987.65
642.20	981.80
642.55	975.54
642.89	969.06
643.23	962.56
643.58	956.68
643.92	950.47
644.26	944.39
644.61	938.44
644.95	932.40
645.29	925.81
645.64	919.06
645.98	912.69
646.32	906.92
646.66	900.77
647.01	895.01
647.35	889.32
647.69	883.48
648.04	877.93
648.38	872.19
648.72	866.15
649.06	860.11
649.41	854.32
649.75	848.31
650.09	842.35
650.43	836.56
650.78	830.42
651.12	824.49
651.46	818.77
651.80	812.91
652.14	807.57
652.49	802.19
652.83	797.03
653.17	791.29
653.51	785.59
653.85	780.19
654.20	774.51
654.54	768.55
654.88	762.80
655.22	756.92
655.56	751.18
655.90	745.84
656.25	740.55
656.59	735.18
656.93	730.08
657.27	724.90
657.61	719.45
657.95	714.33
658.29	709.21
658.64	703.97
658.98	698.70
659.32	693.22
659.66	688.08
660.00	682.76
660.34	677.79
660.68	672.89
661.02	667.90
661.36	663.22
661.70	658.68
662.05	654.40
662.39	650.07
662.73	645.69
663.07	641.32
663.41	636.84
663.75	632.36
664.09	627.78
664.43	623.38
664.77	619.27
665.11	615.05
665.45	610.98
665.79	606.85
666.13	602.70
666.47	598.64
666.81	594.45
667.15	590.37
667.49	586.52
667.83	582.69
668.17	578.74
668.51	574.68
668.85	570.65
669.19	566.76
669.53	562.95
669.87	559.01
670.21	555.25
670.55	551.59
670.89	548.15
671.23	544.76
671.57	541.22
671.91	537.71
672.25	534.21
672.58	530.64
672.92	527.27
673.26	524.06
673.60	520.89
673.94	517.71
674.28	514.80
674.62	511.85
674.96	508.75
675.30	505.80
675.64	502.87
675.97	500.11
676.31	497.18
676.65	494.24
676.99	491.54
677.33	488.67
677.67	485.88
678.01	482.86
678.34	479.88
678.68	477.05
679.02	474.26
679.36	471.50
679.70	468.79
680.04	466.00
680.37	463.13
680.71	460.30
681.05	457.75
681.39	454.98
681.73	452.31
682.06	449.73
682.40	447.23
682.74	444.69
683.08	442.15
683.42	439.61
683.75	437.14
684.09	434.58
684.43	432.12
684.77	429.67
685.10	427.33
685.44	425.06
685.78	422.80
686.12	420.55
686.45	418.20
686.79	415.92
687.13	413.73
687.46	411.62
687.80	409.54
688.14	407.28
688.48	405.28
688.81	403.09
689.15	400.93
689.49	398.78
689.82	396.73
690.16	394.63
690.50	392.68
690.83	390.72
691.17	388.77
691.51	386.87
691.84	384.99
692.18	383.06
692.52	381.07
692.85	379.13
693.19	377.22
693.52	375.48
693.86	373.68
694.20	371.91
694.53	370.10
694.87	368.22
695.21	366.45
695.54	364.61
695.88	362.88
696.21	361.15
696.55	359.48
696.88	357.72
697.22	356.09
697.56	354.45
697.89	352.81
698.23	351.22
698.56	349.63
698.90	348.08
699.23	346.42
699.57	344.86
699.90	343.29
700.24	341.78
700.58	340.27
700.91	338.76
701.25	337.32
701.58	335.98
701.92	334.65
702.25	333.27
702.59	331.90
702.92	330.59
703.26	329.31
703.59	328.03
703.93	326.94
704.26	325.69
704.60	324.38
704.93	323.08
705.26	321.82
705.60	320.63
705.93	319.44
706.27	318.41
706.60	317.38
706.94	316.33
707.27	315.15
707.61	314.07
707.94	313.04
708.27	311.94
708.61	310.82
708.94	309.79
709.28	308.82
709.61	307.85
709.94	306.86
710.28	305.85
710.61	304.87
710.95	303.73
711.28	302.84
711.61	301.90
711.95	301.01
712.28	300.05
712.61	299.04
712.95	298.11
713.28	297.22
713.61	296.30
713.95	295.40
714.28	294.57
714.61	293.71
714.95	292.85
715.28	291.99
715.61	291.15
715.95	290.27
716.28	289.44
716.61	288.62
716.95	287.82
717.28	287.08
717.61	286.28
717.94	285.56
718.28	284.70
718.61	283.98
718.94	283.22
719.27	282.55
719.61	281.93
719.94	281.26
720.27	280.51
720.60	279.83
720.94	279.18
721.27	278.58
721.60	277.98
721.93	277.40
722.27	276.85
722.60	276.28
722.93	275.71
723.26	275.15
723.59	274.57
723.93	274.02
724.26	273.44
724.59	272.89
724.92	272.36
725.25	271.88
725.59	271.35
725.92	270.88
726.25	270.35
726.58	269.86
726.91	269.37
727.24	268.93
727.57	268.47
727.91	267.96
728.24	267.49
728.57	267.02
728.90	266.56
729.23	266.09
729.56	265.68
729.89	265.21
730.22	264.72
730.55	264.24
730.89	263.78
731.22	263.39
731.55	262.98
731.88	262.56
732.21	262.11
732.54	261.70
732.87	261.28
733.20	260.89
733.53	260.52
733.86	260.15
734.19	259.74
734.52	259.36
734.85	259.09
735.18	258.68
735.51	258.29
735.84	257.92
736.17	257.57
736.50	257.15
736.83	256.97
737.16	256.63
737.49	256.32
737.82	255.99
738.15	255.64
738.48	255.30
738.81	254.97
739.14	254.67
739.47	254.34
739.80	254.06
740.13	253.76
740.46	253.41
740.79	253.07
741.12	252.78
741.45	252.48
741.78	252.10
742.11	251.81
742.44	251.52
742.77	251.20
743.10	250.89
743.43	250.58
743.75	250.16
744.08	250.02
744.41	249.71
744.74	249.42
745.07	249.10
745.40	248.85
745.73	248.62
746.06	248.35
746.39	248.10
746.71	247.81
747.04	247.50
747.37	247.25
747.70	246.99
748.03	246.76
748.36	246.52
748.68	246.31
749.01	246.06
749.34	245.82
749.67	245.59
750.00	245.39
750.33	245.23
750.65	245.04
750.98	244.66
751.31	244.45
751.64	244.23
751.97	244.09
752.29	243.86
752.62	243.57
752.95	243.38
753.28	243.18
753.60	242.97
753.93	242.82
754.26	242.61
754.59	242.42
754.91	242.17
755.24	241.96
755.57	241.75
755.90	241.54
756.22	241.34
756.55	241.16
756.88	240.93
757.20	240.71
757.53	240.54
757.86	240.37
758.19	240.19
758.51	240.05
758.84	239.82
759.17	239.64
759.49	239.53
759.82	239.36
760.15	239.18
760.47	239.03
760.80	238.84
761.13	238.72
761.45	238.55
761.78	238.41
762.11	238.26
762.43	238.12
762.76	237.98
763.08	237.87
763.41	237.73
763.74	237.59
764.06	237.46
764.39	237.29
764.71	237.18
765.04	237.04
765.37	236.89
765.69	236.78
766.02	236.64
766.34	236.49
766.67	236.33
767.00	236.26
767.32	236.19
767.65	236.15
767.97	236.02
768.30	235.91
768.62	235.81
768.95	235.73
769.27	235.60
769.60	235.53
769.92	235.40
770.25	235.31
770.57	235.20
770.90	235.09
771.22	234.99
771.55	234.91
771.87	234.86
772.20	234.78
772.52	234.77
772.85	234.80
773.17	234.75
773.50	234.69
773.82	234.58
774.15	234.45
774.47	234.31
774.80	234.19
775.12	234.10
775.45	234.02
775.77	233.94
776.09	233.87
776.42	233.77
776.74	233.72
777.07	233.63
777.39	233.56
777.72	233.47
778.04	233.42
778.36	233.34
778.69	233.29
779.01	233.27
779.33	233.12
779.66	232.97
779.98	232.87
780.31	232.79
780.63	232.79
780.95	232.79
781.28	232.73
781.60	232.69
781.92	232.63
782.25	232.59
782.57	232.51
782.89	232.44
783.22	232.37
783.54	232.29
783.86	232.26
784.19	232.22
784.51	232.19
784.83	232.10
785.16	232.05
785.48	231.97
785.80	231.87
786.12	231.83
786.45	231.78
786.77	231.75
787.09	231.71
787.42	231.60
787.74	231.51
788.06	231.45
788.38	231.42
788.71	231.38
789.03	231.33
789.35	231.31
789.67	231.24
789.99	231.21
790.32	231.16
790.64	231.10
790.96	231.13
791.28	231.02
791.61	230.97
791.93	230.91
792.25	230.87
792.57	230.90
792.89	230.81
793.21	230.76
793.54	230.68
793.86	230.62
794.18	230.57
794.50	230.53
794.82	230.48
795.14	230.45
795.47	230.41
795.79	230.37
796.11	230.31
796.43	230.27
796.75	230.22
797.07	230.15
797.39	230.09
797.71	230.02
798.04	230.01
798.36	229.98
798.68	229.94
799.00	229.91
799.32	229.81
799.64	229.83
799.96	229.78
800.28	229.76
800.60	229.73
800.92	229.71
801.24	229.66
801.56	229.64
801.89	229.59
802.21	229.58
802.53	229.56
802.85	229.51
803.17	229.56
803.49	229.54
803.81	229.52
804.13	229.52
804.45	229.45
804.77	229.45
805.09	229.44
805.41	229.43
805.73	229.38
806.05	229.34
806.37	229.29
806.69	229.23
807.01	229.18
807.33	229.18
807.65	229.13
807.97	229.15
808.28	229.08
808.60	229.03
808.92	228.97
809.24	228.99
809.56	228.99
809.88	228.94
810.20	228.92
810.52	228.94
810.84	228.88
811.16	228.83
811.48	228.82
811.80	228.85
812.12	228.82
812.43	228.85
812.75	228.81
813.07	228.81
813.39	228.85
813.71	228.84
814.03	228.81
814.35	228.76
814.67	228.67
814.98	228.67
815.30	228.68
815.62	228.68
815.94	228.56
816.26	228.60
816.58	228.56
816.89	228.55
817.21	228.51
817.53	228.52
817.85	228.52
818.17	228.51
818.48	228.47
818.80	228.49
819.12	228.45
819.44	228.43
819.76	228.41
820.07	228.41
820.39	228.42
820.71	228.44
821.03	228.43
821.34	228.47
821.66	228.50
821.98	228.49
822.30	228.44
822.61	228.53
822.93	228.48
823.25	228.46
823.57	228.42
823.88	228.40
824.20	228.38
824.52	228.37
824.83	228.34
825.15	228.31
825.47	228.28
825.79	228.27
826.10	228.29
826.42	228.27
826.74	228.22
827.05	228.20
827.37	228.17
827.69	228.20
828.00	228.15
828.32	228.12
828.64	228.10
828.95	228.14
829.27	228.10
829.58	228.07
829.90	228.07
830.22	228.10
830.53	228.06
830.85	228.06
831.17	228.02
831.48	227.99
831.80	227.95
832.11	227.93
832.43	227.90
832.75	227.90
833.06	227.93
833.38	227.89
833.69	227.89
834.01	227.88
834.32	227.85
834.64	227.84
834.96	227.84
835.27	227.85
835.59	227.83
835.90	227.79
836.22	227.77
836.53	227.74
836.85	227.70
837.16	227.78
837.48	227.74
837.79	227.76
838.11	227.76
838.42	227.76
838.74	227.75
839.05	227.71
839.37	227.65
839.68	227.60
840.00	227.60
840.31	227.59
840.63	227.57
840.94	227.53
841.26	227.52
841.57	227.49
841.88	227.45
842.20	227.42
842.51	227.40
842.83	227.38
843.14	227.44
843.46	227.40
843.77	227.37
844.08	227.36
844.40	227.34
844.71	227.32
845.03	227.32
845.34	227.29
845.65	227.30
845.97	227.28
846.28	227.23
846.60	227.22
846.91	227.17
847.22	227.15
847.54	227.18
847.85	227.17
848.16	227.15
848.48	227.13
848.79	227.14
849.10	227.18
849.42	227.18
849.73	227.11
850.04	227.14
850.36	227.10
850.67	227.13
850.98	227.12
851.30	227.12
851.61	227.09
851.92	227.09
852.23	227.13
852.55	227.15
852.86	227.17
853.17	227.16
853.49	227.23
853.80	227.26
854.11	227.26
854.42	227.27
854.74	227.28
855.05	227.28
855.36	227.25
855.67	227.21
855.99	227.25
856.30	227.34
856.61	227.33
856.92	227.35
857.23	227.33
857.55	227.32
857.86	227.32
858.17	227.35
858.48	227.37
858.79	227.32
859.11	227.31
859.42	227.34
859.73	227.34
860.04	227.33
860.35	227.30
860.66	227.29
860.98	227.29
861.29	227.30
861.60	227.29
861.91	227.31
862.22	227.31
862.53	227.28
862.84	227.18
863.16	227.18
863.47	227.17
863.78	227.18
864.09	227.21
864.40	227.21
864.71	227.23
865.02	227.24
865.33	227.26
865.64	227.29
865.95	227.27
866.27	227.37
866.58	227.38
866.89	227.37
867.20	227.37
867.51	227.35
867.82	227.37
868.13	227.43
868.44	227.42
868.75	227.43
869.06	227.44
869.37	227.47
869.68	227.47
869.99	227.48
870.30	227.48
870.61	227.45
870.92	227.45
871.23	227.43
871.54	227.44
871.85	227.43
872.16	227.41
872.47	227.41
872.78	227.33
873.09	227.29
873.40	227.28
873.71	227.29
874.02	227.30
874.33	227.28
874.64	227.24
874.95	227.24
875.26	227.22
875.56	227.22
875.87	227.21
876.18	227.21
876.49	227.29
876.80	227.30
877.11	227.32
877.42	227.33
877.73	227.31
878.04	227.30
878.35	227.31
878.66	227.31
878.96	227.29
879.27	227.25
879.58	227.25
879.89	227.23
880.20	227.26
880.51	227.25
880.82	227.27
881.12	227.28
881.43	227.25
881.74	227.25
882.05	227.21
882.36	227.18
882.67	227.17
882.97	227.07
883.28	227.04
883.59	227.02
883.90	227.03
884.21	227.04
884.51	226.99
884.82	226.94
885.13	226.94
885.44	226.97
885.74	227.00
886.05	227.01
886.36	227.01
886.67	226.94
886.98	226.92
887.28	226.92
887.59	226.88
887.90	226.89
888.20	226.88
888.51	226.89
888.82	226.89
889.13	226.88
889.43	226.89
889.74	226.88
890.05	226.85
890.35	226.79
890.66	226.75
890.97	226.78
891.28	226.79
891.58	226.75
891.89	226.73
892.20	226.70
892.50	226.69
892.81	226.68
893.12	226.68
893.42	226.67
893.73	226.65
894.04	226.66
894.34	226.66
894.65	226.65
894.95	226.66
895.26	226.66
895.57	226.71
895.87	226.67
896.18	226.69
896.48	226.71
896.79	226.72
897.10	226.73
897.40	226.75
897.71	226.77
898.01	226.79
898.32	226.79
898.63	226.78
898.93	226.80
899.24	226.82
899.54	226.84
899.85	226.83
900.15	226.83
900.46	226.85
900.76	226.86
901.07	226.89
901.38	226.90
901.68	226.90
901.99	226.83
902.29	226.84
902.60	226.87
902.90	226.86
903.21	226.88
903.51	226.92
903.82	226.95
904.12	226.98
904.43	227.00
904.73	227.03
905.03	227.07
905.34	227.11
905.64	227.11
905.95	227.10
906.25	227.11
906.56	227.14
906.86	227.13
907.17	227.15
907.47	227.18
907.77	227.17
908.08	227.16
908.38	227.21
908.69	227.22
908.99	227.23
909.30	227.24
909.60	227.23
909.90	227.25
910.21	227.17
910.51	227.13
910.81	227.14
911.12	227.14
911.42	227.14
911.73	227.10
912.03	227.11
912.33	227.14
912.64	227.17
912.94	227.16
913.24	227.13
913.55	227.08
913.85	227.04
914.15	227.02
914.46	227.02
914.76	227.00
915.06	226.98
915.37	226.94
915.67	226.93
915.97	226.94
916.27	226.93
916.58	226.94
916.88	226.94
917.18	226.93
917.49	226.96
917.79	226.96
918.09	226.95
918.39	226.97
918.70	226.95
919.00	226.91
919.30	226.93
919.60	226.89
919.91	226.88
920.21	226.88
920.51	226.88
920.81	226.88
921.12	226.90
921.42	226.88
921.72	226.90
922.02	226.87
922.32	226.85
922.63	226.83
922.93	226.87
923.23	226.88
923.53	226.84
923.83	226.72
924.13	226.71
924.44	226.69
924.74	226.69
925.04	226.69
925.34	226.71
925.64	226.64
925.94	226.68
926.24	226.73
926.55	226.71
926.85	226.70
927.15	226.65
927.45	226.61
927.75	226.58
928.05	226.58
928.35	226.57
928.65	226.58
928.95	226.57
929.26	226.53
929.56	226.50
929.86	226.53
930.16	226.57
930.46	226.55
930.76	226.55
931.06	226.46
931.36	226.42
931.66	226.39
931.96	226.41
932.26	226.41
932.56	226.36
932.86	226.35
933.16	226.38
933.46	226.40
933.76	226.38
934.06	226.40
934.36	226.41
934.66	226.43
934.96	226.43
935.26	226.43
935.56	226.42
935.86	226.40
936.16	226.35
936.46	226.34
936.76	226.36
937.06	226.35
937.36	226.42
937.66	226.43
937.96	226.45
938.26	226.45
938.56	226.45
938.86	226.47
939.16	226.52
939.46	226.51
939.76	226.51
940.06	226.52
940.35	226.52
940.65	226.47
940.95	226.46
941.25	226.45
941.55	226.48
941.85	226.51
942.15	226.56
942.45	226.62
942.75	226.63
943.04	226.64
943.34	226.63
943.64	226.62
943.94	226.62
944.24	226.63
944.54	226.61
944.84	226.64
945.13	226.63
945.43	226.64
945.73	226.65
946.03	226.68
946.33	226.68
946.62	226.70
946.92	226.74
947.22	226.79
947.52	226.79
947.82	226.79
948.11	226.77
948.41	226.76
948.71	226.73
949.01	226.78
949.31	226.75
949.60	226.77
949.90	226.78
950.20	226.78
950.50	226.77
950.79	226.80
951.09	226.82
951.39	226.82
951.69	226.81
951.98	226.83
952.28	226.81
952.58	226.81
952.87	226.81
953.17	226.78
953.47	226.77
953.76	226.78
954.06	226.73
954.36	226.69
954.66	226.69
954.95	226.70
955.25	226.69
955.55	226.69
955.84	226.69
956.14	226.69
956.44	226.69
956.73	226.69
957.03	226.70
957.32	226.66
957.62	226.65
957.92	226.63
958.21	226.60
958.51	226.71
958.81	226.74
959.10	226.75
959.40	226.78
959.69	226.76
959.99	226.75
960.29	226.77
960.58	226.80
960.88	226.82
961.17	226.79
961.47	226.78
961.76	226.80
962.06	226.78
962.36	226.76
962.65	226.76
962.95	226.77
963.24	226.73
963.54	226.76
963.83	226.77
964.13	226.79
964.42	226.75
964.72	226.67
965.01	226.65
965.31	226.67
965.60	226.64
965.90	226.70
966.19	226.69
966.49	226.68
966.78	226.67
967.08	226.68
967.37	226.69
967.67	226.66
967.96	226.64
968.26	226.64
968.55	226.63
968.85	226.59
969.14	226.58
969.43	226.60
969.73	226.58
970.02	226.58
970.32	226.57
970.61	226.59
970.91	226.55
971.20	226.53
971.49	226.51
971.79	226.52
972.08	226.46
972.38	226.48
972.67	226.49
972.96	226.50
973.26	226.44
973.55	226.45
973.85	226.45
974.14	226.46
974.43	226.48
974.73	226.48
975.02	226.52
975.31	226.49
975.61	226.51
975.90	226.51
976.19	226.50
976.49	226.51
976.78	226.53
977.07	226.54
977.37	226.55
977.66	226.56
977.95	226.56
978.24	226.56
978.54	226.55
978.83	226.55
979.12	226.57
979.42	226.61
979.71	226.62
980.00	226.65
980.29	226.67
980.59	226.65
980.88	226.67
981.17	226.69
981.46	226.75
981.76	226.71
982.05	226.74
982.34	226.73
982.63	226.74
982.93	226.72
983.22	226.74
983.51	226.74
983.80	226.73
984.09	226.75
984.39	226.74
984.68	226.72
984.97	226.71
985.26	226.70
985.55	226.67
985.85	226.61
986.14	226.60
986.43	226.58
986.72	226.61
987.01	226.59
987.30	226.60
987.59	226.54
987.89	226.58
988.18	226.54
988.47	226.54
988.76	226.48
989.05	226.44
989.34	226.43
989.63	226.46
989.92	226.46
990.22	226.43
990.51	226.45
990.80	226.47
991.09	226.50
991.38	226.51
991.67	226.51
991.96	226.55
992.25	226.54
992.54	226.52
992.83	226.51
993.12	226.50
993.41	226.50
993.70	226.56
993.99	226.54
994.28	226.60
994.58	226.58
994.87	226.62
995.16	226.67
995.45	226.66
995.74	226.61
996.03	226.60
996.32	226.63
996.61	226.65
996.90	226.64
997.19	226.61
997.48	226.64
997.77	226.65
998.06	226.65
998.34	226.62
998.63	226.64
998.92	226.61
999.21	226.63
999.50	226.61
999.79	226.59
1000.08	226.58
1000.37	226.58
1000.66	226.59
1000.95	226.58
1001.24	226.59
1001.53	226.61
1001.82	226.63
1002.11	226.60
1002.40	226.59
1002.68	226.61
1002.97	226.69
1003.26	226.70
1003.55	226.68
1003.84	226.67
1004.13	226.71
1004.42	226.74
1004.71	226.77
1004.99	226.80
1005.28	226.83
1005.57	226.83
1005.86	226.81
1006.15	226.80
1006.44	226.75
1006.72	226.78
1007.01	226.78
1007.30	226.76
1007.59	226.76
1007.88	226.75
1008.17	226.77
1008.45	226.78
1008.74	226.74
1009.03	226.69
1009.32	226.66
1009.60	226.66
1009.89	226.71
1010.18	226.66
1010.47	226.66
1010.76	226.63
1011.04	226.62
1011.33	226.63
1011.62	226.68
1011.91	226.69
1012.19	226.70
1012.48	226.74
1012.77	226.75
1013.05	226.81
1013.34	226.84
1013.63	226.82
1013.92	226.82
1014.20	226.81
1014.49	226.82
1014.78	226.82
1015.06	226.77
1015.35	226.79
1015.64	226.79
1015.92	226.77
1016.21	226.77
1016.50	226.78
1016.78	226.80
1017.07	226.82
1017.36	226.79
1017.64	226.77
1017.93	226.78
1018.22	226.80
1018.50	226.76
1018.79	226.76
1019.08	226.70
1019.36	226.69
1019.65	226.68
1019.93	226.71
1020.22	226.74
1020.51	226.77
1020.79	226.73
1021.08	226.74
1021.36	226.27
1021.65	226.86
1021.94	226.62
1022.22	226.73
1022.51	226.42
1022.79	226.95
1023.08	226.81
1023.36	227.97
1023.65	225.69
>>>>>End Processed Spectral Data<<<<<
