SpectraSuite Data File
++++++++++++++++++++++++++++++++++++
Date: Fri Feb 01 15:04:14 EST 2013
User: group
Dark Spectrum Present: No
Reference Spectrum Present: No
Number of Sampled Component Spectra: 1
Spectrometers: USB2E7196
Integration Time (usec): 35000 (USB2E7196)
Spectra Averaged: 100 (USB2E7196)
Boxcar Smoothing: 10 (USB2E7196)
Correct for Electrical Dark: No (USB2E7196)
Strobe/Lamp Enabled: No (USB2E7196)
Correct for Detector Non-linearity: No (USB2E7196)
Correct for Stray Light: No (USB2E7196)
Number of Pixels in Processed Spectrum: 2048
>>>>>Begin Processed Spectral Data<<<<<
339.09	0.00
339.48	214.95
339.86	216.68
340.24	217.95
340.63	219.89
341.01	222.26
341.39	222.99
341.78	223.16
342.16	225.38
342.54	225.66
342.93	213.73
343.31	224.52
343.69	225.07
344.07	225.54
344.46	225.97
344.84	226.35
345.22	226.57
345.60	226.79
345.99	226.98
346.37	227.07
346.75	227.13
347.13	227.21
347.52	227.27
347.90	227.31
348.28	227.33
348.66	227.40
349.05	227.41
349.43	227.41
349.81	227.44
350.19	227.53
350.57	227.59
350.96	227.67
351.34	227.76
351.72	227.85
352.10	227.95
352.48	228.03
352.87	228.06
353.25	228.14
353.63	228.20
354.01	228.29
354.39	228.36
354.77	228.45
355.15	228.53
355.54	228.58
355.92	228.62
356.30	228.68
356.68	228.79
357.06	228.85
357.44	228.91
357.82	228.95
358.20	228.99
358.58	229.05
358.97	229.10
359.35	229.18
359.73	229.21
360.11	229.29
360.49	229.34
360.87	229.37
361.25	229.42
361.63	229.49
362.01	229.53
362.39	229.54
362.77	229.56
363.15	229.57
363.53	229.57
363.91	229.57
364.29	229.56
364.67	229.49
365.05	229.49
365.43	229.51
365.81	229.52
366.19	229.54
366.57	229.56
366.95	229.53
367.33	229.50
367.71	229.50
368.09	229.47
368.47	229.41
368.85	229.41
369.23	229.39
369.61	229.31
369.99	229.27
370.37	229.28
370.75	229.25
371.13	229.20
371.51	229.17
371.89	229.13
372.27	229.08
372.65	229.04
373.03	229.00
373.41	228.92
373.78	228.83
374.16	228.72
374.54	228.62
374.92	228.53
375.30	228.44
375.68	228.34
376.06	228.24
376.44	228.17
376.82	228.09
377.19	228.03
377.57	227.94
377.95	227.85
378.33	227.75
378.71	227.65
379.09	227.58
379.47	227.50
379.84	227.44
380.22	227.36
380.60	227.29
380.98	227.19
381.36	227.10
381.73	227.03
382.11	226.99
382.49	226.90
382.87	226.84
383.25	226.76
383.62	226.84
384.00	226.76
384.38	226.69
384.76	226.64
385.13	226.63
385.51	226.56
385.89	226.51
386.27	226.44
386.64	226.39
387.02	226.34
387.40	226.30
387.78	226.29
388.15	226.26
388.53	226.21
388.91	226.20
389.29	226.20
389.66	226.21
390.04	226.17
390.42	226.20
390.79	226.20
391.17	226.19
391.55	226.06
391.92	226.09
392.30	226.10
392.68	226.11
393.05	226.09
393.43	226.16
393.81	226.17
394.18	226.21
394.56	226.26
394.94	226.33
395.31	226.36
395.69	226.36
396.06	226.39
396.44	226.44
396.82	226.48
397.19	226.60
397.57	226.64
397.95	226.73
398.32	226.77
398.70	226.83
399.07	226.94
399.45	227.02
399.82	227.10
400.20	227.21
400.58	227.31
400.95	227.34
401.33	227.42
401.70	227.61
402.08	227.71
402.45	227.81
402.83	227.93
403.20	228.05
403.58	228.20
403.95	228.36
404.33	228.51
404.71	228.66
405.08	228.81
405.46	228.95
405.83	229.10
406.21	229.27
406.58	229.45
406.96	229.60
407.33	229.79
407.70	230.03
408.08	230.30
408.45	230.55
408.83	230.80
409.20	231.05
409.58	231.22
409.95	231.50
410.33	231.78
410.70	232.02
411.08	232.33
411.45	232.64
411.82	232.96
412.20	233.30
412.57	233.71
412.95	233.99
413.32	234.41
413.69	234.78
414.07	235.21
414.44	235.68
414.82	236.18
415.19	236.70
415.56	237.22
415.94	237.74
416.31	238.33
416.68	238.97
417.06	239.66
417.43	240.32
417.81	241.06
418.18	241.85
418.55	242.68
418.93	243.54
419.30	244.47
419.67	245.38
420.04	246.31
420.42	247.31
420.79	248.49
421.16	249.64
421.54	250.84
421.91	252.06
422.28	253.31
422.66	254.60
423.03	255.90
423.40	257.21
423.77	258.61
424.15	260.04
424.52	261.52
424.89	263.13
425.26	264.70
425.64	266.16
426.01	267.75
426.38	269.39
426.75	271.03
427.13	272.70
427.50	274.50
427.87	276.39
428.24	278.24
428.61	279.99
428.99	281.91
429.36	284.05
429.73	286.11
430.10	288.14
430.47	290.23
430.85	292.36
431.22	294.62
431.59	297.02
431.96	299.27
432.33	301.76
432.70	304.12
433.08	306.93
433.45	309.61
433.82	312.22
434.19	315.16
434.56	317.97
434.93	320.66
435.30	323.30
435.68	326.20
436.05	329.03
436.42	331.85
436.79	334.39
437.16	337.04
437.53	339.88
437.90	342.69
438.27	345.43
438.64	348.26
439.01	350.82
439.38	353.09
439.75	355.26
440.13	357.74
440.50	360.06
440.87	361.88
441.24	363.81
441.61	365.97
441.98	367.49
442.35	369.34
442.72	371.22
443.09	373.03
443.46	374.04
443.83	374.64
444.20	375.11
444.57	375.96
444.94	376.31
445.31	376.68
445.68	377.08
446.05	377.16
446.42	376.78
446.79	376.41
447.16	375.93
447.53	375.63
447.90	374.51
448.27	373.38
448.64	371.83
449.01	370.64
449.37	368.71
449.74	366.77
450.11	364.53
450.48	361.97
450.85	359.45
451.22	357.30
451.59	355.30
451.96	353.37
452.33	350.79
452.70	348.38
453.07	345.53
453.43	342.59
453.80	339.84
454.17	337.18
454.54	334.66
454.91	331.94
455.28	329.25
455.65	326.73
456.02	324.27
456.38	322.13
456.75	319.49
457.12	317.23
457.49	314.98
457.86	312.78
458.23	310.98
458.59	308.95
458.96	306.87
459.33	304.96
459.70	303.07
460.07	301.54
460.43	299.83
460.80	298.21
461.17	296.74
461.54	295.19
461.91	293.75
462.27	292.26
462.64	291.00
463.01	289.65
463.38	288.38
463.74	287.01
464.11	285.83
464.48	284.78
464.85	283.64
465.21	282.76
465.58	281.83
465.95	280.73
466.32	279.81
466.68	278.89
467.05	278.01
467.42	277.12
467.78	276.17
468.15	275.27
468.52	274.56
468.88	273.73
469.25	272.96
469.62	272.35
469.98	271.69
470.35	271.05
470.72	270.44
471.08	269.75
471.45	269.20
471.82	268.65
472.18	268.05
472.55	267.61
472.92	267.08
473.28	266.61
473.65	266.14
474.02	265.70
474.38	265.31
474.75	264.99
475.11	264.64
475.48	264.40
475.85	264.17
476.21	263.94
476.58	263.73
476.94	263.55
477.31	263.35
477.67	263.19
478.04	263.08
478.41	262.99
478.77	263.01
479.14	262.95
479.50	262.94
479.87	263.00
480.23	263.08
480.60	263.17
480.96	263.24
481.33	263.46
481.69	263.62
482.06	263.81
482.42	264.00
482.79	264.22
483.15	264.54
483.52	264.91
483.88	265.26
484.25	265.65
484.61	266.05
484.98	266.50
485.34	267.05
485.71	267.64
486.07	268.28
486.44	268.85
486.80	269.56
487.17	270.31
487.53	271.14
487.90	271.94
488.26	272.85
488.62	273.86
488.99	274.84
489.35	275.89
489.72	277.06
490.08	278.27
490.44	279.52
490.81	280.82
491.17	282.19
491.54	283.64
491.90	285.19
492.26	286.89
492.63	288.64
492.99	290.41
493.36	292.25
493.72	294.25
494.08	296.34
494.45	298.55
494.81	300.88
495.17	303.31
495.54	305.89
495.90	308.52
496.26	311.28
496.63	314.15
496.99	317.25
497.35	320.47
497.72	323.90
498.08	327.41
498.44	331.10
498.80	334.97
499.17	338.97
499.53	343.11
499.89	347.43
500.26	351.93
500.62	356.59
500.98	361.55
501.34	366.61
501.71	371.95
502.07	377.38
502.43	382.97
502.79	388.75
503.16	394.78
503.52	401.07
503.88	407.51
504.24	414.13
504.60	420.96
504.97	428.09
505.33	435.32
505.69	443.00
506.05	450.72
506.41	458.56
506.78	466.77
507.14	475.20
507.50	483.89
507.86	492.84
508.22	502.03
508.59	511.21
508.95	520.73
509.31	530.41
509.67	540.50
510.03	550.76
510.39	561.24
510.75	572.06
511.12	582.95
511.48	594.22
511.84	605.71
512.20	617.28
512.56	629.16
512.92	641.32
513.28	653.58
513.64	666.07
514.00	678.78
514.37	691.60
514.73	704.67
515.09	717.70
515.45	731.00
515.81	744.58
516.17	758.55
516.53	772.63
516.89	786.89
517.25	801.03
517.61	815.54
517.97	830.09
518.33	844.52
518.69	859.37
519.05	874.35
519.41	889.55
519.77	904.98
520.13	920.46
520.49	935.91
520.85	951.48
521.21	967.20
521.57	983.55
521.93	999.44
522.29	1015.85
522.65	1032.21
523.01	1048.57
523.37	1064.62
523.73	1080.84
524.09	1097.03
524.45	1113.38
524.81	1130.19
525.17	1147.03
525.53	1163.94
525.89	1180.81
526.25	1197.63
526.61	1214.15
526.97	1230.85
527.33	1247.51
527.68	1264.16
528.04	1280.67
528.40	1297.32
528.76	1314.48
529.12	1331.07
529.48	1348.05
529.84	1364.29
530.20	1381.08
530.56	1398.14
530.91	1415.69
531.27	1432.47
531.63	1449.08
531.99	1465.84
532.35	1481.86
532.71	1497.81
533.07	1514.23
533.42	1530.27
533.78	1546.38
534.14	1562.63
534.50	1578.16
534.86	1594.19
535.21	1609.45
535.57	1625.53
535.93	1641.03
536.29	1655.96
536.65	1671.22
537.00	1686.15
537.36	1701.51
537.72	1716.01
538.08	1730.51
538.44	1744.30
538.79	1758.48
539.15	1772.34
539.51	1786.09
539.87	1800.51
540.22	1814.30
540.58	1828.09
540.94	1841.65
541.29	1854.72
541.65	1867.52
542.01	1880.81
542.37	1893.12
542.72	1905.71
543.08	1917.59
543.44	1930.10
543.79	1941.33
544.15	1952.35
544.51	1963.85
544.87	1974.80
545.22	1985.68
545.58	1995.81
545.94	2005.69
546.29	2015.52
546.65	2025.18
547.01	2034.51
547.36	2043.13
547.72	2051.64
548.07	2059.47
548.43	2067.62
548.79	2075.60
549.14	2083.24
549.50	2090.63
549.86	2098.46
550.21	2105.73
550.57	2112.77
550.92	2119.38
551.28	2126.48
551.64	2133.55
551.99	2140.10
552.35	2146.29
552.70	2152.42
553.06	2158.43
553.41	2164.71
553.77	2170.65
554.13	2176.79
554.48	2182.86
554.84	2188.34
555.19	2193.72
555.55	2198.86
555.90	2203.30
556.26	2208.10
556.61	2212.70
556.97	2216.92
557.32	2221.08
557.68	2225.27
558.03	2229.52
558.39	2233.26
558.74	2237.76
559.10	2241.36
559.45	2244.92
559.81	2249.26
560.16	2253.03
560.52	2256.32
560.87	2259.68
561.23	2262.34
561.58	2265.26
561.94	2267.61
562.29	2270.00
562.64	2272.58
563.00	2275.21
563.35	2278.57
563.71	2281.79
564.06	2284.97
564.42	2287.74
564.77	2289.99
565.12	2292.04
565.48	2293.86
565.83	2295.51
566.19	2296.74
566.54	2297.75
566.89	2298.85
567.25	2299.11
567.60	2300.52
567.96	2302.04
568.31	2302.74
568.66	2303.70
569.02	2304.19
569.37	2304.56
569.72	2305.38
570.08	2305.34
570.43	2305.22
570.78	2304.29
571.14	2302.61
571.49	2301.22
571.84	2300.74
572.20	2299.36
572.55	2298.23
572.90	2296.73
573.26	2295.22
573.61	2293.45
573.96	2291.54
574.31	2288.44
574.67	2285.44
575.02	2281.53
575.37	2278.01
575.72	2274.12
576.08	2270.78
576.43	2267.30
576.78	2263.49
577.13	2260.07
577.49	2256.84
577.84	2253.30
578.19	2249.68
578.54	2245.68
578.90	2241.19
579.25	2235.47
579.60	2230.46
579.95	2225.35
580.30	2220.14
580.66	2214.83
581.01	2209.75
581.36	2204.71
581.71	2200.43
582.06	2195.84
582.42	2191.22
582.77	2185.89
583.12	2181.12
583.47	2176.20
583.82	2171.06
584.17	2165.56
584.53	2160.04
584.88	2154.30
585.23	2148.23
585.58	2142.65
585.93	2137.28
586.28	2132.43
586.63	2127.30
586.98	2122.05
587.34	2117.27
587.69	2112.18
588.04	2106.82
588.39	2101.07
588.74	2094.60
589.09	2088.28
589.44	2081.29
589.79	2075.19
590.14	2069.43
590.49	2062.91
590.84	2056.32
591.19	2050.15
591.54	2043.60
591.89	2035.90
592.25	2029.03
592.60	2021.80
592.95	2013.99
593.30	2006.44
593.65	1998.74
594.00	1991.61
594.35	1984.40
594.70	1976.14
595.05	1968.77
595.40	1961.50
595.75	1953.91
596.10	1947.45
596.45	1940.59
596.80	1934.43
597.15	1927.47
597.50	1920.27
597.85	1913.69
598.19	1907.07
598.54	1900.01
598.89	1893.46
599.24	1887.61
599.59	1880.80
599.94	1874.47
600.29	1868.26
600.64	1861.76
600.99	1854.28
601.34	1847.37
601.69	1840.23
602.04	1833.46
602.39	1826.16
602.74	1819.23
603.08	1812.40
603.43	1805.60
603.78	1798.35
604.13	1791.14
604.48	1783.89
604.83	1777.05
605.18	1769.99
605.53	1761.88
605.87	1753.78
606.22	1746.53
606.57	1738.64
606.92	1731.36
607.27	1724.15
607.62	1717.21
607.96	1709.90
608.31	1703.37
608.66	1695.72
609.01	1688.22
609.36	1680.58
609.70	1672.68
610.05	1664.62
610.40	1657.08
610.75	1648.87
611.10	1641.19
611.44	1632.84
611.79	1624.88
612.14	1616.34
612.49	1607.34
612.83	1599.11
613.18	1591.03
613.53	1582.96
613.88	1574.39
614.22	1566.11
614.57	1557.66
614.92	1549.55
615.27	1542.04
615.61	1533.54
615.96	1525.60
616.31	1518.11
616.65	1510.75
617.00	1503.10
617.35	1495.45
617.70	1486.96
618.04	1478.40
618.39	1470.12
618.74	1462.43
619.08	1454.21
619.43	1446.53
619.78	1439.61
620.12	1432.48
620.47	1424.88
620.82	1416.75
621.16	1409.48
621.51	1401.82
621.85	1394.25
622.20	1385.81
622.55	1377.49
622.89	1369.80
623.24	1362.21
623.59	1354.84
623.93	1347.32
624.28	1340.17
624.62	1332.67
624.97	1325.56
625.32	1318.97
625.66	1312.02
626.01	1304.87
626.35	1297.45
626.70	1289.71
627.04	1281.93
627.39	1274.18
627.73	1266.81
628.08	1259.83
628.43	1252.41
628.77	1245.21
629.12	1237.59
629.46	1230.39
629.81	1222.93
630.15	1215.78
630.50	1208.47
630.84	1200.20
631.19	1192.42
631.53	1184.92
631.88	1177.42
632.22	1169.83
632.57	1162.48
632.91	1155.01
633.26	1147.62
633.60	1140.38
633.95	1133.41
634.29	1126.43
634.64	1119.74
634.98	1112.46
635.32	1105.45
635.67	1099.07
636.01	1092.45
636.36	1085.73
636.70	1079.35
637.05	1072.86
637.39	1066.47
637.73	1060.01
638.08	1054.26
638.42	1048.26
638.77	1041.81
639.11	1035.18
639.45	1028.93
639.80	1022.27
640.14	1015.82
640.49	1009.28
640.83	1003.02
641.17	996.78
641.52	990.67
641.86	984.26
642.20	978.58
642.55	972.32
642.89	965.75
643.23	959.38
643.58	953.62
643.92	947.43
644.26	941.36
644.61	935.34
644.95	929.34
645.29	922.65
645.64	915.95
645.98	909.70
646.32	904.03
646.66	897.97
647.01	892.24
647.35	886.67
647.69	881.02
648.04	875.49
648.38	869.61
648.72	863.42
649.06	857.37
649.41	851.40
649.75	845.30
650.09	839.37
650.43	833.47
650.78	827.31
651.12	821.35
651.46	815.65
651.80	809.80
652.14	804.38
652.49	799.07
652.83	793.88
653.17	788.13
653.51	782.32
653.85	776.98
654.20	771.30
654.54	765.28
654.88	759.48
655.22	753.58
655.56	747.98
655.90	742.62
656.25	737.42
656.59	732.10
656.93	727.07
657.27	721.96
657.61	716.52
657.95	711.47
658.29	706.38
658.64	701.23
658.98	696.02
659.32	690.58
659.66	685.37
660.00	680.07
660.34	675.25
660.68	670.42
661.02	665.39
661.36	660.77
661.70	656.31
662.05	651.92
662.39	647.61
662.73	643.25
663.07	638.88
663.41	634.40
663.75	629.88
664.09	625.45
664.43	621.04
664.77	616.94
665.11	612.74
665.45	608.64
665.79	604.52
666.13	600.37
666.47	596.25
666.81	592.19
667.15	588.16
667.49	584.26
667.83	580.47
668.17	576.59
668.51	572.56
668.85	568.54
669.19	564.73
669.53	560.91
669.87	557.00
670.21	553.33
670.55	549.74
670.89	546.36
671.23	542.87
671.57	539.41
671.91	535.91
672.25	532.39
672.58	528.88
672.92	525.50
673.26	522.39
673.60	519.31
673.94	516.18
674.28	513.25
674.62	510.31
674.96	507.19
675.30	504.23
675.64	501.25
675.97	498.55
676.31	495.71
676.65	492.85
676.99	490.13
677.33	487.30
677.67	484.52
678.01	481.51
678.34	478.55
678.68	475.69
679.02	472.90
679.36	470.24
679.70	467.57
680.04	464.82
680.37	461.95
680.71	459.20
681.05	456.64
681.39	453.93
681.73	451.32
682.06	448.84
682.40	446.32
682.74	443.83
683.08	441.32
683.42	438.76
683.75	436.32
684.09	433.88
684.43	431.36
684.77	428.97
685.10	426.65
685.44	424.44
685.78	422.16
686.12	419.91
686.45	417.61
686.79	415.30
687.13	413.15
687.46	411.03
687.80	408.89
688.14	406.71
688.48	404.73
688.81	402.47
689.15	400.32
689.49	398.22
689.82	396.18
690.16	394.06
690.50	392.11
690.83	390.15
691.17	388.11
691.51	386.23
691.84	384.35
692.18	382.38
692.52	380.37
692.85	378.49
693.19	376.67
693.52	374.85
693.86	373.08
694.20	371.30
694.53	369.52
694.87	367.70
695.21	365.89
695.54	364.06
695.88	362.36
696.21	360.62
696.55	358.97
696.88	357.24
697.22	355.63
697.56	354.03
697.89	352.35
698.23	350.79
698.56	349.19
698.90	347.59
699.23	345.98
699.57	344.45
699.90	342.89
700.24	341.35
700.58	339.80
700.91	338.34
701.25	336.88
701.58	335.51
701.92	334.14
702.25	332.79
702.59	331.36
702.92	330.03
703.26	328.73
703.59	327.46
703.93	326.32
704.26	325.09
704.60	323.81
704.93	322.56
705.26	321.31
705.60	320.18
705.93	319.08
706.27	318.09
706.60	317.07
706.94	316.00
707.27	314.86
707.61	313.85
707.94	312.82
708.27	311.73
708.61	310.65
708.94	309.67
709.28	308.66
709.61	307.73
709.94	306.81
710.28	305.81
710.61	304.80
710.95	303.71
711.28	302.82
711.61	301.86
711.95	300.93
712.28	299.97
712.61	298.94
712.95	298.00
713.28	297.09
713.61	296.14
713.95	295.25
714.28	294.44
714.61	293.54
714.95	292.68
715.28	291.83
715.61	290.99
715.95	290.12
716.28	289.29
716.61	288.49
716.95	287.66
717.28	286.95
717.61	286.18
717.94	285.50
718.28	284.70
718.61	283.96
718.94	283.29
719.27	282.67
719.61	282.07
719.94	281.41
720.27	280.70
720.60	280.07
720.94	279.45
721.27	278.85
721.60	278.29
721.93	277.68
722.27	277.14
722.60	276.57
722.93	276.04
723.26	275.52
723.59	274.96
723.93	274.41
724.26	273.83
724.59	273.29
724.92	272.74
725.25	272.20
725.59	271.71
725.92	271.21
726.25	270.66
726.58	270.17
726.91	269.65
727.24	269.15
727.57	268.69
727.91	268.20
728.24	267.74
728.57	267.25
728.90	266.82
729.23	266.35
729.56	265.91
729.89	265.45
730.22	264.95
730.55	264.49
730.89	264.05
731.22	263.62
731.55	263.19
731.88	262.74
732.21	262.33
732.54	261.86
732.87	261.42
733.20	261.05
733.53	260.65
733.86	260.29
734.19	259.91
734.52	259.54
734.85	259.19
735.18	258.79
735.51	258.43
735.84	258.04
736.17	257.66
736.50	257.25
736.83	256.98
737.16	256.67
737.49	256.32
737.82	255.98
738.15	255.63
738.48	255.33
738.81	255.00
739.14	254.68
739.47	254.40
739.80	254.11
740.13	253.79
740.46	253.44
740.79	253.13
741.12	252.81
741.45	252.46
741.78	252.12
742.11	251.84
742.44	251.52
742.77	251.24
743.10	250.97
743.43	250.69
743.75	250.32
744.08	250.20
744.41	249.92
744.74	249.64
745.07	249.34
745.40	249.07
745.73	248.82
746.06	248.54
746.39	248.28
746.71	247.99
747.04	247.73
747.37	247.46
747.70	247.20
748.03	246.96
748.36	246.77
748.68	246.54
749.01	246.27
749.34	246.03
749.67	245.81
750.00	245.59
750.33	245.42
750.65	245.21
750.98	244.84
751.31	244.62
751.64	244.44
751.97	244.31
752.29	244.09
752.62	243.84
752.95	243.63
753.28	243.42
753.60	243.22
753.93	243.07
754.26	242.90
754.59	242.73
754.91	242.52
755.24	242.30
755.57	242.12
755.90	241.93
756.22	241.73
756.55	241.51
756.88	241.32
757.20	241.11
757.53	240.91
757.86	240.77
758.19	240.63
758.51	240.45
758.84	240.24
759.17	240.10
759.49	239.97
759.82	239.87
760.15	239.73
760.47	239.59
760.80	239.41
761.13	239.27
761.45	239.11
761.78	238.97
762.11	238.85
762.43	238.68
762.76	238.55
763.08	238.45
763.41	238.35
763.74	238.22
764.06	238.06
764.39	237.93
764.71	237.76
765.04	237.62
765.37	237.51
765.69	237.34
766.02	237.21
766.34	237.07
766.67	236.91
767.00	236.81
767.32	236.74
767.65	236.68
767.97	236.57
768.30	236.44
768.62	236.30
768.95	236.17
769.27	236.08
769.60	235.96
769.92	235.80
770.25	235.69
770.57	235.59
770.90	235.50
771.22	235.36
771.55	235.30
771.87	235.20
772.20	235.09
772.52	235.12
772.85	235.11
773.17	235.02
773.50	234.94
773.82	234.84
774.15	234.71
774.47	234.54
774.80	234.45
775.12	234.37
775.45	234.32
775.77	234.24
776.09	234.14
776.42	234.11
776.74	234.09
777.07	233.98
777.39	233.90
777.72	233.81
778.04	233.77
778.36	233.67
778.69	233.61
779.01	233.54
779.33	233.36
779.66	233.16
779.98	233.08
780.31	233.00
780.63	232.95
780.95	232.90
781.28	232.85
781.60	232.79
781.92	232.72
782.25	232.64
782.57	232.59
782.89	232.54
783.22	232.46
783.54	232.38
783.86	232.30
784.19	232.23
784.51	232.22
784.83	232.16
785.16	232.13
785.48	232.07
785.80	232.01
786.12	232.00
786.45	232.00
786.77	231.99
787.09	231.94
787.42	231.87
787.74	231.83
788.06	231.78
788.38	231.75
788.71	231.70
789.03	231.69
789.35	231.65
789.67	231.60
789.99	231.56
790.32	231.52
790.64	231.50
790.96	231.57
791.28	231.51
791.61	231.46
791.93	231.38
792.25	231.35
792.57	231.42
792.89	231.37
793.21	231.33
793.54	231.25
793.86	231.20
794.18	231.15
794.50	231.11
794.82	231.06
795.14	231.04
795.47	230.99
795.79	230.97
796.11	230.90
796.43	230.87
796.75	230.83
797.07	230.79
797.39	230.78
797.71	230.68
798.04	230.63
798.36	230.63
798.68	230.58
799.00	230.56
799.32	230.47
799.64	230.46
799.96	230.42
800.28	230.42
800.60	230.38
800.92	230.39
801.24	230.37
801.56	230.36
801.89	230.31
802.21	230.30
802.53	230.24
802.85	230.27
803.17	230.28
803.49	230.26
803.81	230.23
804.13	230.22
804.45	230.16
804.77	230.14
805.09	230.10
805.41	230.11
805.73	230.04
806.05	230.01
806.37	229.98
806.69	229.96
807.01	229.90
807.33	229.87
807.65	229.79
807.97	229.78
808.28	229.77
808.60	229.76
808.92	229.76
809.24	229.81
809.56	229.77
809.88	229.73
810.20	229.74
810.52	229.72
810.84	229.65
811.16	229.62
811.48	229.59
811.80	229.62
812.12	229.54
812.43	229.56
812.75	229.52
813.07	229.49
813.39	229.43
813.71	229.44
814.03	229.44
814.35	229.43
814.67	229.38
814.98	229.33
815.30	229.27
815.62	229.21
815.94	229.12
816.26	229.16
816.58	229.11
816.89	229.06
817.21	229.04
817.53	229.03
817.85	229.05
818.17	229.05
818.48	228.99
818.80	228.98
819.12	228.93
819.44	228.90
819.76	228.89
820.07	228.92
820.39	228.91
820.71	228.92
821.03	228.92
821.34	228.89
821.66	228.87
821.98	228.90
822.30	228.86
822.61	228.89
822.93	228.80
823.25	228.79
823.57	228.78
823.88	228.78
824.20	228.78
824.52	228.74
824.83	228.70
825.15	228.71
825.47	228.73
825.79	228.74
826.10	228.72
826.42	228.72
826.74	228.66
827.05	228.65
827.37	228.61
827.69	228.57
828.00	228.59
828.32	228.58
828.64	228.54
828.95	228.64
829.27	228.59
829.58	228.57
829.90	228.59
830.22	228.59
830.53	228.55
830.85	228.51
831.17	228.48
831.48	228.49
831.80	228.45
832.11	228.48
832.43	228.44
832.75	228.42
833.06	228.46
833.38	228.43
833.69	228.38
834.01	228.41
834.32	228.40
834.64	228.37
834.96	228.35
835.27	228.35
835.59	228.25
835.90	228.23
836.22	228.22
836.53	228.17
836.85	228.16
837.16	228.24
837.48	228.24
837.79	228.23
838.11	228.19
838.42	228.14
838.74	228.11
839.05	228.10
839.37	228.10
839.68	228.01
840.00	228.03
840.31	228.06
840.63	228.02
840.94	228.04
841.26	228.02
841.57	228.03
841.88	228.02
842.20	228.00
842.51	227.97
842.83	227.96
843.14	228.08
843.46	228.06
843.77	227.99
844.08	227.99
844.40	228.01
844.71	228.01
845.03	228.03
845.34	227.99
845.65	227.98
845.97	227.98
846.28	227.97
846.60	227.94
846.91	227.94
847.22	227.92
847.54	227.90
847.85	227.92
848.16	227.90
848.48	227.89
848.79	227.94
849.10	227.94
849.42	227.94
849.73	227.80
850.04	227.80
850.36	227.79
850.67	227.79
850.98	227.78
851.30	227.79
851.61	227.81
851.92	227.81
852.23	227.83
852.55	227.79
852.86	227.79
853.17	227.81
853.49	227.80
853.80	227.81
854.11	227.81
854.42	227.81
854.74	227.79
855.05	227.78
855.36	227.70
855.67	227.72
855.99	227.72
856.30	227.85
856.61	227.83
856.92	227.81
857.23	227.79
857.55	227.80
857.86	227.80
858.17	227.78
858.48	227.77
858.79	227.75
859.11	227.79
859.42	227.77
859.73	227.73
860.04	227.75
860.35	227.70
860.66	227.65
860.98	227.62
861.29	227.65
861.60	227.64
861.91	227.71
862.22	227.68
862.53	227.65
862.84	227.52
863.16	227.55
863.47	227.51
863.78	227.49
864.09	227.48
864.40	227.47
864.71	227.47
865.02	227.46
865.33	227.44
865.64	227.40
865.95	227.41
866.27	227.50
866.58	227.46
866.89	227.51
867.20	227.54
867.51	227.52
867.82	227.49
868.13	227.52
868.44	227.49
868.75	227.50
869.06	227.50
869.37	227.53
869.68	227.50
869.99	227.53
870.30	227.53
870.61	227.53
870.92	227.51
871.23	227.50
871.54	227.53
871.85	227.52
872.16	227.52
872.47	227.51
872.78	227.48
873.09	227.47
873.40	227.48
873.71	227.49
874.02	227.50
874.33	227.51
874.64	227.49
874.95	227.46
875.26	227.44
875.56	227.44
875.87	227.41
876.18	227.41
876.49	227.49
876.80	227.49
877.11	227.47
877.42	227.52
877.73	227.51
878.04	227.49
878.35	227.51
878.66	227.53
878.96	227.52
879.27	227.48
879.58	227.48
879.89	227.46
880.20	227.46
880.51	227.45
880.82	227.42
881.12	227.44
881.43	227.43
881.74	227.45
882.05	227.45
882.36	227.46
882.67	227.46
882.97	227.37
883.28	227.35
883.59	227.34
883.90	227.31
884.21	227.33
884.51	227.32
884.82	227.28
885.13	227.30
885.44	227.33
885.74	227.33
886.05	227.31
886.36	227.30
886.67	227.24
886.98	227.32
887.28	227.31
887.59	227.32
887.90	227.33
888.20	227.32
888.51	227.33
888.82	227.31
889.13	227.32
889.43	227.41
889.74	227.42
890.05	227.41
890.35	227.36
890.66	227.33
890.97	227.32
891.28	227.34
891.58	227.33
891.89	227.30
892.20	227.31
892.50	227.31
892.81	227.30
893.12	227.33
893.42	227.27
893.73	227.29
894.04	227.27
894.34	227.30
894.65	227.29
894.95	227.25
895.26	227.27
895.57	227.31
895.87	227.23
896.18	227.27
896.48	227.28
896.79	227.30
897.10	227.34
897.40	227.36
897.71	227.37
898.01	227.36
898.32	227.39
898.63	227.38
898.93	227.39
899.24	227.43
899.54	227.42
899.85	227.43
900.15	227.42
900.46	227.41
900.76	227.41
901.07	227.42
901.38	227.46
901.68	227.45
901.99	227.38
902.29	227.36
902.60	227.34
902.90	227.34
903.21	227.35
903.51	227.36
903.82	227.36
904.12	227.36
904.43	227.38
904.73	227.36
905.03	227.37
905.34	227.49
905.64	227.45
905.95	227.44
906.25	227.45
906.56	227.48
906.86	227.47
907.17	227.44
907.47	227.43
907.77	227.41
908.08	227.44
908.38	227.47
908.69	227.48
908.99	227.52
909.30	227.55
909.60	227.54
909.90	227.51
910.21	227.49
910.51	227.51
910.81	227.47
911.12	227.48
911.42	227.48
911.73	227.34
912.03	227.35
912.33	227.37
912.64	227.37
912.94	227.37
913.24	227.36
913.55	227.36
913.85	227.36
914.15	227.40
914.46	227.40
914.76	227.36
915.06	227.35
915.37	227.34
915.67	227.31
915.97	227.34
916.27	227.36
916.58	227.38
916.88	227.35
917.18	227.36
917.49	227.42
917.79	227.43
918.09	227.46
918.39	227.51
918.70	227.51
919.00	227.48
919.30	227.49
919.60	227.51
919.91	227.50
920.21	227.49
920.51	227.45
920.81	227.43
921.12	227.47
921.42	227.47
921.72	227.46
922.02	227.44
922.32	227.41
922.63	227.41
922.93	227.44
923.23	227.44
923.53	227.40
923.83	227.33
924.13	227.32
924.44	227.27
924.74	227.25
925.04	227.26
925.34	227.28
925.64	227.25
925.94	227.21
926.24	227.27
926.55	227.28
926.85	227.28
927.15	227.25
927.45	227.21
927.75	227.21
928.05	227.20
928.35	227.15
928.65	227.17
928.95	227.18
929.26	227.12
929.56	227.13
929.86	227.17
930.16	227.16
930.46	227.15
930.76	227.21
931.06	227.18
931.36	227.12
931.66	227.16
931.96	227.18
932.26	227.23
932.56	227.21
932.86	227.21
933.16	227.21
933.46	227.22
933.76	227.21
934.06	227.21
934.36	227.24
934.66	227.31
934.96	227.29
935.26	227.27
935.56	227.33
935.86	227.31
936.16	227.31
936.46	227.32
936.76	227.30
937.06	227.27
937.36	227.27
937.66	227.32
937.96	227.32
938.26	227.29
938.56	227.28
938.86	227.26
939.16	227.28
939.46	227.29
939.76	227.29
940.06	227.30
940.35	227.29
940.65	227.23
940.95	227.22
941.25	227.20
941.55	227.18
941.85	227.16
942.15	227.18
942.45	227.22
942.75	227.25
943.04	227.27
943.34	227.34
943.64	227.32
943.94	227.26
944.24	227.25
944.54	227.26
944.84	227.25
945.13	227.23
945.43	227.23
945.73	227.22
946.03	227.21
946.33	227.24
946.62	227.25
946.92	227.28
947.22	227.27
947.52	227.30
947.82	227.30
948.11	227.26
948.41	227.21
948.71	227.16
949.01	227.12
949.31	227.07
949.60	227.04
949.90	227.07
950.20	227.06
950.50	227.06
950.79	227.04
951.09	227.05
951.39	227.04
951.69	227.02
951.98	227.04
952.28	227.06
952.58	227.04
952.87	227.03
953.17	227.01
953.47	226.98
953.76	226.94
954.06	226.93
954.36	226.93
954.66	226.93
954.95	226.96
955.25	226.96
955.55	226.97
955.84	226.93
956.14	226.91
956.44	226.93
956.73	226.92
957.03	226.93
957.32	226.89
957.62	226.86
957.92	226.90
958.21	226.85
958.51	226.94
958.81	226.94
959.10	226.96
959.40	227.02
959.69	227.03
959.99	227.04
960.29	227.02
960.58	227.03
960.88	227.08
961.17	227.05
961.47	227.08
961.76	227.06
962.06	227.08
962.36	227.05
962.65	227.05
962.95	227.03
963.24	227.01
963.54	227.04
963.83	227.05
964.13	227.04
964.42	227.04
964.72	226.97
965.01	226.95
965.31	226.91
965.60	226.89
965.90	226.95
966.19	226.94
966.49	226.98
966.78	226.98
967.08	226.96
967.37	226.97
967.67	226.94
967.96	226.98
968.26	226.99
968.55	227.03
968.85	227.03
969.14	227.03
969.43	227.04
969.73	227.00
970.02	227.01
970.32	227.01
970.61	227.01
970.91	227.01
971.20	227.03
971.49	227.05
971.79	227.03
972.08	226.96
972.38	227.01
972.67	226.98
972.96	227.00
973.26	227.01
973.55	227.04
973.85	227.05
974.14	227.05
974.43	227.06
974.73	227.05
975.02	227.03
975.31	227.06
975.61	227.07
975.90	227.09
976.19	227.12
976.49	227.12
976.78	227.12
977.07	227.10
977.37	227.11
977.66	227.12
977.95	227.12
978.24	227.11
978.54	227.12
978.83	227.14
979.12	227.13
979.42	227.13
979.71	227.10
980.00	227.10
980.29	227.10
980.59	227.09
980.88	227.09
981.17	227.08
981.46	227.05
981.76	227.05
982.05	227.06
982.34	227.02
982.63	227.02
982.93	227.04
983.22	227.05
983.51	227.03
983.80	227.03
984.09	227.03
984.39	227.05
984.68	227.01
984.97	227.02
985.26	227.02
985.55	227.01
985.85	227.02
986.14	227.01
986.43	227.04
986.72	227.04
987.01	227.05
987.30	227.02
987.59	227.03
987.89	227.04
988.18	227.04
988.47	227.07
988.76	227.05
989.05	227.02
989.34	227.00
989.63	227.04
989.92	227.04
990.22	227.03
990.51	227.00
990.80	227.01
991.09	226.98
991.38	226.98
991.67	226.98
991.96	226.98
992.25	226.97
992.54	226.93
992.83	226.91
993.12	226.90
993.41	226.97
993.70	226.99
993.99	226.99
994.28	226.96
994.58	226.96
994.87	226.95
995.16	226.94
995.45	226.98
995.74	226.93
996.03	226.95
996.32	226.95
996.61	226.97
996.90	227.00
997.19	226.99
997.48	226.97
997.77	226.94
998.06	226.94
998.34	226.94
998.63	226.93
998.92	226.94
999.21	226.96
999.50	226.94
999.79	226.93
1000.08	226.92
1000.37	226.95
1000.66	226.95
1000.95	226.98
1001.24	227.02
1001.53	227.00
1001.82	227.01
1002.11	226.97
1002.40	227.00
1002.68	227.03
1002.97	227.10
1003.26	227.11
1003.55	227.13
1003.84	227.17
1004.13	227.20
1004.42	227.19
1004.71	227.21
1004.99	227.23
1005.28	227.22
1005.57	227.21
1005.86	227.23
1006.15	227.21
1006.44	227.20
1006.72	227.19
1007.01	227.16
1007.30	227.17
1007.59	227.16
1007.88	227.14
1008.17	227.17
1008.45	227.18
1008.74	227.14
1009.03	227.07
1009.32	227.08
1009.60	227.09
1009.89	227.06
1010.18	227.03
1010.47	227.02
1010.76	227.02
1011.04	226.96
1011.33	226.99
1011.62	227.00
1011.91	227.01
1012.19	227.06
1012.48	227.05
1012.77	227.06
1013.05	227.11
1013.34	227.09
1013.63	227.10
1013.92	227.16
1014.20	227.15
1014.49	227.13
1014.78	227.14
1015.06	227.14
1015.35	227.12
1015.64	227.09
1015.92	227.08
1016.21	227.05
1016.50	227.05
1016.78	227.06
1017.07	227.06
1017.36	227.05
1017.64	227.01
1017.93	227.01
1018.22	226.97
1018.50	226.98
1018.79	226.98
1019.08	226.92
1019.36	226.93
1019.65	226.88
1019.93	226.87
1020.22	226.89
1020.51	226.94
1020.79	226.92
1021.08	226.58
1021.36	227.15
1021.65	226.96
1021.94	227.17
1022.22	226.87
1022.51	226.30
1022.79	227.65
1023.08	227.23
1023.36	228.29
1023.65	226.58
>>>>>End Processed Spectral Data<<<<<
