SpectraSuite Data File
++++++++++++++++++++++++++++++++++++
Date: Fri Feb 01 15:25:25 EST 2013
User: group
Dark Spectrum Present: No
Reference Spectrum Present: No
Number of Sampled Component Spectra: 1
Spectrometers: USB2E7196
Integration Time (usec): 35000 (USB2E7196)
Spectra Averaged: 100 (USB2E7196)
Boxcar Smoothing: 10 (USB2E7196)
Correct for Electrical Dark: No (USB2E7196)
Strobe/Lamp Enabled: No (USB2E7196)
Correct for Detector Non-linearity: No (USB2E7196)
Correct for Stray Light: No (USB2E7196)
Number of Pixels in Processed Spectrum: 2048
>>>>>Begin Processed Spectral Data<<<<<
339.09	0.00
339.48	215.15
339.86	216.63
340.24	218.02
340.63	219.53
341.01	222.21
341.39	222.29
341.78	223.73
342.16	224.96
342.54	224.65
342.93	213.50
343.31	224.29
343.69	224.84
344.07	225.31
344.46	225.75
344.84	226.12
345.22	226.39
345.60	226.64
345.99	226.83
346.37	226.95
346.75	227.09
347.13	227.17
347.52	227.21
347.90	227.26
348.28	227.28
348.66	227.33
349.05	227.35
349.43	227.38
349.81	227.42
350.19	227.47
350.57	227.56
350.96	227.61
351.34	227.69
351.72	227.78
352.10	227.87
352.48	227.92
352.87	227.98
353.25	228.03
353.63	228.10
354.01	228.16
354.39	228.18
354.77	228.24
355.15	228.36
355.54	228.45
355.92	228.52
356.30	228.62
356.68	228.72
357.06	228.78
357.44	228.86
357.82	228.90
358.20	229.01
358.58	229.06
358.97	229.10
359.35	229.17
359.73	229.22
360.11	229.26
360.49	229.31
360.87	229.36
361.25	229.39
361.63	229.43
362.01	229.46
362.39	229.52
362.77	229.52
363.15	229.53
363.53	229.54
363.91	229.55
364.29	229.56
364.67	229.50
365.05	229.49
365.43	229.50
365.81	229.51
366.19	229.51
366.57	229.53
366.95	229.54
367.33	229.50
367.71	229.50
368.09	229.48
368.47	229.42
368.85	229.40
369.23	229.38
369.61	229.32
369.99	229.32
370.37	229.31
370.75	229.36
371.13	229.30
371.51	229.24
371.89	229.20
372.27	229.16
372.65	229.12
373.03	229.08
373.41	229.00
373.78	228.93
374.16	228.83
374.54	228.74
374.92	228.65
375.30	228.58
375.68	228.51
376.06	228.47
376.44	228.45
376.82	228.39
377.19	228.31
377.57	228.22
377.95	228.08
378.33	228.00
378.71	227.83
379.09	227.76
379.47	227.68
379.84	227.57
380.22	227.49
380.60	227.36
380.98	227.29
381.36	227.22
381.73	227.16
382.11	227.11
382.49	227.03
382.87	226.97
383.25	226.93
383.62	226.94
384.00	226.85
384.38	226.76
384.76	226.69
385.13	226.68
385.51	226.64
385.89	226.61
386.27	226.61
386.64	226.57
387.02	226.53
387.40	226.49
387.78	226.47
388.15	226.47
388.53	226.43
388.91	226.36
389.29	226.34
389.66	226.30
390.04	226.27
390.42	226.26
390.79	226.27
391.17	226.28
391.55	226.18
391.92	226.19
392.30	226.22
392.68	226.21
393.05	226.21
393.43	226.24
393.81	226.25
394.18	226.24
394.56	226.30
394.94	226.34
395.31	226.36
395.69	226.44
396.06	226.46
396.44	226.54
396.82	226.64
397.19	226.74
397.57	226.76
397.95	226.84
398.32	226.89
398.70	226.96
399.07	227.04
399.45	227.12
399.82	227.21
400.20	227.26
400.58	227.35
400.95	227.39
401.33	227.47
401.70	227.64
402.08	227.70
402.45	227.76
402.83	227.86
403.20	228.01
403.58	228.07
403.95	228.20
404.33	228.32
404.71	228.43
405.08	228.60
405.46	228.78
405.83	228.92
406.21	229.08
406.58	229.24
406.96	229.37
407.33	229.54
407.70	229.72
408.08	230.00
408.45	230.23
408.83	230.48
409.20	230.72
409.58	230.91
409.95	231.19
410.33	231.51
410.70	231.78
411.08	232.06
411.45	232.38
411.82	232.68
412.20	233.05
412.57	233.45
412.95	233.76
413.32	234.18
413.69	234.62
414.07	235.04
414.44	235.52
414.82	236.02
415.19	236.58
415.56	237.16
415.94	237.69
416.31	238.32
416.68	238.97
417.06	239.69
417.43	240.34
417.81	241.11
418.18	241.90
418.55	242.76
418.93	243.63
419.30	244.52
419.67	245.47
420.04	246.43
420.42	247.45
420.79	248.63
421.16	249.78
421.54	250.97
421.91	252.19
422.28	253.42
422.66	254.74
423.03	256.01
423.40	257.35
423.77	258.73
424.15	260.18
424.52	261.64
424.89	263.24
425.26	264.82
425.64	266.28
426.01	267.85
426.38	269.49
426.75	271.18
427.13	272.92
427.50	274.74
427.87	276.61
428.24	278.48
428.61	280.23
428.99	282.18
429.36	284.25
429.73	286.34
430.10	288.36
430.47	290.46
430.85	292.59
431.22	294.82
431.59	297.25
431.96	299.48
432.33	301.98
432.70	304.37
433.08	307.22
433.45	309.86
433.82	312.45
434.19	315.33
434.56	318.14
434.93	320.82
435.30	323.43
435.68	326.33
436.05	329.19
436.42	331.97
436.79	334.51
437.16	337.19
437.53	340.01
437.90	342.83
438.27	345.56
438.64	348.36
439.01	350.93
439.38	353.15
439.75	355.29
440.13	357.79
440.50	360.16
440.87	362.00
441.24	363.94
441.61	366.10
441.98	367.61
442.35	369.40
442.72	371.25
443.09	373.04
443.46	374.05
443.83	374.58
444.20	375.14
444.57	375.98
444.94	376.32
445.31	376.64
445.68	377.03
446.05	377.09
446.42	376.76
446.79	376.37
447.16	375.93
447.53	375.65
447.90	374.50
448.27	373.30
448.64	371.65
449.01	370.48
449.37	368.50
449.74	366.59
450.11	364.37
450.48	361.89
450.85	359.38
451.22	357.17
451.59	355.16
451.96	353.17
452.33	350.54
452.70	348.17
453.07	345.32
453.43	342.38
453.80	339.62
454.17	336.90
454.54	334.33
454.91	331.60
455.28	328.88
455.65	326.37
456.02	323.92
456.38	321.76
456.75	319.13
457.12	316.90
457.49	314.70
457.86	312.53
458.23	310.64
458.59	308.56
458.96	306.49
459.33	304.61
459.70	302.74
460.07	301.18
460.43	299.40
460.80	297.80
461.17	296.37
461.54	294.86
461.91	293.46
462.27	292.02
462.64	290.78
463.01	289.42
463.38	288.13
463.74	286.75
464.11	285.61
464.48	284.55
464.85	283.43
465.21	282.53
465.58	281.55
465.95	280.46
466.32	279.57
466.68	278.66
467.05	277.79
467.42	276.91
467.78	275.99
468.15	275.14
468.52	274.47
468.88	273.60
469.25	272.82
469.62	272.17
469.98	271.46
470.35	270.83
470.72	270.26
471.08	269.57
471.45	269.02
471.82	268.47
472.18	267.89
472.55	267.44
472.92	266.91
473.28	266.47
473.65	266.04
474.02	265.56
474.38	265.20
474.75	264.84
475.11	264.50
475.48	264.22
475.85	264.02
476.21	263.80
476.58	263.63
476.94	263.52
477.31	263.38
477.67	263.28
478.04	263.18
478.41	263.09
478.77	263.17
479.14	263.13
479.50	263.11
479.87	263.18
480.23	263.29
480.60	263.37
480.96	263.47
481.33	263.67
481.69	263.91
482.06	264.12
482.42	264.34
482.79	264.60
483.15	264.94
483.52	265.31
483.88	265.63
484.25	266.01
484.61	266.41
484.98	266.83
485.34	267.33
485.71	267.92
486.07	268.54
486.44	269.10
486.80	269.81
487.17	270.61
487.53	271.43
487.90	272.26
488.26	273.21
488.62	274.21
488.99	275.20
489.35	276.24
489.72	277.34
490.08	278.54
490.44	279.79
490.81	281.12
491.17	282.46
491.54	283.94
491.90	285.47
492.26	287.11
492.63	288.86
492.99	290.65
493.36	292.53
493.72	294.59
494.08	296.69
494.45	298.96
494.81	301.26
495.17	303.67
495.54	306.21
495.90	308.88
496.26	311.65
496.63	314.53
496.99	317.62
497.35	320.88
497.72	324.26
498.08	327.75
498.44	331.43
498.80	335.36
499.17	339.42
499.53	343.60
499.89	347.96
500.26	352.47
500.62	357.12
500.98	362.07
501.34	367.13
501.71	372.37
502.07	377.76
502.43	383.35
502.79	389.19
503.16	395.22
503.52	401.45
503.88	407.82
504.24	414.45
504.60	421.34
504.97	428.47
505.33	435.83
505.69	443.61
506.05	451.34
506.41	459.24
506.78	467.36
507.14	475.82
507.50	484.51
507.86	493.51
508.22	502.75
508.59	511.98
508.95	521.61
509.31	531.53
509.67	541.63
510.03	551.88
510.39	562.39
510.75	573.29
511.12	584.26
511.48	595.64
511.84	607.14
512.20	618.67
512.56	630.63
512.92	642.81
513.28	655.04
513.64	667.56
514.00	680.26
514.37	693.31
514.73	706.28
515.09	719.40
515.45	732.69
515.81	746.32
516.17	760.27
516.53	774.38
516.89	788.48
517.25	802.73
517.61	817.29
517.97	831.85
518.33	846.38
518.69	861.17
519.05	876.14
519.41	891.41
519.77	907.01
520.13	922.63
520.49	938.10
520.85	953.63
521.21	969.47
521.57	985.72
521.93	1001.50
522.29	1018.03
522.65	1034.37
523.01	1050.63
523.37	1066.68
523.73	1082.91
524.09	1099.04
524.45	1115.47
524.81	1132.14
525.17	1149.03
525.53	1165.95
525.89	1182.80
526.25	1199.64
526.61	1216.06
526.97	1232.84
527.33	1249.35
527.68	1265.90
528.04	1282.38
528.40	1299.10
528.76	1316.15
529.12	1332.82
529.48	1349.85
529.84	1365.91
530.20	1382.66
530.56	1399.84
530.91	1417.29
531.27	1434.14
531.63	1450.61
531.99	1467.24
532.35	1483.32
532.71	1499.15
533.07	1515.31
533.42	1531.20
533.78	1547.34
534.14	1563.77
534.50	1579.07
534.86	1595.01
535.21	1610.19
535.57	1626.18
535.93	1641.70
536.29	1656.33
536.65	1671.38
537.00	1686.15
537.36	1701.68
537.72	1716.17
538.08	1730.46
538.44	1744.36
538.79	1758.23
539.15	1772.11
539.51	1785.89
539.87	1800.25
540.22	1814.10
540.58	1828.15
540.94	1841.60
541.29	1854.54
541.65	1867.17
542.01	1880.61
542.37	1893.01
542.72	1905.46
543.08	1917.27
543.44	1929.64
543.79	1941.12
544.15	1952.20
544.51	1963.81
544.87	1974.68
545.22	1985.42
545.58	1995.72
545.94	2005.37
546.29	2015.29
546.65	2025.02
547.01	2034.15
547.36	2042.82
547.72	2051.43
548.07	2059.32
548.43	2067.59
548.79	2075.71
549.14	2083.28
549.50	2090.52
549.86	2098.18
550.21	2105.50
550.57	2112.85
550.92	2119.48
551.28	2126.53
551.64	2133.67
551.99	2140.08
552.35	2146.26
552.70	2152.50
553.06	2158.46
553.41	2164.95
553.77	2170.96
554.13	2176.98
554.48	2183.32
554.84	2188.76
555.19	2194.12
555.55	2199.12
555.90	2203.42
556.26	2208.23
556.61	2213.08
556.97	2217.45
557.32	2221.64
557.68	2225.85
558.03	2230.05
558.39	2233.73
558.74	2238.33
559.10	2242.04
559.45	2245.64
559.81	2249.88
560.16	2253.72
560.52	2257.04
560.87	2260.44
561.23	2263.09
561.58	2266.13
561.94	2268.66
562.29	2271.17
562.64	2273.70
563.00	2276.30
563.35	2279.91
563.71	2283.01
564.06	2286.17
564.42	2288.81
564.77	2291.22
565.12	2293.46
565.48	2295.15
565.83	2297.05
566.19	2298.33
566.54	2299.35
566.89	2300.64
567.25	2301.22
567.60	2302.59
567.96	2304.12
568.31	2304.99
568.66	2306.08
569.02	2306.65
569.37	2306.88
569.72	2307.64
570.08	2307.72
570.43	2307.66
570.78	2306.92
571.14	2305.43
571.49	2303.96
571.84	2303.80
572.20	2302.51
572.55	2301.46
572.90	2300.02
573.26	2298.54
573.61	2296.87
573.96	2295.06
574.31	2291.91
574.67	2288.82
575.02	2284.93
575.37	2281.48
575.72	2277.62
576.08	2274.35
576.43	2270.94
576.78	2267.15
577.13	2263.93
577.49	2260.68
577.84	2257.27
578.19	2253.51
578.54	2249.64
578.90	2245.40
579.25	2239.73
579.60	2234.76
579.95	2229.64
580.30	2224.56
580.66	2219.39
581.01	2214.24
581.36	2209.24
581.71	2204.97
582.06	2200.49
582.42	2196.02
582.77	2190.75
583.12	2186.03
583.47	2181.16
583.82	2175.95
584.17	2170.60
584.53	2165.00
584.88	2159.34
585.23	2153.26
585.58	2147.81
585.93	2142.26
586.28	2137.38
586.63	2132.09
586.98	2126.99
587.34	2122.11
587.69	2117.10
588.04	2111.80
588.39	2106.18
588.74	2099.65
589.09	2093.44
589.44	2086.51
589.79	2080.32
590.14	2074.72
590.49	2068.01
590.84	2061.55
591.19	2055.52
591.54	2049.10
591.89	2041.43
592.25	2034.59
592.60	2027.47
592.95	2019.63
593.30	2012.31
593.65	2004.77
594.00	1997.78
594.35	1990.42
594.70	1982.37
595.05	1975.04
595.40	1967.57
595.75	1959.91
596.10	1953.59
596.45	1946.76
596.80	1940.57
597.15	1933.94
597.50	1926.71
597.85	1920.29
598.19	1913.44
598.54	1906.27
598.89	1899.59
599.24	1893.91
599.59	1887.02
599.94	1880.79
600.29	1874.63
600.64	1867.98
600.99	1860.34
601.34	1853.51
601.69	1846.59
602.04	1839.58
602.39	1832.12
602.74	1825.28
603.08	1818.67
603.43	1811.86
603.78	1804.69
604.13	1797.45
604.48	1790.12
604.83	1783.33
605.18	1776.33
605.53	1768.36
605.87	1760.46
606.22	1753.18
606.57	1745.23
606.92	1738.08
607.27	1730.78
607.62	1723.75
607.96	1716.55
608.31	1709.92
608.66	1702.13
609.01	1694.52
609.36	1686.97
609.70	1679.13
610.05	1671.08
610.40	1663.25
610.75	1655.07
611.10	1647.30
611.44	1638.92
611.79	1630.98
612.14	1622.24
612.49	1613.08
612.83	1604.68
613.18	1596.55
613.53	1588.35
613.88	1579.68
614.22	1571.38
614.57	1562.89
614.92	1554.83
615.27	1547.18
615.61	1538.92
615.96	1531.00
616.31	1523.34
616.65	1515.95
617.00	1508.33
617.35	1500.63
617.70	1492.24
618.04	1483.54
618.39	1475.21
618.74	1467.56
619.08	1459.19
619.43	1451.62
619.78	1444.65
620.12	1437.43
620.47	1429.83
620.82	1421.75
621.16	1414.38
621.51	1406.65
621.85	1398.98
622.20	1390.47
622.55	1382.08
622.89	1374.14
623.24	1366.55
623.59	1359.26
623.93	1351.81
624.28	1344.54
624.62	1336.96
624.97	1329.82
625.32	1323.11
625.66	1316.13
626.01	1308.95
626.35	1301.45
626.70	1293.58
627.04	1285.84
627.39	1278.20
627.73	1270.82
628.08	1263.84
628.43	1256.41
628.77	1249.16
629.12	1241.50
629.46	1234.31
629.81	1226.98
630.15	1219.78
630.50	1212.28
630.84	1204.05
631.19	1196.13
631.53	1188.68
631.88	1181.18
632.22	1173.51
632.57	1166.21
632.91	1158.75
633.26	1151.21
633.60	1143.98
633.95	1137.02
634.29	1130.02
634.64	1123.30
634.98	1115.91
635.32	1108.74
635.67	1102.26
636.01	1095.51
636.36	1088.80
636.70	1082.29
637.05	1075.70
637.39	1069.29
637.73	1062.81
638.08	1056.89
638.42	1050.88
638.77	1044.36
639.11	1037.76
639.45	1031.48
639.80	1024.84
640.14	1018.34
640.49	1011.90
640.83	1005.57
641.17	999.28
641.52	992.93
641.86	986.53
642.20	980.71
642.55	974.48
642.89	967.96
643.23	961.45
643.58	955.65
643.92	949.52
644.26	943.45
644.61	937.43
644.95	931.41
645.29	924.79
645.64	918.02
645.98	911.78
646.32	906.00
646.66	899.93
647.01	894.16
647.35	888.60
647.69	882.91
648.04	877.43
648.38	871.66
648.72	865.69
649.06	859.65
649.41	853.78
649.75	847.72
650.09	841.83
650.43	836.11
650.78	829.99
651.12	824.04
651.46	818.28
651.80	812.51
652.14	807.09
652.49	801.77
652.83	796.65
653.17	790.88
653.51	785.09
653.85	779.67
654.20	773.99
654.54	767.86
654.88	762.07
655.22	756.15
655.56	750.47
655.90	745.08
656.25	739.77
656.59	734.41
656.93	729.35
657.27	724.11
657.61	718.66
657.95	713.55
658.29	708.33
658.64	703.12
658.98	697.83
659.32	692.40
659.66	687.24
660.00	681.88
660.34	677.01
660.68	672.15
661.02	667.13
661.36	662.42
661.70	658.04
662.05	653.63
662.39	649.23
662.73	644.79
663.07	640.37
663.41	635.96
663.75	631.43
664.09	626.92
664.43	622.61
664.77	618.49
665.11	614.23
665.45	610.17
665.79	606.06
666.13	601.92
666.47	597.82
666.81	593.61
667.15	589.57
667.49	585.62
667.83	581.83
668.17	577.92
668.51	573.88
668.85	569.78
669.19	565.98
669.53	562.17
669.87	558.27
670.21	554.57
670.55	550.92
670.89	547.57
671.23	544.13
671.57	540.58
671.91	537.05
672.25	533.64
672.58	530.14
672.92	526.75
673.26	523.61
673.60	520.51
673.94	517.44
674.28	514.50
674.62	511.55
674.96	508.42
675.30	505.47
675.64	502.54
675.97	499.78
676.31	496.87
676.65	493.95
676.99	491.23
677.33	488.42
677.67	485.60
678.01	482.54
678.34	479.56
678.68	476.76
679.02	473.95
679.36	471.18
679.70	468.44
680.04	465.66
680.37	462.81
680.71	460.06
681.05	457.43
681.39	454.74
681.73	452.17
682.06	449.63
682.40	447.12
682.74	444.60
683.08	442.07
683.42	439.50
683.75	437.07
684.09	434.54
684.43	432.01
684.77	429.59
685.10	427.26
685.44	424.99
685.78	422.70
686.12	420.56
686.45	418.28
686.79	416.00
687.13	413.90
687.46	411.68
687.80	409.52
688.14	407.31
688.48	405.27
688.81	402.94
689.15	400.84
689.49	398.73
689.82	396.68
690.16	394.64
690.50	392.70
690.83	390.71
691.17	388.78
691.51	386.92
691.84	385.08
692.18	383.13
692.52	381.17
692.85	379.23
693.19	377.30
693.52	375.46
693.86	373.65
694.20	371.86
694.53	370.10
694.87	368.30
695.21	366.51
695.54	364.70
695.88	363.00
696.21	361.23
696.55	359.55
696.88	357.86
697.22	356.19
697.56	354.58
697.89	352.97
698.23	351.36
698.56	349.74
698.90	348.15
699.23	346.50
699.57	344.95
699.90	343.47
700.24	341.92
700.58	340.40
700.91	338.94
701.25	337.46
701.58	336.12
701.92	334.70
702.25	333.37
702.59	332.03
702.92	330.75
703.26	329.46
703.59	328.19
703.93	327.02
704.26	325.78
704.60	324.49
704.93	323.20
705.26	321.92
705.60	320.75
705.93	319.63
706.27	318.64
706.60	317.57
706.94	316.43
707.27	315.27
707.61	314.22
707.94	313.19
708.27	312.13
708.61	311.00
708.94	309.99
709.28	308.98
709.61	307.93
709.94	306.95
710.28	305.91
710.61	304.90
710.95	303.77
711.28	302.83
711.61	301.84
711.95	300.90
712.28	299.98
712.61	299.00
712.95	297.99
713.28	297.05
713.61	296.17
713.95	295.26
714.28	294.42
714.61	293.56
714.95	292.71
715.28	291.83
715.61	290.99
715.95	290.14
716.28	289.29
716.61	288.53
716.95	287.73
717.28	287.02
717.61	286.28
717.94	285.55
718.28	284.77
718.61	284.05
718.94	283.39
719.27	282.71
719.61	282.09
719.94	281.46
720.27	280.79
720.60	280.13
720.94	279.52
721.27	278.95
721.60	278.36
721.93	277.73
722.27	277.19
722.60	276.66
722.93	276.07
723.26	275.52
723.59	274.94
723.93	274.40
724.26	273.89
724.59	273.33
724.92	272.80
725.25	272.28
725.59	271.77
725.92	271.23
726.25	270.74
726.58	270.21
726.91	269.74
727.24	269.26
727.57	268.79
727.91	268.29
728.24	267.82
728.57	267.30
728.90	266.86
729.23	266.34
729.56	265.88
729.89	265.45
730.22	264.95
730.55	264.49
730.89	264.05
731.22	263.60
731.55	263.15
731.88	262.75
732.21	262.39
732.54	261.99
732.87	261.62
733.20	261.22
733.53	260.87
733.86	260.47
734.19	260.07
734.52	259.72
734.85	259.42
735.18	259.02
735.51	258.67
735.84	258.32
736.17	258.02
736.50	257.64
736.83	257.39
737.16	257.07
737.49	256.75
737.82	256.39
738.15	256.00
738.48	255.67
738.81	255.33
739.14	254.97
739.47	254.65
739.80	254.31
740.13	254.00
740.46	253.66
740.79	253.31
741.12	253.00
741.45	252.65
741.78	252.29
742.11	252.03
742.44	251.72
742.77	251.43
743.10	251.10
743.43	250.84
743.75	250.42
744.08	250.28
744.41	250.00
744.74	249.74
745.07	249.45
745.40	249.20
745.73	248.96
746.06	248.69
746.39	248.45
746.71	248.21
747.04	247.93
747.37	247.63
747.70	247.42
748.03	247.19
748.36	246.98
748.68	246.76
749.01	246.45
749.34	246.22
749.67	245.98
750.00	245.78
750.33	245.59
750.65	245.39
750.98	245.05
751.31	244.82
751.64	244.59
751.97	244.45
752.29	244.24
752.62	243.99
752.95	243.77
753.28	243.52
753.60	243.26
753.93	243.04
754.26	242.87
754.59	242.64
754.91	242.43
755.24	242.19
755.57	241.98
755.90	241.80
756.22	241.58
756.55	241.36
756.88	241.15
757.20	240.91
757.53	240.75
757.86	240.56
758.19	240.38
758.51	240.21
758.84	240.01
759.17	239.84
759.49	239.69
759.82	239.58
760.15	239.44
760.47	239.31
760.80	239.14
761.13	239.00
761.45	238.85
761.78	238.70
762.11	238.56
762.43	238.39
762.76	238.27
763.08	238.19
763.41	238.08
763.74	237.97
764.06	237.84
764.39	237.65
764.71	237.55
765.04	237.43
765.37	237.30
765.69	237.18
766.02	237.09
766.34	236.94
766.67	236.80
767.00	236.73
767.32	236.67
767.65	236.66
767.97	236.59
768.30	236.48
768.62	236.39
768.95	236.27
769.27	236.17
769.60	236.06
769.92	235.94
770.25	235.83
770.57	235.69
770.90	235.61
771.22	235.53
771.55	235.40
771.87	235.31
772.20	235.26
772.52	235.24
772.85	235.27
773.17	235.21
773.50	235.09
773.82	234.97
774.15	234.86
774.47	234.74
774.80	234.63
775.12	234.53
775.45	234.45
775.77	234.37
776.09	234.30
776.42	234.21
776.74	234.17
777.07	234.10
777.39	234.04
777.72	233.98
778.04	233.91
778.36	233.87
778.69	233.81
779.01	233.72
779.33	233.56
779.66	233.38
779.98	233.29
780.31	233.24
780.63	233.18
780.95	233.13
781.28	233.03
781.60	232.94
781.92	232.89
782.25	232.81
782.57	232.78
782.89	232.70
783.22	232.66
783.54	232.58
783.86	232.51
784.19	232.43
784.51	232.38
784.83	232.33
785.16	232.26
785.48	232.20
785.80	232.17
786.12	232.12
786.45	232.07
786.77	232.02
787.09	231.97
787.42	231.90
787.74	231.83
788.06	231.80
788.38	231.71
788.71	231.64
789.03	231.62
789.35	231.58
789.67	231.54
789.99	231.49
790.32	231.39
790.64	231.38
790.96	231.42
791.28	231.35
791.61	231.27
791.93	231.23
792.25	231.18
792.57	231.17
792.89	231.13
793.21	231.07
793.54	231.02
793.86	230.94
794.18	230.89
794.50	230.84
794.82	230.81
795.14	230.82
795.47	230.83
795.79	230.78
796.11	230.70
796.43	230.62
796.75	230.58
797.07	230.56
797.39	230.52
797.71	230.41
798.04	230.38
798.36	230.36
798.68	230.34
799.00	230.33
799.32	230.24
799.64	230.22
799.96	230.18
800.28	230.18
800.60	230.16
800.92	230.15
801.24	230.12
801.56	230.08
801.89	230.02
802.21	229.97
802.53	229.92
802.85	229.91
803.17	229.93
803.49	229.89
803.81	229.88
804.13	229.85
804.45	229.82
804.77	229.79
805.09	229.76
805.41	229.71
805.73	229.67
806.05	229.61
806.37	229.61
806.69	229.60
807.01	229.54
807.33	229.54
807.65	229.46
807.97	229.49
808.28	229.48
808.60	229.48
808.92	229.45
809.24	229.50
809.56	229.49
809.88	229.49
810.20	229.48
810.52	229.47
810.84	229.45
811.16	229.41
811.48	229.40
811.80	229.43
812.12	229.41
812.43	229.40
812.75	229.42
813.07	229.37
813.39	229.36
813.71	229.34
814.03	229.29
814.35	229.29
814.67	229.25
814.98	229.22
815.30	229.19
815.62	229.15
815.94	229.06
816.26	229.06
816.58	228.98
816.89	228.99
817.21	228.94
817.53	228.90
817.85	228.93
818.17	228.89
818.48	228.82
818.80	228.81
819.12	228.77
819.44	228.73
819.76	228.69
820.07	228.67
820.39	228.67
820.71	228.67
821.03	228.66
821.34	228.61
821.66	228.58
821.98	228.61
822.30	228.61
822.61	228.67
822.93	228.61
823.25	228.61
823.57	228.57
823.88	228.58
824.20	228.55
824.52	228.51
824.83	228.50
825.15	228.47
825.47	228.44
825.79	228.43
826.10	228.41
826.42	228.40
826.74	228.38
827.05	228.36
827.37	228.35
827.69	228.32
828.00	228.31
828.32	228.31
828.64	228.24
828.95	228.28
829.27	228.22
829.58	228.22
829.90	228.21
830.22	228.19
830.53	228.16
830.85	228.12
831.17	228.08
831.48	228.05
831.80	228.04
832.11	228.05
832.43	228.03
832.75	228.01
833.06	228.03
833.38	228.01
833.69	227.97
834.01	227.95
834.32	227.93
834.64	227.91
834.96	227.90
835.27	227.87
835.59	227.84
835.90	227.80
836.22	227.76
836.53	227.75
836.85	227.74
837.16	227.82
837.48	227.83
837.79	227.86
838.11	227.88
838.42	227.86
838.74	227.85
839.05	227.84
839.37	227.87
839.68	227.82
840.00	227.80
840.31	227.84
840.63	227.85
840.94	227.88
841.26	227.87
841.57	227.85
841.88	227.89
842.20	227.86
842.51	227.84
842.83	227.85
843.14	227.95
843.46	227.95
843.77	227.90
844.08	227.89
844.40	227.87
844.71	227.86
845.03	227.88
845.34	227.86
845.65	227.86
845.97	227.83
846.28	227.83
846.60	227.84
846.91	227.79
847.22	227.77
847.54	227.79
847.85	227.79
848.16	227.79
848.48	227.78
848.79	227.82
849.10	227.86
849.42	227.87
849.73	227.77
850.04	227.76
850.36	227.73
850.67	227.74
850.98	227.75
851.30	227.78
851.61	227.77
851.92	227.80
852.23	227.83
852.55	227.88
852.86	227.88
853.17	227.92
853.49	227.96
853.80	227.97
854.11	227.95
854.42	227.97
854.74	227.98
855.05	227.96
855.36	227.93
855.67	227.90
855.99	227.92
856.30	228.03
856.61	228.04
856.92	228.05
857.23	228.07
857.55	228.05
857.86	228.01
858.17	228.05
858.48	228.00
858.79	227.97
859.11	227.95
859.42	227.95
859.73	227.94
860.04	227.93
860.35	227.90
860.66	227.89
860.98	227.88
861.29	227.86
861.60	227.86
861.91	227.85
862.22	227.84
862.53	227.81
862.84	227.70
863.16	227.72
863.47	227.71
863.78	227.68
864.09	227.68
864.40	227.67
864.71	227.65
865.02	227.68
865.33	227.66
865.64	227.65
865.95	227.63
866.27	227.64
866.58	227.59
866.89	227.61
867.20	227.57
867.51	227.50
867.82	227.50
868.13	227.51
868.44	227.51
868.75	227.53
869.06	227.51
869.37	227.47
869.68	227.44
869.99	227.44
870.30	227.44
870.61	227.48
870.92	227.48
871.23	227.46
871.54	227.43
871.85	227.43
872.16	227.44
872.47	227.43
872.78	227.39
873.09	227.43
873.40	227.41
873.71	227.45
874.02	227.48
874.33	227.46
874.64	227.43
874.95	227.44
875.26	227.40
875.56	227.42
875.87	227.43
876.18	227.41
876.49	227.52
876.80	227.49
877.11	227.44
877.42	227.43
877.73	227.42
878.04	227.43
878.35	227.43
878.66	227.41
878.96	227.41
879.27	227.37
879.58	227.34
879.89	227.31
880.20	227.32
880.51	227.29
880.82	227.29
881.12	227.29
881.43	227.25
881.74	227.22
882.05	227.20
882.36	227.20
882.67	227.18
882.97	227.05
883.28	227.04
883.59	227.05
883.90	227.08
884.21	227.11
884.51	227.12
884.82	227.11
885.13	227.09
885.44	227.10
885.74	227.11
886.05	227.13
886.36	227.15
886.67	227.12
886.98	227.19
887.28	227.20
887.59	227.19
887.90	227.19
888.20	227.22
888.51	227.23
888.82	227.25
889.13	227.24
889.43	227.33
889.74	227.33
890.05	227.31
890.35	227.28
890.66	227.26
890.97	227.21
891.28	227.19
891.58	227.21
891.89	227.21
892.20	227.19
892.50	227.18
892.81	227.18
893.12	227.17
893.42	227.11
893.73	227.13
894.04	227.17
894.34	227.21
894.65	227.23
894.95	227.22
895.26	227.22
895.57	227.28
895.87	227.20
896.18	227.20
896.48	227.23
896.79	227.21
897.10	227.22
897.40	227.25
897.71	227.29
898.01	227.28
898.32	227.31
898.63	227.33
898.93	227.33
899.24	227.32
899.54	227.35
899.85	227.34
900.15	227.34
900.46	227.32
900.76	227.32
901.07	227.30
901.38	227.33
901.68	227.32
901.99	227.30
902.29	227.27
902.60	227.31
902.90	227.33
903.21	227.36
903.51	227.35
903.82	227.34
904.12	227.35
904.43	227.35
904.73	227.35
905.03	227.34
905.34	227.43
905.64	227.42
905.95	227.44
906.25	227.46
906.56	227.46
906.86	227.44
907.17	227.43
907.47	227.41
907.77	227.38
908.08	227.39
908.38	227.39
908.69	227.43
908.99	227.43
909.30	227.41
909.60	227.41
909.90	227.43
910.21	227.46
910.51	227.41
910.81	227.44
911.12	227.43
911.42	227.42
911.73	227.31
912.03	227.33
912.33	227.31
912.64	227.29
912.94	227.26
913.24	227.28
913.55	227.28
913.85	227.32
914.15	227.33
914.46	227.30
914.76	227.29
915.06	227.28
915.37	227.24
915.67	227.22
915.97	227.22
916.27	227.20
916.58	227.17
916.88	227.16
917.18	227.10
917.49	227.17
917.79	227.16
918.09	227.19
918.39	227.19
918.70	227.20
919.00	227.19
919.30	227.26
919.60	227.22
919.91	227.19
920.21	227.19
920.51	227.18
920.81	227.20
921.12	227.21
921.42	227.20
921.72	227.20
922.02	227.21
922.32	227.18
922.63	227.16
922.93	227.23
923.23	227.23
923.53	227.25
923.83	227.18
924.13	227.22
924.44	227.19
924.74	227.21
925.04	227.22
925.34	227.19
925.64	227.16
925.94	227.16
926.24	227.20
926.55	227.18
926.85	227.18
927.15	227.15
927.45	227.16
927.75	227.16
928.05	227.14
928.35	227.14
928.65	227.17
928.95	227.19
929.26	227.09
929.56	227.11
929.86	227.10
930.16	227.09
930.46	227.03
930.76	227.08
931.06	227.04
931.36	227.03
931.66	227.05
931.96	227.02
932.26	227.02
932.56	226.99
932.86	226.99
933.16	226.98
933.46	226.98
933.76	226.96
934.06	226.95
934.36	227.03
934.66	227.02
934.96	227.02
935.26	227.02
935.56	227.05
935.86	227.03
936.16	227.04
936.46	227.04
936.76	227.06
937.06	227.02
937.36	227.05
937.66	227.04
937.96	227.07
938.26	227.07
938.56	227.09
938.86	227.10
939.16	227.10
939.46	227.14
939.76	227.15
940.06	227.15
940.35	227.19
940.65	227.15
940.95	227.14
941.25	227.10
941.55	227.06
941.85	227.04
942.15	227.10
942.45	227.12
942.75	227.10
943.04	227.08
943.34	227.14
943.64	227.11
943.94	227.09
944.24	227.12
944.54	227.11
944.84	227.10
945.13	227.11
945.43	227.11
945.73	227.08
946.03	227.08
946.33	227.06
946.62	227.06
946.92	227.04
947.22	227.06
947.52	227.03
947.82	227.09
948.11	227.14
948.41	227.09
948.71	227.06
949.01	227.07
949.31	227.07
949.60	227.04
949.90	227.07
950.20	227.08
950.50	227.05
950.79	227.06
951.09	227.06
951.39	227.04
951.69	227.03
951.98	227.03
952.28	227.03
952.58	227.00
952.87	226.97
953.17	227.00
953.47	227.01
953.76	227.06
954.06	227.02
954.36	226.96
954.66	226.95
954.95	226.98
955.25	226.99
955.55	226.97
955.84	226.95
956.14	226.93
956.44	226.92
956.73	226.90
957.03	226.89
957.32	226.88
957.62	226.90
957.92	226.90
958.21	226.88
958.51	226.99
958.81	226.99
959.10	227.00
959.40	227.00
959.69	226.98
959.99	226.98
960.29	226.96
960.58	226.96
960.88	226.99
961.17	226.99
961.47	227.00
961.76	227.05
962.06	227.05
962.36	227.06
962.65	227.06
962.95	227.06
963.24	227.05
963.54	227.05
963.83	226.99
964.13	227.02
964.42	226.97
964.72	226.89
965.01	226.92
965.31	226.91
965.60	226.86
965.90	226.89
966.19	226.88
966.49	226.89
966.78	226.87
967.08	226.86
967.37	226.83
967.67	226.79
967.96	226.79
968.26	226.76
968.55	226.76
968.85	226.76
969.14	226.74
969.43	226.74
969.73	226.78
970.02	226.79
970.32	226.77
970.61	226.81
970.91	226.78
971.20	226.76
971.49	226.72
971.79	226.76
972.08	226.73
972.38	226.76
972.67	226.78
972.96	226.82
973.26	226.82
973.55	226.82
973.85	226.80
974.14	226.79
974.43	226.82
974.73	226.77
975.02	226.79
975.31	226.80
975.61	226.78
975.90	226.75
976.19	226.77
976.49	226.76
976.78	226.75
977.07	226.77
977.37	226.79
977.66	226.81
977.95	226.81
978.24	226.83
978.54	226.82
978.83	226.81
979.12	226.81
979.42	226.84
979.71	226.87
980.00	226.91
980.29	226.93
980.59	226.91
980.88	226.97
981.17	226.95
981.46	226.96
981.76	226.97
982.05	227.03
982.34	227.05
982.63	227.07
982.93	227.08
983.22	227.08
983.51	227.10
983.80	227.12
984.09	227.12
984.39	227.07
984.68	227.03
984.97	227.02
985.26	227.03
985.55	227.00
985.85	226.97
986.14	226.99
986.43	226.99
986.72	226.96
987.01	226.94
987.30	226.94
987.59	226.92
987.89	226.94
988.18	226.90
988.47	226.88
988.76	226.86
989.05	226.87
989.34	226.85
989.63	226.89
989.92	226.88
990.22	226.89
990.51	226.92
990.80	226.92
991.09	226.95
991.38	226.97
991.67	226.97
991.96	226.94
992.25	226.97
992.54	226.95
992.83	227.00
993.12	226.98
993.41	227.01
993.70	227.03
993.99	227.04
994.28	227.04
994.58	227.04
994.87	227.01
995.16	226.99
995.45	227.00
995.74	226.94
996.03	226.97
996.32	226.98
996.61	226.97
996.90	226.98
997.19	226.98
997.48	226.96
997.77	226.96
998.06	226.99
998.34	226.94
998.63	226.93
998.92	226.91
999.21	226.93
999.50	226.91
999.79	226.90
1000.08	226.87
1000.37	226.88
1000.66	226.89
1000.95	226.93
1001.24	226.90
1001.53	226.89
1001.82	226.87
1002.11	226.85
1002.40	226.85
1002.68	226.88
1002.97	226.95
1003.26	226.94
1003.55	226.96
1003.84	226.96
1004.13	226.98
1004.42	226.99
1004.71	226.99
1004.99	226.99
1005.28	227.00
1005.57	227.02
1005.86	227.00
1006.15	227.03
1006.44	227.01
1006.72	227.03
1007.01	227.02
1007.30	227.05
1007.59	227.05
1007.88	227.04
1008.17	227.03
1008.45	227.00
1008.74	226.97
1009.03	226.92
1009.32	226.92
1009.60	226.91
1009.89	226.90
1010.18	226.86
1010.47	226.87
1010.76	226.86
1011.04	226.86
1011.33	226.90
1011.62	226.90
1011.91	226.92
1012.19	226.92
1012.48	226.94
1012.77	226.92
1013.05	226.98
1013.34	227.01
1013.63	227.02
1013.92	227.04
1014.20	227.04
1014.49	227.07
1014.78	227.10
1015.06	227.08
1015.35	227.06
1015.64	227.06
1015.92	227.07
1016.21	227.11
1016.50	227.12
1016.78	227.16
1017.07	227.16
1017.36	227.11
1017.64	227.10
1017.93	227.10
1018.22	227.09
1018.50	227.08
1018.79	227.11
1019.08	227.04
1019.36	227.02
1019.65	227.03
1019.93	227.05
1020.22	227.08
1020.51	227.14
1020.79	227.11
1021.08	226.96
1021.36	227.13
1021.65	227.34
1021.94	226.85
1022.22	227.08
1022.51	226.91
1022.79	227.45
1023.08	227.22
1023.36	228.71
1023.65	226.66
>>>>>End Processed Spectral Data<<<<<
