SpectraSuite Data File
++++++++++++++++++++++++++++++++++++
Date: Fri Feb 01 17:43:05 EST 2013
User: group
Dark Spectrum Present: No
Reference Spectrum Present: No
Number of Sampled Component Spectra: 1
Spectrometers: USB2E7196
Integration Time (usec): 35000 (USB2E7196)
Spectra Averaged: 100 (USB2E7196)
Boxcar Smoothing: 10 (USB2E7196)
Correct for Electrical Dark: No (USB2E7196)
Strobe/Lamp Enabled: No (USB2E7196)
Correct for Detector Non-linearity: No (USB2E7196)
Correct for Stray Light: No (USB2E7196)
Number of Pixels in Processed Spectrum: 2048
>>>>>Begin Processed Spectral Data<<<<<
339.09	0.00
339.48	212.37
339.86	214.11
340.24	215.06
340.63	217.15
341.01	219.65
341.39	219.26
341.78	220.88
342.16	222.10
342.54	221.97
342.93	210.98
343.31	221.61
343.69	222.14
344.07	222.58
344.46	223.01
344.84	223.37
345.22	223.61
345.60	223.87
345.99	224.05
346.37	224.18
346.75	224.29
347.13	224.36
347.52	224.39
347.90	224.47
348.28	224.51
348.66	224.59
349.05	224.55
349.43	224.57
349.81	224.62
350.19	224.68
350.57	224.75
350.96	224.79
351.34	224.89
351.72	224.98
352.10	225.09
352.48	225.18
352.87	225.22
353.25	225.27
353.63	225.31
354.01	225.35
354.39	225.43
354.77	225.51
355.15	225.62
355.54	225.70
355.92	225.71
356.30	225.76
356.68	225.87
357.06	225.96
357.44	226.05
357.82	226.11
358.20	226.17
358.58	226.22
358.97	226.31
359.35	226.38
359.73	226.45
360.11	226.52
360.49	226.58
360.87	226.64
361.25	226.69
361.63	226.77
362.01	226.84
362.39	226.92
362.77	226.96
363.15	226.99
363.53	227.02
363.91	227.06
364.29	227.12
364.67	227.06
365.05	227.10
365.43	227.12
365.81	227.15
366.19	227.19
366.57	227.23
366.95	227.23
367.33	227.22
367.71	227.22
368.09	227.19
368.47	227.16
368.85	227.14
369.23	227.17
369.61	227.10
369.99	227.11
370.37	227.05
370.75	227.05
371.13	226.99
371.51	226.97
371.89	226.97
372.27	226.91
372.65	226.89
373.03	226.81
373.41	226.77
373.78	226.74
374.16	226.66
374.54	226.59
374.92	226.55
375.30	226.50
375.68	226.42
376.06	226.39
376.44	226.37
376.82	226.34
377.19	226.25
377.57	226.24
377.95	226.16
378.33	226.11
378.71	226.00
379.09	225.96
379.47	225.88
379.84	225.81
380.22	225.76
380.60	225.69
380.98	225.65
381.36	225.53
381.73	225.41
382.11	225.36
382.49	225.28
382.87	225.21
383.25	225.16
383.62	225.26
384.00	225.21
384.38	225.15
384.76	225.12
385.13	225.12
385.51	225.08
385.89	225.03
386.27	224.98
386.64	224.94
387.02	224.87
387.40	224.81
387.78	224.79
388.15	224.74
388.53	224.70
388.91	224.62
389.29	224.63
389.66	224.64
390.04	224.60
390.42	224.58
390.79	224.55
391.17	224.51
391.55	224.38
391.92	224.34
392.30	224.35
392.68	224.30
393.05	224.27
393.43	224.25
393.81	224.24
394.18	224.22
394.56	224.25
394.94	224.29
395.31	224.31
395.69	224.34
396.06	224.37
396.44	224.40
396.82	224.44
397.19	224.50
397.57	224.55
397.95	224.59
398.32	224.58
398.70	224.65
399.07	224.74
399.45	224.77
399.82	224.83
400.20	224.86
400.58	224.94
400.95	224.99
401.33	225.09
401.70	225.21
402.08	225.32
402.45	225.44
402.83	225.52
403.20	225.63
403.58	225.72
403.95	225.83
404.33	225.98
404.71	226.13
405.08	226.30
405.46	226.44
405.83	226.62
406.21	226.79
406.58	226.96
406.96	227.12
407.33	227.33
407.70	227.53
408.08	227.84
408.45	228.08
408.83	228.32
409.20	228.56
409.58	228.77
409.95	229.06
410.33	229.34
410.70	229.62
411.08	229.97
411.45	230.33
411.82	230.71
412.20	231.07
412.57	231.55
412.95	231.94
413.32	232.40
413.69	232.89
414.07	233.42
414.44	233.96
414.82	234.53
415.19	235.17
415.56	235.84
415.94	236.47
416.31	237.26
416.68	237.99
417.06	238.86
417.43	239.65
417.81	240.56
418.18	241.47
418.55	242.50
418.93	243.56
419.30	244.65
419.67	245.81
420.04	246.98
420.42	248.15
420.79	249.52
421.16	250.93
421.54	252.35
421.91	253.79
422.28	255.29
422.66	256.88
423.03	258.44
423.40	260.06
423.77	261.77
424.15	263.44
424.52	265.23
424.89	267.16
425.26	269.10
425.64	270.81
426.01	272.74
426.38	274.71
426.75	276.69
427.13	278.76
427.50	280.92
427.87	283.16
428.24	285.38
428.61	287.47
428.99	289.77
429.36	292.29
429.73	294.77
430.10	297.20
430.47	299.67
430.85	302.23
431.22	304.93
431.59	307.73
431.96	310.47
432.33	313.45
432.70	316.25
433.08	319.57
433.45	322.78
433.82	325.90
434.19	329.41
434.56	332.77
434.93	335.87
435.30	338.99
435.68	342.45
436.05	345.82
436.42	349.19
436.79	352.22
437.16	355.49
437.53	358.92
437.90	362.29
438.27	365.61
438.64	369.01
439.01	372.12
439.38	374.84
439.75	377.39
440.13	380.36
440.50	383.18
440.87	385.39
441.24	387.66
441.61	390.26
441.98	392.05
442.35	394.24
442.72	396.52
443.09	398.65
443.46	399.88
443.83	400.67
444.20	401.33
444.57	402.32
444.94	402.62
445.31	403.03
445.68	403.46
446.05	403.56
446.42	403.08
446.79	402.59
447.16	402.05
447.53	401.73
447.90	400.38
448.27	399.02
448.64	397.19
449.01	395.91
449.37	393.57
449.74	391.29
450.11	388.58
450.48	385.64
450.85	382.64
451.22	380.10
451.59	377.62
451.96	375.29
452.33	372.19
452.70	369.37
453.07	365.99
453.43	362.53
453.80	359.16
454.17	355.97
454.54	352.93
454.91	349.68
455.28	346.44
455.65	343.45
456.02	340.48
456.38	337.86
456.75	334.59
457.12	331.86
457.49	329.17
457.86	326.58
458.23	324.32
458.59	321.85
458.96	319.29
459.33	317.07
459.70	314.79
460.07	312.99
460.43	310.90
460.80	308.94
461.17	307.18
461.54	305.41
461.91	303.67
462.27	301.84
462.64	300.30
463.01	298.70
463.38	297.11
463.74	295.44
464.11	294.03
464.48	292.83
464.85	291.52
465.21	290.43
465.58	289.27
465.95	287.94
466.32	286.89
466.68	285.82
467.05	284.78
467.42	283.69
467.78	282.56
468.15	281.53
468.52	280.74
468.88	279.69
469.25	278.78
469.62	278.00
469.98	277.22
470.35	276.49
470.72	275.76
471.08	274.99
471.45	274.38
471.82	273.73
472.18	273.02
472.55	272.47
472.92	271.86
473.28	271.30
473.65	270.77
474.02	270.18
474.38	269.75
474.75	269.32
475.11	268.88
475.48	268.53
475.85	268.26
476.21	267.95
476.58	267.77
476.94	267.55
477.31	267.33
477.67	267.15
478.04	266.97
478.41	266.85
478.77	266.87
479.14	266.72
479.50	266.68
479.87	266.73
480.23	266.77
480.60	266.81
480.96	266.90
481.33	267.10
481.69	267.33
482.06	267.47
482.42	267.62
482.79	267.87
483.15	268.19
483.52	268.56
483.88	268.90
484.25	269.22
484.61	269.65
484.98	270.09
485.34	270.63
485.71	271.23
486.07	271.84
486.44	272.40
486.80	273.12
487.17	273.84
487.53	274.66
487.90	275.54
488.26	276.48
488.62	277.46
488.99	278.43
489.35	279.47
489.72	280.62
490.08	281.86
490.44	283.13
490.81	284.45
491.17	285.79
491.54	287.30
491.90	288.91
492.26	290.55
492.63	292.35
492.99	294.15
493.36	296.07
493.72	298.14
494.08	300.28
494.45	302.58
494.81	305.03
495.17	307.49
495.54	310.10
495.90	312.84
496.26	315.73
496.63	318.81
496.99	322.02
497.35	325.34
497.72	328.86
498.08	332.46
498.44	336.24
498.80	340.25
499.17	344.37
499.53	348.63
499.89	353.12
500.26	357.69
500.62	362.48
500.98	367.56
501.34	372.77
501.71	378.20
502.07	383.78
502.43	389.47
502.79	395.44
503.16	401.69
503.52	408.12
503.88	414.65
504.24	421.37
504.60	428.40
504.97	435.74
505.33	443.19
505.69	451.07
506.05	459.07
506.41	467.13
506.78	475.50
507.14	484.23
507.50	493.17
507.86	502.40
508.22	511.81
508.59	521.30
508.95	531.10
509.31	541.14
509.67	551.54
510.03	562.09
510.39	572.96
510.75	583.96
511.12	595.14
511.48	606.79
511.84	618.62
512.20	630.40
512.56	642.62
512.92	655.14
513.28	667.84
513.64	680.65
514.00	693.75
514.37	707.04
514.73	720.43
515.09	733.82
515.45	747.57
515.81	761.56
516.17	775.95
516.53	790.44
516.89	805.15
517.25	819.79
517.61	834.65
517.97	849.58
518.33	864.52
518.69	879.86
519.05	895.31
519.41	910.89
519.77	926.97
520.13	942.99
520.49	958.89
520.85	974.82
521.21	990.97
521.57	1007.67
521.93	1023.93
522.29	1040.89
522.65	1057.84
523.01	1074.57
523.37	1091.40
523.73	1108.17
524.09	1124.96
524.45	1141.79
524.81	1158.95
525.17	1176.49
525.53	1193.98
525.89	1211.46
526.25	1228.93
526.61	1245.93
526.97	1263.38
527.33	1280.57
527.68	1297.83
528.04	1315.00
528.40	1332.24
528.76	1350.13
529.12	1367.55
529.48	1385.40
529.84	1402.11
530.20	1419.40
530.56	1437.19
530.91	1455.21
531.27	1472.76
531.63	1490.17
531.99	1507.56
532.35	1524.58
532.71	1541.22
533.07	1558.43
533.42	1575.39
533.78	1592.48
534.14	1609.81
534.50	1626.19
534.86	1643.02
535.21	1659.27
535.57	1676.10
535.93	1692.62
536.29	1708.40
536.65	1724.47
537.00	1739.98
537.36	1756.50
537.72	1771.98
538.08	1787.59
538.44	1802.29
538.79	1817.23
539.15	1831.75
539.51	1846.63
539.87	1862.10
540.22	1876.96
540.58	1891.69
540.94	1905.86
541.29	1919.67
541.65	1933.35
542.01	1947.74
542.37	1961.28
542.72	1974.77
543.08	1987.76
543.44	2001.39
543.79	2013.88
544.15	2025.94
544.51	2038.85
544.87	2050.80
545.22	2062.96
545.58	2074.26
545.94	2085.45
546.29	2096.56
546.65	2107.78
547.01	2118.31
547.36	2128.10
547.72	2137.79
548.07	2146.95
548.43	2156.40
548.79	2165.31
549.14	2174.16
549.50	2182.42
549.86	2190.97
550.21	2199.31
550.57	2207.83
550.92	2215.64
551.28	2223.74
551.64	2232.06
551.99	2239.64
552.35	2247.01
552.70	2254.22
553.06	2261.36
553.41	2268.74
553.77	2275.72
554.13	2282.65
554.48	2289.77
554.84	2296.59
555.19	2302.72
555.55	2309.00
555.90	2314.51
556.26	2320.90
556.61	2326.59
556.97	2332.22
557.32	2337.65
557.68	2343.01
558.03	2348.20
558.39	2352.69
558.74	2358.36
559.10	2363.21
559.45	2367.84
559.81	2372.81
560.16	2377.62
560.52	2381.76
560.87	2386.09
561.23	2389.67
561.58	2393.51
561.94	2396.92
562.29	2399.82
562.64	2403.71
563.00	2407.10
563.35	2411.49
563.71	2415.28
564.06	2419.13
564.42	2422.84
564.77	2426.40
565.12	2429.61
565.48	2432.38
565.83	2435.29
566.19	2437.40
566.54	2438.93
566.89	2440.92
567.25	2442.45
567.60	2444.47
567.96	2447.13
568.31	2448.65
568.66	2450.72
569.02	2452.09
569.37	2453.18
569.72	2454.83
570.08	2455.60
570.43	2456.08
570.78	2456.28
571.14	2455.25
571.49	2454.42
571.84	2454.53
572.20	2453.89
572.55	2453.26
572.90	2451.84
573.26	2450.88
573.61	2449.51
573.96	2448.44
574.31	2445.79
574.67	2443.29
575.02	2439.95
575.37	2436.61
575.72	2433.16
576.08	2429.74
576.43	2426.50
576.78	2423.28
577.13	2420.19
577.49	2417.01
577.84	2413.97
578.19	2410.30
578.54	2407.10
578.90	2403.37
579.25	2397.82
579.60	2392.84
579.95	2387.93
580.30	2383.12
580.66	2377.99
581.01	2372.98
581.36	2367.92
581.71	2364.10
582.06	2359.80
582.42	2355.43
582.77	2350.31
583.12	2345.87
583.47	2341.46
583.82	2336.68
584.17	2331.30
584.53	2325.72
584.88	2320.25
585.23	2314.45
585.58	2308.84
585.93	2303.09
586.28	2297.87
586.63	2292.88
586.98	2287.65
587.34	2282.74
587.69	2277.68
588.04	2272.29
588.39	2266.53
588.74	2259.77
589.09	2253.09
589.44	2245.99
589.79	2239.53
590.14	2233.42
590.49	2226.36
590.84	2219.44
591.19	2213.04
591.54	2206.09
591.89	2198.54
592.25	2191.54
592.60	2183.95
592.95	2176.09
593.30	2168.31
593.65	2160.41
594.00	2152.65
594.35	2145.01
594.70	2136.45
595.05	2129.21
595.40	2121.47
595.75	2113.54
596.10	2107.14
596.45	2100.07
596.80	2093.41
597.15	2086.59
597.50	2079.46
597.85	2072.56
598.19	2065.55
598.54	2058.28
598.89	2051.30
599.24	2044.90
599.59	2037.82
599.94	2030.93
600.29	2024.01
600.64	2017.01
600.99	2009.01
601.34	2001.81
601.69	1994.08
602.04	1986.66
602.39	1978.50
602.74	1971.18
603.08	1963.97
603.43	1956.41
603.78	1948.49
604.13	1940.73
604.48	1932.89
604.83	1925.27
605.18	1918.05
605.53	1909.54
605.87	1900.68
606.22	1892.68
606.57	1884.03
606.92	1875.71
607.27	1868.07
607.62	1860.70
607.96	1852.88
608.31	1846.06
608.66	1837.88
609.01	1829.95
609.36	1821.95
609.70	1813.31
610.05	1804.43
610.40	1796.02
610.75	1787.13
611.10	1778.89
611.44	1769.64
611.79	1760.82
612.14	1751.37
612.49	1741.12
612.83	1731.89
613.18	1722.98
613.53	1714.13
613.88	1704.81
614.22	1695.83
614.57	1686.28
614.92	1677.40
615.27	1669.25
615.61	1660.00
615.96	1651.14
616.31	1642.54
616.65	1634.26
617.00	1625.88
617.35	1617.42
617.70	1608.42
618.04	1599.16
618.39	1589.93
618.74	1581.71
619.08	1572.51
619.43	1564.15
619.78	1556.55
620.12	1548.69
620.47	1540.46
620.82	1531.46
621.16	1523.25
621.51	1514.79
621.85	1506.34
622.20	1497.06
622.55	1487.68
622.89	1478.90
623.24	1470.46
623.59	1462.26
623.93	1454.01
624.28	1446.02
624.62	1437.85
624.97	1429.86
625.32	1422.19
625.66	1414.40
626.01	1406.41
626.35	1398.52
626.70	1390.01
627.04	1381.57
627.39	1372.90
627.73	1364.68
628.08	1357.11
628.43	1349.13
628.77	1341.26
629.12	1333.15
629.46	1325.17
629.81	1316.94
630.15	1308.93
630.50	1300.80
630.84	1291.89
631.19	1283.07
631.53	1274.76
631.88	1266.46
632.22	1258.10
632.57	1250.16
632.91	1241.95
633.26	1233.87
633.60	1225.49
633.95	1217.56
634.29	1209.76
634.64	1202.33
634.98	1194.32
635.32	1186.51
635.67	1179.26
636.01	1171.91
636.36	1164.50
636.70	1157.36
637.05	1150.21
637.39	1143.14
637.73	1136.14
638.08	1129.63
638.42	1123.04
638.77	1116.01
639.11	1108.87
639.45	1101.87
639.80	1094.66
640.14	1087.68
640.49	1080.64
640.83	1073.80
641.17	1067.13
641.52	1060.28
641.86	1053.37
642.20	1046.93
642.55	1039.89
642.89	1032.84
643.23	1025.62
643.58	1019.29
643.92	1012.63
644.26	1006.14
644.61	999.49
644.95	992.95
645.29	985.87
645.64	978.56
645.98	971.69
646.32	965.12
646.66	958.60
647.01	952.22
647.35	946.08
647.69	939.59
648.04	933.53
648.38	927.17
648.72	920.75
649.06	914.17
649.41	907.79
649.75	901.47
650.09	895.03
650.43	888.75
650.78	882.09
651.12	875.51
651.46	869.23
651.80	863.16
652.14	857.22
652.49	851.44
652.83	845.83
653.17	839.75
653.51	833.63
653.85	827.68
654.20	821.64
654.54	815.08
654.88	808.76
655.22	802.35
655.56	796.12
655.90	790.07
656.25	784.37
656.59	778.57
656.93	772.97
657.27	767.37
657.61	761.53
657.95	755.91
658.29	750.40
658.64	744.62
658.98	738.72
659.32	732.77
659.66	727.07
660.00	721.40
660.34	715.97
660.68	710.64
661.02	705.18
661.36	700.03
661.70	695.16
662.05	690.53
662.39	685.97
662.73	681.15
663.07	676.44
663.41	671.69
663.75	666.84
664.09	661.96
664.43	657.15
664.77	652.72
665.11	648.14
665.45	643.66
665.79	639.36
666.13	634.97
666.47	630.49
666.81	626.00
667.15	621.47
667.49	617.23
667.83	613.02
668.17	608.77
668.51	604.41
668.85	600.07
669.19	595.83
669.53	591.60
669.87	587.46
670.21	583.42
670.55	579.36
670.89	575.56
671.23	571.82
671.57	568.02
671.91	564.14
672.25	560.34
672.58	556.54
672.92	552.74
673.26	549.25
673.60	545.86
673.94	542.51
674.28	539.39
674.62	536.25
674.96	532.93
675.30	529.80
675.64	526.60
675.97	523.51
676.31	520.45
676.65	517.28
676.99	514.29
677.33	511.18
677.67	508.16
678.01	504.98
678.34	501.74
678.68	498.63
679.02	495.62
679.36	492.59
679.70	489.59
680.04	486.66
680.37	483.62
680.71	480.59
681.05	477.74
681.39	474.76
681.73	471.80
682.06	469.12
682.40	466.30
682.74	463.53
683.08	460.80
683.42	457.90
683.75	455.17
684.09	452.42
684.43	449.72
684.77	447.03
685.10	444.46
685.44	441.89
685.78	439.38
686.12	436.82
686.45	434.34
686.79	431.92
687.13	429.49
687.46	427.12
687.80	424.74
688.14	422.26
688.48	419.98
688.81	417.58
689.15	415.15
689.49	412.84
689.82	410.57
690.16	408.21
690.50	406.06
690.83	403.97
691.17	401.74
691.51	399.69
691.84	397.67
692.18	395.57
692.52	393.49
692.85	391.35
693.19	389.39
693.52	387.41
693.86	385.37
694.20	383.38
694.53	381.42
694.87	379.42
695.21	377.48
695.54	375.48
695.88	373.55
696.21	371.71
696.55	369.83
696.88	367.95
697.22	366.12
697.56	364.38
697.89	362.55
698.23	360.84
698.56	359.09
698.90	357.37
699.23	355.58
699.57	353.86
699.90	352.19
700.24	350.49
700.58	348.83
700.91	347.21
701.25	345.67
701.58	344.20
701.92	342.72
702.25	341.22
702.59	339.77
702.92	338.33
703.26	336.90
703.59	335.56
703.93	334.31
704.26	333.01
704.60	331.62
704.93	330.20
705.26	328.84
705.60	327.50
705.93	326.20
706.27	325.06
706.60	323.95
706.94	322.74
707.27	321.51
707.61	320.29
707.94	319.17
708.27	317.91
708.61	316.71
708.94	315.57
709.28	314.47
709.61	313.40
709.94	312.33
710.28	311.22
710.61	310.10
710.95	308.91
711.28	307.86
711.61	306.84
711.95	305.86
712.28	304.78
712.61	303.75
712.95	302.75
713.28	301.74
713.61	300.66
713.95	299.72
714.28	298.80
714.61	297.85
714.95	296.92
715.28	296.04
715.61	295.04
715.95	294.13
716.28	293.24
716.61	292.30
716.95	291.41
717.28	290.55
717.61	289.69
717.94	288.89
718.28	288.02
718.61	287.15
718.94	286.36
719.27	285.72
719.61	285.02
719.94	284.25
720.27	283.49
720.60	282.80
720.94	282.10
721.27	281.46
721.60	280.84
721.93	280.19
722.27	279.52
722.60	278.96
722.93	278.30
723.26	277.68
723.59	277.12
723.93	276.54
724.26	275.93
724.59	275.32
724.92	274.75
725.25	274.21
725.59	273.67
725.92	273.14
726.25	272.54
726.58	271.97
726.91	271.46
727.24	270.89
727.57	270.39
727.91	269.81
728.24	269.25
728.57	268.74
728.90	268.26
729.23	267.78
729.56	267.29
729.89	266.77
730.22	266.23
730.55	265.71
730.89	265.23
731.22	264.78
731.55	264.31
731.88	263.85
732.21	263.39
732.54	262.91
732.87	262.45
733.20	261.99
733.53	261.56
733.86	261.16
734.19	260.76
734.52	260.34
734.85	260.00
735.18	259.58
735.51	259.19
735.84	258.77
736.17	258.38
736.50	257.97
736.83	257.71
737.16	257.37
737.49	257.01
737.82	256.62
738.15	256.25
738.48	255.87
738.81	255.48
739.14	255.10
739.47	254.80
739.80	254.45
740.13	254.15
740.46	253.77
740.79	253.42
741.12	253.08
741.45	252.71
741.78	252.33
742.11	252.01
742.44	251.60
742.77	251.28
743.10	250.96
743.43	250.60
743.75	250.19
744.08	250.00
744.41	249.69
744.74	249.41
745.07	249.10
745.40	248.83
745.73	248.57
746.06	248.28
746.39	247.96
746.71	247.66
747.04	247.34
747.37	247.07
747.70	246.81
748.03	246.52
748.36	246.31
748.68	246.05
749.01	245.79
749.34	245.57
749.67	245.28
750.00	245.02
750.33	244.85
750.65	244.63
750.98	244.27
751.31	244.03
751.64	243.79
751.97	243.60
752.29	243.36
752.62	243.09
752.95	242.87
753.28	242.64
753.60	242.42
753.93	242.23
754.26	242.02
754.59	241.77
754.91	241.55
755.24	241.29
755.57	241.09
755.90	240.85
756.22	240.65
756.55	240.44
756.88	240.22
757.20	239.97
757.53	239.76
757.86	239.56
758.19	239.40
758.51	239.20
758.84	238.99
759.17	238.83
759.49	238.67
759.82	238.51
760.15	238.33
760.47	238.16
760.80	237.95
761.13	237.81
761.45	237.61
761.78	237.46
762.11	237.30
762.43	237.17
762.76	237.06
763.08	236.90
763.41	236.77
763.74	236.63
764.06	236.48
764.39	236.31
764.71	236.16
765.04	236.01
765.37	235.85
765.69	235.66
766.02	235.49
766.34	235.36
766.67	235.21
767.00	235.11
767.32	235.04
767.65	235.01
767.97	234.88
768.30	234.78
768.62	234.67
768.95	234.57
769.27	234.42
769.60	234.31
769.92	234.19
770.25	234.05
770.57	233.92
770.90	233.83
771.22	233.72
771.55	233.63
771.87	233.52
772.20	233.44
772.52	233.44
772.85	233.47
773.17	233.34
773.50	233.23
773.82	233.14
774.15	233.00
774.47	232.86
774.80	232.76
775.12	232.66
775.45	232.52
775.77	232.46
776.09	232.37
776.42	232.31
776.74	232.24
777.07	232.17
777.39	232.10
777.72	232.03
778.04	231.95
778.36	231.88
778.69	231.83
779.01	231.76
779.33	231.57
779.66	231.36
779.98	231.25
780.31	231.19
780.63	231.12
780.95	231.10
781.28	230.99
781.60	230.93
781.92	230.86
782.25	230.81
782.57	230.71
782.89	230.64
783.22	230.54
783.54	230.48
783.86	230.44
784.19	230.38
784.51	230.33
784.83	230.27
785.16	230.20
785.48	230.12
785.80	230.04
786.12	230.05
786.45	230.01
786.77	230.00
787.09	229.96
787.42	229.90
787.74	229.81
788.06	229.78
788.38	229.69
788.71	229.65
789.03	229.60
789.35	229.56
789.67	229.50
789.99	229.44
790.32	229.34
790.64	229.29
790.96	229.32
791.28	229.25
791.61	229.21
791.93	229.13
792.25	229.09
792.57	229.12
792.89	229.04
793.21	229.01
793.54	228.98
793.86	228.91
794.18	228.87
794.50	228.84
794.82	228.78
795.14	228.76
795.47	228.73
795.79	228.71
796.11	228.68
796.43	228.64
796.75	228.65
797.07	228.63
797.39	228.58
797.71	228.45
798.04	228.41
798.36	228.36
798.68	228.34
799.00	228.30
799.32	228.22
799.64	228.18
799.96	228.17
800.28	228.12
800.60	228.09
800.92	228.03
801.24	227.99
801.56	228.00
801.89	227.98
802.21	227.98
802.53	227.93
802.85	227.89
803.17	227.90
803.49	227.81
803.81	227.78
804.13	227.73
804.45	227.67
804.77	227.67
805.09	227.65
805.41	227.60
805.73	227.56
806.05	227.51
806.37	227.47
806.69	227.41
807.01	227.41
807.33	227.39
807.65	227.35
807.97	227.36
808.28	227.29
808.60	227.28
808.92	227.20
809.24	227.22
809.56	227.14
809.88	227.09
810.20	227.08
810.52	227.06
810.84	227.03
811.16	227.02
811.48	226.94
811.80	226.96
812.12	226.93
812.43	226.92
812.75	226.91
813.07	226.87
813.39	226.84
813.71	226.79
814.03	226.75
814.35	226.74
814.67	226.66
814.98	226.63
815.30	226.59
815.62	226.55
815.94	226.45
816.26	226.52
816.58	226.49
816.89	226.48
817.21	226.44
817.53	226.44
817.85	226.42
818.17	226.42
818.48	226.34
818.80	226.37
819.12	226.34
819.44	226.29
819.76	226.29
820.07	226.31
820.39	226.25
820.71	226.24
821.03	226.19
821.34	226.19
821.66	226.21
821.98	226.18
822.30	226.21
822.61	226.26
822.93	226.21
823.25	226.20
823.57	226.16
823.88	226.18
824.20	226.15
824.52	226.17
824.83	226.16
825.15	226.17
825.47	226.13
825.79	226.13
826.10	226.15
826.42	226.10
826.74	226.07
827.05	226.08
827.37	226.05
827.69	226.04
828.00	226.02
828.32	226.00
828.64	225.97
828.95	225.98
829.27	225.97
829.58	225.94
829.90	225.94
830.22	225.92
830.53	225.86
830.85	225.84
831.17	225.83
831.48	225.80
831.80	225.77
832.11	225.75
832.43	225.73
832.75	225.70
833.06	225.74
833.38	225.73
833.69	225.73
834.01	225.73
834.32	225.74
834.64	225.69
834.96	225.70
835.27	225.72
835.59	225.66
835.90	225.65
836.22	225.64
836.53	225.62
836.85	225.65
837.16	225.77
837.48	225.76
837.79	225.78
838.11	225.80
838.42	225.81
838.74	225.82
839.05	225.80
839.37	225.79
839.68	225.76
840.00	225.77
840.31	225.73
840.63	225.73
840.94	225.72
841.26	225.76
841.57	225.72
841.88	225.71
842.20	225.70
842.51	225.65
842.83	225.66
843.14	225.74
843.46	225.71
843.77	225.61
844.08	225.62
844.40	225.56
844.71	225.54
845.03	225.54
845.34	225.52
845.65	225.51
845.97	225.54
846.28	225.54
846.60	225.51
846.91	225.54
847.22	225.55
847.54	225.56
847.85	225.54
848.16	225.55
848.48	225.52
848.79	225.56
849.10	225.57
849.42	225.54
849.73	225.46
850.04	225.46
850.36	225.46
850.67	225.47
850.98	225.45
851.30	225.46
851.61	225.44
851.92	225.46
852.23	225.48
852.55	225.47
852.86	225.45
853.17	225.44
853.49	225.41
853.80	225.39
854.11	225.39
854.42	225.40
854.74	225.40
855.05	225.39
855.36	225.35
855.67	225.34
855.99	225.35
856.30	225.42
856.61	225.40
856.92	225.38
857.23	225.36
857.55	225.32
857.86	225.30
858.17	225.30
858.48	225.24
858.79	225.22
859.11	225.24
859.42	225.22
859.73	225.21
860.04	225.22
860.35	225.21
860.66	225.17
860.98	225.18
861.29	225.21
861.60	225.20
861.91	225.17
862.22	225.14
862.53	225.14
862.84	225.02
863.16	225.05
863.47	225.04
863.78	225.03
864.09	225.05
864.40	225.00
864.71	224.98
865.02	225.00
865.33	224.98
865.64	224.93
865.95	224.92
866.27	225.00
866.58	225.01
866.89	225.01
867.20	225.00
867.51	224.97
867.82	224.93
868.13	224.97
868.44	224.97
868.75	225.00
869.06	225.00
869.37	225.00
869.68	224.95
869.99	224.95
870.30	224.96
870.61	224.99
870.92	225.01
871.23	225.00
871.54	225.01
871.85	225.02
872.16	225.02
872.47	225.03
872.78	224.95
873.09	224.94
873.40	224.94
873.71	224.93
874.02	224.91
874.33	224.90
874.64	224.86
874.95	224.86
875.26	224.82
875.56	224.78
875.87	224.78
876.18	224.78
876.49	224.87
876.80	224.84
877.11	224.82
877.42	224.81
877.73	224.86
878.04	224.84
878.35	224.86
878.66	224.87
878.96	224.89
879.27	224.90
879.58	224.90
879.89	224.90
880.20	224.97
880.51	224.96
880.82	224.96
881.12	224.99
881.43	224.95
881.74	224.94
882.05	224.95
882.36	224.95
882.67	224.97
882.97	224.85
883.28	224.87
883.59	224.87
883.90	224.90
884.21	224.91
884.51	224.92
884.82	224.89
885.13	224.88
885.44	224.86
885.74	224.86
886.05	224.87
886.36	224.87
886.67	224.81
886.98	224.85
887.28	224.85
887.59	224.85
887.90	224.90
888.20	224.91
888.51	224.93
888.82	224.95
889.13	224.95
889.43	225.05
889.74	225.05
890.05	225.06
890.35	225.02
890.66	224.93
890.97	224.92
891.28	224.89
891.58	224.91
891.89	224.91
892.20	224.88
892.50	224.83
892.81	224.82
893.12	224.82
893.42	224.79
893.73	224.81
894.04	224.77
894.34	224.79
894.65	224.76
894.95	224.73
895.26	224.73
895.57	224.77
895.87	224.70
896.18	224.69
896.48	224.68
896.79	224.69
897.10	224.75
897.40	224.76
897.71	224.78
898.01	224.77
898.32	224.75
898.63	224.75
898.93	224.77
899.24	224.75
899.54	224.73
899.85	224.74
900.15	224.72
900.46	224.73
900.76	224.71
901.07	224.70
901.38	224.73
901.68	224.75
901.99	224.68
902.29	224.67
902.60	224.69
902.90	224.68
903.21	224.68
903.51	224.67
903.82	224.68
904.12	224.68
904.43	224.66
904.73	224.69
905.03	224.68
905.34	224.78
905.64	224.79
905.95	224.80
906.25	224.81
906.56	224.83
906.86	224.84
907.17	224.82
907.47	224.85
907.77	224.84
908.08	224.78
908.38	224.82
908.69	224.82
908.99	224.83
909.30	224.82
909.60	224.81
909.90	224.81
910.21	224.77
910.51	224.78
910.81	224.80
911.12	224.79
911.42	224.81
911.73	224.72
912.03	224.73
912.33	224.75
912.64	224.70
912.94	224.67
913.24	224.64
913.55	224.67
913.85	224.67
914.15	224.64
914.46	224.66
914.76	224.65
915.06	224.65
915.37	224.62
915.67	224.63
915.97	224.65
916.27	224.62
916.58	224.61
916.88	224.62
917.18	224.60
917.49	224.67
917.79	224.65
918.09	224.66
918.39	224.63
918.70	224.62
919.00	224.67
919.30	224.70
919.60	224.70
919.91	224.68
920.21	224.66
920.51	224.68
920.81	224.68
921.12	224.68
921.42	224.67
921.72	224.70
922.02	224.68
922.32	224.69
922.63	224.73
922.93	224.78
923.23	224.74
923.53	224.71
923.83	224.67
924.13	224.69
924.44	224.68
924.74	224.72
925.04	224.76
925.34	224.74
925.64	224.71
925.94	224.69
926.24	224.74
926.55	224.76
926.85	224.76
927.15	224.76
927.45	224.74
927.75	224.75
928.05	224.76
928.35	224.79
928.65	224.82
928.95	224.80
929.26	224.76
929.56	224.82
929.86	224.88
930.16	224.85
930.46	224.83
930.76	224.84
931.06	224.78
931.36	224.72
931.66	224.75
931.96	224.74
932.26	224.77
932.56	224.73
932.86	224.73
933.16	224.71
933.46	224.68
933.76	224.67
934.06	224.69
934.36	224.69
934.66	224.65
934.96	224.65
935.26	224.63
935.56	224.65
935.86	224.58
936.16	224.54
936.46	224.50
936.76	224.49
937.06	224.46
937.36	224.49
937.66	224.50
937.96	224.48
938.26	224.44
938.56	224.44
938.86	224.40
939.16	224.41
939.46	224.44
939.76	224.47
940.06	224.45
940.35	224.47
940.65	224.39
940.95	224.40
941.25	224.38
941.55	224.36
941.85	224.36
942.15	224.40
942.45	224.43
942.75	224.46
943.04	224.47
943.34	224.51
943.64	224.50
943.94	224.50
944.24	224.49
944.54	224.54
944.84	224.52
945.13	224.55
945.43	224.53
945.73	224.50
946.03	224.48
946.33	224.47
946.62	224.42
946.92	224.46
947.22	224.47
947.52	224.49
947.82	224.53
948.11	224.50
948.41	224.50
948.71	224.47
949.01	224.46
949.31	224.44
949.60	224.41
949.90	224.41
950.20	224.37
950.50	224.40
950.79	224.35
951.09	224.38
951.39	224.37
951.69	224.37
951.98	224.39
952.28	224.40
952.58	224.42
952.87	224.44
953.17	224.43
953.47	224.42
953.76	224.41
954.06	224.38
954.36	224.40
954.66	224.37
954.95	224.42
955.25	224.43
955.55	224.47
955.84	224.46
956.14	224.48
956.44	224.53
956.73	224.50
957.03	224.55
957.32	224.54
957.62	224.55
957.92	224.52
958.21	224.54
958.51	224.65
958.81	224.65
959.10	224.68
959.40	224.73
959.69	224.74
959.99	224.74
960.29	224.70
960.58	224.70
960.88	224.75
961.17	224.74
961.47	224.73
961.76	224.74
962.06	224.80
962.36	224.80
962.65	224.83
962.95	224.85
963.24	224.87
963.54	224.88
963.83	224.89
964.13	224.95
964.42	224.93
964.72	224.89
965.01	224.89
965.31	224.87
965.60	224.80
965.90	224.84
966.19	224.83
966.49	224.89
966.78	224.88
967.08	224.86
967.37	224.85
967.67	224.83
967.96	224.84
968.26	224.80
968.55	224.77
968.85	224.72
969.14	224.72
969.43	224.69
969.73	224.68
970.02	224.64
970.32	224.61
970.61	224.59
970.91	224.57
971.20	224.58
971.49	224.58
971.79	224.66
972.08	224.60
972.38	224.62
972.67	224.62
972.96	224.62
973.26	224.62
973.55	224.65
973.85	224.67
974.14	224.65
974.43	224.67
974.73	224.69
975.02	224.67
975.31	224.68
975.61	224.70
975.90	224.68
976.19	224.72
976.49	224.71
976.78	224.71
977.07	224.68
977.37	224.68
977.66	224.65
977.95	224.59
978.24	224.61
978.54	224.61
978.83	224.58
979.12	224.57
979.42	224.54
979.71	224.53
980.00	224.53
980.29	224.53
980.59	224.53
980.88	224.54
981.17	224.55
981.46	224.53
981.76	224.51
982.05	224.51
982.34	224.50
982.63	224.48
982.93	224.50
983.22	224.53
983.51	224.49
983.80	224.53
984.09	224.54
984.39	224.53
984.68	224.54
984.97	224.54
985.26	224.54
985.55	224.56
985.85	224.52
986.14	224.54
986.43	224.54
986.72	224.48
987.01	224.41
987.30	224.38
987.59	224.39
987.89	224.40
988.18	224.40
988.47	224.39
988.76	224.40
989.05	224.38
989.34	224.39
989.63	224.43
989.92	224.42
990.22	224.40
990.51	224.37
990.80	224.36
991.09	224.37
991.38	224.34
991.67	224.32
991.96	224.30
992.25	224.30
992.54	224.29
992.83	224.31
993.12	224.34
993.41	224.35
993.70	224.38
993.99	224.40
994.28	224.40
994.58	224.41
994.87	224.36
995.16	224.38
995.45	224.33
995.74	224.29
996.03	224.29
996.32	224.30
996.61	224.34
996.90	224.30
997.19	224.28
997.48	224.30
997.77	224.28
998.06	224.31
998.34	224.30
998.63	224.32
998.92	224.33
999.21	224.34
999.50	224.38
999.79	224.35
1000.08	224.34
1000.37	224.36
1000.66	224.32
1000.95	224.38
1001.24	224.36
1001.53	224.38
1001.82	224.39
1002.11	224.39
1002.40	224.43
1002.68	224.49
1002.97	224.59
1003.26	224.59
1003.55	224.58
1003.84	224.59
1004.13	224.63
1004.42	224.62
1004.71	224.60
1004.99	224.61
1005.28	224.61
1005.57	224.62
1005.86	224.60
1006.15	224.58
1006.44	224.58
1006.72	224.63
1007.01	224.62
1007.30	224.62
1007.59	224.63
1007.88	224.62
1008.17	224.62
1008.45	224.57
1008.74	224.46
1009.03	224.40
1009.32	224.40
1009.60	224.40
1009.89	224.38
1010.18	224.32
1010.47	224.33
1010.76	224.35
1011.04	224.33
1011.33	224.38
1011.62	224.34
1011.91	224.36
1012.19	224.36
1012.48	224.34
1012.77	224.33
1013.05	224.39
1013.34	224.41
1013.63	224.40
1013.92	224.42
1014.20	224.41
1014.49	224.42
1014.78	224.47
1015.06	224.44
1015.35	224.45
1015.64	224.47
1015.92	224.49
1016.21	224.54
1016.50	224.56
1016.78	224.54
1017.07	224.57
1017.36	224.53
1017.64	224.55
1017.93	224.56
1018.22	224.55
1018.50	224.55
1018.79	224.54
1019.08	224.45
1019.36	224.45
1019.65	224.47
1019.93	224.50
1020.22	224.53
1020.51	224.57
1020.79	224.54
1021.08	223.98
1021.36	224.35
1021.65	224.29
1021.94	223.83
1022.22	224.58
1022.51	224.53
1022.79	225.33
1023.08	224.74
1023.36	225.55
1023.65	223.95
>>>>>End Processed Spectral Data<<<<<
