SpectraSuite Data File
++++++++++++++++++++++++++++++++++++
Date: Fri Feb 01 17:36:04 EST 2013
User: group
Dark Spectrum Present: No
Reference Spectrum Present: No
Number of Sampled Component Spectra: 1
Spectrometers: USB2E7196
Integration Time (usec): 35000 (USB2E7196)
Spectra Averaged: 100 (USB2E7196)
Boxcar Smoothing: 10 (USB2E7196)
Correct for Electrical Dark: No (USB2E7196)
Strobe/Lamp Enabled: No (USB2E7196)
Correct for Detector Non-linearity: No (USB2E7196)
Correct for Stray Light: No (USB2E7196)
Number of Pixels in Processed Spectrum: 2048
>>>>>Begin Processed Spectral Data<<<<<
339.09	0.00
339.48	212.92
339.86	213.57
340.24	215.04
340.63	216.92
341.01	220.23
341.39	219.92
341.78	220.76
342.16	222.32
342.54	223.02
342.93	211.15
343.31	221.81
343.69	222.37
344.07	222.87
344.46	223.33
344.84	223.71
345.22	223.94
345.60	224.20
345.99	224.43
346.37	224.57
346.75	224.64
347.13	224.71
347.52	224.77
347.90	224.87
348.28	224.89
348.66	224.93
349.05	224.95
349.43	225.02
349.81	225.09
350.19	225.16
350.57	225.26
350.96	225.32
351.34	225.45
351.72	225.52
352.10	225.61
352.48	225.69
352.87	225.76
353.25	225.83
353.63	225.89
354.01	225.94
354.39	226.02
354.77	226.12
355.15	226.22
355.54	226.28
355.92	226.30
356.30	226.45
356.68	226.61
357.06	226.70
357.44	226.77
357.82	226.86
358.20	226.91
358.58	226.95
358.97	227.04
359.35	227.09
359.73	227.15
360.11	227.22
360.49	227.26
360.87	227.30
361.25	227.35
361.63	227.43
362.01	227.48
362.39	227.51
362.77	227.54
363.15	227.59
363.53	227.64
363.91	227.69
364.29	227.67
364.67	227.59
365.05	227.61
365.43	227.63
365.81	227.62
366.19	227.67
366.57	227.72
366.95	227.73
367.33	227.73
367.71	227.73
368.09	227.73
368.47	227.71
368.85	227.73
369.23	227.71
369.61	227.65
369.99	227.67
370.37	227.64
370.75	227.67
371.13	227.61
371.51	227.58
371.89	227.52
372.27	227.47
372.65	227.44
373.03	227.37
373.41	227.31
373.78	227.24
374.16	227.17
374.54	227.07
374.92	226.97
375.30	226.90
375.68	226.83
376.06	226.79
376.44	226.75
376.82	226.66
377.19	226.62
377.57	226.56
377.95	226.45
378.33	226.38
378.71	226.22
379.09	226.19
379.47	226.11
379.84	226.03
380.22	225.96
380.60	225.87
380.98	225.79
381.36	225.71
381.73	225.65
382.11	225.60
382.49	225.55
382.87	225.50
383.25	225.41
383.62	225.48
384.00	225.37
384.38	225.31
384.76	225.28
385.13	225.27
385.51	225.20
385.89	225.14
386.27	225.12
386.64	225.12
387.02	225.04
387.40	225.00
387.78	224.97
388.15	224.92
388.53	224.88
388.91	224.86
389.29	224.84
389.66	224.83
390.04	224.75
390.42	224.72
390.79	224.70
391.17	224.73
391.55	224.57
391.92	224.57
392.30	224.59
392.68	224.56
393.05	224.51
393.43	224.50
393.81	224.52
394.18	224.47
394.56	224.47
394.94	224.49
395.31	224.50
395.69	224.55
396.06	224.58
396.44	224.61
396.82	224.65
397.19	224.73
397.57	224.73
397.95	224.79
398.32	224.81
398.70	224.84
399.07	224.92
399.45	224.99
399.82	225.01
400.20	225.03
400.58	225.09
400.95	225.12
401.33	225.23
401.70	225.35
402.08	225.48
402.45	225.53
402.83	225.64
403.20	225.73
403.58	225.81
403.95	225.94
404.33	226.07
404.71	226.18
405.08	226.36
405.46	226.48
405.83	226.63
406.21	226.79
406.58	226.98
406.96	227.11
407.33	227.30
407.70	227.53
408.08	227.81
408.45	228.00
408.83	228.25
409.20	228.44
409.58	228.62
409.95	228.87
410.33	229.19
410.70	229.46
411.08	229.78
411.45	230.08
411.82	230.38
412.20	230.73
412.57	231.13
412.95	231.41
413.32	231.86
413.69	232.30
414.07	232.73
414.44	233.22
414.82	233.71
415.19	234.22
415.56	234.77
415.94	235.35
416.31	236.02
416.68	236.68
417.06	237.45
417.43	238.17
417.81	238.96
418.18	239.76
418.55	240.63
418.93	241.53
419.30	242.48
419.67	243.45
420.04	244.44
420.42	245.48
420.79	246.73
421.16	247.90
421.54	249.13
421.91	250.43
422.28	251.69
422.66	253.07
423.03	254.50
423.40	255.90
423.77	257.33
424.15	258.83
424.52	260.38
424.89	262.05
425.26	263.69
425.64	265.22
426.01	266.88
426.38	268.61
426.75	270.36
427.13	272.18
427.50	274.06
427.87	276.01
428.24	277.99
428.61	279.79
428.99	281.84
429.36	284.02
429.73	286.18
430.10	288.31
430.47	290.49
430.85	292.68
431.22	295.02
431.59	297.56
431.96	299.89
432.33	302.48
432.70	304.95
433.08	307.88
433.45	310.62
433.82	313.34
434.19	316.34
434.56	319.25
434.93	321.97
435.30	324.72
435.68	327.76
436.05	330.73
436.42	333.66
436.79	336.31
437.16	339.11
437.53	342.06
437.90	345.04
438.27	347.86
438.64	350.79
439.01	353.50
439.38	355.82
439.75	358.09
440.13	360.68
440.50	363.12
440.87	365.04
441.24	367.09
441.61	369.34
441.98	370.90
442.35	372.79
442.72	374.79
443.09	376.68
443.46	377.76
443.83	378.34
444.20	378.90
444.57	379.74
444.94	380.11
445.31	380.50
445.68	380.85
446.05	380.93
446.42	380.56
446.79	380.15
447.16	379.71
447.53	379.41
447.90	378.22
448.27	377.03
448.64	375.38
449.01	374.22
449.37	372.20
449.74	370.26
450.11	367.95
450.48	365.41
450.85	362.80
451.22	360.55
451.59	358.49
451.96	356.49
452.33	353.81
452.70	351.35
453.07	348.34
453.43	345.34
453.80	342.49
454.17	339.70
454.54	337.01
454.91	334.14
455.28	331.39
455.65	328.78
456.02	326.22
456.38	323.99
456.75	321.18
457.12	318.83
457.49	316.50
457.86	314.26
458.23	312.29
458.59	310.13
458.96	307.96
459.33	306.00
459.70	304.04
460.07	302.44
460.43	300.60
460.80	298.93
461.17	297.42
461.54	295.87
461.91	294.38
462.27	292.90
462.64	291.63
463.01	290.17
463.38	288.84
463.74	287.43
464.11	286.18
464.48	285.17
464.85	284.00
465.21	283.08
465.58	282.07
465.95	280.93
466.32	279.99
466.68	279.05
467.05	278.11
467.42	277.17
467.78	276.20
468.15	275.31
468.52	274.67
468.88	273.76
469.25	272.96
469.62	272.33
469.98	271.59
470.35	270.91
470.72	270.31
471.08	269.64
471.45	269.09
471.82	268.56
472.18	267.90
472.55	267.43
472.92	266.91
473.28	266.43
473.65	265.97
474.02	265.53
474.38	265.15
474.75	264.83
475.11	264.45
475.48	264.20
475.85	263.97
476.21	263.67
476.58	263.48
476.94	263.31
477.31	263.13
477.67	263.01
478.04	262.91
478.41	262.81
478.77	262.84
479.14	262.76
479.50	262.75
479.87	262.79
480.23	262.86
480.60	262.94
480.96	263.05
481.33	263.24
481.69	263.42
482.06	263.57
482.42	263.74
482.79	264.01
483.15	264.31
483.52	264.69
483.88	265.06
484.25	265.48
484.61	265.87
484.98	266.35
485.34	266.91
485.71	267.49
486.07	268.10
486.44	268.65
486.80	269.34
487.17	270.12
487.53	270.93
487.90	271.76
488.26	272.70
488.62	273.68
488.99	274.67
489.35	275.70
489.72	276.84
490.08	278.03
490.44	279.32
490.81	280.63
491.17	281.96
491.54	283.42
491.90	284.92
492.26	286.60
492.63	288.29
492.99	290.10
493.36	291.97
493.72	294.03
494.08	296.16
494.45	298.41
494.81	300.70
495.17	303.13
495.54	305.73
495.90	308.38
496.26	311.13
496.63	314.07
496.99	317.16
497.35	320.37
497.72	323.72
498.08	327.19
498.44	330.81
498.80	334.66
499.17	338.70
499.53	342.83
499.89	347.13
500.26	351.60
500.62	356.18
500.98	361.10
501.34	366.09
501.71	371.28
502.07	376.62
502.43	382.14
502.79	387.83
503.16	393.82
503.52	399.95
503.88	406.24
504.24	412.72
504.60	419.49
504.97	426.57
505.33	433.79
505.69	441.34
506.05	449.06
506.41	456.89
506.78	464.83
507.14	473.14
507.50	481.68
507.86	490.49
508.22	499.49
508.59	508.42
508.95	517.79
509.31	527.48
509.67	537.40
510.03	547.43
510.39	557.79
510.75	568.28
511.12	578.99
511.48	590.04
511.84	601.18
512.20	612.39
512.56	623.97
512.92	635.86
513.28	647.88
513.64	659.86
514.00	672.14
514.37	684.80
514.73	697.46
515.09	710.11
515.45	722.97
515.81	736.08
516.17	749.71
516.53	763.47
516.89	777.21
517.25	790.87
517.61	804.87
517.97	818.84
518.33	832.78
518.69	847.07
519.05	861.63
519.41	876.40
519.77	891.46
520.13	906.48
520.49	921.40
520.85	936.23
521.21	951.41
521.57	967.15
521.93	982.30
522.29	998.07
522.65	1013.87
523.01	1029.48
523.37	1045.07
523.73	1060.65
524.09	1076.14
524.45	1091.89
524.81	1107.99
525.17	1124.22
525.53	1140.65
525.89	1156.98
526.25	1173.28
526.61	1189.08
526.97	1205.25
527.33	1221.30
527.68	1237.20
528.04	1253.14
528.40	1269.23
528.76	1285.88
529.12	1301.91
529.48	1318.37
529.84	1333.93
530.20	1350.02
530.56	1366.54
530.91	1383.36
531.27	1399.72
531.63	1415.72
531.99	1431.86
532.35	1447.51
532.71	1463.03
533.07	1478.73
533.42	1494.29
533.78	1510.03
534.14	1525.83
534.50	1540.81
534.86	1556.21
535.21	1571.13
535.57	1586.55
535.93	1601.61
536.29	1615.96
536.65	1630.75
537.00	1645.14
537.36	1660.21
537.72	1674.38
538.08	1688.66
538.44	1702.26
538.79	1715.93
539.15	1729.18
539.51	1742.50
539.87	1756.62
540.22	1769.99
540.58	1783.50
540.94	1796.43
541.29	1808.78
541.65	1821.29
542.01	1834.30
542.37	1846.44
542.72	1858.68
543.08	1870.48
543.44	1882.94
543.79	1894.25
544.15	1904.96
544.51	1916.54
544.87	1927.33
545.22	1938.19
545.58	1948.36
545.94	1958.11
546.29	1967.89
546.65	1977.91
547.01	1987.37
547.36	1996.04
547.72	2004.70
548.07	2012.83
548.43	2021.23
548.79	2029.40
549.14	2037.28
549.50	2044.66
549.86	2052.41
550.21	2059.80
550.57	2066.96
550.92	2073.70
551.28	2080.94
551.64	2088.37
551.99	2094.92
552.35	2101.36
552.70	2107.73
553.06	2114.11
553.41	2120.63
553.77	2126.90
554.13	2133.22
554.48	2139.51
554.84	2145.43
555.19	2150.93
555.55	2156.43
555.90	2161.21
556.26	2166.59
556.61	2171.47
556.97	2176.37
557.32	2180.92
557.68	2185.55
558.03	2190.29
558.39	2194.13
558.74	2198.95
559.10	2203.29
559.45	2207.38
559.81	2211.88
560.16	2216.11
560.52	2219.58
560.87	2223.30
561.23	2226.38
561.58	2229.43
561.94	2232.45
562.29	2235.00
562.64	2238.26
563.00	2241.11
563.35	2245.02
563.71	2248.56
564.06	2252.10
564.42	2255.28
564.77	2258.40
565.12	2261.23
565.48	2263.66
565.83	2266.21
566.19	2268.26
566.54	2269.33
566.89	2271.00
567.25	2272.34
567.60	2274.00
567.96	2276.13
568.31	2277.55
568.66	2279.10
569.02	2280.29
569.37	2280.98
569.72	2282.25
570.08	2282.88
570.43	2283.36
570.78	2283.31
571.14	2282.29
571.49	2281.35
571.84	2281.26
572.20	2280.46
572.55	2279.74
572.90	2278.38
573.26	2277.53
573.61	2276.03
573.96	2274.98
574.31	2272.46
574.67	2269.85
575.02	2266.53
575.37	2263.51
575.72	2260.20
576.08	2257.27
576.43	2254.36
576.78	2251.34
577.13	2248.48
577.49	2245.49
577.84	2242.50
578.19	2239.03
578.54	2235.76
578.90	2232.25
579.25	2227.09
579.60	2222.61
579.95	2218.13
580.30	2213.63
580.66	2208.77
581.01	2204.09
581.36	2199.40
581.71	2195.67
582.06	2191.63
582.42	2187.73
582.77	2182.92
583.12	2178.82
583.47	2174.66
583.82	2170.24
584.17	2165.28
584.53	2160.20
584.88	2154.94
585.23	2149.51
585.58	2144.35
585.93	2139.14
586.28	2134.50
586.63	2129.93
586.98	2125.01
587.34	2120.32
587.69	2115.63
588.04	2110.75
588.39	2105.46
588.74	2099.30
589.09	2093.38
589.44	2086.88
589.79	2080.89
590.14	2075.44
590.49	2068.92
590.84	2062.53
591.19	2056.70
591.54	2050.43
591.89	2043.43
592.25	2037.10
592.60	2030.05
592.95	2022.89
593.30	2015.85
593.65	2008.40
594.00	2001.53
594.35	1994.55
594.70	1986.69
595.05	1979.80
595.40	1972.54
595.75	1965.18
596.10	1959.28
596.45	1952.78
596.80	1946.69
597.15	1940.45
597.50	1933.88
597.85	1927.57
598.19	1921.11
598.54	1914.31
598.89	1907.78
599.24	1901.84
599.59	1895.49
599.94	1889.36
600.29	1883.08
600.64	1876.57
600.99	1869.36
601.34	1862.66
601.69	1855.63
602.04	1849.06
602.39	1841.82
602.74	1835.11
603.08	1828.58
603.43	1821.70
603.78	1814.45
604.13	1807.36
604.48	1800.18
604.83	1793.20
605.18	1786.56
605.53	1778.77
605.87	1770.78
606.22	1763.55
606.57	1755.83
606.92	1748.25
607.27	1741.27
607.62	1734.42
607.96	1727.27
608.31	1720.78
608.66	1713.31
609.01	1706.07
609.36	1698.59
609.70	1690.52
610.05	1682.52
610.40	1674.89
610.75	1666.79
611.10	1659.06
611.44	1650.52
611.79	1642.39
612.14	1633.53
612.49	1624.10
612.83	1615.50
613.18	1607.14
613.53	1599.10
613.88	1590.43
614.22	1582.10
614.57	1573.23
614.92	1565.21
615.27	1557.71
615.61	1549.33
615.96	1541.24
616.31	1533.31
616.65	1525.76
617.00	1518.29
617.35	1510.46
617.70	1502.01
618.04	1493.42
618.39	1485.01
618.74	1477.53
619.08	1469.17
619.43	1461.60
619.78	1454.61
620.12	1447.55
620.47	1440.01
620.82	1431.53
621.16	1423.94
621.51	1416.24
621.85	1408.52
622.20	1399.80
622.55	1391.24
622.89	1383.20
623.24	1375.27
623.59	1367.81
623.93	1360.15
624.28	1352.66
624.62	1345.18
624.97	1337.94
625.32	1330.98
625.66	1323.90
626.01	1316.49
626.35	1309.15
626.70	1301.27
627.04	1293.67
627.39	1285.58
627.73	1278.15
628.08	1271.31
628.43	1264.19
628.77	1256.87
629.12	1249.42
629.46	1242.25
629.81	1234.66
630.15	1227.39
630.50	1220.08
630.84	1211.84
631.19	1203.76
631.53	1196.20
631.88	1188.52
632.22	1180.84
632.57	1173.49
632.91	1165.90
633.26	1158.52
633.60	1150.89
633.95	1143.64
634.29	1136.24
634.64	1129.65
634.98	1122.15
635.32	1114.93
635.67	1108.16
636.01	1101.36
636.36	1094.46
636.70	1087.89
637.05	1081.29
637.39	1074.73
637.73	1068.22
638.08	1062.30
638.42	1056.35
638.77	1049.89
639.11	1043.25
639.45	1036.77
639.80	1030.07
640.14	1023.75
640.49	1017.14
640.83	1010.85
641.17	1004.66
641.52	998.46
641.86	991.89
642.20	986.04
642.55	979.61
642.89	973.17
643.23	966.57
643.58	960.79
643.92	954.54
644.26	948.55
644.61	942.42
644.95	936.32
645.29	929.79
645.64	923.06
645.98	916.68
646.32	910.68
646.66	904.67
647.01	898.83
647.35	893.08
647.69	887.15
648.04	881.51
648.38	875.76
648.72	869.88
649.06	863.96
649.41	858.09
649.75	852.22
650.09	846.23
650.43	840.42
650.78	834.19
651.12	828.23
651.46	822.43
651.80	816.81
652.14	811.26
652.49	805.86
652.83	800.68
653.17	795.06
653.51	789.47
653.85	783.97
654.20	778.35
654.54	772.37
654.88	766.57
655.22	760.62
655.56	754.80
655.90	749.19
656.25	743.84
656.59	738.45
656.93	733.34
657.27	728.16
657.61	722.68
657.95	717.55
658.29	712.46
658.64	707.21
658.98	701.80
659.32	696.36
659.66	691.06
660.00	685.74
660.34	680.73
660.68	675.75
661.02	670.74
661.36	665.95
661.70	661.33
662.05	657.02
662.39	652.83
662.73	648.37
663.07	643.98
663.41	639.58
663.75	635.10
664.09	630.45
664.43	626.02
664.77	621.97
665.11	617.79
665.45	613.59
665.79	609.47
666.13	605.37
666.47	601.27
666.81	597.18
667.15	592.99
667.49	589.02
667.83	585.16
668.17	581.20
668.51	577.18
668.85	573.15
669.19	569.26
669.53	565.38
669.87	561.58
670.21	557.88
670.55	554.10
670.89	550.64
671.23	547.22
671.57	543.71
671.91	540.17
672.25	536.58
672.58	533.04
672.92	529.59
673.26	526.34
673.60	523.16
673.94	520.02
674.28	517.12
674.62	514.12
674.96	511.05
675.30	508.21
675.64	505.26
675.97	502.48
676.31	499.58
676.65	496.66
676.99	493.91
677.33	491.01
677.67	488.20
678.01	485.14
678.34	482.19
678.68	479.23
679.02	476.36
679.36	473.65
679.70	470.96
680.04	468.20
680.37	465.40
680.71	462.57
681.05	459.95
681.39	457.23
681.73	454.59
682.06	452.10
682.40	449.50
682.74	446.90
683.08	444.33
683.42	441.73
683.75	439.20
684.09	436.57
684.43	434.05
684.77	431.56
685.10	429.19
685.44	426.84
685.78	424.54
686.12	422.31
686.45	419.90
686.79	417.56
687.13	415.33
687.46	413.10
687.80	410.90
688.14	408.58
688.48	406.50
688.81	404.28
689.15	402.09
689.49	399.91
689.82	397.86
690.16	395.72
690.50	393.73
690.83	391.77
691.17	389.75
691.51	387.84
691.84	385.97
692.18	384.04
692.52	382.13
692.85	380.19
693.19	378.26
693.52	376.43
693.86	374.57
694.20	372.76
694.53	371.00
694.87	369.18
695.21	367.40
695.54	365.53
695.88	363.76
696.21	361.97
696.55	360.25
696.88	358.52
697.22	356.82
697.56	355.10
697.89	353.42
698.23	351.83
698.56	350.20
698.90	348.64
699.23	346.96
699.57	345.33
699.90	343.74
700.24	342.13
700.58	340.59
700.91	339.09
701.25	337.61
701.58	336.16
701.92	334.72
702.25	333.34
702.59	332.00
702.92	330.68
703.26	329.34
703.59	328.02
703.93	326.78
704.26	325.58
704.60	324.33
704.93	323.02
705.26	321.75
705.60	320.50
705.93	319.26
706.27	318.20
706.60	317.14
706.94	316.01
707.27	314.87
707.61	313.77
707.94	312.70
708.27	311.54
708.61	310.45
708.94	309.41
709.28	308.41
709.61	307.40
709.94	306.40
710.28	305.36
710.61	304.36
710.95	303.26
711.28	302.28
711.61	301.30
711.95	300.38
712.28	299.45
712.61	298.51
712.95	297.58
713.28	296.63
713.61	295.66
713.95	294.81
714.28	293.96
714.61	293.08
714.95	292.23
715.28	291.41
715.61	290.51
715.95	289.64
716.28	288.76
716.61	287.89
716.95	287.04
717.28	286.27
717.61	285.48
717.94	284.76
718.28	283.95
718.61	283.18
718.94	282.44
719.27	281.77
719.61	281.06
719.94	280.36
720.27	279.65
720.60	279.03
720.94	278.39
721.27	277.77
721.60	277.19
721.93	276.55
722.27	275.97
722.60	275.44
722.93	274.91
723.26	274.37
723.59	273.81
723.93	273.24
724.26	272.67
724.59	272.10
724.92	271.53
725.25	271.03
725.59	270.54
725.92	270.02
726.25	269.48
726.58	269.00
726.91	268.50
727.24	268.00
727.57	267.51
727.91	267.01
728.24	266.55
728.57	266.03
728.90	265.56
729.23	265.09
729.56	264.65
729.89	264.14
730.22	263.65
730.55	263.15
730.89	262.73
731.22	262.32
731.55	261.93
731.88	261.47
732.21	261.05
732.54	260.61
732.87	260.20
733.20	259.81
733.53	259.44
733.86	259.09
734.19	258.68
734.52	258.28
734.85	257.93
735.18	257.55
735.51	257.21
735.84	256.87
736.17	256.51
736.50	256.15
736.83	255.90
737.16	255.57
737.49	255.23
737.82	254.87
738.15	254.52
738.48	254.11
738.81	253.84
739.14	253.49
739.47	253.21
739.80	252.91
740.13	252.57
740.46	252.24
740.79	251.93
741.12	251.63
741.45	251.33
741.78	251.00
742.11	250.66
742.44	250.33
742.77	250.02
743.10	249.75
743.43	249.35
743.75	248.98
744.08	248.81
744.41	248.55
744.74	248.29
745.07	248.00
745.40	247.80
745.73	247.56
746.06	247.30
746.39	247.01
746.71	246.71
747.04	246.44
747.37	246.18
747.70	245.90
748.03	245.66
748.36	245.44
748.68	245.16
749.01	244.93
749.34	244.71
749.67	244.48
750.00	244.26
750.33	244.15
750.65	243.93
750.98	243.58
751.31	243.35
751.64	243.14
751.97	242.99
752.29	242.74
752.62	242.46
752.95	242.26
753.28	242.03
753.60	241.83
753.93	241.68
754.26	241.49
754.59	241.26
754.91	241.03
755.24	240.81
755.57	240.63
755.90	240.47
756.22	240.25
756.55	240.03
756.88	239.82
757.20	239.60
757.53	239.40
757.86	239.23
758.19	239.07
758.51	238.90
758.84	238.66
759.17	238.49
759.49	238.35
759.82	238.19
760.15	238.06
760.47	237.92
760.80	237.71
761.13	237.57
761.45	237.43
761.78	237.31
762.11	237.14
762.43	237.00
762.76	236.82
763.08	236.71
763.41	236.61
763.74	236.50
764.06	236.36
764.39	236.22
764.71	236.06
765.04	235.93
765.37	235.78
765.69	235.65
766.02	235.51
766.34	235.37
766.67	235.23
767.00	235.12
767.32	235.06
767.65	235.02
767.97	234.89
768.30	234.77
768.62	234.66
768.95	234.57
769.27	234.43
769.60	234.33
769.92	234.21
770.25	234.06
770.57	233.94
770.90	233.81
771.22	233.71
771.55	233.64
771.87	233.53
772.20	233.42
772.52	233.47
772.85	233.51
773.17	233.39
773.50	233.28
773.82	233.18
774.15	233.02
774.47	232.87
774.80	232.77
775.12	232.69
775.45	232.60
775.77	232.50
776.09	232.43
776.42	232.35
776.74	232.29
777.07	232.20
777.39	232.09
777.72	232.00
778.04	231.94
778.36	231.84
778.69	231.76
779.01	231.69
779.33	231.50
779.66	231.31
779.98	231.25
780.31	231.17
780.63	231.11
780.95	231.05
781.28	230.95
781.60	230.88
781.92	230.81
782.25	230.73
782.57	230.67
782.89	230.59
783.22	230.50
783.54	230.42
783.86	230.38
784.19	230.32
784.51	230.27
784.83	230.15
785.16	230.08
785.48	230.05
785.80	229.99
786.12	229.93
786.45	229.87
786.77	229.80
787.09	229.75
787.42	229.66
787.74	229.62
788.06	229.58
788.38	229.50
788.71	229.47
789.03	229.42
789.35	229.39
789.67	229.36
789.99	229.34
790.32	229.29
790.64	229.28
790.96	229.33
791.28	229.27
791.61	229.27
791.93	229.22
792.25	229.13
792.57	229.16
792.89	229.10
793.21	229.07
793.54	229.06
793.86	229.01
794.18	228.97
794.50	228.94
794.82	228.93
795.14	228.91
795.47	228.86
795.79	228.83
796.11	228.78
796.43	228.73
796.75	228.73
797.07	228.73
797.39	228.66
797.71	228.55
798.04	228.52
798.36	228.51
798.68	228.49
799.00	228.50
799.32	228.43
799.64	228.42
799.96	228.40
800.28	228.36
800.60	228.33
800.92	228.32
801.24	228.27
801.56	228.26
801.89	228.19
802.21	228.16
802.53	228.11
802.85	228.10
803.17	228.15
803.49	228.06
803.81	227.98
804.13	227.95
804.45	227.90
804.77	227.87
805.09	227.84
805.41	227.82
805.73	227.81
806.05	227.78
806.37	227.75
806.69	227.71
807.01	227.70
807.33	227.69
807.65	227.65
807.97	227.65
808.28	227.60
808.60	227.60
808.92	227.55
809.24	227.60
809.56	227.60
809.88	227.49
810.20	227.50
810.52	227.50
810.84	227.45
811.16	227.43
811.48	227.38
811.80	227.41
812.12	227.36
812.43	227.32
812.75	227.30
813.07	227.26
813.39	227.24
813.71	227.18
814.03	227.15
814.35	227.13
814.67	227.07
814.98	227.05
815.30	227.04
815.62	227.00
815.94	226.90
816.26	226.88
816.58	226.83
816.89	226.79
817.21	226.71
817.53	226.74
817.85	226.71
818.17	226.74
818.48	226.65
818.80	226.66
819.12	226.61
819.44	226.57
819.76	226.58
820.07	226.56
820.39	226.53
820.71	226.48
821.03	226.45
821.34	226.43
821.66	226.44
821.98	226.40
822.30	226.42
822.61	226.46
822.93	226.39
823.25	226.41
823.57	226.40
823.88	226.44
824.20	226.41
824.52	226.42
824.83	226.34
825.15	226.33
825.47	226.31
825.79	226.30
826.10	226.26
826.42	226.22
826.74	226.19
827.05	226.18
827.37	226.20
827.69	226.17
828.00	226.17
828.32	226.11
828.64	226.12
828.95	226.13
829.27	226.09
829.58	226.11
829.90	226.11
830.22	226.09
830.53	226.01
830.85	225.99
831.17	225.94
831.48	225.96
831.80	225.94
832.11	225.89
832.43	225.86
832.75	225.85
833.06	225.90
833.38	225.85
833.69	225.86
834.01	225.82
834.32	225.81
834.64	225.78
834.96	225.79
835.27	225.78
835.59	225.75
835.90	225.70
836.22	225.68
836.53	225.67
836.85	225.66
837.16	225.80
837.48	225.81
837.79	225.83
838.11	225.84
838.42	225.86
838.74	225.86
839.05	225.85
839.37	225.83
839.68	225.74
840.00	225.74
840.31	225.73
840.63	225.74
840.94	225.72
841.26	225.70
841.57	225.70
841.88	225.68
842.20	225.64
842.51	225.65
842.83	225.63
843.14	225.70
843.46	225.69
843.77	225.59
844.08	225.55
844.40	225.55
844.71	225.50
845.03	225.47
845.34	225.45
845.65	225.46
845.97	225.44
846.28	225.47
846.60	225.48
846.91	225.47
847.22	225.45
847.54	225.47
847.85	225.51
848.16	225.47
848.48	225.49
848.79	225.53
849.10	225.53
849.42	225.55
849.73	225.47
850.04	225.45
850.36	225.40
850.67	225.46
850.98	225.45
851.30	225.48
851.61	225.46
851.92	225.44
852.23	225.46
852.55	225.50
852.86	225.49
853.17	225.51
853.49	225.52
853.80	225.55
854.11	225.59
854.42	225.56
854.74	225.55
855.05	225.53
855.36	225.49
855.67	225.48
855.99	225.45
856.30	225.53
856.61	225.53
856.92	225.55
857.23	225.50
857.55	225.52
857.86	225.49
858.17	225.52
858.48	225.54
858.79	225.51
859.11	225.52
859.42	225.50
859.73	225.48
860.04	225.45
860.35	225.40
860.66	225.37
860.98	225.37
861.29	225.35
861.60	225.33
861.91	225.32
862.22	225.32
862.53	225.29
862.84	225.21
863.16	225.24
863.47	225.21
863.78	225.22
864.09	225.17
864.40	225.18
864.71	225.17
865.02	225.14
865.33	225.16
865.64	225.14
865.95	225.14
866.27	225.18
866.58	225.20
866.89	225.23
867.20	225.20
867.51	225.18
867.82	225.18
868.13	225.22
868.44	225.21
868.75	225.21
869.06	225.24
869.37	225.21
869.68	225.20
869.99	225.23
870.30	225.23
870.61	225.25
870.92	225.22
871.23	225.20
871.54	225.22
871.85	225.24
872.16	225.24
872.47	225.24
872.78	225.19
873.09	225.18
873.40	225.14
873.71	225.14
874.02	225.16
874.33	225.17
874.64	225.13
874.95	225.17
875.26	225.15
875.56	225.15
875.87	225.17
876.18	225.13
876.49	225.21
876.80	225.20
877.11	225.17
877.42	225.17
877.73	225.19
878.04	225.19
878.35	225.20
878.66	225.16
878.96	225.14
879.27	225.12
879.58	225.12
879.89	225.13
880.20	225.17
880.51	225.15
880.82	225.16
881.12	225.18
881.43	225.15
881.74	225.14
882.05	225.15
882.36	225.15
882.67	225.19
882.97	225.09
883.28	225.09
883.59	225.10
883.90	225.15
884.21	225.13
884.51	225.10
884.82	225.06
885.13	225.08
885.44	225.10
885.74	225.10
886.05	225.07
886.36	225.12
886.67	225.08
886.98	225.12
887.28	225.10
887.59	225.08
887.90	225.06
888.20	225.06
888.51	225.06
888.82	225.04
889.13	225.04
889.43	225.13
889.74	225.12
890.05	225.08
890.35	225.04
890.66	225.06
890.97	225.06
891.28	225.06
891.58	225.03
891.89	225.04
892.20	225.04
892.50	225.05
892.81	225.00
893.12	225.01
893.42	224.98
893.73	225.00
894.04	225.02
894.34	225.00
894.65	225.00
894.95	225.02
895.26	225.04
895.57	225.06
895.87	224.98
896.18	225.00
896.48	225.03
896.79	225.03
897.10	225.04
897.40	225.05
897.71	225.06
898.01	225.08
898.32	225.07
898.63	225.12
898.93	225.12
899.24	225.15
899.54	225.14
899.85	225.10
900.15	225.10
900.46	225.09
900.76	225.14
901.07	225.16
901.38	225.10
901.68	225.09
901.99	225.03
902.29	225.01
902.60	224.98
902.90	224.96
903.21	224.94
903.51	224.92
903.82	224.95
904.12	224.97
904.43	224.98
904.73	224.99
905.03	224.96
905.34	225.05
905.64	224.98
905.95	224.99
906.25	225.00
906.56	224.99
906.86	225.01
907.17	225.00
907.47	225.00
907.77	225.02
908.08	225.03
908.38	225.04
908.69	225.04
908.99	225.11
909.30	225.15
909.60	225.15
909.90	225.15
910.21	225.10
910.51	225.05
910.81	225.05
911.12	225.02
911.42	225.04
911.73	224.95
912.03	225.01
912.33	225.03
912.64	225.03
912.94	225.01
913.24	224.98
913.55	224.99
913.85	224.99
914.15	225.00
914.46	224.99
914.76	225.00
915.06	225.02
915.37	224.97
915.67	224.94
915.97	224.96
916.27	224.94
916.58	224.96
916.88	224.97
917.18	224.95
917.49	225.03
917.79	225.03
918.09	225.05
918.39	225.06
918.70	225.05
919.00	225.04
919.30	225.10
919.60	225.10
919.91	225.09
920.21	225.08
920.51	225.06
920.81	225.03
921.12	225.05
921.42	225.05
921.72	225.06
922.02	225.08
922.32	225.08
922.63	225.11
922.93	225.17
923.23	225.20
923.53	225.20
923.83	225.17
924.13	225.13
924.44	225.11
924.74	225.14
925.04	225.20
925.34	225.21
925.64	225.17
925.94	225.18
926.24	225.24
926.55	225.26
926.85	225.28
927.15	225.30
927.45	225.31
927.75	225.31
928.05	225.30
928.35	225.31
928.65	225.34
928.95	225.35
929.26	225.32
929.56	225.33
929.86	225.35
930.16	225.34
930.46	225.40
930.76	225.40
931.06	225.39
931.36	225.34
931.66	225.36
931.96	225.35
932.26	225.35
932.56	225.30
932.86	225.32
933.16	225.32
933.46	225.34
933.76	225.32
934.06	225.31
934.36	225.35
934.66	225.34
934.96	225.36
935.26	225.36
935.56	225.37
935.86	225.36
936.16	225.36
936.46	225.32
936.76	225.30
937.06	225.29
937.36	225.27
937.66	225.29
937.96	225.31
938.26	225.30
938.56	225.30
938.86	225.29
939.16	225.31
939.46	225.30
939.76	225.27
940.06	225.23
940.35	225.21
940.65	225.16
940.95	225.16
941.25	225.11
941.55	225.07
941.85	225.09
942.15	225.11
942.45	225.11
942.75	225.13
943.04	225.13
943.34	225.18
943.64	225.19
943.94	225.16
944.24	225.14
944.54	225.17
944.84	225.18
945.13	225.15
945.43	225.16
945.73	225.15
946.03	225.15
946.33	225.16
946.62	225.20
946.92	225.20
947.22	225.19
947.52	225.21
947.82	225.24
948.11	225.20
948.41	225.13
948.71	225.08
949.01	225.05
949.31	225.06
949.60	225.02
949.90	225.00
950.20	225.00
950.50	224.96
950.79	224.93
951.09	224.94
951.39	224.95
951.69	224.93
951.98	224.95
952.28	224.97
952.58	224.96
952.87	224.95
953.17	224.95
953.47	224.95
953.76	224.94
954.06	224.90
954.36	224.91
954.66	224.91
954.95	224.98
955.25	225.00
955.55	224.98
955.84	224.99
956.14	225.01
956.44	225.03
956.73	225.05
957.03	225.07
957.32	225.09
957.62	225.07
957.92	225.11
958.21	225.12
958.51	225.21
958.81	225.22
959.10	225.22
959.40	225.26
959.69	225.29
959.99	225.29
960.29	225.31
960.58	225.31
960.88	225.39
961.17	225.37
961.47	225.40
961.76	225.41
962.06	225.41
962.36	225.40
962.65	225.41
962.95	225.41
963.24	225.39
963.54	225.36
963.83	225.41
964.13	225.38
964.42	225.35
964.72	225.30
965.01	225.34
965.31	225.33
965.60	225.31
965.90	225.39
966.19	225.39
966.49	225.41
966.78	225.38
967.08	225.33
967.37	225.32
967.67	225.26
967.96	225.26
968.26	225.26
968.55	225.26
968.85	225.26
969.14	225.26
969.43	225.27
969.73	225.29
970.02	225.23
970.32	225.24
970.61	225.22
970.91	225.18
971.20	225.15
971.49	225.13
971.79	225.14
972.08	225.05
972.38	225.08
972.67	225.04
972.96	225.06
973.26	225.07
973.55	225.09
973.85	225.10
974.14	225.10
974.43	225.11
974.73	225.11
975.02	225.09
975.31	225.06
975.61	225.06
975.90	225.04
976.19	225.07
976.49	225.07
976.78	225.09
977.07	225.10
977.37	225.11
977.66	225.13
977.95	225.09
978.24	225.05
978.54	225.03
978.83	225.05
979.12	225.04
979.42	225.05
979.71	225.04
980.00	225.06
980.29	225.07
980.59	225.04
980.88	225.04
981.17	225.02
981.46	225.06
981.76	225.06
982.05	225.06
982.34	225.05
982.63	225.00
982.93	225.01
983.22	225.01
983.51	224.99
983.80	225.00
984.09	225.01
984.39	225.01
984.68	224.99
984.97	224.97
985.26	225.00
985.55	225.00
985.85	224.99
986.14	224.99
986.43	224.95
986.72	224.94
987.01	224.90
987.30	224.89
987.59	224.87
987.89	224.87
988.18	224.84
988.47	224.85
988.76	224.86
989.05	224.83
989.34	224.80
989.63	224.83
989.92	224.79
990.22	224.78
990.51	224.78
990.80	224.78
991.09	224.79
991.38	224.78
991.67	224.75
991.96	224.73
992.25	224.71
992.54	224.72
992.83	224.70
993.12	224.69
993.41	224.73
993.70	224.77
993.99	224.77
994.28	224.79
994.58	224.79
994.87	224.80
995.16	224.81
995.45	224.83
995.74	224.79
996.03	224.82
996.32	224.82
996.61	224.85
996.90	224.86
997.19	224.86
997.48	224.87
997.77	224.86
998.06	224.87
998.34	224.88
998.63	224.88
998.92	224.89
999.21	224.94
999.50	224.93
999.79	224.88
1000.08	224.87
1000.37	224.86
1000.66	224.86
1000.95	224.90
1001.24	224.93
1001.53	224.91
1001.82	224.93
1002.11	224.92
1002.40	224.95
1002.68	224.97
1002.97	225.03
1003.26	225.00
1003.55	224.96
1003.84	224.98
1004.13	225.02
1004.42	225.02
1004.71	225.00
1004.99	225.02
1005.28	225.00
1005.57	225.00
1005.86	225.00
1006.15	224.99
1006.44	225.01
1006.72	225.01
1007.01	224.98
1007.30	224.94
1007.59	224.94
1007.88	224.93
1008.17	224.95
1008.45	224.93
1008.74	224.90
1009.03	224.83
1009.32	224.81
1009.60	224.84
1009.89	224.82
1010.18	224.74
1010.47	224.74
1010.76	224.79
1011.04	224.77
1011.33	224.80
1011.62	224.80
1011.91	224.81
1012.19	224.81
1012.48	224.78
1012.77	224.81
1013.05	224.86
1013.34	224.88
1013.63	224.88
1013.92	224.89
1014.20	224.85
1014.49	224.87
1014.78	224.87
1015.06	224.86
1015.35	224.90
1015.64	224.92
1015.92	224.93
1016.21	224.98
1016.50	224.99
1016.78	224.96
1017.07	224.99
1017.36	224.94
1017.64	224.91
1017.93	224.90
1018.22	224.91
1018.50	224.91
1018.79	224.88
1019.08	224.80
1019.36	224.81
1019.65	224.80
1019.93	224.79
1020.22	224.83
1020.51	224.85
1020.79	224.82
1021.08	224.77
1021.36	224.58
1021.65	224.83
1021.94	224.54
1022.22	225.10
1022.51	224.60
1022.79	224.92
1023.08	224.99
1023.36	225.67
1023.65	224.23
>>>>>End Processed Spectral Data<<<<<
