SpectraSuite Data File
++++++++++++++++++++++++++++++++++++
Date: Fri Feb 01 16:23:40 EST 2013
User: group
Dark Spectrum Present: No
Reference Spectrum Present: No
Number of Sampled Component Spectra: 1
Spectrometers: USB2E7196
Integration Time (usec): 35000 (USB2E7196)
Spectra Averaged: 100 (USB2E7196)
Boxcar Smoothing: 10 (USB2E7196)
Correct for Electrical Dark: No (USB2E7196)
Strobe/Lamp Enabled: No (USB2E7196)
Correct for Detector Non-linearity: No (USB2E7196)
Correct for Stray Light: No (USB2E7196)
Number of Pixels in Processed Spectrum: 2048
>>>>>Begin Processed Spectral Data<<<<<
339.09	0.00
339.48	214.60
339.86	215.61
340.24	217.15
340.63	218.53
341.01	221.57
341.39	221.24
341.78	222.24
342.16	223.05
342.54	224.73
342.93	212.59
343.31	223.31
343.69	223.81
344.07	224.27
344.46	224.70
344.84	225.06
345.22	225.26
345.60	225.51
345.99	225.70
346.37	225.85
346.75	225.91
347.13	226.00
347.52	226.05
347.90	226.11
348.28	226.11
348.66	226.14
349.05	226.14
349.43	226.17
349.81	226.19
350.19	226.24
350.57	226.28
350.96	226.34
351.34	226.43
351.72	226.53
352.10	226.62
352.48	226.67
352.87	226.75
353.25	226.82
353.63	226.89
354.01	226.94
354.39	227.01
354.77	227.06
355.15	227.12
355.54	227.19
355.92	227.20
356.30	227.28
356.68	227.38
357.06	227.45
357.44	227.50
357.82	227.55
358.20	227.59
358.58	227.66
358.97	227.72
359.35	227.78
359.73	227.83
360.11	227.87
360.49	227.93
360.87	227.94
361.25	228.00
361.63	228.03
362.01	228.07
362.39	228.09
362.77	228.17
363.15	228.24
363.53	228.26
363.91	228.29
364.29	228.34
364.67	228.24
365.05	228.25
365.43	228.25
365.81	228.25
366.19	228.34
366.57	228.36
366.95	228.32
367.33	228.31
367.71	228.32
368.09	228.35
368.47	228.33
368.85	228.31
369.23	228.33
369.61	228.29
369.99	228.29
370.37	228.30
370.75	228.29
371.13	228.18
371.51	228.14
371.89	228.09
372.27	228.03
372.65	228.02
373.03	227.98
373.41	227.95
373.78	227.92
374.16	227.80
374.54	227.73
374.92	227.69
375.30	227.63
375.68	227.52
376.06	227.44
376.44	227.37
376.82	227.33
377.19	227.22
377.57	227.16
377.95	227.08
378.33	226.98
378.71	226.87
379.09	226.89
379.47	226.84
379.84	226.81
380.22	226.73
380.60	226.64
380.98	226.60
381.36	226.53
381.73	226.45
382.11	226.40
382.49	226.35
382.87	226.28
383.25	226.24
383.62	226.31
384.00	226.23
384.38	226.18
384.76	226.13
385.13	226.12
385.51	226.08
385.89	226.04
386.27	225.99
386.64	225.95
387.02	225.90
387.40	225.85
387.78	225.76
388.15	225.73
388.53	225.72
388.91	225.66
389.29	225.61
389.66	225.58
390.04	225.54
390.42	225.57
390.79	225.57
391.17	225.54
391.55	225.45
391.92	225.46
392.30	225.45
392.68	225.43
393.05	225.44
393.43	225.43
393.81	225.42
394.18	225.45
394.56	225.45
394.94	225.44
395.31	225.45
395.69	225.54
396.06	225.58
396.44	225.59
396.82	225.62
397.19	225.71
397.57	225.73
397.95	225.83
398.32	225.84
398.70	225.87
399.07	225.94
399.45	225.98
399.82	226.02
400.20	226.09
400.58	226.16
400.95	226.20
401.33	226.32
401.70	226.47
402.08	226.54
402.45	226.65
402.83	226.78
403.20	226.89
403.58	226.97
403.95	227.09
404.33	227.25
404.71	227.37
405.08	227.55
405.46	227.68
405.83	227.77
406.21	227.87
406.58	228.04
406.96	228.21
407.33	228.36
407.70	228.57
408.08	228.83
408.45	229.04
408.83	229.25
409.20	229.44
409.58	229.61
409.95	229.87
410.33	230.13
410.70	230.39
411.08	230.68
411.45	231.02
411.82	231.35
412.20	231.68
412.57	232.13
412.95	232.44
413.32	232.89
413.69	233.34
414.07	233.80
414.44	234.27
414.82	234.73
415.19	235.30
415.56	235.86
415.94	236.38
416.31	236.98
416.68	237.61
417.06	238.33
417.43	239.00
417.81	239.79
418.18	240.58
418.55	241.38
418.93	242.24
419.30	243.11
419.67	244.00
420.04	244.97
420.42	245.93
420.79	247.08
421.16	248.18
421.54	249.35
421.91	250.57
422.28	251.82
422.66	253.16
423.03	254.46
423.40	255.81
423.77	257.23
424.15	258.65
424.52	260.12
424.89	261.73
425.26	263.29
425.64	264.71
426.01	266.28
426.38	267.92
426.75	269.60
427.13	271.32
427.50	273.18
427.87	275.01
428.24	276.84
428.61	278.59
428.99	280.58
429.36	282.67
429.73	284.73
430.10	286.72
430.47	288.78
430.85	290.86
431.22	293.10
431.59	295.43
431.96	297.68
432.33	300.15
432.70	302.48
433.08	305.27
433.45	307.90
433.82	310.52
434.19	313.40
434.56	316.17
434.93	318.82
435.30	321.42
435.68	324.33
436.05	327.15
436.42	329.93
436.79	332.41
437.16	335.11
437.53	337.92
437.90	340.70
438.27	343.36
438.64	346.18
439.01	348.78
439.38	351.01
439.75	353.16
440.13	355.67
440.50	358.02
440.87	359.83
441.24	361.78
441.61	363.94
441.98	365.43
442.35	367.24
442.72	369.09
443.09	370.87
443.46	371.82
443.83	372.42
444.20	372.89
444.57	373.67
444.94	373.92
445.31	374.26
445.68	374.65
446.05	374.77
446.42	374.37
446.79	373.92
447.16	373.53
447.53	373.29
447.90	372.12
448.27	370.97
448.64	369.43
449.01	368.28
449.37	366.32
449.74	364.44
450.11	362.19
450.48	359.69
450.85	357.13
451.22	355.04
451.59	353.03
451.96	351.13
452.33	348.57
452.70	346.21
453.07	343.38
453.43	340.47
453.80	337.74
454.17	335.09
454.54	332.52
454.91	329.79
455.28	327.08
455.65	324.60
456.02	322.13
456.38	320.02
456.75	317.39
457.12	315.14
457.49	312.94
457.86	310.77
458.23	308.97
458.59	306.93
458.96	304.86
459.33	303.06
459.70	301.21
460.07	299.71
460.43	298.04
460.80	296.40
461.17	295.01
461.54	293.50
461.91	292.11
462.27	290.70
462.64	289.44
463.01	288.09
463.38	286.84
463.74	285.51
464.11	284.31
464.48	283.27
464.85	282.17
465.21	281.31
465.58	280.43
465.95	279.30
466.32	278.43
466.68	277.53
467.05	276.61
467.42	275.72
467.78	274.84
468.15	273.97
468.52	273.37
468.88	272.50
469.25	271.71
469.62	271.12
469.98	270.43
470.35	269.80
470.72	269.25
471.08	268.62
471.45	268.09
471.82	267.60
472.18	267.00
472.55	266.57
472.92	266.02
473.28	265.57
473.65	265.17
474.02	264.75
474.38	264.39
474.75	264.05
475.11	263.72
475.48	263.47
475.85	263.25
476.21	263.03
476.58	262.88
476.94	262.79
477.31	262.59
477.67	262.42
478.04	262.34
478.41	262.25
478.77	262.22
479.14	262.14
479.50	262.12
479.87	262.22
480.23	262.29
480.60	262.40
480.96	262.49
481.33	262.71
481.69	262.92
482.06	263.10
482.42	263.34
482.79	263.61
483.15	263.89
483.52	264.25
483.88	264.58
484.25	265.01
484.61	265.41
484.98	265.88
485.34	266.50
485.71	267.08
486.07	267.69
486.44	268.31
486.80	269.05
487.17	269.78
487.53	270.60
487.90	271.46
488.26	272.39
488.62	273.37
488.99	274.34
489.35	275.36
489.72	276.47
490.08	277.70
490.44	278.91
490.81	280.24
491.17	281.59
491.54	283.09
491.90	284.58
492.26	286.22
492.63	287.97
492.99	289.74
493.36	291.63
493.72	293.67
494.08	295.76
494.45	297.98
494.81	300.35
495.17	302.76
495.54	305.31
495.90	307.96
496.26	310.76
496.63	313.70
496.99	316.81
497.35	320.07
497.72	323.42
498.08	326.97
498.44	330.61
498.80	334.54
499.17	338.58
499.53	342.77
499.89	347.13
500.26	351.67
500.62	356.34
500.98	361.33
501.34	366.40
501.71	371.80
502.07	377.29
502.43	382.93
502.79	388.78
503.16	394.87
503.52	401.16
503.88	407.59
504.24	414.31
504.60	421.23
504.97	428.36
505.33	435.76
505.69	443.46
506.05	451.31
506.41	459.20
506.78	467.38
507.14	475.85
507.50	484.58
507.86	493.60
508.22	502.84
508.59	512.09
508.95	521.64
509.31	531.47
509.67	541.63
510.03	551.87
510.39	562.40
510.75	573.19
511.12	584.11
511.48	595.40
511.84	606.82
512.20	618.32
512.56	630.30
512.92	642.48
513.28	654.82
513.64	667.26
514.00	680.02
514.37	692.96
514.73	706.01
515.09	719.09
515.45	732.32
515.81	745.84
516.17	759.78
516.53	773.93
516.89	788.04
517.25	802.10
517.61	816.53
517.97	831.08
518.33	845.50
518.69	860.29
519.05	875.26
519.41	890.40
519.77	905.89
520.13	921.32
520.49	936.60
520.85	952.02
521.21	967.76
521.57	983.91
521.93	999.52
522.29	1015.88
522.65	1032.07
523.01	1048.21
523.37	1064.21
523.73	1080.30
524.09	1096.33
524.45	1112.55
524.81	1129.19
525.17	1145.92
525.53	1162.77
525.89	1179.61
526.25	1196.40
526.61	1212.79
526.97	1229.46
527.33	1245.92
527.68	1262.50
528.04	1278.95
528.40	1295.50
528.76	1312.39
529.12	1328.91
529.48	1345.75
529.84	1361.65
530.20	1378.19
530.56	1395.22
530.91	1412.55
531.27	1429.22
531.63	1445.55
531.99	1461.97
532.35	1477.73
532.71	1493.69
533.07	1509.70
533.42	1525.53
533.78	1541.37
534.14	1557.49
534.50	1572.82
534.86	1588.62
535.21	1603.64
535.57	1619.47
535.93	1634.83
536.29	1649.48
536.65	1664.42
537.00	1679.11
537.36	1694.25
537.72	1708.68
538.08	1722.94
538.44	1736.66
538.79	1750.48
539.15	1764.15
539.51	1777.86
539.87	1792.15
540.22	1805.77
540.58	1819.47
540.94	1832.67
541.29	1845.43
541.65	1858.18
542.01	1871.25
542.37	1883.37
542.72	1895.73
543.08	1907.35
543.44	1919.69
543.79	1930.94
544.15	1941.73
544.51	1953.27
544.87	1964.17
545.22	1974.91
545.58	1985.13
545.94	1994.79
546.29	2004.64
546.65	2014.58
547.01	2023.75
547.36	2032.40
547.72	2040.71
548.07	2048.50
548.43	2056.63
548.79	2064.69
549.14	2071.94
549.50	2079.16
549.86	2086.92
550.21	2094.24
550.57	2101.35
550.92	2107.84
551.28	2114.93
551.64	2122.01
551.99	2128.46
552.35	2134.62
552.70	2140.69
553.06	2146.61
553.41	2153.05
553.77	2158.92
554.13	2164.85
554.48	2171.11
554.84	2176.68
555.19	2182.04
555.55	2187.23
555.90	2191.67
556.26	2196.51
556.61	2201.42
556.97	2205.78
557.32	2209.88
557.68	2213.96
558.03	2218.36
558.39	2222.17
558.74	2226.76
559.10	2230.67
559.45	2234.42
559.81	2238.69
560.16	2242.72
560.52	2246.01
560.87	2249.27
561.23	2251.98
561.58	2254.93
561.94	2257.33
562.29	2259.51
562.64	2262.11
563.00	2264.67
563.35	2268.24
563.71	2271.44
564.06	2274.59
564.42	2277.40
564.77	2279.96
565.12	2282.33
565.48	2284.25
565.83	2285.95
566.19	2287.28
566.54	2288.20
566.89	2289.38
567.25	2290.14
567.60	2291.40
567.96	2293.15
568.31	2294.09
568.66	2295.30
569.02	2295.85
569.37	2296.21
569.72	2297.34
570.08	2297.48
570.43	2297.78
570.78	2297.33
571.14	2295.84
571.49	2294.62
571.84	2294.33
572.20	2293.27
572.55	2292.15
572.90	2290.60
573.26	2289.52
573.61	2287.76
573.96	2286.18
574.31	2283.42
574.67	2280.45
575.02	2276.85
575.37	2273.45
575.72	2269.64
576.08	2266.28
576.43	2263.12
576.78	2259.65
577.13	2256.39
577.49	2253.50
577.84	2249.90
578.19	2246.13
578.54	2242.56
578.90	2238.34
579.25	2232.85
579.60	2227.87
579.95	2223.04
580.30	2218.05
580.66	2212.85
581.01	2208.07
581.36	2203.20
581.71	2198.93
582.06	2194.49
582.42	2190.11
582.77	2184.93
583.12	2180.51
583.47	2175.84
583.82	2170.81
584.17	2165.51
584.53	2160.05
584.88	2154.39
585.23	2148.70
585.58	2143.26
585.93	2137.95
586.28	2133.18
586.63	2128.10
586.98	2123.17
587.34	2118.48
587.69	2113.69
588.04	2108.36
588.39	2102.69
588.74	2096.20
589.09	2090.21
589.44	2083.29
589.79	2077.21
590.14	2071.68
590.49	2065.20
590.84	2058.90
591.19	2052.84
591.54	2046.39
591.89	2039.14
592.25	2032.40
592.60	2025.18
592.95	2017.55
593.30	2010.20
593.65	2002.74
594.00	1995.89
594.35	1988.64
594.70	1980.53
595.05	1973.39
595.40	1966.22
595.75	1958.79
596.10	1952.74
596.45	1945.89
596.80	1939.90
597.15	1933.31
597.50	1926.16
597.85	1919.63
598.19	1913.09
598.54	1906.00
598.89	1899.40
599.24	1893.63
599.59	1886.92
599.94	1880.77
600.29	1874.58
600.64	1868.06
600.99	1860.63
601.34	1853.72
601.69	1846.82
602.04	1840.11
602.39	1832.73
602.74	1825.86
603.08	1819.11
603.43	1812.24
603.78	1804.84
604.13	1797.65
604.48	1790.31
604.83	1783.43
605.18	1776.60
605.53	1768.63
605.87	1760.64
606.22	1753.51
606.57	1745.50
606.92	1738.22
607.27	1731.10
607.62	1724.25
607.96	1716.85
608.31	1710.21
608.66	1702.63
609.01	1695.13
609.36	1687.50
609.70	1679.56
610.05	1671.57
610.40	1663.91
610.75	1655.64
611.10	1648.12
611.44	1639.78
611.79	1632.00
612.14	1623.35
612.49	1614.16
612.83	1605.80
613.18	1597.68
613.53	1589.52
613.88	1580.97
614.22	1572.72
614.57	1563.98
614.92	1555.86
615.27	1548.37
615.61	1540.03
615.96	1532.09
616.31	1524.36
616.65	1517.04
617.00	1509.44
617.35	1501.85
617.70	1493.59
618.04	1485.09
618.39	1476.85
618.74	1469.17
619.08	1460.71
619.43	1453.16
619.78	1446.23
620.12	1438.86
620.47	1431.34
620.82	1423.12
621.16	1415.84
621.51	1408.37
621.85	1400.73
622.20	1392.26
622.55	1383.88
622.89	1376.10
623.24	1368.42
623.59	1360.97
623.93	1353.30
624.28	1346.06
624.62	1338.56
624.97	1331.21
625.32	1324.48
625.66	1317.44
626.01	1310.35
626.35	1302.92
626.70	1295.14
627.04	1287.39
627.39	1279.78
627.73	1272.42
628.08	1265.53
628.43	1258.10
628.77	1250.51
629.12	1242.98
629.46	1235.87
629.81	1228.48
630.15	1221.25
630.50	1213.80
630.84	1205.66
631.19	1197.87
631.53	1190.39
631.88	1182.82
632.22	1175.33
632.57	1168.03
632.91	1160.39
633.26	1152.95
633.60	1145.66
633.95	1138.58
634.29	1131.58
634.64	1124.89
634.98	1117.62
635.32	1110.47
635.67	1103.83
636.01	1097.27
636.36	1090.47
636.70	1083.87
637.05	1077.18
637.39	1070.63
637.73	1064.17
638.08	1058.32
638.42	1052.31
638.77	1045.82
639.11	1039.20
639.45	1032.73
639.80	1026.07
640.14	1019.81
640.49	1013.21
640.83	1006.88
641.17	1000.67
641.52	994.33
641.86	987.76
642.20	981.81
642.55	975.56
642.89	969.12
643.23	962.57
643.58	956.88
643.92	950.60
644.26	944.62
644.61	938.63
644.95	932.59
645.29	925.95
645.64	919.22
645.98	912.92
646.32	907.03
646.66	901.02
647.01	895.17
647.35	889.39
647.69	883.63
648.04	878.13
648.38	872.32
648.72	866.35
649.06	860.33
649.41	854.48
649.75	848.49
650.09	842.59
650.43	836.81
650.78	830.64
651.12	824.72
651.46	818.97
651.80	813.20
652.14	807.84
652.49	802.51
652.83	797.31
653.17	791.58
653.51	785.84
653.85	780.40
654.20	774.74
654.54	768.73
654.88	762.92
655.22	756.96
655.56	751.27
655.90	745.79
656.25	740.55
656.59	735.15
656.93	730.09
657.27	724.86
657.61	719.41
657.95	714.27
658.29	709.20
658.64	703.92
658.98	698.62
659.32	693.12
659.66	687.81
660.00	682.44
660.34	677.52
660.68	672.63
661.02	667.61
661.36	662.94
661.70	658.42
662.05	654.06
662.39	649.73
662.73	645.29
663.07	640.89
663.41	636.46
663.75	631.97
664.09	627.37
664.43	622.97
664.77	618.83
665.11	614.56
665.45	610.41
665.79	606.36
666.13	602.20
666.47	598.19
666.81	594.08
667.15	590.04
667.49	586.08
667.83	582.28
668.17	578.37
668.51	574.26
668.85	570.26
669.19	566.39
669.53	562.49
669.87	558.57
670.21	554.88
670.55	551.22
670.89	547.79
671.23	544.37
671.57	540.88
671.91	537.35
672.25	533.84
672.58	530.32
672.92	526.91
673.26	523.67
673.60	520.45
673.94	517.34
674.28	514.42
674.62	511.49
674.96	508.30
675.30	505.37
675.64	502.41
675.97	499.59
676.31	496.77
676.65	493.86
676.99	491.15
677.33	488.27
677.67	485.44
678.01	482.41
678.34	479.36
678.68	476.48
679.02	473.63
679.36	470.93
679.70	468.20
680.04	465.44
680.37	462.62
680.71	459.81
681.05	457.20
681.39	454.48
681.73	451.81
682.06	449.30
682.40	446.76
682.74	444.26
683.08	441.72
683.42	439.10
683.75	436.62
684.09	434.07
684.43	431.65
684.77	429.20
685.10	426.82
685.44	424.57
685.78	422.29
686.12	420.07
686.45	417.70
686.79	415.46
687.13	413.22
687.46	411.05
687.80	408.89
688.14	406.63
688.48	404.53
688.81	402.29
689.15	400.15
689.49	398.00
689.82	395.93
690.16	393.85
690.50	391.92
690.83	389.99
691.17	388.00
691.51	386.04
691.84	384.18
692.18	382.28
692.52	380.26
692.85	378.28
693.19	376.38
693.52	374.56
693.86	372.70
694.20	370.95
694.53	369.15
694.87	367.34
695.21	365.58
695.54	363.76
695.88	362.06
696.21	360.32
696.55	358.63
696.88	356.95
697.22	355.25
697.56	353.61
697.89	351.91
698.23	350.31
698.56	348.66
698.90	347.07
699.23	345.43
699.57	343.93
699.90	342.42
700.24	340.90
700.58	339.39
700.91	337.89
701.25	336.42
701.58	335.08
701.92	333.66
702.25	332.26
702.59	330.89
702.92	329.52
703.26	328.21
703.59	326.93
703.93	325.77
704.26	324.55
704.60	323.23
704.93	321.98
705.26	320.71
705.60	319.58
705.93	318.42
706.27	317.38
706.60	316.34
706.94	315.27
707.27	314.13
707.61	313.08
707.94	312.06
708.27	310.97
708.61	309.88
708.94	308.92
709.28	307.94
709.61	307.01
709.94	306.10
710.28	305.11
710.61	304.13
710.95	303.01
711.28	302.11
711.61	301.20
711.95	300.30
712.28	299.36
712.61	298.41
712.95	297.48
713.28	296.62
713.61	295.67
713.95	294.76
714.28	293.92
714.61	293.07
714.95	292.24
715.28	291.38
715.61	290.46
715.95	289.58
716.28	288.73
716.61	287.87
716.95	287.06
717.28	286.34
717.61	285.57
717.94	284.87
718.28	284.08
718.61	283.35
718.94	282.66
719.27	282.01
719.61	281.37
719.94	280.73
720.27	279.97
720.60	279.33
720.94	278.70
721.27	278.08
721.60	277.47
721.93	276.89
722.27	276.39
722.60	275.88
722.93	275.34
723.26	274.83
723.59	274.31
723.93	273.77
724.26	273.19
724.59	272.64
724.92	272.09
725.25	271.59
725.59	271.07
725.92	270.58
726.25	270.09
726.58	269.58
726.91	269.07
727.24	268.60
727.57	268.14
727.91	267.62
728.24	267.16
728.57	266.68
728.90	266.20
729.23	265.71
729.56	265.30
729.89	264.85
730.22	264.32
730.55	263.83
730.89	263.35
731.22	262.88
731.55	262.44
731.88	262.01
732.21	261.55
732.54	261.10
732.87	260.64
733.20	260.16
733.53	259.75
733.86	259.37
734.19	258.97
734.52	258.56
734.85	258.28
735.18	257.89
735.51	257.53
735.84	257.17
736.17	256.81
736.50	256.37
736.83	256.12
737.16	255.82
737.49	255.50
737.82	255.15
738.15	254.85
738.48	254.52
738.81	254.20
739.14	253.86
739.47	253.56
739.80	253.24
740.13	252.98
740.46	252.67
740.79	252.36
741.12	252.03
741.45	251.72
741.78	251.34
742.11	251.07
742.44	250.73
742.77	250.44
743.10	250.09
743.43	249.78
743.75	249.37
744.08	249.22
744.41	248.93
744.74	248.65
745.07	248.33
745.40	248.10
745.73	247.86
746.06	247.61
746.39	247.34
746.71	247.08
747.04	246.80
747.37	246.52
747.70	246.27
748.03	246.03
748.36	245.83
748.68	245.60
749.01	245.29
749.34	245.08
749.67	244.84
750.00	244.66
750.33	244.52
750.65	244.29
750.98	243.91
751.31	243.67
751.64	243.46
751.97	243.31
752.29	243.09
752.62	242.87
752.95	242.66
753.28	242.43
753.60	242.23
753.93	242.06
754.26	241.85
754.59	241.63
754.91	241.45
755.24	241.25
755.57	241.04
755.90	240.92
756.22	240.71
756.55	240.49
756.88	240.27
757.20	240.04
757.53	239.85
757.86	239.68
758.19	239.53
758.51	239.36
758.84	239.15
759.17	238.99
759.49	238.82
759.82	238.68
760.15	238.57
760.47	238.42
760.80	238.22
761.13	238.10
761.45	237.95
761.78	237.81
762.11	237.66
762.43	237.53
762.76	237.37
763.08	237.25
763.41	237.13
763.74	237.02
764.06	236.86
764.39	236.70
764.71	236.58
765.04	236.45
765.37	236.36
765.69	236.25
766.02	236.09
766.34	235.95
766.67	235.79
767.00	235.66
767.32	235.58
767.65	235.53
767.97	235.42
768.30	235.28
768.62	235.16
768.95	235.05
769.27	234.92
769.60	234.84
769.92	234.68
770.25	234.56
770.57	234.48
770.90	234.38
771.22	234.31
771.55	234.21
771.87	234.10
772.20	233.98
772.52	233.96
772.85	234.01
773.17	233.90
773.50	233.81
773.82	233.73
774.15	233.63
774.47	233.49
774.80	233.41
775.12	233.35
775.45	233.27
775.77	233.18
776.09	233.13
776.42	233.02
776.74	232.99
777.07	232.92
777.39	232.83
777.72	232.77
778.04	232.70
778.36	232.65
778.69	232.57
779.01	232.53
779.33	232.37
779.66	232.22
779.98	232.18
780.31	232.13
780.63	232.09
780.95	232.05
781.28	232.02
781.60	231.93
781.92	231.87
782.25	231.84
782.57	231.79
782.89	231.68
783.22	231.65
783.54	231.57
783.86	231.47
784.19	231.41
784.51	231.37
784.83	231.31
785.16	231.25
785.48	231.21
785.80	231.16
786.12	231.12
786.45	231.03
786.77	230.98
787.09	230.93
787.42	230.84
787.74	230.77
788.06	230.69
788.38	230.63
788.71	230.58
789.03	230.51
789.35	230.46
789.67	230.43
789.99	230.38
790.32	230.35
790.64	230.37
790.96	230.41
791.28	230.34
791.61	230.30
791.93	230.27
792.25	230.21
792.57	230.23
792.89	230.18
793.21	230.13
793.54	230.07
793.86	230.02
794.18	229.98
794.50	229.89
794.82	229.85
795.14	229.82
795.47	229.81
795.79	229.77
796.11	229.69
796.43	229.65
796.75	229.61
797.07	229.55
797.39	229.47
797.71	229.35
798.04	229.31
798.36	229.28
798.68	229.21
799.00	229.21
799.32	229.10
799.64	229.05
799.96	229.03
800.28	229.03
800.60	228.99
800.92	228.95
801.24	228.92
801.56	228.90
801.89	228.87
802.21	228.84
802.53	228.78
802.85	228.77
803.17	228.75
803.49	228.71
803.81	228.69
804.13	228.67
804.45	228.66
804.77	228.64
805.09	228.61
805.41	228.60
805.73	228.53
806.05	228.47
806.37	228.45
806.69	228.43
807.01	228.38
807.33	228.35
807.65	228.32
807.97	228.37
808.28	228.34
808.60	228.31
808.92	228.26
809.24	228.31
809.56	228.27
809.88	228.23
810.20	228.23
810.52	228.21
810.84	228.18
811.16	228.16
811.48	228.12
811.80	228.13
812.12	228.07
812.43	228.09
812.75	228.08
813.07	228.06
813.39	228.05
813.71	228.01
814.03	228.01
814.35	228.02
814.67	227.94
814.98	227.90
815.30	227.91
815.62	227.88
815.94	227.84
816.26	227.89
816.58	227.86
816.89	227.84
817.21	227.84
817.53	227.83
817.85	227.82
818.17	227.84
818.48	227.78
818.80	227.80
819.12	227.77
819.44	227.75
819.76	227.75
820.07	227.73
820.39	227.72
820.71	227.73
821.03	227.72
821.34	227.70
821.66	227.70
821.98	227.70
822.30	227.67
822.61	227.69
822.93	227.62
823.25	227.61
823.57	227.56
823.88	227.59
824.20	227.58
824.52	227.57
824.83	227.53
825.15	227.54
825.47	227.52
825.79	227.52
826.10	227.51
826.42	227.48
826.74	227.48
827.05	227.46
827.37	227.44
827.69	227.39
828.00	227.38
828.32	227.37
828.64	227.32
828.95	227.38
829.27	227.32
829.58	227.32
829.90	227.34
830.22	227.36
830.53	227.29
830.85	227.26
831.17	227.24
831.48	227.24
831.80	227.20
832.11	227.21
832.43	227.19
832.75	227.16
833.06	227.16
833.38	227.12
833.69	227.12
834.01	227.13
834.32	227.10
834.64	227.09
834.96	227.08
835.27	227.06
835.59	227.02
835.90	226.99
836.22	226.97
836.53	226.94
836.85	226.90
837.16	226.97
837.48	226.96
837.79	226.98
838.11	226.97
838.42	226.96
838.74	226.95
839.05	226.91
839.37	226.93
839.68	226.90
840.00	226.89
840.31	226.93
840.63	226.87
840.94	226.89
841.26	226.86
841.57	226.82
841.88	226.82
842.20	226.79
842.51	226.77
842.83	226.76
843.14	226.83
843.46	226.86
843.77	226.83
844.08	226.80
844.40	226.77
844.71	226.75
845.03	226.76
845.34	226.74
845.65	226.75
845.97	226.75
846.28	226.76
846.60	226.76
846.91	226.71
847.22	226.68
847.54	226.69
847.85	226.71
848.16	226.72
848.48	226.72
848.79	226.74
849.10	226.77
849.42	226.77
849.73	226.67
850.04	226.63
850.36	226.60
850.67	226.63
850.98	226.62
851.30	226.62
851.61	226.61
851.92	226.62
852.23	226.65
852.55	226.64
852.86	226.63
853.17	226.66
853.49	226.68
853.80	226.76
854.11	226.77
854.42	226.79
854.74	226.79
855.05	226.80
855.36	226.76
855.67	226.74
855.99	226.71
856.30	226.82
856.61	226.84
856.92	226.84
857.23	226.85
857.55	226.81
857.86	226.81
858.17	226.81
858.48	226.79
858.79	226.78
859.11	226.78
859.42	226.76
859.73	226.73
860.04	226.70
860.35	226.68
860.66	226.63
860.98	226.61
861.29	226.61
861.60	226.60
861.91	226.63
862.22	226.65
862.53	226.66
862.84	226.56
863.16	226.57
863.47	226.53
863.78	226.50
864.09	226.53
864.40	226.55
864.71	226.55
865.02	226.55
865.33	226.49
865.64	226.47
865.95	226.47
866.27	226.55
866.58	226.53
866.89	226.50
867.20	226.51
867.51	226.51
867.82	226.51
868.13	226.55
868.44	226.53
868.75	226.49
869.06	226.49
869.37	226.50
869.68	226.44
869.99	226.49
870.30	226.50
870.61	226.45
870.92	226.42
871.23	226.43
871.54	226.44
871.85	226.46
872.16	226.49
872.47	226.50
872.78	226.40
873.09	226.41
873.40	226.42
873.71	226.43
874.02	226.41
874.33	226.38
874.64	226.31
874.95	226.31
875.26	226.31
875.56	226.32
875.87	226.34
876.18	226.37
876.49	226.43
876.80	226.42
877.11	226.45
877.42	226.46
877.73	226.41
878.04	226.40
878.35	226.44
878.66	226.41
878.96	226.41
879.27	226.38
879.58	226.38
879.89	226.33
880.20	226.37
880.51	226.38
880.82	226.41
881.12	226.45
881.43	226.39
881.74	226.39
882.05	226.36
882.36	226.30
882.67	226.30
882.97	226.22
883.28	226.20
883.59	226.19
883.90	226.22
884.21	226.25
884.51	226.24
884.82	226.20
885.13	226.23
885.44	226.20
885.74	226.22
886.05	226.21
886.36	226.22
886.67	226.19
886.98	226.25
887.28	226.24
887.59	226.22
887.90	226.26
888.20	226.29
888.51	226.29
888.82	226.29
889.13	226.30
889.43	226.39
889.74	226.38
890.05	226.38
890.35	226.34
890.66	226.34
890.97	226.31
891.28	226.31
891.58	226.30
891.89	226.31
892.20	226.34
892.50	226.35
892.81	226.35
893.12	226.34
893.42	226.26
893.73	226.27
894.04	226.28
894.34	226.28
894.65	226.27
894.95	226.27
895.26	226.28
895.57	226.32
895.87	226.20
896.18	226.23
896.48	226.22
896.79	226.22
897.10	226.23
897.40	226.24
897.71	226.23
898.01	226.20
898.32	226.20
898.63	226.16
898.93	226.13
899.24	226.13
899.54	226.11
899.85	226.14
900.15	226.13
900.46	226.13
900.76	226.13
901.07	226.12
901.38	226.11
901.68	226.11
901.99	226.04
902.29	226.04
902.60	226.03
902.90	226.03
903.21	226.01
903.51	226.00
903.82	226.02
904.12	226.04
904.43	226.05
904.73	226.05
905.03	226.06
905.34	226.17
905.64	226.15
905.95	226.17
906.25	226.15
906.56	226.12
906.86	226.09
907.17	226.09
907.47	226.08
907.77	226.06
908.08	226.08
908.38	226.08
908.69	226.16
908.99	226.16
909.30	226.16
909.60	226.16
909.90	226.13
910.21	226.08
910.51	226.06
910.81	226.07
911.12	226.11
911.42	226.11
911.73	225.99
912.03	226.00
912.33	226.01
912.64	226.00
912.94	226.02
913.24	226.04
913.55	226.03
913.85	226.03
914.15	226.05
914.46	226.02
914.76	226.00
915.06	225.92
915.37	225.92
915.67	225.92
915.97	225.97
916.27	226.00
916.58	226.05
916.88	226.06
917.18	226.06
917.49	226.10
917.79	226.11
918.09	226.14
918.39	226.16
918.70	226.14
919.00	226.16
919.30	226.20
919.60	226.22
919.91	226.21
920.21	226.21
920.51	226.17
920.81	226.20
921.12	226.23
921.42	226.26
921.72	226.25
922.02	226.26
922.32	226.25
922.63	226.26
922.93	226.27
923.23	226.26
923.53	226.25
923.83	226.16
924.13	226.17
924.44	226.16
924.74	226.16
925.04	226.19
925.34	226.20
925.64	226.14
925.94	226.14
926.24	226.19
926.55	226.19
926.85	226.21
927.15	226.23
927.45	226.21
927.75	226.24
928.05	226.23
928.35	226.21
928.65	226.24
928.95	226.23
929.26	226.21
929.56	226.24
929.86	226.24
930.16	226.25
930.46	226.24
930.76	226.26
931.06	226.23
931.36	226.20
931.66	226.20
931.96	226.21
932.26	226.19
932.56	226.16
932.86	226.18
933.16	226.22
933.46	226.19
933.76	226.22
934.06	226.21
934.36	226.25
934.66	226.25
934.96	226.23
935.26	226.20
935.56	226.22
935.86	226.19
936.16	226.22
936.46	226.20
936.76	226.21
937.06	226.19
937.36	226.19
937.66	226.19
937.96	226.20
938.26	226.23
938.56	226.21
938.86	226.19
939.16	226.20
939.46	226.18
939.76	226.16
940.06	226.13
940.35	226.09
940.65	226.04
940.95	226.02
941.25	225.99
941.55	226.02
941.85	226.01
942.15	226.03
942.45	226.01
942.75	226.01
943.04	226.03
943.34	226.05
943.64	226.06
943.94	226.04
944.24	226.01
944.54	225.98
944.84	226.01
945.13	226.00
945.43	225.99
945.73	225.98
946.03	225.98
946.33	225.99
946.62	226.00
946.92	225.99
947.22	226.04
947.52	226.05
947.82	226.03
948.11	226.03
948.41	226.01
948.71	225.97
949.01	226.00
949.31	225.99
949.60	225.99
949.90	225.97
950.20	225.98
950.50	225.96
950.79	225.99
951.09	225.97
951.39	225.99
951.69	225.97
951.98	225.99
952.28	226.02
952.58	226.00
952.87	225.96
953.17	225.99
953.47	225.95
953.76	225.95
954.06	225.93
954.36	225.88
954.66	225.89
954.95	225.93
955.25	225.91
955.55	225.91
955.84	225.88
956.14	225.90
956.44	225.90
956.73	225.90
957.03	225.88
957.32	225.85
957.62	225.84
957.92	225.85
958.21	225.85
958.51	225.90
958.81	225.93
959.10	225.99
959.40	226.01
959.69	226.04
959.99	226.06
960.29	226.05
960.58	226.06
960.88	226.06
961.17	226.03
961.47	226.06
961.76	226.01
962.06	226.05
962.36	226.03
962.65	226.05
962.95	226.05
963.24	226.03
963.54	226.05
963.83	226.02
964.13	226.02
964.42	226.02
964.72	225.96
965.01	225.95
965.31	225.94
965.60	225.89
965.90	225.93
966.19	225.88
966.49	225.91
966.78	225.91
967.08	225.91
967.37	225.92
967.67	225.88
967.96	225.92
968.26	225.90
968.55	225.92
968.85	225.92
969.14	225.93
969.43	225.94
969.73	225.93
970.02	225.94
970.32	225.92
970.61	225.86
970.91	225.84
971.20	225.81
971.49	225.80
971.79	225.80
972.08	225.74
972.38	225.74
972.67	225.73
972.96	225.76
973.26	225.75
973.55	225.76
973.85	225.76
974.14	225.75
974.43	225.73
974.73	225.69
975.02	225.67
975.31	225.66
975.61	225.64
975.90	225.65
976.19	225.66
976.49	225.64
976.78	225.65
977.07	225.63
977.37	225.65
977.66	225.64
977.95	225.62
978.24	225.63
978.54	225.69
978.83	225.69
979.12	225.67
979.42	225.66
979.71	225.62
980.00	225.60
980.29	225.59
980.59	225.61
980.88	225.62
981.17	225.60
981.46	225.62
981.76	225.61
982.05	225.62
982.34	225.63
982.63	225.63
982.93	225.65
983.22	225.67
983.51	225.68
983.80	225.70
984.09	225.73
984.39	225.71
984.68	225.67
984.97	225.66
985.26	225.65
985.55	225.67
985.85	225.66
986.14	225.71
986.43	225.73
986.72	225.72
987.01	225.69
987.30	225.71
987.59	225.69
987.89	225.70
988.18	225.69
988.47	225.65
988.76	225.69
989.05	225.64
989.34	225.64
989.63	225.66
989.92	225.63
990.22	225.59
990.51	225.59
990.80	225.58
991.09	225.58
991.38	225.59
991.67	225.57
991.96	225.58
992.25	225.56
992.54	225.53
992.83	225.55
993.12	225.61
993.41	225.59
993.70	225.66
993.99	225.71
994.28	225.73
994.58	225.80
994.87	225.79
995.16	225.82
995.45	225.85
995.74	225.81
996.03	225.82
996.32	225.86
996.61	225.88
996.90	225.92
997.19	225.90
997.48	225.92
997.77	225.93
998.06	225.96
998.34	225.95
998.63	225.96
998.92	225.96
999.21	225.95
999.50	225.98
999.79	225.92
1000.08	225.92
1000.37	225.91
1000.66	225.90
1000.95	225.91
1001.24	225.92
1001.53	225.94
1001.82	225.95
1002.11	225.95
1002.40	225.96
1002.68	225.99
1002.97	226.04
1003.26	226.05
1003.55	226.00
1003.84	226.03
1004.13	226.05
1004.42	226.03
1004.71	226.05
1004.99	226.00
1005.28	226.02
1005.57	226.00
1005.86	225.99
1006.15	225.96
1006.44	225.93
1006.72	225.92
1007.01	225.91
1007.30	225.89
1007.59	225.86
1007.88	225.82
1008.17	225.81
1008.45	225.76
1008.74	225.72
1009.03	225.68
1009.32	225.66
1009.60	225.69
1009.89	225.65
1010.18	225.59
1010.47	225.60
1010.76	225.58
1011.04	225.59
1011.33	225.56
1011.62	225.58
1011.91	225.63
1012.19	225.64
1012.48	225.63
1012.77	225.60
1013.05	225.65
1013.34	225.68
1013.63	225.66
1013.92	225.68
1014.20	225.70
1014.49	225.71
1014.78	225.72
1015.06	225.68
1015.35	225.70
1015.64	225.71
1015.92	225.71
1016.21	225.74
1016.50	225.71
1016.78	225.70
1017.07	225.70
1017.36	225.65
1017.64	225.63
1017.93	225.56
1018.22	225.53
1018.50	225.54
1018.79	225.55
1019.08	225.45
1019.36	225.44
1019.65	225.45
1019.93	225.50
1020.22	225.53
1020.51	225.58
1020.79	225.53
1021.08	225.19
1021.36	225.50
1021.65	225.17
1021.94	224.93
1022.22	225.89
1022.51	225.73
1022.79	226.31
1023.08	226.43
1023.36	226.56
1023.65	224.88
>>>>>End Processed Spectral Data<<<<<
