SpectraSuite Data File
++++++++++++++++++++++++++++++++++++
Date: Fri Feb 01 16:44:33 EST 2013
User: group
Dark Spectrum Present: No
Reference Spectrum Present: No
Number of Sampled Component Spectra: 1
Spectrometers: USB2E7196
Integration Time (usec): 35000 (USB2E7196)
Spectra Averaged: 100 (USB2E7196)
Boxcar Smoothing: 10 (USB2E7196)
Correct for Electrical Dark: No (USB2E7196)
Strobe/Lamp Enabled: No (USB2E7196)
Correct for Detector Non-linearity: No (USB2E7196)
Correct for Stray Light: No (USB2E7196)
Number of Pixels in Processed Spectrum: 2048
>>>>>Begin Processed Spectral Data<<<<<
339.09	0.00
339.48	213.84
339.86	215.48
340.24	216.48
340.63	217.81
341.01	220.86
341.39	220.20
341.78	222.14
342.16	222.84
342.54	223.34
342.93	211.99
343.31	222.70
343.69	223.22
344.07	223.67
344.46	224.08
344.84	224.47
345.22	224.68
345.60	224.96
345.99	225.13
346.37	225.26
346.75	225.34
347.13	225.42
347.52	225.47
347.90	225.52
348.28	225.55
348.66	225.63
349.05	225.59
349.43	225.65
349.81	225.71
350.19	225.75
350.57	225.78
350.96	225.81
351.34	225.87
351.72	225.95
352.10	226.01
352.48	226.09
352.87	226.14
353.25	226.18
353.63	226.22
354.01	226.29
354.39	226.35
354.77	226.46
355.15	226.56
355.54	226.58
355.92	226.63
356.30	226.70
356.68	226.79
357.06	226.86
357.44	226.88
357.82	226.91
358.20	226.98
358.58	227.06
358.97	227.13
359.35	227.22
359.73	227.28
360.11	227.35
360.49	227.38
360.87	227.41
361.25	227.48
361.63	227.55
362.01	227.57
362.39	227.61
362.77	227.64
363.15	227.65
363.53	227.68
363.91	227.72
364.29	227.73
364.67	227.64
365.05	227.67
365.43	227.70
365.81	227.73
366.19	227.78
366.57	227.81
366.95	227.83
367.33	227.80
367.71	227.80
368.09	227.80
368.47	227.82
368.85	227.80
369.23	227.81
369.61	227.74
369.99	227.77
370.37	227.75
370.75	227.78
371.13	227.72
371.51	227.69
371.89	227.63
372.27	227.61
372.65	227.58
373.03	227.52
373.41	227.47
373.78	227.41
374.16	227.33
374.54	227.23
374.92	227.16
375.30	227.14
375.68	227.01
376.06	226.97
376.44	226.89
376.82	226.86
377.19	226.75
377.57	226.68
377.95	226.56
378.33	226.48
378.71	226.35
379.09	226.30
379.47	226.25
379.84	226.19
380.22	226.11
380.60	226.06
380.98	226.01
381.36	225.95
381.73	225.89
382.11	225.83
382.49	225.78
382.87	225.74
383.25	225.63
383.62	225.71
384.00	225.61
384.38	225.57
384.76	225.52
385.13	225.52
385.51	225.48
385.89	225.43
386.27	225.40
386.64	225.37
387.02	225.31
387.40	225.23
387.78	225.21
388.15	225.17
388.53	225.09
388.91	225.05
389.29	225.03
389.66	225.02
390.04	224.98
390.42	224.96
390.79	224.91
391.17	224.92
391.55	224.79
391.92	224.79
392.30	224.81
392.68	224.78
393.05	224.80
393.43	224.80
393.81	224.83
394.18	224.78
394.56	224.81
394.94	224.84
395.31	224.86
395.69	224.90
396.06	224.92
396.44	224.99
396.82	225.02
397.19	225.07
397.57	225.08
397.95	225.14
398.32	225.17
398.70	225.24
399.07	225.34
399.45	225.37
399.82	225.46
400.20	225.49
400.58	225.53
400.95	225.53
401.33	225.61
401.70	225.73
402.08	225.85
402.45	225.91
402.83	226.04
403.20	226.15
403.58	226.20
403.95	226.31
404.33	226.42
404.71	226.52
405.08	226.69
405.46	226.82
405.83	226.95
406.21	227.08
406.58	227.20
406.96	227.34
407.33	227.53
407.70	227.69
408.08	227.96
408.45	228.18
408.83	228.43
409.20	228.65
409.58	228.81
409.95	229.07
410.33	229.36
410.70	229.58
411.08	229.88
411.45	230.19
411.82	230.50
412.20	230.84
412.57	231.26
412.95	231.56
413.32	231.94
413.69	232.38
414.07	232.84
414.44	233.34
414.82	233.83
415.19	234.37
415.56	234.92
415.94	235.46
416.31	236.12
416.68	236.74
417.06	237.46
417.43	238.14
417.81	238.86
418.18	239.63
418.55	240.46
418.93	241.33
419.30	242.24
419.67	243.20
420.04	244.15
420.42	245.16
420.79	246.33
421.16	247.47
421.54	248.67
421.91	249.88
422.28	251.10
422.66	252.43
423.03	253.74
423.40	255.05
423.77	256.43
424.15	257.83
424.52	259.28
424.89	260.91
425.26	262.48
425.64	263.92
426.01	265.50
426.38	267.14
426.75	268.81
427.13	270.52
427.50	272.32
427.87	274.22
428.24	276.03
428.61	277.80
428.99	279.75
429.36	281.83
429.73	283.87
430.10	285.90
430.47	287.93
430.85	290.01
431.22	292.25
431.59	294.65
431.96	296.91
432.33	299.38
432.70	301.69
433.08	304.48
433.45	307.10
433.82	309.68
434.19	312.55
434.56	315.35
434.93	317.97
435.30	320.53
435.68	323.34
436.05	326.15
436.42	328.89
436.79	331.41
437.16	334.06
437.53	336.89
437.90	339.66
438.27	342.39
438.64	345.18
439.01	347.75
439.38	349.93
439.75	352.08
440.13	354.57
440.50	356.88
440.87	358.65
441.24	360.62
441.61	362.77
441.98	364.24
442.35	366.00
442.72	367.87
443.09	369.68
443.46	370.71
443.83	371.30
444.20	371.81
444.57	372.63
444.94	372.90
445.31	373.23
445.68	373.58
446.05	373.66
446.42	373.31
446.79	372.87
447.16	372.44
447.53	372.11
447.90	370.99
448.27	369.85
448.64	368.33
449.01	367.19
449.37	365.22
449.74	363.35
450.11	361.13
450.48	358.65
450.85	356.21
451.22	354.07
451.59	352.05
451.96	350.13
452.33	347.56
452.70	345.24
453.07	342.42
453.43	339.57
453.80	336.82
454.17	334.17
454.54	331.64
454.91	328.96
455.28	326.29
455.65	323.81
456.02	321.40
456.38	319.22
456.75	316.59
457.12	314.39
457.49	312.15
457.86	310.01
458.23	308.19
458.59	306.08
458.96	304.04
459.33	302.22
459.70	300.34
460.07	298.84
460.43	297.13
460.80	295.51
461.17	294.08
461.54	292.63
461.91	291.24
462.27	289.82
462.64	288.58
463.01	287.28
463.38	286.01
463.74	284.64
464.11	283.51
464.48	282.49
464.85	281.39
465.21	280.55
465.58	279.62
465.95	278.55
466.32	277.69
466.68	276.79
467.05	275.90
467.42	275.04
467.78	274.10
468.15	273.23
468.52	272.59
468.88	271.75
469.25	270.95
469.62	270.32
469.98	269.68
470.35	269.03
470.72	268.38
471.08	267.74
471.45	267.19
471.82	266.72
472.18	266.13
472.55	265.73
472.92	265.23
473.28	264.77
473.65	264.36
474.02	263.95
474.38	263.62
474.75	263.31
475.11	263.00
475.48	262.76
475.85	262.58
476.21	262.39
476.58	262.23
476.94	262.13
477.31	261.96
477.67	261.82
478.04	261.74
478.41	261.74
478.77	261.78
479.14	261.75
479.50	261.75
479.87	261.85
480.23	261.92
480.60	262.03
480.96	262.14
481.33	262.32
481.69	262.48
482.06	262.68
482.42	262.88
482.79	263.14
483.15	263.47
483.52	263.83
483.88	264.17
484.25	264.56
484.61	264.97
484.98	265.43
485.34	265.99
485.71	266.58
486.07	267.16
486.44	267.72
486.80	268.42
487.17	269.16
487.53	269.95
487.90	270.82
488.26	271.73
488.62	272.72
488.99	273.68
489.35	274.76
489.72	275.84
490.08	277.04
490.44	278.25
490.81	279.57
491.17	280.92
491.54	282.40
491.90	283.97
492.26	285.61
492.63	287.35
492.99	289.14
493.36	291.03
493.72	293.07
494.08	295.14
494.45	297.38
494.81	299.76
495.17	302.18
495.54	304.72
495.90	307.41
496.26	310.20
496.63	313.17
496.99	316.27
497.35	319.55
497.72	322.94
498.08	326.46
498.44	330.14
498.80	334.10
499.17	338.13
499.53	342.28
499.89	346.60
500.26	351.07
500.62	355.69
500.98	360.62
501.34	365.75
501.71	371.11
502.07	376.54
502.43	382.10
502.79	387.97
503.16	394.09
503.52	400.38
503.88	406.77
504.24	413.37
504.60	420.27
504.97	427.41
505.33	434.68
505.69	442.39
506.05	450.17
506.41	458.02
506.78	466.20
507.14	474.56
507.50	483.28
507.86	492.35
508.22	501.54
508.59	510.76
508.95	520.32
509.31	530.12
509.67	540.20
510.03	550.51
510.39	560.98
510.75	571.75
511.12	582.58
511.48	593.81
511.84	605.27
512.20	616.64
512.56	628.49
512.92	640.67
513.28	652.99
513.64	665.38
514.00	678.00
514.37	690.86
514.73	703.95
515.09	716.94
515.45	730.15
515.81	743.66
516.17	757.61
516.53	771.67
516.89	785.75
517.25	799.90
517.61	814.21
517.97	828.65
518.33	842.97
518.69	857.70
519.05	872.57
519.41	887.66
519.77	903.18
520.13	918.57
520.49	933.81
520.85	949.08
521.21	964.63
521.57	980.68
521.93	996.29
522.29	1012.43
522.65	1028.57
523.01	1044.62
523.37	1060.55
523.73	1076.53
524.09	1092.47
524.45	1108.57
524.81	1125.00
525.17	1141.56
525.53	1158.27
525.89	1174.95
526.25	1191.71
526.61	1207.98
526.97	1224.48
527.33	1240.75
527.68	1257.24
528.04	1273.58
528.40	1289.99
528.76	1306.94
529.12	1323.45
529.48	1340.19
529.84	1356.13
530.20	1372.57
530.56	1389.31
530.91	1406.55
531.27	1423.06
531.63	1439.33
531.99	1455.87
532.35	1471.65
532.71	1487.47
533.07	1503.46
533.42	1519.25
533.78	1535.05
534.14	1551.11
534.50	1566.36
534.86	1582.02
535.21	1597.03
535.57	1612.70
535.93	1627.95
536.29	1642.55
536.65	1657.42
537.00	1672.06
537.36	1687.19
537.72	1701.52
538.08	1715.87
538.44	1729.54
538.79	1743.41
539.15	1756.87
539.51	1770.31
539.87	1784.40
540.22	1797.85
540.58	1811.52
540.94	1824.67
541.29	1837.23
541.65	1849.81
542.01	1862.72
542.37	1874.97
542.72	1887.19
543.08	1899.07
543.44	1911.35
543.79	1922.58
544.15	1933.34
544.51	1944.59
544.87	1955.29
545.22	1966.07
545.58	1976.11
545.94	1985.66
546.29	1995.31
546.65	2005.16
547.01	2014.37
547.36	2023.08
547.72	2031.54
548.07	2039.39
548.43	2047.33
548.79	2055.28
549.14	2062.69
549.50	2069.92
549.86	2077.51
550.21	2084.64
550.57	2091.65
550.92	2098.34
551.28	2105.13
551.64	2112.22
551.99	2118.82
552.35	2125.06
552.70	2130.97
553.06	2137.07
553.41	2143.37
553.77	2149.30
554.13	2155.26
554.48	2161.24
554.84	2166.76
555.19	2171.90
555.55	2176.92
555.90	2181.26
556.26	2186.44
556.61	2191.09
556.97	2195.60
557.32	2199.71
557.68	2203.82
558.03	2207.95
558.39	2211.39
558.74	2216.07
559.10	2219.91
559.45	2223.59
559.81	2227.78
560.16	2231.69
560.52	2234.91
560.87	2238.32
561.23	2241.02
561.58	2243.99
561.94	2246.64
562.29	2248.93
562.64	2251.81
563.00	2254.32
563.35	2257.96
563.71	2260.94
564.06	2264.19
564.42	2267.06
564.77	2269.65
565.12	2272.15
565.48	2274.25
565.83	2276.50
566.19	2277.95
566.54	2278.84
566.89	2280.03
567.25	2280.80
567.60	2282.20
567.96	2283.88
568.31	2284.87
568.66	2286.05
569.02	2286.65
569.37	2287.11
569.72	2288.21
570.08	2288.45
570.43	2288.70
570.78	2288.45
571.14	2286.98
571.49	2285.80
571.84	2285.48
572.20	2284.53
572.55	2283.41
572.90	2281.81
573.26	2280.34
573.61	2278.61
573.96	2277.17
574.31	2274.25
574.67	2271.21
575.02	2267.54
575.37	2264.22
575.72	2260.57
576.08	2257.26
576.43	2253.95
576.78	2250.35
577.13	2246.97
577.49	2243.89
577.84	2240.48
578.19	2236.66
578.54	2233.19
578.90	2229.13
579.25	2223.70
579.60	2218.85
579.95	2213.98
580.30	2209.16
580.66	2203.99
581.01	2199.13
581.36	2194.06
581.71	2190.16
582.06	2185.97
582.42	2181.81
582.77	2176.75
583.12	2172.19
583.47	2167.80
583.82	2163.11
584.17	2157.94
584.53	2152.66
584.88	2147.11
585.23	2141.50
585.58	2136.02
585.93	2130.49
586.28	2125.65
586.63	2120.74
586.98	2115.58
587.34	2111.09
587.69	2106.18
588.04	2101.18
588.39	2095.70
588.74	2089.37
589.09	2083.13
589.44	2076.27
589.79	2070.21
590.14	2064.59
590.49	2058.10
590.84	2051.57
591.19	2045.45
591.54	2039.00
591.89	2031.81
592.25	2025.31
592.60	2018.26
592.95	2010.92
593.30	2003.79
593.65	1996.36
594.00	1989.39
594.35	1982.30
594.70	1974.27
595.05	1967.38
595.40	1960.00
595.75	1952.49
596.10	1946.48
596.45	1939.90
596.80	1934.01
597.15	1927.57
597.50	1920.69
597.85	1914.26
598.19	1907.77
598.54	1901.03
598.89	1894.67
599.24	1888.72
599.59	1882.13
599.94	1875.88
600.29	1869.70
600.64	1863.13
600.99	1855.77
601.34	1848.93
601.69	1842.01
602.04	1835.22
602.39	1827.91
602.74	1821.28
603.08	1814.65
603.43	1808.05
603.78	1800.73
604.13	1793.54
604.48	1786.35
604.83	1779.45
605.18	1772.67
605.53	1764.73
605.87	1756.67
606.22	1749.44
606.57	1741.69
606.92	1734.33
607.27	1727.16
607.62	1720.22
607.96	1713.19
608.31	1706.70
608.66	1699.25
609.01	1691.89
609.36	1684.46
609.70	1676.34
610.05	1668.40
610.40	1660.84
610.75	1652.46
611.10	1645.06
611.44	1636.63
611.79	1628.66
612.14	1620.10
612.49	1610.93
612.83	1602.60
613.18	1594.55
613.53	1586.53
613.88	1577.97
614.22	1569.69
614.57	1561.00
614.92	1553.04
615.27	1545.41
615.61	1537.09
615.96	1529.03
616.31	1521.32
616.65	1513.84
617.00	1506.41
617.35	1498.60
617.70	1490.40
618.04	1481.92
618.39	1473.65
618.74	1466.20
619.08	1457.92
619.43	1450.40
619.78	1443.58
620.12	1436.51
620.47	1428.99
620.82	1420.70
621.16	1413.24
621.51	1405.54
621.85	1398.11
622.20	1389.68
622.55	1381.35
622.89	1373.53
623.24	1365.93
623.59	1358.40
623.93	1350.99
624.28	1343.77
624.62	1336.45
624.97	1329.21
625.32	1322.52
625.66	1315.38
626.01	1308.20
626.35	1300.86
626.70	1293.00
627.04	1285.18
627.39	1277.38
627.73	1269.88
628.08	1263.00
628.43	1255.81
628.77	1248.56
629.12	1241.00
629.46	1233.73
629.81	1226.19
630.15	1218.99
630.50	1211.61
630.84	1203.56
631.19	1195.51
631.53	1187.96
631.88	1180.35
632.22	1172.73
632.57	1165.42
632.91	1157.89
633.26	1150.39
633.60	1142.92
633.95	1135.77
634.29	1128.72
634.64	1122.06
634.98	1114.82
635.32	1107.62
635.67	1100.98
636.01	1094.32
636.36	1087.57
636.70	1081.08
637.05	1074.60
637.39	1068.12
637.73	1061.69
638.08	1055.78
638.42	1049.90
638.77	1043.51
639.11	1037.00
639.45	1030.58
639.80	1023.97
640.14	1017.63
640.49	1011.17
640.83	1004.90
641.17	998.72
641.52	992.37
641.86	985.81
642.20	979.88
642.55	973.64
642.89	967.22
643.23	960.66
643.58	954.90
643.92	948.72
644.26	942.73
644.61	936.66
644.95	930.65
645.29	924.14
645.64	917.42
645.98	911.05
646.32	905.11
646.66	899.03
647.01	893.19
647.35	887.46
647.69	881.60
648.04	875.97
648.38	870.24
648.72	864.44
649.06	858.52
649.41	852.63
649.75	846.73
650.09	840.81
650.43	835.09
650.78	828.93
651.12	822.96
651.46	817.22
651.80	811.57
652.14	806.14
652.49	800.83
652.83	795.72
653.17	790.16
653.51	784.53
653.85	779.17
654.20	773.58
654.54	767.61
654.88	761.85
655.22	756.10
655.56	750.47
655.90	744.94
656.25	739.72
656.59	734.38
656.93	729.27
657.27	724.12
657.61	718.70
657.95	713.64
658.29	708.58
658.64	703.38
658.98	698.06
659.32	692.54
659.66	687.30
660.00	681.98
660.34	676.97
660.68	672.04
661.02	667.02
661.36	662.31
661.70	657.79
662.05	653.48
662.39	649.13
662.73	644.62
663.07	640.23
663.41	635.82
663.75	631.40
664.09	626.85
664.43	622.51
664.77	618.36
665.11	614.10
665.45	610.02
665.79	605.94
666.13	601.82
666.47	597.79
666.81	593.64
667.15	589.50
667.49	585.61
667.83	581.74
668.17	577.77
668.51	573.71
668.85	569.72
669.19	565.84
669.53	562.01
669.87	558.13
670.21	554.45
670.55	550.73
670.89	547.33
671.23	543.90
671.57	540.29
671.91	536.78
672.25	533.27
672.58	529.68
672.92	526.21
673.26	523.04
673.60	519.85
673.94	516.76
674.28	513.82
674.62	510.82
674.96	507.74
675.30	504.84
675.64	501.92
675.97	499.13
676.31	496.26
676.65	493.31
676.99	490.61
677.33	487.74
677.67	484.98
678.01	481.88
678.34	478.92
678.68	476.07
679.02	473.27
679.36	470.48
679.70	467.77
680.04	464.98
680.37	462.15
680.71	459.29
681.05	456.67
681.39	453.95
681.73	451.28
682.06	448.75
682.40	446.23
682.74	443.75
683.08	441.16
683.42	438.52
683.75	436.00
684.09	433.39
684.43	430.94
684.77	428.38
685.10	426.03
685.44	423.69
685.78	421.40
686.12	419.10
686.45	416.82
686.79	414.56
687.13	412.43
687.46	410.18
687.80	408.07
688.14	405.80
688.48	403.76
688.81	401.57
689.15	399.38
689.49	397.21
689.82	395.06
690.16	392.98
690.50	391.04
690.83	389.15
691.17	387.20
691.51	385.26
691.84	383.46
692.18	381.57
692.52	379.60
692.85	377.66
693.19	375.82
693.52	373.97
693.86	372.10
694.20	370.29
694.53	368.54
694.87	366.71
695.21	364.95
695.54	363.08
695.88	361.34
696.21	359.63
696.55	357.95
696.88	356.23
697.22	354.62
697.56	353.02
697.89	351.35
698.23	349.75
698.56	348.16
698.90	346.55
699.23	344.92
699.57	343.41
699.90	341.89
700.24	340.34
700.58	338.84
700.91	337.40
701.25	335.95
701.58	334.54
701.92	333.21
702.25	331.84
702.59	330.48
702.92	329.15
703.26	327.86
703.59	326.60
703.93	325.46
704.26	324.23
704.60	322.89
704.93	321.64
705.26	320.37
705.60	319.21
705.93	318.05
706.27	316.99
706.60	315.94
706.94	314.86
707.27	313.73
707.61	312.68
707.94	311.60
708.27	310.51
708.61	309.44
708.94	308.43
709.28	307.45
709.61	306.53
709.94	305.58
710.28	304.55
710.61	303.59
710.95	302.50
711.28	301.58
711.61	300.67
711.95	299.75
712.28	298.82
712.61	297.85
712.95	296.96
713.28	296.06
713.61	295.15
713.95	294.27
714.28	293.41
714.61	292.53
714.95	291.72
715.28	290.91
715.61	290.02
715.95	289.13
716.28	288.26
716.61	287.37
716.95	286.55
717.28	285.78
717.61	285.00
717.94	284.27
718.28	283.43
718.61	282.68
718.94	281.98
719.27	281.32
719.61	280.65
719.94	279.95
720.27	279.25
720.60	278.56
720.94	277.88
721.27	277.31
721.60	276.72
721.93	276.09
722.27	275.46
722.60	274.97
722.93	274.40
723.26	273.87
723.59	273.31
723.93	272.73
724.26	272.19
724.59	271.59
724.92	271.05
725.25	270.57
725.59	270.06
725.92	269.57
726.25	269.05
726.58	268.53
726.91	268.04
727.24	267.52
727.57	267.05
727.91	266.53
728.24	266.04
728.57	265.53
728.90	265.11
729.23	264.62
729.56	264.16
729.89	263.70
730.22	263.20
730.55	262.76
730.89	262.32
731.22	261.88
731.55	261.46
731.88	261.02
732.21	260.61
732.54	260.14
732.87	259.68
733.20	259.26
733.53	258.88
733.86	258.53
734.19	258.13
734.52	257.78
734.85	257.47
735.18	257.04
735.51	256.69
735.84	256.28
736.17	255.97
736.50	255.58
736.83	255.34
737.16	255.03
737.49	254.70
737.82	254.36
738.15	254.04
738.48	253.68
738.81	253.36
739.14	253.02
739.47	252.75
739.80	252.42
740.13	252.16
740.46	251.84
740.79	251.48
741.12	251.20
741.45	250.88
741.78	250.57
742.11	250.36
742.44	250.05
742.77	249.79
743.10	249.45
743.43	249.15
743.75	248.76
744.08	248.59
744.41	248.31
744.74	248.05
745.07	247.76
745.40	247.53
745.73	247.32
746.06	247.07
746.39	246.79
746.71	246.57
747.04	246.27
747.37	246.02
747.70	245.77
748.03	245.51
748.36	245.28
748.68	245.04
749.01	244.80
749.34	244.58
749.67	244.35
750.00	244.13
750.33	243.96
750.65	243.77
750.98	243.45
751.31	243.26
751.64	243.06
751.97	242.91
752.29	242.70
752.62	242.42
752.95	242.21
753.28	242.00
753.60	241.78
753.93	241.63
754.26	241.41
754.59	241.22
754.91	241.01
755.24	240.80
755.57	240.58
755.90	240.34
756.22	240.12
756.55	239.92
756.88	239.76
757.20	239.53
757.53	239.28
757.86	239.07
758.19	238.89
758.51	238.71
758.84	238.45
759.17	238.29
759.49	238.17
759.82	238.03
760.15	237.88
760.47	237.68
760.80	237.47
761.13	237.34
761.45	237.14
761.78	237.01
762.11	236.86
762.43	236.72
762.76	236.59
763.08	236.47
763.41	236.34
763.74	236.19
764.06	236.04
764.39	235.93
764.71	235.79
765.04	235.62
765.37	235.47
765.69	235.38
766.02	235.22
766.34	235.05
766.67	234.92
767.00	234.83
767.32	234.78
767.65	234.73
767.97	234.61
768.30	234.57
768.62	234.45
768.95	234.32
769.27	234.19
769.60	234.06
769.92	233.92
770.25	233.79
770.57	233.68
770.90	233.58
771.22	233.49
771.55	233.41
771.87	233.31
772.20	233.24
772.52	233.25
772.85	233.29
773.17	233.20
773.50	233.08
773.82	232.95
774.15	232.84
774.47	232.69
774.80	232.60
775.12	232.48
775.45	232.38
775.77	232.32
776.09	232.26
776.42	232.22
776.74	232.22
777.07	232.15
777.39	232.08
777.72	231.99
778.04	231.93
778.36	231.85
778.69	231.80
779.01	231.74
779.33	231.57
779.66	231.40
779.98	231.34
780.31	231.24
780.63	231.21
780.95	231.18
781.28	231.12
781.60	231.07
781.92	231.02
782.25	230.99
782.57	230.92
782.89	230.84
783.22	230.76
783.54	230.65
783.86	230.57
784.19	230.51
784.51	230.51
784.83	230.45
785.16	230.39
785.48	230.37
785.80	230.33
786.12	230.28
786.45	230.22
786.77	230.19
787.09	230.18
787.42	230.10
787.74	230.05
788.06	230.04
788.38	230.01
788.71	229.96
789.03	229.93
789.35	229.91
789.67	229.90
789.99	229.89
790.32	229.85
790.64	229.87
790.96	229.88
791.28	229.81
791.61	229.78
791.93	229.73
792.25	229.66
792.57	229.66
792.89	229.58
793.21	229.53
793.54	229.51
793.86	229.46
794.18	229.44
794.50	229.38
794.82	229.33
795.14	229.28
795.47	229.29
795.79	229.24
796.11	229.17
796.43	229.12
796.75	229.07
797.07	229.01
797.39	228.96
797.71	228.89
798.04	228.84
798.36	228.80
798.68	228.80
799.00	228.80
799.32	228.72
799.64	228.73
799.96	228.70
800.28	228.64
800.60	228.59
800.92	228.57
801.24	228.53
801.56	228.48
801.89	228.44
802.21	228.40
802.53	228.35
802.85	228.33
803.17	228.32
803.49	228.25
803.81	228.23
804.13	228.17
804.45	228.12
804.77	228.10
805.09	228.08
805.41	228.02
805.73	227.96
806.05	227.92
806.37	227.85
806.69	227.84
807.01	227.81
807.33	227.79
807.65	227.72
807.97	227.75
808.28	227.72
808.60	227.69
808.92	227.63
809.24	227.65
809.56	227.61
809.88	227.55
810.20	227.56
810.52	227.54
810.84	227.52
811.16	227.48
811.48	227.45
811.80	227.45
812.12	227.46
812.43	227.46
812.75	227.43
813.07	227.40
813.39	227.39
813.71	227.40
814.03	227.36
814.35	227.37
814.67	227.32
814.98	227.29
815.30	227.27
815.62	227.26
815.94	227.19
816.26	227.22
816.58	227.20
816.89	227.17
817.21	227.14
817.53	227.16
817.85	227.18
818.17	227.19
818.48	227.14
818.80	227.12
819.12	227.10
819.44	227.05
819.76	227.07
820.07	227.06
820.39	227.02
820.71	227.03
821.03	227.02
821.34	226.98
821.66	226.96
821.98	226.98
822.30	226.97
822.61	227.05
822.93	226.98
823.25	226.96
823.57	226.95
823.88	226.98
824.20	226.94
824.52	226.94
824.83	226.91
825.15	226.90
825.47	226.91
825.79	226.91
826.10	226.95
826.42	226.94
826.74	226.92
827.05	226.93
827.37	226.94
827.69	226.93
828.00	226.93
828.32	226.94
828.64	226.91
828.95	226.96
829.27	226.91
829.58	226.92
829.90	226.93
830.22	226.95
830.53	226.92
830.85	226.92
831.17	226.86
831.48	226.83
831.80	226.83
832.11	226.81
832.43	226.79
832.75	226.76
833.06	226.78
833.38	226.76
833.69	226.75
834.01	226.76
834.32	226.74
834.64	226.73
834.96	226.68
835.27	226.66
835.59	226.62
835.90	226.57
836.22	226.57
836.53	226.54
836.85	226.51
837.16	226.60
837.48	226.59
837.79	226.62
838.11	226.63
838.42	226.59
838.74	226.58
839.05	226.54
839.37	226.50
839.68	226.43
840.00	226.41
840.31	226.41
840.63	226.38
840.94	226.35
841.26	226.30
841.57	226.32
841.88	226.31
842.20	226.27
842.51	226.30
842.83	226.26
843.14	226.35
843.46	226.31
843.77	226.24
844.08	226.20
844.40	226.14
844.71	226.15
845.03	226.13
845.34	226.12
845.65	226.12
845.97	226.12
846.28	226.13
846.60	226.15
846.91	226.12
847.22	226.11
847.54	226.13
847.85	226.16
848.16	226.15
848.48	226.09
848.79	226.11
849.10	226.07
849.42	226.08
849.73	225.99
850.04	226.01
850.36	225.98
850.67	226.01
850.98	226.00
851.30	225.98
851.61	226.00
851.92	225.97
852.23	226.00
852.55	226.02
852.86	226.02
853.17	225.99
853.49	226.00
853.80	226.00
854.11	226.03
854.42	226.05
854.74	226.05
855.05	226.10
855.36	226.06
855.67	226.07
855.99	226.07
856.30	226.18
856.61	226.17
856.92	226.14
857.23	226.16
857.55	226.16
857.86	226.17
858.17	226.18
858.48	226.16
858.79	226.11
859.11	226.08
859.42	226.07
859.73	226.08
860.04	226.08
860.35	226.09
860.66	226.02
860.98	225.99
861.29	225.98
861.60	225.93
861.91	225.96
862.22	225.96
862.53	225.96
862.84	225.86
863.16	225.92
863.47	225.92
863.78	225.90
864.09	225.94
864.40	225.94
864.71	225.92
865.02	225.93
865.33	225.95
865.64	225.96
865.95	225.98
866.27	226.04
866.58	226.03
866.89	225.99
867.20	226.02
867.51	226.00
867.82	225.99
868.13	226.06
868.44	226.01
868.75	226.01
869.06	226.02
869.37	226.02
869.68	225.99
869.99	226.00
870.30	226.03
870.61	226.04
870.92	226.02
871.23	226.02
871.54	226.05
871.85	226.05
872.16	226.06
872.47	226.04
872.78	226.01
873.09	226.02
873.40	226.00
873.71	225.97
874.02	226.00
874.33	225.99
874.64	225.97
874.95	226.01
875.26	226.00
875.56	225.98
875.87	225.95
876.18	225.92
876.49	225.95
876.80	225.92
877.11	225.87
877.42	225.87
877.73	225.87
878.04	225.82
878.35	225.82
878.66	225.83
878.96	225.82
879.27	225.77
879.58	225.75
879.89	225.76
880.20	225.81
880.51	225.79
880.82	225.78
881.12	225.77
881.43	225.73
881.74	225.74
882.05	225.73
882.36	225.75
882.67	225.75
882.97	225.66
883.28	225.63
883.59	225.58
883.90	225.58
884.21	225.59
884.51	225.62
884.82	225.58
885.13	225.55
885.44	225.54
885.74	225.54
886.05	225.54
886.36	225.54
886.67	225.49
886.98	225.55
887.28	225.55
887.59	225.52
887.90	225.52
888.20	225.50
888.51	225.50
888.82	225.48
889.13	225.49
889.43	225.58
889.74	225.57
890.05	225.58
890.35	225.54
890.66	225.52
890.97	225.49
891.28	225.49
891.58	225.50
891.89	225.48
892.20	225.49
892.50	225.49
892.81	225.50
893.12	225.48
893.42	225.41
893.73	225.43
894.04	225.43
894.34	225.42
894.65	225.40
894.95	225.38
895.26	225.37
895.57	225.39
895.87	225.29
896.18	225.32
896.48	225.33
896.79	225.35
897.10	225.36
897.40	225.36
897.71	225.35
898.01	225.33
898.32	225.36
898.63	225.33
898.93	225.32
899.24	225.28
899.54	225.28
899.85	225.29
900.15	225.28
900.46	225.27
900.76	225.30
901.07	225.29
901.38	225.30
901.68	225.32
901.99	225.28
902.29	225.28
902.60	225.25
902.90	225.26
903.21	225.28
903.51	225.27
903.82	225.28
904.12	225.30
904.43	225.32
904.73	225.28
905.03	225.33
905.34	225.43
905.64	225.43
905.95	225.43
906.25	225.45
906.56	225.45
906.86	225.48
907.17	225.45
907.47	225.47
907.77	225.47
908.08	225.44
908.38	225.45
908.69	225.46
908.99	225.54
909.30	225.55
909.60	225.56
909.90	225.60
910.21	225.61
910.51	225.58
910.81	225.59
911.12	225.60
911.42	225.58
911.73	225.49
912.03	225.53
912.33	225.57
912.64	225.54
912.94	225.56
913.24	225.56
913.55	225.58
913.85	225.58
914.15	225.62
914.46	225.63
914.76	225.59
915.06	225.60
915.37	225.53
915.67	225.50
915.97	225.48
916.27	225.45
916.58	225.44
916.88	225.45
917.18	225.45
917.49	225.54
917.79	225.56
918.09	225.58
918.39	225.62
918.70	225.62
919.00	225.62
919.30	225.67
919.60	225.64
919.91	225.63
920.21	225.63
920.51	225.58
920.81	225.59
921.12	225.64
921.42	225.64
921.72	225.66
922.02	225.69
922.32	225.68
922.63	225.70
922.93	225.77
923.23	225.75
923.53	225.73
923.83	225.68
924.13	225.68
924.44	225.66
924.74	225.62
925.04	225.62
925.34	225.63
925.64	225.56
925.94	225.56
926.24	225.60
926.55	225.61
926.85	225.65
927.15	225.63
927.45	225.64
927.75	225.63
928.05	225.65
928.35	225.65
928.65	225.66
928.95	225.67
929.26	225.61
929.56	225.61
929.86	225.62
930.16	225.58
930.46	225.56
930.76	225.55
931.06	225.52
931.36	225.51
931.66	225.51
931.96	225.51
932.26	225.53
932.56	225.51
932.86	225.50
933.16	225.51
933.46	225.52
933.76	225.47
934.06	225.47
934.36	225.50
934.66	225.50
934.96	225.46
935.26	225.44
935.56	225.44
935.86	225.44
936.16	225.43
936.46	225.43
936.76	225.46
937.06	225.46
937.36	225.45
937.66	225.44
937.96	225.46
938.26	225.46
938.56	225.39
938.86	225.39
939.16	225.42
939.46	225.43
939.76	225.43
940.06	225.46
940.35	225.44
940.65	225.39
940.95	225.39
941.25	225.39
941.55	225.40
941.85	225.41
942.15	225.43
942.45	225.47
942.75	225.45
943.04	225.46
943.34	225.46
943.64	225.45
943.94	225.45
944.24	225.44
944.54	225.47
944.84	225.50
945.13	225.48
945.43	225.45
945.73	225.47
946.03	225.48
946.33	225.47
946.62	225.47
946.92	225.47
947.22	225.49
947.52	225.53
947.82	225.51
948.11	225.49
948.41	225.48
948.71	225.45
949.01	225.50
949.31	225.49
949.60	225.48
949.90	225.53
950.20	225.52
950.50	225.55
950.79	225.53
951.09	225.56
951.39	225.58
951.69	225.57
951.98	225.56
952.28	225.51
952.58	225.51
952.87	225.53
953.17	225.57
953.47	225.50
953.76	225.47
954.06	225.47
954.36	225.48
954.66	225.49
954.95	225.48
955.25	225.48
955.55	225.47
955.84	225.46
956.14	225.46
956.44	225.43
956.73	225.41
957.03	225.42
957.32	225.42
957.62	225.39
957.92	225.41
958.21	225.40
958.51	225.52
958.81	225.50
959.10	225.50
959.40	225.50
959.69	225.50
959.99	225.53
960.29	225.55
960.58	225.57
960.88	225.59
961.17	225.61
961.47	225.62
961.76	225.59
962.06	225.61
962.36	225.58
962.65	225.64
962.95	225.63
963.24	225.56
963.54	225.56
963.83	225.57
964.13	225.56
964.42	225.53
964.72	225.46
965.01	225.46
965.31	225.47
965.60	225.42
965.90	225.52
966.19	225.50
966.49	225.47
966.78	225.42
967.08	225.40
967.37	225.40
967.67	225.36
967.96	225.40
968.26	225.39
968.55	225.41
968.85	225.39
969.14	225.39
969.43	225.43
969.73	225.41
970.02	225.40
970.32	225.39
970.61	225.38
970.91	225.37
971.20	225.36
971.49	225.34
971.79	225.36
972.08	225.29
972.38	225.29
972.67	225.27
972.96	225.27
973.26	225.25
973.55	225.27
973.85	225.28
974.14	225.28
974.43	225.31
974.73	225.30
975.02	225.29
975.31	225.26
975.61	225.26
975.90	225.23
976.19	225.23
976.49	225.21
976.78	225.23
977.07	225.21
977.37	225.22
977.66	225.24
977.95	225.21
978.24	225.20
978.54	225.23
978.83	225.22
979.12	225.24
979.42	225.23
979.71	225.19
980.00	225.17
980.29	225.13
980.59	225.09
980.88	225.11
981.17	225.09
981.46	225.10
981.76	225.12
982.05	225.16
982.34	225.17
982.63	225.18
982.93	225.19
983.22	225.20
983.51	225.19
983.80	225.22
984.09	225.24
984.39	225.24
984.68	225.24
984.97	225.25
985.26	225.27
985.55	225.28
985.85	225.25
986.14	225.30
986.43	225.32
986.72	225.34
987.01	225.30
987.30	225.30
987.59	225.30
987.89	225.29
988.18	225.23
988.47	225.21
988.76	225.21
989.05	225.18
989.34	225.19
989.63	225.22
989.92	225.20
990.22	225.19
990.51	225.18
990.80	225.15
991.09	225.17
991.38	225.17
991.67	225.18
991.96	225.18
992.25	225.16
992.54	225.18
992.83	225.14
993.12	225.15
993.41	225.19
993.70	225.25
993.99	225.27
994.28	225.34
994.58	225.38
994.87	225.37
995.16	225.39
995.45	225.35
995.74	225.33
996.03	225.33
996.32	225.34
996.61	225.40
996.90	225.41
997.19	225.40
997.48	225.41
997.77	225.39
998.06	225.40
998.34	225.41
998.63	225.40
998.92	225.42
999.21	225.45
999.50	225.46
999.79	225.41
1000.08	225.41
1000.37	225.39
1000.66	225.38
1000.95	225.40
1001.24	225.42
1001.53	225.46
1001.82	225.47
1002.11	225.47
1002.40	225.48
1002.68	225.46
1002.97	225.52
1003.26	225.53
1003.55	225.51
1003.84	225.52
1004.13	225.55
1004.42	225.52
1004.71	225.54
1004.99	225.52
1005.28	225.51
1005.57	225.53
1005.86	225.53
1006.15	225.53
1006.44	225.50
1006.72	225.52
1007.01	225.52
1007.30	225.52
1007.59	225.53
1007.88	225.50
1008.17	225.50
1008.45	225.49
1008.74	225.49
1009.03	225.43
1009.32	225.42
1009.60	225.45
1009.89	225.43
1010.18	225.42
1010.47	225.42
1010.76	225.40
1011.04	225.40
1011.33	225.40
1011.62	225.35
1011.91	225.37
1012.19	225.32
1012.48	225.29
1012.77	225.28
1013.05	225.31
1013.34	225.32
1013.63	225.28
1013.92	225.31
1014.20	225.28
1014.49	225.29
1014.78	225.25
1015.06	225.23
1015.35	225.24
1015.64	225.23
1015.92	225.23
1016.21	225.23
1016.50	225.22
1016.78	225.20
1017.07	225.21
1017.36	225.19
1017.64	225.18
1017.93	225.15
1018.22	225.17
1018.50	225.19
1018.79	225.19
1019.08	225.15
1019.36	225.13
1019.65	225.12
1019.93	225.16
1020.22	225.18
1020.51	225.20
1020.79	225.19
1021.08	224.95
1021.36	224.87
1021.65	225.42
1021.94	225.54
1022.22	225.22
1022.51	224.86
1022.79	226.44
1023.08	225.04
1023.36	225.97
1023.65	224.82
>>>>>End Processed Spectral Data<<<<<
