SpectraSuite Data File
++++++++++++++++++++++++++++++++++++
Date: Fri Feb 01 16:16:03 EST 2013
User: group
Dark Spectrum Present: No
Reference Spectrum Present: No
Number of Sampled Component Spectra: 1
Spectrometers: USB2E7196
Integration Time (usec): 35000 (USB2E7196)
Spectra Averaged: 100 (USB2E7196)
Boxcar Smoothing: 10 (USB2E7196)
Correct for Electrical Dark: No (USB2E7196)
Strobe/Lamp Enabled: No (USB2E7196)
Correct for Detector Non-linearity: No (USB2E7196)
Correct for Stray Light: No (USB2E7196)
Number of Pixels in Processed Spectrum: 2048
>>>>>Begin Processed Spectral Data<<<<<
339.09	0.00
339.48	214.03
339.86	216.04
340.24	216.63
340.63	218.61
341.01	221.06
341.39	221.38
341.78	222.49
342.16	223.30
342.54	224.02
342.93	212.59
343.31	223.36
343.69	223.91
344.07	224.33
344.46	224.77
344.84	225.12
345.22	225.35
345.60	225.55
345.99	225.75
346.37	225.92
346.75	225.99
347.13	226.06
347.52	226.10
347.90	226.20
348.28	226.20
348.66	226.25
349.05	226.24
349.43	226.26
349.81	226.29
350.19	226.29
350.57	226.34
350.96	226.37
351.34	226.42
351.72	226.50
352.10	226.62
352.48	226.69
352.87	226.74
353.25	226.82
353.63	226.89
354.01	226.93
354.39	226.96
354.77	227.04
355.15	227.15
355.54	227.23
355.92	227.23
356.30	227.30
356.68	227.41
357.06	227.48
357.44	227.54
357.82	227.57
358.20	227.65
358.58	227.73
358.97	227.78
359.35	227.85
359.73	227.89
360.11	227.92
360.49	227.97
360.87	228.05
361.25	228.09
361.63	228.20
362.01	228.26
362.39	228.29
362.77	228.31
363.15	228.34
363.53	228.35
363.91	228.39
364.29	228.41
364.67	228.35
365.05	228.35
365.43	228.38
365.81	228.41
366.19	228.49
366.57	228.54
366.95	228.56
367.33	228.51
367.71	228.51
368.09	228.53
368.47	228.51
368.85	228.47
369.23	228.50
369.61	228.42
369.99	228.41
370.37	228.41
370.75	228.47
371.13	228.42
371.51	228.40
371.89	228.37
372.27	228.32
372.65	228.26
373.03	228.22
373.41	228.14
373.78	228.09
374.16	227.96
374.54	227.81
374.92	227.73
375.30	227.68
375.68	227.63
376.06	227.59
376.44	227.51
376.82	227.45
377.19	227.37
377.57	227.32
377.95	227.21
378.33	227.14
378.71	227.02
379.09	226.98
379.47	226.92
379.84	226.83
380.22	226.75
380.60	226.71
380.98	226.64
381.36	226.59
381.73	226.49
382.11	226.46
382.49	226.45
382.87	226.38
383.25	226.33
383.62	226.36
384.00	226.27
384.38	226.25
384.76	226.23
385.13	226.19
385.51	226.13
385.89	226.10
386.27	226.06
386.64	226.01
387.02	225.93
387.40	225.87
387.78	225.81
388.15	225.79
388.53	225.73
388.91	225.73
389.29	225.69
389.66	225.68
390.04	225.63
390.42	225.62
390.79	225.60
391.17	225.58
391.55	225.46
391.92	225.45
392.30	225.45
392.68	225.41
393.05	225.39
393.43	225.40
393.81	225.39
394.18	225.38
394.56	225.38
394.94	225.42
395.31	225.46
395.69	225.51
396.06	225.54
396.44	225.59
396.82	225.61
397.19	225.70
397.57	225.77
397.95	225.82
398.32	225.81
398.70	225.86
399.07	225.94
399.45	226.01
399.82	226.06
400.20	226.12
400.58	226.18
400.95	226.23
401.33	226.33
401.70	226.50
402.08	226.62
402.45	226.74
402.83	226.85
403.20	226.97
403.58	227.11
403.95	227.25
404.33	227.37
404.71	227.51
405.08	227.70
405.46	227.80
405.83	227.94
406.21	228.15
406.58	228.35
406.96	228.51
407.33	228.69
407.70	228.86
408.08	229.11
408.45	229.35
408.83	229.60
409.20	229.85
409.58	229.99
409.95	230.24
410.33	230.53
410.70	230.78
411.08	231.06
411.45	231.33
411.82	231.64
412.20	231.99
412.57	232.38
412.95	232.67
413.32	233.13
413.69	233.59
414.07	234.00
414.44	234.45
414.82	234.91
415.19	235.46
415.56	236.04
415.94	236.60
416.31	237.22
416.68	237.84
417.06	238.48
417.43	239.17
417.81	239.92
418.18	240.65
418.55	241.50
418.93	242.37
419.30	243.24
419.67	244.20
420.04	245.15
420.42	246.15
420.79	247.30
421.16	248.42
421.54	249.61
421.91	250.84
422.28	252.11
422.66	253.48
423.03	254.79
423.40	256.12
423.77	257.57
424.15	259.02
424.52	260.51
424.89	262.15
425.26	263.70
425.64	265.13
426.01	266.78
426.38	268.41
426.75	270.06
427.13	271.82
427.50	273.58
427.87	275.45
428.24	277.25
428.61	278.98
428.99	280.95
429.36	283.02
429.73	285.07
430.10	287.10
430.47	289.11
430.85	291.18
431.22	293.39
431.59	295.70
431.96	297.94
432.33	300.41
432.70	302.77
433.08	305.60
433.45	308.25
433.82	310.86
434.19	313.72
434.56	316.53
434.93	319.18
435.30	321.82
435.68	324.72
436.05	327.62
436.42	330.39
436.79	332.88
437.16	335.57
437.53	338.37
437.90	341.18
438.27	343.88
438.64	346.75
439.01	349.32
439.38	351.55
439.75	353.67
440.13	356.13
440.50	358.44
440.87	360.26
441.24	362.19
441.61	364.27
441.98	365.78
442.35	367.52
442.72	369.40
443.09	371.18
443.46	372.18
443.83	372.73
444.20	373.29
444.57	374.11
444.94	374.37
445.31	374.71
445.68	375.02
446.05	375.13
446.42	374.69
446.79	374.29
447.16	373.86
447.53	373.57
447.90	372.38
448.27	371.19
448.64	369.64
449.01	368.46
449.37	366.49
449.74	364.59
450.11	362.39
450.48	359.89
450.85	357.36
451.22	355.21
451.59	353.19
451.96	351.22
452.33	348.62
452.70	346.25
453.07	343.44
453.43	340.56
453.80	337.83
454.17	335.20
454.54	332.64
454.91	329.94
455.28	327.27
455.65	324.84
456.02	322.41
456.38	320.21
456.75	317.57
457.12	315.34
457.49	313.12
457.86	310.93
458.23	309.08
458.59	307.07
458.96	304.99
459.33	303.13
459.70	301.27
460.07	299.76
460.43	298.10
460.80	296.47
461.17	295.02
461.54	293.46
461.91	292.05
462.27	290.63
462.64	289.36
463.01	288.00
463.38	286.71
463.74	285.41
464.11	284.32
464.48	283.29
464.85	282.19
465.21	281.35
465.58	280.48
465.95	279.37
466.32	278.46
466.68	277.54
467.05	276.65
467.42	275.81
467.78	274.87
468.15	274.00
468.52	273.35
468.88	272.49
469.25	271.77
469.62	271.14
469.98	270.47
470.35	269.84
470.72	269.25
471.08	268.62
471.45	268.05
471.82	267.48
472.18	266.92
472.55	266.48
472.92	265.96
473.28	265.49
473.65	265.05
474.02	264.60
474.38	264.26
474.75	264.00
475.11	263.62
475.48	263.42
475.85	263.21
476.21	262.98
476.58	262.81
476.94	262.66
477.31	262.51
477.67	262.39
478.04	262.31
478.41	262.30
478.77	262.34
479.14	262.30
479.50	262.31
479.87	262.38
480.23	262.45
480.60	262.55
480.96	262.62
481.33	262.83
481.69	263.04
482.06	263.23
482.42	263.38
482.79	263.63
483.15	263.91
483.52	264.27
483.88	264.61
484.25	265.01
484.61	265.45
484.98	265.88
485.34	266.43
485.71	267.02
486.07	267.58
486.44	268.15
486.80	268.86
487.17	269.61
487.53	270.44
487.90	271.29
488.26	272.22
488.62	273.22
488.99	274.19
489.35	275.23
489.72	276.35
490.08	277.56
490.44	278.82
490.81	280.16
491.17	281.51
491.54	283.02
491.90	284.53
492.26	286.15
492.63	287.89
492.99	289.63
493.36	291.49
493.72	293.54
494.08	295.68
494.45	297.90
494.81	300.26
495.17	302.67
495.54	305.26
495.90	307.95
496.26	310.78
496.63	313.74
496.99	316.86
497.35	320.13
497.72	323.56
498.08	327.11
498.44	330.80
498.80	334.74
499.17	338.81
499.53	343.00
499.89	347.41
500.26	351.95
500.62	356.68
500.98	361.68
501.34	366.76
501.71	372.12
502.07	377.56
502.43	383.14
502.79	389.01
503.16	395.10
503.52	401.39
503.88	407.81
504.24	414.47
504.60	421.38
504.97	428.53
505.33	435.85
505.69	443.59
506.05	451.38
506.41	459.25
506.78	467.38
507.14	475.86
507.50	484.63
507.86	493.63
508.22	502.88
508.59	512.11
508.95	521.72
509.31	531.49
509.67	541.58
510.03	551.94
510.39	562.49
510.75	573.28
511.12	584.24
511.48	595.61
511.84	607.12
512.20	618.58
512.56	630.53
512.92	642.69
513.28	654.99
513.64	667.45
514.00	680.22
514.37	693.23
514.73	706.30
515.09	719.30
515.45	732.52
515.81	746.07
516.17	760.02
516.53	774.13
516.89	788.35
517.25	802.48
517.61	816.86
517.97	831.43
518.33	845.90
518.69	860.61
519.05	875.50
519.41	890.63
519.77	906.08
520.13	921.42
520.49	936.77
520.85	952.12
521.21	967.81
521.57	984.01
521.93	999.65
522.29	1016.08
522.65	1032.32
523.01	1048.54
523.37	1064.47
523.73	1080.61
524.09	1096.61
524.45	1112.87
524.81	1129.53
525.17	1146.24
525.53	1163.01
525.89	1179.82
526.25	1196.57
526.61	1212.87
526.97	1229.54
527.33	1246.04
527.68	1262.49
528.04	1278.93
528.40	1295.43
528.76	1312.44
529.12	1328.97
529.48	1345.88
529.84	1361.69
530.20	1378.26
530.56	1395.16
530.91	1412.65
531.27	1429.40
531.63	1445.89
531.99	1462.38
532.35	1478.31
532.71	1494.14
533.07	1510.24
533.42	1526.07
533.78	1542.06
534.14	1558.32
534.50	1573.57
534.86	1589.37
535.21	1604.59
535.57	1620.43
535.93	1635.81
536.29	1650.64
536.65	1665.55
537.00	1680.12
537.36	1695.35
537.72	1709.80
538.08	1724.19
538.44	1737.81
538.79	1751.56
539.15	1765.04
539.51	1778.67
539.87	1792.78
540.22	1806.48
540.58	1820.32
540.94	1833.61
541.29	1846.49
541.65	1859.09
542.01	1872.30
542.37	1884.65
542.72	1897.18
543.08	1908.88
543.44	1921.32
543.79	1932.34
544.15	1943.27
544.51	1954.94
544.87	1965.91
545.22	1976.74
545.58	1986.99
545.94	1996.66
546.29	2006.47
546.65	2016.44
547.01	2025.71
547.36	2034.53
547.72	2042.97
548.07	2050.66
548.43	2058.73
548.79	2066.68
549.14	2074.17
549.50	2081.40
549.86	2089.00
550.21	2096.21
550.57	2103.37
550.92	2109.97
551.28	2117.01
551.64	2124.17
551.99	2130.56
552.35	2136.74
552.70	2142.83
553.06	2148.78
553.41	2155.19
553.77	2161.29
554.13	2167.29
554.48	2173.37
554.84	2178.97
555.19	2184.32
555.55	2189.42
555.90	2194.03
556.26	2198.93
556.61	2203.66
556.97	2208.04
557.32	2212.19
557.68	2216.39
558.03	2220.81
558.39	2224.55
558.74	2229.18
559.10	2232.99
559.45	2236.70
559.81	2241.03
560.16	2244.75
560.52	2247.94
560.87	2251.23
561.23	2253.87
561.58	2256.94
561.94	2259.42
562.29	2261.65
562.64	2264.34
563.00	2267.00
563.35	2270.45
563.71	2273.53
564.06	2276.73
564.42	2279.55
564.77	2281.99
565.12	2284.21
565.48	2285.99
565.83	2287.82
566.19	2289.18
566.54	2290.02
566.89	2291.09
567.25	2291.57
567.60	2292.92
567.96	2294.68
568.31	2295.66
568.66	2296.69
569.02	2297.14
569.37	2297.49
569.72	2298.33
570.08	2298.35
570.43	2298.40
570.78	2297.72
571.14	2296.21
571.49	2294.85
571.84	2294.66
572.20	2293.65
572.55	2292.60
572.90	2291.07
573.26	2289.72
573.61	2288.04
573.96	2286.46
574.31	2283.57
574.67	2280.79
575.02	2277.20
575.37	2273.86
575.72	2270.16
576.08	2266.93
576.43	2263.64
576.78	2260.08
577.13	2257.01
577.49	2254.10
577.84	2250.70
578.19	2247.16
578.54	2243.74
578.90	2239.63
579.25	2233.95
579.60	2228.97
579.95	2223.96
580.30	2218.98
580.66	2213.86
581.01	2209.03
581.36	2204.14
581.71	2200.03
582.06	2195.48
582.42	2190.95
582.77	2185.84
583.12	2181.33
583.47	2176.63
583.82	2171.58
584.17	2166.36
584.53	2160.84
584.88	2155.13
585.23	2149.31
585.58	2143.75
585.93	2138.21
586.28	2133.57
586.63	2128.64
586.98	2123.73
587.34	2119.11
587.69	2114.30
588.04	2109.01
588.39	2103.27
588.74	2096.68
589.09	2090.64
589.44	2083.86
589.79	2077.95
590.14	2072.30
590.49	2065.69
590.84	2059.26
591.19	2053.37
591.54	2047.04
591.89	2039.75
592.25	2033.08
592.60	2025.95
592.95	2018.36
593.30	2011.06
593.65	2003.32
594.00	1996.25
594.35	1988.91
594.70	1980.89
595.05	1973.76
595.40	1966.63
595.75	1959.22
596.10	1953.16
596.45	1946.33
596.80	1940.30
597.15	1933.71
597.50	1926.53
597.85	1920.08
598.19	1913.49
598.54	1906.48
598.89	1899.75
599.24	1893.91
599.59	1887.07
599.94	1880.98
600.29	1874.77
600.64	1868.24
600.99	1860.94
601.34	1854.07
601.69	1847.06
602.04	1840.22
602.39	1832.94
602.74	1826.00
603.08	1819.31
603.43	1812.54
603.78	1805.21
604.13	1797.94
604.48	1790.61
604.83	1783.89
605.18	1777.01
605.53	1769.11
605.87	1761.05
606.22	1753.80
606.57	1745.83
606.92	1738.73
607.27	1731.46
607.62	1724.47
607.96	1717.10
608.31	1710.62
608.66	1703.09
609.01	1695.67
609.36	1688.13
609.70	1679.95
610.05	1671.94
610.40	1664.19
610.75	1655.84
611.10	1648.26
611.44	1639.86
611.79	1631.90
612.14	1623.17
612.49	1613.88
612.83	1605.49
613.18	1597.45
613.53	1589.30
613.88	1580.70
614.22	1572.32
614.57	1563.62
614.92	1555.59
615.27	1548.07
615.61	1539.67
615.96	1531.61
616.31	1523.93
616.65	1516.66
617.00	1509.09
617.35	1501.52
617.70	1493.26
618.04	1484.84
618.39	1476.62
618.74	1469.02
619.08	1460.78
619.43	1453.17
619.78	1446.42
620.12	1439.28
620.47	1431.70
620.82	1423.60
621.16	1416.20
621.51	1408.58
621.85	1401.03
622.20	1392.59
622.55	1384.30
622.89	1376.34
623.24	1368.70
623.59	1361.29
623.93	1353.67
624.28	1346.53
624.62	1338.86
624.97	1331.56
625.32	1324.66
625.66	1317.67
626.01	1310.47
626.35	1303.03
626.70	1295.38
627.04	1287.59
627.39	1279.71
627.73	1272.27
628.08	1265.29
628.43	1258.01
628.77	1250.65
629.12	1243.09
629.46	1235.85
629.81	1228.31
630.15	1221.07
630.50	1213.68
630.84	1205.56
631.19	1197.73
631.53	1190.13
631.88	1182.58
632.22	1175.00
632.57	1167.77
632.91	1160.12
633.26	1152.69
633.60	1145.25
633.95	1138.04
634.29	1131.06
634.64	1124.43
634.98	1117.06
635.32	1109.91
635.67	1103.34
636.01	1096.72
636.36	1090.01
636.70	1083.53
637.05	1076.99
637.39	1070.55
637.73	1064.00
638.08	1058.05
638.42	1051.99
638.77	1045.69
639.11	1039.12
639.45	1032.79
639.80	1026.13
640.14	1019.80
640.49	1013.31
640.83	1007.06
641.17	1000.91
641.52	994.48
641.86	988.06
642.20	982.21
642.55	975.95
642.89	969.43
643.23	962.87
643.58	957.02
643.92	950.89
644.26	944.91
644.61	938.91
644.95	932.97
645.29	926.42
645.64	919.62
645.98	913.15
646.32	907.30
646.66	901.21
647.01	895.38
647.35	889.67
647.69	883.78
648.04	878.25
648.38	872.38
648.72	866.41
649.06	860.29
649.41	854.42
649.75	848.46
650.09	842.53
650.43	836.72
650.78	830.59
651.12	824.55
651.46	818.77
651.80	812.99
652.14	807.58
652.49	802.19
652.83	797.04
653.17	791.36
653.51	785.66
653.85	780.24
654.20	774.69
654.54	768.61
654.88	762.80
655.22	756.88
655.56	751.19
655.90	745.80
656.25	740.57
656.59	735.20
656.93	730.13
657.27	724.92
657.61	719.44
657.95	714.37
658.29	709.28
658.64	703.99
658.98	698.74
659.32	693.22
659.66	687.94
660.00	682.58
660.34	677.67
660.68	672.74
661.02	667.73
661.36	662.99
661.70	658.50
662.05	654.14
662.39	649.80
662.73	645.31
663.07	640.81
663.41	636.35
663.75	631.83
664.09	627.21
664.43	622.88
664.77	618.87
665.11	614.59
665.45	610.45
665.79	606.36
666.13	602.17
666.47	598.11
666.81	593.98
667.15	589.91
667.49	585.97
667.83	582.15
668.17	578.20
668.51	574.12
668.85	570.11
669.19	566.36
669.53	562.50
669.87	558.70
670.21	554.98
670.55	551.31
670.89	547.89
671.23	544.51
671.57	541.03
671.91	537.37
672.25	533.87
672.58	530.33
672.92	526.99
673.26	523.77
673.60	520.59
673.94	517.46
674.28	514.52
674.62	511.59
674.96	508.52
675.30	505.61
675.64	502.69
675.97	499.92
676.31	497.02
676.65	494.10
676.99	491.32
677.33	488.51
677.67	485.73
678.01	482.68
678.34	479.70
678.68	476.77
679.02	474.04
679.36	471.27
679.70	468.60
680.04	465.80
680.37	462.96
680.71	460.14
681.05	457.53
681.39	454.83
681.73	452.19
682.06	449.62
682.40	447.08
682.74	444.54
683.08	441.96
683.42	439.35
683.75	436.84
684.09	434.31
684.43	431.77
684.77	429.31
685.10	426.95
685.44	424.61
685.78	422.31
686.12	420.03
686.45	417.69
686.79	415.35
687.13	413.18
687.46	411.02
687.80	408.89
688.14	406.70
688.48	404.61
688.81	402.35
689.15	400.21
689.49	398.06
689.82	395.98
690.16	393.94
690.50	391.99
690.83	390.07
691.17	388.06
691.51	386.20
691.84	384.38
692.18	382.47
692.52	380.48
692.85	378.56
693.19	376.73
693.52	374.95
693.86	373.18
694.20	371.38
694.53	369.59
694.87	367.73
695.21	365.95
695.54	364.11
695.88	362.39
696.21	360.65
696.55	358.98
696.88	357.28
697.22	355.61
697.56	353.97
697.89	352.27
698.23	350.70
698.56	349.11
698.90	347.49
699.23	345.86
699.57	344.32
699.90	342.76
700.24	341.16
700.58	339.61
700.91	338.14
701.25	336.70
701.58	335.33
701.92	333.97
702.25	332.60
702.59	331.28
702.92	329.93
703.26	328.69
703.59	327.40
703.93	326.23
704.26	324.98
704.60	323.67
704.93	322.40
705.26	321.10
705.60	319.86
705.93	318.67
706.27	317.59
706.60	316.53
706.94	315.45
707.27	314.33
707.61	313.24
707.94	312.16
708.27	311.04
708.61	309.96
708.94	308.91
709.28	307.91
709.61	306.93
709.94	305.95
710.28	304.87
710.61	303.89
710.95	302.79
711.28	301.90
711.61	300.95
711.95	300.04
712.28	299.11
712.61	298.17
712.95	297.24
713.28	296.38
713.61	295.49
713.95	294.59
714.28	293.77
714.61	292.93
714.95	292.08
715.28	291.23
715.61	290.32
715.95	289.52
716.28	288.61
716.61	287.77
716.95	286.99
717.28	286.26
717.61	285.46
717.94	284.72
718.28	283.85
718.61	283.13
718.94	282.43
719.27	281.76
719.61	281.10
719.94	280.46
720.27	279.72
720.60	279.02
720.94	278.37
721.27	277.70
721.60	277.10
721.93	276.47
722.27	275.92
722.60	275.42
722.93	274.81
723.26	274.30
723.59	273.73
723.93	273.16
724.26	272.61
724.59	272.07
724.92	271.60
725.25	271.10
725.59	270.59
725.92	270.10
726.25	269.61
726.58	269.14
726.91	268.64
727.24	268.20
727.57	267.78
727.91	267.29
728.24	266.88
728.57	266.41
728.90	265.98
729.23	265.51
729.56	265.07
729.89	264.61
730.22	264.14
730.55	263.71
730.89	263.28
731.22	262.84
731.55	262.38
731.88	261.94
732.21	261.51
732.54	261.11
732.87	260.68
733.20	260.29
733.53	259.88
733.86	259.52
734.19	259.11
734.52	258.72
734.85	258.41
735.18	257.97
735.51	257.61
735.84	257.23
736.17	256.88
736.50	256.48
736.83	256.26
737.16	255.92
737.49	255.60
737.82	255.25
738.15	254.92
738.48	254.60
738.81	254.25
739.14	253.93
739.47	253.60
739.80	253.30
740.13	253.01
740.46	252.68
740.79	252.30
741.12	252.00
741.45	251.68
741.78	251.33
742.11	251.07
742.44	250.76
742.77	250.47
743.10	250.16
743.43	249.85
743.75	249.45
744.08	249.29
744.41	249.01
744.74	248.72
745.07	248.45
745.40	248.16
745.73	247.92
746.06	247.61
746.39	247.36
746.71	247.10
747.04	246.82
747.37	246.55
747.70	246.35
748.03	246.09
748.36	245.87
748.68	245.60
749.01	245.35
749.34	245.10
749.67	244.88
750.00	244.63
750.33	244.48
750.65	244.26
750.98	243.89
751.31	243.66
751.64	243.46
751.97	243.30
752.29	243.13
752.62	242.87
752.95	242.69
753.28	242.46
753.60	242.25
753.93	242.05
754.26	241.88
754.59	241.64
754.91	241.41
755.24	241.18
755.57	241.01
755.90	240.83
756.22	240.65
756.55	240.44
756.88	240.26
757.20	240.02
757.53	239.87
757.86	239.71
758.19	239.55
758.51	239.38
758.84	239.16
759.17	238.97
759.49	238.82
759.82	238.70
760.15	238.55
760.47	238.40
760.80	238.25
761.13	238.10
761.45	237.98
761.78	237.85
762.11	237.70
762.43	237.55
762.76	237.39
763.08	237.26
763.41	237.13
763.74	237.03
764.06	236.87
764.39	236.72
764.71	236.58
765.04	236.46
765.37	236.34
765.69	236.21
766.02	236.07
766.34	235.97
766.67	235.83
767.00	235.75
767.32	235.69
767.65	235.63
767.97	235.51
768.30	235.41
768.62	235.32
768.95	235.23
769.27	235.14
769.60	235.07
769.92	234.97
770.25	234.84
770.57	234.70
770.90	234.64
771.22	234.53
771.55	234.49
771.87	234.42
772.20	234.31
772.52	234.32
772.85	234.36
773.17	234.27
773.50	234.18
773.82	234.06
774.15	233.90
774.47	233.78
774.80	233.70
775.12	233.57
775.45	233.50
775.77	233.40
776.09	233.31
776.42	233.22
776.74	233.18
777.07	233.12
777.39	233.04
777.72	232.94
778.04	232.91
778.36	232.77
778.69	232.69
779.01	232.63
779.33	232.48
779.66	232.30
779.98	232.26
780.31	232.19
780.63	232.16
780.95	232.11
781.28	232.02
781.60	231.99
781.92	231.93
782.25	231.86
782.57	231.81
782.89	231.73
783.22	231.65
783.54	231.59
783.86	231.52
784.19	231.48
784.51	231.47
784.83	231.37
785.16	231.31
785.48	231.25
785.80	231.20
786.12	231.12
786.45	231.06
786.77	230.96
787.09	230.90
787.42	230.81
787.74	230.81
788.06	230.77
788.38	230.68
788.71	230.62
789.03	230.53
789.35	230.49
789.67	230.48
789.99	230.42
790.32	230.36
790.64	230.34
790.96	230.31
791.28	230.24
791.61	230.17
791.93	230.12
792.25	230.07
792.57	230.10
792.89	230.05
793.21	229.99
793.54	229.95
793.86	229.86
794.18	229.81
794.50	229.71
794.82	229.64
795.14	229.59
795.47	229.54
795.79	229.50
796.11	229.42
796.43	229.35
796.75	229.33
797.07	229.26
797.39	229.20
797.71	229.13
798.04	229.07
798.36	229.04
798.68	228.99
799.00	228.95
799.32	228.84
799.64	228.82
799.96	228.79
800.28	228.77
800.60	228.74
800.92	228.73
801.24	228.70
801.56	228.72
801.89	228.70
802.21	228.67
802.53	228.63
802.85	228.63
803.17	228.63
803.49	228.58
803.81	228.57
804.13	228.56
804.45	228.52
804.77	228.52
805.09	228.51
805.41	228.50
805.73	228.47
806.05	228.41
806.37	228.36
806.69	228.33
807.01	228.29
807.33	228.31
807.65	228.27
807.97	228.28
808.28	228.27
808.60	228.24
808.92	228.24
809.24	228.32
809.56	228.31
809.88	228.27
810.20	228.28
810.52	228.28
810.84	228.27
811.16	228.27
811.48	228.25
811.80	228.27
812.12	228.27
812.43	228.26
812.75	228.27
813.07	228.25
813.39	228.27
813.71	228.26
814.03	228.23
814.35	228.20
814.67	228.18
814.98	228.13
815.30	228.12
815.62	228.10
815.94	228.00
816.26	228.00
816.58	227.99
816.89	227.98
817.21	227.94
817.53	227.91
817.85	227.89
818.17	227.88
818.48	227.82
818.80	227.83
819.12	227.81
819.44	227.78
819.76	227.76
820.07	227.77
820.39	227.78
820.71	227.75
821.03	227.75
821.34	227.71
821.66	227.70
821.98	227.72
822.30	227.69
822.61	227.75
822.93	227.68
823.25	227.67
823.57	227.64
823.88	227.69
824.20	227.71
824.52	227.73
824.83	227.69
825.15	227.65
825.47	227.65
825.79	227.64
826.10	227.66
826.42	227.65
826.74	227.59
827.05	227.56
827.37	227.57
827.69	227.54
828.00	227.52
828.32	227.49
828.64	227.45
828.95	227.50
829.27	227.46
829.58	227.46
829.90	227.44
830.22	227.44
830.53	227.38
830.85	227.35
831.17	227.29
831.48	227.29
831.80	227.27
832.11	227.21
832.43	227.18
832.75	227.11
833.06	227.16
833.38	227.17
833.69	227.15
834.01	227.16
834.32	227.14
834.64	227.14
834.96	227.16
835.27	227.12
835.59	227.04
835.90	227.00
836.22	226.99
836.53	226.93
836.85	226.91
837.16	226.99
837.48	226.95
837.79	226.96
838.11	226.92
838.42	226.93
838.74	226.92
839.05	226.89
839.37	226.87
839.68	226.79
840.00	226.74
840.31	226.74
840.63	226.68
840.94	226.64
841.26	226.60
841.57	226.58
841.88	226.58
842.20	226.58
842.51	226.55
842.83	226.52
843.14	226.63
843.46	226.62
843.77	226.53
844.08	226.53
844.40	226.46
844.71	226.47
845.03	226.46
845.34	226.46
845.65	226.44
845.97	226.45
846.28	226.45
846.60	226.45
846.91	226.41
847.22	226.41
847.54	226.46
847.85	226.47
848.16	226.43
848.48	226.43
848.79	226.47
849.10	226.48
849.42	226.48
849.73	226.38
850.04	226.36
850.36	226.33
850.67	226.35
850.98	226.39
851.30	226.38
851.61	226.35
851.92	226.35
852.23	226.43
852.55	226.45
852.86	226.44
853.17	226.48
853.49	226.53
853.80	226.57
854.11	226.60
854.42	226.63
854.74	226.66
855.05	226.65
855.36	226.62
855.67	226.63
855.99	226.66
856.30	226.78
856.61	226.79
856.92	226.83
857.23	226.82
857.55	226.81
857.86	226.84
858.17	226.89
858.48	226.88
858.79	226.86
859.11	226.85
859.42	226.86
859.73	226.81
860.04	226.82
860.35	226.78
860.66	226.70
860.98	226.71
861.29	226.74
861.60	226.77
861.91	226.77
862.22	226.77
862.53	226.76
862.84	226.64
863.16	226.66
863.47	226.62
863.78	226.60
864.09	226.63
864.40	226.61
864.71	226.61
865.02	226.62
865.33	226.61
865.64	226.58
865.95	226.57
866.27	226.66
866.58	226.65
866.89	226.63
867.20	226.64
867.51	226.60
867.82	226.61
868.13	226.59
868.44	226.56
868.75	226.57
869.06	226.56
869.37	226.60
869.68	226.56
869.99	226.59
870.30	226.58
870.61	226.55
870.92	226.54
871.23	226.56
871.54	226.56
871.85	226.58
872.16	226.59
872.47	226.61
872.78	226.53
873.09	226.55
873.40	226.53
873.71	226.55
874.02	226.54
874.33	226.50
874.64	226.49
874.95	226.51
875.26	226.44
875.56	226.44
875.87	226.42
876.18	226.42
876.49	226.52
876.80	226.53
877.11	226.52
877.42	226.50
877.73	226.46
878.04	226.44
878.35	226.41
878.66	226.41
878.96	226.38
879.27	226.36
879.58	226.31
879.89	226.29
880.20	226.29
880.51	226.28
880.82	226.24
881.12	226.21
881.43	226.18
881.74	226.17
882.05	226.15
882.36	226.13
882.67	226.10
882.97	225.98
883.28	225.94
883.59	225.90
883.90	225.93
884.21	225.92
884.51	225.92
884.82	225.87
885.13	225.86
885.44	225.86
885.74	225.86
886.05	225.87
886.36	225.86
886.67	225.84
886.98	225.92
887.28	225.97
887.59	225.98
887.90	226.01
888.20	226.03
888.51	226.04
888.82	226.04
889.13	226.07
889.43	226.12
889.74	226.15
890.05	226.18
890.35	226.17
890.66	226.16
890.97	226.13
891.28	226.15
891.58	226.17
891.89	226.19
892.20	226.19
892.50	226.23
892.81	226.29
893.12	226.30
893.42	226.26
893.73	226.24
894.04	226.28
894.34	226.29
894.65	226.30
894.95	226.31
895.26	226.31
895.57	226.36
895.87	226.30
896.18	226.29
896.48	226.30
896.79	226.30
897.10	226.34
897.40	226.36
897.71	226.40
898.01	226.40
898.32	226.40
898.63	226.43
898.93	226.42
899.24	226.41
899.54	226.42
899.85	226.39
900.15	226.43
900.46	226.39
900.76	226.39
901.07	226.41
901.38	226.41
901.68	226.44
901.99	226.40
902.29	226.42
902.60	226.45
902.90	226.44
903.21	226.46
903.51	226.42
903.82	226.47
904.12	226.46
904.43	226.47
904.73	226.48
905.03	226.49
905.34	226.60
905.64	226.59
905.95	226.59
906.25	226.62
906.56	226.60
906.86	226.61
907.17	226.62
907.47	226.59
907.77	226.60
908.08	226.61
908.38	226.60
908.69	226.59
908.99	226.59
909.30	226.59
909.60	226.58
909.90	226.61
910.21	226.56
910.51	226.52
910.81	226.50
911.12	226.48
911.42	226.46
911.73	226.33
912.03	226.29
912.33	226.29
912.64	226.26
912.94	226.24
913.24	226.23
913.55	226.20
913.85	226.19
914.15	226.16
914.46	226.13
914.76	226.13
915.06	226.12
915.37	226.08
915.67	226.09
915.97	226.05
916.27	226.01
916.58	226.00
916.88	226.00
917.18	225.97
917.49	226.02
917.79	226.01
918.09	226.00
918.39	226.03
918.70	226.00
919.00	225.99
919.30	226.01
919.60	226.01
919.91	225.96
920.21	225.96
920.51	225.94
920.81	225.90
921.12	225.90
921.42	225.89
921.72	225.89
922.02	225.88
922.32	225.91
922.63	225.91
922.93	225.94
923.23	225.95
923.53	225.95
923.83	225.85
924.13	225.86
924.44	225.86
924.74	225.90
925.04	225.93
925.34	225.94
925.64	225.94
925.94	225.94
926.24	226.04
926.55	226.05
926.85	226.08
927.15	226.10
927.45	226.09
927.75	226.11
928.05	226.12
928.35	226.10
928.65	226.13
928.95	226.15
929.26	226.14
929.56	226.17
929.86	226.19
930.16	226.25
930.46	226.22
930.76	226.26
931.06	226.21
931.36	226.21
931.66	226.23
931.96	226.22
932.26	226.20
932.56	226.17
932.86	226.17
933.16	226.14
933.46	226.14
933.76	226.14
934.06	226.16
934.36	226.19
934.66	226.18
934.96	226.17
935.26	226.20
935.56	226.20
935.86	226.22
936.16	226.22
936.46	226.21
936.76	226.26
937.06	226.26
937.36	226.28
937.66	226.29
937.96	226.28
938.26	226.26
938.56	226.28
938.86	226.29
939.16	226.34
939.46	226.38
939.76	226.39
940.06	226.38
940.35	226.38
940.65	226.37
940.95	226.39
941.25	226.37
941.55	226.33
941.85	226.33
942.15	226.35
942.45	226.38
942.75	226.33
943.04	226.32
943.34	226.30
943.64	226.28
943.94	226.25
944.24	226.27
944.54	226.27
944.84	226.29
945.13	226.29
945.43	226.27
945.73	226.27
946.03	226.30
946.33	226.32
946.62	226.32
946.92	226.31
947.22	226.32
947.52	226.34
947.82	226.37
948.11	226.33
948.41	226.28
948.71	226.27
949.01	226.28
949.31	226.30
949.60	226.29
949.90	226.31
950.20	226.29
950.50	226.31
950.79	226.31
951.09	226.27
951.39	226.25
951.69	226.21
951.98	226.22
952.28	226.21
952.58	226.17
952.87	226.13
953.17	226.13
953.47	226.10
953.76	226.09
954.06	226.04
954.36	226.02
954.66	226.01
954.95	225.99
955.25	226.00
955.55	225.95
955.84	225.93
956.14	225.94
956.44	225.92
956.73	225.87
957.03	225.85
957.32	225.86
957.62	225.83
957.92	225.87
958.21	225.83
958.51	225.90
958.81	225.92
959.10	225.94
959.40	225.93
959.69	225.94
959.99	225.91
960.29	225.92
960.58	225.95
960.88	225.98
961.17	225.96
961.47	225.97
961.76	225.93
962.06	225.96
962.36	225.87
962.65	225.89
962.95	225.88
963.24	225.86
963.54	225.85
963.83	225.82
964.13	225.81
964.42	225.81
964.72	225.72
965.01	225.71
965.31	225.73
965.60	225.71
965.90	225.75
966.19	225.75
966.49	225.74
966.78	225.73
967.08	225.71
967.37	225.73
967.67	225.71
967.96	225.74
968.26	225.75
968.55	225.81
968.85	225.82
969.14	225.86
969.43	225.91
969.73	225.90
970.02	225.92
970.32	225.92
970.61	225.91
970.91	225.89
971.20	225.89
971.49	225.86
971.79	225.89
972.08	225.85
972.38	225.86
972.67	225.86
972.96	225.87
973.26	225.89
973.55	225.93
973.85	225.91
974.14	225.94
974.43	225.95
974.73	225.95
975.02	225.97
975.31	225.94
975.61	225.89
975.90	225.91
976.19	225.92
976.49	225.90
976.78	225.90
977.07	225.94
977.37	225.95
977.66	226.00
977.95	225.95
978.24	225.99
978.54	225.99
978.83	226.03
979.12	226.05
979.42	226.05
979.71	226.02
980.00	226.03
980.29	226.04
980.59	226.02
980.88	226.05
981.17	226.03
981.46	226.05
981.76	226.08
982.05	226.10
982.34	226.12
982.63	226.12
982.93	226.09
983.22	226.13
983.51	226.13
983.80	226.11
984.09	226.15
984.39	226.07
984.68	226.08
984.97	226.04
985.26	226.03
985.55	226.01
985.85	225.99
986.14	226.01
986.43	226.02
986.72	225.99
987.01	225.92
987.30	225.92
987.59	225.89
987.89	225.87
988.18	225.79
988.47	225.80
988.76	225.81
989.05	225.80
989.34	225.76
989.63	225.75
989.92	225.70
990.22	225.65
990.51	225.70
990.80	225.69
991.09	225.72
991.38	225.71
991.67	225.69
991.96	225.69
992.25	225.68
992.54	225.64
992.83	225.61
993.12	225.58
993.41	225.60
993.70	225.62
993.99	225.67
994.28	225.72
994.58	225.69
994.87	225.66
995.16	225.67
995.45	225.65
995.74	225.64
996.03	225.65
996.32	225.68
996.61	225.70
996.90	225.70
997.19	225.67
997.48	225.62
997.77	225.61
998.06	225.62
998.34	225.59
998.63	225.60
998.92	225.62
999.21	225.67
999.50	225.68
999.79	225.67
1000.08	225.68
1000.37	225.68
1000.66	225.68
1000.95	225.71
1001.24	225.71
1001.53	225.74
1001.82	225.74
1002.11	225.76
1002.40	225.77
1002.68	225.79
1002.97	225.86
1003.26	225.85
1003.55	225.88
1003.84	225.90
1004.13	225.94
1004.42	225.98
1004.71	225.99
1004.99	226.00
1005.28	226.02
1005.57	225.99
1005.86	225.97
1006.15	225.95
1006.44	225.95
1006.72	225.99
1007.01	226.02
1007.30	226.05
1007.59	226.07
1007.88	226.06
1008.17	226.07
1008.45	226.06
1008.74	226.04
1009.03	226.01
1009.32	226.05
1009.60	226.05
1009.89	226.08
1010.18	226.07
1010.47	226.08
1010.76	226.09
1011.04	226.09
1011.33	226.10
1011.62	226.13
1011.91	226.15
1012.19	226.17
1012.48	226.19
1012.77	226.18
1013.05	226.25
1013.34	226.23
1013.63	226.22
1013.92	226.26
1014.20	226.27
1014.49	226.26
1014.78	226.28
1015.06	226.28
1015.35	226.29
1015.64	226.34
1015.92	226.37
1016.21	226.38
1016.50	226.39
1016.78	226.40
1017.07	226.44
1017.36	226.45
1017.64	226.42
1017.93	226.44
1018.22	226.39
1018.50	226.36
1018.79	226.40
1019.08	226.32
1019.36	226.33
1019.65	226.33
1019.93	226.37
1020.22	226.40
1020.51	226.47
1020.79	226.42
1021.08	225.60
1021.36	225.80
1021.65	226.95
1021.94	226.25
1022.22	226.17
1022.51	226.04
1022.79	227.25
1023.08	226.69
1023.36	227.32
1023.65	225.57
>>>>>End Processed Spectral Data<<<<<
