SpectraSuite Data File
++++++++++++++++++++++++++++++++++++
Date: Fri Feb 01 16:46:43 EST 2013
User: group
Dark Spectrum Present: No
Reference Spectrum Present: No
Number of Sampled Component Spectra: 1
Spectrometers: USB2E7196
Integration Time (usec): 35000 (USB2E7196)
Spectra Averaged: 100 (USB2E7196)
Boxcar Smoothing: 10 (USB2E7196)
Correct for Electrical Dark: No (USB2E7196)
Strobe/Lamp Enabled: No (USB2E7196)
Correct for Detector Non-linearity: No (USB2E7196)
Correct for Stray Light: No (USB2E7196)
Number of Pixels in Processed Spectrum: 2048
>>>>>Begin Processed Spectral Data<<<<<
339.09	0.00
339.48	213.52
339.86	214.44
340.24	215.90
340.63	217.17
341.01	220.25
341.39	220.02
341.78	221.15
342.16	222.15
342.54	223.52
342.93	211.58
343.31	222.26
343.69	222.78
344.07	223.25
344.46	223.68
344.84	224.08
345.22	224.31
345.60	224.59
345.99	224.81
346.37	224.98
346.75	225.08
347.13	225.19
347.52	225.27
347.90	225.39
348.28	225.43
348.66	225.49
349.05	225.48
349.43	225.50
349.81	225.54
350.19	225.59
350.57	225.64
350.96	225.73
351.34	225.85
351.72	225.95
352.10	226.08
352.48	226.16
352.87	226.23
353.25	226.30
353.63	226.36
354.01	226.43
354.39	226.50
354.77	226.57
355.15	226.68
355.54	226.72
355.92	226.73
356.30	226.82
356.68	226.98
357.06	227.05
357.44	227.13
357.82	227.21
358.20	227.30
358.58	227.40
358.97	227.49
359.35	227.54
359.73	227.64
360.11	227.68
360.49	227.74
360.87	227.77
361.25	227.85
361.63	227.92
362.01	227.97
362.39	227.98
362.77	228.05
363.15	228.05
363.53	228.11
363.91	228.15
364.29	228.15
364.67	228.03
365.05	228.07
365.43	228.10
365.81	228.10
366.19	228.14
366.57	228.17
366.95	228.13
367.33	228.12
367.71	228.09
368.09	228.08
368.47	228.06
368.85	228.04
369.23	228.00
369.61	227.93
369.99	227.93
370.37	227.95
370.75	227.95
371.13	227.88
371.51	227.85
371.89	227.82
372.27	227.79
372.65	227.80
373.03	227.74
373.41	227.69
373.78	227.59
374.16	227.48
374.54	227.37
374.92	227.31
375.30	227.24
375.68	227.14
376.06	227.07
376.44	227.00
376.82	226.95
377.19	226.91
377.57	226.84
377.95	226.75
378.33	226.67
378.71	226.54
379.09	226.51
379.47	226.45
379.84	226.35
380.22	226.25
380.60	226.13
380.98	226.06
381.36	225.97
381.73	225.94
382.11	225.85
382.49	225.79
382.87	225.72
383.25	225.66
383.62	225.71
384.00	225.66
384.38	225.61
384.76	225.56
385.13	225.52
385.51	225.44
385.89	225.37
386.27	225.29
386.64	225.24
387.02	225.19
387.40	225.10
387.78	225.08
388.15	225.05
388.53	225.02
388.91	224.98
389.29	224.99
389.66	224.95
390.04	224.96
390.42	224.97
390.79	224.99
391.17	224.98
391.55	224.86
391.92	224.87
392.30	224.88
392.68	224.88
393.05	224.90
393.43	224.92
393.81	224.93
394.18	224.89
394.56	224.91
394.94	224.93
395.31	224.96
395.69	225.01
396.06	225.04
396.44	225.11
396.82	225.11
397.19	225.16
397.57	225.20
397.95	225.26
398.32	225.27
398.70	225.31
399.07	225.35
399.45	225.44
399.82	225.48
400.20	225.49
400.58	225.59
400.95	225.59
401.33	225.70
401.70	225.84
402.08	225.99
402.45	226.12
402.83	226.25
403.20	226.32
403.58	226.42
403.95	226.54
404.33	226.67
404.71	226.81
405.08	226.99
405.46	227.13
405.83	227.25
406.21	227.40
406.58	227.56
406.96	227.74
407.33	227.89
407.70	228.07
408.08	228.38
408.45	228.56
408.83	228.82
409.20	229.03
409.58	229.19
409.95	229.42
410.33	229.62
410.70	229.83
411.08	230.13
411.45	230.41
411.82	230.71
412.20	231.03
412.57	231.45
412.95	231.72
413.32	232.10
413.69	232.50
414.07	232.92
414.44	233.35
414.82	233.81
415.19	234.37
415.56	234.92
415.94	235.39
416.31	236.01
416.68	236.61
417.06	237.30
417.43	238.00
417.81	238.78
418.18	239.57
418.55	240.41
418.93	241.28
419.30	242.17
419.67	243.07
420.04	244.01
420.42	244.98
420.79	246.14
421.16	247.29
421.54	248.47
421.91	249.67
422.28	250.90
422.66	252.24
423.03	253.49
423.40	254.78
423.77	256.26
424.15	257.70
424.52	259.18
424.89	260.78
425.26	262.30
425.64	263.70
426.01	265.29
426.38	266.93
426.75	268.60
427.13	270.32
427.50	272.11
427.87	273.98
428.24	275.85
428.61	277.59
428.99	279.51
429.36	281.62
429.73	283.69
430.10	285.72
430.47	287.77
430.85	289.89
431.22	292.12
431.59	294.42
431.96	296.64
432.33	299.11
432.70	301.46
433.08	304.25
433.45	306.91
433.82	309.43
434.19	312.31
434.56	315.07
434.93	317.71
435.30	320.33
435.68	323.20
436.05	326.00
436.42	328.74
436.79	331.22
437.16	333.84
437.53	336.63
437.90	339.38
438.27	342.09
438.64	344.86
439.01	347.43
439.38	349.67
439.75	351.83
440.13	354.25
440.50	356.57
440.87	358.41
441.24	360.31
441.61	362.49
441.98	363.94
442.35	365.72
442.72	367.53
443.09	369.33
443.46	370.33
443.83	370.90
444.20	371.44
444.57	372.26
444.94	372.58
445.31	372.95
445.68	373.34
446.05	373.45
446.42	373.16
446.79	372.83
447.16	372.39
447.53	372.07
447.90	370.94
448.27	369.80
448.64	368.24
449.01	367.16
449.37	365.20
449.74	363.37
450.11	361.19
450.48	358.79
450.85	356.29
451.22	354.15
451.59	352.15
451.96	350.25
452.33	347.70
452.70	345.38
453.07	342.56
453.43	339.69
453.80	336.92
454.17	334.19
454.54	331.63
454.91	328.93
455.28	326.31
455.65	323.86
456.02	321.43
456.38	319.30
456.75	316.62
457.12	314.43
457.49	312.24
457.86	310.08
458.23	308.22
458.59	306.18
458.96	304.15
459.33	302.30
459.70	300.47
460.07	298.98
460.43	297.25
460.80	295.66
461.17	294.25
461.54	292.76
461.91	291.38
462.27	289.93
462.64	288.67
463.01	287.32
463.38	286.02
463.74	284.66
464.11	283.51
464.48	282.47
464.85	281.38
465.21	280.47
465.58	279.52
465.95	278.42
466.32	277.53
466.68	276.58
467.05	275.73
467.42	274.80
467.78	273.86
468.15	273.01
468.52	272.36
468.88	271.47
469.25	270.70
469.62	270.11
469.98	269.48
470.35	268.88
470.72	268.28
471.08	267.67
471.45	267.16
471.82	266.62
472.18	266.10
472.55	265.64
472.92	265.17
473.28	264.72
473.65	264.30
474.02	263.89
474.38	263.57
474.75	263.27
475.11	262.97
475.48	262.75
475.85	262.53
476.21	262.32
476.58	262.16
476.94	262.07
477.31	261.89
477.67	261.74
478.04	261.61
478.41	261.58
478.77	261.65
479.14	261.62
479.50	261.62
479.87	261.69
480.23	261.77
480.60	261.81
480.96	261.92
481.33	262.15
481.69	262.37
482.06	262.59
482.42	262.74
482.79	262.97
483.15	263.27
483.52	263.68
483.88	264.02
484.25	264.42
484.61	264.86
484.98	265.31
485.34	265.88
485.71	266.47
486.07	267.08
486.44	267.64
486.80	268.33
487.17	269.08
487.53	269.90
487.90	270.77
488.26	271.73
488.62	272.74
488.99	273.67
489.35	274.68
489.72	275.79
490.08	277.03
490.44	278.35
490.81	279.68
491.17	281.01
491.54	282.48
491.90	284.03
492.26	285.68
492.63	287.43
492.99	289.21
493.36	291.10
493.72	293.13
494.08	295.21
494.45	297.43
494.81	299.82
495.17	302.28
495.54	304.80
495.90	307.51
496.26	310.33
496.63	313.34
496.99	316.47
497.35	319.74
497.72	323.16
498.08	326.65
498.44	330.33
498.80	334.28
499.17	338.32
499.53	342.49
499.89	346.88
500.26	351.39
500.62	356.04
500.98	361.06
501.34	366.11
501.71	371.45
502.07	376.91
502.43	382.53
502.79	388.30
503.16	394.43
503.52	400.68
503.88	407.07
504.24	413.67
504.60	420.54
504.97	427.68
505.33	434.95
505.69	442.57
506.05	450.35
506.41	458.16
506.78	466.29
507.14	474.74
507.50	483.40
507.86	492.40
508.22	501.56
508.59	510.70
508.95	520.21
509.31	530.02
509.67	540.10
510.03	550.35
510.39	560.93
510.75	571.62
511.12	582.50
511.48	593.67
511.84	605.08
512.20	616.53
512.56	628.35
512.92	640.46
513.28	652.83
513.64	665.23
514.00	677.92
514.37	690.75
514.73	703.69
515.09	716.60
515.45	729.74
515.81	743.27
516.17	757.21
516.53	771.28
516.89	785.32
517.25	799.38
517.61	813.71
517.97	827.97
518.33	842.29
518.69	856.87
519.05	871.85
519.41	886.86
519.77	902.25
520.13	917.56
520.49	932.84
520.85	948.03
521.21	963.57
521.57	979.62
521.93	995.24
522.29	1011.43
522.65	1027.57
523.01	1043.68
523.37	1059.60
523.73	1075.61
524.09	1091.54
524.45	1107.62
524.81	1124.01
525.17	1140.56
525.53	1157.39
525.89	1174.18
526.25	1191.00
526.61	1207.18
526.97	1223.85
527.33	1240.26
527.68	1256.72
528.04	1273.00
528.40	1289.41
528.76	1306.38
529.12	1322.85
529.48	1339.68
529.84	1355.56
530.20	1371.97
530.56	1388.76
530.91	1405.94
531.27	1422.48
531.63	1438.74
531.99	1455.31
532.35	1471.21
532.71	1487.04
533.07	1503.08
533.42	1518.80
533.78	1534.66
534.14	1550.78
534.50	1565.91
534.86	1581.55
535.21	1596.61
535.57	1612.37
535.93	1627.66
536.29	1642.31
536.65	1657.18
537.00	1671.68
537.36	1686.87
537.72	1701.31
538.08	1715.48
538.44	1729.15
538.79	1742.84
539.15	1756.38
539.51	1769.78
539.87	1784.01
540.22	1797.36
540.58	1810.93
540.94	1823.90
541.29	1836.59
541.65	1849.09
542.01	1862.00
542.37	1874.25
542.72	1886.51
543.08	1898.16
543.44	1910.53
543.79	1921.50
544.15	1932.40
544.51	1943.81
544.87	1954.64
545.22	1965.44
545.58	1975.56
545.94	1985.27
546.29	1995.09
546.65	2004.94
547.01	2014.20
547.36	2022.78
547.72	2031.27
548.07	2039.13
548.43	2047.32
548.79	2055.15
549.14	2062.53
549.50	2069.84
549.86	2077.30
550.21	2084.44
550.57	2091.51
550.92	2097.98
551.28	2104.98
551.64	2111.89
551.99	2118.38
552.35	2124.42
552.70	2130.43
553.06	2136.49
553.41	2142.66
553.77	2148.56
554.13	2154.35
554.48	2160.31
554.84	2165.84
555.19	2171.06
555.55	2176.19
555.90	2180.70
556.26	2185.64
556.61	2190.43
556.97	2194.75
557.32	2198.90
557.68	2203.14
558.03	2207.42
558.39	2211.05
558.74	2215.71
559.10	2219.47
559.45	2223.25
559.81	2227.58
560.16	2231.40
560.52	2234.58
560.87	2237.96
561.23	2240.66
561.58	2243.72
561.94	2246.40
562.29	2248.61
562.64	2251.45
563.00	2253.93
563.35	2257.49
563.71	2260.58
564.06	2263.65
564.42	2266.64
564.77	2269.23
565.12	2271.55
565.48	2273.54
565.83	2275.65
566.19	2277.01
566.54	2278.08
566.89	2279.24
567.25	2279.90
567.60	2281.16
567.96	2283.01
568.31	2284.10
568.66	2285.40
569.02	2286.01
569.37	2286.49
569.72	2287.44
570.08	2287.69
570.43	2287.88
570.78	2287.35
571.14	2285.93
571.49	2284.73
571.84	2284.44
572.20	2283.30
572.55	2282.40
572.90	2280.87
573.26	2279.52
573.61	2277.89
573.96	2276.42
574.31	2273.63
574.67	2270.65
575.02	2267.31
575.37	2263.94
575.72	2260.16
576.08	2256.68
576.43	2253.50
576.78	2249.96
577.13	2246.85
577.49	2243.82
577.84	2240.49
578.19	2236.77
578.54	2233.31
578.90	2229.38
579.25	2223.93
579.60	2219.30
579.95	2214.38
580.30	2209.53
580.66	2204.52
581.01	2199.53
581.36	2194.59
581.71	2190.48
582.06	2186.19
582.42	2181.84
582.77	2176.79
583.12	2172.36
583.47	2167.89
583.82	2163.05
584.17	2157.83
584.53	2152.42
584.88	2147.02
585.23	2141.33
585.58	2135.95
585.93	2130.51
586.28	2125.82
586.63	2120.88
586.98	2115.86
587.34	2111.24
587.69	2106.42
588.04	2101.14
588.39	2095.82
588.74	2089.45
589.09	2083.40
589.44	2076.76
589.79	2070.67
590.14	2065.17
590.49	2058.62
590.84	2052.29
591.19	2046.36
591.54	2040.08
591.89	2033.08
592.25	2026.36
592.60	2019.24
592.95	2012.00
593.30	2004.86
593.65	1997.30
594.00	1990.29
594.35	1983.03
594.70	1975.01
595.05	1968.08
595.40	1961.01
595.75	1953.54
596.10	1947.55
596.45	1940.87
596.80	1934.72
597.15	1928.25
597.50	1921.34
597.85	1914.90
598.19	1908.34
598.54	1901.44
598.89	1894.83
599.24	1888.85
599.59	1882.16
599.94	1875.98
600.29	1869.57
600.64	1862.96
600.99	1855.70
601.34	1849.17
601.69	1842.35
602.04	1835.56
602.39	1828.24
602.74	1821.47
603.08	1814.77
603.43	1807.94
603.78	1800.72
604.13	1793.67
604.48	1786.49
604.83	1779.63
605.18	1772.99
605.53	1765.09
605.87	1757.08
606.22	1749.90
606.57	1741.99
606.92	1734.65
607.27	1727.66
607.62	1720.88
607.96	1713.79
608.31	1707.29
608.66	1699.70
609.01	1692.25
609.36	1684.83
609.70	1676.77
610.05	1668.72
610.40	1661.07
610.75	1652.80
611.10	1645.09
611.44	1636.60
611.79	1628.68
612.14	1619.98
612.49	1610.71
612.83	1602.34
613.18	1594.32
613.53	1586.20
613.88	1577.65
614.22	1569.48
614.57	1560.70
614.92	1552.64
615.27	1545.18
615.61	1536.75
615.96	1528.59
616.31	1520.82
616.65	1513.45
617.00	1505.97
617.35	1498.31
617.70	1490.11
618.04	1481.77
618.39	1473.55
618.74	1466.09
619.08	1457.73
619.43	1450.05
619.78	1443.12
620.12	1435.96
620.47	1428.33
620.82	1420.25
621.16	1412.97
621.51	1405.29
621.85	1397.68
622.20	1389.11
622.55	1380.66
622.89	1372.82
623.24	1365.23
623.59	1357.96
623.93	1350.49
624.28	1343.23
624.62	1335.81
624.97	1328.58
625.32	1321.74
625.66	1314.77
626.01	1307.62
626.35	1300.22
626.70	1292.61
627.04	1284.96
627.39	1277.21
627.73	1269.84
628.08	1262.99
628.43	1255.69
628.77	1248.43
629.12	1241.04
629.46	1234.06
629.81	1226.58
630.15	1219.39
630.50	1211.94
630.84	1203.77
631.19	1195.71
631.53	1188.14
631.88	1180.52
632.22	1172.89
632.57	1165.50
632.91	1157.96
633.26	1150.51
633.60	1143.10
633.95	1135.98
634.29	1128.88
634.64	1122.30
634.98	1115.00
635.32	1107.77
635.67	1101.15
636.01	1094.52
636.36	1087.72
636.70	1081.10
637.05	1074.55
637.39	1068.07
637.73	1061.71
638.08	1055.83
638.42	1049.93
638.77	1043.51
639.11	1037.01
639.45	1030.68
639.80	1024.02
640.14	1017.71
640.49	1011.24
640.83	1004.98
641.17	998.81
641.52	992.49
641.86	985.92
642.20	980.04
642.55	973.72
642.89	967.26
643.23	960.65
643.58	954.95
643.92	948.83
644.26	942.86
644.61	936.83
644.95	930.76
645.29	924.20
645.64	917.47
645.98	911.22
646.32	905.37
646.66	899.31
647.01	893.59
647.35	887.79
647.69	881.95
648.04	876.35
648.38	870.55
648.72	864.61
649.06	858.70
649.41	852.74
649.75	846.79
650.09	840.89
650.43	835.20
650.78	829.01
651.12	822.99
651.46	817.25
651.80	811.54
652.14	806.20
652.49	800.83
652.83	795.70
653.17	790.08
653.51	784.38
653.85	779.06
654.20	773.50
654.54	767.59
654.88	761.83
655.22	755.94
655.56	750.25
655.90	744.86
656.25	739.64
656.59	734.35
656.93	729.24
657.27	724.06
657.61	718.59
657.95	713.49
658.29	708.45
658.64	703.15
658.98	697.84
659.32	692.33
659.66	687.13
660.00	681.83
660.34	676.78
660.68	671.87
661.02	666.74
661.36	662.04
661.70	657.55
662.05	653.25
662.39	648.95
662.73	644.47
663.07	640.06
663.41	635.59
663.75	631.14
664.09	626.64
664.43	622.29
664.77	618.17
665.11	613.93
665.45	609.81
665.79	605.79
666.13	601.65
666.47	597.58
666.81	593.44
667.15	589.26
667.49	585.41
667.83	581.50
668.17	577.62
668.51	573.48
668.85	569.40
669.19	565.50
669.53	561.70
669.87	557.81
670.21	554.08
670.55	550.39
670.89	546.92
671.23	543.49
671.57	539.92
671.91	536.41
672.25	532.92
672.58	529.40
672.92	525.97
673.26	522.78
673.60	519.58
673.94	516.45
674.28	513.53
674.62	510.55
674.96	507.45
675.30	504.58
675.64	501.67
675.97	498.86
676.31	496.01
676.65	493.12
676.99	490.48
677.33	487.67
677.67	484.82
678.01	481.81
678.34	478.86
678.68	475.93
679.02	473.09
679.36	470.28
679.70	467.52
680.04	464.75
680.37	461.92
680.71	459.12
681.05	456.52
681.39	453.83
681.73	451.15
682.06	448.66
682.40	446.08
682.74	443.59
683.08	441.05
683.42	438.40
683.75	435.86
684.09	433.24
684.43	430.78
684.77	428.32
685.10	425.97
685.44	423.63
685.78	421.42
686.12	419.18
686.45	416.93
686.79	414.65
687.13	412.45
687.46	410.26
687.80	408.10
688.14	405.80
688.48	403.78
688.81	401.58
689.15	399.46
689.49	397.32
689.82	395.22
690.16	393.09
690.50	391.14
690.83	389.23
691.17	387.26
691.51	385.33
691.84	383.52
692.18	381.55
692.52	379.58
692.85	377.61
693.19	375.72
693.52	373.85
693.86	372.03
694.20	370.27
694.53	368.53
694.87	366.68
695.21	364.96
695.54	363.12
695.88	361.38
696.21	359.63
696.55	357.95
696.88	356.27
697.22	354.66
697.56	353.05
697.89	351.39
698.23	349.78
698.56	348.17
698.90	346.60
699.23	345.02
699.57	343.47
699.90	341.94
700.24	340.38
700.58	338.86
700.91	337.38
701.25	335.94
701.58	334.57
701.92	333.25
702.25	331.87
702.59	330.50
702.92	329.20
703.26	327.89
703.59	326.60
703.93	325.38
704.26	324.18
704.60	322.87
704.93	321.58
705.26	320.36
705.60	319.17
705.93	317.99
706.27	316.91
706.60	315.85
706.94	314.75
707.27	313.66
707.61	312.56
707.94	311.53
708.27	310.43
708.61	309.29
708.94	308.26
709.28	307.27
709.61	306.31
709.94	305.31
710.28	304.32
710.61	303.31
710.95	302.25
711.28	301.28
711.61	300.35
711.95	299.46
712.28	298.48
712.61	297.47
712.95	296.55
713.28	295.70
713.61	294.81
713.95	293.95
714.28	293.10
714.61	292.27
714.95	291.41
715.28	290.51
715.61	289.65
715.95	288.79
716.28	287.96
716.61	287.13
716.95	286.31
717.28	285.54
717.61	284.77
717.94	284.03
718.28	283.24
718.61	282.51
718.94	281.79
719.27	281.15
719.61	280.53
719.94	279.86
720.27	279.12
720.60	278.45
720.94	277.82
721.27	277.19
721.60	276.60
721.93	276.01
722.27	275.51
722.60	274.97
722.93	274.41
723.26	273.84
723.59	273.28
723.93	272.78
724.26	272.21
724.59	271.68
724.92	271.17
725.25	270.69
725.59	270.18
725.92	269.64
726.25	269.12
726.58	268.61
726.91	268.13
727.24	267.66
727.57	267.22
727.91	266.70
728.24	266.23
728.57	265.74
728.90	265.32
729.23	264.79
729.56	264.38
729.89	263.86
730.22	263.38
730.55	262.92
730.89	262.43
731.22	261.97
731.55	261.53
731.88	261.07
732.21	260.63
732.54	260.19
732.87	259.79
733.20	259.39
733.53	259.04
733.86	258.64
734.19	258.24
734.52	257.86
734.85	257.56
735.18	257.17
735.51	256.80
735.84	256.41
736.17	256.09
736.50	255.69
736.83	255.50
737.16	255.15
737.49	254.82
737.82	254.48
738.15	254.19
738.48	253.85
738.81	253.56
739.14	253.25
739.47	252.97
739.80	252.66
740.13	252.37
740.46	252.02
740.79	251.69
741.12	251.39
741.45	251.05
741.78	250.71
742.11	250.45
742.44	250.18
742.77	249.89
743.10	249.57
743.43	249.27
743.75	248.88
744.08	248.80
744.41	248.54
744.74	248.28
745.07	247.98
745.40	247.75
745.73	247.49
746.06	247.23
746.39	246.95
746.71	246.67
747.04	246.44
747.37	246.21
747.70	245.94
748.03	245.70
748.36	245.48
748.68	245.26
749.01	244.98
749.34	244.71
749.67	244.46
750.00	244.26
750.33	244.08
750.65	243.89
750.98	243.50
751.31	243.27
751.64	243.03
751.97	242.86
752.29	242.62
752.62	242.36
752.95	242.12
753.28	241.89
753.60	241.69
753.93	241.47
754.26	241.25
754.59	241.07
754.91	240.82
755.24	240.59
755.57	240.37
755.90	240.20
756.22	239.98
756.55	239.76
756.88	239.53
757.20	239.30
757.53	239.06
757.86	238.90
758.19	238.74
758.51	238.57
758.84	238.34
759.17	238.16
759.49	238.00
759.82	237.86
760.15	237.68
760.47	237.53
760.80	237.35
761.13	237.22
761.45	237.02
761.78	236.88
762.11	236.74
762.43	236.60
762.76	236.45
763.08	236.38
763.41	236.25
763.74	236.17
764.06	236.04
764.39	235.91
764.71	235.73
765.04	235.57
765.37	235.48
765.69	235.41
766.02	235.29
766.34	235.16
766.67	234.99
767.00	234.93
767.32	234.85
767.65	234.80
767.97	234.65
768.30	234.54
768.62	234.45
768.95	234.34
769.27	234.22
769.60	234.14
769.92	233.98
770.25	233.88
770.57	233.73
770.90	233.61
771.22	233.53
771.55	233.47
771.87	233.40
772.20	233.25
772.52	233.20
772.85	233.22
773.17	233.12
773.50	233.03
773.82	232.88
774.15	232.75
774.47	232.57
774.80	232.49
775.12	232.41
775.45	232.31
775.77	232.22
776.09	232.14
776.42	232.04
776.74	231.97
777.07	231.91
777.39	231.87
777.72	231.80
778.04	231.71
778.36	231.64
778.69	231.56
779.01	231.51
779.33	231.37
779.66	231.20
779.98	231.17
780.31	231.13
780.63	231.13
780.95	231.09
781.28	231.07
781.60	230.98
781.92	230.97
782.25	230.92
782.57	230.86
782.89	230.80
783.22	230.73
783.54	230.68
783.86	230.62
784.19	230.54
784.51	230.53
784.83	230.48
785.16	230.41
785.48	230.38
785.80	230.35
786.12	230.32
786.45	230.30
786.77	230.29
787.09	230.22
787.42	230.16
787.74	230.12
788.06	230.09
788.38	230.08
788.71	230.00
789.03	229.96
789.35	229.96
789.67	229.91
789.99	229.92
790.32	229.87
790.64	229.87
790.96	229.91
791.28	229.85
791.61	229.79
791.93	229.77
792.25	229.70
792.57	229.72
792.89	229.65
793.21	229.59
793.54	229.54
793.86	229.51
794.18	229.45
794.50	229.39
794.82	229.33
795.14	229.31
795.47	229.29
795.79	229.24
796.11	229.20
796.43	229.14
796.75	229.10
797.07	229.07
797.39	229.00
797.71	228.90
798.04	228.86
798.36	228.86
798.68	228.82
799.00	228.79
799.32	228.71
799.64	228.72
799.96	228.69
800.28	228.64
800.60	228.59
800.92	228.58
801.24	228.57
801.56	228.56
801.89	228.49
802.21	228.47
802.53	228.44
802.85	228.43
803.17	228.45
803.49	228.40
803.81	228.36
804.13	228.35
804.45	228.30
804.77	228.27
805.09	228.20
805.41	228.17
805.73	228.13
806.05	228.08
806.37	228.01
806.69	227.97
807.01	227.95
807.33	227.93
807.65	227.85
807.97	227.86
808.28	227.80
808.60	227.76
808.92	227.68
809.24	227.71
809.56	227.65
809.88	227.59
810.20	227.55
810.52	227.56
810.84	227.51
811.16	227.49
811.48	227.44
811.80	227.48
812.12	227.44
812.43	227.44
812.75	227.43
813.07	227.44
813.39	227.43
813.71	227.38
814.03	227.33
814.35	227.33
814.67	227.25
814.98	227.24
815.30	227.24
815.62	227.23
815.94	227.16
816.26	227.21
816.58	227.16
816.89	227.15
817.21	227.12
817.53	227.09
817.85	227.08
818.17	227.09
818.48	227.01
818.80	227.03
819.12	226.98
819.44	226.93
819.76	226.90
820.07	226.86
820.39	226.87
820.71	226.91
821.03	226.91
821.34	226.91
821.66	226.93
821.98	226.98
822.30	226.98
822.61	227.01
822.93	226.92
823.25	226.90
823.57	226.89
823.88	226.88
824.20	226.87
824.52	226.85
824.83	226.82
825.15	226.81
825.47	226.82
825.79	226.82
826.10	226.81
826.42	226.76
826.74	226.80
827.05	226.79
827.37	226.76
827.69	226.76
828.00	226.79
828.32	226.74
828.64	226.66
828.95	226.71
829.27	226.70
829.58	226.73
829.90	226.75
830.22	226.75
830.53	226.72
830.85	226.71
831.17	226.67
831.48	226.69
831.80	226.68
832.11	226.63
832.43	226.59
832.75	226.59
833.06	226.66
833.38	226.59
833.69	226.57
834.01	226.55
834.32	226.53
834.64	226.47
834.96	226.46
835.27	226.46
835.59	226.42
835.90	226.40
836.22	226.35
836.53	226.32
836.85	226.29
837.16	226.38
837.48	226.37
837.79	226.43
838.11	226.37
838.42	226.37
838.74	226.37
839.05	226.37
839.37	226.35
839.68	226.31
840.00	226.30
840.31	226.29
840.63	226.27
840.94	226.23
841.26	226.21
841.57	226.18
841.88	226.19
842.20	226.17
842.51	226.12
842.83	226.10
843.14	226.15
843.46	226.15
843.77	226.07
844.08	226.03
844.40	225.99
844.71	226.00
845.03	225.98
845.34	225.98
845.65	225.96
845.97	225.96
846.28	225.92
846.60	225.91
846.91	225.86
847.22	225.87
847.54	225.90
847.85	225.89
848.16	225.88
848.48	225.84
848.79	225.88
849.10	225.86
849.42	225.86
849.73	225.78
850.04	225.78
850.36	225.74
850.67	225.76
850.98	225.72
851.30	225.74
851.61	225.72
851.92	225.71
852.23	225.72
852.55	225.70
852.86	225.71
853.17	225.71
853.49	225.76
853.80	225.75
854.11	225.75
854.42	225.78
854.74	225.77
855.05	225.76
855.36	225.69
855.67	225.70
855.99	225.71
856.30	225.84
856.61	225.82
856.92	225.83
857.23	225.82
857.55	225.82
857.86	225.80
858.17	225.81
858.48	225.78
858.79	225.77
859.11	225.82
859.42	225.82
859.73	225.81
860.04	225.81
860.35	225.80
860.66	225.74
860.98	225.71
861.29	225.74
861.60	225.74
861.91	225.77
862.22	225.78
862.53	225.75
862.84	225.64
863.16	225.69
863.47	225.68
863.78	225.66
864.09	225.68
864.40	225.70
864.71	225.71
865.02	225.73
865.33	225.73
865.64	225.69
865.95	225.69
866.27	225.77
866.58	225.73
866.89	225.74
867.20	225.77
867.51	225.78
867.82	225.77
868.13	225.82
868.44	225.81
868.75	225.83
869.06	225.84
869.37	225.83
869.68	225.81
869.99	225.82
870.30	225.83
870.61	225.84
870.92	225.81
871.23	225.81
871.54	225.81
871.85	225.85
872.16	225.87
872.47	225.86
872.78	225.80
873.09	225.82
873.40	225.83
873.71	225.80
874.02	225.80
874.33	225.79
874.64	225.76
874.95	225.74
875.26	225.71
875.56	225.69
875.87	225.67
876.18	225.66
876.49	225.76
876.80	225.78
877.11	225.76
877.42	225.76
877.73	225.77
878.04	225.75
878.35	225.73
878.66	225.71
878.96	225.73
879.27	225.72
879.58	225.75
879.89	225.73
880.20	225.76
880.51	225.77
880.82	225.79
881.12	225.81
881.43	225.79
881.74	225.76
882.05	225.77
882.36	225.79
882.67	225.77
882.97	225.63
883.28	225.60
883.59	225.59
883.90	225.55
884.21	225.52
884.51	225.53
884.82	225.48
885.13	225.48
885.44	225.44
885.74	225.42
886.05	225.37
886.36	225.34
886.67	225.32
886.98	225.35
887.28	225.35
887.59	225.32
887.90	225.34
888.20	225.35
888.51	225.37
888.82	225.35
889.13	225.38
889.43	225.47
889.74	225.47
890.05	225.45
890.35	225.47
890.66	225.46
890.97	225.44
891.28	225.46
891.58	225.47
891.89	225.49
892.20	225.50
892.50	225.48
892.81	225.46
893.12	225.48
893.42	225.43
893.73	225.41
894.04	225.40
894.34	225.39
894.65	225.37
894.95	225.35
895.26	225.33
895.57	225.35
895.87	225.25
896.18	225.27
896.48	225.26
896.79	225.28
897.10	225.30
897.40	225.30
897.71	225.28
898.01	225.25
898.32	225.23
898.63	225.23
898.93	225.26
899.24	225.29
899.54	225.28
899.85	225.27
900.15	225.28
900.46	225.27
900.76	225.29
901.07	225.31
901.38	225.31
901.68	225.33
901.99	225.26
902.29	225.25
902.60	225.24
902.90	225.27
903.21	225.25
903.51	225.24
903.82	225.25
904.12	225.28
904.43	225.29
904.73	225.31
905.03	225.31
905.34	225.42
905.64	225.41
905.95	225.38
906.25	225.38
906.56	225.39
906.86	225.43
907.17	225.42
907.47	225.43
907.77	225.41
908.08	225.41
908.38	225.45
908.69	225.49
908.99	225.52
909.30	225.51
909.60	225.52
909.90	225.52
910.21	225.49
910.51	225.50
910.81	225.52
911.12	225.52
911.42	225.56
911.73	225.47
912.03	225.48
912.33	225.52
912.64	225.52
912.94	225.52
913.24	225.46
913.55	225.48
913.85	225.49
914.15	225.51
914.46	225.55
914.76	225.53
915.06	225.53
915.37	225.55
915.67	225.55
915.97	225.58
916.27	225.57
916.58	225.60
916.88	225.58
917.18	225.54
917.49	225.61
917.79	225.56
918.09	225.58
918.39	225.60
918.70	225.60
919.00	225.61
919.30	225.64
919.60	225.67
919.91	225.63
920.21	225.65
920.51	225.66
920.81	225.64
921.12	225.67
921.42	225.67
921.72	225.65
922.02	225.65
922.32	225.66
922.63	225.67
922.93	225.71
923.23	225.70
923.53	225.72
923.83	225.67
924.13	225.69
924.44	225.68
924.74	225.70
925.04	225.69
925.34	225.70
925.64	225.65
925.94	225.63
926.24	225.67
926.55	225.66
926.85	225.64
927.15	225.64
927.45	225.62
927.75	225.59
928.05	225.59
928.35	225.58
928.65	225.57
928.95	225.58
929.26	225.55
929.56	225.61
929.86	225.60
930.16	225.56
930.46	225.55
930.76	225.54
931.06	225.50
931.36	225.47
931.66	225.48
931.96	225.49
932.26	225.49
932.56	225.44
932.86	225.43
933.16	225.47
933.46	225.42
933.76	225.41
934.06	225.45
934.36	225.48
934.66	225.47
934.96	225.44
935.26	225.43
935.56	225.41
935.86	225.33
936.16	225.35
936.46	225.33
936.76	225.29
937.06	225.26
937.36	225.25
937.66	225.28
937.96	225.24
938.26	225.16
938.56	225.15
938.86	225.17
939.16	225.15
939.46	225.12
939.76	225.10
940.06	225.08
940.35	225.01
940.65	224.95
940.95	224.92
941.25	224.88
941.55	224.87
941.85	224.88
942.15	224.90
942.45	224.88
942.75	224.86
943.04	224.89
943.34	224.93
943.64	224.90
943.94	224.87
944.24	224.88
944.54	224.92
944.84	224.94
945.13	224.93
945.43	224.93
945.73	224.93
946.03	224.94
946.33	224.95
946.62	224.96
946.92	225.00
947.22	225.05
947.52	225.07
947.82	225.06
948.11	225.06
948.41	225.03
948.71	225.03
949.01	225.04
949.31	225.02
949.60	224.97
949.90	225.01
950.20	225.02
950.50	225.02
950.79	225.03
951.09	225.03
951.39	224.99
951.69	225.01
951.98	225.02
952.28	225.03
952.58	225.06
952.87	225.08
953.17	225.08
953.47	225.06
953.76	225.09
954.06	225.12
954.36	225.10
954.66	225.11
954.95	225.13
955.25	225.16
955.55	225.18
955.84	225.20
956.14	225.20
956.44	225.20
956.73	225.17
957.03	225.19
957.32	225.19
957.62	225.23
957.92	225.20
958.21	225.19
958.51	225.27
958.81	225.26
959.10	225.27
959.40	225.28
959.69	225.31
959.99	225.30
960.29	225.29
960.58	225.30
960.88	225.35
961.17	225.31
961.47	225.32
961.76	225.30
962.06	225.29
962.36	225.30
962.65	225.27
962.95	225.28
963.24	225.26
963.54	225.26
963.83	225.26
964.13	225.29
964.42	225.28
964.72	225.19
965.01	225.20
965.31	225.18
965.60	225.14
965.90	225.17
966.19	225.12
966.49	225.12
966.78	225.11
967.08	225.10
967.37	225.11
967.67	225.08
967.96	225.09
968.26	225.11
968.55	225.11
968.85	225.16
969.14	225.16
969.43	225.16
969.73	225.16
970.02	225.14
970.32	225.13
970.61	225.11
970.91	225.11
971.20	225.08
971.49	225.06
971.79	225.07
972.08	224.97
972.38	225.01
972.67	225.02
972.96	225.04
973.26	224.98
973.55	225.01
973.85	225.01
974.14	224.97
974.43	224.97
974.73	224.94
975.02	224.87
975.31	224.88
975.61	224.89
975.90	224.90
976.19	224.90
976.49	224.90
976.78	224.94
977.07	224.93
977.37	224.95
977.66	224.97
977.95	224.96
978.24	225.00
978.54	224.99
978.83	225.00
979.12	225.03
979.42	225.06
979.71	225.09
980.00	225.10
980.29	225.13
980.59	225.12
980.88	225.13
981.17	225.18
981.46	225.18
981.76	225.21
982.05	225.25
982.34	225.24
982.63	225.23
982.93	225.20
983.22	225.24
983.51	225.27
983.80	225.30
984.09	225.32
984.39	225.32
984.68	225.32
984.97	225.31
985.26	225.28
985.55	225.31
985.85	225.26
986.14	225.26
986.43	225.29
986.72	225.29
987.01	225.28
987.30	225.26
987.59	225.27
987.89	225.25
988.18	225.20
988.47	225.22
988.76	225.21
989.05	225.24
989.34	225.22
989.63	225.24
989.92	225.22
990.22	225.23
990.51	225.23
990.80	225.25
991.09	225.30
991.38	225.35
991.67	225.34
991.96	225.35
992.25	225.38
992.54	225.37
992.83	225.39
993.12	225.41
993.41	225.42
993.70	225.49
993.99	225.51
994.28	225.52
994.58	225.53
994.87	225.52
995.16	225.53
995.45	225.51
995.74	225.49
996.03	225.50
996.32	225.51
996.61	225.54
996.90	225.53
997.19	225.48
997.48	225.44
997.77	225.43
998.06	225.44
998.34	225.40
998.63	225.39
998.92	225.34
999.21	225.38
999.50	225.40
999.79	225.36
1000.08	225.35
1000.37	225.35
1000.66	225.34
1000.95	225.37
1001.24	225.38
1001.53	225.39
1001.82	225.37
1002.11	225.34
1002.40	225.34
1002.68	225.35
1002.97	225.41
1003.26	225.39
1003.55	225.38
1003.84	225.37
1004.13	225.38
1004.42	225.42
1004.71	225.41
1004.99	225.40
1005.28	225.37
1005.57	225.36
1005.86	225.31
1006.15	225.31
1006.44	225.25
1006.72	225.27
1007.01	225.24
1007.30	225.22
1007.59	225.19
1007.88	225.18
1008.17	225.20
1008.45	225.16
1008.74	225.12
1009.03	225.11
1009.32	225.09
1009.60	225.08
1009.89	225.06
1010.18	225.03
1010.47	224.96
1010.76	224.98
1011.04	224.99
1011.33	225.02
1011.62	225.00
1011.91	225.01
1012.19	224.98
1012.48	225.00
1012.77	225.01
1013.05	225.04
1013.34	225.03
1013.63	225.01
1013.92	224.98
1014.20	224.96
1014.49	224.99
1014.78	225.00
1015.06	224.95
1015.35	224.96
1015.64	224.96
1015.92	225.00
1016.21	225.01
1016.50	225.04
1016.78	225.05
1017.07	225.03
1017.36	224.99
1017.64	224.98
1017.93	224.98
1018.22	224.98
1018.50	224.98
1018.79	224.97
1019.08	224.93
1019.36	224.95
1019.65	225.00
1019.93	225.05
1020.22	225.06
1020.51	225.10
1020.79	225.07
1021.08	224.80
1021.36	224.62
1021.65	225.18
1021.94	224.55
1022.22	225.56
1022.51	225.32
1022.79	225.40
1023.08	225.16
1023.36	226.50
1023.65	224.46
>>>>>End Processed Spectral Data<<<<<
