SpectraSuite Data File
++++++++++++++++++++++++++++++++++++
Date: Fri Feb 01 14:58:54 EST 2013
User: group
Dark Spectrum Present: No
Reference Spectrum Present: No
Number of Sampled Component Spectra: 1
Spectrometers: USB2E7196
Integration Time (usec): 35000 (USB2E7196)
Spectra Averaged: 100 (USB2E7196)
Boxcar Smoothing: 10 (USB2E7196)
Correct for Electrical Dark: No (USB2E7196)
Strobe/Lamp Enabled: No (USB2E7196)
Correct for Detector Non-linearity: No (USB2E7196)
Correct for Stray Light: No (USB2E7196)
Number of Pixels in Processed Spectrum: 2048
>>>>>Begin Processed Spectral Data<<<<<
339.09	0.00
339.48	216.11
339.86	216.41
340.24	217.62
340.63	219.39
341.01	222.20
341.39	222.52
341.78	223.39
342.16	224.91
342.54	225.06
342.93	213.49
343.31	224.26
343.69	224.75
344.07	225.21
344.46	225.65
344.84	226.01
345.22	226.20
345.60	226.41
345.99	226.61
346.37	226.74
346.75	226.85
347.13	226.89
347.52	226.93
347.90	227.01
348.28	227.01
348.66	227.04
349.05	227.01
349.43	227.02
349.81	227.05
350.19	227.08
350.57	227.15
350.96	227.21
351.34	227.31
351.72	227.39
352.10	227.44
352.48	227.50
352.87	227.57
353.25	227.65
353.63	227.71
354.01	227.74
354.39	227.80
354.77	227.88
355.15	227.99
355.54	228.05
355.92	228.06
356.30	228.14
356.68	228.28
357.06	228.42
357.44	228.47
357.82	228.53
358.20	228.62
358.58	228.69
358.97	228.77
359.35	228.83
359.73	228.91
360.11	229.02
360.49	229.09
360.87	229.12
361.25	229.20
361.63	229.32
362.01	229.38
362.39	229.44
362.77	229.42
363.15	229.45
363.53	229.48
363.91	229.53
364.29	229.56
364.67	229.46
365.05	229.46
365.43	229.50
365.81	229.54
366.19	229.60
366.57	229.64
366.95	229.62
367.33	229.57
367.71	229.55
368.09	229.54
368.47	229.50
368.85	229.50
369.23	229.48
369.61	229.40
369.99	229.39
370.37	229.37
370.75	229.41
371.13	229.31
371.51	229.28
371.89	229.25
372.27	229.20
372.65	229.19
373.03	229.14
373.41	229.08
373.78	229.02
374.16	228.89
374.54	228.79
374.92	228.72
375.30	228.66
375.68	228.61
376.06	228.56
376.44	228.47
376.82	228.43
377.19	228.33
377.57	228.26
377.95	228.17
378.33	228.09
378.71	227.98
379.09	227.99
379.47	227.91
379.84	227.81
380.22	227.73
380.60	227.62
380.98	227.54
381.36	227.43
381.73	227.35
382.11	227.28
382.49	227.21
382.87	227.13
383.25	227.06
383.62	227.08
384.00	227.03
384.38	226.96
384.76	226.89
385.13	226.86
385.51	226.80
385.89	226.70
386.27	226.65
386.64	226.62
387.02	226.52
387.40	226.46
387.78	226.43
388.15	226.39
388.53	226.34
388.91	226.29
389.29	226.28
389.66	226.29
390.04	226.26
390.42	226.23
390.79	226.24
391.17	226.24
391.55	226.11
391.92	226.07
392.30	226.06
392.68	226.03
393.05	226.06
393.43	226.06
393.81	226.11
394.18	226.09
394.56	226.11
394.94	226.16
395.31	226.16
395.69	226.22
396.06	226.27
396.44	226.33
396.82	226.37
397.19	226.44
397.57	226.45
397.95	226.52
398.32	226.55
398.70	226.59
399.07	226.67
399.45	226.75
399.82	226.82
400.20	226.95
400.58	227.06
400.95	227.10
401.33	227.24
401.70	227.39
402.08	227.51
402.45	227.61
402.83	227.72
403.20	227.88
403.58	227.99
403.95	228.13
404.33	228.25
404.71	228.42
405.08	228.66
405.46	228.82
405.83	229.00
406.21	229.21
406.58	229.42
406.96	229.59
407.33	229.79
407.70	230.04
408.08	230.30
408.45	230.53
408.83	230.77
409.20	231.00
409.58	231.20
409.95	231.44
410.33	231.71
410.70	231.98
411.08	232.31
411.45	232.64
411.82	232.97
412.20	233.36
412.57	233.77
412.95	234.07
413.32	234.50
413.69	234.88
414.07	235.33
414.44	235.75
414.82	236.28
415.19	236.85
415.56	237.41
415.94	237.96
416.31	238.59
416.68	239.25
417.06	239.97
417.43	240.68
417.81	241.45
418.18	242.21
418.55	243.04
418.93	243.92
419.30	244.83
419.67	245.77
420.04	246.74
420.42	247.75
420.79	248.90
421.16	250.04
421.54	251.28
421.91	252.48
422.28	253.76
422.66	255.05
423.03	256.32
423.40	257.63
423.77	259.05
424.15	260.48
424.52	261.94
424.89	263.56
425.26	265.10
425.64	266.58
426.01	268.20
426.38	269.86
426.75	271.46
427.13	273.16
427.50	274.94
427.87	276.79
428.24	278.60
428.61	280.32
428.99	282.24
429.36	284.28
429.73	286.36
430.10	288.39
430.47	290.49
430.85	292.61
431.22	294.82
431.59	297.17
431.96	299.39
432.33	301.85
432.70	304.22
433.08	307.03
433.45	309.68
433.82	312.28
434.19	315.15
434.56	318.03
434.93	320.72
435.30	323.34
435.68	326.28
436.05	329.14
436.42	332.00
436.79	334.53
437.16	337.27
437.53	340.07
437.90	342.87
438.27	345.55
438.64	348.42
439.01	351.00
439.38	353.24
439.75	355.42
440.13	358.00
440.50	360.28
440.87	362.11
441.24	364.02
441.61	366.16
441.98	367.67
442.35	369.51
442.72	371.35
443.09	373.19
443.46	374.15
443.83	374.72
444.20	375.18
444.57	376.02
444.94	376.29
445.31	376.63
445.68	376.97
446.05	377.04
446.42	376.63
446.79	376.22
447.16	375.77
447.53	375.49
447.90	374.28
448.27	373.17
448.64	371.58
449.01	370.44
449.37	368.46
449.74	366.56
450.11	364.22
450.48	361.74
450.85	359.17
451.22	357.04
451.59	355.01
451.96	353.10
452.33	350.49
452.70	348.11
453.07	345.26
453.43	342.39
453.80	339.68
454.17	337.03
454.54	334.48
454.91	331.77
455.28	329.06
455.65	326.58
456.02	324.09
456.38	321.97
456.75	319.27
457.12	317.03
457.49	314.80
457.86	312.70
458.23	310.83
458.59	308.78
458.96	306.70
459.33	304.84
459.70	302.99
460.07	301.49
460.43	299.82
460.80	298.22
461.17	296.81
461.54	295.30
461.91	293.88
462.27	292.47
462.64	291.21
463.01	289.83
463.38	288.49
463.74	287.13
464.11	285.97
464.48	285.00
464.85	283.92
465.21	283.05
465.58	282.11
465.95	281.04
466.32	280.16
466.68	279.26
467.05	278.38
467.42	277.48
467.78	276.55
468.15	275.64
468.52	274.94
468.88	274.05
469.25	273.25
469.62	272.61
469.98	271.91
470.35	271.27
470.72	270.68
471.08	270.04
471.45	269.51
471.82	268.97
472.18	268.36
472.55	267.91
472.92	267.37
473.28	266.88
473.65	266.40
474.02	265.94
474.38	265.55
474.75	265.18
475.11	264.80
475.48	264.52
475.85	264.25
476.21	264.01
476.58	263.77
476.94	263.59
477.31	263.37
477.67	263.21
478.04	263.08
478.41	263.01
478.77	263.08
479.14	263.00
479.50	262.96
479.87	263.01
480.23	263.05
480.60	263.10
480.96	263.17
481.33	263.34
481.69	263.50
482.06	263.67
482.42	263.87
482.79	264.11
483.15	264.38
483.52	264.76
483.88	265.08
484.25	265.51
484.61	265.95
484.98	266.40
485.34	266.94
485.71	267.48
486.07	268.06
486.44	268.57
486.80	269.20
487.17	269.92
487.53	270.69
487.90	271.52
488.26	272.43
488.62	273.39
488.99	274.37
489.35	275.43
489.72	276.55
490.08	277.74
490.44	278.96
490.81	280.29
491.17	281.62
491.54	283.11
491.90	284.62
492.26	286.23
492.63	287.98
492.99	289.67
493.36	291.57
493.72	293.62
494.08	295.71
494.45	297.98
494.81	300.31
495.17	302.74
495.54	305.32
495.90	307.99
496.26	310.77
496.63	313.70
496.99	316.77
497.35	319.97
497.72	323.31
498.08	326.83
498.44	330.51
498.80	334.44
499.17	338.41
499.53	342.59
499.89	346.96
500.26	351.45
500.62	356.19
500.98	361.12
501.34	366.19
501.71	371.52
502.07	376.94
502.43	382.54
502.79	388.31
503.16	394.36
503.52	400.55
503.88	406.96
504.24	413.61
504.60	420.49
504.97	427.65
505.33	434.98
505.69	442.66
506.05	450.43
506.41	458.31
506.78	466.55
507.14	474.96
507.50	483.64
507.86	492.63
508.22	501.78
508.59	511.02
508.95	520.58
509.31	530.40
509.67	540.48
510.03	550.78
510.39	561.37
510.75	572.15
511.12	583.12
511.48	594.41
511.84	605.84
512.20	617.36
512.56	629.35
512.92	641.50
513.28	653.86
513.64	666.35
514.00	679.03
514.37	691.94
514.73	705.03
515.09	718.08
515.45	731.41
515.81	745.00
516.17	758.97
516.53	773.13
516.89	787.30
517.25	801.49
517.61	815.91
517.97	830.36
518.33	844.82
518.69	859.60
519.05	874.62
519.41	889.84
519.77	905.43
520.13	920.78
520.49	936.17
520.85	951.50
521.21	967.30
521.57	983.60
521.93	999.47
522.29	1015.92
522.65	1032.31
523.01	1048.64
523.37	1064.75
523.73	1080.97
524.09	1097.08
524.45	1113.51
524.81	1130.29
525.17	1147.26
525.53	1164.29
525.89	1181.27
526.25	1198.20
526.61	1214.64
526.97	1231.30
527.33	1247.89
527.68	1264.70
528.04	1281.31
528.40	1298.12
528.76	1315.18
529.12	1331.85
529.48	1348.77
529.84	1364.93
530.20	1381.60
530.56	1398.53
530.91	1415.93
531.27	1432.77
531.63	1449.29
531.99	1465.91
532.35	1481.90
532.71	1497.82
533.07	1514.13
533.42	1530.07
533.78	1546.05
534.14	1562.48
534.50	1578.04
534.86	1593.91
535.21	1609.09
535.57	1625.20
535.93	1640.86
536.29	1655.80
536.65	1671.01
537.00	1685.82
537.36	1701.11
537.72	1715.80
538.08	1730.35
538.44	1744.27
538.79	1758.29
539.15	1772.13
539.51	1785.89
539.87	1800.33
540.22	1814.07
540.58	1827.96
540.94	1841.47
541.29	1854.61
541.65	1867.34
542.01	1880.66
542.37	1893.13
542.72	1905.68
543.08	1917.40
543.44	1929.81
543.79	1941.00
544.15	1951.88
544.51	1963.49
544.87	1974.51
545.22	1985.31
545.58	1995.52
545.94	2005.40
546.29	2015.33
546.65	2025.11
547.01	2034.45
547.36	2043.26
547.72	2051.78
548.07	2059.60
548.43	2067.79
548.79	2075.98
549.14	2083.46
549.50	2090.77
549.86	2098.44
550.21	2105.79
550.57	2112.93
550.92	2119.49
551.28	2126.70
551.64	2133.86
551.99	2140.53
552.35	2146.80
552.70	2152.86
553.06	2158.94
553.41	2165.33
553.77	2171.35
554.13	2177.45
554.48	2183.60
554.84	2188.82
555.19	2194.12
555.55	2199.22
555.90	2203.60
556.26	2208.26
556.61	2213.09
556.97	2217.24
557.32	2221.40
557.68	2225.49
558.03	2229.90
558.39	2233.55
558.74	2238.03
559.10	2241.80
559.45	2245.25
559.81	2249.47
560.16	2253.22
560.52	2256.41
560.87	2259.79
561.23	2262.27
561.58	2265.21
561.94	2267.58
562.29	2270.07
562.64	2272.84
563.00	2275.44
563.35	2278.85
563.71	2281.82
564.06	2284.86
564.42	2287.75
564.77	2290.17
565.12	2292.19
565.48	2293.79
565.83	2295.49
566.19	2296.65
566.54	2297.59
566.89	2298.66
567.25	2299.00
567.60	2300.21
567.96	2301.68
568.31	2302.30
568.66	2303.23
569.02	2303.66
569.37	2303.97
569.72	2304.50
570.08	2304.30
570.43	2304.17
570.78	2303.33
571.14	2301.94
571.49	2300.54
571.84	2300.15
572.20	2298.64
572.55	2297.60
572.90	2295.93
573.26	2294.41
573.61	2292.59
573.96	2290.58
574.31	2287.34
574.67	2284.15
575.02	2280.49
575.37	2276.95
575.72	2272.97
576.08	2269.55
576.43	2266.03
576.78	2262.02
577.13	2258.85
577.49	2255.71
577.84	2252.02
578.19	2248.27
578.54	2244.19
578.90	2239.73
579.25	2233.93
579.60	2229.03
579.95	2223.78
580.30	2218.66
580.66	2213.34
581.01	2208.25
581.36	2203.17
581.71	2198.80
582.06	2194.25
582.42	2189.60
582.77	2184.19
583.12	2179.47
583.47	2174.54
583.82	2169.41
584.17	2164.06
584.53	2158.39
584.88	2152.57
585.23	2146.56
585.58	2140.93
585.93	2135.43
586.28	2130.61
586.63	2125.39
586.98	2120.13
587.34	2115.38
587.69	2110.40
588.04	2104.99
588.39	2099.08
588.74	2092.52
589.09	2086.33
589.44	2079.32
589.79	2073.19
590.14	2067.48
590.49	2060.78
590.84	2054.35
591.19	2048.09
591.54	2041.59
591.89	2034.04
592.25	2027.14
592.60	2019.89
592.95	2012.10
593.30	2004.62
593.65	1996.86
594.00	1989.87
594.35	1982.52
594.70	1974.35
595.05	1966.99
595.40	1959.62
595.75	1952.25
596.10	1945.93
596.45	1939.03
596.80	1932.92
597.15	1926.22
597.50	1919.14
597.85	1912.70
598.19	1905.99
598.54	1898.94
598.89	1892.26
599.24	1886.34
599.59	1879.53
599.94	1873.25
600.29	1866.97
600.64	1860.44
600.99	1852.89
601.34	1845.91
601.69	1838.81
602.04	1831.84
602.39	1824.54
602.74	1817.68
603.08	1810.85
603.43	1804.11
603.78	1796.89
604.13	1789.61
604.48	1782.16
604.83	1775.30
605.18	1768.15
605.53	1760.05
605.87	1752.08
606.22	1744.76
606.57	1736.93
606.92	1729.76
607.27	1722.55
607.62	1715.60
607.96	1708.13
608.31	1701.54
608.66	1693.87
609.01	1686.37
609.36	1678.81
609.70	1670.71
610.05	1662.71
610.40	1655.12
610.75	1646.78
611.10	1639.15
611.44	1630.89
611.79	1622.94
612.14	1614.25
612.49	1605.20
612.83	1597.04
613.18	1588.93
613.53	1580.89
613.88	1572.31
614.22	1564.01
614.57	1555.56
614.92	1547.52
615.27	1540.13
615.61	1531.83
615.96	1523.86
616.31	1516.33
616.65	1509.06
617.00	1501.58
617.35	1493.89
617.70	1485.56
618.04	1477.00
618.39	1468.75
618.74	1461.03
619.08	1452.86
619.43	1445.14
619.78	1438.26
620.12	1430.97
620.47	1423.38
620.82	1415.36
621.16	1407.96
621.51	1400.39
621.85	1392.77
622.20	1384.37
622.55	1376.02
622.89	1368.21
623.24	1360.58
623.59	1353.22
623.93	1345.66
624.28	1338.37
624.62	1330.92
624.97	1323.70
625.32	1317.03
625.66	1309.99
626.01	1302.88
626.35	1295.34
626.70	1287.71
627.04	1280.04
627.39	1272.34
627.73	1265.09
628.08	1258.06
628.43	1250.86
628.77	1243.48
629.12	1235.94
629.46	1228.75
629.81	1221.36
630.15	1214.26
630.50	1206.98
630.84	1198.76
631.19	1190.88
631.53	1183.54
631.88	1175.96
632.22	1168.44
632.57	1161.26
632.91	1153.86
633.26	1146.48
633.60	1139.27
633.95	1132.26
634.29	1125.28
634.64	1118.69
634.98	1111.41
635.32	1104.43
635.67	1097.90
636.01	1091.31
636.36	1084.54
636.70	1078.23
637.05	1071.85
637.39	1065.41
637.73	1058.95
638.08	1053.21
638.42	1047.35
638.77	1040.86
639.11	1034.27
639.45	1027.92
639.80	1021.24
640.14	1014.84
640.49	1008.35
640.83	1002.07
641.17	995.85
641.52	989.59
641.86	983.24
642.20	977.37
642.55	971.07
642.89	964.58
643.23	958.09
643.58	952.40
643.92	946.12
644.26	939.96
644.61	933.93
644.95	927.88
645.29	921.31
645.64	914.61
645.98	908.38
646.32	902.67
646.66	896.63
647.01	890.90
647.35	885.24
647.69	879.46
648.04	874.04
648.38	868.34
648.72	862.39
649.06	856.27
649.41	850.45
649.75	844.46
650.09	838.56
650.43	832.77
650.78	826.54
651.12	820.65
651.46	814.94
651.80	809.18
652.14	803.84
652.49	798.48
652.83	793.26
653.17	787.58
653.51	781.89
653.85	776.54
654.20	770.91
654.54	764.94
654.88	759.23
655.22	753.35
655.56	747.65
655.90	742.17
656.25	736.94
656.59	731.54
656.93	726.49
657.27	721.33
657.61	715.90
657.95	710.92
658.29	705.83
658.64	700.64
658.98	695.41
659.32	689.96
659.66	684.83
660.00	679.57
660.34	674.65
660.68	669.77
661.02	664.78
661.36	660.05
661.70	655.64
662.05	651.37
662.39	647.08
662.73	642.62
663.07	638.32
663.41	633.87
663.75	629.40
664.09	624.88
664.43	620.48
664.77	616.37
665.11	612.10
665.45	608.06
665.79	604.00
666.13	599.88
666.47	595.85
666.81	591.62
667.15	587.56
667.49	583.69
667.83	579.88
668.17	575.94
668.51	571.93
668.85	567.91
669.19	564.04
669.53	560.18
669.87	556.31
670.21	552.61
670.55	549.01
670.89	545.64
671.23	542.20
671.57	538.71
671.91	535.22
672.25	531.76
672.58	528.24
672.92	524.85
673.26	521.74
673.60	518.60
673.94	515.54
674.28	512.70
674.62	509.77
674.96	506.69
675.30	503.80
675.64	500.89
675.97	498.13
676.31	495.26
676.65	492.37
676.99	489.75
677.33	486.93
677.67	484.18
678.01	481.15
678.34	478.25
678.68	475.43
679.02	472.70
679.36	469.99
679.70	467.30
680.04	464.57
680.37	461.66
680.71	458.90
681.05	456.33
681.39	453.61
681.73	451.01
682.06	448.48
682.40	445.97
682.74	443.46
683.08	440.92
683.42	438.36
683.75	435.94
684.09	433.43
684.43	431.00
684.77	428.56
685.10	426.26
685.44	423.95
685.78	421.70
686.12	419.46
686.45	417.21
686.79	414.94
687.13	412.80
687.46	410.75
687.80	408.61
688.14	406.38
688.48	404.36
688.81	402.12
689.15	400.04
689.49	397.95
689.82	395.92
690.16	393.92
690.50	391.98
690.83	389.99
691.17	388.07
691.51	386.17
691.84	384.34
692.18	382.41
692.52	380.46
692.85	378.58
693.19	376.71
693.52	374.92
693.86	373.19
694.20	371.41
694.53	369.63
694.87	367.78
695.21	366.05
695.54	364.25
695.88	362.51
696.21	360.78
696.55	359.12
696.88	357.43
697.22	355.80
697.56	354.20
697.89	352.57
698.23	350.93
698.56	349.31
698.90	347.73
699.23	346.10
699.57	344.54
699.90	342.98
700.24	341.47
700.58	339.86
700.91	338.32
701.25	336.89
701.58	335.47
701.92	334.13
702.25	332.73
702.59	331.36
702.92	330.11
703.26	328.82
703.59	327.49
703.93	326.31
704.26	325.02
704.60	323.73
704.93	322.46
705.26	321.23
705.60	320.06
705.93	318.89
706.27	317.82
706.60	316.78
706.94	315.71
707.27	314.54
707.61	313.53
707.94	312.48
708.27	311.37
708.61	310.31
708.94	309.30
709.28	308.35
709.61	307.39
709.94	306.42
710.28	305.40
710.61	304.44
710.95	303.39
711.28	302.48
711.61	301.55
711.95	300.69
712.28	299.72
712.61	298.76
712.95	297.84
713.28	296.99
713.61	296.06
713.95	295.17
714.28	294.34
714.61	293.52
714.95	292.67
715.28	291.81
715.61	290.94
715.95	290.10
716.28	289.23
716.61	288.38
716.95	287.56
717.28	286.84
717.61	286.06
717.94	285.32
718.28	284.52
718.61	283.80
718.94	283.07
719.27	282.46
719.61	281.82
719.94	281.17
720.27	280.43
720.60	279.79
720.94	279.16
721.27	278.56
721.60	277.99
721.93	277.40
722.27	276.91
722.60	276.33
722.93	275.79
723.26	275.25
723.59	274.73
723.93	274.21
724.26	273.66
724.59	273.12
724.92	272.61
725.25	272.14
725.59	271.59
725.92	271.10
726.25	270.53
726.58	270.03
726.91	269.54
727.24	269.10
727.57	268.70
727.91	268.24
728.24	267.80
728.57	267.32
728.90	266.90
729.23	266.37
729.56	266.01
729.89	265.54
730.22	265.09
730.55	264.63
730.89	264.17
731.22	263.73
731.55	263.32
731.88	262.90
732.21	262.48
732.54	262.09
732.87	261.64
733.20	261.31
733.53	260.94
733.86	260.57
734.19	260.17
734.52	259.79
734.85	259.48
735.18	259.07
735.51	258.71
735.84	258.29
736.17	257.95
736.50	257.52
736.83	257.27
737.16	256.95
737.49	256.59
737.82	256.24
738.15	255.91
738.48	255.56
738.81	255.26
739.14	254.94
739.47	254.62
739.80	254.34
740.13	254.01
740.46	253.69
740.79	253.33
741.12	253.02
741.45	252.72
741.78	252.37
742.11	252.06
742.44	251.71
742.77	251.45
743.10	251.16
743.43	250.88
743.75	250.52
744.08	250.37
744.41	250.10
744.74	249.85
745.07	249.57
745.40	249.29
745.73	249.06
746.06	248.78
746.39	248.54
746.71	248.25
747.04	247.98
747.37	247.69
747.70	247.43
748.03	247.21
748.36	246.95
748.68	246.71
749.01	246.48
749.34	246.28
749.67	246.05
750.00	245.83
750.33	245.69
750.65	245.47
750.98	245.11
751.31	244.88
751.64	244.66
751.97	244.54
752.29	244.32
752.62	244.03
752.95	243.82
753.28	243.58
753.60	243.39
753.93	243.21
754.26	243.02
754.59	242.83
754.91	242.61
755.24	242.41
755.57	242.22
755.90	242.04
756.22	241.84
756.55	241.65
756.88	241.48
757.20	241.21
757.53	240.98
757.86	240.80
758.19	240.66
758.51	240.49
758.84	240.22
759.17	240.05
759.49	239.96
759.82	239.83
760.15	239.66
760.47	239.49
760.80	239.31
761.13	239.20
761.45	239.05
761.78	238.91
762.11	238.78
762.43	238.64
762.76	238.48
763.08	238.36
763.41	238.23
763.74	238.07
764.06	237.94
764.39	237.81
764.71	237.65
765.04	237.54
765.37	237.40
765.69	237.30
766.02	237.18
766.34	237.01
766.67	236.86
767.00	236.78
767.32	236.72
767.65	236.68
767.97	236.53
768.30	236.41
768.62	236.32
768.95	236.16
769.27	236.04
769.60	235.95
769.92	235.81
770.25	235.64
770.57	235.54
770.90	235.44
771.22	235.34
771.55	235.27
771.87	235.15
772.20	235.06
772.52	235.06
772.85	235.07
773.17	235.00
773.50	234.91
773.82	234.82
774.15	234.70
774.47	234.57
774.80	234.49
775.12	234.44
775.45	234.35
775.77	234.31
776.09	234.21
776.42	234.11
776.74	234.09
777.07	234.05
777.39	233.98
777.72	233.89
778.04	233.81
778.36	233.76
778.69	233.71
779.01	233.64
779.33	233.48
779.66	233.31
779.98	233.22
780.31	233.17
780.63	233.14
780.95	233.10
781.28	233.02
781.60	232.93
781.92	232.83
782.25	232.76
782.57	232.67
782.89	232.64
783.22	232.60
783.54	232.54
783.86	232.48
784.19	232.44
784.51	232.42
784.83	232.37
785.16	232.26
785.48	232.18
785.80	232.12
786.12	232.08
786.45	232.05
786.77	231.97
787.09	231.93
787.42	231.83
787.74	231.80
788.06	231.74
788.38	231.72
788.71	231.70
789.03	231.65
789.35	231.66
789.67	231.55
789.99	231.50
790.32	231.40
790.64	231.36
790.96	231.36
791.28	231.28
791.61	231.23
791.93	231.23
792.25	231.19
792.57	231.26
792.89	231.22
793.21	231.19
793.54	231.17
793.86	231.13
794.18	231.09
794.50	231.03
794.82	230.98
795.14	230.95
795.47	230.90
795.79	230.87
796.11	230.79
796.43	230.81
796.75	230.78
797.07	230.78
797.39	230.74
797.71	230.63
798.04	230.59
798.36	230.58
798.68	230.54
799.00	230.54
799.32	230.44
799.64	230.39
799.96	230.35
800.28	230.33
800.60	230.27
800.92	230.27
801.24	230.22
801.56	230.22
801.89	230.18
802.21	230.16
802.53	230.10
802.85	230.11
803.17	230.11
803.49	230.04
803.81	229.96
804.13	229.94
804.45	229.92
804.77	229.92
805.09	229.86
805.41	229.84
805.73	229.78
806.05	229.70
806.37	229.66
806.69	229.60
807.01	229.57
807.33	229.56
807.65	229.49
807.97	229.51
808.28	229.47
808.60	229.44
808.92	229.41
809.24	229.42
809.56	229.38
809.88	229.35
810.20	229.36
810.52	229.40
810.84	229.39
811.16	229.33
811.48	229.29
811.80	229.30
812.12	229.31
812.43	229.31
812.75	229.32
813.07	229.32
813.39	229.33
813.71	229.28
814.03	229.25
814.35	229.23
814.67	229.17
814.98	229.11
815.30	229.10
815.62	229.05
815.94	229.02
816.26	229.06
816.58	229.00
816.89	228.99
817.21	228.92
817.53	228.89
817.85	228.92
818.17	228.94
818.48	228.90
818.80	228.89
819.12	228.84
819.44	228.80
819.76	228.77
820.07	228.76
820.39	228.74
820.71	228.76
821.03	228.75
821.34	228.75
821.66	228.78
821.98	228.75
822.30	228.75
822.61	228.75
822.93	228.71
823.25	228.72
823.57	228.69
823.88	228.75
824.20	228.75
824.52	228.78
824.83	228.75
825.15	228.72
825.47	228.70
825.79	228.72
826.10	228.72
826.42	228.71
826.74	228.71
827.05	228.72
827.37	228.71
827.69	228.70
828.00	228.66
828.32	228.65
828.64	228.66
828.95	228.71
829.27	228.71
829.58	228.68
829.90	228.66
830.22	228.67
830.53	228.59
830.85	228.55
831.17	228.47
831.48	228.47
831.80	228.46
832.11	228.45
832.43	228.38
832.75	228.36
833.06	228.39
833.38	228.35
833.69	228.36
834.01	228.33
834.32	228.31
834.64	228.32
834.96	228.31
835.27	228.30
835.59	228.22
835.90	228.18
836.22	228.18
836.53	228.17
836.85	228.13
837.16	228.23
837.48	228.24
837.79	228.27
838.11	228.25
838.42	228.25
838.74	228.24
839.05	228.25
839.37	228.22
839.68	228.20
840.00	228.17
840.31	228.16
840.63	228.12
840.94	228.12
841.26	228.10
841.57	228.10
841.88	228.08
842.20	228.09
842.51	228.04
842.83	228.01
843.14	228.07
843.46	228.06
843.77	228.00
844.08	227.97
844.40	227.93
844.71	227.93
845.03	227.90
845.34	227.90
845.65	227.87
845.97	227.87
846.28	227.81
846.60	227.82
846.91	227.79
847.22	227.79
847.54	227.81
847.85	227.79
848.16	227.73
848.48	227.68
848.79	227.70
849.10	227.75
849.42	227.76
849.73	227.67
850.04	227.67
850.36	227.66
850.67	227.69
850.98	227.67
851.30	227.66
851.61	227.67
851.92	227.68
852.23	227.74
852.55	227.75
852.86	227.76
853.17	227.78
853.49	227.81
853.80	227.84
854.11	227.84
854.42	227.85
854.74	227.88
855.05	227.93
855.36	227.91
855.67	227.90
855.99	227.89
856.30	228.00
856.61	228.00
856.92	227.98
857.23	227.99
857.55	228.01
857.86	228.01
858.17	228.00
858.48	227.98
858.79	227.98
859.11	227.98
859.42	227.96
859.73	227.92
860.04	227.91
860.35	227.87
860.66	227.88
860.98	227.91
861.29	227.92
861.60	227.89
861.91	227.91
862.22	227.90
862.53	227.88
862.84	227.76
863.16	227.79
863.47	227.77
863.78	227.80
864.09	227.78
864.40	227.79
864.71	227.84
865.02	227.81
865.33	227.77
865.64	227.76
865.95	227.80
866.27	227.88
866.58	227.89
866.89	227.92
867.20	227.90
867.51	227.85
867.82	227.85
868.13	227.85
868.44	227.82
868.75	227.84
869.06	227.85
869.37	227.85
869.68	227.82
869.99	227.84
870.30	227.80
870.61	227.81
870.92	227.77
871.23	227.74
871.54	227.77
871.85	227.80
872.16	227.79
872.47	227.77
872.78	227.69
873.09	227.67
873.40	227.64
873.71	227.63
874.02	227.66
874.33	227.65
874.64	227.61
874.95	227.62
875.26	227.57
875.56	227.59
875.87	227.63
876.18	227.61
876.49	227.69
876.80	227.68
877.11	227.67
877.42	227.66
877.73	227.66
878.04	227.63
878.35	227.61
878.66	227.61
878.96	227.59
879.27	227.60
879.58	227.59
879.89	227.60
880.20	227.63
880.51	227.61
880.82	227.60
881.12	227.65
881.43	227.65
881.74	227.64
882.05	227.61
882.36	227.56
882.67	227.56
882.97	227.44
883.28	227.44
883.59	227.43
883.90	227.46
884.21	227.46
884.51	227.47
884.82	227.48
885.13	227.48
885.44	227.47
885.74	227.48
886.05	227.46
886.36	227.46
886.67	227.40
886.98	227.47
887.28	227.47
887.59	227.42
887.90	227.43
888.20	227.44
888.51	227.47
888.82	227.47
889.13	227.47
889.43	227.55
889.74	227.55
890.05	227.55
890.35	227.55
890.66	227.56
890.97	227.54
891.28	227.54
891.58	227.56
891.89	227.56
892.20	227.51
892.50	227.52
892.81	227.49
893.12	227.49
893.42	227.42
893.73	227.45
894.04	227.48
894.34	227.49
894.65	227.52
894.95	227.50
895.26	227.53
895.57	227.56
895.87	227.47
896.18	227.47
896.48	227.45
896.79	227.44
897.10	227.45
897.40	227.47
897.71	227.45
898.01	227.41
898.32	227.44
898.63	227.45
898.93	227.46
899.24	227.48
899.54	227.49
899.85	227.46
900.15	227.45
900.46	227.46
900.76	227.47
901.07	227.45
901.38	227.44
901.68	227.43
901.99	227.41
902.29	227.43
902.60	227.42
902.90	227.44
903.21	227.40
903.51	227.41
903.82	227.42
904.12	227.44
904.43	227.49
904.73	227.53
905.03	227.53
905.34	227.60
905.64	227.60
905.95	227.63
906.25	227.66
906.56	227.66
906.86	227.66
907.17	227.62
907.47	227.63
907.77	227.65
908.08	227.64
908.38	227.60
908.69	227.59
908.99	227.63
909.30	227.62
909.60	227.64
909.90	227.60
910.21	227.58
910.51	227.56
910.81	227.53
911.12	227.51
911.42	227.55
911.73	227.45
912.03	227.43
912.33	227.40
912.64	227.38
912.94	227.35
913.24	227.32
913.55	227.32
913.85	227.29
914.15	227.25
914.46	227.25
914.76	227.27
915.06	227.26
915.37	227.21
915.67	227.21
915.97	227.22
916.27	227.20
916.58	227.20
916.88	227.17
917.18	227.18
917.49	227.20
917.79	227.16
918.09	227.14
918.39	227.18
918.70	227.20
919.00	227.18
919.30	227.21
919.60	227.20
919.91	227.19
920.21	227.20
920.51	227.20
920.81	227.21
921.12	227.20
921.42	227.20
921.72	227.22
922.02	227.22
922.32	227.22
922.63	227.21
922.93	227.23
923.23	227.25
923.53	227.21
923.83	227.19
924.13	227.21
924.44	227.22
924.74	227.24
925.04	227.26
925.34	227.27
925.64	227.24
925.94	227.22
926.24	227.27
926.55	227.26
926.85	227.27
927.15	227.28
927.45	227.29
927.75	227.31
928.05	227.32
928.35	227.28
928.65	227.27
928.95	227.30
929.26	227.26
929.56	227.27
929.86	227.29
930.16	227.27
930.46	227.26
930.76	227.27
931.06	227.23
931.36	227.17
931.66	227.23
931.96	227.25
932.26	227.27
932.56	227.25
932.86	227.25
933.16	227.25
933.46	227.21
933.76	227.20
934.06	227.22
934.36	227.23
934.66	227.27
934.96	227.30
935.26	227.28
935.56	227.32
935.86	227.29
936.16	227.30
936.46	227.29
936.76	227.28
937.06	227.28
937.36	227.28
937.66	227.33
937.96	227.31
938.26	227.29
938.56	227.30
938.86	227.31
939.16	227.35
939.46	227.38
939.76	227.41
940.06	227.42
940.35	227.41
940.65	227.38
940.95	227.35
941.25	227.32
941.55	227.33
941.85	227.31
942.15	227.36
942.45	227.35
942.75	227.34
943.04	227.35
943.34	227.37
943.64	227.34
943.94	227.32
944.24	227.29
944.54	227.30
944.84	227.31
945.13	227.27
945.43	227.23
945.73	227.18
946.03	227.16
946.33	227.13
946.62	227.09
946.92	227.07
947.22	227.10
947.52	227.10
947.82	227.11
948.11	227.12
948.41	227.08
948.71	227.06
949.01	227.07
949.31	227.08
949.60	227.06
949.90	227.09
950.20	227.07
950.50	227.06
950.79	227.05
951.09	227.05
951.39	227.05
951.69	227.08
951.98	227.14
952.28	227.14
952.58	227.14
952.87	227.16
953.17	227.18
953.47	227.14
953.76	227.15
954.06	227.11
954.36	227.06
954.66	227.06
954.95	227.08
955.25	227.10
955.55	227.07
955.84	227.04
956.14	227.04
956.44	227.00
956.73	227.03
957.03	227.01
957.32	227.02
957.62	227.03
957.92	227.02
958.21	226.99
958.51	227.10
958.81	227.11
959.10	227.11
959.40	227.14
959.69	227.17
959.99	227.20
960.29	227.22
960.58	227.22
960.88	227.27
961.17	227.29
961.47	227.27
961.76	227.29
962.06	227.34
962.36	227.35
962.65	227.37
962.95	227.35
963.24	227.36
963.54	227.34
963.83	227.32
964.13	227.32
964.42	227.31
964.72	227.21
965.01	227.18
965.31	227.17
965.60	227.13
965.90	227.21
966.19	227.20
966.49	227.20
966.78	227.22
967.08	227.24
967.37	227.25
967.67	227.29
967.96	227.28
968.26	227.23
968.55	227.26
968.85	227.27
969.14	227.27
969.43	227.27
969.73	227.29
970.02	227.30
970.32	227.34
970.61	227.32
970.91	227.34
971.20	227.36
971.49	227.40
971.79	227.42
972.08	227.33
972.38	227.31
972.67	227.33
972.96	227.33
973.26	227.30
973.55	227.31
973.85	227.27
974.14	227.27
974.43	227.32
974.73	227.28
975.02	227.28
975.31	227.30
975.61	227.30
975.90	227.27
976.19	227.25
976.49	227.20
976.78	227.22
977.07	227.21
977.37	227.24
977.66	227.22
977.95	227.18
978.24	227.22
978.54	227.26
978.83	227.26
979.12	227.28
979.42	227.26
979.71	227.24
980.00	227.23
980.29	227.23
980.59	227.18
980.88	227.22
981.17	227.23
981.46	227.19
981.76	227.20
982.05	227.26
982.34	227.28
982.63	227.31
982.93	227.33
983.22	227.36
983.51	227.35
983.80	227.37
984.09	227.40
984.39	227.36
984.68	227.34
984.97	227.34
985.26	227.35
985.55	227.36
985.85	227.33
986.14	227.38
986.43	227.37
986.72	227.36
987.01	227.31
987.30	227.32
987.59	227.34
987.89	227.34
988.18	227.29
988.47	227.26
988.76	227.25
989.05	227.24
989.34	227.22
989.63	227.23
989.92	227.20
990.22	227.18
990.51	227.21
990.80	227.18
991.09	227.18
991.38	227.16
991.67	227.13
991.96	227.15
992.25	227.13
992.54	227.11
992.83	227.15
993.12	227.18
993.41	227.18
993.70	227.20
993.99	227.22
994.28	227.23
994.58	227.27
994.87	227.23
995.16	227.23
995.45	227.20
995.74	227.17
996.03	227.18
996.32	227.20
996.61	227.19
996.90	227.19
997.19	227.18
997.48	227.16
997.77	227.19
998.06	227.17
998.34	227.13
998.63	227.17
998.92	227.15
999.21	227.14
999.50	227.15
999.79	227.11
1000.08	227.10
1000.37	227.11
1000.66	227.09
1000.95	227.13
1001.24	227.10
1001.53	227.13
1001.82	227.16
1002.11	227.15
1002.40	227.17
1002.68	227.21
1002.97	227.29
1003.26	227.30
1003.55	227.28
1003.84	227.25
1004.13	227.30
1004.42	227.30
1004.71	227.27
1004.99	227.24
1005.28	227.28
1005.57	227.26
1005.86	227.24
1006.15	227.20
1006.44	227.20
1006.72	227.19
1007.01	227.21
1007.30	227.19
1007.59	227.16
1007.88	227.14
1008.17	227.13
1008.45	227.12
1008.74	227.09
1009.03	227.03
1009.32	227.00
1009.60	226.99
1009.89	226.98
1010.18	226.92
1010.47	226.91
1010.76	226.91
1011.04	226.96
1011.33	226.93
1011.62	226.93
1011.91	226.96
1012.19	226.97
1012.48	226.94
1012.77	226.95
1013.05	226.95
1013.34	226.97
1013.63	226.97
1013.92	226.97
1014.20	226.95
1014.49	226.95
1014.78	226.94
1015.06	226.90
1015.35	226.86
1015.64	226.92
1015.92	226.97
1016.21	226.98
1016.50	226.98
1016.78	227.02
1017.07	226.98
1017.36	226.93
1017.64	226.93
1017.93	226.92
1018.22	226.95
1018.50	226.97
1018.79	226.95
1019.08	226.90
1019.36	226.94
1019.65	226.93
1019.93	226.96
1020.22	226.98
1020.51	227.00
1020.79	226.97
1021.08	227.38
1021.36	226.80
1021.65	227.01
1021.94	226.51
1022.22	227.76
1022.51	226.96
1022.79	227.40
1023.08	226.91
1023.36	227.84
1023.65	226.42
>>>>>End Processed Spectral Data<<<<<
