SpectraSuite Data File
++++++++++++++++++++++++++++++++++++
Date: Fri Feb 01 15:57:14 EST 2013
User: group
Dark Spectrum Present: No
Reference Spectrum Present: No
Number of Sampled Component Spectra: 1
Spectrometers: USB2E7196
Integration Time (usec): 35000 (USB2E7196)
Spectra Averaged: 100 (USB2E7196)
Boxcar Smoothing: 10 (USB2E7196)
Correct for Electrical Dark: No (USB2E7196)
Strobe/Lamp Enabled: No (USB2E7196)
Correct for Detector Non-linearity: No (USB2E7196)
Correct for Stray Light: No (USB2E7196)
Number of Pixels in Processed Spectrum: 2048
>>>>>Begin Processed Spectral Data<<<<<
339.09	0.00
339.48	214.86
339.86	216.55
340.24	217.86
340.63	219.52
341.01	221.99
341.39	221.38
341.78	222.68
342.16	223.94
342.54	224.71
342.93	213.19
343.31	223.96
343.69	224.50
344.07	224.95
344.46	225.37
344.84	225.74
345.22	225.95
345.60	226.22
345.99	226.44
346.37	226.59
346.75	226.70
347.13	226.76
347.52	226.82
347.90	226.90
348.28	226.89
348.66	226.93
349.05	226.94
349.43	226.99
349.81	227.01
350.19	227.04
350.57	227.11
350.96	227.15
351.34	227.24
351.72	227.31
352.10	227.39
352.48	227.44
352.87	227.50
353.25	227.56
353.63	227.60
354.01	227.68
354.39	227.73
354.77	227.78
355.15	227.90
355.54	227.94
355.92	227.92
356.30	227.98
356.68	228.12
357.06	228.17
357.44	228.19
357.82	228.26
358.20	228.35
358.58	228.36
358.97	228.44
359.35	228.51
359.73	228.59
360.11	228.64
360.49	228.72
360.87	228.72
361.25	228.80
361.63	228.89
362.01	228.94
362.39	228.94
362.77	228.98
363.15	228.97
363.53	229.04
363.91	229.09
364.29	229.11
364.67	229.02
365.05	229.05
365.43	229.08
365.81	229.11
366.19	229.15
366.57	229.24
366.95	229.18
367.33	229.16
367.71	229.15
368.09	229.14
368.47	229.14
368.85	229.13
369.23	229.10
369.61	229.02
369.99	229.00
370.37	229.01
370.75	229.05
371.13	229.01
371.51	228.95
371.89	228.96
372.27	228.94
372.65	228.88
373.03	228.87
373.41	228.84
373.78	228.76
374.16	228.67
374.54	228.57
374.92	228.54
375.30	228.48
375.68	228.43
376.06	228.37
376.44	228.29
376.82	228.26
377.19	228.19
377.57	228.15
377.95	228.04
378.33	227.97
378.71	227.82
379.09	227.77
379.47	227.73
379.84	227.64
380.22	227.59
380.60	227.54
380.98	227.44
381.36	227.38
381.73	227.32
382.11	227.27
382.49	227.22
382.87	227.16
383.25	227.10
383.62	227.12
384.00	227.05
384.38	226.98
384.76	226.95
385.13	226.97
385.51	226.92
385.89	226.88
386.27	226.87
386.64	226.86
387.02	226.81
387.40	226.73
387.78	226.68
388.15	226.62
388.53	226.59
388.91	226.56
389.29	226.54
389.66	226.52
390.04	226.49
390.42	226.46
390.79	226.44
391.17	226.41
391.55	226.32
391.92	226.36
392.30	226.36
392.68	226.33
393.05	226.30
393.43	226.31
393.81	226.34
394.18	226.33
394.56	226.33
394.94	226.36
395.31	226.38
395.69	226.41
396.06	226.42
396.44	226.46
396.82	226.46
397.19	226.53
397.57	226.54
397.95	226.58
398.32	226.58
398.70	226.65
399.07	226.72
399.45	226.76
399.82	226.81
400.20	226.84
400.58	226.90
400.95	226.95
401.33	227.03
401.70	227.18
402.08	227.22
402.45	227.30
402.83	227.41
403.20	227.52
403.58	227.62
403.95	227.77
404.33	227.90
404.71	228.04
405.08	228.21
405.46	228.35
405.83	228.50
406.21	228.65
406.58	228.81
406.96	228.98
407.33	229.15
407.70	229.31
408.08	229.58
408.45	229.81
408.83	230.06
409.20	230.25
409.58	230.38
409.95	230.65
410.33	230.92
410.70	231.14
411.08	231.42
411.45	231.70
411.82	231.97
412.20	232.34
412.57	232.73
412.95	233.01
413.32	233.41
413.69	233.81
414.07	234.26
414.44	234.72
414.82	235.21
415.19	235.75
415.56	236.31
415.94	236.84
416.31	237.47
416.68	238.06
417.06	238.79
417.43	239.49
417.81	240.28
418.18	241.06
418.55	241.95
418.93	242.88
419.30	243.79
419.67	244.76
420.04	245.74
420.42	246.74
420.79	247.93
421.16	249.11
421.54	250.31
421.91	251.54
422.28	252.79
422.66	254.12
423.03	255.42
423.40	256.76
423.77	258.18
424.15	259.65
424.52	261.15
424.89	262.74
425.26	264.29
425.64	265.76
426.01	267.38
426.38	269.00
426.75	270.65
427.13	272.35
427.50	274.14
427.87	276.00
428.24	277.87
428.61	279.63
428.99	281.57
429.36	283.70
429.73	285.75
430.10	287.77
430.47	289.81
430.85	291.94
431.22	294.17
431.59	296.58
431.96	298.80
432.33	301.28
432.70	303.66
433.08	306.48
433.45	309.12
433.82	311.72
434.19	314.60
434.56	317.39
434.93	320.10
435.30	322.73
435.68	325.61
436.05	328.44
436.42	331.21
436.79	333.71
437.16	336.39
437.53	339.22
437.90	342.03
438.27	344.77
438.64	347.59
439.01	350.20
439.38	352.42
439.75	354.56
440.13	357.04
440.50	359.36
440.87	361.17
441.24	363.08
441.61	365.25
441.98	366.75
442.35	368.55
442.72	370.39
443.09	372.23
443.46	373.19
443.83	373.78
444.20	374.28
444.57	375.11
444.94	375.40
445.31	375.74
445.68	376.12
446.05	376.16
446.42	375.76
446.79	375.34
447.16	374.85
447.53	374.51
447.90	373.35
448.27	372.18
448.64	370.60
449.01	369.44
449.37	367.45
449.74	365.52
450.11	363.26
450.48	360.72
450.85	358.13
451.22	355.98
451.59	353.94
451.96	352.02
452.33	349.40
452.70	347.03
453.07	344.20
453.43	341.32
453.80	338.57
454.17	335.88
454.54	333.29
454.91	330.58
455.28	327.94
455.65	325.45
456.02	323.04
456.38	320.90
456.75	318.27
457.12	316.02
457.49	313.81
457.86	311.63
458.23	309.82
458.59	307.81
458.96	305.74
459.33	303.87
459.70	301.97
460.07	300.47
460.43	298.72
460.80	297.11
461.17	295.63
461.54	294.16
461.91	292.77
462.27	291.36
462.64	290.12
463.01	288.79
463.38	287.55
463.74	286.17
464.11	285.02
464.48	284.01
464.85	282.92
465.21	282.10
465.58	281.21
465.95	280.10
466.32	279.18
466.68	278.29
467.05	277.45
467.42	276.61
467.78	275.69
468.15	274.88
468.52	274.22
468.88	273.37
469.25	272.61
469.62	271.98
469.98	271.33
470.35	270.74
470.72	270.13
471.08	269.45
471.45	268.94
471.82	268.41
472.18	267.83
472.55	267.41
472.92	266.91
473.28	266.45
473.65	266.07
474.02	265.65
474.38	265.31
474.75	264.96
475.11	264.63
475.48	264.39
475.85	264.13
476.21	263.94
476.58	263.79
476.94	263.65
477.31	263.51
477.67	263.35
478.04	263.23
478.41	263.16
478.77	263.21
479.14	263.15
479.50	263.13
479.87	263.18
480.23	263.25
480.60	263.30
480.96	263.40
481.33	263.61
481.69	263.80
482.06	264.01
482.42	264.23
482.79	264.48
483.15	264.80
483.52	265.23
483.88	265.58
484.25	265.94
484.61	266.35
484.98	266.77
485.34	267.35
485.71	267.91
486.07	268.55
486.44	269.12
486.80	269.82
487.17	270.57
487.53	271.42
487.90	272.26
488.26	273.16
488.62	274.14
488.99	275.07
489.35	276.13
489.72	277.21
490.08	278.40
490.44	279.64
490.81	280.96
491.17	282.25
491.54	283.67
491.90	285.25
492.26	286.92
492.63	288.65
492.99	290.42
493.36	292.31
493.72	294.32
494.08	296.47
494.45	298.70
494.81	301.06
495.17	303.45
495.54	306.04
495.90	308.72
496.26	311.53
496.63	314.48
496.99	317.58
497.35	320.88
497.72	324.25
498.08	327.73
498.44	331.40
498.80	335.36
499.17	339.43
499.53	343.59
499.89	347.98
500.26	352.50
500.62	357.18
500.98	362.16
501.34	367.22
501.71	372.50
502.07	377.93
502.43	383.58
502.79	389.39
503.16	395.43
503.52	401.74
503.88	408.14
504.24	414.74
504.60	421.62
504.97	428.72
505.33	436.06
505.69	443.74
506.05	451.51
506.41	459.43
506.78	467.56
507.14	475.98
507.50	484.68
507.86	493.65
508.22	502.90
508.59	512.11
508.95	521.76
509.31	531.56
509.67	541.75
510.03	552.04
510.39	562.65
510.75	573.45
511.12	584.41
511.48	595.72
511.84	607.16
512.20	618.67
512.56	630.68
512.92	642.89
513.28	655.30
513.64	667.82
514.00	680.42
514.37	693.40
514.73	706.39
515.09	719.35
515.45	732.64
515.81	746.14
516.17	760.07
516.53	774.16
516.89	788.42
517.25	802.53
517.61	816.89
517.97	831.29
518.33	845.82
518.69	860.55
519.05	875.53
519.41	890.75
519.77	906.23
520.13	921.63
520.49	936.95
520.85	952.31
521.21	967.99
521.57	984.31
521.93	1000.13
522.29	1016.59
522.65	1032.95
523.01	1049.16
523.37	1065.25
523.73	1081.42
524.09	1097.36
524.45	1113.62
524.81	1130.21
525.17	1147.00
525.53	1163.91
525.89	1180.63
526.25	1197.45
526.61	1213.85
526.97	1230.55
527.33	1247.09
527.68	1263.60
528.04	1280.05
528.40	1296.50
528.76	1313.47
529.12	1329.99
529.48	1346.79
529.84	1362.78
530.20	1379.29
530.56	1396.26
530.91	1413.65
531.27	1430.36
531.63	1446.83
531.99	1463.38
532.35	1479.27
532.71	1495.15
533.07	1511.27
533.42	1527.14
533.78	1543.05
534.14	1559.38
534.50	1574.61
534.86	1590.42
535.21	1605.67
535.57	1621.56
535.93	1637.10
536.29	1651.86
536.65	1666.77
537.00	1681.41
537.36	1696.59
537.72	1711.14
538.08	1725.43
538.44	1739.02
538.79	1752.90
539.15	1766.65
539.51	1780.43
539.87	1794.81
540.22	1808.58
540.58	1822.32
540.94	1835.62
541.29	1848.58
541.65	1861.08
542.01	1874.60
542.37	1886.90
542.72	1899.27
543.08	1911.03
543.44	1923.37
543.79	1934.60
544.15	1945.57
544.51	1957.25
544.87	1968.32
545.22	1978.91
545.58	1989.26
545.94	1999.06
546.29	2008.95
546.65	2018.81
547.01	2027.89
547.36	2036.57
547.72	2045.01
548.07	2052.86
548.43	2061.06
548.79	2069.07
549.14	2076.63
549.50	2083.70
549.86	2091.30
550.21	2098.57
550.57	2105.74
550.92	2112.28
551.28	2119.32
551.64	2126.37
551.99	2132.89
552.35	2139.01
552.70	2145.42
553.06	2151.40
553.41	2157.80
553.77	2163.76
554.13	2169.71
554.48	2175.83
554.84	2181.29
555.19	2186.43
555.55	2191.64
555.90	2196.07
556.26	2200.88
556.61	2205.62
556.97	2209.86
557.32	2214.08
557.68	2218.32
558.03	2222.68
558.39	2226.45
558.74	2231.23
559.10	2235.12
559.45	2238.71
559.81	2242.97
560.16	2246.71
560.52	2249.91
560.87	2253.26
561.23	2256.04
561.58	2259.13
561.94	2261.75
562.29	2264.17
562.64	2266.84
563.00	2269.42
563.35	2272.95
563.71	2275.98
564.06	2279.05
564.42	2281.96
564.77	2284.40
565.12	2286.52
565.48	2288.28
565.83	2290.06
566.19	2291.29
566.54	2292.22
566.89	2293.31
567.25	2293.88
567.60	2295.11
567.96	2296.81
568.31	2297.74
568.66	2298.88
569.02	2299.46
569.37	2299.71
569.72	2300.49
570.08	2300.69
570.43	2300.65
570.78	2300.02
571.14	2298.69
571.49	2297.61
571.84	2297.28
572.20	2296.13
572.55	2295.11
572.90	2293.67
573.26	2292.56
573.61	2290.89
573.96	2289.20
574.31	2286.26
574.67	2283.12
575.02	2279.56
575.37	2276.12
575.72	2272.36
576.08	2268.96
576.43	2265.39
576.78	2261.78
577.13	2258.67
577.49	2255.62
577.84	2252.15
578.19	2248.43
578.54	2244.84
578.90	2240.51
579.25	2235.03
579.60	2230.09
579.95	2225.15
580.30	2220.23
580.66	2214.92
581.01	2209.93
581.36	2204.92
581.71	2200.86
582.06	2196.43
582.42	2192.01
582.77	2186.75
583.12	2182.21
583.47	2177.46
583.82	2172.58
584.17	2167.27
584.53	2161.67
584.88	2155.97
585.23	2150.25
585.58	2144.84
585.93	2139.20
586.28	2134.42
586.63	2129.29
586.98	2124.22
587.34	2119.47
587.69	2114.57
588.04	2109.27
588.39	2103.59
588.74	2097.24
589.09	2090.88
589.44	2084.20
589.79	2078.22
590.14	2072.71
590.49	2066.00
590.84	2059.65
591.19	2053.70
591.54	2047.28
591.89	2039.86
592.25	2033.12
592.60	2025.99
592.95	2018.41
593.30	2011.19
593.65	2003.69
594.00	1996.68
594.35	1989.39
594.70	1981.38
595.05	1974.09
595.40	1966.88
595.75	1959.33
596.10	1953.16
596.45	1946.52
596.80	1940.43
597.15	1933.75
597.50	1926.66
597.85	1920.17
598.19	1913.56
598.54	1906.42
598.89	1899.80
599.24	1894.09
599.59	1887.36
599.94	1881.25
600.29	1874.95
600.64	1868.35
600.99	1860.73
601.34	1853.85
601.69	1847.06
602.04	1840.20
602.39	1832.73
602.74	1825.80
603.08	1819.12
603.43	1812.34
603.78	1805.03
604.13	1797.84
604.48	1790.50
604.83	1783.61
605.18	1776.72
605.53	1768.67
605.87	1760.65
606.22	1753.45
606.57	1745.50
606.92	1738.15
607.27	1730.78
607.62	1723.85
607.96	1716.56
608.31	1710.05
608.66	1702.42
609.01	1694.77
609.36	1687.19
609.70	1679.34
610.05	1671.40
610.40	1663.72
610.75	1655.32
611.10	1647.69
611.44	1639.35
611.79	1631.42
612.14	1622.58
612.49	1613.45
612.83	1605.10
613.18	1597.01
613.53	1588.80
613.88	1580.17
614.22	1571.90
614.57	1563.40
614.92	1555.34
615.27	1547.75
615.61	1539.39
615.96	1531.30
616.31	1523.69
616.65	1516.28
617.00	1508.63
617.35	1500.98
617.70	1492.59
618.04	1484.27
618.39	1476.02
618.74	1468.29
619.08	1459.91
619.43	1452.50
619.78	1445.53
620.12	1438.32
620.47	1430.72
620.82	1422.57
621.16	1415.31
621.51	1407.79
621.85	1400.19
622.20	1391.57
622.55	1383.18
622.89	1375.30
623.24	1367.84
623.59	1360.50
623.93	1352.99
624.28	1345.79
624.62	1338.09
624.97	1330.97
625.32	1324.12
625.66	1317.11
626.01	1309.95
626.35	1302.52
626.70	1294.71
627.04	1286.95
627.39	1279.19
627.73	1271.83
628.08	1265.08
628.43	1257.68
628.77	1250.28
629.12	1242.62
629.46	1235.56
629.81	1228.19
630.15	1221.06
630.50	1213.60
630.84	1205.40
631.19	1197.55
631.53	1190.04
631.88	1182.62
632.22	1174.97
632.57	1167.67
632.91	1160.19
633.26	1152.80
633.60	1145.52
633.95	1138.48
634.29	1131.62
634.64	1124.90
634.98	1117.57
635.32	1110.33
635.67	1103.72
636.01	1097.11
636.36	1090.38
636.70	1083.85
637.05	1077.30
637.39	1070.73
637.73	1064.21
638.08	1058.26
638.42	1052.23
638.77	1045.83
639.11	1039.21
639.45	1032.88
639.80	1026.26
640.14	1019.89
640.49	1013.39
640.83	1006.99
641.17	1000.75
641.52	994.29
641.86	987.83
642.20	981.98
642.55	975.70
642.89	969.23
643.23	962.69
643.58	956.86
643.92	950.66
644.26	944.49
644.61	938.49
644.95	932.40
645.29	925.82
645.64	919.07
645.98	912.72
646.32	906.88
646.66	900.81
647.01	894.93
647.35	889.14
647.69	883.23
648.04	877.69
648.38	871.94
648.72	865.90
649.06	859.87
649.41	853.99
649.75	847.97
650.09	842.03
650.43	836.24
650.78	830.15
651.12	824.17
651.46	818.55
651.80	812.78
652.14	807.44
652.49	802.06
652.83	796.93
653.17	791.18
653.51	785.46
653.85	780.09
654.20	774.43
654.54	768.39
654.88	762.72
655.22	756.85
655.56	751.16
655.90	745.81
656.25	740.60
656.59	735.19
656.93	730.13
657.27	724.96
657.61	719.48
657.95	714.32
658.29	709.30
658.64	704.05
658.98	698.80
659.32	693.36
659.66	688.18
660.00	682.85
660.34	677.96
660.68	673.00
661.02	667.89
661.36	663.19
661.70	658.68
662.05	654.28
662.39	650.02
662.73	645.54
663.07	641.10
663.41	636.66
663.75	632.15
664.09	627.56
664.43	623.19
664.77	619.11
665.11	614.87
665.45	610.67
665.79	606.61
666.13	602.46
666.47	598.36
666.81	594.18
667.15	590.07
667.49	586.16
667.83	582.34
668.17	578.44
668.51	574.35
668.85	570.30
669.19	566.45
669.53	562.53
669.87	558.64
670.21	554.94
670.55	551.25
670.89	547.88
671.23	544.46
671.57	540.95
671.91	537.35
672.25	533.85
672.58	530.39
672.92	526.94
673.26	523.76
673.60	520.63
673.94	517.58
674.28	514.64
674.62	511.67
674.96	508.59
675.30	505.73
675.64	502.81
675.97	500.12
676.31	497.22
676.65	494.33
676.99	491.66
677.33	488.84
677.67	486.11
678.01	482.99
678.34	479.98
678.68	477.09
679.02	474.32
679.36	471.56
679.70	468.79
680.04	466.01
680.37	463.17
680.71	460.41
681.05	457.78
681.39	455.06
681.73	452.45
682.06	449.93
682.40	447.38
682.74	444.86
683.08	442.31
683.42	439.75
683.75	437.24
684.09	434.68
684.43	432.21
684.77	429.70
685.10	427.38
685.44	425.09
685.78	422.83
686.12	420.60
686.45	418.31
686.79	416.01
687.13	413.82
687.46	411.65
687.80	409.45
688.14	407.24
688.48	405.23
688.81	402.94
689.15	400.81
689.49	398.69
689.82	396.61
690.16	394.48
690.50	392.57
690.83	390.62
691.17	388.65
691.51	386.73
691.84	384.89
692.18	382.98
692.52	380.99
692.85	379.05
693.19	377.17
693.52	375.34
693.86	373.56
694.20	371.83
694.53	370.03
694.87	368.20
695.21	366.44
695.54	364.60
695.88	362.90
696.21	361.16
696.55	359.45
696.88	357.74
697.22	356.14
697.56	354.50
697.89	352.80
698.23	351.19
698.56	349.55
698.90	347.93
699.23	346.27
699.57	344.79
699.90	343.24
700.24	341.66
700.58	340.12
700.91	338.60
701.25	337.14
701.58	335.74
701.92	334.37
702.25	332.96
702.59	331.58
702.92	330.21
703.26	328.92
703.59	327.65
703.93	326.46
704.26	325.20
704.60	323.91
704.93	322.67
705.26	321.43
705.60	320.26
705.93	319.11
706.27	318.09
706.60	317.00
706.94	315.93
707.27	314.80
707.61	313.78
707.94	312.75
708.27	311.65
708.61	310.57
708.94	309.57
709.28	308.59
709.61	307.63
709.94	306.71
710.28	305.69
710.61	304.66
710.95	303.62
711.28	302.67
711.61	301.69
711.95	300.80
712.28	299.79
712.61	298.80
712.95	297.87
713.28	296.96
713.61	296.08
713.95	295.19
714.28	294.38
714.61	293.47
714.95	292.64
715.28	291.77
715.61	290.87
715.95	290.00
716.28	289.16
716.61	288.30
716.95	287.47
717.28	286.72
717.61	285.99
717.94	285.22
718.28	284.46
718.61	283.74
718.94	283.04
719.27	282.39
719.61	281.80
719.94	281.16
720.27	280.45
720.60	279.75
720.94	279.10
721.27	278.50
721.60	277.93
721.93	277.34
722.27	276.82
722.60	276.33
722.93	275.77
723.26	275.22
723.59	274.66
723.93	274.15
724.26	273.59
724.59	273.04
724.92	272.50
725.25	272.02
725.59	271.48
725.92	270.98
726.25	270.49
726.58	269.96
726.91	269.47
727.24	269.01
727.57	268.57
727.91	268.09
728.24	267.60
728.57	267.12
728.90	266.71
729.23	266.20
729.56	265.74
729.89	265.27
730.22	264.81
730.55	264.32
730.89	263.88
731.22	263.50
731.55	263.05
731.88	262.66
732.21	262.20
732.54	261.80
732.87	261.39
733.20	261.00
733.53	260.62
733.86	260.23
734.19	259.84
734.52	259.43
734.85	259.09
735.18	258.67
735.51	258.32
735.84	257.93
736.17	257.59
736.50	257.21
736.83	256.99
737.16	256.66
737.49	256.38
737.82	256.06
738.15	255.66
738.48	255.34
738.81	255.01
739.14	254.70
739.47	254.38
739.80	254.08
740.13	253.79
740.46	253.44
740.79	253.14
741.12	252.84
741.45	252.56
741.78	252.26
742.11	252.01
742.44	251.68
742.77	251.37
743.10	251.08
743.43	250.79
743.75	250.39
744.08	250.25
744.41	249.96
744.74	249.64
745.07	249.34
745.40	249.09
745.73	248.86
746.06	248.59
746.39	248.38
746.71	248.10
747.04	247.81
747.37	247.56
747.70	247.27
748.03	247.02
748.36	246.80
748.68	246.50
749.01	246.25
749.34	246.05
749.67	245.80
750.00	245.56
750.33	245.39
750.65	245.15
750.98	244.78
751.31	244.58
751.64	244.39
751.97	244.25
752.29	244.04
752.62	243.78
752.95	243.59
753.28	243.31
753.60	243.08
753.93	242.90
754.26	242.69
754.59	242.50
754.91	242.27
755.24	242.05
755.57	241.88
755.90	241.66
756.22	241.44
756.55	241.22
756.88	241.00
757.20	240.77
757.53	240.60
757.86	240.44
758.19	240.26
758.51	240.08
758.84	239.88
759.17	239.68
759.49	239.53
759.82	239.40
760.15	239.27
760.47	239.09
760.80	238.92
761.13	238.80
761.45	238.65
761.78	238.50
762.11	238.35
762.43	238.20
762.76	238.10
763.08	238.00
763.41	237.88
763.74	237.76
764.06	237.61
764.39	237.49
764.71	237.33
765.04	237.22
765.37	237.08
765.69	236.92
766.02	236.80
766.34	236.68
766.67	236.54
767.00	236.46
767.32	236.43
767.65	236.40
767.97	236.27
768.30	236.18
768.62	236.07
768.95	235.95
769.27	235.88
769.60	235.77
769.92	235.63
770.25	235.51
770.57	235.42
770.90	235.34
771.22	235.25
771.55	235.21
771.87	235.09
772.20	234.99
772.52	235.00
772.85	235.01
773.17	234.88
773.50	234.80
773.82	234.68
774.15	234.51
774.47	234.34
774.80	234.24
775.12	234.13
775.45	234.07
775.77	234.00
776.09	233.91
776.42	233.80
776.74	233.76
777.07	233.70
777.39	233.63
777.72	233.52
778.04	233.47
778.36	233.35
778.69	233.32
779.01	233.24
779.33	233.10
779.66	232.98
779.98	232.91
780.31	232.84
780.63	232.78
780.95	232.75
781.28	232.72
781.60	232.65
781.92	232.59
782.25	232.52
782.57	232.42
782.89	232.38
783.22	232.34
783.54	232.29
783.86	232.24
784.19	232.15
784.51	232.13
784.83	232.07
785.16	232.02
785.48	231.94
785.80	231.87
786.12	231.80
786.45	231.74
786.77	231.71
787.09	231.64
787.42	231.58
787.74	231.55
788.06	231.48
788.38	231.46
788.71	231.39
789.03	231.35
789.35	231.35
789.67	231.26
789.99	231.20
790.32	231.11
790.64	231.04
790.96	231.09
791.28	231.03
791.61	230.97
791.93	230.94
792.25	230.88
792.57	230.93
792.89	230.88
793.21	230.82
793.54	230.76
793.86	230.71
794.18	230.66
794.50	230.61
794.82	230.61
795.14	230.56
795.47	230.54
795.79	230.51
796.11	230.46
796.43	230.45
796.75	230.41
797.07	230.39
797.39	230.39
797.71	230.30
798.04	230.27
798.36	230.26
798.68	230.22
799.00	230.22
799.32	230.13
799.64	230.15
799.96	230.14
800.28	230.13
800.60	230.10
800.92	230.08
801.24	230.05
801.56	230.00
801.89	229.94
802.21	229.92
802.53	229.85
802.85	229.82
803.17	229.82
803.49	229.79
803.81	229.76
804.13	229.71
804.45	229.63
804.77	229.58
805.09	229.55
805.41	229.48
805.73	229.45
806.05	229.41
806.37	229.37
806.69	229.33
807.01	229.31
807.33	229.24
807.65	229.20
807.97	229.19
808.28	229.15
808.60	229.18
808.92	229.15
809.24	229.22
809.56	229.19
809.88	229.14
810.20	229.12
810.52	229.12
810.84	229.08
811.16	229.07
811.48	229.03
811.80	229.03
812.12	229.02
812.43	229.01
812.75	228.97
813.07	228.96
813.39	228.93
813.71	228.89
814.03	228.87
814.35	228.86
814.67	228.80
814.98	228.75
815.30	228.72
815.62	228.70
815.94	228.60
816.26	228.64
816.58	228.59
816.89	228.59
817.21	228.57
817.53	228.56
817.85	228.53
818.17	228.53
818.48	228.47
818.80	228.48
819.12	228.42
819.44	228.37
819.76	228.30
820.07	228.26
820.39	228.23
820.71	228.24
821.03	228.22
821.34	228.20
821.66	228.20
821.98	228.19
822.30	228.16
822.61	228.22
822.93	228.13
823.25	228.10
823.57	228.10
823.88	228.13
824.20	228.12
824.52	228.13
824.83	228.13
825.15	228.13
825.47	228.11
825.79	228.11
826.10	228.13
826.42	228.11
826.74	228.13
827.05	228.11
827.37	228.10
827.69	228.10
828.00	228.13
828.32	228.14
828.64	228.12
828.95	228.16
829.27	228.10
829.58	228.09
829.90	228.08
830.22	228.04
830.53	227.97
830.85	227.96
831.17	227.94
831.48	227.94
831.80	227.94
832.11	227.91
832.43	227.90
832.75	227.86
833.06	227.94
833.38	227.90
833.69	227.94
834.01	227.94
834.32	227.93
834.64	227.88
834.96	227.86
835.27	227.86
835.59	227.81
835.90	227.78
836.22	227.80
836.53	227.79
836.85	227.77
837.16	227.88
837.48	227.86
837.79	227.86
838.11	227.84
838.42	227.83
838.74	227.86
839.05	227.86
839.37	227.87
839.68	227.79
840.00	227.79
840.31	227.77
840.63	227.72
840.94	227.71
841.26	227.69
841.57	227.70
841.88	227.69
842.20	227.66
842.51	227.67
842.83	227.67
843.14	227.77
843.46	227.81
843.77	227.72
844.08	227.71
844.40	227.68
844.71	227.68
845.03	227.66
845.34	227.62
845.65	227.62
845.97	227.61
846.28	227.61
846.60	227.60
846.91	227.58
847.22	227.58
847.54	227.58
847.85	227.58
848.16	227.52
848.48	227.49
848.79	227.54
849.10	227.53
849.42	227.50
849.73	227.39
850.04	227.35
850.36	227.33
850.67	227.37
850.98	227.39
851.30	227.40
851.61	227.41
851.92	227.41
852.23	227.44
852.55	227.46
852.86	227.46
853.17	227.44
853.49	227.45
853.80	227.49
854.11	227.50
854.42	227.52
854.74	227.52
855.05	227.55
855.36	227.48
855.67	227.50
855.99	227.53
856.30	227.67
856.61	227.67
856.92	227.65
857.23	227.63
857.55	227.60
857.86	227.60
858.17	227.60
858.48	227.58
858.79	227.52
859.11	227.51
859.42	227.47
859.73	227.49
860.04	227.48
860.35	227.44
860.66	227.39
860.98	227.37
861.29	227.38
861.60	227.35
861.91	227.38
862.22	227.37
862.53	227.33
862.84	227.16
863.16	227.16
863.47	227.15
863.78	227.14
864.09	227.13
864.40	227.16
864.71	227.16
865.02	227.18
865.33	227.17
865.64	227.17
865.95	227.20
866.27	227.27
866.58	227.25
866.89	227.26
867.20	227.27
867.51	227.25
867.82	227.24
868.13	227.25
868.44	227.21
868.75	227.22
869.06	227.23
869.37	227.24
869.68	227.20
869.99	227.18
870.30	227.20
870.61	227.22
870.92	227.13
871.23	227.08
871.54	227.08
871.85	227.13
872.16	227.13
872.47	227.11
872.78	227.03
873.09	227.04
873.40	227.04
873.71	227.05
874.02	227.03
874.33	227.03
874.64	227.01
874.95	227.02
875.26	227.02
875.56	227.02
875.87	227.04
876.18	227.06
876.49	227.18
876.80	227.13
877.11	227.12
877.42	227.17
877.73	227.20
878.04	227.19
878.35	227.17
878.66	227.17
878.96	227.16
879.27	227.14
879.58	227.14
879.89	227.14
880.20	227.17
880.51	227.22
880.82	227.25
881.12	227.27
881.43	227.27
881.74	227.24
882.05	227.23
882.36	227.20
882.67	227.21
882.97	227.13
883.28	227.14
883.59	227.13
883.90	227.09
884.21	227.09
884.51	227.10
884.82	227.11
885.13	227.11
885.44	227.12
885.74	227.11
886.05	227.08
886.36	227.07
886.67	227.01
886.98	227.03
887.28	227.01
887.59	226.99
887.90	226.97
888.20	226.96
888.51	227.00
888.82	227.01
889.13	227.00
889.43	227.08
889.74	227.08
890.05	227.04
890.35	227.05
890.66	227.03
890.97	227.02
891.28	226.99
891.58	227.00
891.89	226.97
892.20	226.99
892.50	227.00
892.81	227.00
893.12	227.02
893.42	226.96
893.73	226.95
894.04	226.96
894.34	226.98
894.65	227.00
894.95	226.96
895.26	226.99
895.57	227.03
895.87	226.92
896.18	226.93
896.48	226.96
896.79	226.97
897.10	226.97
897.40	226.96
897.71	226.97
898.01	226.95
898.32	226.99
898.63	226.97
898.93	227.00
899.24	226.99
899.54	226.99
899.85	227.01
900.15	227.02
900.46	227.01
900.76	227.02
901.07	227.02
901.38	227.04
901.68	227.01
901.99	226.95
902.29	226.97
902.60	226.98
902.90	226.96
903.21	226.98
903.51	227.00
903.82	227.03
904.12	227.03
904.43	227.04
904.73	227.05
905.03	227.05
905.34	227.13
905.64	227.16
905.95	227.14
906.25	227.13
906.56	227.13
906.86	227.13
907.17	227.12
907.47	227.10
907.77	227.07
908.08	227.05
908.38	227.05
908.69	227.07
908.99	227.08
909.30	227.08
909.60	227.04
909.90	227.04
910.21	227.01
910.51	226.98
910.81	227.02
911.12	227.01
911.42	227.03
911.73	226.89
912.03	226.86
912.33	226.92
912.64	226.90
912.94	226.89
913.24	226.89
913.55	226.89
913.85	226.89
914.15	226.91
914.46	226.90
914.76	226.94
915.06	226.94
915.37	226.90
915.67	226.89
915.97	226.91
916.27	226.88
916.58	226.89
916.88	226.88
917.18	226.88
917.49	226.94
917.79	226.93
918.09	226.99
918.39	227.01
918.70	226.98
919.00	226.97
919.30	227.01
919.60	227.01
919.91	226.98
920.21	226.98
920.51	226.95
920.81	226.97
921.12	226.96
921.42	226.92
921.72	226.95
922.02	226.97
922.32	226.98
922.63	227.01
922.93	227.06
923.23	227.09
923.53	227.08
923.83	227.01
924.13	226.99
924.44	226.97
924.74	226.97
925.04	227.02
925.34	227.00
925.64	226.97
925.94	226.97
926.24	227.04
926.55	227.04
926.85	227.06
927.15	227.05
927.45	227.04
927.75	227.05
928.05	227.04
928.35	227.03
928.65	227.04
928.95	227.02
929.26	226.95
929.56	226.95
929.86	226.91
930.16	226.91
930.46	226.95
930.76	226.97
931.06	226.92
931.36	226.87
931.66	226.88
931.96	226.90
932.26	226.89
932.56	226.80
932.86	226.78
933.16	226.78
933.46	226.77
933.76	226.76
934.06	226.79
934.36	226.85
934.66	226.84
934.96	226.82
935.26	226.85
935.56	226.89
935.86	226.86
936.16	226.85
936.46	226.82
936.76	226.78
937.06	226.73
937.36	226.75
937.66	226.76
937.96	226.77
938.26	226.75
938.56	226.74
938.86	226.79
939.16	226.82
939.46	226.85
939.76	226.84
940.06	226.82
940.35	226.78
940.65	226.71
940.95	226.75
941.25	226.73
941.55	226.71
941.85	226.68
942.15	226.71
942.45	226.75
942.75	226.73
943.04	226.75
943.34	226.77
943.64	226.75
943.94	226.75
944.24	226.76
944.54	226.77
944.84	226.78
945.13	226.79
945.43	226.79
945.73	226.77
946.03	226.79
946.33	226.80
946.62	226.84
946.92	226.85
947.22	226.85
947.52	226.87
947.82	226.87
948.11	226.89
948.41	226.90
948.71	226.87
949.01	226.90
949.31	226.89
949.60	226.92
949.90	226.98
950.20	226.97
950.50	226.95
950.79	226.94
951.09	226.96
951.39	226.94
951.69	226.93
951.98	226.95
952.28	226.96
952.58	226.95
952.87	226.93
953.17	226.97
953.47	226.94
953.76	226.93
954.06	226.93
954.36	226.89
954.66	226.86
954.95	226.89
955.25	226.88
955.55	226.92
955.84	226.91
956.14	226.90
956.44	226.92
956.73	226.91
957.03	226.93
957.32	226.93
957.62	226.93
957.92	226.93
958.21	226.89
958.51	227.01
958.81	227.02
959.10	227.03
959.40	227.00
959.69	227.04
959.99	227.05
960.29	227.01
960.58	227.02
960.88	227.07
961.17	227.07
961.47	227.10
961.76	227.04
962.06	227.03
962.36	227.00
962.65	226.99
962.95	226.98
963.24	226.95
963.54	226.92
963.83	226.94
964.13	226.97
964.42	226.97
964.72	226.87
965.01	226.88
965.31	226.87
965.60	226.86
965.90	226.91
966.19	226.90
966.49	226.91
966.78	226.88
967.08	226.88
967.37	226.86
967.67	226.81
967.96	226.84
968.26	226.83
968.55	226.86
968.85	226.86
969.14	226.85
969.43	226.86
969.73	226.85
970.02	226.83
970.32	226.81
970.61	226.78
970.91	226.73
971.20	226.71
971.49	226.68
971.79	226.70
972.08	226.60
972.38	226.60
972.67	226.59
972.96	226.61
973.26	226.59
973.55	226.61
973.85	226.61
974.14	226.59
974.43	226.60
974.73	226.57
975.02	226.54
975.31	226.57
975.61	226.56
975.90	226.57
976.19	226.54
976.49	226.57
976.78	226.58
977.07	226.59
977.37	226.59
977.66	226.62
977.95	226.59
978.24	226.62
978.54	226.66
978.83	226.67
979.12	226.67
979.42	226.68
979.71	226.66
980.00	226.67
980.29	226.68
980.59	226.67
980.88	226.69
981.17	226.71
981.46	226.72
981.76	226.69
982.05	226.74
982.34	226.78
982.63	226.76
982.93	226.79
983.22	226.82
983.51	226.82
983.80	226.83
984.09	226.85
984.39	226.83
984.68	226.81
984.97	226.82
985.26	226.82
985.55	226.80
985.85	226.78
986.14	226.81
986.43	226.81
986.72	226.82
987.01	226.81
987.30	226.80
987.59	226.75
987.89	226.79
988.18	226.74
988.47	226.71
988.76	226.71
989.05	226.67
989.34	226.66
989.63	226.68
989.92	226.67
990.22	226.64
990.51	226.66
990.80	226.67
991.09	226.65
991.38	226.64
991.67	226.68
991.96	226.69
992.25	226.68
992.54	226.66
992.83	226.62
993.12	226.62
993.41	226.64
993.70	226.71
993.99	226.73
994.28	226.74
994.58	226.78
994.87	226.75
995.16	226.78
995.45	226.79
995.74	226.79
996.03	226.79
996.32	226.81
996.61	226.82
996.90	226.81
997.19	226.80
997.48	226.85
997.77	226.81
998.06	226.78
998.34	226.78
998.63	226.78
998.92	226.81
999.21	226.80
999.50	226.82
999.79	226.77
1000.08	226.73
1000.37	226.72
1000.66	226.68
1000.95	226.71
1001.24	226.71
1001.53	226.71
1001.82	226.67
1002.11	226.67
1002.40	226.69
1002.68	226.69
1002.97	226.78
1003.26	226.78
1003.55	226.73
1003.84	226.79
1004.13	226.82
1004.42	226.83
1004.71	226.85
1004.99	226.85
1005.28	226.88
1005.57	226.83
1005.86	226.79
1006.15	226.79
1006.44	226.80
1006.72	226.82
1007.01	226.78
1007.30	226.79
1007.59	226.76
1007.88	226.78
1008.17	226.75
1008.45	226.71
1008.74	226.70
1009.03	226.63
1009.32	226.60
1009.60	226.60
1009.89	226.57
1010.18	226.53
1010.47	226.52
1010.76	226.52
1011.04	226.50
1011.33	226.51
1011.62	226.54
1011.91	226.58
1012.19	226.60
1012.48	226.58
1012.77	226.55
1013.05	226.60
1013.34	226.59
1013.63	226.58
1013.92	226.59
1014.20	226.61
1014.49	226.59
1014.78	226.59
1015.06	226.54
1015.35	226.57
1015.64	226.58
1015.92	226.57
1016.21	226.59
1016.50	226.59
1016.78	226.58
1017.07	226.61
1017.36	226.60
1017.64	226.59
1017.93	226.58
1018.22	226.57
1018.50	226.55
1018.79	226.59
1019.08	226.54
1019.36	226.54
1019.65	226.53
1019.93	226.53
1020.22	226.53
1020.51	226.62
1020.79	226.61
1021.08	226.59
1021.36	226.04
1021.65	226.98
1021.94	226.23
1022.22	226.34
1022.51	226.30
1022.79	226.69
1023.08	226.85
1023.36	227.93
1023.65	226.24
>>>>>End Processed Spectral Data<<<<<
