SpectraSuite Data File
++++++++++++++++++++++++++++++++++++
Date: Fri Feb 01 15:24:13 EST 2013
User: group
Dark Spectrum Present: No
Reference Spectrum Present: No
Number of Sampled Component Spectra: 1
Spectrometers: USB2E7196
Integration Time (usec): 35000 (USB2E7196)
Spectra Averaged: 100 (USB2E7196)
Boxcar Smoothing: 10 (USB2E7196)
Correct for Electrical Dark: No (USB2E7196)
Strobe/Lamp Enabled: No (USB2E7196)
Correct for Detector Non-linearity: No (USB2E7196)
Correct for Stray Light: No (USB2E7196)
Number of Pixels in Processed Spectrum: 2048
>>>>>Begin Processed Spectral Data<<<<<
339.09	0.00
339.48	214.92
339.86	216.62
340.24	217.85
340.63	220.09
341.01	222.08
341.39	222.08
341.78	223.69
342.16	225.05
342.54	225.05
342.93	213.55
343.31	224.35
343.69	224.88
344.07	225.39
344.46	225.86
344.84	226.21
345.22	226.48
345.60	226.71
345.99	226.88
346.37	226.99
346.75	227.11
347.13	227.18
347.52	227.25
347.90	227.33
348.28	227.37
348.66	227.42
349.05	227.39
349.43	227.42
349.81	227.45
350.19	227.51
350.57	227.55
350.96	227.63
351.34	227.69
351.72	227.75
352.10	227.81
352.48	227.83
352.87	227.85
353.25	227.91
353.63	228.00
354.01	228.07
354.39	228.15
354.77	228.24
355.15	228.33
355.54	228.37
355.92	228.37
356.30	228.43
356.68	228.53
357.06	228.57
357.44	228.64
357.82	228.67
358.20	228.76
358.58	228.82
358.97	228.86
359.35	228.93
359.73	229.04
360.11	229.10
360.49	229.17
360.87	229.23
361.25	229.27
361.63	229.33
362.01	229.36
362.39	229.37
362.77	229.40
363.15	229.42
363.53	229.45
363.91	229.51
364.29	229.53
364.67	229.47
365.05	229.53
365.43	229.55
365.81	229.59
366.19	229.60
366.57	229.64
366.95	229.66
367.33	229.59
367.71	229.57
368.09	229.54
368.47	229.52
368.85	229.49
369.23	229.49
369.61	229.40
369.99	229.41
370.37	229.39
370.75	229.38
371.13	229.31
371.51	229.28
371.89	229.21
372.27	229.18
372.65	229.13
373.03	229.08
373.41	229.02
373.78	228.98
374.16	228.90
374.54	228.77
374.92	228.69
375.30	228.65
375.68	228.57
376.06	228.53
376.44	228.41
376.82	228.33
377.19	228.27
377.57	228.19
377.95	228.08
378.33	228.01
378.71	227.91
379.09	227.83
379.47	227.75
379.84	227.68
380.22	227.58
380.60	227.50
380.98	227.41
381.36	227.36
381.73	227.26
382.11	227.20
382.49	227.15
382.87	227.07
383.25	227.01
383.62	227.06
384.00	226.97
384.38	226.93
384.76	226.92
385.13	226.89
385.51	226.86
385.89	226.83
386.27	226.78
386.64	226.69
387.02	226.66
387.40	226.62
387.78	226.57
388.15	226.57
388.53	226.53
388.91	226.49
389.29	226.42
389.66	226.41
390.04	226.37
390.42	226.39
390.79	226.37
391.17	226.37
391.55	226.26
391.92	226.26
392.30	226.25
392.68	226.24
393.05	226.22
393.43	226.21
393.81	226.19
394.18	226.20
394.56	226.24
394.94	226.29
395.31	226.29
395.69	226.34
396.06	226.37
396.44	226.42
396.82	226.45
397.19	226.55
397.57	226.57
397.95	226.65
398.32	226.68
398.70	226.76
399.07	226.81
399.45	226.85
399.82	226.91
400.20	226.99
400.58	227.03
400.95	227.05
401.33	227.14
401.70	227.30
402.08	227.39
402.45	227.50
402.83	227.63
403.20	227.76
403.58	227.85
403.95	227.96
404.33	228.08
404.71	228.20
405.08	228.36
405.46	228.50
405.83	228.65
406.21	228.78
406.58	228.92
406.96	229.08
407.33	229.25
407.70	229.46
408.08	229.72
408.45	229.95
408.83	230.21
409.20	230.43
409.58	230.62
409.95	230.90
410.33	231.18
410.70	231.40
411.08	231.69
411.45	232.03
411.82	232.35
412.20	232.71
412.57	233.16
412.95	233.48
413.32	233.90
413.69	234.35
414.07	234.81
414.44	235.29
414.82	235.78
415.19	236.35
415.56	236.91
415.94	237.50
416.31	238.15
416.68	238.80
417.06	239.54
417.43	240.22
417.81	240.98
418.18	241.74
418.55	242.60
418.93	243.49
419.30	244.41
419.67	245.35
420.04	246.31
420.42	247.29
420.79	248.45
421.16	249.61
421.54	250.77
421.91	251.98
422.28	253.25
422.66	254.59
423.03	255.90
423.40	257.21
423.77	258.59
424.15	259.98
424.52	261.44
424.89	263.03
425.26	264.61
425.64	266.04
426.01	267.66
426.38	269.32
426.75	271.01
427.13	272.65
427.50	274.49
427.87	276.39
428.24	278.24
428.61	280.00
428.99	281.95
429.36	284.08
429.73	286.16
430.10	288.15
430.47	290.26
430.85	292.40
431.22	294.64
431.59	297.05
431.96	299.35
432.33	301.87
432.70	304.29
433.08	307.12
433.45	309.78
433.82	312.35
434.19	315.28
434.56	318.10
434.93	320.81
435.30	323.40
435.68	326.32
436.05	329.16
436.42	331.99
436.79	334.50
437.16	337.20
437.53	340.05
437.90	342.89
438.27	345.60
438.64	348.47
439.01	351.12
439.38	353.35
439.75	355.52
440.13	358.06
440.50	360.37
440.87	362.17
441.24	364.13
441.61	366.33
441.98	367.80
442.35	369.65
442.72	371.52
443.09	373.37
443.46	374.33
443.83	374.91
444.20	375.40
444.57	376.27
444.94	376.57
445.31	376.86
445.68	377.20
446.05	377.31
446.42	376.89
446.79	376.47
447.16	376.04
447.53	375.69
447.90	374.46
448.27	373.31
448.64	371.72
449.01	370.51
449.37	368.52
449.74	366.64
450.11	364.32
450.48	361.84
450.85	359.31
451.22	357.17
451.59	355.12
451.96	353.16
452.33	350.53
452.70	348.10
453.07	345.30
453.43	342.42
453.80	339.65
454.17	336.94
454.54	334.39
454.91	331.65
455.28	328.98
455.65	326.51
456.02	324.07
456.38	321.95
456.75	319.34
457.12	317.07
457.49	314.79
457.86	312.64
458.23	310.76
458.59	308.69
458.96	306.62
459.33	304.78
459.70	302.93
460.07	301.47
460.43	299.80
460.80	298.17
461.17	296.70
461.54	295.18
461.91	293.76
462.27	292.26
462.64	290.99
463.01	289.62
463.38	288.34
463.74	286.97
464.11	285.75
464.48	284.72
464.85	283.63
465.21	282.79
465.58	281.86
465.95	280.78
466.32	279.88
466.68	278.95
467.05	278.07
467.42	277.18
467.78	276.22
468.15	275.30
468.52	274.62
468.88	273.76
469.25	272.97
469.62	272.35
469.98	271.70
470.35	271.08
470.72	270.52
471.08	269.83
471.45	269.26
471.82	268.76
472.18	268.20
472.55	267.74
472.92	267.21
473.28	266.74
473.65	266.30
474.02	265.81
474.38	265.44
474.75	265.11
475.11	264.73
475.48	264.49
475.85	264.27
476.21	264.07
476.58	263.90
476.94	263.77
477.31	263.59
477.67	263.43
478.04	263.27
478.41	263.21
478.77	263.27
479.14	263.21
479.50	263.21
479.87	263.24
480.23	263.32
480.60	263.41
480.96	263.50
481.33	263.72
481.69	263.94
482.06	264.10
482.42	264.30
482.79	264.58
483.15	264.88
483.52	265.26
483.88	265.58
484.25	265.95
484.61	266.39
484.98	266.81
485.34	267.35
485.71	267.95
486.07	268.56
486.44	269.10
486.80	269.80
487.17	270.54
487.53	271.34
487.90	272.17
488.26	273.07
488.62	274.08
488.99	275.03
489.35	276.10
489.72	277.21
490.08	278.41
490.44	279.61
490.81	280.89
491.17	282.23
491.54	283.72
491.90	285.27
492.26	286.89
492.63	288.65
492.99	290.43
493.36	292.33
493.72	294.32
494.08	296.40
494.45	298.60
494.81	300.92
495.17	303.34
495.54	305.90
495.90	308.55
496.26	311.30
496.63	314.23
496.99	317.28
497.35	320.53
497.72	323.94
498.08	327.46
498.44	331.13
498.80	335.02
499.17	339.06
499.53	343.22
499.89	347.59
500.26	352.07
500.62	356.75
500.98	361.68
501.34	366.78
501.71	372.14
502.07	377.67
502.43	383.36
502.79	389.18
503.16	395.28
503.52	401.60
503.88	408.00
504.24	414.63
504.60	421.61
504.97	428.79
505.33	436.07
505.69	443.75
506.05	451.57
506.41	459.47
506.78	467.64
507.14	476.08
507.50	484.74
507.86	493.81
508.22	503.00
508.59	512.25
508.95	521.87
509.31	531.68
509.67	541.74
510.03	551.94
510.39	562.45
510.75	573.27
511.12	584.16
511.48	595.45
511.84	606.94
512.20	618.44
512.56	630.35
512.92	642.59
513.28	654.94
513.64	667.44
514.00	680.16
514.37	693.06
514.73	706.12
515.09	719.21
515.45	732.54
515.81	746.20
516.17	760.16
516.53	774.26
516.89	788.44
517.25	802.66
517.61	817.26
517.97	831.81
518.33	846.35
518.69	861.17
519.05	876.25
519.41	891.47
519.77	907.14
520.13	922.68
520.49	938.01
520.85	953.47
521.21	969.26
521.57	985.59
521.93	1001.50
522.29	1017.92
522.65	1034.25
523.01	1050.50
523.37	1066.49
523.73	1082.72
524.09	1098.92
524.45	1115.27
524.81	1131.87
525.17	1148.68
525.53	1165.59
525.89	1182.31
526.25	1199.22
526.61	1215.62
526.97	1232.40
527.33	1248.85
527.68	1265.47
528.04	1282.16
528.40	1298.85
528.76	1315.87
529.12	1332.52
529.48	1349.38
529.84	1365.52
530.20	1382.21
530.56	1399.26
530.91	1416.70
531.27	1433.58
531.63	1450.11
531.99	1466.75
532.35	1482.79
532.71	1498.60
533.07	1514.90
533.42	1530.95
533.78	1547.06
534.14	1563.34
534.50	1578.73
534.86	1594.61
535.21	1609.69
535.57	1625.53
535.93	1641.19
536.29	1656.02
536.65	1671.20
537.00	1686.11
537.36	1701.53
537.72	1716.19
538.08	1730.63
538.44	1744.50
538.79	1758.38
539.15	1772.21
539.51	1786.11
539.87	1800.66
540.22	1814.51
540.58	1828.47
540.94	1841.90
541.29	1854.91
541.65	1867.68
542.01	1880.97
542.37	1893.32
542.72	1905.97
543.08	1917.87
543.44	1930.17
543.79	1941.56
544.15	1952.47
544.51	1963.93
544.87	1974.85
545.22	1985.58
545.58	1995.85
545.94	2005.66
546.29	2015.53
546.65	2025.21
547.01	2034.46
547.36	2043.13
547.72	2051.60
548.07	2059.34
548.43	2067.49
548.79	2075.52
549.14	2083.04
549.50	2090.41
549.86	2098.21
550.21	2105.57
550.57	2112.72
550.92	2119.33
551.28	2126.32
551.64	2133.38
551.99	2140.11
552.35	2146.36
552.70	2152.57
553.06	2158.55
553.41	2165.00
553.77	2171.17
554.13	2177.33
554.48	2183.41
554.84	2188.78
555.19	2194.18
555.55	2199.39
555.90	2204.09
556.26	2208.73
556.61	2213.55
556.97	2217.68
557.32	2221.72
557.68	2225.86
558.03	2230.23
558.39	2234.10
558.74	2238.69
559.10	2242.62
559.45	2246.11
559.81	2250.31
560.16	2254.12
560.52	2257.39
560.87	2260.85
561.23	2263.43
561.58	2266.37
561.94	2268.91
562.29	2271.33
562.64	2273.97
563.00	2276.67
563.35	2280.01
563.71	2283.27
564.06	2286.50
564.42	2289.52
564.77	2292.05
565.12	2294.21
565.48	2295.93
565.83	2297.67
566.19	2298.99
566.54	2299.95
566.89	2301.06
567.25	2301.67
567.60	2302.99
567.96	2304.58
568.31	2305.31
568.66	2306.31
569.02	2306.86
569.37	2307.19
569.72	2307.91
570.08	2307.91
570.43	2307.84
570.78	2307.20
571.14	2305.76
571.49	2304.33
571.84	2303.90
572.20	2302.63
572.55	2301.56
572.90	2300.08
573.26	2298.61
573.61	2296.87
573.96	2294.85
574.31	2291.84
574.67	2288.68
575.02	2284.94
575.37	2281.62
575.72	2277.58
576.08	2274.30
576.43	2270.97
576.78	2267.06
577.13	2263.82
577.49	2260.78
577.84	2257.26
578.19	2253.47
578.54	2249.58
578.90	2245.26
579.25	2239.69
579.60	2234.62
579.95	2229.59
580.30	2224.53
580.66	2219.20
581.01	2214.16
581.36	2209.26
581.71	2205.01
582.06	2200.59
582.42	2196.15
582.77	2190.73
583.12	2186.13
583.47	2181.19
583.82	2176.00
584.17	2170.73
584.53	2165.23
584.88	2159.46
585.23	2153.48
585.58	2147.90
585.93	2142.49
586.28	2137.71
586.63	2132.51
586.98	2127.37
587.34	2122.58
587.69	2117.55
588.04	2112.26
588.39	2106.51
588.74	2099.95
589.09	2093.67
589.44	2086.68
589.79	2080.52
590.14	2074.75
590.49	2068.17
590.84	2061.82
591.19	2055.76
591.54	2049.23
591.89	2041.72
592.25	2034.92
592.60	2027.68
592.95	2019.85
593.30	2012.36
593.65	2004.65
594.00	1997.56
594.35	1990.26
594.70	1982.11
595.05	1974.77
595.40	1967.46
595.75	1959.87
596.10	1953.53
596.45	1946.71
596.80	1940.50
597.15	1933.75
597.50	1926.61
597.85	1920.26
598.19	1913.45
598.54	1906.24
598.89	1899.72
599.24	1893.94
599.59	1887.07
599.94	1880.74
600.29	1874.46
600.64	1867.91
600.99	1860.28
601.34	1853.39
601.69	1846.53
602.04	1839.52
602.39	1832.11
602.74	1825.23
603.08	1818.55
603.43	1811.84
603.78	1804.62
604.13	1797.35
604.48	1790.01
604.83	1783.23
605.18	1775.99
605.53	1768.04
605.87	1759.96
606.22	1752.58
606.57	1744.53
606.92	1737.27
607.27	1730.08
607.62	1723.29
607.96	1715.89
608.31	1709.31
608.66	1701.66
609.01	1694.04
609.36	1686.60
609.70	1678.70
610.05	1670.55
610.40	1662.83
610.75	1654.42
611.10	1646.73
611.44	1638.52
611.79	1630.61
612.14	1621.84
612.49	1612.87
612.83	1604.51
613.18	1596.52
613.53	1588.42
613.88	1579.84
614.22	1571.56
614.57	1563.02
614.92	1554.94
615.27	1547.33
615.61	1539.08
615.96	1531.02
616.31	1523.35
616.65	1515.88
617.00	1508.28
617.35	1500.68
617.70	1492.29
618.04	1483.75
618.39	1475.51
618.74	1467.83
619.08	1459.45
619.43	1451.88
619.78	1444.85
620.12	1437.63
620.47	1430.06
620.82	1421.90
621.16	1414.57
621.51	1406.90
621.85	1399.20
622.20	1390.61
622.55	1382.34
622.89	1374.45
623.24	1366.85
623.59	1359.49
623.93	1352.05
624.28	1344.76
624.62	1337.19
624.97	1330.03
625.32	1323.36
625.66	1316.32
626.01	1309.01
626.35	1301.51
626.70	1293.66
627.04	1285.94
627.39	1278.21
627.73	1270.73
628.08	1263.80
628.43	1256.43
628.77	1248.96
629.12	1241.37
629.46	1234.12
629.81	1226.62
630.15	1219.38
630.50	1211.96
630.84	1203.81
631.19	1195.89
631.53	1188.50
631.88	1180.92
632.22	1173.24
632.57	1165.99
632.91	1158.41
633.26	1151.04
633.60	1143.78
633.95	1136.79
634.29	1129.84
634.64	1123.13
634.98	1115.75
635.32	1108.63
635.67	1102.10
636.01	1095.61
636.36	1088.86
636.70	1082.41
637.05	1075.93
637.39	1069.48
637.73	1062.95
638.08	1057.15
638.42	1051.12
638.77	1044.62
639.11	1038.05
639.45	1031.81
639.80	1025.09
640.14	1018.68
640.49	1012.14
640.83	1005.88
641.17	999.68
641.52	993.36
641.86	986.95
642.20	981.18
642.55	974.92
642.89	968.39
643.23	961.93
643.58	956.18
643.92	950.01
644.26	944.03
644.61	938.05
644.95	932.02
645.29	925.37
645.64	918.63
645.98	912.29
646.32	906.43
646.66	900.36
647.01	894.59
647.35	888.93
647.69	883.18
648.04	877.71
648.38	871.90
648.72	865.88
649.06	859.83
649.41	853.89
649.75	847.87
650.09	841.95
650.43	836.11
650.78	829.94
651.12	824.01
651.46	818.19
651.80	812.41
652.14	807.07
652.49	801.67
652.83	796.53
653.17	790.87
653.51	785.19
653.85	779.80
654.20	774.21
654.54	768.27
654.88	762.53
655.22	756.57
655.56	750.86
655.90	745.31
656.25	739.98
656.59	734.72
656.93	729.61
657.27	724.42
657.61	718.96
657.95	713.86
658.29	708.73
658.64	703.50
658.98	698.22
659.32	692.75
659.66	687.51
660.00	682.13
660.34	677.20
660.68	672.28
661.02	667.19
661.36	662.42
661.70	657.90
662.05	653.51
662.39	649.16
662.73	644.68
663.07	640.37
663.41	635.94
663.75	631.44
664.09	626.89
664.43	622.46
664.77	618.35
665.11	614.15
665.45	610.03
665.79	605.85
666.13	601.68
666.47	597.60
666.81	593.43
667.15	589.35
667.49	585.50
667.83	581.65
668.17	577.73
668.51	573.67
668.85	569.58
669.19	565.72
669.53	561.84
669.87	558.00
670.21	554.25
670.55	550.65
670.89	547.16
671.23	543.74
671.57	540.31
671.91	536.75
672.25	533.24
672.58	529.75
672.92	526.48
673.26	523.33
673.60	520.18
673.94	517.10
674.28	514.20
674.62	511.16
674.96	508.08
675.30	505.20
675.64	502.27
675.97	499.57
676.31	496.69
676.65	493.81
676.99	491.08
677.33	488.26
677.67	485.42
678.01	482.39
678.34	479.41
678.68	476.51
679.02	473.66
679.36	470.88
679.70	468.13
680.04	465.30
680.37	462.46
680.71	459.68
681.05	457.10
681.39	454.37
681.73	451.81
682.06	449.28
682.40	446.75
682.74	444.21
683.08	441.67
683.42	439.15
683.75	436.65
684.09	434.12
684.43	431.67
684.77	429.22
685.10	426.90
685.44	424.63
685.78	422.43
686.12	420.24
686.45	418.03
686.79	415.78
687.13	413.62
687.46	411.48
687.80	409.32
688.14	407.12
688.48	405.08
688.81	402.80
689.15	400.72
689.49	398.57
689.82	396.59
690.16	394.49
690.50	392.48
690.83	390.56
691.17	388.62
691.51	386.76
691.84	384.97
692.18	383.01
692.52	381.05
692.85	379.10
693.19	377.22
693.52	375.38
693.86	373.56
694.20	371.81
694.53	370.05
694.87	368.30
695.21	366.57
695.54	364.77
695.88	363.06
696.21	361.34
696.55	359.67
696.88	357.95
697.22	356.35
697.56	354.77
697.89	353.08
698.23	351.51
698.56	349.88
698.90	348.25
699.23	346.66
699.57	345.13
699.90	343.62
700.24	342.08
700.58	340.55
700.91	339.11
701.25	337.67
701.58	336.26
701.92	334.90
702.25	333.50
702.59	332.11
702.92	330.80
703.26	329.46
703.59	328.18
703.93	327.00
704.26	325.73
704.60	324.44
704.93	323.20
705.26	321.92
705.60	320.78
705.93	319.64
706.27	318.61
706.60	317.51
706.94	316.44
707.27	315.35
707.61	314.28
707.94	313.22
708.27	312.11
708.61	311.05
708.94	310.00
709.28	308.99
709.61	308.01
709.94	307.02
710.28	306.01
710.61	305.02
710.95	303.92
711.28	302.98
711.61	302.06
711.95	301.06
712.28	300.06
712.61	299.05
712.95	298.10
713.28	297.17
713.61	296.27
713.95	295.36
714.28	294.52
714.61	293.66
714.95	292.76
715.28	291.88
715.61	290.97
715.95	290.12
716.28	289.24
716.61	288.40
716.95	287.62
717.28	286.84
717.61	286.07
717.94	285.36
718.28	284.57
718.61	283.82
718.94	283.17
719.27	282.54
719.61	281.90
719.94	281.24
720.27	280.53
720.60	279.84
720.94	279.20
721.27	278.56
721.60	278.01
721.93	277.39
722.27	276.87
722.60	276.33
722.93	275.74
723.26	275.21
723.59	274.69
723.93	274.10
724.26	273.57
724.59	273.01
724.92	272.47
725.25	271.98
725.59	271.46
725.92	270.98
726.25	270.49
726.58	269.97
726.91	269.47
727.24	269.02
727.57	268.56
727.91	268.07
728.24	267.61
728.57	267.16
728.90	266.75
729.23	266.25
729.56	265.80
729.89	265.38
730.22	264.94
730.55	264.48
730.89	264.08
731.22	263.67
731.55	263.23
731.88	262.82
732.21	262.38
732.54	261.95
732.87	261.50
733.20	261.07
733.53	260.73
733.86	260.38
734.19	259.97
734.52	259.64
734.85	259.36
735.18	258.98
735.51	258.62
735.84	258.24
736.17	257.91
736.50	257.57
736.83	257.36
737.16	257.03
737.49	256.74
737.82	256.38
738.15	256.08
738.48	255.76
738.81	255.46
739.14	255.13
739.47	254.83
739.80	254.55
740.13	254.29
740.46	253.97
740.79	253.61
741.12	253.33
741.45	253.01
741.78	252.65
742.11	252.32
742.44	251.98
742.77	251.71
743.10	251.39
743.43	251.09
743.75	250.64
744.08	250.50
744.41	250.20
744.74	249.93
745.07	249.63
745.40	249.41
745.73	249.15
746.06	248.86
746.39	248.61
746.71	248.31
747.04	248.01
747.37	247.74
747.70	247.50
748.03	247.25
748.36	247.01
748.68	246.77
749.01	246.53
749.34	246.29
749.67	246.03
750.00	245.79
750.33	245.61
750.65	245.39
750.98	245.03
751.31	244.81
751.64	244.62
751.97	244.45
752.29	244.21
752.62	243.97
752.95	243.78
753.28	243.54
753.60	243.35
753.93	243.20
754.26	242.98
754.59	242.76
754.91	242.54
755.24	242.34
755.57	242.13
755.90	241.93
756.22	241.74
756.55	241.55
756.88	241.36
757.20	241.13
757.53	240.93
757.86	240.76
758.19	240.59
758.51	240.38
758.84	240.13
759.17	239.94
759.49	239.76
759.82	239.64
760.15	239.50
760.47	239.33
760.80	239.16
761.13	239.01
761.45	238.85
761.78	238.73
762.11	238.57
762.43	238.44
762.76	238.29
763.08	238.17
763.41	238.06
763.74	237.95
764.06	237.79
764.39	237.65
764.71	237.47
765.04	237.31
765.37	237.20
765.69	237.10
766.02	236.98
766.34	236.83
766.67	236.66
767.00	236.57
767.32	236.51
767.65	236.46
767.97	236.37
768.30	236.27
768.62	236.15
768.95	236.04
769.27	235.94
769.60	235.83
769.92	235.73
770.25	235.61
770.57	235.48
770.90	235.42
771.22	235.31
771.55	235.26
771.87	235.21
772.20	235.13
772.52	235.08
772.85	235.10
773.17	235.06
773.50	234.98
773.82	234.90
774.15	234.81
774.47	234.67
774.80	234.60
775.12	234.55
775.45	234.46
775.77	234.38
776.09	234.29
776.42	234.25
776.74	234.18
777.07	234.10
777.39	234.06
777.72	233.98
778.04	233.96
778.36	233.89
778.69	233.80
779.01	233.73
779.33	233.61
779.66	233.42
779.98	233.36
780.31	233.31
780.63	233.28
780.95	233.20
781.28	233.12
781.60	233.02
781.92	232.97
782.25	232.89
782.57	232.81
782.89	232.74
783.22	232.68
783.54	232.60
783.86	232.56
784.19	232.47
784.51	232.46
784.83	232.37
785.16	232.30
785.48	232.27
785.80	232.22
786.12	232.16
786.45	232.14
786.77	232.09
787.09	232.02
787.42	231.91
787.74	231.87
788.06	231.84
788.38	231.78
788.71	231.69
789.03	231.69
789.35	231.68
789.67	231.60
789.99	231.57
790.32	231.54
790.64	231.51
790.96	231.54
791.28	231.43
791.61	231.36
791.93	231.31
792.25	231.26
792.57	231.26
792.89	231.21
793.21	231.16
793.54	231.09
793.86	231.05
794.18	231.02
794.50	230.97
794.82	230.90
795.14	230.86
795.47	230.85
795.79	230.80
796.11	230.74
796.43	230.68
796.75	230.60
797.07	230.53
797.39	230.48
797.71	230.38
798.04	230.37
798.36	230.37
798.68	230.34
799.00	230.28
799.32	230.19
799.64	230.16
799.96	230.13
800.28	230.13
800.60	230.06
800.92	230.06
801.24	230.00
801.56	229.98
801.89	229.96
802.21	229.92
802.53	229.87
802.85	229.87
803.17	229.90
803.49	229.88
803.81	229.85
804.13	229.81
804.45	229.78
804.77	229.76
805.09	229.75
805.41	229.73
805.73	229.70
806.05	229.67
806.37	229.66
806.69	229.67
807.01	229.66
807.33	229.66
807.65	229.58
807.97	229.62
808.28	229.61
808.60	229.59
808.92	229.56
809.24	229.61
809.56	229.58
809.88	229.53
810.20	229.51
810.52	229.50
810.84	229.48
811.16	229.46
811.48	229.44
811.80	229.44
812.12	229.43
812.43	229.45
812.75	229.43
813.07	229.40
813.39	229.36
813.71	229.32
814.03	229.27
814.35	229.31
814.67	229.25
814.98	229.22
815.30	229.21
815.62	229.18
815.94	229.12
816.26	229.16
816.58	229.13
816.89	229.12
817.21	229.11
817.53	229.07
817.85	229.06
818.17	229.04
818.48	228.97
818.80	228.95
819.12	228.89
819.44	228.85
819.76	228.82
820.07	228.79
820.39	228.78
820.71	228.80
821.03	228.78
821.34	228.75
821.66	228.76
821.98	228.77
822.30	228.75
822.61	228.80
822.93	228.70
823.25	228.68
823.57	228.65
823.88	228.65
824.20	228.66
824.52	228.67
824.83	228.69
825.15	228.71
825.47	228.70
825.79	228.73
826.10	228.74
826.42	228.76
826.74	228.78
827.05	228.73
827.37	228.72
827.69	228.69
828.00	228.69
828.32	228.67
828.64	228.60
828.95	228.65
829.27	228.59
829.58	228.63
829.90	228.68
830.22	228.72
830.53	228.69
830.85	228.71
831.17	228.67
831.48	228.64
831.80	228.58
832.11	228.57
832.43	228.54
832.75	228.53
833.06	228.57
833.38	228.52
833.69	228.55
834.01	228.53
834.32	228.52
834.64	228.46
834.96	228.44
835.27	228.46
835.59	228.40
835.90	228.37
836.22	228.35
836.53	228.28
836.85	228.22
837.16	228.29
837.48	228.22
837.79	228.27
838.11	228.26
838.42	228.27
838.74	228.26
839.05	228.23
839.37	228.22
839.68	228.14
840.00	228.13
840.31	228.10
840.63	228.06
840.94	228.03
841.26	228.03
841.57	228.06
841.88	228.03
842.20	228.04
842.51	228.01
842.83	227.98
843.14	228.05
843.46	228.02
843.77	227.97
844.08	228.00
844.40	227.91
844.71	227.88
845.03	227.86
845.34	227.84
845.65	227.80
845.97	227.79
846.28	227.77
846.60	227.78
846.91	227.79
847.22	227.79
847.54	227.79
847.85	227.78
848.16	227.75
848.48	227.72
848.79	227.75
849.10	227.73
849.42	227.76
849.73	227.68
850.04	227.67
850.36	227.63
850.67	227.60
850.98	227.60
851.30	227.62
851.61	227.62
851.92	227.63
852.23	227.69
852.55	227.71
852.86	227.71
853.17	227.69
853.49	227.68
853.80	227.68
854.11	227.71
854.42	227.76
854.74	227.73
855.05	227.73
855.36	227.64
855.67	227.67
855.99	227.65
856.30	227.76
856.61	227.77
856.92	227.73
857.23	227.74
857.55	227.74
857.86	227.73
858.17	227.73
858.48	227.69
858.79	227.67
859.11	227.67
859.42	227.67
859.73	227.65
860.04	227.66
860.35	227.65
860.66	227.60
860.98	227.58
861.29	227.60
861.60	227.61
861.91	227.63
862.22	227.60
862.53	227.59
862.84	227.49
863.16	227.55
863.47	227.56
863.78	227.54
864.09	227.56
864.40	227.60
864.71	227.59
865.02	227.65
865.33	227.63
865.64	227.63
865.95	227.62
866.27	227.67
866.58	227.65
866.89	227.65
867.20	227.67
867.51	227.66
867.82	227.69
868.13	227.72
868.44	227.70
868.75	227.76
869.06	227.78
869.37	227.79
869.68	227.76
869.99	227.73
870.30	227.77
870.61	227.78
870.92	227.76
871.23	227.75
871.54	227.73
871.85	227.75
872.16	227.78
872.47	227.77
872.78	227.74
873.09	227.76
873.40	227.73
873.71	227.77
874.02	227.73
874.33	227.70
874.64	227.68
874.95	227.72
875.26	227.65
875.56	227.63
875.87	227.63
876.18	227.62
876.49	227.73
876.80	227.72
877.11	227.69
877.42	227.66
877.73	227.65
878.04	227.64
878.35	227.63
878.66	227.58
878.96	227.57
879.27	227.54
879.58	227.53
879.89	227.53
880.20	227.49
880.51	227.48
880.82	227.46
881.12	227.46
881.43	227.41
881.74	227.45
882.05	227.45
882.36	227.42
882.67	227.41
882.97	227.27
883.28	227.27
883.59	227.23
883.90	227.26
884.21	227.30
884.51	227.30
884.82	227.30
885.13	227.31
885.44	227.34
885.74	227.33
886.05	227.31
886.36	227.31
886.67	227.33
886.98	227.39
887.28	227.39
887.59	227.40
887.90	227.42
888.20	227.37
888.51	227.36
888.82	227.34
889.13	227.36
889.43	227.46
889.74	227.46
890.05	227.49
890.35	227.47
890.66	227.42
890.97	227.41
891.28	227.40
891.58	227.40
891.89	227.39
892.20	227.36
892.50	227.39
892.81	227.39
893.12	227.36
893.42	227.32
893.73	227.32
894.04	227.29
894.34	227.31
894.65	227.29
894.95	227.30
895.26	227.33
895.57	227.35
895.87	227.28
896.18	227.26
896.48	227.25
896.79	227.21
897.10	227.22
897.40	227.22
897.71	227.19
898.01	227.15
898.32	227.15
898.63	227.18
898.93	227.14
899.24	227.14
899.54	227.16
899.85	227.15
900.15	227.12
900.46	227.15
900.76	227.17
901.07	227.20
901.38	227.17
901.68	227.17
901.99	227.14
902.29	227.16
902.60	227.13
902.90	227.12
903.21	227.17
903.51	227.18
903.82	227.17
904.12	227.19
904.43	227.23
904.73	227.24
905.03	227.25
905.34	227.35
905.64	227.35
905.95	227.34
906.25	227.35
906.56	227.38
906.86	227.37
907.17	227.35
907.47	227.35
907.77	227.34
908.08	227.33
908.38	227.32
908.69	227.31
908.99	227.37
909.30	227.36
909.60	227.34
909.90	227.34
910.21	227.33
910.51	227.31
910.81	227.29
911.12	227.27
911.42	227.27
911.73	227.18
912.03	227.17
912.33	227.18
912.64	227.17
912.94	227.14
913.24	227.13
913.55	227.10
913.85	227.09
914.15	227.12
914.46	227.15
914.76	227.13
915.06	227.12
915.37	227.08
915.67	227.10
915.97	227.11
916.27	227.08
916.58	227.12
916.88	227.14
917.18	227.15
917.49	227.22
917.79	227.21
918.09	227.23
918.39	227.26
918.70	227.26
919.00	227.26
919.30	227.33
919.60	227.31
919.91	227.35
920.21	227.37
920.51	227.36
920.81	227.36
921.12	227.40
921.42	227.42
921.72	227.44
922.02	227.44
922.32	227.44
922.63	227.46
922.93	227.50
923.23	227.50
923.53	227.50
923.83	227.42
924.13	227.45
924.44	227.45
924.74	227.50
925.04	227.51
925.34	227.53
925.64	227.46
925.94	227.49
926.24	227.50
926.55	227.49
926.85	227.50
927.15	227.45
927.45	227.44
927.75	227.43
928.05	227.44
928.35	227.45
928.65	227.47
928.95	227.46
929.26	227.40
929.56	227.40
929.86	227.36
930.16	227.37
930.46	227.34
930.76	227.36
931.06	227.30
931.36	227.27
931.66	227.24
931.96	227.25
932.26	227.23
932.56	227.22
932.86	227.21
933.16	227.19
933.46	227.19
933.76	227.16
934.06	227.15
934.36	227.19
934.66	227.15
934.96	227.16
935.26	227.16
935.56	227.17
935.86	227.12
936.16	227.18
936.46	227.18
936.76	227.14
937.06	227.11
937.36	227.11
937.66	227.12
937.96	227.13
938.26	227.12
938.56	227.11
938.86	227.09
939.16	227.11
939.46	227.16
939.76	227.19
940.06	227.16
940.35	227.17
940.65	227.12
940.95	227.13
941.25	227.08
941.55	227.06
941.85	227.04
942.15	227.07
942.45	227.08
942.75	227.06
943.04	227.12
943.34	227.15
943.64	227.15
943.94	227.15
944.24	227.16
944.54	227.16
944.84	227.18
945.13	227.19
945.43	227.16
945.73	227.12
946.03	227.09
946.33	227.08
946.62	227.05
946.92	227.01
947.22	227.03
947.52	227.04
947.82	227.09
948.11	227.09
948.41	227.06
948.71	227.00
949.01	227.00
949.31	226.98
949.60	226.94
949.90	226.95
950.20	226.93
950.50	226.92
950.79	226.92
951.09	226.91
951.39	226.87
951.69	226.85
951.98	226.88
952.28	226.90
952.58	226.89
952.87	226.88
953.17	226.91
953.47	226.92
953.76	226.89
954.06	226.85
954.36	226.84
954.66	226.86
954.95	226.90
955.25	226.91
955.55	226.89
955.84	226.87
956.14	226.87
956.44	226.86
956.73	226.84
957.03	226.84
957.32	226.86
957.62	226.88
957.92	226.92
958.21	226.89
958.51	226.99
958.81	227.01
959.10	227.04
959.40	227.03
959.69	227.01
959.99	227.04
960.29	227.01
960.58	227.01
960.88	227.02
961.17	227.00
961.47	227.01
961.76	227.01
962.06	227.03
962.36	227.01
962.65	227.01
962.95	227.01
963.24	226.98
963.54	226.98
963.83	226.98
964.13	226.93
964.42	226.90
964.72	226.84
965.01	226.86
965.31	226.84
965.60	226.85
965.90	226.92
966.19	226.89
966.49	226.92
966.78	226.91
967.08	226.91
967.37	226.92
967.67	226.90
967.96	226.93
968.26	226.93
968.55	226.95
968.85	226.93
969.14	226.90
969.43	226.95
969.73	226.92
970.02	226.89
970.32	226.91
970.61	226.94
970.91	226.90
971.20	226.88
971.49	226.88
971.79	226.91
972.08	226.84
972.38	226.89
972.67	226.88
972.96	226.92
973.26	226.88
973.55	226.91
973.85	226.91
974.14	226.90
974.43	226.90
974.73	226.88
975.02	226.91
975.31	226.91
975.61	226.90
975.90	226.92
976.19	226.94
976.49	226.98
976.78	227.01
977.07	227.02
977.37	227.04
977.66	227.04
977.95	227.01
978.24	227.03
978.54	226.99
978.83	227.03
979.12	227.06
979.42	227.05
979.71	227.01
980.00	227.01
980.29	227.05
980.59	227.05
980.88	227.07
981.17	227.05
981.46	227.08
981.76	227.11
982.05	227.13
982.34	227.15
982.63	227.10
982.93	227.11
983.22	227.14
983.51	227.18
983.80	227.19
984.09	227.20
984.39	227.13
984.68	227.15
984.97	227.09
985.26	227.04
985.55	227.08
985.85	227.08
986.14	227.09
986.43	227.08
986.72	227.05
987.01	227.04
987.30	227.08
987.59	227.08
987.89	227.04
988.18	227.00
988.47	226.97
988.76	226.97
989.05	226.92
989.34	226.90
989.63	226.87
989.92	226.87
990.22	226.86
990.51	226.90
990.80	226.88
991.09	226.91
991.38	226.91
991.67	226.89
991.96	226.87
992.25	226.87
992.54	226.84
992.83	226.85
993.12	226.81
993.41	226.82
993.70	226.85
993.99	226.91
994.28	226.91
994.58	226.94
994.87	226.94
995.16	226.97
995.45	226.96
995.74	226.92
996.03	226.93
996.32	226.94
996.61	226.96
996.90	226.96
997.19	226.94
997.48	226.97
997.77	226.97
998.06	226.98
998.34	226.96
998.63	226.97
998.92	226.98
999.21	227.02
999.50	227.02
999.79	226.96
1000.08	226.93
1000.37	226.91
1000.66	226.90
1000.95	226.93
1001.24	226.91
1001.53	226.92
1001.82	226.90
1002.11	226.88
1002.40	226.88
1002.68	226.86
1002.97	226.93
1003.26	226.91
1003.55	226.87
1003.84	226.87
1004.13	226.92
1004.42	226.93
1004.71	226.95
1004.99	226.95
1005.28	226.95
1005.57	226.93
1005.86	226.95
1006.15	226.92
1006.44	226.94
1006.72	226.94
1007.01	226.93
1007.30	226.94
1007.59	226.93
1007.88	226.96
1008.17	226.97
1008.45	226.95
1008.74	226.95
1009.03	226.92
1009.32	226.96
1009.60	226.97
1009.89	226.97
1010.18	226.96
1010.47	226.97
1010.76	226.96
1011.04	226.93
1011.33	226.99
1011.62	227.01
1011.91	227.00
1012.19	227.03
1012.48	227.02
1012.77	227.04
1013.05	227.09
1013.34	227.06
1013.63	227.08
1013.92	227.09
1014.20	227.10
1014.49	227.12
1014.78	227.16
1015.06	227.13
1015.35	227.15
1015.64	227.15
1015.92	227.20
1016.21	227.20
1016.50	227.18
1016.78	227.20
1017.07	227.25
1017.36	227.20
1017.64	227.17
1017.93	227.19
1018.22	227.22
1018.50	227.25
1018.79	227.24
1019.08	227.18
1019.36	227.23
1019.65	227.22
1019.93	227.23
1020.22	227.26
1020.51	227.31
1020.79	227.28
1021.08	227.66
1021.36	227.24
1021.65	227.11
1021.94	226.80
1022.22	227.65
1022.51	227.00
1022.79	227.58
1023.08	227.84
1023.36	228.38
1023.65	226.87
>>>>>End Processed Spectral Data<<<<<
