SpectraSuite Data File
++++++++++++++++++++++++++++++++++++
Date: Fri Feb 01 17:41:18 EST 2013
User: group
Dark Spectrum Present: No
Reference Spectrum Present: No
Number of Sampled Component Spectra: 1
Spectrometers: USB2E7196
Integration Time (usec): 35000 (USB2E7196)
Spectra Averaged: 100 (USB2E7196)
Boxcar Smoothing: 10 (USB2E7196)
Correct for Electrical Dark: No (USB2E7196)
Strobe/Lamp Enabled: No (USB2E7196)
Correct for Detector Non-linearity: No (USB2E7196)
Correct for Stray Light: No (USB2E7196)
Number of Pixels in Processed Spectrum: 2048
>>>>>Begin Processed Spectral Data<<<<<
339.09	0.00
339.48	212.89
339.86	214.08
340.24	215.62
340.63	217.16
341.01	219.97
341.39	219.91
341.78	220.87
342.16	221.86
342.54	223.18
342.93	211.12
343.31	221.77
343.69	222.30
344.07	222.78
344.46	223.19
344.84	223.56
345.22	223.79
345.60	224.02
345.99	224.19
346.37	224.31
346.75	224.40
347.13	224.49
347.52	224.58
347.90	224.64
348.28	224.65
348.66	224.68
349.05	224.72
349.43	224.79
349.81	224.80
350.19	224.86
350.57	224.88
350.96	224.96
351.34	225.05
351.72	225.15
352.10	225.24
352.48	225.31
352.87	225.37
353.25	225.43
353.63	225.52
354.01	225.59
354.39	225.68
354.77	225.74
355.15	225.83
355.54	225.89
355.92	225.93
356.30	226.05
356.68	226.20
357.06	226.28
357.44	226.33
357.82	226.40
358.20	226.44
358.58	226.51
358.97	226.59
359.35	226.67
359.73	226.71
360.11	226.77
360.49	226.83
360.87	226.87
361.25	226.94
361.63	227.01
362.01	227.06
362.39	227.08
362.77	227.17
363.15	227.18
363.53	227.21
363.91	227.23
364.29	227.21
364.67	227.12
365.05	227.12
365.43	227.14
365.81	227.23
366.19	227.32
366.57	227.38
366.95	227.38
367.33	227.34
367.71	227.36
368.09	227.37
368.47	227.34
368.85	227.32
369.23	227.27
369.61	227.21
369.99	227.22
370.37	227.22
370.75	227.20
371.13	227.17
371.51	227.13
371.89	227.12
372.27	227.09
372.65	227.06
373.03	227.01
373.41	226.92
373.78	226.82
374.16	226.71
374.54	226.64
374.92	226.56
375.30	226.54
375.68	226.45
376.06	226.39
376.44	226.33
376.82	226.29
377.19	226.22
377.57	226.16
377.95	226.06
378.33	225.98
378.71	225.82
379.09	225.78
379.47	225.74
379.84	225.67
380.22	225.64
380.60	225.57
380.98	225.52
381.36	225.47
381.73	225.39
382.11	225.35
382.49	225.29
382.87	225.19
383.25	225.13
383.62	225.20
384.00	225.14
384.38	225.09
384.76	225.05
385.13	225.09
385.51	225.03
385.89	224.96
386.27	224.94
386.64	224.93
387.02	224.88
387.40	224.83
387.78	224.77
388.15	224.71
388.53	224.67
388.91	224.60
389.29	224.56
389.66	224.56
390.04	224.50
390.42	224.50
390.79	224.51
391.17	224.47
391.55	224.31
391.92	224.28
392.30	224.29
392.68	224.29
393.05	224.26
393.43	224.26
393.81	224.28
394.18	224.29
394.56	224.31
394.94	224.35
395.31	224.34
395.69	224.40
396.06	224.43
396.44	224.46
396.82	224.51
397.19	224.60
397.57	224.61
397.95	224.66
398.32	224.63
398.70	224.67
399.07	224.74
399.45	224.79
399.82	224.84
400.20	224.88
400.58	224.94
400.95	224.95
401.33	225.06
401.70	225.19
402.08	225.26
402.45	225.34
402.83	225.43
403.20	225.57
403.58	225.64
403.95	225.74
404.33	225.87
404.71	225.98
405.08	226.14
405.46	226.27
405.83	226.42
406.21	226.61
406.58	226.80
406.96	226.98
407.33	227.19
407.70	227.41
408.08	227.70
408.45	227.91
408.83	228.17
409.20	228.37
409.58	228.57
409.95	228.83
410.33	229.12
410.70	229.40
411.08	229.67
411.45	230.02
411.82	230.36
412.20	230.75
412.57	231.24
412.95	231.57
413.32	232.06
413.69	232.51
414.07	232.97
414.44	233.48
414.82	234.01
415.19	234.61
415.56	235.22
415.94	235.84
416.31	236.59
416.68	237.27
417.06	238.11
417.43	238.90
417.81	239.79
418.18	240.70
418.55	241.65
418.93	242.66
419.30	243.69
419.67	244.77
420.04	245.84
420.42	246.94
420.79	248.27
421.16	249.57
421.54	250.92
421.91	252.33
422.28	253.77
422.66	255.30
423.03	256.77
423.40	258.30
423.77	259.91
424.15	261.51
424.52	263.23
424.89	265.03
425.26	266.80
425.64	268.44
426.01	270.21
426.38	272.10
426.75	274.05
427.13	276.01
427.50	278.03
427.87	280.20
428.24	282.33
428.61	284.34
428.99	286.56
429.36	288.94
429.73	291.28
430.10	293.55
430.47	295.84
430.85	298.27
431.22	300.81
431.59	303.49
431.96	306.06
432.33	308.88
432.70	311.55
433.08	314.73
433.45	317.74
433.82	320.72
434.19	323.99
434.56	327.12
434.93	330.08
435.30	333.07
435.68	336.30
436.05	339.49
436.42	342.66
436.79	345.49
437.16	348.55
437.53	351.78
437.90	354.96
438.27	358.09
438.64	361.26
439.01	364.20
439.38	366.74
439.75	369.22
440.13	372.04
440.50	374.71
440.87	376.83
441.24	378.99
441.61	381.44
441.98	383.13
442.35	385.17
442.72	387.31
443.09	389.37
443.46	390.49
443.83	391.15
444.20	391.74
444.57	392.71
444.94	393.06
445.31	393.46
445.68	393.88
446.05	394.02
446.42	393.60
446.79	393.16
447.16	392.65
447.53	392.30
447.90	391.01
448.27	389.70
448.64	387.93
449.01	386.71
449.37	384.47
449.74	382.37
450.11	379.85
450.48	377.08
450.85	374.26
451.22	371.93
451.59	369.69
451.96	367.48
452.33	364.51
452.70	361.85
453.07	358.63
453.43	355.36
453.80	352.20
454.17	349.18
454.54	346.26
454.91	343.17
455.28	340.10
455.65	337.26
456.02	334.46
456.38	332.03
456.75	328.98
457.12	326.43
457.49	323.88
457.86	321.41
458.23	319.29
458.59	316.94
458.96	314.54
459.33	312.42
459.70	310.30
460.07	308.60
460.43	306.65
460.80	304.80
461.17	303.13
461.54	301.42
461.91	299.76
462.27	298.13
462.64	296.68
463.01	295.16
463.38	293.72
463.74	292.15
464.11	290.80
464.48	289.63
464.85	288.37
465.21	287.39
465.58	286.35
465.95	285.09
466.32	284.07
466.68	283.03
467.05	282.02
467.42	281.00
467.78	279.96
468.15	278.94
468.52	278.19
468.88	277.24
469.25	276.37
469.62	275.66
469.98	274.89
470.35	274.22
470.72	273.55
471.08	272.78
471.45	272.22
471.82	271.61
472.18	270.91
472.55	270.40
472.92	269.78
473.28	269.27
473.65	268.78
474.02	268.25
474.38	267.84
474.75	267.48
475.11	267.11
475.48	266.79
475.85	266.53
476.21	266.25
476.58	266.03
476.94	265.89
477.31	265.72
477.67	265.52
478.04	265.35
478.41	265.25
478.77	265.28
479.14	265.16
479.50	265.15
479.87	265.20
480.23	265.30
480.60	265.38
480.96	265.42
481.33	265.60
481.69	265.80
482.06	265.96
482.42	266.09
482.79	266.31
483.15	266.62
483.52	266.97
483.88	267.28
484.25	267.68
484.61	268.06
484.98	268.47
485.34	269.05
485.71	269.66
486.07	270.27
486.44	270.84
486.80	271.56
487.17	272.27
487.53	273.07
487.90	273.89
488.26	274.78
488.62	275.76
488.99	276.71
489.35	277.74
489.72	278.89
490.08	280.12
490.44	281.36
490.81	282.70
491.17	284.04
491.54	285.52
491.90	287.05
492.26	288.71
492.63	290.47
492.99	292.25
493.36	294.13
493.72	296.19
494.08	298.27
494.45	300.55
494.81	302.92
495.17	305.38
495.54	307.93
495.90	310.65
496.26	313.45
496.63	316.45
496.99	319.59
497.35	322.82
497.72	326.27
498.08	329.80
498.44	333.46
498.80	337.44
499.17	341.53
499.53	345.70
499.89	350.12
500.26	354.61
500.62	359.30
500.98	364.28
501.34	369.41
501.71	374.75
502.07	380.22
502.43	385.84
502.79	391.71
503.16	397.83
503.52	404.14
503.88	410.59
504.24	417.21
504.60	424.12
504.97	431.33
505.33	438.69
505.69	446.51
506.05	454.40
506.41	462.34
506.78	470.52
507.14	478.99
507.50	487.67
507.86	496.70
508.22	505.97
508.59	515.23
508.95	524.76
509.31	534.66
509.67	544.78
510.03	555.15
510.39	565.72
510.75	576.51
511.12	587.51
511.48	598.80
511.84	610.40
512.20	621.91
512.56	633.87
512.92	646.01
513.28	658.28
513.64	670.74
514.00	683.42
514.37	696.49
514.73	709.59
515.09	722.64
515.45	735.98
515.81	749.55
516.17	763.52
516.53	777.75
516.89	792.01
517.25	806.31
517.61	820.81
517.97	835.34
518.33	849.85
518.69	864.72
519.05	879.90
519.41	895.11
519.77	910.70
520.13	926.26
520.49	941.80
520.85	957.25
521.21	972.95
521.57	989.30
521.93	1005.05
522.29	1021.58
522.65	1038.12
523.01	1054.39
523.37	1070.58
523.73	1086.88
524.09	1103.06
524.45	1119.37
524.81	1136.08
525.17	1152.95
525.53	1170.00
525.89	1187.06
526.25	1204.06
526.61	1220.53
526.97	1237.40
527.33	1254.11
527.68	1270.75
528.04	1287.37
528.40	1304.21
528.76	1321.51
529.12	1338.35
529.48	1355.51
529.84	1371.76
530.20	1388.49
530.56	1405.71
530.91	1423.39
531.27	1440.59
531.63	1457.38
531.99	1474.23
532.35	1490.64
532.71	1506.89
533.07	1523.42
533.42	1539.78
533.78	1556.10
534.14	1572.80
534.50	1588.63
534.86	1604.90
535.21	1620.55
535.57	1636.85
535.93	1652.66
536.29	1667.88
536.65	1683.36
537.00	1698.50
537.36	1714.24
537.72	1729.26
538.08	1744.36
538.44	1758.63
538.79	1773.04
539.15	1787.12
539.51	1801.37
539.87	1816.06
540.22	1830.20
540.58	1844.40
540.94	1858.03
541.29	1871.21
541.65	1884.38
542.01	1898.08
542.37	1910.95
542.72	1924.03
543.08	1936.57
543.44	1949.65
543.79	1961.70
544.15	1973.20
544.51	1985.44
544.87	1997.03
545.22	2008.48
545.58	2019.34
545.94	2029.79
546.29	2040.30
546.65	2050.96
547.01	2061.02
547.36	2070.48
547.72	2079.85
548.07	2088.63
548.43	2097.60
548.79	2106.42
549.14	2114.87
549.50	2122.82
549.86	2131.12
550.21	2139.21
550.57	2146.93
550.92	2154.26
551.28	2162.00
551.64	2169.92
551.99	2177.13
552.35	2184.16
552.70	2191.18
553.06	2197.83
553.41	2204.96
553.77	2211.53
554.13	2218.19
554.48	2225.04
554.84	2231.55
555.19	2237.39
555.55	2243.23
555.90	2248.47
556.26	2254.43
556.61	2259.65
556.97	2264.93
557.32	2269.92
557.68	2274.70
558.03	2279.69
558.39	2284.22
558.74	2289.52
559.10	2294.13
559.45	2298.47
559.81	2303.25
560.16	2307.58
560.52	2311.70
560.87	2315.67
561.23	2319.03
561.58	2322.52
561.94	2325.64
562.29	2328.26
562.64	2331.91
563.00	2335.07
563.35	2339.34
563.71	2343.03
564.06	2346.85
564.42	2350.43
564.77	2353.78
565.12	2357.19
565.48	2359.96
565.83	2362.51
566.19	2364.56
566.54	2366.08
566.89	2367.93
567.25	2369.32
567.60	2371.29
567.96	2373.76
568.31	2375.39
568.66	2377.28
569.02	2378.75
569.37	2379.73
569.72	2381.31
570.08	2381.92
570.43	2382.46
570.78	2382.45
571.14	2381.37
571.49	2380.53
571.84	2380.54
572.20	2379.91
572.55	2378.85
572.90	2377.49
573.26	2376.59
573.61	2375.13
573.96	2374.11
574.31	2371.48
574.67	2369.02
575.02	2365.78
575.37	2362.40
575.72	2358.93
576.08	2355.75
576.43	2352.51
576.78	2349.47
577.13	2346.53
577.49	2343.47
577.84	2340.52
578.19	2336.87
578.54	2333.72
578.90	2330.07
579.25	2324.84
579.60	2320.11
579.95	2315.49
580.30	2310.77
580.66	2305.71
581.01	2300.97
581.36	2295.83
581.71	2292.09
582.06	2287.76
582.42	2283.64
582.77	2278.62
583.12	2274.23
583.47	2269.96
583.82	2265.39
584.17	2260.07
584.53	2254.69
584.88	2249.47
585.23	2243.89
585.58	2238.50
585.93	2232.90
586.28	2227.89
586.63	2222.95
586.98	2217.79
587.34	2213.02
587.69	2208.08
588.04	2202.96
588.39	2197.32
588.74	2190.91
589.09	2184.63
589.44	2177.80
589.79	2171.33
590.14	2165.62
590.49	2158.88
590.84	2151.97
591.19	2145.77
591.54	2139.11
591.89	2131.85
592.25	2124.98
592.60	2117.52
592.95	2109.97
593.30	2102.49
593.65	2094.70
594.00	2087.34
594.35	2079.96
594.70	2071.51
595.05	2064.43
595.40	2056.82
595.75	2049.13
596.10	2042.96
596.45	2036.18
596.80	2029.74
597.15	2023.09
597.50	2016.16
597.85	2009.48
598.19	2002.89
598.54	1995.99
598.89	1989.30
599.24	1983.18
599.59	1976.45
599.94	1969.99
600.29	1963.44
600.64	1956.64
600.99	1949.09
601.34	1942.07
601.69	1934.58
602.04	1927.64
602.39	1919.89
602.74	1912.82
603.08	1906.04
603.43	1898.80
603.78	1891.12
604.13	1883.55
604.48	1876.13
604.83	1868.92
605.18	1861.88
605.53	1853.66
605.87	1845.05
606.22	1837.38
606.57	1829.10
606.92	1821.01
607.27	1813.72
607.62	1806.56
607.96	1799.13
608.31	1792.40
608.66	1784.53
609.01	1776.90
609.36	1769.13
609.70	1760.76
610.05	1752.48
610.40	1744.29
610.75	1735.73
611.10	1727.67
611.44	1718.95
611.79	1710.53
612.14	1701.25
612.49	1691.64
612.83	1682.67
613.18	1673.93
613.53	1665.48
613.88	1656.34
614.22	1647.81
614.57	1638.41
614.92	1629.83
615.27	1621.91
615.61	1613.14
615.96	1604.59
616.31	1596.42
616.65	1588.46
617.00	1580.42
617.35	1572.15
617.70	1563.46
618.04	1554.49
618.39	1545.73
618.74	1537.86
619.08	1529.00
619.43	1520.97
619.78	1513.48
620.12	1505.97
620.47	1498.03
620.82	1489.26
621.16	1481.37
621.51	1473.18
621.85	1465.16
622.20	1456.14
622.55	1447.10
622.89	1438.70
623.24	1430.58
623.59	1422.54
623.93	1414.57
624.28	1406.90
624.62	1398.99
624.97	1391.19
625.32	1383.82
625.66	1376.33
626.01	1368.57
626.35	1360.89
626.70	1352.57
627.04	1344.48
627.39	1336.15
627.73	1328.25
628.08	1320.81
628.43	1313.19
628.77	1305.63
629.12	1297.66
629.46	1290.06
629.81	1282.05
630.15	1274.15
630.50	1266.35
630.84	1257.97
631.19	1249.63
631.53	1241.58
631.88	1233.57
632.22	1225.56
632.57	1217.81
632.91	1209.80
633.26	1201.97
633.60	1193.99
633.95	1186.38
634.29	1178.78
634.64	1171.63
634.98	1163.95
635.32	1156.54
635.67	1149.44
636.01	1142.22
636.36	1135.09
636.70	1128.16
637.05	1121.22
637.39	1114.52
637.73	1107.60
638.08	1101.24
638.42	1094.87
638.77	1088.10
639.11	1081.19
639.45	1074.52
639.80	1067.57
640.14	1060.83
640.49	1053.99
640.83	1047.34
641.17	1040.97
641.52	1034.43
641.86	1027.66
642.20	1021.45
642.55	1014.66
642.89	1007.84
643.23	1000.87
643.58	994.72
643.92	988.20
644.26	982.07
644.61	975.57
644.95	969.28
645.29	962.46
645.64	955.43
645.98	948.76
646.32	942.36
646.66	935.98
647.01	929.90
647.35	923.91
647.69	917.63
648.04	911.82
648.38	905.65
648.72	899.43
649.06	893.17
649.41	886.90
649.75	880.70
650.09	874.51
650.43	868.47
650.78	862.02
651.12	855.76
651.46	849.64
651.80	843.82
652.14	838.08
652.49	832.37
652.83	826.89
653.17	821.10
653.51	815.25
653.85	809.51
654.20	803.62
654.54	797.35
654.88	791.32
655.22	785.04
655.56	778.98
655.90	773.06
656.25	767.48
656.59	761.94
656.93	756.59
657.27	751.24
657.61	745.46
657.95	740.10
658.29	734.77
658.64	729.19
658.98	723.52
659.32	717.71
659.66	712.26
660.00	706.75
660.34	701.46
660.68	696.23
661.02	690.96
661.36	686.03
661.70	681.37
662.05	676.84
662.39	672.38
662.73	667.72
663.07	663.13
663.41	658.46
663.75	653.68
664.09	648.83
664.43	644.12
664.77	639.92
665.11	635.46
665.45	631.08
665.79	626.88
666.13	622.63
666.47	618.40
666.81	614.02
667.15	609.64
667.49	605.52
667.83	601.47
668.17	597.32
668.51	592.99
668.85	588.62
669.19	584.45
669.53	580.45
669.87	576.40
670.21	572.52
670.55	568.69
670.89	565.13
671.23	561.58
671.57	557.88
671.91	554.12
672.25	550.37
672.58	546.67
672.92	543.00
673.26	539.59
673.60	536.28
673.94	533.09
674.28	530.02
674.62	526.90
674.96	523.72
675.30	520.67
675.64	517.60
675.97	514.64
676.31	511.67
676.65	508.59
676.99	505.77
677.33	502.72
677.67	499.70
678.01	496.52
678.34	493.45
678.68	490.47
679.02	487.55
679.36	484.66
679.70	481.78
680.04	478.84
680.37	475.89
680.71	472.92
681.05	470.13
681.39	467.24
681.73	464.40
682.06	461.73
682.40	459.09
682.74	456.37
683.08	453.74
683.42	450.98
683.75	448.30
684.09	445.54
684.43	442.96
684.77	440.42
685.10	437.90
685.44	435.39
685.78	432.98
686.12	430.58
686.45	428.15
686.79	425.78
687.13	423.51
687.46	421.19
687.80	418.93
688.14	416.49
688.48	414.35
688.81	412.07
689.15	409.77
689.49	407.39
689.82	405.20
690.16	403.00
690.50	400.92
690.83	398.89
691.17	396.81
691.51	394.73
691.84	392.74
692.18	390.76
692.52	388.73
692.85	386.67
693.19	384.69
693.52	382.73
693.86	380.77
694.20	378.83
694.53	376.93
694.87	374.95
695.21	373.08
695.54	371.08
695.88	369.21
696.21	367.45
696.55	365.71
696.88	363.91
697.22	362.13
697.56	360.36
697.89	358.59
698.23	356.90
698.56	355.28
698.90	353.64
699.23	351.91
699.57	350.26
699.90	348.57
700.24	346.91
700.58	345.33
700.91	343.74
701.25	342.22
701.58	340.76
701.92	339.35
702.25	337.93
702.59	336.51
702.92	335.11
703.26	333.70
703.59	332.33
703.93	331.12
704.26	329.80
704.60	328.54
704.93	327.23
705.26	325.93
705.60	324.62
705.93	323.34
706.27	322.19
706.60	321.07
706.94	319.92
707.27	318.74
707.61	317.61
707.94	316.52
708.27	315.34
708.61	314.17
708.94	313.07
709.28	312.00
709.61	310.96
709.94	309.93
710.28	308.83
710.61	307.77
710.95	306.58
711.28	305.63
711.61	304.58
711.95	303.57
712.28	302.54
712.61	301.51
712.95	300.55
713.28	299.61
713.61	298.62
713.95	297.73
714.28	296.80
714.61	295.87
714.95	294.95
715.28	294.08
715.61	293.15
715.95	292.22
716.28	291.28
716.61	290.39
716.95	289.54
717.28	288.74
717.61	287.94
717.94	287.17
718.28	286.29
718.61	285.52
718.94	284.74
719.27	284.09
719.61	283.41
719.94	282.69
720.27	281.94
720.60	281.26
720.94	280.58
721.27	279.96
721.60	279.29
721.93	278.65
722.27	278.05
722.60	277.45
722.93	276.87
723.26	276.32
723.59	275.72
723.93	275.10
724.26	274.54
724.59	273.95
724.92	273.37
725.25	272.83
725.59	272.25
725.92	271.74
726.25	271.14
726.58	270.60
726.91	270.09
727.24	269.61
727.57	269.12
727.91	268.58
728.24	268.09
728.57	267.60
728.90	267.17
729.23	266.63
729.56	266.19
729.89	265.72
730.22	265.17
730.55	264.67
730.89	264.21
731.22	263.72
731.55	263.24
731.88	262.82
732.21	262.35
732.54	261.93
732.87	261.47
733.20	261.06
733.53	260.66
733.86	260.25
734.19	259.83
734.52	259.41
734.85	259.08
735.18	258.64
735.51	258.24
735.84	257.82
736.17	257.47
736.50	257.03
736.83	256.76
737.16	256.42
737.49	256.08
737.82	255.73
738.15	255.39
738.48	255.05
738.81	254.69
739.14	254.36
739.47	254.04
739.80	253.73
740.13	253.41
740.46	253.04
740.79	252.65
741.12	252.32
741.45	251.98
741.78	251.60
742.11	251.32
742.44	250.99
742.77	250.70
743.10	250.39
743.43	250.09
743.75	249.70
744.08	249.57
744.41	249.28
744.74	249.00
745.07	248.72
745.40	248.50
745.73	248.27
746.06	247.99
746.39	247.72
746.71	247.43
747.04	247.12
747.37	246.87
747.70	246.63
748.03	246.35
748.36	246.10
748.68	245.85
749.01	245.57
749.34	245.31
749.67	245.04
750.00	244.78
750.33	244.62
750.65	244.36
750.98	243.97
751.31	243.72
751.64	243.49
751.97	243.29
752.29	243.00
752.62	242.71
752.95	242.45
753.28	242.20
753.60	241.98
753.93	241.79
754.26	241.55
754.59	241.30
754.91	241.06
755.24	240.84
755.57	240.63
755.90	240.43
756.22	240.21
756.55	240.01
756.88	239.79
757.20	239.52
757.53	239.33
757.86	239.15
758.19	239.00
758.51	238.81
758.84	238.58
759.17	238.42
759.49	238.26
759.82	238.14
760.15	237.97
760.47	237.82
760.80	237.61
761.13	237.52
761.45	237.36
761.78	237.22
762.11	237.08
762.43	236.93
762.76	236.76
763.08	236.64
763.41	236.47
763.74	236.33
764.06	236.17
764.39	236.05
764.71	235.90
765.04	235.73
765.37	235.56
765.69	235.41
766.02	235.25
766.34	235.08
766.67	234.94
767.00	234.85
767.32	234.78
767.65	234.75
767.97	234.62
768.30	234.52
768.62	234.41
768.95	234.26
769.27	234.13
769.60	234.05
769.92	233.91
770.25	233.81
770.57	233.68
770.90	233.57
771.22	233.45
771.55	233.35
771.87	233.27
772.20	233.19
772.52	233.18
772.85	233.24
773.17	233.17
773.50	233.07
773.82	232.97
774.15	232.83
774.47	232.67
774.80	232.56
775.12	232.47
775.45	232.39
775.77	232.32
776.09	232.24
776.42	232.19
776.74	232.15
777.07	232.07
777.39	232.06
777.72	231.98
778.04	231.93
778.36	231.83
778.69	231.73
779.01	231.67
779.33	231.55
779.66	231.36
779.98	231.29
780.31	231.23
780.63	231.19
780.95	231.15
781.28	231.08
781.60	231.00
781.92	230.95
782.25	230.89
782.57	230.84
782.89	230.80
783.22	230.69
783.54	230.62
783.86	230.57
784.19	230.47
784.51	230.44
784.83	230.37
785.16	230.32
785.48	230.30
785.80	230.26
786.12	230.14
786.45	230.10
786.77	230.05
787.09	229.99
787.42	229.92
787.74	229.87
788.06	229.86
788.38	229.81
788.71	229.74
789.03	229.71
789.35	229.68
789.67	229.63
789.99	229.62
790.32	229.56
790.64	229.57
790.96	229.59
791.28	229.52
791.61	229.46
791.93	229.45
792.25	229.38
792.57	229.41
792.89	229.39
793.21	229.35
793.54	229.30
793.86	229.24
794.18	229.18
794.50	229.11
794.82	229.02
795.14	229.00
795.47	229.00
795.79	228.96
796.11	228.86
796.43	228.79
796.75	228.75
797.07	228.71
797.39	228.65
797.71	228.57
798.04	228.54
798.36	228.50
798.68	228.45
799.00	228.44
799.32	228.32
799.64	228.30
799.96	228.24
800.28	228.20
800.60	228.19
800.92	228.17
801.24	228.11
801.56	228.10
801.89	228.05
802.21	228.00
802.53	227.93
802.85	227.94
803.17	227.96
803.49	227.88
803.81	227.82
804.13	227.76
804.45	227.71
804.77	227.65
805.09	227.63
805.41	227.60
805.73	227.49
806.05	227.46
806.37	227.42
806.69	227.41
807.01	227.37
807.33	227.32
807.65	227.26
807.97	227.30
808.28	227.25
808.60	227.22
808.92	227.19
809.24	227.21
809.56	227.14
809.88	227.10
810.20	227.05
810.52	227.04
810.84	226.99
811.16	226.95
811.48	226.90
811.80	226.90
812.12	226.86
812.43	226.87
812.75	226.85
813.07	226.79
813.39	226.76
813.71	226.72
814.03	226.71
814.35	226.69
814.67	226.62
814.98	226.59
815.30	226.58
815.62	226.52
815.94	226.45
816.26	226.52
816.58	226.45
816.89	226.48
817.21	226.47
817.53	226.47
817.85	226.47
818.17	226.49
818.48	226.45
818.80	226.46
819.12	226.44
819.44	226.40
819.76	226.41
820.07	226.40
820.39	226.41
820.71	226.39
821.03	226.39
821.34	226.36
821.66	226.36
821.98	226.34
822.30	226.32
822.61	226.37
822.93	226.32
823.25	226.34
823.57	226.29
823.88	226.30
824.20	226.30
824.52	226.30
824.83	226.30
825.15	226.27
825.47	226.27
825.79	226.27
826.10	226.26
826.42	226.25
826.74	226.25
827.05	226.23
827.37	226.22
827.69	226.19
828.00	226.22
828.32	226.21
828.64	226.19
828.95	226.25
829.27	226.24
829.58	226.22
829.90	226.23
830.22	226.24
830.53	226.19
830.85	226.15
831.17	226.11
831.48	226.08
831.80	226.09
832.11	226.09
832.43	226.07
832.75	226.08
833.06	226.12
833.38	226.05
833.69	226.04
834.01	226.05
834.32	226.04
834.64	226.02
834.96	226.04
835.27	226.08
835.59	226.04
835.90	225.98
836.22	225.95
836.53	225.91
836.85	225.89
837.16	225.94
837.48	225.93
837.79	225.96
838.11	225.94
838.42	225.91
838.74	225.86
839.05	225.87
839.37	225.83
839.68	225.76
840.00	225.75
840.31	225.77
840.63	225.73
840.94	225.70
841.26	225.67
841.57	225.62
841.88	225.59
842.20	225.55
842.51	225.53
842.83	225.50
843.14	225.59
843.46	225.59
843.77	225.55
844.08	225.55
844.40	225.49
844.71	225.47
845.03	225.47
845.34	225.45
845.65	225.42
845.97	225.43
846.28	225.43
846.60	225.44
846.91	225.42
847.22	225.39
847.54	225.41
847.85	225.42
848.16	225.37
848.48	225.34
848.79	225.40
849.10	225.44
849.42	225.43
849.73	225.34
850.04	225.31
850.36	225.26
850.67	225.27
850.98	225.26
851.30	225.25
851.61	225.25
851.92	225.24
852.23	225.27
852.55	225.25
852.86	225.25
853.17	225.24
853.49	225.26
853.80	225.25
854.11	225.30
854.42	225.31
854.74	225.33
855.05	225.34
855.36	225.27
855.67	225.24
855.99	225.23
856.30	225.33
856.61	225.36
856.92	225.39
857.23	225.38
857.55	225.39
857.86	225.39
858.17	225.42
858.48	225.41
858.79	225.39
859.11	225.43
859.42	225.37
859.73	225.38
860.04	225.35
860.35	225.33
860.66	225.28
860.98	225.27
861.29	225.30
861.60	225.29
861.91	225.29
862.22	225.30
862.53	225.30
862.84	225.19
863.16	225.20
863.47	225.19
863.78	225.20
864.09	225.21
864.40	225.22
864.71	225.19
865.02	225.22
865.33	225.22
865.64	225.20
865.95	225.25
866.27	225.31
866.58	225.31
866.89	225.31
867.20	225.32
867.51	225.29
867.82	225.30
868.13	225.34
868.44	225.31
868.75	225.30
869.06	225.33
869.37	225.35
869.68	225.31
869.99	225.32
870.30	225.35
870.61	225.34
870.92	225.31
871.23	225.31
871.54	225.34
871.85	225.33
872.16	225.35
872.47	225.35
872.78	225.28
873.09	225.29
873.40	225.29
873.71	225.28
874.02	225.28
874.33	225.22
874.64	225.18
874.95	225.19
875.26	225.17
875.56	225.17
875.87	225.17
876.18	225.16
876.49	225.25
876.80	225.21
877.11	225.21
877.42	225.21
877.73	225.22
878.04	225.18
878.35	225.16
878.66	225.12
878.96	225.12
879.27	225.13
879.58	225.11
879.89	225.10
880.20	225.10
880.51	225.08
880.82	225.10
881.12	225.11
881.43	225.07
881.74	225.06
882.05	225.02
882.36	225.01
882.67	225.03
882.97	224.89
883.28	224.86
883.59	224.82
883.90	224.83
884.21	224.85
884.51	224.82
884.82	224.84
885.13	224.81
885.44	224.80
885.74	224.80
886.05	224.76
886.36	224.76
886.67	224.75
886.98	224.81
887.28	224.79
887.59	224.79
887.90	224.78
888.20	224.77
888.51	224.79
888.82	224.75
889.13	224.70
889.43	224.79
889.74	224.79
890.05	224.80
890.35	224.77
890.66	224.73
890.97	224.73
891.28	224.69
891.58	224.73
891.89	224.70
892.20	224.69
892.50	224.70
892.81	224.68
893.12	224.67
893.42	224.62
893.73	224.63
894.04	224.62
894.34	224.65
894.65	224.66
894.95	224.65
895.26	224.66
895.57	224.73
895.87	224.67
896.18	224.69
896.48	224.71
896.79	224.73
897.10	224.75
897.40	224.76
897.71	224.80
898.01	224.79
898.32	224.80
898.63	224.76
898.93	224.77
899.24	224.80
899.54	224.83
899.85	224.82
900.15	224.82
900.46	224.82
900.76	224.82
901.07	224.85
901.38	224.87
901.68	224.91
901.99	224.85
902.29	224.85
902.60	224.83
902.90	224.81
903.21	224.81
903.51	224.80
903.82	224.83
904.12	224.82
904.43	224.84
904.73	224.86
905.03	224.92
905.34	225.05
905.64	225.04
905.95	225.04
906.25	225.07
906.56	225.06
906.86	225.07
907.17	225.10
907.47	225.11
907.77	225.10
908.08	225.07
908.38	225.06
908.69	225.08
908.99	225.13
909.30	225.15
909.60	225.13
909.90	225.15
910.21	225.12
910.51	225.12
910.81	225.14
911.12	225.16
911.42	225.19
911.73	225.05
912.03	225.04
912.33	225.07
912.64	225.08
912.94	225.06
913.24	225.06
913.55	225.07
913.85	225.04
914.15	225.02
914.46	225.05
914.76	225.07
915.06	225.06
915.37	225.04
915.67	225.04
915.97	225.05
916.27	225.06
916.58	225.05
916.88	225.04
917.18	225.01
917.49	225.03
917.79	225.00
918.09	225.02
918.39	225.08
918.70	225.03
919.00	225.03
919.30	225.09
919.60	225.06
919.91	225.04
920.21	225.04
920.51	225.04
920.81	225.00
921.12	224.99
921.42	224.96
921.72	224.95
922.02	224.92
922.32	224.93
922.63	224.90
922.93	224.98
923.23	224.96
923.53	224.96
923.83	224.88
924.13	224.88
924.44	224.87
924.74	224.86
925.04	224.86
925.34	224.85
925.64	224.77
925.94	224.75
926.24	224.76
926.55	224.76
926.85	224.75
927.15	224.79
927.45	224.78
927.75	224.76
928.05	224.73
928.35	224.73
928.65	224.73
928.95	224.70
929.26	224.63
929.56	224.65
929.86	224.64
930.16	224.64
930.46	224.64
930.76	224.65
931.06	224.57
931.36	224.55
931.66	224.56
931.96	224.58
932.26	224.58
932.56	224.53
932.86	224.49
933.16	224.50
933.46	224.46
933.76	224.45
934.06	224.48
934.36	224.50
934.66	224.52
934.96	224.51
935.26	224.52
935.56	224.52
935.86	224.49
936.16	224.48
936.46	224.46
936.76	224.44
937.06	224.42
937.36	224.45
937.66	224.48
937.96	224.46
938.26	224.47
938.56	224.49
938.86	224.48
939.16	224.53
939.46	224.51
939.76	224.56
940.06	224.55
940.35	224.54
940.65	224.54
940.95	224.53
941.25	224.53
941.55	224.52
941.85	224.54
942.15	224.53
942.45	224.55
942.75	224.56
943.04	224.58
943.34	224.58
943.64	224.57
943.94	224.51
944.24	224.54
944.54	224.53
944.84	224.52
945.13	224.56
945.43	224.57
945.73	224.59
946.03	224.56
946.33	224.59
946.62	224.60
946.92	224.62
947.22	224.60
947.52	224.61
947.82	224.61
948.11	224.59
948.41	224.61
948.71	224.59
949.01	224.60
949.31	224.57
949.60	224.56
949.90	224.59
950.20	224.60
950.50	224.60
950.79	224.61
951.09	224.63
951.39	224.60
951.69	224.57
951.98	224.62
952.28	224.62
952.58	224.60
952.87	224.59
953.17	224.58
953.47	224.62
953.76	224.63
954.06	224.64
954.36	224.63
954.66	224.63
954.95	224.67
955.25	224.70
955.55	224.74
955.84	224.75
956.14	224.75
956.44	224.82
956.73	224.76
957.03	224.78
957.32	224.80
957.62	224.80
957.92	224.82
958.21	224.78
958.51	224.90
958.81	224.90
959.10	224.88
959.40	224.93
959.69	224.94
959.99	224.95
960.29	224.97
960.58	225.00
960.88	225.07
961.17	225.03
961.47	225.04
961.76	224.99
962.06	224.99
962.36	224.97
962.65	224.95
962.95	224.95
963.24	224.92
963.54	224.91
963.83	224.93
964.13	224.93
964.42	224.90
964.72	224.84
965.01	224.85
965.31	224.84
965.60	224.82
965.90	224.84
966.19	224.80
966.49	224.79
966.78	224.76
967.08	224.71
967.37	224.73
967.67	224.70
967.96	224.75
968.26	224.78
968.55	224.78
968.85	224.75
969.14	224.77
969.43	224.80
969.73	224.78
970.02	224.75
970.32	224.75
970.61	224.75
970.91	224.69
971.20	224.66
971.49	224.66
971.79	224.63
972.08	224.59
972.38	224.59
972.67	224.57
972.96	224.58
973.26	224.55
973.55	224.57
973.85	224.56
974.14	224.56
974.43	224.54
974.73	224.55
975.02	224.53
975.31	224.50
975.61	224.46
975.90	224.45
976.19	224.47
976.49	224.47
976.78	224.46
977.07	224.47
977.37	224.50
977.66	224.53
977.95	224.52
978.24	224.51
978.54	224.55
978.83	224.57
979.12	224.56
979.42	224.58
979.71	224.60
980.00	224.58
980.29	224.58
980.59	224.56
980.88	224.59
981.17	224.58
981.46	224.59
981.76	224.63
982.05	224.67
982.34	224.66
982.63	224.68
982.93	224.72
983.22	224.75
983.51	224.72
983.80	224.73
984.09	224.76
984.39	224.75
984.68	224.71
984.97	224.70
985.26	224.69
985.55	224.68
985.85	224.64
986.14	224.68
986.43	224.66
986.72	224.66
987.01	224.64
987.30	224.67
987.59	224.69
987.89	224.67
988.18	224.61
988.47	224.62
988.76	224.60
989.05	224.58
989.34	224.57
989.63	224.61
989.92	224.58
990.22	224.56
990.51	224.59
990.80	224.60
991.09	224.60
991.38	224.61
991.67	224.60
991.96	224.56
992.25	224.53
992.54	224.55
992.83	224.53
993.12	224.50
993.41	224.51
993.70	224.55
993.99	224.61
994.28	224.65
994.58	224.66
994.87	224.64
995.16	224.65
995.45	224.63
995.74	224.59
996.03	224.63
996.32	224.62
996.61	224.63
996.90	224.60
997.19	224.59
997.48	224.58
997.77	224.59
998.06	224.64
998.34	224.65
998.63	224.65
998.92	224.63
999.21	224.64
999.50	224.63
999.79	224.56
1000.08	224.50
1000.37	224.46
1000.66	224.45
1000.95	224.50
1001.24	224.48
1001.53	224.50
1001.82	224.48
1002.11	224.41
1002.40	224.46
1002.68	224.47
1002.97	224.55
1003.26	224.54
1003.55	224.51
1003.84	224.52
1004.13	224.53
1004.42	224.53
1004.71	224.50
1004.99	224.52
1005.28	224.55
1005.57	224.54
1005.86	224.55
1006.15	224.55
1006.44	224.56
1006.72	224.58
1007.01	224.54
1007.30	224.52
1007.59	224.55
1007.88	224.56
1008.17	224.58
1008.45	224.55
1008.74	224.50
1009.03	224.44
1009.32	224.47
1009.60	224.45
1009.89	224.44
1010.18	224.42
1010.47	224.42
1010.76	224.44
1011.04	224.44
1011.33	224.44
1011.62	224.46
1011.91	224.49
1012.19	224.50
1012.48	224.48
1012.77	224.48
1013.05	224.51
1013.34	224.53
1013.63	224.48
1013.92	224.51
1014.20	224.54
1014.49	224.54
1014.78	224.58
1015.06	224.57
1015.35	224.58
1015.64	224.62
1015.92	224.62
1016.21	224.62
1016.50	224.62
1016.78	224.64
1017.07	224.64
1017.36	224.62
1017.64	224.61
1017.93	224.59
1018.22	224.57
1018.50	224.62
1018.79	224.60
1019.08	224.57
1019.36	224.54
1019.65	224.54
1019.93	224.56
1020.22	224.55
1020.51	224.59
1020.79	224.58
1021.08	224.11
1021.36	224.55
1021.65	224.52
1021.94	224.40
1022.22	224.23
1022.51	224.57
1022.79	224.97
1023.08	224.55
1023.36	225.68
1023.65	224.77
>>>>>End Processed Spectral Data<<<<<
