SpectraSuite Data File
++++++++++++++++++++++++++++++++++++
Date: Fri Feb 01 15:24:34 EST 2013
User: group
Dark Spectrum Present: No
Reference Spectrum Present: No
Number of Sampled Component Spectra: 1
Spectrometers: USB2E7196
Integration Time (usec): 35000 (USB2E7196)
Spectra Averaged: 100 (USB2E7196)
Boxcar Smoothing: 10 (USB2E7196)
Correct for Electrical Dark: No (USB2E7196)
Strobe/Lamp Enabled: No (USB2E7196)
Correct for Detector Non-linearity: No (USB2E7196)
Correct for Stray Light: No (USB2E7196)
Number of Pixels in Processed Spectrum: 2048
>>>>>Begin Processed Spectral Data<<<<<
339.09	0.00
339.48	215.12
339.86	217.11
340.24	217.76
340.63	219.63
341.01	222.30
341.39	222.88
341.78	223.66
342.16	224.77
342.54	225.13
342.93	213.57
343.31	224.37
343.69	224.91
344.07	225.36
344.46	225.79
344.84	226.16
345.22	226.40
345.60	226.61
345.99	226.81
346.37	226.96
346.75	227.05
347.13	227.12
347.52	227.18
347.90	227.24
348.28	227.26
348.66	227.31
349.05	227.31
349.43	227.37
349.81	227.45
350.19	227.50
350.57	227.58
350.96	227.67
351.34	227.74
351.72	227.83
352.10	227.91
352.48	227.98
352.87	228.03
353.25	228.09
353.63	228.18
354.01	228.23
354.39	228.31
354.77	228.41
355.15	228.49
355.54	228.54
355.92	228.59
356.30	228.66
356.68	228.81
357.06	228.88
357.44	228.92
357.82	228.97
358.20	229.03
358.58	229.10
358.97	229.14
359.35	229.22
359.73	229.31
360.11	229.36
360.49	229.42
360.87	229.49
361.25	229.51
361.63	229.57
362.01	229.59
362.39	229.60
362.77	229.60
363.15	229.64
363.53	229.65
363.91	229.68
364.29	229.70
364.67	229.59
365.05	229.62
365.43	229.66
365.81	229.70
366.19	229.70
366.57	229.74
366.95	229.76
367.33	229.72
367.71	229.68
368.09	229.67
368.47	229.66
368.85	229.62
369.23	229.62
369.61	229.56
369.99	229.53
370.37	229.52
370.75	229.55
371.13	229.46
371.51	229.43
371.89	229.40
372.27	229.33
372.65	229.30
373.03	229.21
373.41	229.15
373.78	229.04
374.16	228.95
374.54	228.86
374.92	228.75
375.30	228.70
375.68	228.61
376.06	228.57
376.44	228.45
376.82	228.38
377.19	228.30
377.57	228.22
377.95	228.13
378.33	228.03
378.71	227.91
379.09	227.85
379.47	227.80
379.84	227.71
380.22	227.64
380.60	227.56
380.98	227.49
381.36	227.41
381.73	227.33
382.11	227.30
382.49	227.22
382.87	227.16
383.25	227.08
383.62	227.17
384.00	227.07
384.38	227.02
384.76	226.98
385.13	226.98
385.51	226.94
385.89	226.91
386.27	226.86
386.64	226.83
387.02	226.79
387.40	226.74
387.78	226.66
388.15	226.63
388.53	226.56
388.91	226.55
389.29	226.51
389.66	226.47
390.04	226.42
390.42	226.38
390.79	226.35
391.17	226.34
391.55	226.21
391.92	226.23
392.30	226.24
392.68	226.23
393.05	226.26
393.43	226.23
393.81	226.23
394.18	226.25
394.56	226.25
394.94	226.30
395.31	226.30
395.69	226.39
396.06	226.42
396.44	226.48
396.82	226.54
397.19	226.61
397.57	226.65
397.95	226.74
398.32	226.81
398.70	226.89
399.07	226.96
399.45	227.01
399.82	227.03
400.20	227.06
400.58	227.16
400.95	227.17
401.33	227.28
401.70	227.45
402.08	227.53
402.45	227.66
402.83	227.77
403.20	227.90
403.58	227.97
403.95	228.13
404.33	228.27
404.71	228.38
405.08	228.59
405.46	228.76
405.83	228.89
406.21	229.04
406.58	229.21
406.96	229.36
407.33	229.56
407.70	229.79
408.08	230.07
408.45	230.32
408.83	230.57
409.20	230.83
409.58	230.97
409.95	231.28
410.33	231.52
410.70	231.79
411.08	232.09
411.45	232.44
411.82	232.73
412.20	233.10
412.57	233.55
412.95	233.84
413.32	234.25
413.69	234.69
414.07	235.12
414.44	235.59
414.82	236.09
415.19	236.65
415.56	237.21
415.94	237.78
416.31	238.38
416.68	238.98
417.06	239.64
417.43	240.34
417.81	241.06
418.18	241.86
418.55	242.68
418.93	243.58
419.30	244.44
419.67	245.36
420.04	246.30
420.42	247.27
420.79	248.44
421.16	249.60
421.54	250.76
421.91	251.95
422.28	253.24
422.66	254.57
423.03	255.87
423.40	257.19
423.77	258.59
424.15	260.02
424.52	261.53
424.89	263.15
425.26	264.69
425.64	266.15
426.01	267.71
426.38	269.35
426.75	271.03
427.13	272.77
427.50	274.60
427.87	276.50
428.24	278.36
428.61	280.13
428.99	282.06
429.36	284.18
429.73	286.27
430.10	288.27
430.47	290.33
430.85	292.44
431.22	294.68
431.59	297.05
431.96	299.29
432.33	301.78
432.70	304.16
433.08	307.01
433.45	309.67
433.82	312.28
434.19	315.19
434.56	318.01
434.93	320.65
435.30	323.26
435.68	326.14
436.05	329.00
436.42	331.77
436.79	334.30
437.16	337.00
437.53	339.86
437.90	342.64
438.27	345.41
438.64	348.26
439.01	350.90
439.38	353.18
439.75	355.39
440.13	357.89
440.50	360.25
440.87	362.05
441.24	364.00
441.61	366.18
441.98	367.71
442.35	369.45
442.72	371.32
443.09	373.18
443.46	374.19
443.83	374.74
444.20	375.25
444.57	376.07
444.94	376.39
445.31	376.67
445.68	377.04
446.05	377.13
446.42	376.79
446.79	376.35
447.16	375.92
447.53	375.60
447.90	374.41
448.27	373.26
448.64	371.73
449.01	370.57
449.37	368.59
449.74	366.66
450.11	364.47
450.48	362.05
450.85	359.47
451.22	357.33
451.59	355.27
451.96	353.34
452.33	350.77
452.70	348.39
453.07	345.61
453.43	342.75
453.80	339.93
454.17	337.18
454.54	334.61
454.91	331.86
455.28	329.15
455.65	326.69
456.02	324.22
456.38	322.08
456.75	319.43
457.12	317.22
457.49	314.98
457.86	312.84
458.23	310.96
458.59	308.95
458.96	306.81
459.33	305.00
459.70	303.15
460.07	301.62
460.43	299.90
460.80	298.23
461.17	296.77
461.54	295.30
461.91	293.88
462.27	292.45
462.64	291.20
463.01	289.85
463.38	288.53
463.74	287.15
464.11	285.95
464.48	284.89
464.85	283.75
465.21	282.87
465.58	281.86
465.95	280.72
466.32	279.80
466.68	278.92
467.05	277.97
467.42	277.06
467.78	276.09
468.15	275.17
468.52	274.52
468.88	273.66
469.25	272.85
469.62	272.20
469.98	271.52
470.35	270.86
470.72	270.23
471.08	269.57
471.45	269.03
471.82	268.45
472.18	267.86
472.55	267.40
472.92	266.88
473.28	266.41
473.65	265.99
474.02	265.49
474.38	265.08
474.75	264.79
475.11	264.45
475.48	264.20
475.85	263.98
476.21	263.75
476.58	263.56
476.94	263.44
477.31	263.31
477.67	263.12
478.04	262.95
478.41	262.91
478.77	262.92
479.14	262.85
479.50	262.85
479.87	262.92
480.23	262.99
480.60	263.04
480.96	263.15
481.33	263.33
481.69	263.53
482.06	263.76
482.42	263.95
482.79	264.18
483.15	264.52
483.52	264.87
483.88	265.22
484.25	265.61
484.61	266.02
484.98	266.47
485.34	267.01
485.71	267.67
486.07	268.30
486.44	268.90
486.80	269.64
487.17	270.41
487.53	271.23
487.90	272.15
488.26	273.10
488.62	274.10
488.99	275.11
489.35	276.17
489.72	277.30
490.08	278.50
490.44	279.72
490.81	281.04
491.17	282.43
491.54	283.89
491.90	285.44
492.26	287.10
492.63	288.81
492.99	290.62
493.36	292.53
493.72	294.58
494.08	296.71
494.45	298.96
494.81	301.26
495.17	303.66
495.54	306.19
495.90	308.84
496.26	311.62
496.63	314.56
496.99	317.69
497.35	320.96
497.72	324.40
498.08	327.94
498.44	331.63
498.80	335.54
499.17	339.58
499.53	343.71
499.89	348.11
500.26	352.66
500.62	357.41
500.98	362.33
501.34	367.36
501.71	372.63
502.07	378.03
502.43	383.70
502.79	389.60
503.16	395.67
503.52	401.99
503.88	408.37
504.24	414.99
504.60	421.91
504.97	428.99
505.33	436.26
505.69	443.95
506.05	451.71
506.41	459.61
506.78	467.80
507.14	476.24
507.50	484.94
507.86	493.88
508.22	502.98
508.59	512.17
508.95	521.79
509.31	531.59
509.67	541.70
510.03	552.03
510.39	562.58
510.75	573.43
511.12	584.34
511.48	595.69
511.84	607.10
512.20	618.58
512.56	630.48
512.92	642.68
513.28	654.99
513.64	667.52
514.00	680.23
514.37	693.09
514.73	706.16
515.09	719.29
515.45	732.64
515.81	746.23
516.17	760.21
516.53	774.31
516.89	788.50
517.25	802.71
517.61	817.11
517.97	831.61
518.33	846.08
518.69	860.95
519.05	875.98
519.41	891.17
519.77	906.81
520.13	922.47
520.49	937.93
520.85	953.42
521.21	969.14
521.57	985.39
521.93	1001.24
522.29	1017.78
522.65	1033.99
523.01	1050.15
523.37	1066.21
523.73	1082.46
524.09	1098.59
524.45	1114.96
524.81	1131.65
525.17	1148.53
525.53	1165.45
525.89	1182.27
526.25	1199.02
526.61	1215.37
526.97	1232.14
527.33	1248.68
527.68	1265.24
528.04	1281.80
528.40	1298.44
528.76	1315.61
529.12	1332.24
529.48	1349.18
529.84	1365.06
530.20	1381.86
530.56	1399.01
530.91	1416.52
531.27	1433.26
531.63	1449.91
531.99	1466.59
532.35	1482.65
532.71	1498.57
533.07	1514.85
533.42	1530.78
533.78	1546.96
534.14	1563.42
534.50	1578.94
534.86	1594.88
535.21	1610.00
535.57	1625.92
535.93	1641.51
536.29	1656.22
536.65	1671.37
537.00	1686.37
537.36	1701.84
537.72	1716.38
538.08	1730.80
538.44	1744.58
538.79	1758.59
539.15	1772.28
539.51	1786.21
539.87	1800.65
540.22	1814.53
540.58	1828.50
540.94	1841.97
541.29	1855.09
541.65	1867.75
542.01	1880.99
542.37	1893.31
542.72	1905.87
543.08	1917.69
543.44	1930.19
543.79	1941.54
544.15	1952.57
544.51	1964.11
544.87	1975.13
545.22	1985.88
545.58	1996.33
545.94	2006.36
546.29	2016.34
546.65	2026.28
547.01	2035.46
547.36	2044.19
547.72	2052.72
548.07	2060.47
548.43	2068.72
548.79	2076.73
549.14	2084.24
549.50	2091.84
549.86	2099.61
550.21	2106.94
550.57	2114.19
550.92	2120.76
551.28	2127.99
551.64	2135.10
551.99	2141.63
552.35	2147.79
552.70	2154.00
553.06	2159.90
553.41	2166.09
553.77	2172.14
554.13	2178.16
554.48	2184.29
554.84	2189.68
555.19	2194.99
555.55	2200.05
555.90	2204.45
556.26	2209.17
556.61	2214.00
556.97	2217.88
557.32	2221.99
557.68	2226.20
558.03	2230.49
558.39	2234.15
558.74	2238.57
559.10	2242.49
559.45	2246.10
559.81	2250.35
560.16	2254.15
560.52	2257.26
560.87	2260.79
561.23	2263.44
561.58	2266.47
561.94	2268.92
562.29	2271.41
562.64	2273.99
563.00	2276.76
563.35	2280.40
563.71	2283.43
564.06	2286.63
564.42	2289.66
564.77	2292.03
565.12	2294.15
565.48	2295.76
565.83	2297.53
566.19	2298.83
566.54	2299.70
566.89	2300.74
567.25	2301.34
567.60	2302.60
567.96	2304.37
568.31	2304.98
568.66	2305.93
569.02	2306.52
569.37	2306.81
569.72	2307.52
570.08	2307.52
570.43	2307.39
570.78	2306.59
571.14	2305.14
571.49	2303.72
571.84	2303.31
572.20	2302.10
572.55	2301.12
572.90	2299.82
573.26	2298.44
573.61	2296.77
573.96	2294.86
574.31	2291.80
574.67	2288.64
575.02	2285.16
575.37	2281.56
575.72	2277.79
576.08	2274.60
576.43	2271.03
576.78	2267.32
577.13	2264.15
577.49	2261.05
577.84	2257.55
578.19	2253.79
578.54	2249.94
578.90	2245.60
579.25	2239.97
579.60	2235.08
579.95	2229.97
580.30	2224.78
580.66	2219.61
581.01	2214.55
581.36	2209.63
581.71	2205.52
582.06	2201.09
582.42	2196.29
582.77	2190.99
583.12	2186.31
583.47	2181.19
583.82	2176.06
584.17	2170.78
584.53	2165.22
584.88	2159.42
585.23	2153.51
585.58	2147.96
585.93	2142.73
586.28	2137.91
586.63	2132.80
586.98	2127.60
587.34	2122.87
587.69	2117.88
588.04	2112.39
588.39	2106.53
588.74	2099.97
589.09	2093.62
589.44	2086.74
589.79	2080.86
590.14	2075.19
590.49	2068.61
590.84	2062.41
591.19	2056.37
591.54	2049.73
591.89	2042.09
592.25	2035.15
592.60	2027.91
592.95	2020.10
593.30	2012.48
593.65	2004.82
594.00	1997.71
594.35	1990.37
594.70	1982.25
595.05	1975.00
595.40	1967.73
595.75	1960.31
596.10	1953.89
596.45	1947.12
596.80	1940.89
597.15	1934.02
597.50	1926.90
597.85	1920.42
598.19	1913.57
598.54	1906.40
598.89	1899.82
599.24	1893.97
599.59	1887.39
599.94	1881.12
600.29	1874.89
600.64	1868.40
600.99	1860.94
601.34	1854.05
601.69	1847.04
602.04	1840.03
602.39	1832.68
602.74	1825.88
603.08	1819.08
603.43	1812.45
603.78	1805.14
604.13	1797.91
604.48	1790.60
604.83	1783.73
605.18	1776.64
605.53	1768.63
605.87	1760.65
606.22	1753.31
606.57	1745.31
606.92	1737.87
607.27	1730.71
607.62	1723.81
607.96	1716.41
608.31	1709.59
608.66	1701.86
609.01	1694.32
609.36	1686.82
609.70	1678.74
610.05	1670.56
610.40	1662.89
610.75	1654.49
611.10	1646.82
611.44	1638.45
611.79	1630.52
612.14	1621.83
612.49	1612.75
612.83	1604.37
613.18	1596.24
613.53	1588.19
613.88	1579.63
614.22	1571.45
614.57	1562.83
614.92	1554.78
615.27	1547.15
615.61	1538.90
615.96	1530.89
616.31	1523.13
616.65	1515.69
617.00	1508.12
617.35	1500.49
617.70	1492.03
618.04	1483.55
618.39	1475.27
618.74	1467.54
619.08	1459.29
619.43	1451.68
619.78	1444.82
620.12	1437.63
620.47	1430.07
620.82	1421.82
621.16	1414.49
621.51	1406.83
621.85	1399.17
622.20	1390.60
622.55	1382.36
622.89	1374.58
623.24	1367.03
623.59	1359.78
623.93	1352.25
624.28	1344.97
624.62	1337.46
624.97	1330.29
625.32	1323.49
625.66	1316.43
626.01	1309.25
626.35	1301.66
626.70	1293.97
627.04	1286.08
627.39	1278.27
627.73	1270.78
628.08	1263.79
628.43	1256.39
628.77	1248.90
629.12	1241.34
629.46	1234.21
629.81	1226.74
630.15	1219.45
630.50	1211.97
630.84	1203.67
631.19	1195.90
631.53	1188.45
631.88	1180.90
632.22	1173.36
632.57	1166.10
632.91	1158.59
633.26	1151.20
633.60	1143.92
633.95	1136.74
634.29	1129.76
634.64	1123.18
634.98	1115.97
635.32	1109.02
635.67	1102.53
636.01	1096.06
636.36	1089.21
636.70	1082.69
637.05	1076.18
637.39	1069.80
637.73	1063.29
638.08	1057.52
638.42	1051.48
638.77	1045.06
639.11	1038.48
639.45	1032.11
639.80	1025.53
640.14	1019.11
640.49	1012.58
640.83	1006.30
641.17	1000.08
641.52	993.79
641.86	987.31
642.20	981.42
642.55	975.08
642.89	968.55
643.23	961.98
643.58	956.23
643.92	949.97
644.26	943.82
644.61	937.88
644.95	931.92
645.29	925.25
645.64	918.45
645.98	912.06
646.32	906.27
646.66	900.26
647.01	894.45
647.35	888.81
647.69	883.02
648.04	877.51
648.38	871.76
648.72	865.72
649.06	859.60
649.41	853.66
649.75	847.60
650.09	841.65
650.43	835.86
650.78	829.77
651.12	823.82
651.46	818.06
651.80	812.19
652.14	806.78
652.49	801.43
652.83	796.24
653.17	790.53
653.51	784.76
653.85	779.30
654.20	773.61
654.54	767.58
654.88	761.82
655.22	755.89
655.56	750.21
655.90	744.79
656.25	739.56
656.59	734.24
656.93	729.27
657.27	724.12
657.61	718.71
657.95	713.57
658.29	708.47
658.64	703.28
658.98	697.98
659.32	692.53
659.66	687.33
660.00	682.02
660.34	677.13
660.68	672.24
661.02	667.24
661.36	662.55
661.70	658.06
662.05	653.77
662.39	649.53
662.73	645.08
663.07	640.72
663.41	636.30
663.75	631.82
664.09	627.16
664.43	622.80
664.77	618.59
665.11	614.38
665.45	610.29
665.79	606.25
666.13	602.16
666.47	598.04
666.81	593.91
667.15	589.77
667.49	585.89
667.83	582.02
668.17	578.05
668.51	573.96
668.85	569.94
669.19	566.02
669.53	562.07
669.87	558.21
670.21	554.45
670.55	550.83
670.89	547.34
671.23	543.91
671.57	540.38
671.91	536.93
672.25	533.45
672.58	529.96
672.92	526.59
673.26	523.43
673.60	520.31
673.94	517.21
674.28	514.40
674.62	511.40
674.96	508.32
675.30	505.41
675.64	502.50
675.97	499.74
676.31	496.89
676.65	494.03
676.99	491.27
677.33	488.47
677.67	485.66
678.01	482.73
678.34	479.75
678.68	476.91
679.02	474.14
679.36	471.41
679.70	468.69
680.04	465.87
680.37	463.00
680.71	460.21
681.05	457.61
681.39	454.90
681.73	452.31
682.06	449.85
682.40	447.34
682.74	444.81
683.08	442.28
683.42	439.66
683.75	437.17
684.09	434.66
684.43	432.17
684.77	429.70
685.10	427.33
685.44	425.06
685.78	422.74
686.12	420.39
686.45	418.11
686.79	415.81
687.13	413.64
687.46	411.50
687.80	409.37
688.14	407.14
688.48	405.07
688.81	402.80
689.15	400.63
689.49	398.48
689.82	396.45
690.16	394.33
690.50	392.42
690.83	390.48
691.17	388.52
691.51	386.62
691.84	384.75
692.18	382.85
692.52	380.90
692.85	378.99
693.19	377.16
693.52	375.28
693.86	373.51
694.20	371.71
694.53	369.91
694.87	368.02
695.21	366.29
695.54	364.44
695.88	362.71
696.21	360.95
696.55	359.28
696.88	357.57
697.22	355.97
697.56	354.34
697.89	352.70
698.23	351.08
698.56	349.45
698.90	347.89
699.23	346.23
699.57	344.66
699.90	343.14
700.24	341.58
700.58	340.06
700.91	338.54
701.25	337.06
701.58	335.69
701.92	334.35
702.25	332.96
702.59	331.64
702.92	330.36
703.26	329.10
703.59	327.82
703.93	326.63
704.26	325.37
704.60	324.07
704.93	322.75
705.26	321.51
705.60	320.38
705.93	319.22
706.27	318.22
706.60	317.16
706.94	316.07
707.27	314.98
707.61	313.95
707.94	312.93
708.27	311.89
708.61	310.81
708.94	309.83
709.28	308.85
709.61	307.86
709.94	306.88
710.28	305.82
710.61	304.84
710.95	303.78
711.28	302.86
711.61	301.93
711.95	301.04
712.28	300.13
712.61	299.13
712.95	298.19
713.28	297.30
713.61	296.42
713.95	295.52
714.28	294.71
714.61	293.81
714.95	292.98
715.28	292.11
715.61	291.22
715.95	290.36
716.28	289.51
716.61	288.72
716.95	287.92
717.28	287.20
717.61	286.47
717.94	285.74
718.28	284.95
718.61	284.22
718.94	283.53
719.27	282.86
719.61	282.20
719.94	281.58
720.27	280.86
720.60	280.23
720.94	279.68
721.27	279.06
721.60	278.54
721.93	277.93
722.27	277.41
722.60	276.88
722.93	276.31
723.26	275.76
723.59	275.23
723.93	274.68
724.26	274.17
724.59	273.57
724.92	273.05
725.25	272.56
725.59	272.08
725.92	271.57
726.25	271.04
726.58	270.54
726.91	270.03
727.24	269.57
727.57	269.08
727.91	268.53
728.24	268.05
728.57	267.54
728.90	267.09
729.23	266.61
729.56	266.17
729.89	265.70
730.22	265.25
730.55	264.76
730.89	264.30
731.22	263.83
731.55	263.41
731.88	262.98
732.21	262.56
732.54	262.13
732.87	261.69
733.20	261.33
733.53	260.97
733.86	260.61
734.19	260.22
734.52	259.85
734.85	259.53
735.18	259.13
735.51	258.76
735.84	258.39
736.17	258.03
736.50	257.64
736.83	257.41
737.16	257.07
737.49	256.75
737.82	256.41
738.15	256.12
738.48	255.80
738.81	255.49
739.14	255.15
739.47	254.82
739.80	254.53
740.13	254.19
740.46	253.88
740.79	253.54
741.12	253.20
741.45	252.88
741.78	252.52
742.11	252.23
742.44	251.91
742.77	251.64
743.10	251.32
743.43	251.03
743.75	250.61
744.08	250.49
744.41	250.19
744.74	249.92
745.07	249.60
745.40	249.36
745.73	249.08
746.06	248.80
746.39	248.53
746.71	248.27
747.04	248.00
747.37	247.74
747.70	247.46
748.03	247.23
748.36	247.00
748.68	246.76
749.01	246.50
749.34	246.26
749.67	245.99
750.00	245.74
750.33	245.59
750.65	245.39
750.98	245.02
751.31	244.81
751.64	244.58
751.97	244.42
752.29	244.20
752.62	243.97
752.95	243.80
753.28	243.61
753.60	243.39
753.93	243.21
754.26	243.00
754.59	242.79
754.91	242.60
755.24	242.39
755.57	242.21
755.90	242.05
756.22	241.90
756.55	241.71
756.88	241.52
757.20	241.28
757.53	241.09
757.86	240.95
758.19	240.80
758.51	240.65
758.84	240.44
759.17	240.25
759.49	240.14
759.82	239.99
760.15	239.84
760.47	239.70
760.80	239.55
761.13	239.45
761.45	239.31
761.78	239.15
762.11	239.07
762.43	238.95
762.76	238.81
763.08	238.66
763.41	238.57
763.74	238.46
764.06	238.34
764.39	238.22
764.71	238.10
765.04	237.95
765.37	237.84
765.69	237.71
766.02	237.62
766.34	237.48
766.67	237.33
767.00	237.24
767.32	237.16
767.65	237.11
767.97	236.97
768.30	236.89
768.62	236.77
768.95	236.60
769.27	236.48
769.60	236.40
769.92	236.29
770.25	236.15
770.57	236.03
770.90	235.91
771.22	235.79
771.55	235.64
771.87	235.57
772.20	235.46
772.52	235.45
772.85	235.44
773.17	235.32
773.50	235.24
773.82	235.09
774.15	234.96
774.47	234.78
774.80	234.70
775.12	234.58
775.45	234.53
775.77	234.47
776.09	234.35
776.42	234.24
776.74	234.19
777.07	234.12
777.39	234.03
777.72	233.93
778.04	233.87
778.36	233.81
778.69	233.73
779.01	233.69
779.33	233.52
779.66	233.36
779.98	233.27
780.31	233.21
780.63	233.19
780.95	233.13
781.28	233.04
781.60	232.94
781.92	232.88
782.25	232.82
782.57	232.75
782.89	232.71
783.22	232.64
783.54	232.56
783.86	232.49
784.19	232.44
784.51	232.41
784.83	232.36
785.16	232.27
785.48	232.23
785.80	232.14
786.12	232.12
786.45	232.03
786.77	231.99
787.09	231.93
787.42	231.85
787.74	231.82
788.06	231.82
788.38	231.79
788.71	231.75
789.03	231.69
789.35	231.61
789.67	231.56
789.99	231.55
790.32	231.51
790.64	231.49
790.96	231.56
791.28	231.50
791.61	231.44
791.93	231.43
792.25	231.37
792.57	231.40
792.89	231.31
793.21	231.32
793.54	231.27
793.86	231.25
794.18	231.21
794.50	231.18
794.82	231.15
795.14	231.09
795.47	231.05
795.79	231.02
796.11	230.99
796.43	230.95
796.75	230.91
797.07	230.86
797.39	230.82
797.71	230.71
798.04	230.66
798.36	230.64
798.68	230.62
799.00	230.63
799.32	230.56
799.64	230.59
799.96	230.55
800.28	230.53
800.60	230.48
800.92	230.47
801.24	230.42
801.56	230.39
801.89	230.40
802.21	230.40
802.53	230.37
802.85	230.38
803.17	230.42
803.49	230.35
803.81	230.31
804.13	230.27
804.45	230.23
804.77	230.20
805.09	230.16
805.41	230.13
805.73	230.06
806.05	230.01
806.37	229.98
806.69	229.91
807.01	229.88
807.33	229.86
807.65	229.80
807.97	229.82
808.28	229.80
808.60	229.76
808.92	229.73
809.24	229.76
809.56	229.72
809.88	229.64
810.20	229.62
810.52	229.65
810.84	229.60
811.16	229.54
811.48	229.55
811.80	229.56
812.12	229.51
812.43	229.48
812.75	229.47
813.07	229.41
813.39	229.44
813.71	229.40
814.03	229.37
814.35	229.37
814.67	229.29
814.98	229.25
815.30	229.22
815.62	229.17
815.94	229.11
816.26	229.14
816.58	229.09
816.89	229.09
817.21	229.01
817.53	229.02
817.85	229.04
818.17	229.02
818.48	228.98
818.80	229.01
819.12	229.00
819.44	228.96
819.76	228.92
820.07	228.89
820.39	228.89
820.71	228.90
821.03	228.87
821.34	228.86
821.66	228.87
821.98	228.85
822.30	228.82
822.61	228.83
822.93	228.78
823.25	228.74
823.57	228.69
823.88	228.70
824.20	228.68
824.52	228.66
824.83	228.63
825.15	228.59
825.47	228.55
825.79	228.55
826.10	228.51
826.42	228.50
826.74	228.49
827.05	228.45
827.37	228.42
827.69	228.38
828.00	228.35
828.32	228.32
828.64	228.33
828.95	228.37
829.27	228.34
829.58	228.30
829.90	228.33
830.22	228.37
830.53	228.36
830.85	228.34
831.17	228.30
831.48	228.28
831.80	228.31
832.11	228.31
832.43	228.27
832.75	228.30
833.06	228.38
833.38	228.38
833.69	228.38
834.01	228.35
834.32	228.38
834.64	228.34
834.96	228.34
835.27	228.30
835.59	228.25
835.90	228.24
836.22	228.23
836.53	228.23
836.85	228.20
837.16	228.30
837.48	228.31
837.79	228.35
838.11	228.38
838.42	228.39
838.74	228.41
839.05	228.42
839.37	228.41
839.68	228.35
840.00	228.33
840.31	228.34
840.63	228.38
840.94	228.36
841.26	228.38
841.57	228.38
841.88	228.38
842.20	228.37
842.51	228.35
842.83	228.34
843.14	228.41
843.46	228.43
843.77	228.35
844.08	228.34
844.40	228.31
844.71	228.27
845.03	228.26
845.34	228.20
845.65	228.21
845.97	228.19
846.28	228.20
846.60	228.20
846.91	228.17
847.22	228.15
847.54	228.18
847.85	228.16
848.16	228.15
848.48	228.14
848.79	228.17
849.10	228.15
849.42	228.16
849.73	228.07
850.04	228.03
850.36	227.99
850.67	227.99
850.98	227.99
851.30	227.99
851.61	227.96
851.92	227.97
852.23	227.97
852.55	227.96
852.86	227.93
853.17	227.95
853.49	227.98
853.80	227.96
854.11	227.94
854.42	227.98
854.74	227.94
855.05	227.94
855.36	227.89
855.67	227.89
855.99	227.85
856.30	227.93
856.61	227.91
856.92	227.91
857.23	227.87
857.55	227.83
857.86	227.79
858.17	227.77
858.48	227.75
858.79	227.71
859.11	227.66
859.42	227.64
859.73	227.58
860.04	227.57
860.35	227.55
860.66	227.50
860.98	227.46
861.29	227.46
861.60	227.42
861.91	227.42
862.22	227.40
862.53	227.39
862.84	227.29
863.16	227.30
863.47	227.27
863.78	227.30
864.09	227.33
864.40	227.34
864.71	227.35
865.02	227.38
865.33	227.35
865.64	227.35
865.95	227.34
866.27	227.42
866.58	227.36
866.89	227.37
867.20	227.38
867.51	227.33
867.82	227.34
868.13	227.38
868.44	227.36
868.75	227.35
869.06	227.35
869.37	227.36
869.68	227.32
869.99	227.31
870.30	227.30
870.61	227.27
870.92	227.27
871.23	227.25
871.54	227.24
871.85	227.28
872.16	227.29
872.47	227.27
872.78	227.21
873.09	227.24
873.40	227.23
873.71	227.22
874.02	227.27
874.33	227.27
874.64	227.28
874.95	227.32
875.26	227.33
875.56	227.34
875.87	227.35
876.18	227.38
876.49	227.50
876.80	227.48
877.11	227.51
877.42	227.53
877.73	227.55
878.04	227.54
878.35	227.56
878.66	227.58
878.96	227.61
879.27	227.65
879.58	227.65
879.89	227.67
880.20	227.70
880.51	227.69
880.82	227.71
881.12	227.72
881.43	227.72
881.74	227.71
882.05	227.70
882.36	227.69
882.67	227.70
882.97	227.59
883.28	227.61
883.59	227.61
883.90	227.60
884.21	227.63
884.51	227.64
884.82	227.61
885.13	227.61
885.44	227.60
885.74	227.58
886.05	227.59
886.36	227.57
886.67	227.56
886.98	227.58
887.28	227.58
887.59	227.56
887.90	227.56
888.20	227.55
888.51	227.58
888.82	227.58
889.13	227.55
889.43	227.64
889.74	227.61
890.05	227.58
890.35	227.55
890.66	227.50
890.97	227.51
891.28	227.49
891.58	227.48
891.89	227.49
892.20	227.43
892.50	227.43
892.81	227.42
893.12	227.39
893.42	227.36
893.73	227.32
894.04	227.31
894.34	227.28
894.65	227.30
894.95	227.27
895.26	227.24
895.57	227.31
895.87	227.20
896.18	227.24
896.48	227.23
896.79	227.25
897.10	227.24
897.40	227.21
897.71	227.24
898.01	227.22
898.32	227.20
898.63	227.24
898.93	227.21
899.24	227.21
899.54	227.24
899.85	227.21
900.15	227.21
900.46	227.21
900.76	227.21
901.07	227.20
901.38	227.20
901.68	227.23
901.99	227.17
902.29	227.17
902.60	227.15
902.90	227.17
903.21	227.18
903.51	227.20
903.82	227.23
904.12	227.19
904.43	227.19
904.73	227.22
905.03	227.21
905.34	227.32
905.64	227.34
905.95	227.32
906.25	227.33
906.56	227.34
906.86	227.35
907.17	227.38
907.47	227.38
907.77	227.40
908.08	227.38
908.38	227.38
908.69	227.41
908.99	227.42
909.30	227.39
909.60	227.37
909.90	227.39
910.21	227.34
910.51	227.35
910.81	227.40
911.12	227.39
911.42	227.40
911.73	227.27
912.03	227.26
912.33	227.27
912.64	227.28
912.94	227.28
913.24	227.22
913.55	227.22
913.85	227.20
914.15	227.21
914.46	227.23
914.76	227.24
915.06	227.22
915.37	227.20
915.67	227.20
915.97	227.23
916.27	227.22
916.58	227.23
916.88	227.22
917.18	227.18
917.49	227.28
917.79	227.24
918.09	227.29
918.39	227.33
918.70	227.32
919.00	227.36
919.30	227.36
919.60	227.37
919.91	227.35
920.21	227.39
920.51	227.37
920.81	227.35
921.12	227.36
921.42	227.34
921.72	227.34
922.02	227.39
922.32	227.39
922.63	227.38
922.93	227.45
923.23	227.46
923.53	227.43
923.83	227.33
924.13	227.35
924.44	227.34
924.74	227.33
925.04	227.37
925.34	227.32
925.64	227.31
925.94	227.33
926.24	227.36
926.55	227.31
926.85	227.32
927.15	227.30
927.45	227.28
927.75	227.29
928.05	227.30
928.35	227.28
928.65	227.24
928.95	227.25
929.26	227.20
929.56	227.20
929.86	227.22
930.16	227.21
930.46	227.22
930.76	227.20
931.06	227.15
931.36	227.11
931.66	227.13
931.96	227.15
932.26	227.11
932.56	227.10
932.86	227.10
933.16	227.09
933.46	227.09
933.76	227.09
934.06	227.08
934.36	227.11
934.66	227.08
934.96	227.10
935.26	227.10
935.56	227.11
935.86	227.08
936.16	227.05
936.46	227.06
936.76	227.06
937.06	227.02
937.36	226.99
937.66	226.98
937.96	226.95
938.26	226.88
938.56	226.89
938.86	226.85
939.16	226.89
939.46	226.90
939.76	226.90
940.06	226.91
940.35	226.91
940.65	226.86
940.95	226.88
941.25	226.86
941.55	226.87
941.85	226.84
942.15	226.89
942.45	226.93
942.75	226.92
943.04	226.92
943.34	226.97
943.64	226.99
943.94	226.99
944.24	227.00
944.54	227.08
944.84	227.10
945.13	227.13
945.43	227.11
945.73	227.10
946.03	227.10
946.33	227.12
946.62	227.10
946.92	227.09
947.22	227.10
947.52	227.08
947.82	227.07
948.11	227.08
948.41	227.04
948.71	226.99
949.01	226.96
949.31	226.96
949.60	226.96
949.90	226.97
950.20	226.99
950.50	226.98
950.79	226.96
951.09	226.99
951.39	226.99
951.69	227.00
951.98	227.03
952.28	227.04
952.58	227.04
952.87	227.06
953.17	227.10
953.47	227.06
953.76	227.09
954.06	227.08
954.36	227.07
954.66	227.07
954.95	227.13
955.25	227.17
955.55	227.20
955.84	227.20
956.14	227.23
956.44	227.22
956.73	227.23
957.03	227.20
957.32	227.18
957.62	227.15
957.92	227.15
958.21	227.13
958.51	227.24
958.81	227.23
959.10	227.27
959.40	227.29
959.69	227.33
959.99	227.37
960.29	227.36
960.58	227.35
960.88	227.41
961.17	227.38
961.47	227.39
961.76	227.34
962.06	227.36
962.36	227.37
962.65	227.35
962.95	227.36
963.24	227.38
963.54	227.38
963.83	227.40
964.13	227.42
964.42	227.40
964.72	227.32
965.01	227.33
965.31	227.31
965.60	227.31
965.90	227.37
966.19	227.35
966.49	227.37
966.78	227.38
967.08	227.36
967.37	227.35
967.67	227.35
967.96	227.40
968.26	227.39
968.55	227.39
968.85	227.41
969.14	227.38
969.43	227.37
969.73	227.37
970.02	227.33
970.32	227.32
970.61	227.32
970.91	227.26
971.20	227.23
971.49	227.19
971.79	227.19
972.08	227.12
972.38	227.10
972.67	227.10
972.96	227.12
973.26	227.08
973.55	227.12
973.85	227.05
974.14	227.05
974.43	227.05
974.73	227.03
975.02	227.03
975.31	227.03
975.61	227.05
975.90	227.06
976.19	227.06
976.49	227.04
976.78	227.04
977.07	227.04
977.37	227.07
977.66	227.10
977.95	227.05
978.24	227.07
978.54	227.07
978.83	227.09
979.12	227.07
979.42	227.08
979.71	227.06
980.00	227.12
980.29	227.09
980.59	227.04
980.88	227.07
981.17	227.06
981.46	227.07
981.76	227.03
982.05	227.05
982.34	227.07
982.63	227.06
982.93	227.09
983.22	227.11
983.51	227.10
983.80	227.08
984.09	227.13
984.39	227.11
984.68	227.09
984.97	227.08
985.26	227.06
985.55	227.09
985.85	227.09
986.14	227.09
986.43	227.12
986.72	227.15
987.01	227.11
987.30	227.12
987.59	227.13
987.89	227.17
988.18	227.13
988.47	227.12
988.76	227.14
989.05	227.13
989.34	227.14
989.63	227.16
989.92	227.15
990.22	227.13
990.51	227.12
990.80	227.14
991.09	227.13
991.38	227.17
991.67	227.16
991.96	227.13
992.25	227.14
992.54	227.10
992.83	227.09
993.12	227.09
993.41	227.09
993.70	227.13
993.99	227.17
994.28	227.17
994.58	227.17
994.87	227.16
995.16	227.16
995.45	227.16
995.74	227.14
996.03	227.17
996.32	227.20
996.61	227.23
996.90	227.23
997.19	227.27
997.48	227.27
997.77	227.26
998.06	227.26
998.34	227.25
998.63	227.29
998.92	227.31
999.21	227.29
999.50	227.31
999.79	227.27
1000.08	227.25
1000.37	227.26
1000.66	227.28
1000.95	227.29
1001.24	227.30
1001.53	227.28
1001.82	227.29
1002.11	227.26
1002.40	227.26
1002.68	227.27
1002.97	227.34
1003.26	227.32
1003.55	227.28
1003.84	227.26
1004.13	227.32
1004.42	227.29
1004.71	227.28
1004.99	227.28
1005.28	227.34
1005.57	227.33
1005.86	227.27
1006.15	227.27
1006.44	227.27
1006.72	227.27
1007.01	227.26
1007.30	227.25
1007.59	227.24
1007.88	227.26
1008.17	227.30
1008.45	227.28
1008.74	227.24
1009.03	227.18
1009.32	227.18
1009.60	227.16
1009.89	227.16
1010.18	227.10
1010.47	227.10
1010.76	227.10
1011.04	227.08
1011.33	227.08
1011.62	227.09
1011.91	227.14
1012.19	227.12
1012.48	227.10
1012.77	227.08
1013.05	227.12
1013.34	227.12
1013.63	227.11
1013.92	227.05
1014.20	227.00
1014.49	226.99
1014.78	226.98
1015.06	226.93
1015.35	226.91
1015.64	226.96
1015.92	226.98
1016.21	226.97
1016.50	227.00
1016.78	226.98
1017.07	226.99
1017.36	226.96
1017.64	226.90
1017.93	226.90
1018.22	226.90
1018.50	226.89
1018.79	226.92
1019.08	226.84
1019.36	226.85
1019.65	226.85
1019.93	226.92
1020.22	226.94
1020.51	226.97
1020.79	226.99
1021.08	226.97
1021.36	226.61
1021.65	227.30
1021.94	226.66
1022.22	226.83
1022.51	226.88
1022.79	227.76
1023.08	227.24
1023.36	227.72
1023.65	226.99
>>>>>End Processed Spectral Data<<<<<
