SpectraSuite Data File
++++++++++++++++++++++++++++++++++++
Date: Fri Feb 01 16:44:56 EST 2013
User: group
Dark Spectrum Present: No
Reference Spectrum Present: No
Number of Sampled Component Spectra: 1
Spectrometers: USB2E7196
Integration Time (usec): 35000 (USB2E7196)
Spectra Averaged: 100 (USB2E7196)
Boxcar Smoothing: 10 (USB2E7196)
Correct for Electrical Dark: No (USB2E7196)
Strobe/Lamp Enabled: No (USB2E7196)
Correct for Detector Non-linearity: No (USB2E7196)
Correct for Stray Light: No (USB2E7196)
Number of Pixels in Processed Spectrum: 2048
>>>>>Begin Processed Spectral Data<<<<<
339.09	0.00
339.48	213.20
339.86	214.99
340.24	216.55
340.63	217.49
341.01	220.39
341.39	220.58
341.78	221.73
342.16	222.48
342.54	223.24
342.93	211.73
343.31	222.43
343.69	222.99
344.07	223.45
344.46	223.88
344.84	224.25
345.22	224.48
345.60	224.72
345.99	224.91
346.37	225.03
346.75	225.12
347.13	225.18
347.52	225.20
347.90	225.30
348.28	225.33
348.66	225.39
349.05	225.38
349.43	225.42
349.81	225.47
350.19	225.52
350.57	225.57
350.96	225.64
351.34	225.72
351.72	225.79
352.10	225.88
352.48	225.92
352.87	225.98
353.25	226.08
353.63	226.13
354.01	226.17
354.39	226.26
354.77	226.36
355.15	226.48
355.54	226.56
355.92	226.58
356.30	226.66
356.68	226.79
357.06	226.86
357.44	226.90
357.82	226.97
358.20	227.04
358.58	227.11
358.97	227.19
359.35	227.26
359.73	227.32
360.11	227.35
360.49	227.44
360.87	227.49
361.25	227.54
361.63	227.61
362.01	227.70
362.39	227.71
362.77	227.74
363.15	227.74
363.53	227.79
363.91	227.83
364.29	227.83
364.67	227.77
365.05	227.76
365.43	227.82
365.81	227.86
366.19	227.94
366.57	227.98
366.95	227.97
367.33	227.96
367.71	227.96
368.09	228.01
368.47	227.97
368.85	227.98
369.23	227.97
369.61	227.93
369.99	227.91
370.37	227.92
370.75	227.94
371.13	227.87
371.51	227.81
371.89	227.80
372.27	227.75
372.65	227.71
373.03	227.68
373.41	227.58
373.78	227.48
374.16	227.36
374.54	227.30
374.92	227.23
375.30	227.18
375.68	227.09
376.06	227.00
376.44	226.94
376.82	226.86
377.19	226.79
377.57	226.69
377.95	226.59
378.33	226.50
378.71	226.37
379.09	226.34
379.47	226.31
379.84	226.21
380.22	226.14
380.60	226.06
380.98	225.98
381.36	225.93
381.73	225.87
382.11	225.81
382.49	225.70
382.87	225.66
383.25	225.58
383.62	225.66
384.00	225.60
384.38	225.53
384.76	225.49
385.13	225.47
385.51	225.45
385.89	225.40
386.27	225.37
386.64	225.35
387.02	225.26
387.40	225.20
387.78	225.19
388.15	225.18
388.53	225.16
388.91	225.14
389.29	225.14
389.66	225.13
390.04	225.10
390.42	225.13
390.79	225.12
391.17	225.07
391.55	224.96
391.92	224.96
392.30	224.97
392.68	224.93
393.05	224.93
393.43	224.93
393.81	224.95
394.18	224.96
394.56	224.96
394.94	225.03
395.31	225.03
395.69	225.06
396.06	225.08
396.44	225.09
396.82	225.10
397.19	225.18
397.57	225.21
397.95	225.26
398.32	225.26
398.70	225.29
399.07	225.41
399.45	225.45
399.82	225.50
400.20	225.55
400.58	225.63
400.95	225.65
401.33	225.73
401.70	225.87
402.08	225.98
402.45	226.07
402.83	226.19
403.20	226.30
403.58	226.41
403.95	226.51
404.33	226.64
404.71	226.75
405.08	226.89
405.46	226.99
405.83	227.14
406.21	227.27
406.58	227.46
406.96	227.61
407.33	227.78
407.70	227.94
408.08	228.19
408.45	228.44
408.83	228.66
409.20	228.88
409.58	229.06
409.95	229.28
410.33	229.56
410.70	229.78
411.08	230.08
411.45	230.36
411.82	230.68
412.20	231.02
412.57	231.48
412.95	231.79
413.32	232.21
413.69	232.63
414.07	233.05
414.44	233.51
414.82	233.96
415.19	234.49
415.56	235.04
415.94	235.59
416.31	236.17
416.68	236.83
417.06	237.53
417.43	238.20
417.81	238.99
418.18	239.75
418.55	240.56
418.93	241.42
419.30	242.31
419.67	243.22
420.04	244.18
420.42	245.13
420.79	246.30
421.16	247.43
421.54	248.60
421.91	249.81
422.28	251.02
422.66	252.37
423.03	253.70
423.40	255.04
423.77	256.47
424.15	257.87
424.52	259.36
424.89	260.94
425.26	262.45
425.64	263.85
426.01	265.41
426.38	267.07
426.75	268.77
427.13	270.48
427.50	272.31
427.87	274.19
428.24	276.02
428.61	277.72
428.99	279.66
429.36	281.76
429.73	283.82
430.10	285.89
430.47	287.92
430.85	290.04
431.22	292.26
431.59	294.61
431.96	296.86
432.33	299.28
432.70	301.64
433.08	304.44
433.45	307.08
433.82	309.69
434.19	312.57
434.56	315.31
434.93	317.92
435.30	320.51
435.68	323.34
436.05	326.15
436.42	328.93
436.79	331.43
437.16	334.09
437.53	336.89
437.90	339.64
438.27	342.33
438.64	345.04
439.01	347.60
439.38	349.77
439.75	351.92
440.13	354.42
440.50	356.73
440.87	358.55
441.24	360.46
441.61	362.56
441.98	364.06
442.35	365.80
442.72	367.67
443.09	369.43
443.46	370.47
443.83	371.05
444.20	371.58
444.57	372.37
444.94	372.66
445.31	373.01
445.68	373.37
446.05	373.48
446.42	373.21
446.79	372.81
447.16	372.42
447.53	372.12
447.90	370.97
448.27	369.87
448.64	368.32
449.01	367.25
449.37	365.35
449.74	363.48
450.11	361.34
450.48	358.91
450.85	356.49
451.22	354.36
451.59	352.39
451.96	350.50
452.33	347.95
452.70	345.57
453.07	342.83
453.43	339.99
453.80	337.24
454.17	334.57
454.54	332.05
454.91	329.38
455.28	326.75
455.65	324.27
456.02	321.84
456.38	319.72
456.75	317.03
457.12	314.79
457.49	312.55
457.86	310.37
458.23	308.57
458.59	306.51
458.96	304.44
459.33	302.60
459.70	300.72
460.07	299.23
460.43	297.54
460.80	295.91
461.17	294.48
461.54	293.01
461.91	291.59
462.27	290.18
462.64	288.91
463.01	287.55
463.38	286.25
463.74	284.89
464.11	283.75
464.48	282.75
464.85	281.68
465.21	280.84
465.58	279.96
465.95	278.83
466.32	277.95
466.68	277.07
467.05	276.21
467.42	275.32
467.78	274.42
468.15	273.59
468.52	272.95
468.88	272.08
469.25	271.35
469.62	270.71
469.98	270.06
470.35	269.43
470.72	268.86
471.08	268.24
471.45	267.71
471.82	267.20
472.18	266.62
472.55	266.14
472.92	265.66
473.28	265.20
473.65	264.77
474.02	264.34
474.38	263.97
474.75	263.64
475.11	263.31
475.48	263.06
475.85	262.82
476.21	262.59
476.58	262.42
476.94	262.25
477.31	262.10
477.67	261.94
478.04	261.84
478.41	261.78
478.77	261.82
479.14	261.75
479.50	261.71
479.87	261.81
480.23	261.93
480.60	261.99
480.96	262.06
481.33	262.26
481.69	262.45
482.06	262.67
482.42	262.90
482.79	263.19
483.15	263.53
483.52	263.93
483.88	264.28
484.25	264.67
484.61	265.14
484.98	265.59
485.34	266.17
485.71	266.76
486.07	267.40
486.44	267.99
486.80	268.72
487.17	269.51
487.53	270.30
487.90	271.17
488.26	272.10
488.62	273.08
488.99	274.06
489.35	275.12
489.72	276.21
490.08	277.41
490.44	278.62
490.81	279.95
491.17	281.29
491.54	282.78
491.90	284.33
492.26	285.95
492.63	287.69
492.99	289.52
493.36	291.44
493.72	293.47
494.08	295.56
494.45	297.79
494.81	300.09
495.17	302.54
495.54	305.10
495.90	307.78
496.26	310.57
496.63	313.53
496.99	316.63
497.35	319.94
497.72	323.33
498.08	326.83
498.44	330.48
498.80	334.41
499.17	338.44
499.53	342.59
499.89	346.99
500.26	351.43
500.62	356.07
500.98	361.02
501.34	366.03
501.71	371.32
502.07	376.78
502.43	382.44
502.79	388.21
503.16	394.27
503.52	400.55
503.88	406.95
504.24	413.59
504.60	420.41
504.97	427.45
505.33	434.75
505.69	442.44
506.05	450.18
506.41	458.00
506.78	466.11
507.14	474.52
507.50	483.17
507.86	492.21
508.22	501.36
508.59	510.54
508.95	520.06
509.31	529.85
509.67	539.92
510.03	550.13
510.39	560.65
510.75	571.36
511.12	582.23
511.48	593.45
511.84	604.78
512.20	616.33
512.56	628.20
512.92	640.32
513.28	652.64
513.64	665.07
514.00	677.73
514.37	690.61
514.73	703.67
515.09	716.65
515.45	729.86
515.81	743.34
516.17	757.18
516.53	771.26
516.89	785.37
517.25	799.42
517.61	813.79
517.97	828.19
518.33	842.54
518.69	857.28
519.05	872.01
519.41	887.13
519.77	902.52
520.13	917.88
520.49	933.14
520.85	948.42
521.21	963.98
521.57	980.12
521.93	995.75
522.29	1011.91
522.65	1028.08
523.01	1044.08
523.37	1059.96
523.73	1075.92
524.09	1091.93
524.45	1107.99
524.81	1124.53
525.17	1141.12
525.53	1157.77
525.89	1174.57
526.25	1191.24
526.61	1207.67
526.97	1224.17
527.33	1240.46
527.68	1256.91
528.04	1273.25
528.40	1289.55
528.76	1306.54
529.12	1322.89
529.48	1339.64
529.84	1355.54
530.20	1372.02
530.56	1389.01
530.91	1406.36
531.27	1423.03
531.63	1439.28
531.99	1455.80
532.35	1471.52
532.71	1487.39
533.07	1503.51
533.42	1519.22
533.78	1535.14
534.14	1551.17
534.50	1566.54
534.86	1582.23
535.21	1597.31
535.57	1613.03
535.93	1628.49
536.29	1643.07
536.65	1657.96
537.00	1672.46
537.36	1687.62
537.72	1701.93
538.08	1716.15
538.44	1729.73
538.79	1743.52
539.15	1756.98
539.51	1770.55
539.87	1784.74
540.22	1798.19
540.58	1811.75
540.94	1824.82
541.29	1837.41
541.65	1850.02
542.01	1862.90
542.37	1875.09
542.72	1887.36
543.08	1899.06
543.44	1911.19
543.79	1922.16
544.15	1933.11
544.51	1944.58
544.87	1955.39
545.22	1966.12
545.58	1976.13
545.94	1985.78
546.29	1995.53
546.65	2005.33
547.01	2014.49
547.36	2023.13
547.72	2031.46
548.07	2039.35
548.43	2047.46
548.79	2055.31
549.14	2062.73
549.50	2069.89
549.86	2077.36
550.21	2084.50
550.57	2091.61
550.92	2098.14
551.28	2105.24
551.64	2112.30
551.99	2118.79
552.35	2124.88
552.70	2130.88
553.06	2136.91
553.41	2143.09
553.77	2148.98
554.13	2154.87
554.48	2160.99
554.84	2166.48
555.19	2171.56
555.55	2176.71
555.90	2181.24
556.26	2186.22
556.61	2190.86
556.97	2195.35
557.32	2199.52
557.68	2203.74
558.03	2207.93
558.39	2211.61
558.74	2216.28
559.10	2219.93
559.45	2223.52
559.81	2227.70
560.16	2231.59
560.52	2234.77
560.87	2238.26
561.23	2240.98
561.58	2243.97
561.94	2246.49
562.29	2248.83
562.64	2251.89
563.00	2254.43
563.35	2257.79
563.71	2260.89
564.06	2264.15
564.42	2266.86
564.77	2269.53
565.12	2271.84
565.48	2273.85
565.83	2275.99
566.19	2277.31
566.54	2278.31
566.89	2279.54
567.25	2280.37
567.60	2281.63
567.96	2283.50
568.31	2284.44
568.66	2285.68
569.02	2286.39
569.37	2286.80
569.72	2287.68
570.08	2287.86
570.43	2288.05
570.78	2287.73
571.14	2286.25
571.49	2285.01
571.84	2284.88
572.20	2283.90
572.55	2282.77
572.90	2281.28
573.26	2279.87
573.61	2278.12
573.96	2276.60
574.31	2273.71
574.67	2270.85
575.02	2267.43
575.37	2263.89
575.72	2260.13
576.08	2256.72
576.43	2253.47
576.78	2249.93
577.13	2246.71
577.49	2243.60
577.84	2240.21
578.19	2236.42
578.54	2233.01
578.90	2229.10
579.25	2223.72
579.60	2218.86
579.95	2214.06
580.30	2209.13
580.66	2204.09
581.01	2199.24
581.36	2194.26
581.71	2190.33
582.06	2185.81
582.42	2181.32
582.77	2176.37
583.12	2172.03
583.47	2167.34
583.82	2162.48
584.17	2157.30
584.53	2152.00
584.88	2146.46
585.23	2140.71
585.58	2135.45
585.93	2130.02
586.28	2125.12
586.63	2120.14
586.98	2115.18
587.34	2110.58
587.69	2105.80
588.04	2100.60
588.39	2095.13
588.74	2088.77
589.09	2082.55
589.44	2075.97
589.79	2069.98
590.14	2064.48
590.49	2057.95
590.84	2051.69
591.19	2045.71
591.54	2039.33
591.89	2032.13
592.25	2025.44
592.60	2018.37
592.95	2010.87
593.30	2003.65
593.65	1996.06
594.00	1989.01
594.35	1981.71
594.70	1973.73
595.05	1966.68
595.40	1959.48
595.75	1951.96
596.10	1946.12
596.45	1939.58
596.80	1933.52
597.15	1927.13
597.50	1920.19
597.85	1913.71
598.19	1907.13
598.54	1900.27
598.89	1893.76
599.24	1887.93
599.59	1881.40
599.94	1875.38
600.29	1869.10
600.64	1862.54
600.99	1855.27
601.34	1848.57
601.69	1841.68
602.04	1834.94
602.39	1827.67
602.74	1820.97
603.08	1814.36
603.43	1807.51
603.78	1800.25
604.13	1793.06
604.48	1785.81
604.83	1778.86
605.18	1772.09
605.53	1764.32
605.87	1756.36
606.22	1749.20
606.57	1741.30
606.92	1733.97
607.27	1726.80
607.62	1720.00
607.96	1712.94
608.31	1706.56
608.66	1699.00
609.01	1691.63
609.36	1684.08
609.70	1676.08
610.05	1668.19
610.40	1660.58
610.75	1652.33
611.10	1644.76
611.44	1636.39
611.79	1628.42
612.14	1619.88
612.49	1610.79
612.83	1602.43
613.18	1594.32
613.53	1586.32
613.88	1577.97
614.22	1569.80
614.57	1561.14
614.92	1553.10
615.27	1545.62
615.61	1537.23
615.96	1529.21
616.31	1521.47
616.65	1514.08
617.00	1506.60
617.35	1498.72
617.70	1490.49
618.04	1482.05
618.39	1473.76
618.74	1466.25
619.08	1458.09
619.43	1450.44
619.78	1443.50
620.12	1436.33
620.47	1428.89
620.82	1420.57
621.16	1413.00
621.51	1405.35
621.85	1397.75
622.20	1389.26
622.55	1380.90
622.89	1373.05
623.24	1365.32
623.59	1357.90
623.93	1350.51
624.28	1343.32
624.62	1335.93
624.97	1328.75
625.32	1321.88
625.66	1314.87
626.01	1307.75
626.35	1300.38
626.70	1292.65
627.04	1284.96
627.39	1277.14
627.73	1269.66
628.08	1262.75
628.43	1255.62
628.77	1248.29
629.12	1240.80
629.46	1233.68
629.81	1226.19
630.15	1219.03
630.50	1211.84
630.84	1203.78
631.19	1195.82
631.53	1188.24
631.88	1180.68
632.22	1173.12
632.57	1165.79
632.91	1158.36
633.26	1150.92
633.60	1143.42
633.95	1136.34
634.29	1129.29
634.64	1122.64
634.98	1115.24
635.32	1108.13
635.67	1101.48
636.01	1094.89
636.36	1088.04
636.70	1081.44
637.05	1074.87
637.39	1068.29
637.73	1061.78
638.08	1055.84
638.42	1049.77
638.77	1043.31
639.11	1036.75
639.45	1030.39
639.80	1023.83
640.14	1017.40
640.49	1010.92
640.83	1004.67
641.17	998.53
641.52	992.16
641.86	985.75
642.20	979.91
642.55	973.57
642.89	967.10
643.23	960.50
643.58	954.82
643.92	948.70
644.26	942.68
644.61	936.64
644.95	930.58
645.29	924.09
645.64	917.44
645.98	911.22
646.32	905.36
646.66	899.32
647.01	893.57
647.35	887.80
647.69	881.86
648.04	876.22
648.38	870.42
648.72	864.51
649.06	858.51
649.41	852.64
649.75	846.72
650.09	840.78
650.43	835.05
650.78	828.91
651.12	822.96
651.46	817.24
651.80	811.54
652.14	806.17
652.49	800.79
652.83	795.66
653.17	789.95
653.51	784.22
653.85	778.80
654.20	773.13
654.54	767.23
654.88	761.55
655.22	755.77
655.56	750.08
655.90	744.59
656.25	739.34
656.59	734.02
656.93	729.02
657.27	723.84
657.61	718.36
657.95	713.25
658.29	708.19
658.64	702.98
658.98	697.73
659.32	692.32
659.66	687.14
660.00	681.82
660.34	676.91
660.68	672.02
661.02	667.02
661.36	662.33
661.70	657.84
662.05	653.56
662.39	649.23
662.73	644.68
663.07	640.31
663.41	635.91
663.75	631.45
664.09	626.85
664.43	622.45
664.77	618.38
665.11	614.18
665.45	609.99
665.79	605.90
666.13	601.77
666.47	597.67
666.81	593.47
667.15	589.31
667.49	585.39
667.83	581.56
668.17	577.55
668.51	573.46
668.85	569.39
669.19	565.39
669.53	561.59
669.87	557.84
670.21	554.12
670.55	550.39
670.89	546.95
671.23	543.52
671.57	540.05
671.91	536.49
672.25	532.91
672.58	529.44
672.92	526.00
673.26	522.78
673.60	519.57
673.94	516.51
674.28	513.64
674.62	510.69
674.96	507.58
675.30	504.72
675.64	501.77
675.97	498.97
676.31	496.20
676.65	493.24
676.99	490.49
677.33	487.61
677.67	484.84
678.01	481.82
678.34	478.88
678.68	475.98
679.02	473.24
679.36	470.44
679.70	467.68
680.04	464.90
680.37	462.07
680.71	459.27
681.05	456.61
681.39	453.81
681.73	451.17
682.06	448.66
682.40	446.11
682.74	443.65
683.08	441.07
683.42	438.43
683.75	435.93
684.09	433.35
684.43	430.92
684.77	428.43
685.10	426.06
685.44	423.74
685.78	421.46
686.12	419.13
686.45	416.89
686.79	414.61
687.13	412.43
687.46	410.24
687.80	408.09
688.14	405.89
688.48	403.89
688.81	401.62
689.15	399.49
689.49	397.28
689.82	395.18
690.16	393.10
690.50	391.15
690.83	389.21
691.17	387.19
691.51	385.32
691.84	383.48
692.18	381.63
692.52	379.66
692.85	377.73
693.19	375.84
693.52	374.02
693.86	372.23
694.20	370.41
694.53	368.64
694.87	366.82
695.21	365.00
695.54	363.17
695.88	361.43
696.21	359.68
696.55	358.04
696.88	356.35
697.22	354.72
697.56	353.05
697.89	351.37
698.23	349.85
698.56	348.23
698.90	346.63
699.23	344.99
699.57	343.43
699.90	341.92
700.24	340.37
700.58	338.84
700.91	337.37
701.25	335.95
701.58	334.56
701.92	333.23
702.25	331.85
702.59	330.49
702.92	329.20
703.26	327.90
703.59	326.62
703.93	325.43
704.26	324.21
704.60	322.93
704.93	321.70
705.26	320.40
705.60	319.21
705.93	318.05
706.27	317.00
706.60	315.94
706.94	314.83
707.27	313.72
707.61	312.66
707.94	311.62
708.27	310.52
708.61	309.45
708.94	308.41
709.28	307.45
709.61	306.49
709.94	305.52
710.28	304.53
710.61	303.58
710.95	302.49
711.28	301.56
711.61	300.63
711.95	299.71
712.28	298.78
712.61	297.78
712.95	296.86
713.28	295.96
713.61	295.05
713.95	294.16
714.28	293.30
714.61	292.45
714.95	291.56
715.28	290.75
715.61	289.87
715.95	289.06
716.28	288.20
716.61	287.37
716.95	286.54
717.28	285.73
717.61	284.96
717.94	284.22
718.28	283.42
718.61	282.69
718.94	282.01
719.27	281.39
719.61	280.74
719.94	280.08
720.27	279.35
720.60	278.68
720.94	278.09
721.27	277.52
721.60	276.92
721.93	276.32
722.27	275.75
722.60	275.19
722.93	274.57
723.26	274.03
723.59	273.43
723.93	272.90
724.26	272.37
724.59	271.81
724.92	271.27
725.25	270.79
725.59	270.29
725.92	269.76
726.25	269.25
726.58	268.76
726.91	268.26
727.24	267.77
727.57	267.29
727.91	266.76
728.24	266.27
728.57	265.79
728.90	265.34
729.23	264.84
729.56	264.41
729.89	263.94
730.22	263.44
730.55	262.99
730.89	262.55
731.22	262.12
731.55	261.70
731.88	261.27
732.21	260.80
732.54	260.35
732.87	259.92
733.20	259.50
733.53	259.11
733.86	258.69
734.19	258.29
734.52	257.94
734.85	257.62
735.18	257.24
735.51	256.86
735.84	256.45
736.17	256.11
736.50	255.70
736.83	255.47
737.16	255.15
737.49	254.82
737.82	254.48
738.15	254.12
738.48	253.77
738.81	253.44
739.14	253.11
739.47	252.81
739.80	252.50
740.13	252.21
740.46	251.89
740.79	251.59
741.12	251.31
741.45	250.99
741.78	250.66
742.11	250.37
742.44	250.05
742.77	249.81
743.10	249.52
743.43	249.24
743.75	248.83
744.08	248.69
744.41	248.44
744.74	248.18
745.07	247.91
745.40	247.65
745.73	247.43
746.06	247.19
746.39	246.90
746.71	246.64
747.04	246.34
747.37	246.11
747.70	245.86
748.03	245.61
748.36	245.39
748.68	245.16
749.01	244.91
749.34	244.68
749.67	244.42
750.00	244.20
750.33	244.02
750.65	243.82
750.98	243.46
751.31	243.24
751.64	243.01
751.97	242.89
752.29	242.68
752.62	242.42
752.95	242.20
753.28	242.02
753.60	241.83
753.93	241.69
754.26	241.48
754.59	241.26
754.91	241.05
755.24	240.81
755.57	240.57
755.90	240.38
756.22	240.21
756.55	240.04
756.88	239.82
757.20	239.57
757.53	239.38
757.86	239.21
758.19	239.05
758.51	238.86
758.84	238.64
759.17	238.47
759.49	238.34
759.82	238.23
760.15	238.06
760.47	237.86
760.80	237.67
761.13	237.52
761.45	237.36
761.78	237.18
762.11	237.02
762.43	236.92
762.76	236.77
763.08	236.61
763.41	236.45
763.74	236.33
764.06	236.19
764.39	236.06
764.71	235.93
765.04	235.78
765.37	235.65
765.69	235.49
766.02	235.37
766.34	235.23
766.67	235.05
767.00	234.96
767.32	234.93
767.65	234.86
767.97	234.74
768.30	234.65
768.62	234.55
768.95	234.44
769.27	234.30
769.60	234.18
769.92	234.06
770.25	233.96
770.57	233.82
770.90	233.73
771.22	233.62
771.55	233.48
771.87	233.38
772.20	233.27
772.52	233.25
772.85	233.27
773.17	233.17
773.50	233.06
773.82	232.92
774.15	232.75
774.47	232.60
774.80	232.51
775.12	232.43
775.45	232.33
775.77	232.24
776.09	232.16
776.42	232.09
776.74	232.03
777.07	231.90
777.39	231.87
777.72	231.78
778.04	231.71
778.36	231.67
778.69	231.59
779.01	231.54
779.33	231.40
779.66	231.22
779.98	231.17
780.31	231.14
780.63	231.12
780.95	231.07
781.28	230.99
781.60	230.90
781.92	230.82
782.25	230.78
782.57	230.72
782.89	230.67
783.22	230.63
783.54	230.57
783.86	230.58
784.19	230.49
784.51	230.48
784.83	230.41
785.16	230.36
785.48	230.32
785.80	230.27
786.12	230.22
786.45	230.15
786.77	230.10
787.09	230.04
787.42	229.94
787.74	229.94
788.06	229.90
788.38	229.92
788.71	229.89
789.03	229.87
789.35	229.85
789.67	229.81
789.99	229.78
790.32	229.73
790.64	229.69
790.96	229.75
791.28	229.68
791.61	229.65
791.93	229.63
792.25	229.61
792.57	229.66
792.89	229.60
793.21	229.60
793.54	229.57
793.86	229.51
794.18	229.49
794.50	229.41
794.82	229.40
795.14	229.34
795.47	229.35
795.79	229.32
796.11	229.29
796.43	229.26
796.75	229.19
797.07	229.17
797.39	229.12
797.71	229.02
798.04	228.97
798.36	228.96
798.68	228.91
799.00	228.89
799.32	228.78
799.64	228.77
799.96	228.73
800.28	228.71
800.60	228.70
800.92	228.68
801.24	228.64
801.56	228.60
801.89	228.57
802.21	228.52
802.53	228.47
802.85	228.46
803.17	228.47
803.49	228.47
803.81	228.41
804.13	228.39
804.45	228.36
804.77	228.38
805.09	228.34
805.41	228.30
805.73	228.23
806.05	228.16
806.37	228.17
806.69	228.15
807.01	228.14
807.33	228.09
807.65	228.02
807.97	228.08
808.28	228.03
808.60	228.00
808.92	227.96
809.24	228.01
809.56	227.97
809.88	227.91
810.20	227.86
810.52	227.87
810.84	227.86
811.16	227.78
811.48	227.72
811.80	227.72
812.12	227.69
812.43	227.72
812.75	227.73
813.07	227.67
813.39	227.64
813.71	227.57
814.03	227.56
814.35	227.58
814.67	227.52
814.98	227.50
815.30	227.47
815.62	227.43
815.94	227.33
816.26	227.34
816.58	227.37
816.89	227.37
817.21	227.31
817.53	227.26
817.85	227.30
818.17	227.29
818.48	227.25
818.80	227.23
819.12	227.17
819.44	227.12
819.76	227.07
820.07	227.03
820.39	227.02
820.71	227.02
821.03	226.98
821.34	226.92
821.66	226.91
821.98	226.92
822.30	226.91
822.61	226.93
822.93	226.87
823.25	226.79
823.57	226.79
823.88	226.81
824.20	226.78
824.52	226.77
824.83	226.76
825.15	226.73
825.47	226.75
825.79	226.73
826.10	226.72
826.42	226.76
826.74	226.79
827.05	226.80
827.37	226.78
827.69	226.75
828.00	226.79
828.32	226.80
828.64	226.78
828.95	226.80
829.27	226.78
829.58	226.75
829.90	226.81
830.22	226.77
830.53	226.75
830.85	226.78
831.17	226.79
831.48	226.78
831.80	226.78
832.11	226.77
832.43	226.75
832.75	226.75
833.06	226.79
833.38	226.75
833.69	226.73
834.01	226.74
834.32	226.77
834.64	226.76
834.96	226.75
835.27	226.73
835.59	226.70
835.90	226.68
836.22	226.69
836.53	226.63
836.85	226.62
837.16	226.70
837.48	226.67
837.79	226.64
838.11	226.62
838.42	226.60
838.74	226.62
839.05	226.59
839.37	226.56
839.68	226.49
840.00	226.49
840.31	226.48
840.63	226.44
840.94	226.40
841.26	226.37
841.57	226.34
841.88	226.37
842.20	226.35
842.51	226.35
842.83	226.34
843.14	226.42
843.46	226.43
843.77	226.39
844.08	226.38
844.40	226.35
844.71	226.36
845.03	226.34
845.34	226.31
845.65	226.31
845.97	226.33
846.28	226.32
846.60	226.34
846.91	226.33
847.22	226.33
847.54	226.35
847.85	226.36
848.16	226.37
848.48	226.30
848.79	226.30
849.10	226.30
849.42	226.26
849.73	226.13
850.04	226.12
850.36	226.05
850.67	226.08
850.98	226.08
851.30	226.05
851.61	226.07
851.92	226.04
852.23	226.08
852.55	226.05
852.86	226.08
853.17	226.05
853.49	226.08
853.80	226.09
854.11	226.07
854.42	226.07
854.74	226.05
855.05	226.09
855.36	226.03
855.67	226.00
855.99	226.03
856.30	226.15
856.61	226.13
856.92	226.13
857.23	226.09
857.55	226.07
857.86	226.09
858.17	226.10
858.48	226.09
858.79	226.08
859.11	226.09
859.42	226.04
859.73	226.01
860.04	225.99
860.35	225.92
860.66	225.92
860.98	225.90
861.29	225.89
861.60	225.84
861.91	225.89
862.22	225.89
862.53	225.84
862.84	225.73
863.16	225.71
863.47	225.67
863.78	225.69
864.09	225.69
864.40	225.68
864.71	225.67
865.02	225.72
865.33	225.69
865.64	225.69
865.95	225.67
866.27	225.75
866.58	225.76
866.89	225.78
867.20	225.76
867.51	225.73
867.82	225.74
868.13	225.80
868.44	225.76
868.75	225.78
869.06	225.83
869.37	225.84
869.68	225.85
869.99	225.92
870.30	225.90
870.61	225.90
870.92	225.89
871.23	225.84
871.54	225.82
871.85	225.84
872.16	225.83
872.47	225.82
872.78	225.75
873.09	225.74
873.40	225.73
873.71	225.72
874.02	225.75
874.33	225.74
874.64	225.72
874.95	225.78
875.26	225.77
875.56	225.75
875.87	225.73
876.18	225.71
876.49	225.77
876.80	225.76
877.11	225.73
877.42	225.73
877.73	225.76
878.04	225.75
878.35	225.73
878.66	225.74
878.96	225.76
879.27	225.78
879.58	225.75
879.89	225.73
880.20	225.78
880.51	225.78
880.82	225.78
881.12	225.74
881.43	225.69
881.74	225.66
882.05	225.64
882.36	225.63
882.67	225.64
882.97	225.54
883.28	225.52
883.59	225.54
883.90	225.55
884.21	225.56
884.51	225.55
884.82	225.56
885.13	225.56
885.44	225.55
885.74	225.52
886.05	225.54
886.36	225.57
886.67	225.52
886.98	225.53
887.28	225.56
887.59	225.57
887.90	225.59
888.20	225.60
888.51	225.62
888.82	225.63
889.13	225.65
889.43	225.73
889.74	225.76
890.05	225.76
890.35	225.75
890.66	225.73
890.97	225.70
891.28	225.68
891.58	225.68
891.89	225.68
892.20	225.68
892.50	225.64
892.81	225.60
893.12	225.61
893.42	225.57
893.73	225.54
894.04	225.52
894.34	225.51
894.65	225.53
894.95	225.54
895.26	225.53
895.57	225.55
895.87	225.46
896.18	225.49
896.48	225.49
896.79	225.48
897.10	225.51
897.40	225.55
897.71	225.54
898.01	225.55
898.32	225.56
898.63	225.57
898.93	225.58
899.24	225.60
899.54	225.61
899.85	225.61
900.15	225.60
900.46	225.63
900.76	225.65
901.07	225.63
901.38	225.62
901.68	225.62
901.99	225.58
902.29	225.61
902.60	225.57
902.90	225.54
903.21	225.57
903.51	225.53
903.82	225.54
904.12	225.55
904.43	225.53
904.73	225.54
905.03	225.56
905.34	225.67
905.64	225.69
905.95	225.67
906.25	225.67
906.56	225.70
906.86	225.70
907.17	225.69
907.47	225.66
907.77	225.66
908.08	225.63
908.38	225.66
908.69	225.66
908.99	225.69
909.30	225.70
909.60	225.68
909.90	225.72
910.21	225.69
910.51	225.69
910.81	225.71
911.12	225.72
911.42	225.72
911.73	225.60
912.03	225.57
912.33	225.56
912.64	225.59
912.94	225.57
913.24	225.56
913.55	225.54
913.85	225.57
914.15	225.54
914.46	225.57
914.76	225.54
915.06	225.52
915.37	225.52
915.67	225.52
915.97	225.54
916.27	225.49
916.58	225.48
916.88	225.48
917.18	225.47
917.49	225.53
917.79	225.52
918.09	225.53
918.39	225.57
918.70	225.57
919.00	225.54
919.30	225.58
919.60	225.55
919.91	225.57
920.21	225.59
920.51	225.63
920.81	225.61
921.12	225.65
921.42	225.68
921.72	225.67
922.02	225.65
922.32	225.68
922.63	225.69
922.93	225.74
923.23	225.74
923.53	225.73
923.83	225.67
924.13	225.69
924.44	225.70
924.74	225.68
925.04	225.71
925.34	225.73
925.64	225.69
925.94	225.73
926.24	225.73
926.55	225.71
926.85	225.68
927.15	225.68
927.45	225.65
927.75	225.62
928.05	225.61
928.35	225.63
928.65	225.62
928.95	225.64
929.26	225.61
929.56	225.64
929.86	225.60
930.16	225.57
930.46	225.55
930.76	225.56
931.06	225.54
931.36	225.51
931.66	225.52
931.96	225.52
932.26	225.50
932.56	225.46
932.86	225.46
933.16	225.49
933.46	225.47
933.76	225.44
934.06	225.43
934.36	225.45
934.66	225.42
934.96	225.40
935.26	225.40
935.56	225.41
935.86	225.36
936.16	225.42
936.46	225.43
936.76	225.44
937.06	225.41
937.36	225.42
937.66	225.43
937.96	225.39
938.26	225.41
938.56	225.38
938.86	225.38
939.16	225.38
939.46	225.34
939.76	225.36
940.06	225.41
940.35	225.40
940.65	225.37
940.95	225.39
941.25	225.35
941.55	225.31
941.85	225.30
942.15	225.33
942.45	225.32
942.75	225.32
943.04	225.31
943.34	225.32
943.64	225.29
943.94	225.28
944.24	225.28
944.54	225.24
944.84	225.24
945.13	225.29
945.43	225.28
945.73	225.29
946.03	225.27
946.33	225.23
946.62	225.20
946.92	225.20
947.22	225.20
947.52	225.23
947.82	225.26
948.11	225.24
948.41	225.19
948.71	225.12
949.01	225.13
949.31	225.08
949.60	225.05
949.90	225.06
950.20	225.06
950.50	225.09
950.79	225.09
951.09	225.10
951.39	225.06
951.69	225.03
951.98	225.04
952.28	225.04
952.58	225.04
952.87	225.06
953.17	225.10
953.47	225.07
953.76	225.07
954.06	225.05
954.36	225.05
954.66	225.08
954.95	225.18
955.25	225.18
955.55	225.20
955.84	225.24
956.14	225.26
956.44	225.28
956.73	225.26
957.03	225.29
957.32	225.34
957.62	225.33
957.92	225.36
958.21	225.39
958.51	225.52
958.81	225.54
959.10	225.55
959.40	225.56
959.69	225.58
959.99	225.60
960.29	225.61
960.58	225.61
960.88	225.63
961.17	225.59
961.47	225.60
961.76	225.60
962.06	225.61
962.36	225.59
962.65	225.57
962.95	225.57
963.24	225.55
963.54	225.53
963.83	225.53
964.13	225.54
964.42	225.51
964.72	225.43
965.01	225.42
965.31	225.41
965.60	225.39
965.90	225.43
966.19	225.40
966.49	225.41
966.78	225.44
967.08	225.43
967.37	225.44
967.67	225.45
967.96	225.44
968.26	225.43
968.55	225.46
968.85	225.49
969.14	225.49
969.43	225.47
969.73	225.44
970.02	225.45
970.32	225.42
970.61	225.38
970.91	225.35
971.20	225.33
971.49	225.34
971.79	225.35
972.08	225.29
972.38	225.31
972.67	225.28
972.96	225.26
973.26	225.25
973.55	225.28
973.85	225.24
974.14	225.24
974.43	225.22
974.73	225.21
975.02	225.16
975.31	225.17
975.61	225.19
975.90	225.19
976.19	225.15
976.49	225.16
976.78	225.22
977.07	225.19
977.37	225.21
977.66	225.22
977.95	225.20
978.24	225.21
978.54	225.22
978.83	225.23
979.12	225.23
979.42	225.21
979.71	225.18
980.00	225.18
980.29	225.18
980.59	225.20
980.88	225.19
981.17	225.21
981.46	225.20
981.76	225.21
982.05	225.25
982.34	225.29
982.63	225.30
982.93	225.28
983.22	225.32
983.51	225.34
983.80	225.35
984.09	225.35
984.39	225.34
984.68	225.31
984.97	225.31
985.26	225.28
985.55	225.30
985.85	225.23
986.14	225.23
986.43	225.23
986.72	225.23
987.01	225.21
987.30	225.20
987.59	225.19
987.89	225.17
988.18	225.14
988.47	225.11
988.76	225.10
989.05	225.10
989.34	225.11
989.63	225.13
989.92	225.09
990.22	225.10
990.51	225.10
990.80	225.10
991.09	225.13
991.38	225.18
991.67	225.16
991.96	225.20
992.25	225.21
992.54	225.22
992.83	225.24
993.12	225.26
993.41	225.27
993.70	225.31
993.99	225.33
994.28	225.35
994.58	225.37
994.87	225.34
995.16	225.30
995.45	225.27
995.74	225.22
996.03	225.24
996.32	225.25
996.61	225.27
996.90	225.26
997.19	225.27
997.48	225.26
997.77	225.26
998.06	225.26
998.34	225.25
998.63	225.27
998.92	225.26
999.21	225.28
999.50	225.30
999.79	225.27
1000.08	225.26
1000.37	225.28
1000.66	225.28
1000.95	225.33
1001.24	225.36
1001.53	225.41
1001.82	225.40
1002.11	225.40
1002.40	225.42
1002.68	225.45
1002.97	225.53
1003.26	225.51
1003.55	225.50
1003.84	225.53
1004.13	225.60
1004.42	225.61
1004.71	225.60
1004.99	225.60
1005.28	225.63
1005.57	225.62
1005.86	225.61
1006.15	225.60
1006.44	225.58
1006.72	225.56
1007.01	225.54
1007.30	225.55
1007.59	225.52
1007.88	225.53
1008.17	225.53
1008.45	225.50
1008.74	225.46
1009.03	225.41
1009.32	225.41
1009.60	225.42
1009.89	225.39
1010.18	225.31
1010.47	225.29
1010.76	225.27
1011.04	225.29
1011.33	225.27
1011.62	225.28
1011.91	225.30
1012.19	225.31
1012.48	225.29
1012.77	225.31
1013.05	225.36
1013.34	225.36
1013.63	225.36
1013.92	225.38
1014.20	225.35
1014.49	225.37
1014.78	225.38
1015.06	225.31
1015.35	225.30
1015.64	225.27
1015.92	225.28
1016.21	225.29
1016.50	225.27
1016.78	225.27
1017.07	225.24
1017.36	225.22
1017.64	225.20
1017.93	225.17
1018.22	225.16
1018.50	225.18
1018.79	225.15
1019.08	225.08
1019.36	225.06
1019.65	225.05
1019.93	225.04
1020.22	225.04
1020.51	225.09
1020.79	225.09
1021.08	224.94
1021.36	225.11
1021.65	224.83
1021.94	224.79
1022.22	225.12
1022.51	225.13
1022.79	225.44
1023.08	224.87
1023.36	226.62
1023.65	225.17
>>>>>End Processed Spectral Data<<<<<
