SpectraSuite Data File
++++++++++++++++++++++++++++++++++++
Date: Fri Feb 01 16:42:39 EST 2013
User: group
Dark Spectrum Present: No
Reference Spectrum Present: No
Number of Sampled Component Spectra: 1
Spectrometers: USB2E7196
Integration Time (usec): 35000 (USB2E7196)
Spectra Averaged: 100 (USB2E7196)
Boxcar Smoothing: 10 (USB2E7196)
Correct for Electrical Dark: No (USB2E7196)
Strobe/Lamp Enabled: No (USB2E7196)
Correct for Detector Non-linearity: No (USB2E7196)
Correct for Stray Light: No (USB2E7196)
Number of Pixels in Processed Spectrum: 2048
>>>>>Begin Processed Spectral Data<<<<<
339.09	0.00
339.48	214.00
339.86	214.84
340.24	216.52
340.63	218.25
341.01	220.35
341.39	220.12
341.78	221.82
342.16	223.21
342.54	223.59
342.93	212.00
343.31	222.73
343.69	223.26
344.07	223.72
344.46	224.14
344.84	224.52
345.22	224.78
345.60	225.05
345.99	225.24
346.37	225.36
346.75	225.49
347.13	225.59
347.52	225.65
347.90	225.75
348.28	225.76
348.66	225.79
349.05	225.80
349.43	225.84
349.81	225.94
350.19	226.01
350.57	226.06
350.96	226.12
351.34	226.21
351.72	226.28
352.10	226.40
352.48	226.48
352.87	226.54
353.25	226.61
353.63	226.68
354.01	226.75
354.39	226.86
354.77	226.89
355.15	226.98
355.54	227.03
355.92	227.05
356.30	227.13
356.68	227.30
357.06	227.40
357.44	227.42
357.82	227.45
358.20	227.49
358.58	227.57
358.97	227.64
359.35	227.70
359.73	227.75
360.11	227.81
360.49	227.86
360.87	227.88
361.25	227.93
361.63	228.03
362.01	228.07
362.39	228.05
362.77	228.10
363.15	228.11
363.53	228.16
363.91	228.19
364.29	228.18
364.67	228.08
365.05	228.08
365.43	228.10
365.81	228.14
366.19	228.20
366.57	228.20
366.95	228.17
367.33	228.13
367.71	228.15
368.09	228.15
368.47	228.10
368.85	228.12
369.23	228.11
369.61	228.04
369.99	228.04
370.37	228.05
370.75	228.07
371.13	228.01
371.51	227.92
371.89	227.88
372.27	227.84
372.65	227.80
373.03	227.72
373.41	227.69
373.78	227.60
374.16	227.47
374.54	227.38
374.92	227.33
375.30	227.31
375.68	227.22
376.06	227.13
376.44	227.07
376.82	227.00
377.19	226.93
377.57	226.88
377.95	226.78
378.33	226.71
378.71	226.56
379.09	226.52
379.47	226.48
379.84	226.41
380.22	226.36
380.60	226.28
380.98	226.23
381.36	226.15
381.73	226.09
382.11	226.06
382.49	226.01
382.87	225.95
383.25	225.87
383.62	225.93
384.00	225.90
384.38	225.86
384.76	225.80
385.13	225.79
385.51	225.69
385.89	225.62
386.27	225.59
386.64	225.58
387.02	225.52
387.40	225.50
387.78	225.48
388.15	225.43
388.53	225.42
388.91	225.36
389.29	225.33
389.66	225.32
390.04	225.29
390.42	225.33
390.79	225.32
391.17	225.31
391.55	225.19
391.92	225.19
392.30	225.21
392.68	225.22
393.05	225.20
393.43	225.26
393.81	225.27
394.18	225.23
394.56	225.24
394.94	225.27
395.31	225.28
395.69	225.32
396.06	225.35
396.44	225.39
396.82	225.44
397.19	225.55
397.57	225.59
397.95	225.64
398.32	225.64
398.70	225.68
399.07	225.76
399.45	225.80
399.82	225.86
400.20	225.88
400.58	225.93
400.95	225.93
401.33	226.00
401.70	226.17
402.08	226.28
402.45	226.37
402.83	226.47
403.20	226.55
403.58	226.63
403.95	226.76
404.33	226.86
404.71	226.99
405.08	227.12
405.46	227.20
405.83	227.34
406.21	227.44
406.58	227.62
406.96	227.78
407.33	227.93
407.70	228.10
408.08	228.40
408.45	228.62
408.83	228.84
409.20	229.04
409.58	229.18
409.95	229.45
410.33	229.72
410.70	229.95
411.08	230.23
411.45	230.53
411.82	230.80
412.20	231.16
412.57	231.55
412.95	231.83
413.32	232.28
413.69	232.67
414.07	233.15
414.44	233.59
414.82	234.05
415.19	234.66
415.56	235.20
415.94	235.69
416.31	236.30
416.68	236.96
417.06	237.65
417.43	238.36
417.81	239.10
418.18	239.86
418.55	240.72
418.93	241.57
419.30	242.47
419.67	243.45
420.04	244.40
420.42	245.38
420.79	246.56
421.16	247.69
421.54	248.89
421.91	250.09
422.28	251.37
422.66	252.71
423.03	253.94
423.40	255.24
423.77	256.68
424.15	258.10
424.52	259.56
424.89	261.19
425.26	262.71
425.64	264.16
426.01	265.76
426.38	267.41
426.75	269.07
427.13	270.81
427.50	272.58
427.87	274.44
428.24	276.29
428.61	278.01
428.99	279.91
429.36	281.99
429.73	284.00
430.10	285.95
430.47	287.96
430.85	290.07
431.22	292.32
431.59	294.66
431.96	296.86
432.33	299.32
432.70	301.65
433.08	304.42
433.45	307.06
433.82	309.63
434.19	312.51
434.56	315.32
434.93	317.92
435.30	320.54
435.68	323.44
436.05	326.25
436.42	329.06
436.79	331.60
437.16	334.29
437.53	337.14
437.90	339.96
438.27	342.65
438.64	345.43
439.01	348.02
439.38	350.24
439.75	352.37
440.13	354.85
440.50	357.13
440.87	358.98
441.24	360.84
441.61	362.96
441.98	364.41
442.35	366.22
442.72	368.03
443.09	369.82
443.46	370.79
443.83	371.38
444.20	371.84
444.57	372.68
444.94	372.95
445.31	373.27
445.68	373.62
446.05	373.72
446.42	373.38
446.79	372.94
447.16	372.52
447.53	372.28
447.90	371.13
448.27	370.02
448.64	368.44
449.01	367.34
449.37	365.44
449.74	363.60
450.11	361.36
450.48	358.95
450.85	356.46
451.22	354.32
451.59	352.31
451.96	350.43
452.33	347.85
452.70	345.49
453.07	342.69
453.43	339.82
453.80	337.12
454.17	334.47
454.54	331.94
454.91	329.28
455.28	326.63
455.65	324.20
456.02	321.77
456.38	319.66
456.75	317.03
457.12	314.80
457.49	312.54
457.86	310.38
458.23	308.54
458.59	306.50
458.96	304.42
459.33	302.60
459.70	300.70
460.07	299.22
460.43	297.54
460.80	295.96
461.17	294.52
461.54	293.07
461.91	291.63
462.27	290.20
462.64	288.95
463.01	287.58
463.38	286.31
463.74	284.94
464.11	283.80
464.48	282.78
464.85	281.66
465.21	280.82
465.58	279.93
465.95	278.85
466.32	277.95
466.68	277.06
467.05	276.16
467.42	275.31
467.78	274.39
468.15	273.56
468.52	272.91
468.88	272.08
469.25	271.26
469.62	270.68
469.98	270.02
470.35	269.36
470.72	268.76
471.08	268.11
471.45	267.59
471.82	267.09
472.18	266.51
472.55	266.09
472.92	265.59
473.28	265.13
473.65	264.66
474.02	264.24
474.38	263.94
474.75	263.66
475.11	263.32
475.48	263.05
475.85	262.82
476.21	262.58
476.58	262.40
476.94	262.29
477.31	262.17
477.67	262.04
478.04	261.95
478.41	261.96
478.77	262.02
479.14	261.95
479.50	261.95
479.87	262.07
480.23	262.16
480.60	262.20
480.96	262.29
481.33	262.52
481.69	262.72
482.06	262.86
482.42	263.07
482.79	263.35
483.15	263.65
483.52	264.03
483.88	264.38
484.25	264.76
484.61	265.18
484.98	265.59
485.34	266.15
485.71	266.71
486.07	267.28
486.44	267.80
486.80	268.48
487.17	269.19
487.53	269.98
487.90	270.85
488.26	271.82
488.62	272.81
488.99	273.81
489.35	274.82
489.72	275.98
490.08	277.13
490.44	278.33
490.81	279.68
491.17	281.00
491.54	282.52
491.90	284.05
492.26	285.71
492.63	287.46
492.99	289.23
493.36	291.15
493.72	293.23
494.08	295.35
494.45	297.68
494.81	300.06
495.17	302.47
495.54	305.00
495.90	307.66
496.26	310.43
496.63	313.35
496.99	316.48
497.35	319.75
497.72	323.19
498.08	326.74
498.44	330.42
498.80	334.36
499.17	338.37
499.53	342.57
499.89	346.94
500.26	351.46
500.62	356.15
500.98	361.10
501.34	366.12
501.71	371.43
502.07	376.80
502.43	382.36
502.79	388.20
503.16	394.28
503.52	400.57
503.88	406.98
504.24	413.63
504.60	420.51
504.97	427.60
505.33	434.84
505.69	442.52
506.05	450.29
506.41	458.14
506.78	466.26
507.14	474.69
507.50	483.36
507.86	492.35
508.22	501.51
508.59	510.73
508.95	520.32
509.31	530.08
509.67	540.15
510.03	550.39
510.39	560.92
510.75	571.67
511.12	582.55
511.48	593.82
511.84	605.17
512.20	616.59
512.56	628.49
512.92	640.74
513.28	653.03
513.64	665.40
514.00	678.15
514.37	691.09
514.73	704.11
515.09	717.06
515.45	730.27
515.81	743.72
516.17	757.53
516.53	771.58
516.89	785.71
517.25	799.87
517.61	814.28
517.97	828.64
518.33	843.06
518.69	857.74
519.05	872.55
519.41	887.73
519.77	903.21
520.13	918.53
520.49	933.76
520.85	949.10
521.21	964.68
521.57	980.67
521.93	996.27
522.29	1012.44
522.65	1028.60
523.01	1044.70
523.37	1060.62
523.73	1076.75
524.09	1092.66
524.45	1108.79
524.81	1125.33
525.17	1141.95
525.53	1158.57
525.89	1175.24
526.25	1191.91
526.61	1208.32
526.97	1224.86
527.33	1241.21
527.68	1257.71
528.04	1273.99
528.40	1290.38
528.76	1307.34
529.12	1323.75
529.48	1340.54
529.84	1356.46
530.20	1372.95
530.56	1389.66
530.91	1406.93
531.27	1423.62
531.63	1439.94
531.99	1456.37
532.35	1472.09
532.71	1487.92
533.07	1504.14
533.42	1519.87
533.78	1535.85
534.14	1551.84
534.50	1566.97
534.86	1582.63
535.21	1597.58
535.57	1613.38
535.93	1628.73
536.29	1643.31
536.65	1658.23
537.00	1672.67
537.36	1687.76
537.72	1702.01
538.08	1716.26
538.44	1729.80
538.79	1743.39
539.15	1756.79
539.51	1770.23
539.87	1784.35
540.22	1797.68
540.58	1811.10
540.94	1824.02
541.29	1836.39
541.65	1848.80
542.01	1861.83
542.37	1873.88
542.72	1886.03
543.08	1897.66
543.44	1909.88
543.79	1921.05
544.15	1931.82
544.51	1943.39
544.87	1954.14
545.22	1964.97
545.58	1975.29
545.94	1984.94
546.29	1994.63
546.65	2004.56
547.01	2013.87
547.36	2022.61
547.72	2031.07
548.07	2039.06
548.43	2047.34
548.79	2055.33
549.14	2062.98
549.50	2070.19
549.86	2077.67
550.21	2085.05
550.57	2092.30
550.92	2098.86
551.28	2105.88
551.64	2112.98
551.99	2119.35
552.35	2125.58
552.70	2131.61
553.06	2137.36
553.41	2143.81
553.77	2149.69
554.13	2155.61
554.48	2161.69
554.84	2167.26
555.19	2172.47
555.55	2177.67
555.90	2182.06
556.26	2187.20
556.61	2191.81
556.97	2196.31
557.32	2200.65
557.68	2204.85
558.03	2208.94
558.39	2212.61
558.74	2217.13
559.10	2221.05
559.45	2224.72
559.81	2228.98
560.16	2232.74
560.52	2236.09
560.87	2239.35
561.23	2242.12
561.58	2245.02
561.94	2247.62
562.29	2249.73
562.64	2252.62
563.00	2255.09
563.35	2258.73
563.71	2261.97
564.06	2265.08
564.42	2268.09
564.77	2270.59
565.12	2272.99
565.48	2275.09
565.83	2277.03
566.19	2278.62
566.54	2279.46
566.89	2280.76
567.25	2281.43
567.60	2282.70
567.96	2284.59
568.31	2285.56
568.66	2286.89
569.02	2287.52
569.37	2287.92
569.72	2288.98
570.08	2289.24
570.43	2289.47
570.78	2288.88
571.14	2287.25
571.49	2286.07
571.84	2285.48
572.20	2284.52
572.55	2283.49
572.90	2281.72
573.26	2280.43
573.61	2278.50
573.96	2277.03
574.31	2274.16
574.67	2271.31
575.02	2267.95
575.37	2264.35
575.72	2260.71
576.08	2257.20
576.43	2253.90
576.78	2250.36
577.13	2247.01
577.49	2243.81
577.84	2240.43
578.19	2236.67
578.54	2233.18
578.90	2229.22
579.25	2223.93
579.60	2219.18
579.95	2214.21
580.30	2209.33
580.66	2204.17
581.01	2199.25
581.36	2194.29
581.71	2190.33
582.06	2186.06
582.42	2181.72
582.77	2176.83
583.12	2172.41
583.47	2168.05
583.82	2163.30
584.17	2158.06
584.53	2152.88
584.88	2147.31
585.23	2141.59
585.58	2136.18
585.93	2130.81
586.28	2125.86
586.63	2120.85
586.98	2115.82
587.34	2111.17
587.69	2106.37
588.04	2101.43
588.39	2095.91
588.74	2089.45
589.09	2083.19
589.44	2076.47
589.79	2070.27
590.14	2064.50
590.49	2058.02
590.84	2051.60
591.19	2045.67
591.54	2039.38
591.89	2032.24
592.25	2025.78
592.60	2018.64
592.95	2011.42
593.30	2004.14
593.65	1996.64
594.00	1989.57
594.35	1982.35
594.70	1974.31
595.05	1967.46
595.40	1960.06
595.75	1952.68
596.10	1946.77
596.45	1940.25
596.80	1933.96
597.15	1927.55
597.50	1920.95
597.85	1914.49
598.19	1907.84
598.54	1900.86
598.89	1894.28
599.24	1888.30
599.59	1881.65
599.94	1875.29
600.29	1869.02
600.64	1862.48
600.99	1855.20
601.34	1848.52
601.69	1841.52
602.04	1834.87
602.39	1827.50
602.74	1820.88
603.08	1814.31
603.43	1807.44
603.78	1800.15
604.13	1793.01
604.48	1786.06
604.83	1778.90
605.18	1772.21
605.53	1764.27
605.87	1756.31
606.22	1749.05
606.57	1741.13
606.92	1733.63
607.27	1726.71
607.62	1719.90
607.96	1712.75
608.31	1706.37
608.66	1698.87
609.01	1691.56
609.36	1684.06
609.70	1676.13
610.05	1668.06
610.40	1660.39
610.75	1652.25
611.10	1644.51
611.44	1636.33
611.79	1628.02
612.14	1619.52
612.49	1610.14
612.83	1601.87
613.18	1593.75
613.53	1585.60
613.88	1577.08
614.22	1569.12
614.57	1560.54
614.92	1552.48
615.27	1545.07
615.61	1536.78
615.96	1528.71
616.31	1520.97
616.65	1513.55
617.00	1505.90
617.35	1498.17
617.70	1489.98
618.04	1481.52
618.39	1473.45
618.74	1465.86
619.08	1457.63
619.43	1450.14
619.78	1443.35
620.12	1436.33
620.47	1428.87
620.82	1420.79
621.16	1413.42
621.51	1405.66
621.85	1397.99
622.20	1389.54
622.55	1381.17
622.89	1373.28
623.24	1365.71
623.59	1358.31
623.93	1350.82
624.28	1343.62
624.62	1336.28
624.97	1329.13
625.32	1322.35
625.66	1315.37
626.01	1308.13
626.35	1300.87
626.70	1293.04
627.04	1285.40
627.39	1277.58
627.73	1270.16
628.08	1263.28
628.43	1256.16
628.77	1248.99
629.12	1241.57
629.46	1234.53
629.81	1226.92
630.15	1219.57
630.50	1212.24
630.84	1204.16
631.19	1196.16
631.53	1188.73
631.88	1181.07
632.22	1173.38
632.57	1166.01
632.91	1158.37
633.26	1151.05
633.60	1143.57
633.95	1136.43
634.29	1129.35
634.64	1122.59
634.98	1115.31
635.32	1108.21
635.67	1101.38
636.01	1094.58
636.36	1087.71
636.70	1080.98
637.05	1074.48
637.39	1068.11
637.73	1061.58
638.08	1055.70
638.42	1049.78
638.77	1043.27
639.11	1036.79
639.45	1030.50
639.80	1023.90
640.14	1017.56
640.49	1011.00
640.83	1004.78
641.17	998.69
641.52	992.39
641.86	985.98
642.20	980.09
642.55	973.73
642.89	967.44
643.23	960.83
643.58	955.17
643.92	949.01
644.26	943.09
644.61	937.10
644.95	931.27
645.29	924.65
645.64	917.98
645.98	911.74
646.32	905.78
646.66	899.70
647.01	893.95
647.35	888.29
647.69	882.39
648.04	876.76
648.38	870.89
648.72	864.96
649.06	858.99
649.41	853.05
649.75	847.22
650.09	841.28
650.43	835.57
650.78	829.42
651.12	823.52
651.46	817.73
651.80	812.04
652.14	806.46
652.49	801.23
652.83	796.03
653.17	790.41
653.51	784.86
653.85	779.35
654.20	773.72
654.54	767.67
654.88	762.02
655.22	756.16
655.56	750.45
655.90	744.89
656.25	739.62
656.59	734.26
656.93	729.07
657.27	723.90
657.61	718.55
657.95	713.47
658.29	708.35
658.64	703.11
658.98	697.67
659.32	692.25
659.66	686.99
660.00	681.70
660.34	676.74
660.68	671.69
661.02	666.72
661.36	662.01
661.70	657.59
662.05	653.26
662.39	649.04
662.73	644.67
663.07	640.27
663.41	635.87
663.75	631.49
664.09	626.95
664.43	622.54
664.77	618.46
665.11	614.14
665.45	609.96
665.79	605.90
666.13	601.86
666.47	597.78
666.81	593.61
667.15	589.49
667.49	585.52
667.83	581.69
668.17	577.76
668.51	573.71
668.85	569.64
669.19	565.69
669.53	561.83
669.87	557.99
670.21	554.35
670.55	550.64
670.89	547.11
671.23	543.70
671.57	540.24
671.91	536.68
672.25	533.17
672.58	529.69
672.92	526.18
673.26	522.95
673.60	519.76
673.94	516.70
674.28	513.79
674.62	510.89
674.96	507.79
675.30	504.92
675.64	502.02
675.97	499.20
676.31	496.39
676.65	493.46
676.99	490.68
677.33	487.80
677.67	485.03
678.01	482.10
678.34	479.16
678.68	476.22
679.02	473.42
679.36	470.64
679.70	467.91
680.04	465.24
680.37	462.45
680.71	459.64
681.05	457.05
681.39	454.30
681.73	451.59
682.06	449.12
682.40	446.52
682.74	443.93
683.08	441.39
683.42	438.78
683.75	436.28
684.09	433.72
684.43	431.29
684.77	428.78
685.10	426.38
685.44	424.02
685.78	421.72
686.12	419.51
686.45	417.22
686.79	414.95
687.13	412.78
687.46	410.59
687.80	408.48
688.14	406.16
688.48	404.18
688.81	401.98
689.15	399.82
689.49	397.70
689.82	395.61
690.16	393.56
690.50	391.60
690.83	389.64
691.17	387.63
691.51	385.66
691.84	383.86
692.18	381.93
692.52	380.03
692.85	378.16
693.19	376.25
693.52	374.42
693.86	372.63
694.20	370.85
694.53	369.05
694.87	367.17
695.21	365.42
695.54	363.57
695.88	361.86
696.21	360.13
696.55	358.48
696.88	356.84
697.22	355.12
697.56	353.51
697.89	351.91
698.23	350.37
698.56	348.78
698.90	347.21
699.23	345.58
699.57	343.97
699.90	342.37
700.24	340.82
700.58	339.32
700.91	337.85
701.25	336.37
701.58	335.01
701.92	333.70
702.25	332.31
702.59	330.92
702.92	329.57
703.26	328.26
703.59	326.93
703.93	325.73
704.26	324.51
704.60	323.21
704.93	321.91
705.26	320.60
705.60	319.40
705.93	318.19
706.27	317.15
706.60	316.13
706.94	315.09
707.27	313.95
707.61	312.89
707.94	311.81
708.27	310.70
708.61	309.59
708.94	308.56
709.28	307.57
709.61	306.61
709.94	305.63
710.28	304.60
710.61	303.63
710.95	302.52
711.28	301.57
711.61	300.59
711.95	299.73
712.28	298.81
712.61	297.85
712.95	296.92
713.28	296.01
713.61	295.04
713.95	294.13
714.28	293.26
714.61	292.38
714.95	291.52
715.28	290.69
715.61	289.83
715.95	288.95
716.28	288.12
716.61	287.27
716.95	286.43
717.28	285.69
717.61	284.93
717.94	284.20
718.28	283.42
718.61	282.71
718.94	281.97
719.27	281.32
719.61	280.68
719.94	279.99
720.27	279.28
720.60	278.66
720.94	278.05
721.27	277.45
721.60	276.88
721.93	276.33
722.27	275.76
722.60	275.23
722.93	274.68
723.26	274.13
723.59	273.59
723.93	273.09
724.26	272.51
724.59	271.95
724.92	271.41
725.25	270.92
725.59	270.42
725.92	269.89
726.25	269.42
726.58	268.94
726.91	268.46
727.24	268.05
727.57	267.61
727.91	267.07
728.24	266.62
728.57	266.15
728.90	265.64
729.23	265.18
729.56	264.79
729.89	264.30
730.22	263.81
730.55	263.36
730.89	262.93
731.22	262.52
731.55	262.08
731.88	261.67
732.21	261.24
732.54	260.78
732.87	260.37
733.20	259.92
733.53	259.52
733.86	259.15
734.19	258.72
734.52	258.33
734.85	258.07
735.18	257.65
735.51	257.25
735.84	256.94
736.17	256.60
736.50	256.15
736.83	255.95
737.16	255.63
737.49	255.26
737.82	254.87
738.15	254.53
738.48	254.23
738.81	253.91
739.14	253.62
739.47	253.29
739.80	252.99
740.13	252.71
740.46	252.40
740.79	252.05
741.12	251.76
741.45	251.44
741.78	251.08
742.11	250.83
742.44	250.50
742.77	250.16
743.10	249.88
743.43	249.60
743.75	249.18
744.08	249.03
744.41	248.77
744.74	248.51
745.07	248.21
745.40	247.94
745.73	247.70
746.06	247.42
746.39	247.19
746.71	246.93
747.04	246.65
747.37	246.34
747.70	246.12
748.03	245.84
748.36	245.57
748.68	245.31
749.01	245.04
749.34	244.81
749.67	244.56
750.00	244.30
750.33	244.14
750.65	243.94
750.98	243.56
751.31	243.35
751.64	243.14
751.97	243.01
752.29	242.76
752.62	242.52
752.95	242.28
753.28	242.03
753.60	241.83
753.93	241.63
754.26	241.45
754.59	241.22
754.91	241.05
755.24	240.85
755.57	240.65
755.90	240.42
756.22	240.22
756.55	240.05
756.88	239.82
757.20	239.58
757.53	239.34
757.86	239.17
758.19	239.02
758.51	238.82
758.84	238.60
759.17	238.44
759.49	238.25
759.82	238.15
760.15	238.02
760.47	237.83
760.80	237.72
761.13	237.57
761.45	237.43
761.78	237.25
762.11	237.08
762.43	236.95
762.76	236.82
763.08	236.71
763.41	236.57
763.74	236.47
764.06	236.33
764.39	236.19
764.71	236.06
765.04	235.89
765.37	235.76
765.69	235.64
766.02	235.52
766.34	235.41
766.67	235.22
767.00	235.11
767.32	235.04
767.65	234.94
767.97	234.82
768.30	234.69
768.62	234.60
768.95	234.49
769.27	234.42
769.60	234.36
769.92	234.25
770.25	234.13
770.57	234.01
770.90	233.92
771.22	233.87
771.55	233.77
771.87	233.69
772.20	233.60
772.52	233.60
772.85	233.62
773.17	233.56
773.50	233.45
773.82	233.38
774.15	233.25
774.47	233.14
774.80	233.08
775.12	233.03
775.45	232.96
775.77	232.92
776.09	232.81
776.42	232.74
776.74	232.71
777.07	232.68
777.39	232.62
777.72	232.55
778.04	232.48
778.36	232.43
778.69	232.37
779.01	232.32
779.33	232.14
779.66	231.96
779.98	231.87
780.31	231.81
780.63	231.76
780.95	231.71
781.28	231.63
781.60	231.55
781.92	231.47
782.25	231.41
782.57	231.35
782.89	231.28
783.22	231.20
783.54	231.09
783.86	230.99
784.19	230.92
784.51	230.89
784.83	230.79
785.16	230.73
785.48	230.65
785.80	230.61
786.12	230.54
786.45	230.50
786.77	230.45
787.09	230.43
787.42	230.33
787.74	230.31
788.06	230.25
788.38	230.18
788.71	230.14
789.03	230.08
789.35	230.02
789.67	229.96
789.99	229.93
790.32	229.87
790.64	229.85
790.96	229.89
791.28	229.81
791.61	229.77
791.93	229.70
792.25	229.69
792.57	229.73
792.89	229.70
793.21	229.66
793.54	229.64
793.86	229.60
794.18	229.60
794.50	229.52
794.82	229.49
795.14	229.47
795.47	229.44
795.79	229.39
796.11	229.34
796.43	229.29
796.75	229.25
797.07	229.22
797.39	229.19
797.71	229.09
798.04	229.05
798.36	229.02
798.68	229.01
799.00	228.96
799.32	228.84
799.64	228.85
799.96	228.79
800.28	228.75
800.60	228.69
800.92	228.68
801.24	228.66
801.56	228.60
801.89	228.55
802.21	228.51
802.53	228.46
802.85	228.42
803.17	228.45
803.49	228.37
803.81	228.32
804.13	228.27
804.45	228.24
804.77	228.21
805.09	228.21
805.41	228.12
805.73	228.09
806.05	228.10
806.37	228.04
806.69	228.00
807.01	227.98
807.33	227.95
807.65	227.81
807.97	227.80
808.28	227.80
808.60	227.79
808.92	227.75
809.24	227.81
809.56	227.82
809.88	227.73
810.20	227.72
810.52	227.74
810.84	227.70
811.16	227.65
811.48	227.64
811.80	227.64
812.12	227.66
812.43	227.66
812.75	227.58
813.07	227.55
813.39	227.54
813.71	227.51
814.03	227.51
814.35	227.55
814.67	227.49
814.98	227.45
815.30	227.45
815.62	227.44
815.94	227.34
816.26	227.35
816.58	227.35
816.89	227.36
817.21	227.32
817.53	227.30
817.85	227.28
818.17	227.27
818.48	227.21
818.80	227.20
819.12	227.18
819.44	227.20
819.76	227.17
820.07	227.16
820.39	227.14
820.71	227.13
821.03	227.13
821.34	227.15
821.66	227.11
821.98	227.12
822.30	227.10
822.61	227.20
822.93	227.13
823.25	227.12
823.57	227.09
823.88	227.15
824.20	227.15
824.52	227.19
824.83	227.17
825.15	227.15
825.47	227.14
825.79	227.13
826.10	227.08
826.42	227.10
826.74	227.10
827.05	227.09
827.37	227.12
827.69	227.11
828.00	227.09
828.32	227.13
828.64	227.09
828.95	227.14
829.27	227.07
829.58	227.09
829.90	227.12
830.22	227.14
830.53	227.08
830.85	227.09
831.17	227.02
831.48	227.03
831.80	227.05
832.11	227.05
832.43	227.05
832.75	227.07
833.06	227.11
833.38	227.09
833.69	227.06
834.01	227.07
834.32	227.05
834.64	226.99
834.96	226.95
835.27	226.93
835.59	226.88
835.90	226.87
836.22	226.83
836.53	226.80
836.85	226.76
837.16	226.85
837.48	226.84
837.79	226.88
838.11	226.86
838.42	226.81
838.74	226.78
839.05	226.73
839.37	226.71
839.68	226.66
840.00	226.63
840.31	226.64
840.63	226.61
840.94	226.56
841.26	226.55
841.57	226.57
841.88	226.56
842.20	226.57
842.51	226.52
842.83	226.55
843.14	226.64
843.46	226.63
843.77	226.57
844.08	226.57
844.40	226.52
844.71	226.53
845.03	226.53
845.34	226.52
845.65	226.54
845.97	226.53
846.28	226.52
846.60	226.54
846.91	226.52
847.22	226.49
847.54	226.50
847.85	226.54
848.16	226.52
848.48	226.51
848.79	226.53
849.10	226.56
849.42	226.56
849.73	226.44
850.04	226.44
850.36	226.37
850.67	226.36
850.98	226.37
851.30	226.36
851.61	226.36
851.92	226.38
852.23	226.34
852.55	226.34
852.86	226.33
853.17	226.30
853.49	226.35
853.80	226.35
854.11	226.40
854.42	226.39
854.74	226.40
855.05	226.41
855.36	226.34
855.67	226.32
855.99	226.27
856.30	226.40
856.61	226.37
856.92	226.41
857.23	226.43
857.55	226.38
857.86	226.40
858.17	226.37
858.48	226.32
858.79	226.35
859.11	226.37
859.42	226.38
859.73	226.41
860.04	226.39
860.35	226.35
860.66	226.32
860.98	226.31
861.29	226.31
861.60	226.29
861.91	226.33
862.22	226.31
862.53	226.31
862.84	226.17
863.16	226.23
863.47	226.21
863.78	226.17
864.09	226.18
864.40	226.16
864.71	226.19
865.02	226.23
865.33	226.22
865.64	226.18
865.95	226.17
866.27	226.21
866.58	226.15
866.89	226.18
867.20	226.12
867.51	226.10
867.82	226.08
868.13	226.14
868.44	226.10
868.75	226.13
869.06	226.14
869.37	226.15
869.68	226.11
869.99	226.10
870.30	226.11
870.61	226.14
870.92	226.13
871.23	226.08
871.54	226.07
871.85	226.11
872.16	226.15
872.47	226.16
872.78	226.09
873.09	226.12
873.40	226.11
873.71	226.18
874.02	226.16
874.33	226.16
874.64	226.11
874.95	226.11
875.26	226.09
875.56	226.11
875.87	226.12
876.18	226.12
876.49	226.23
876.80	226.23
877.11	226.19
877.42	226.21
877.73	226.26
878.04	226.23
878.35	226.19
878.66	226.17
878.96	226.12
879.27	226.10
879.58	226.10
879.89	226.09
880.20	226.09
880.51	226.07
880.82	226.07
881.12	226.06
881.43	226.05
881.74	226.03
882.05	226.01
882.36	226.03
882.67	226.04
882.97	225.91
883.28	225.93
883.59	225.92
883.90	225.93
884.21	225.90
884.51	225.91
884.82	225.92
885.13	225.93
885.44	225.95
885.74	225.98
886.05	225.98
886.36	225.96
886.67	225.93
886.98	225.99
887.28	226.02
887.59	226.01
887.90	226.01
888.20	226.00
888.51	226.01
888.82	225.97
889.13	225.94
889.43	226.04
889.74	226.02
890.05	226.02
890.35	225.99
890.66	225.97
890.97	225.95
891.28	225.94
891.58	225.92
891.89	225.88
892.20	225.87
892.50	225.85
892.81	225.87
893.12	225.88
893.42	225.82
893.73	225.78
894.04	225.79
894.34	225.82
894.65	225.84
894.95	225.81
895.26	225.80
895.57	225.86
895.87	225.74
896.18	225.73
896.48	225.73
896.79	225.73
897.10	225.74
897.40	225.74
897.71	225.71
898.01	225.70
898.32	225.75
898.63	225.71
898.93	225.69
899.24	225.68
899.54	225.70
899.85	225.70
900.15	225.68
900.46	225.66
900.76	225.65
901.07	225.60
901.38	225.56
901.68	225.61
901.99	225.58
902.29	225.60
902.60	225.61
902.90	225.63
903.21	225.62
903.51	225.61
903.82	225.65
904.12	225.66
904.43	225.66
904.73	225.63
905.03	225.67
905.34	225.78
905.64	225.78
905.95	225.75
906.25	225.77
906.56	225.79
906.86	225.81
907.17	225.77
907.47	225.78
907.77	225.84
908.08	225.81
908.38	225.78
908.69	225.78
908.99	225.77
909.30	225.76
909.60	225.77
909.90	225.76
910.21	225.70
910.51	225.69
910.81	225.68
911.12	225.68
911.42	225.66
911.73	225.57
912.03	225.54
912.33	225.55
912.64	225.53
912.94	225.49
913.24	225.49
913.55	225.49
913.85	225.50
914.15	225.50
914.46	225.49
914.76	225.49
915.06	225.49
915.37	225.46
915.67	225.46
915.97	225.46
916.27	225.43
916.58	225.47
916.88	225.49
917.18	225.43
917.49	225.54
917.79	225.53
918.09	225.55
918.39	225.59
918.70	225.59
919.00	225.60
919.30	225.66
919.60	225.67
919.91	225.66
920.21	225.67
920.51	225.62
920.81	225.61
921.12	225.63
921.42	225.61
921.72	225.65
922.02	225.68
922.32	225.71
922.63	225.75
922.93	225.79
923.23	225.83
923.53	225.88
923.83	225.77
924.13	225.80
924.44	225.83
924.74	225.85
925.04	225.87
925.34	225.87
925.64	225.86
925.94	225.82
926.24	225.90
926.55	225.90
926.85	225.90
927.15	225.93
927.45	225.92
927.75	225.95
928.05	225.94
928.35	225.91
928.65	225.89
928.95	225.85
929.26	225.84
929.56	225.84
929.86	225.84
930.16	225.84
930.46	225.84
930.76	225.83
931.06	225.75
931.36	225.73
931.66	225.75
931.96	225.74
932.26	225.76
932.56	225.69
932.86	225.68
933.16	225.69
933.46	225.66
933.76	225.66
934.06	225.67
934.36	225.69
934.66	225.74
934.96	225.74
935.26	225.74
935.56	225.74
935.86	225.69
936.16	225.67
936.46	225.66
936.76	225.66
937.06	225.62
937.36	225.67
937.66	225.66
937.96	225.65
938.26	225.61
938.56	225.60
938.86	225.61
939.16	225.62
939.46	225.64
939.76	225.63
940.06	225.63
940.35	225.58
940.65	225.52
940.95	225.48
941.25	225.46
941.55	225.47
941.85	225.43
942.15	225.45
942.45	225.52
942.75	225.51
943.04	225.48
943.34	225.52
943.64	225.50
943.94	225.48
944.24	225.45
944.54	225.46
944.84	225.46
945.13	225.44
945.43	225.42
945.73	225.41
946.03	225.40
946.33	225.36
946.62	225.40
946.92	225.38
947.22	225.39
947.52	225.36
947.82	225.37
948.11	225.37
948.41	225.37
948.71	225.29
949.01	225.30
949.31	225.31
949.60	225.30
949.90	225.31
950.20	225.31
950.50	225.29
950.79	225.27
951.09	225.29
951.39	225.29
951.69	225.29
951.98	225.30
952.28	225.33
952.58	225.30
952.87	225.29
953.17	225.31
953.47	225.28
953.76	225.29
954.06	225.28
954.36	225.30
954.66	225.31
954.95	225.35
955.25	225.32
955.55	225.32
955.84	225.31
956.14	225.30
956.44	225.32
956.73	225.34
957.03	225.37
957.32	225.36
957.62	225.38
957.92	225.39
958.21	225.40
958.51	225.52
958.81	225.56
959.10	225.59
959.40	225.64
959.69	225.64
959.99	225.68
960.29	225.65
960.58	225.65
960.88	225.68
961.17	225.69
961.47	225.78
961.76	225.79
962.06	225.82
962.36	225.84
962.65	225.86
962.95	225.91
963.24	225.90
963.54	225.92
963.83	225.94
964.13	225.93
964.42	225.92
964.72	225.85
965.01	225.88
965.31	225.89
965.60	225.86
965.90	225.95
966.19	225.95
966.49	225.99
966.78	226.01
967.08	226.01
967.37	226.05
967.67	226.00
967.96	226.01
968.26	225.97
968.55	225.96
968.85	225.94
969.14	225.91
969.43	225.91
969.73	225.88
970.02	225.87
970.32	225.90
970.61	225.85
970.91	225.82
971.20	225.77
971.49	225.76
971.79	225.77
972.08	225.68
972.38	225.64
972.67	225.64
972.96	225.64
973.26	225.60
973.55	225.59
973.85	225.57
974.14	225.54
974.43	225.55
974.73	225.54
975.02	225.55
975.31	225.53
975.61	225.54
975.90	225.53
976.19	225.52
976.49	225.53
976.78	225.56
977.07	225.55
977.37	225.58
977.66	225.59
977.95	225.57
978.24	225.59
978.54	225.61
978.83	225.57
979.12	225.52
979.42	225.52
979.71	225.48
980.00	225.48
980.29	225.48
980.59	225.47
980.88	225.49
981.17	225.49
981.46	225.50
981.76	225.50
982.05	225.50
982.34	225.48
982.63	225.44
982.93	225.43
983.22	225.40
983.51	225.39
983.80	225.39
984.09	225.41
984.39	225.35
984.68	225.33
984.97	225.34
985.26	225.35
985.55	225.34
985.85	225.32
986.14	225.32
986.43	225.32
986.72	225.31
987.01	225.26
987.30	225.21
987.59	225.19
987.89	225.18
988.18	225.19
988.47	225.19
988.76	225.18
989.05	225.17
989.34	225.20
989.63	225.23
989.92	225.19
990.22	225.15
990.51	225.20
990.80	225.20
991.09	225.22
991.38	225.21
991.67	225.21
991.96	225.20
992.25	225.21
992.54	225.19
992.83	225.16
993.12	225.18
993.41	225.24
993.70	225.30
993.99	225.31
994.28	225.29
994.58	225.31
994.87	225.32
995.16	225.36
995.45	225.33
995.74	225.27
996.03	225.33
996.32	225.38
996.61	225.41
996.90	225.42
997.19	225.44
997.48	225.46
997.77	225.45
998.06	225.49
998.34	225.48
998.63	225.55
998.92	225.58
999.21	225.58
999.50	225.57
999.79	225.52
1000.08	225.52
1000.37	225.57
1000.66	225.57
1000.95	225.59
1001.24	225.55
1001.53	225.56
1001.82	225.59
1002.11	225.55
1002.40	225.55
1002.68	225.53
1002.97	225.58
1003.26	225.54
1003.55	225.51
1003.84	225.53
1004.13	225.56
1004.42	225.54
1004.71	225.49
1004.99	225.48
1005.28	225.50
1005.57	225.48
1005.86	225.46
1006.15	225.45
1006.44	225.42
1006.72	225.44
1007.01	225.43
1007.30	225.44
1007.59	225.47
1007.88	225.45
1008.17	225.48
1008.45	225.47
1008.74	225.44
1009.03	225.40
1009.32	225.41
1009.60	225.43
1009.89	225.40
1010.18	225.34
1010.47	225.35
1010.76	225.38
1011.04	225.41
1011.33	225.40
1011.62	225.41
1011.91	225.45
1012.19	225.49
1012.48	225.49
1012.77	225.48
1013.05	225.53
1013.34	225.56
1013.63	225.52
1013.92	225.55
1014.20	225.52
1014.49	225.50
1014.78	225.51
1015.06	225.49
1015.35	225.48
1015.64	225.47
1015.92	225.50
1016.21	225.53
1016.50	225.56
1016.78	225.56
1017.07	225.53
1017.36	225.56
1017.64	225.54
1017.93	225.54
1018.22	225.48
1018.50	225.47
1018.79	225.46
1019.08	225.40
1019.36	225.38
1019.65	225.38
1019.93	225.39
1020.22	225.41
1020.51	225.46
1020.79	225.47
1021.08	224.79
1021.36	225.02
1021.65	225.37
1021.94	225.14
1022.22	225.67
1022.51	225.37
1022.79	225.56
1023.08	225.87
1023.36	226.41
1023.65	225.41
>>>>>End Processed Spectral Data<<<<<
