SpectraSuite Data File
++++++++++++++++++++++++++++++++++++
Date: Fri Feb 01 15:00:14 EST 2013
User: group
Dark Spectrum Present: No
Reference Spectrum Present: No
Number of Sampled Component Spectra: 1
Spectrometers: USB2E7196
Integration Time (usec): 35000 (USB2E7196)
Spectra Averaged: 100 (USB2E7196)
Boxcar Smoothing: 10 (USB2E7196)
Correct for Electrical Dark: No (USB2E7196)
Strobe/Lamp Enabled: No (USB2E7196)
Correct for Detector Non-linearity: No (USB2E7196)
Correct for Stray Light: No (USB2E7196)
Number of Pixels in Processed Spectrum: 2048
>>>>>Begin Processed Spectral Data<<<<<
339.09	0.00
339.48	215.21
339.86	217.09
340.24	218.53
340.63	219.75
341.01	222.39
341.39	222.99
341.78	223.72
342.16	224.69
342.54	225.02
342.93	213.82
343.31	224.62
343.69	225.17
344.07	225.63
344.46	226.06
344.84	226.43
345.22	226.65
345.60	226.83
345.99	227.02
346.37	227.17
346.75	227.30
347.13	227.37
347.52	227.41
347.90	227.50
348.28	227.52
348.66	227.53
349.05	227.52
349.43	227.55
349.81	227.57
350.19	227.63
350.57	227.70
350.96	227.77
351.34	227.85
351.72	227.93
352.10	228.00
352.48	228.06
352.87	228.10
353.25	228.17
353.63	228.26
354.01	228.30
354.39	228.38
354.77	228.45
355.15	228.54
355.54	228.58
355.92	228.59
356.30	228.62
356.68	228.77
357.06	228.83
357.44	228.88
357.82	228.96
358.20	229.03
358.58	229.09
358.97	229.12
359.35	229.20
359.73	229.27
360.11	229.33
360.49	229.39
360.87	229.46
361.25	229.53
361.63	229.60
362.01	229.67
362.39	229.68
362.77	229.68
363.15	229.71
363.53	229.76
363.91	229.76
364.29	229.83
364.67	229.76
365.05	229.80
365.43	229.84
365.81	229.84
366.19	229.87
366.57	229.88
366.95	229.87
367.33	229.81
367.71	229.78
368.09	229.81
368.47	229.75
368.85	229.71
369.23	229.71
369.61	229.65
369.99	229.66
370.37	229.64
370.75	229.68
371.13	229.60
371.51	229.52
371.89	229.48
372.27	229.40
372.65	229.32
373.03	229.26
373.41	229.15
373.78	229.07
374.16	228.95
374.54	228.86
374.92	228.83
375.30	228.75
375.68	228.66
376.06	228.58
376.44	228.52
376.82	228.44
377.19	228.34
377.57	228.24
377.95	228.11
378.33	228.03
378.71	227.87
379.09	227.80
379.47	227.75
379.84	227.67
380.22	227.58
380.60	227.51
380.98	227.43
381.36	227.33
381.73	227.25
382.11	227.20
382.49	227.14
382.87	227.02
383.25	226.97
383.62	227.02
384.00	226.92
384.38	226.83
384.76	226.78
385.13	226.73
385.51	226.67
385.89	226.61
386.27	226.57
386.64	226.55
387.02	226.49
387.40	226.42
387.78	226.40
388.15	226.38
388.53	226.32
388.91	226.32
389.29	226.30
389.66	226.29
390.04	226.26
390.42	226.26
390.79	226.28
391.17	226.27
391.55	226.16
391.92	226.15
392.30	226.14
392.68	226.13
393.05	226.12
393.43	226.15
393.81	226.18
394.18	226.17
394.56	226.18
394.94	226.20
395.31	226.22
395.69	226.28
396.06	226.32
396.44	226.40
396.82	226.41
397.19	226.49
397.57	226.54
397.95	226.58
398.32	226.60
398.70	226.67
399.07	226.77
399.45	226.85
399.82	226.94
400.20	227.07
400.58	227.17
400.95	227.26
401.33	227.41
401.70	227.51
402.08	227.66
402.45	227.80
402.83	227.95
403.20	228.09
403.58	228.21
403.95	228.37
404.33	228.51
404.71	228.66
405.08	228.90
405.46	229.05
405.83	229.23
406.21	229.41
406.58	229.60
406.96	229.78
407.33	229.97
407.70	230.19
408.08	230.47
408.45	230.70
408.83	230.93
409.20	231.16
409.58	231.38
409.95	231.66
410.33	231.91
410.70	232.18
411.08	232.51
411.45	232.80
411.82	233.12
412.20	233.48
412.57	233.89
412.95	234.19
413.32	234.63
413.69	235.05
414.07	235.51
414.44	235.97
414.82	236.45
415.19	237.01
415.56	237.54
415.94	238.09
416.31	238.75
416.68	239.37
417.06	240.11
417.43	240.81
417.81	241.55
418.18	242.31
418.55	243.17
418.93	244.03
419.30	244.93
419.67	245.85
420.04	246.82
420.42	247.81
420.79	248.99
421.16	250.11
421.54	251.32
421.91	252.51
422.28	253.78
422.66	255.11
423.03	256.40
423.40	257.71
423.77	259.09
424.15	260.52
424.52	262.01
424.89	263.55
425.26	265.09
425.64	266.54
426.01	268.16
426.38	269.81
426.75	271.45
427.13	273.18
427.50	275.01
427.87	276.87
428.24	278.75
428.61	280.47
428.99	282.47
429.36	284.57
429.73	286.67
430.10	288.66
430.47	290.72
430.85	292.87
431.22	295.14
431.59	297.53
431.96	299.77
432.33	302.29
432.70	304.66
433.08	307.46
433.45	310.09
433.82	312.64
434.19	315.55
434.56	318.38
434.93	321.04
435.30	323.63
435.68	326.51
436.05	329.32
436.42	332.12
436.79	334.60
437.16	337.27
437.53	340.05
437.90	342.85
438.27	345.59
438.64	348.38
439.01	351.00
439.38	353.23
439.75	355.36
440.13	357.81
440.50	360.20
440.87	362.09
441.24	364.01
441.61	366.18
441.98	367.61
442.35	369.41
442.72	371.26
443.09	373.10
443.46	374.10
443.83	374.67
444.20	375.19
444.57	376.01
444.94	376.33
445.31	376.71
445.68	377.05
446.05	377.13
446.42	376.79
446.79	376.34
447.16	375.91
447.53	375.62
447.90	374.51
448.27	373.32
448.64	371.72
449.01	370.60
449.37	368.64
449.74	366.80
450.11	364.53
450.48	362.06
450.85	359.51
451.22	357.35
451.59	355.32
451.96	353.30
452.33	350.72
452.70	348.35
453.07	345.51
453.43	342.63
453.80	339.86
454.17	337.17
454.54	334.66
454.91	331.93
455.28	329.27
455.65	326.75
456.02	324.23
456.38	322.06
456.75	319.44
457.12	317.18
457.49	314.95
457.86	312.80
458.23	310.92
458.59	308.87
458.96	306.76
459.33	304.96
459.70	303.13
460.07	301.64
460.43	299.91
460.80	298.32
461.17	296.87
461.54	295.34
461.91	293.92
462.27	292.44
462.64	291.18
463.01	289.81
463.38	288.50
463.74	287.20
464.11	286.07
464.48	284.99
464.85	283.91
465.21	283.04
465.58	282.10
465.95	281.01
466.32	280.08
466.68	279.20
467.05	278.31
467.42	277.42
467.78	276.46
468.15	275.59
468.52	274.87
468.88	273.98
469.25	273.22
469.62	272.58
469.98	271.85
470.35	271.22
470.72	270.59
471.08	269.96
471.45	269.38
471.82	268.79
472.18	268.15
472.55	267.67
472.92	267.09
473.28	266.64
473.65	266.16
474.02	265.74
474.38	265.36
474.75	265.01
475.11	264.65
475.48	264.36
475.85	264.08
476.21	263.86
476.58	263.68
476.94	263.50
477.31	263.30
477.67	263.18
478.04	263.00
478.41	262.93
478.77	262.94
479.14	262.87
479.50	262.86
479.87	262.95
480.23	263.01
480.60	263.09
480.96	263.14
481.33	263.36
481.69	263.52
482.06	263.74
482.42	263.90
482.79	264.15
483.15	264.47
483.52	264.86
483.88	265.18
484.25	265.54
484.61	265.97
484.98	266.39
485.34	266.91
485.71	267.55
486.07	268.14
486.44	268.68
486.80	269.38
487.17	270.12
487.53	270.92
487.90	271.75
488.26	272.69
488.62	273.69
488.99	274.64
489.35	275.69
489.72	276.73
490.08	277.88
490.44	279.12
490.81	280.39
491.17	281.73
491.54	283.16
491.90	284.72
492.26	286.36
492.63	288.11
492.99	289.91
493.36	291.79
493.72	293.83
494.08	295.93
494.45	298.15
494.81	300.53
495.17	302.95
495.54	305.53
495.90	308.17
496.26	310.96
496.63	313.93
496.99	317.06
497.35	320.37
497.72	323.79
498.08	327.29
498.44	330.98
498.80	334.91
499.17	338.96
499.53	343.10
499.89	347.45
500.26	351.94
500.62	356.60
500.98	361.53
501.34	366.59
501.71	371.97
502.07	377.39
502.43	382.96
502.79	388.81
503.16	394.84
503.52	401.16
503.88	407.60
504.24	414.21
504.60	421.00
504.97	428.12
505.33	435.42
505.69	443.12
506.05	450.90
506.41	458.75
506.78	466.90
507.14	475.31
507.50	484.05
507.86	493.07
508.22	502.23
508.59	511.44
508.95	521.02
509.31	530.74
509.67	540.85
510.03	551.14
510.39	561.69
510.75	572.52
511.12	583.38
511.48	594.55
511.84	605.96
512.20	617.50
512.56	629.37
512.92	641.58
513.28	653.88
513.64	666.36
514.00	678.99
514.37	691.93
514.73	705.02
515.09	718.02
515.45	731.27
515.81	744.85
516.17	758.76
516.53	772.90
516.89	787.14
517.25	801.34
517.61	815.72
517.97	830.12
518.33	844.54
518.69	859.30
519.05	874.40
519.41	889.70
519.77	905.28
520.13	920.78
520.49	936.13
520.85	951.58
521.21	967.28
521.57	983.63
521.93	999.49
522.29	1015.94
522.65	1032.17
523.01	1048.45
523.37	1064.57
523.73	1080.84
524.09	1096.97
524.45	1113.35
524.81	1130.08
525.17	1147.18
525.53	1164.17
525.89	1181.09
526.25	1198.02
526.61	1214.45
526.97	1231.16
527.33	1247.79
527.68	1264.50
528.04	1281.04
528.40	1297.68
528.76	1314.84
529.12	1331.56
529.48	1348.45
529.84	1364.54
530.20	1381.35
530.56	1398.53
530.91	1415.91
531.27	1432.76
531.63	1449.21
531.99	1465.81
532.35	1481.89
532.71	1497.69
533.07	1513.96
533.42	1530.07
533.78	1546.11
534.14	1562.44
534.50	1577.95
534.86	1593.76
535.21	1608.93
535.57	1625.06
535.93	1640.74
536.29	1655.54
536.65	1670.78
537.00	1685.80
537.36	1701.15
537.72	1715.75
538.08	1730.10
538.44	1744.05
538.79	1758.09
539.15	1771.97
539.51	1785.81
539.87	1800.32
540.22	1814.15
540.58	1828.07
540.94	1841.45
541.29	1854.65
541.65	1867.50
542.01	1880.78
542.37	1893.24
542.72	1905.94
543.08	1917.76
543.44	1930.25
543.79	1941.68
544.15	1952.60
544.51	1964.07
544.87	1975.07
545.22	1985.98
545.58	1996.42
545.94	2006.34
546.29	2016.19
546.65	2025.99
547.01	2035.35
547.36	2044.07
547.72	2052.66
548.07	2060.47
548.43	2068.60
548.79	2076.61
549.14	2084.22
549.50	2091.55
549.86	2099.44
550.21	2106.73
550.57	2113.90
550.92	2120.45
551.28	2127.60
551.64	2134.78
551.99	2141.44
552.35	2147.68
552.70	2153.80
553.06	2159.57
553.41	2165.83
553.77	2171.91
554.13	2178.07
554.48	2184.09
554.84	2189.30
555.19	2194.55
555.55	2199.63
555.90	2204.06
556.26	2208.72
556.61	2213.34
556.97	2217.51
557.32	2221.51
557.68	2225.63
558.03	2229.88
558.39	2233.46
558.74	2237.96
559.10	2241.59
559.45	2245.10
559.81	2249.47
560.16	2253.23
560.52	2256.63
560.87	2260.05
561.23	2262.66
561.58	2265.62
561.94	2268.13
562.29	2270.65
562.64	2273.24
563.00	2275.89
563.35	2279.41
563.71	2282.56
564.06	2285.63
564.42	2288.45
564.77	2290.85
565.12	2292.89
565.48	2294.64
565.83	2296.38
566.19	2297.58
566.54	2298.62
566.89	2299.76
567.25	2299.97
567.60	2301.13
567.96	2302.63
568.31	2303.25
568.66	2304.08
569.02	2304.36
569.37	2304.53
569.72	2305.02
570.08	2304.91
570.43	2304.82
570.78	2303.88
571.14	2302.25
571.49	2300.80
571.84	2300.32
572.20	2298.90
572.55	2297.70
572.90	2296.06
573.26	2294.47
573.61	2292.59
573.96	2290.44
574.31	2287.17
574.67	2284.05
575.02	2280.37
575.37	2276.78
575.72	2272.77
576.08	2269.41
576.43	2266.14
576.78	2262.36
577.13	2259.19
577.49	2256.04
577.84	2252.36
578.19	2248.77
578.54	2244.90
578.90	2240.56
579.25	2235.02
579.60	2229.87
579.95	2224.75
580.30	2219.55
580.66	2214.37
581.01	2209.25
581.36	2204.16
581.71	2199.93
582.06	2195.28
582.42	2190.52
582.77	2185.01
583.12	2180.38
583.47	2175.45
583.82	2170.06
584.17	2164.64
584.53	2158.96
584.88	2153.20
585.23	2147.23
585.58	2141.43
585.93	2136.00
586.28	2131.09
586.63	2125.74
586.98	2120.63
587.34	2115.88
587.69	2110.87
588.04	2105.53
588.39	2099.72
588.74	2093.26
589.09	2086.95
589.44	2080.09
589.79	2074.00
590.14	2068.37
590.49	2061.55
590.84	2055.07
591.19	2049.02
591.54	2042.35
591.89	2034.80
592.25	2027.73
592.60	2020.42
592.95	2012.75
593.30	2005.11
593.65	1997.45
594.00	1990.39
594.35	1983.08
594.70	1974.91
595.05	1967.57
595.40	1960.19
595.75	1952.77
596.10	1946.28
596.45	1939.43
596.80	1933.21
597.15	1926.52
597.50	1919.33
597.85	1912.98
598.19	1906.13
598.54	1899.00
598.89	1892.49
599.24	1886.55
599.59	1879.90
599.94	1873.72
600.29	1867.41
600.64	1860.93
600.99	1853.42
601.34	1846.43
601.69	1839.38
602.04	1832.33
602.39	1824.90
602.74	1817.96
603.08	1811.21
603.43	1804.65
603.78	1797.48
604.13	1790.25
604.48	1782.92
604.83	1776.09
605.18	1769.03
605.53	1761.05
605.87	1753.02
606.22	1745.70
606.57	1737.82
606.92	1730.53
607.27	1723.24
607.62	1716.20
607.96	1708.79
608.31	1702.02
608.66	1694.39
609.01	1686.85
609.36	1679.39
609.70	1671.48
610.05	1663.37
610.40	1655.63
610.75	1647.25
611.10	1639.38
611.44	1631.05
611.79	1623.13
612.14	1614.46
612.49	1605.42
612.83	1597.21
613.18	1589.20
613.53	1581.05
613.88	1572.51
614.22	1564.21
614.57	1555.75
614.92	1547.76
615.27	1540.21
615.61	1531.98
615.96	1524.10
616.31	1516.49
616.65	1509.11
617.00	1501.51
617.35	1494.00
617.70	1485.53
618.04	1476.98
618.39	1468.83
618.74	1461.31
619.08	1453.03
619.43	1445.41
619.78	1438.52
620.12	1431.22
620.47	1423.66
620.82	1415.67
621.16	1408.27
621.51	1400.78
621.85	1393.26
622.20	1384.77
622.55	1376.52
622.89	1368.80
623.24	1361.17
623.59	1353.89
623.93	1346.42
624.28	1339.28
624.62	1331.68
624.97	1324.61
625.32	1317.92
625.66	1310.89
626.01	1303.59
626.35	1296.09
626.70	1288.44
627.04	1280.65
627.39	1273.01
627.73	1265.54
628.08	1258.66
628.43	1251.32
628.77	1243.84
629.12	1236.20
629.46	1229.07
629.81	1221.69
630.15	1214.47
630.50	1207.10
630.84	1198.92
631.19	1190.99
631.53	1183.54
631.88	1176.07
632.22	1168.52
632.57	1161.31
632.91	1153.97
633.26	1146.70
633.60	1139.46
633.95	1132.51
634.29	1125.52
634.64	1118.79
634.98	1111.58
635.32	1104.43
635.67	1098.06
636.01	1091.53
636.36	1084.79
636.70	1078.38
637.05	1071.87
637.39	1065.45
637.73	1059.02
638.08	1053.29
638.42	1047.52
638.77	1040.98
639.11	1034.50
639.45	1028.15
639.80	1021.49
640.14	1014.97
640.49	1008.46
640.83	1002.21
641.17	995.92
641.52	989.71
641.86	983.47
642.20	977.65
642.55	971.48
642.89	964.94
643.23	958.48
643.58	952.73
643.92	946.58
644.26	940.47
644.61	934.50
644.95	928.40
645.29	921.77
645.64	914.98
645.98	908.84
646.32	903.00
646.66	897.09
647.01	891.35
647.35	885.70
647.69	879.90
648.04	874.44
648.38	868.65
648.72	862.61
649.06	856.49
649.41	850.68
649.75	844.59
650.09	838.66
650.43	832.91
650.78	826.80
651.12	820.84
651.46	815.23
651.80	809.43
652.14	804.06
652.49	798.76
652.83	793.56
653.17	787.83
653.51	782.12
653.85	776.69
654.20	771.08
654.54	765.09
654.88	759.41
655.22	753.50
655.56	747.85
655.90	742.41
656.25	737.12
656.59	731.76
656.93	726.77
657.27	721.69
657.61	716.29
657.95	711.19
658.29	706.13
658.64	700.91
658.98	695.65
659.32	690.24
659.66	684.96
660.00	679.73
660.34	674.82
660.68	669.92
661.02	664.90
661.36	660.13
661.70	655.69
662.05	651.32
662.39	647.01
662.73	642.65
663.07	638.27
663.41	633.90
663.75	629.41
664.09	624.87
664.43	620.46
664.77	616.34
665.11	612.13
665.45	608.08
665.79	604.05
666.13	599.96
666.47	595.88
666.81	591.75
667.15	587.62
667.49	583.71
667.83	579.96
668.17	576.09
668.51	572.07
668.85	568.07
669.19	564.26
669.53	560.46
669.87	556.57
670.21	552.98
670.55	549.42
670.89	546.00
671.23	542.54
671.57	539.08
671.91	535.55
672.25	532.12
672.58	528.59
672.92	525.15
673.26	522.02
673.60	518.87
673.94	515.79
674.28	512.88
674.62	510.01
674.96	506.88
675.30	503.94
675.64	501.08
675.97	498.33
676.31	495.55
676.65	492.63
676.99	489.93
677.33	487.07
677.67	484.19
678.01	481.19
678.34	478.25
678.68	475.38
679.02	472.66
679.36	469.89
679.70	467.20
680.04	464.51
680.37	461.70
680.71	459.01
681.05	456.44
681.39	453.83
681.73	451.18
682.06	448.74
682.40	446.28
682.74	443.77
683.08	441.30
683.42	438.68
683.75	436.22
684.09	433.77
684.43	431.32
684.77	428.92
685.10	426.66
685.44	424.36
685.78	422.12
686.12	419.88
686.45	417.67
686.79	415.42
687.13	413.28
687.46	411.12
687.80	409.00
688.14	406.84
688.48	404.83
688.81	402.64
689.15	400.47
689.49	398.38
689.82	396.31
690.16	394.24
690.50	392.32
690.83	390.33
691.17	388.33
691.51	386.45
691.84	384.67
692.18	382.75
692.52	380.79
692.85	378.89
693.19	377.00
693.52	375.19
693.86	373.39
694.20	371.62
694.53	369.84
694.87	368.01
695.21	366.25
695.54	364.41
695.88	362.66
696.21	360.95
696.55	359.25
696.88	357.54
697.22	355.89
697.56	354.26
697.89	352.63
698.23	351.05
698.56	349.45
698.90	347.81
699.23	346.14
699.57	344.58
699.90	343.05
700.24	341.52
700.58	339.96
700.91	338.47
701.25	336.97
701.58	335.56
701.92	334.19
702.25	332.80
702.59	331.39
702.92	330.07
703.26	328.74
703.59	327.43
703.93	326.27
704.26	325.04
704.60	323.75
704.93	322.51
705.26	321.23
705.60	320.05
705.93	318.91
706.27	317.89
706.60	316.84
706.94	315.76
707.27	314.60
707.61	313.57
707.94	312.52
708.27	311.42
708.61	310.32
708.94	309.32
709.28	308.32
709.61	307.42
709.94	306.47
710.28	305.49
710.61	304.51
710.95	303.45
711.28	302.51
711.61	301.56
711.95	300.58
712.28	299.64
712.61	298.64
712.95	297.74
713.28	296.87
713.61	295.99
713.95	295.11
714.28	294.32
714.61	293.45
714.95	292.60
715.28	291.77
715.61	290.96
715.95	290.12
716.28	289.30
716.61	288.44
716.95	287.63
717.28	286.89
717.61	286.15
717.94	285.45
718.28	284.65
718.61	283.94
718.94	283.34
719.27	282.72
719.61	282.09
719.94	281.44
720.27	280.74
720.60	280.11
720.94	279.52
721.27	278.93
721.60	278.35
721.93	277.80
722.27	277.30
722.60	276.74
722.93	276.15
723.26	275.65
723.59	275.11
723.93	274.59
724.26	274.06
724.59	273.53
724.92	273.02
725.25	272.53
725.59	272.03
725.92	271.52
726.25	271.04
726.58	270.60
726.91	270.13
727.24	269.65
727.57	269.20
727.91	268.71
728.24	268.18
728.57	267.72
728.90	267.25
729.23	266.77
729.56	266.36
729.89	265.93
730.22	265.45
730.55	264.98
730.89	264.51
731.22	264.01
731.55	263.57
731.88	263.13
732.21	262.71
732.54	262.31
732.87	261.88
733.20	261.44
733.53	261.00
733.86	260.59
734.19	260.17
734.52	259.77
734.85	259.46
735.18	259.08
735.51	258.73
735.84	258.34
736.17	257.97
736.50	257.54
736.83	257.29
737.16	256.92
737.49	256.59
737.82	256.25
738.15	255.96
738.48	255.60
738.81	255.28
739.14	254.90
739.47	254.56
739.80	254.22
740.13	253.91
740.46	253.58
740.79	253.26
741.12	252.94
741.45	252.60
741.78	252.21
742.11	251.92
742.44	251.57
742.77	251.28
743.10	250.92
743.43	250.65
743.75	250.25
744.08	250.11
744.41	249.80
744.74	249.53
745.07	249.28
745.40	249.04
745.73	248.81
746.06	248.59
746.39	248.33
746.71	248.06
747.04	247.77
747.37	247.55
747.70	247.28
748.03	247.03
748.36	246.81
748.68	246.56
749.01	246.33
749.34	246.11
749.67	245.86
750.00	245.67
750.33	245.48
750.65	245.27
750.98	244.94
751.31	244.76
751.64	244.57
751.97	244.38
752.29	244.17
752.62	243.93
752.95	243.71
753.28	243.47
753.60	243.30
753.93	243.14
754.26	242.93
754.59	242.70
754.91	242.52
755.24	242.33
755.57	242.17
755.90	241.98
756.22	241.79
756.55	241.61
756.88	241.42
757.20	241.22
757.53	241.03
757.86	240.86
758.19	240.71
758.51	240.53
758.84	240.32
759.17	240.13
759.49	239.96
759.82	239.85
760.15	239.76
760.47	239.62
760.80	239.47
761.13	239.36
761.45	239.25
761.78	239.12
762.11	238.99
762.43	238.85
762.76	238.72
763.08	238.60
763.41	238.47
763.74	238.35
764.06	238.19
764.39	238.09
764.71	237.96
765.04	237.79
765.37	237.65
765.69	237.53
766.02	237.41
766.34	237.31
766.67	237.15
767.00	237.02
767.32	236.95
767.65	236.89
767.97	236.79
768.30	236.69
768.62	236.55
768.95	236.41
769.27	236.29
769.60	236.19
769.92	236.08
770.25	235.95
770.57	235.83
770.90	235.72
771.22	235.60
771.55	235.50
771.87	235.41
772.20	235.31
772.52	235.31
772.85	235.32
773.17	235.18
773.50	235.10
773.82	235.01
774.15	234.84
774.47	234.67
774.80	234.55
775.12	234.44
775.45	234.35
775.77	234.29
776.09	234.21
776.42	234.11
776.74	234.06
777.07	233.98
777.39	233.93
777.72	233.87
778.04	233.79
778.36	233.72
778.69	233.68
779.01	233.63
779.33	233.47
779.66	233.28
779.98	233.22
780.31	233.14
780.63	233.07
780.95	233.03
781.28	232.98
781.60	232.88
781.92	232.80
782.25	232.71
782.57	232.66
782.89	232.60
783.22	232.56
783.54	232.49
783.86	232.42
784.19	232.35
784.51	232.32
784.83	232.29
785.16	232.20
785.48	232.11
785.80	232.02
786.12	231.99
786.45	231.95
786.77	231.91
787.09	231.88
787.42	231.81
787.74	231.75
788.06	231.71
788.38	231.68
788.71	231.65
789.03	231.60
789.35	231.56
789.67	231.52
789.99	231.48
790.32	231.42
790.64	231.41
790.96	231.41
791.28	231.34
791.61	231.27
791.93	231.23
792.25	231.19
792.57	231.27
792.89	231.22
793.21	231.18
793.54	231.15
793.86	231.08
794.18	231.08
794.50	231.04
794.82	230.99
795.14	230.96
795.47	230.96
795.79	230.96
796.11	230.89
796.43	230.83
796.75	230.79
797.07	230.75
797.39	230.73
797.71	230.67
798.04	230.65
798.36	230.63
798.68	230.61
799.00	230.59
799.32	230.49
799.64	230.50
799.96	230.49
800.28	230.47
800.60	230.44
800.92	230.40
801.24	230.38
801.56	230.41
801.89	230.39
802.21	230.33
802.53	230.31
802.85	230.34
803.17	230.37
803.49	230.32
803.81	230.31
804.13	230.27
804.45	230.24
804.77	230.19
805.09	230.19
805.41	230.16
805.73	230.12
806.05	230.13
806.37	230.09
806.69	230.04
807.01	230.02
807.33	230.05
807.65	229.99
807.97	229.98
808.28	229.91
808.60	229.89
808.92	229.89
809.24	229.90
809.56	229.84
809.88	229.82
810.20	229.80
810.52	229.78
810.84	229.75
811.16	229.71
811.48	229.68
811.80	229.70
812.12	229.63
812.43	229.61
812.75	229.54
813.07	229.49
813.39	229.49
813.71	229.45
814.03	229.40
814.35	229.41
814.67	229.38
814.98	229.36
815.30	229.30
815.62	229.24
815.94	229.14
816.26	229.15
816.58	229.07
816.89	229.05
817.21	229.01
817.53	228.99
817.85	228.96
818.17	228.93
818.48	228.88
818.80	228.91
819.12	228.85
819.44	228.82
819.76	228.77
820.07	228.75
820.39	228.74
820.71	228.70
821.03	228.67
821.34	228.60
821.66	228.56
821.98	228.55
822.30	228.52
822.61	228.57
822.93	228.54
823.25	228.53
823.57	228.54
823.88	228.56
824.20	228.55
824.52	228.56
824.83	228.56
825.15	228.52
825.47	228.49
825.79	228.50
826.10	228.48
826.42	228.48
826.74	228.48
827.05	228.47
827.37	228.50
827.69	228.48
828.00	228.53
828.32	228.52
828.64	228.55
828.95	228.58
829.27	228.56
829.58	228.52
829.90	228.53
830.22	228.52
830.53	228.47
830.85	228.42
831.17	228.38
831.48	228.36
831.80	228.37
832.11	228.34
832.43	228.36
832.75	228.36
833.06	228.43
833.38	228.42
833.69	228.39
834.01	228.36
834.32	228.35
834.64	228.29
834.96	228.30
835.27	228.29
835.59	228.30
835.90	228.27
836.22	228.29
836.53	228.30
836.85	228.28
837.16	228.40
837.48	228.40
837.79	228.42
838.11	228.46
838.42	228.45
838.74	228.50
839.05	228.47
839.37	228.48
839.68	228.41
840.00	228.37
840.31	228.40
840.63	228.42
840.94	228.42
841.26	228.45
841.57	228.47
841.88	228.47
842.20	228.45
842.51	228.41
842.83	228.43
843.14	228.49
843.46	228.48
843.77	228.44
844.08	228.47
844.40	228.45
844.71	228.44
845.03	228.45
845.34	228.43
845.65	228.45
845.97	228.44
846.28	228.43
846.60	228.44
846.91	228.43
847.22	228.41
847.54	228.41
847.85	228.39
848.16	228.39
848.48	228.36
848.79	228.38
849.10	228.40
849.42	228.38
849.73	228.28
850.04	228.28
850.36	228.22
850.67	228.21
850.98	228.20
851.30	228.21
851.61	228.20
851.92	228.22
852.23	228.21
852.55	228.20
852.86	228.18
853.17	228.22
853.49	228.21
853.80	228.22
854.11	228.23
854.42	228.24
854.74	228.20
855.05	228.17
855.36	228.11
855.67	228.12
855.99	228.10
856.30	228.20
856.61	228.20
856.92	228.17
857.23	228.17
857.55	228.11
857.86	228.05
858.17	228.04
858.48	228.01
858.79	228.02
859.11	228.01
859.42	228.01
859.73	227.94
860.04	227.93
860.35	227.89
860.66	227.85
860.98	227.84
861.29	227.82
861.60	227.84
861.91	227.89
862.22	227.87
862.53	227.87
862.84	227.76
863.16	227.77
863.47	227.75
863.78	227.74
864.09	227.75
864.40	227.74
864.71	227.72
865.02	227.67
865.33	227.61
865.64	227.58
865.95	227.58
866.27	227.67
866.58	227.67
866.89	227.64
867.20	227.63
867.51	227.60
867.82	227.62
868.13	227.60
868.44	227.55
868.75	227.55
869.06	227.52
869.37	227.52
869.68	227.46
869.99	227.45
870.30	227.41
870.61	227.44
870.92	227.47
871.23	227.46
871.54	227.51
871.85	227.51
872.16	227.54
872.47	227.55
872.78	227.46
873.09	227.44
873.40	227.42
873.71	227.44
874.02	227.46
874.33	227.45
874.64	227.47
874.95	227.50
875.26	227.47
875.56	227.51
875.87	227.49
876.18	227.54
876.49	227.67
876.80	227.69
877.11	227.69
877.42	227.68
877.73	227.70
878.04	227.65
878.35	227.68
878.66	227.68
878.96	227.67
879.27	227.69
879.58	227.68
879.89	227.69
880.20	227.73
880.51	227.74
880.82	227.75
881.12	227.73
881.43	227.71
881.74	227.70
882.05	227.68
882.36	227.69
882.67	227.69
882.97	227.58
883.28	227.60
883.59	227.62
883.90	227.64
884.21	227.65
884.51	227.68
884.82	227.68
885.13	227.69
885.44	227.71
885.74	227.69
886.05	227.69
886.36	227.73
886.67	227.68
886.98	227.70
887.28	227.72
887.59	227.74
887.90	227.74
888.20	227.78
888.51	227.80
888.82	227.80
889.13	227.80
889.43	227.87
889.74	227.82
890.05	227.82
890.35	227.82
890.66	227.82
890.97	227.80
891.28	227.80
891.58	227.78
891.89	227.75
892.20	227.75
892.50	227.75
892.81	227.73
893.12	227.73
893.42	227.68
893.73	227.66
894.04	227.64
894.34	227.66
894.65	227.60
894.95	227.56
895.26	227.57
895.57	227.61
895.87	227.49
896.18	227.52
896.48	227.50
896.79	227.48
897.10	227.48
897.40	227.48
897.71	227.46
898.01	227.47
898.32	227.45
898.63	227.44
898.93	227.42
899.24	227.43
899.54	227.39
899.85	227.38
900.15	227.37
900.46	227.33
900.76	227.32
901.07	227.34
901.38	227.32
901.68	227.29
901.99	227.23
902.29	227.23
902.60	227.22
902.90	227.20
903.21	227.17
903.51	227.13
903.82	227.16
904.12	227.16
904.43	227.15
904.73	227.19
905.03	227.19
905.34	227.29
905.64	227.29
905.95	227.29
906.25	227.30
906.56	227.27
906.86	227.32
907.17	227.30
907.47	227.28
907.77	227.28
908.08	227.27
908.38	227.26
908.69	227.26
908.99	227.27
909.30	227.31
909.60	227.32
909.90	227.33
910.21	227.31
910.51	227.32
910.81	227.30
911.12	227.28
911.42	227.30
911.73	227.21
912.03	227.20
912.33	227.23
912.64	227.24
912.94	227.25
913.24	227.24
913.55	227.22
913.85	227.23
914.15	227.27
914.46	227.29
914.76	227.29
915.06	227.31
915.37	227.30
915.67	227.26
915.97	227.24
916.27	227.26
916.58	227.24
916.88	227.22
917.18	227.23
917.49	227.30
917.79	227.30
918.09	227.33
918.39	227.35
918.70	227.34
919.00	227.33
919.30	227.38
919.60	227.35
919.91	227.37
920.21	227.40
920.51	227.38
920.81	227.37
921.12	227.37
921.42	227.36
921.72	227.34
922.02	227.35
922.32	227.37
922.63	227.33
922.93	227.37
923.23	227.38
923.53	227.37
923.83	227.31
924.13	227.29
924.44	227.28
924.74	227.27
925.04	227.30
925.34	227.31
925.64	227.26
925.94	227.28
926.24	227.34
926.55	227.33
926.85	227.34
927.15	227.37
927.45	227.38
927.75	227.40
928.05	227.43
928.35	227.44
928.65	227.50
928.95	227.52
929.26	227.49
929.56	227.48
929.86	227.50
930.16	227.49
930.46	227.49
930.76	227.49
931.06	227.44
931.36	227.41
931.66	227.42
931.96	227.47
932.26	227.47
932.56	227.39
932.86	227.39
933.16	227.40
933.46	227.34
933.76	227.31
934.06	227.30
934.36	227.33
934.66	227.31
934.96	227.27
935.26	227.28
935.56	227.31
935.86	227.32
936.16	227.26
936.46	227.25
936.76	227.24
937.06	227.22
937.36	227.21
937.66	227.22
937.96	227.22
938.26	227.16
938.56	227.12
938.86	227.16
939.16	227.20
939.46	227.17
939.76	227.17
940.06	227.16
940.35	227.14
940.65	227.08
940.95	227.09
941.25	227.07
941.55	227.03
941.85	227.02
942.15	227.01
942.45	227.07
942.75	227.06
943.04	227.06
943.34	227.08
943.64	227.09
943.94	227.07
944.24	227.06
944.54	227.09
944.84	227.12
945.13	227.08
945.43	227.05
945.73	227.08
946.03	227.09
946.33	227.12
946.62	227.13
946.92	227.13
947.22	227.12
947.52	227.16
947.82	227.21
948.11	227.20
948.41	227.20
948.71	227.17
949.01	227.22
949.31	227.23
949.60	227.22
949.90	227.28
950.20	227.26
950.50	227.30
950.79	227.28
951.09	227.28
951.39	227.31
951.69	227.27
951.98	227.30
952.28	227.30
952.58	227.28
952.87	227.28
953.17	227.31
953.47	227.31
953.76	227.29
954.06	227.26
954.36	227.25
954.66	227.25
954.95	227.28
955.25	227.27
955.55	227.27
955.84	227.26
956.14	227.22
956.44	227.25
956.73	227.21
957.03	227.23
957.32	227.23
957.62	227.25
957.92	227.30
958.21	227.26
958.51	227.39
958.81	227.41
959.10	227.41
959.40	227.43
959.69	227.44
959.99	227.42
960.29	227.45
960.58	227.47
960.88	227.51
961.17	227.50
961.47	227.48
961.76	227.48
962.06	227.52
962.36	227.51
962.65	227.52
962.95	227.52
963.24	227.53
963.54	227.53
963.83	227.50
964.13	227.48
964.42	227.46
964.72	227.39
965.01	227.39
965.31	227.39
965.60	227.37
965.90	227.41
966.19	227.39
966.49	227.39
966.78	227.34
967.08	227.26
967.37	227.28
967.67	227.26
967.96	227.27
968.26	227.26
968.55	227.30
968.85	227.33
969.14	227.33
969.43	227.30
969.73	227.29
970.02	227.28
970.32	227.27
970.61	227.28
970.91	227.25
971.20	227.22
971.49	227.22
971.79	227.21
972.08	227.14
972.38	227.17
972.67	227.16
972.96	227.17
973.26	227.20
973.55	227.19
973.85	227.22
974.14	227.22
974.43	227.21
974.73	227.17
975.02	227.10
975.31	227.09
975.61	227.07
975.90	227.04
976.19	227.02
976.49	227.02
976.78	227.02
977.07	227.02
977.37	227.04
977.66	227.06
977.95	227.05
978.24	227.05
978.54	227.07
978.83	227.04
979.12	227.06
979.42	227.05
979.71	227.06
980.00	227.05
980.29	227.04
980.59	227.01
980.88	227.04
981.17	227.04
981.46	227.02
981.76	227.02
982.05	227.07
982.34	227.09
982.63	227.08
982.93	227.07
983.22	227.07
983.51	227.06
983.80	227.08
984.09	227.09
984.39	227.09
984.68	227.09
984.97	227.12
985.26	227.14
985.55	227.16
985.85	227.11
986.14	227.14
986.43	227.15
986.72	227.16
987.01	227.14
987.30	227.15
987.59	227.17
987.89	227.19
988.18	227.16
988.47	227.12
988.76	227.13
989.05	227.14
989.34	227.13
989.63	227.13
989.92	227.11
990.22	227.11
990.51	227.10
990.80	227.09
991.09	227.08
991.38	227.10
991.67	227.12
991.96	227.11
992.25	227.07
992.54	227.06
992.83	227.06
993.12	227.09
993.41	227.12
993.70	227.20
993.99	227.21
994.28	227.22
994.58	227.24
994.87	227.24
995.16	227.22
995.45	227.22
995.74	227.21
996.03	227.21
996.32	227.25
996.61	227.28
996.90	227.25
997.19	227.24
997.48	227.24
997.77	227.23
998.06	227.25
998.34	227.26
998.63	227.26
998.92	227.26
999.21	227.24
999.50	227.25
999.79	227.18
1000.08	227.19
1000.37	227.19
1000.66	227.20
1000.95	227.22
1001.24	227.25
1001.53	227.27
1001.82	227.26
1002.11	227.23
1002.40	227.19
1002.68	227.21
1002.97	227.29
1003.26	227.28
1003.55	227.25
1003.84	227.23
1004.13	227.27
1004.42	227.26
1004.71	227.26
1004.99	227.26
1005.28	227.28
1005.57	227.25
1005.86	227.23
1006.15	227.21
1006.44	227.21
1006.72	227.21
1007.01	227.20
1007.30	227.21
1007.59	227.19
1007.88	227.17
1008.17	227.20
1008.45	227.19
1008.74	227.11
1009.03	227.08
1009.32	227.08
1009.60	227.08
1009.89	227.09
1010.18	227.04
1010.47	227.05
1010.76	227.02
1011.04	227.01
1011.33	227.00
1011.62	226.99
1011.91	227.02
1012.19	227.01
1012.48	227.02
1012.77	227.00
1013.05	227.04
1013.34	227.01
1013.63	227.05
1013.92	227.08
1014.20	227.06
1014.49	227.07
1014.78	227.13
1015.06	227.09
1015.35	227.08
1015.64	227.07
1015.92	227.06
1016.21	227.06
1016.50	227.10
1016.78	227.12
1017.07	227.14
1017.36	227.15
1017.64	227.17
1017.93	227.16
1018.22	227.19
1018.50	227.22
1018.79	227.24
1019.08	227.23
1019.36	227.24
1019.65	227.22
1019.93	227.26
1020.22	227.28
1020.51	227.32
1020.79	227.32
1021.08	227.55
1021.36	227.54
1021.65	227.46
1021.94	227.44
1022.22	227.24
1022.51	227.35
1022.79	228.05
1023.08	227.06
1023.36	228.36
1023.65	227.21
>>>>>End Processed Spectral Data<<<<<
