SpectraSuite Data File
++++++++++++++++++++++++++++++++++++
Date: Fri Feb 01 16:20:45 EST 2013
User: group
Dark Spectrum Present: No
Reference Spectrum Present: No
Number of Sampled Component Spectra: 1
Spectrometers: USB2E7196
Integration Time (usec): 35000 (USB2E7196)
Spectra Averaged: 100 (USB2E7196)
Boxcar Smoothing: 10 (USB2E7196)
Correct for Electrical Dark: No (USB2E7196)
Strobe/Lamp Enabled: No (USB2E7196)
Correct for Detector Non-linearity: No (USB2E7196)
Correct for Stray Light: No (USB2E7196)
Number of Pixels in Processed Spectrum: 2048
>>>>>Begin Processed Spectral Data<<<<<
339.09	0.00
339.48	213.96
339.86	215.04
340.24	216.83
340.63	218.06
341.01	221.26
341.39	221.06
341.78	222.04
342.16	223.26
342.54	224.01
342.93	212.21
343.31	222.95
343.69	223.47
344.07	223.93
344.46	224.37
344.84	224.74
345.22	224.96
345.60	225.18
345.99	225.36
346.37	225.49
346.75	225.58
347.13	225.66
347.52	225.72
347.90	225.77
348.28	225.77
348.66	225.78
349.05	225.75
349.43	225.80
349.81	225.85
350.19	225.93
350.57	226.02
350.96	226.08
351.34	226.14
351.72	226.23
352.10	226.32
352.48	226.36
352.87	226.40
353.25	226.47
353.63	226.52
354.01	226.58
354.39	226.66
354.77	226.72
355.15	226.81
355.54	226.90
355.92	226.95
356.30	227.04
356.68	227.19
357.06	227.28
357.44	227.33
357.82	227.41
358.20	227.46
358.58	227.49
358.97	227.55
359.35	227.65
359.73	227.76
360.11	227.80
360.49	227.87
360.87	227.97
361.25	228.01
361.63	228.13
362.01	228.18
362.39	228.21
362.77	228.29
363.15	228.31
363.53	228.36
363.91	228.42
364.29	228.47
364.67	228.39
365.05	228.43
365.43	228.49
365.81	228.53
366.19	228.59
366.57	228.68
366.95	228.68
367.33	228.65
367.71	228.64
368.09	228.71
368.47	228.70
368.85	228.68
369.23	228.69
369.61	228.64
369.99	228.68
370.37	228.69
370.75	228.71
371.13	228.68
371.51	228.61
371.89	228.56
372.27	228.52
372.65	228.53
373.03	228.46
373.41	228.40
373.78	228.34
374.16	228.24
374.54	228.13
374.92	228.08
375.30	228.03
375.68	227.96
376.06	227.90
376.44	227.84
376.82	227.78
377.19	227.72
377.57	227.64
377.95	227.53
378.33	227.47
378.71	227.32
379.09	227.27
379.47	227.21
379.84	227.13
380.22	227.06
380.60	226.98
380.98	226.92
381.36	226.86
381.73	226.80
382.11	226.74
382.49	226.66
382.87	226.58
383.25	226.51
383.62	226.52
384.00	226.43
384.38	226.39
384.76	226.36
385.13	226.35
385.51	226.31
385.89	226.23
386.27	226.13
386.64	226.11
387.02	226.06
387.40	226.02
387.78	225.99
388.15	225.95
388.53	225.91
388.91	225.87
389.29	225.81
389.66	225.79
390.04	225.75
390.42	225.77
390.79	225.75
391.17	225.76
391.55	225.64
391.92	225.65
392.30	225.61
392.68	225.59
393.05	225.55
393.43	225.55
393.81	225.59
394.18	225.59
394.56	225.61
394.94	225.62
395.31	225.64
395.69	225.69
396.06	225.73
396.44	225.74
396.82	225.77
397.19	225.86
397.57	225.87
397.95	225.97
398.32	225.98
398.70	226.04
399.07	226.11
399.45	226.16
399.82	226.22
400.20	226.28
400.58	226.34
400.95	226.41
401.33	226.51
401.70	226.67
402.08	226.78
402.45	226.85
402.83	226.97
403.20	227.08
403.58	227.13
403.95	227.24
404.33	227.39
404.71	227.50
405.08	227.67
405.46	227.79
405.83	227.93
406.21	228.05
406.58	228.25
406.96	228.40
407.33	228.57
407.70	228.75
408.08	229.04
408.45	229.26
408.83	229.48
409.20	229.71
409.58	229.87
409.95	230.13
410.33	230.40
410.70	230.63
411.08	230.92
411.45	231.31
411.82	231.61
412.20	231.98
412.57	232.39
412.95	232.69
413.32	233.11
413.69	233.52
414.07	233.96
414.44	234.39
414.82	234.88
415.19	235.46
415.56	236.00
415.94	236.51
416.31	237.11
416.68	237.72
417.06	238.40
417.43	239.10
417.81	239.85
418.18	240.64
418.55	241.45
418.93	242.34
419.30	243.17
419.67	244.09
420.04	245.05
420.42	246.07
420.79	247.26
421.16	248.40
421.54	249.54
421.91	250.78
422.28	252.05
422.66	253.40
423.03	254.68
423.40	256.03
423.77	257.47
424.15	258.91
424.52	260.39
424.89	262.02
425.26	263.58
425.64	265.02
426.01	266.61
426.38	268.28
426.75	269.92
427.13	271.68
427.50	273.48
427.87	275.34
428.24	277.17
428.61	278.86
428.99	280.81
429.36	282.93
429.73	284.98
430.10	287.00
430.47	289.01
430.85	291.12
431.22	293.35
431.59	295.67
431.96	297.95
432.33	300.44
432.70	302.74
433.08	305.52
433.45	308.16
433.82	310.74
434.19	313.60
434.56	316.42
434.93	319.11
435.30	321.73
435.68	324.60
436.05	327.44
436.42	330.23
436.79	332.71
437.16	335.37
437.53	338.21
437.90	341.01
438.27	343.75
438.64	346.57
439.01	349.15
439.38	351.44
439.75	353.59
440.13	356.06
440.50	358.41
440.87	360.27
441.24	362.24
441.61	364.41
441.98	365.93
442.35	367.70
442.72	369.48
443.09	371.28
443.46	372.28
443.83	372.85
444.20	373.34
444.57	374.26
444.94	374.58
445.31	374.86
445.68	375.18
446.05	375.29
446.42	374.91
446.79	374.45
447.16	373.99
447.53	373.68
447.90	372.54
448.27	371.45
448.64	369.87
449.01	368.68
449.37	366.70
449.74	364.84
450.11	362.62
450.48	360.17
450.85	357.65
451.22	355.51
451.59	353.47
451.96	351.54
452.33	348.87
452.70	346.52
453.07	343.72
453.43	340.82
453.80	338.02
454.17	335.31
454.54	332.78
454.91	330.04
455.28	327.35
455.65	324.87
456.02	322.41
456.38	320.23
456.75	317.59
457.12	315.37
457.49	313.11
457.86	310.92
458.23	309.04
458.59	307.06
458.96	304.98
459.33	303.13
459.70	301.31
460.07	299.83
460.43	298.12
460.80	296.50
461.17	295.09
461.54	293.60
461.91	292.20
462.27	290.78
462.64	289.53
463.01	288.15
463.38	286.84
463.74	285.45
464.11	284.30
464.48	283.29
464.85	282.14
465.21	281.28
465.58	280.34
465.95	279.25
466.32	278.30
466.68	277.40
467.05	276.52
467.42	275.63
467.78	274.70
468.15	273.82
468.52	273.20
468.88	272.36
469.25	271.58
469.62	270.98
469.98	270.30
470.35	269.65
470.72	269.08
471.08	268.49
471.45	267.97
471.82	267.46
472.18	266.86
472.55	266.48
472.92	265.97
473.28	265.52
473.65	265.08
474.02	264.67
474.38	264.33
474.75	264.03
475.11	263.70
475.48	263.46
475.85	263.24
476.21	263.00
476.58	262.81
476.94	262.65
477.31	262.51
477.67	262.38
478.04	262.30
478.41	262.28
478.77	262.31
479.14	262.30
479.50	262.33
479.87	262.40
480.23	262.45
480.60	262.55
480.96	262.65
481.33	262.90
481.69	263.14
482.06	263.32
482.42	263.51
482.79	263.77
483.15	264.10
483.52	264.49
483.88	264.82
484.25	265.24
484.61	265.72
484.98	266.15
485.34	266.70
485.71	267.31
486.07	267.90
486.44	268.45
486.80	269.13
487.17	269.81
487.53	270.63
487.90	271.50
488.26	272.45
488.62	273.46
488.99	274.41
489.35	275.44
489.72	276.58
490.08	277.78
490.44	279.03
490.81	280.36
491.17	281.70
491.54	283.21
491.90	284.75
492.26	286.39
492.63	288.13
492.99	289.94
493.36	291.85
493.72	293.87
494.08	295.99
494.45	298.22
494.81	300.61
495.17	303.07
495.54	305.63
495.90	308.29
496.26	311.10
496.63	314.10
496.99	317.15
497.35	320.40
497.72	323.83
498.08	327.33
498.44	330.99
498.80	334.98
499.17	339.00
499.53	343.14
499.89	347.52
500.26	352.04
500.62	356.73
500.98	361.67
501.34	366.78
501.71	372.11
502.07	377.53
502.43	383.14
502.79	388.95
503.16	395.00
503.52	401.27
503.88	407.69
504.24	414.27
504.60	421.25
504.97	428.38
505.33	435.72
505.69	443.42
506.05	451.23
506.41	459.09
506.78	467.24
507.14	475.74
507.50	484.42
507.86	493.49
508.22	502.67
508.59	511.89
508.95	521.42
509.31	531.20
509.67	541.39
510.03	551.71
510.39	562.20
510.75	572.96
511.12	583.89
511.48	595.18
511.84	606.71
512.20	618.16
512.56	630.06
512.92	642.18
513.28	654.55
513.64	667.04
514.00	679.82
514.37	692.78
514.73	705.84
515.09	718.91
515.45	732.16
515.81	745.65
516.17	759.70
516.53	773.90
516.89	788.13
517.25	802.25
517.61	816.70
517.97	831.23
518.33	845.76
518.69	860.54
519.05	875.51
519.41	890.62
519.77	906.12
520.13	921.51
520.49	936.99
520.85	952.42
521.21	968.03
521.57	984.16
521.93	999.88
522.29	1016.28
522.65	1032.52
523.01	1048.62
523.37	1064.69
523.73	1080.76
524.09	1096.73
524.45	1112.98
524.81	1129.61
525.17	1146.34
525.53	1163.23
525.89	1180.05
526.25	1196.83
526.61	1213.22
526.97	1229.93
527.33	1246.38
527.68	1262.99
528.04	1279.32
528.40	1295.67
528.76	1312.67
529.12	1329.21
529.48	1346.11
529.84	1361.99
530.20	1378.50
530.56	1395.56
530.91	1412.86
531.27	1429.51
531.63	1445.90
531.99	1462.33
532.35	1478.21
532.71	1493.92
533.07	1509.99
533.42	1525.80
533.78	1541.76
534.14	1557.96
534.50	1573.15
534.86	1588.97
535.21	1604.10
535.57	1619.91
535.93	1635.49
536.29	1650.28
536.65	1665.13
537.00	1679.69
537.36	1695.05
537.72	1709.43
538.08	1723.77
538.44	1737.56
538.79	1751.47
539.15	1764.89
539.51	1778.70
539.87	1792.86
540.22	1806.72
540.58	1820.51
540.94	1833.70
541.29	1846.56
541.65	1859.10
542.01	1872.38
542.37	1884.73
542.72	1897.12
543.08	1908.91
543.44	1921.10
543.79	1932.19
544.15	1943.21
544.51	1954.78
544.87	1965.53
545.22	1976.45
545.58	1986.54
545.94	1996.15
546.29	2005.90
546.65	2015.96
547.01	2025.04
547.36	2033.86
547.72	2042.14
548.07	2049.83
548.43	2058.00
548.79	2065.95
549.14	2073.42
549.50	2080.66
549.86	2088.17
550.21	2095.46
550.57	2102.50
550.92	2109.07
551.28	2116.16
551.64	2123.33
551.99	2129.80
552.35	2135.95
552.70	2141.96
553.06	2147.97
553.41	2154.41
553.77	2160.34
554.13	2166.36
554.48	2172.56
554.84	2177.88
555.19	2183.28
555.55	2188.58
555.90	2193.03
556.26	2197.97
556.61	2202.71
556.97	2206.90
557.32	2211.00
557.68	2215.07
558.03	2219.45
558.39	2223.15
558.74	2227.76
559.10	2231.49
559.45	2235.19
559.81	2239.46
560.16	2243.40
560.52	2246.63
560.87	2249.94
561.23	2252.72
561.58	2255.74
561.94	2258.21
562.29	2260.68
562.64	2263.27
563.00	2265.73
563.35	2269.26
563.71	2272.31
564.06	2275.78
564.42	2278.69
564.77	2281.19
565.12	2283.53
565.48	2285.42
565.83	2287.41
566.19	2288.64
566.54	2289.60
566.89	2290.74
567.25	2291.44
567.60	2292.77
567.96	2294.58
568.31	2295.46
568.66	2296.65
569.02	2297.12
569.37	2297.47
569.72	2298.32
570.08	2298.50
570.43	2298.70
570.78	2298.16
571.14	2296.70
571.49	2295.13
571.84	2294.85
572.20	2293.79
572.55	2292.74
572.90	2291.30
573.26	2290.04
573.61	2288.54
573.96	2286.85
574.31	2283.94
574.67	2280.99
575.02	2277.48
575.37	2273.96
575.72	2270.18
576.08	2266.72
576.43	2263.50
576.78	2259.87
577.13	2256.75
577.49	2253.77
577.84	2250.35
578.19	2246.67
578.54	2243.24
578.90	2239.09
579.25	2233.67
579.60	2228.72
579.95	2223.88
580.30	2218.88
580.66	2213.65
581.01	2208.65
581.36	2203.75
581.71	2199.57
582.06	2195.20
582.42	2190.69
582.77	2185.51
583.12	2181.15
583.47	2176.49
583.82	2171.63
584.17	2166.51
584.53	2161.01
584.88	2155.40
585.23	2149.73
585.58	2144.38
585.93	2138.70
586.28	2134.12
586.63	2128.89
586.98	2124.01
587.34	2119.26
587.69	2114.33
588.04	2109.14
588.39	2103.52
588.74	2097.14
589.09	2091.02
589.44	2084.20
589.79	2078.29
590.14	2072.92
590.49	2066.29
590.84	2060.08
591.19	2054.04
591.54	2047.60
591.89	2040.41
592.25	2033.58
592.60	2026.25
592.95	2018.54
593.30	2011.30
593.65	2003.62
594.00	1996.75
594.35	1989.50
594.70	1981.50
595.05	1974.44
595.40	1967.22
595.75	1959.91
596.10	1953.71
596.45	1947.08
596.80	1940.95
597.15	1934.34
597.50	1927.10
597.85	1920.63
598.19	1913.98
598.54	1906.79
598.89	1900.18
599.24	1894.31
599.59	1887.65
599.94	1881.53
600.29	1875.35
600.64	1868.87
600.99	1861.38
601.34	1854.62
601.69	1847.61
602.04	1840.85
602.39	1833.44
602.74	1826.59
603.08	1819.72
603.43	1813.08
603.78	1805.66
604.13	1798.55
604.48	1791.15
604.83	1784.39
605.18	1777.64
605.53	1769.66
605.87	1761.82
606.22	1754.63
606.57	1746.65
606.92	1739.39
607.27	1732.19
607.62	1725.27
607.96	1717.96
608.31	1711.52
608.66	1703.84
609.01	1696.39
609.36	1688.79
609.70	1680.78
610.05	1672.82
610.40	1665.15
610.75	1656.77
611.10	1649.20
611.44	1640.72
611.79	1632.85
612.14	1624.16
612.49	1614.85
612.83	1606.59
613.18	1598.40
613.53	1590.22
613.88	1581.73
614.22	1573.35
614.57	1564.85
614.92	1556.81
615.27	1549.25
615.61	1540.96
615.96	1533.05
616.31	1525.33
616.65	1517.86
617.00	1510.25
617.35	1502.53
617.70	1494.20
618.04	1485.72
618.39	1477.44
618.74	1469.75
619.08	1461.42
619.43	1453.83
619.78	1446.96
620.12	1439.66
620.47	1432.08
620.82	1423.99
621.16	1416.54
621.51	1408.99
621.85	1401.32
622.20	1392.70
622.55	1384.37
622.89	1376.42
623.24	1368.72
623.59	1361.31
623.93	1353.82
624.28	1346.66
624.62	1339.14
624.97	1331.97
625.32	1325.24
625.66	1318.26
626.01	1311.16
626.35	1303.75
626.70	1296.00
627.04	1288.31
627.39	1280.49
627.73	1273.17
628.08	1266.23
628.43	1258.94
628.77	1251.55
629.12	1243.91
629.46	1236.84
629.81	1229.41
630.15	1222.14
630.50	1214.64
630.84	1206.46
631.19	1198.54
631.53	1190.93
631.88	1183.38
632.22	1175.77
632.57	1168.40
632.91	1160.84
633.26	1153.50
633.60	1146.06
633.95	1138.92
634.29	1131.83
634.64	1125.26
634.98	1117.88
635.32	1110.69
635.67	1104.03
636.01	1097.44
636.36	1090.59
636.70	1083.99
637.05	1077.34
637.39	1070.98
637.73	1064.62
638.08	1058.81
638.42	1052.69
638.77	1046.33
639.11	1039.68
639.45	1033.28
639.80	1026.65
640.14	1020.28
640.49	1013.69
640.83	1007.40
641.17	1001.16
641.52	994.75
641.86	988.20
642.20	982.30
642.55	976.00
642.89	969.48
643.23	962.96
643.58	957.27
643.92	951.16
644.26	945.12
644.61	939.03
644.95	932.93
645.29	926.27
645.64	919.58
645.98	913.17
646.32	907.43
646.66	901.48
647.01	895.66
647.35	889.88
647.69	883.98
648.04	878.44
648.38	872.61
648.72	866.64
649.06	860.65
649.41	854.81
649.75	848.78
650.09	842.98
650.43	837.10
650.78	830.92
651.12	824.85
651.46	819.12
651.80	813.36
652.14	807.95
652.49	802.59
652.83	797.46
653.17	791.82
653.51	786.02
653.85	780.52
654.20	774.83
654.54	768.84
654.88	763.12
655.22	757.14
655.56	751.46
655.90	746.01
656.25	740.65
656.59	735.25
656.93	730.25
657.27	725.01
657.61	719.59
657.95	714.50
658.29	709.53
658.64	704.27
658.98	698.93
659.32	693.52
659.66	688.37
660.00	682.99
660.34	678.06
660.68	673.10
661.02	668.03
661.36	663.33
661.70	658.86
662.05	654.51
662.39	650.21
662.73	645.77
663.07	641.44
663.41	637.02
663.75	632.49
664.09	627.84
664.43	623.49
664.77	619.38
665.11	615.10
665.45	610.91
665.79	606.80
666.13	602.67
666.47	598.51
666.81	594.31
667.15	590.19
667.49	586.27
667.83	582.53
668.17	578.63
668.51	574.53
668.85	570.47
669.19	566.61
669.53	562.78
669.87	558.86
670.21	555.11
670.55	551.44
670.89	548.00
671.23	544.61
671.57	541.02
671.91	537.50
672.25	533.94
672.58	530.39
672.92	527.00
673.26	523.84
673.60	520.70
673.94	517.57
674.28	514.71
674.62	511.73
674.96	508.52
675.30	505.61
675.64	502.69
675.97	499.88
676.31	497.01
676.65	494.09
676.99	491.39
677.33	488.49
677.67	485.65
678.01	482.64
678.34	479.62
678.68	476.78
679.02	473.89
679.36	471.15
679.70	468.44
680.04	465.66
680.37	462.76
680.71	459.94
681.05	457.30
681.39	454.57
681.73	451.89
682.06	449.39
682.40	446.81
682.74	444.32
683.08	441.81
683.42	439.21
683.75	436.71
684.09	434.09
684.43	431.66
684.77	429.21
685.10	426.86
685.44	424.58
685.78	422.28
686.12	420.07
686.45	417.82
686.79	415.52
687.13	413.36
687.46	411.21
687.80	409.09
688.14	406.87
688.48	404.80
688.81	402.56
689.15	400.42
689.49	398.26
689.82	396.16
690.16	394.05
690.50	392.13
690.83	390.18
691.17	388.31
691.51	386.40
691.84	384.56
692.18	382.63
692.52	380.65
692.85	378.72
693.19	376.84
693.52	374.99
693.86	373.15
694.20	371.35
694.53	369.56
694.87	367.68
695.21	365.91
695.54	364.07
695.88	362.33
696.21	360.59
696.55	358.92
696.88	357.21
697.22	355.55
697.56	353.88
697.89	352.19
698.23	350.53
698.56	348.92
698.90	347.36
699.23	345.68
699.57	344.13
699.90	342.59
700.24	341.05
700.58	339.49
700.91	337.96
701.25	336.48
701.58	335.12
701.92	333.74
702.25	332.37
702.59	331.02
702.92	329.71
703.26	328.40
703.59	327.12
703.93	325.96
704.26	324.73
704.60	323.41
704.93	322.11
705.26	320.85
705.60	319.67
705.93	318.47
706.27	317.42
706.60	316.32
706.94	315.25
707.27	314.09
707.61	313.04
707.94	312.07
708.27	311.00
708.61	309.90
708.94	308.91
709.28	307.91
709.61	306.92
709.94	305.95
710.28	304.98
710.61	303.99
710.95	302.87
711.28	301.94
711.61	300.99
711.95	300.09
712.28	299.17
712.61	298.19
712.95	297.26
713.28	296.39
713.61	295.48
713.95	294.56
714.28	293.71
714.61	292.87
714.95	292.04
715.28	291.19
715.61	290.34
715.95	289.48
716.28	288.60
716.61	287.75
716.95	286.94
717.28	286.18
717.61	285.41
717.94	284.68
718.28	283.88
718.61	283.15
718.94	282.45
719.27	281.78
719.61	281.13
719.94	280.48
720.27	279.79
720.60	279.15
720.94	278.52
721.27	277.89
721.60	277.29
721.93	276.64
722.27	276.07
722.60	275.52
722.93	274.96
723.26	274.40
723.59	273.87
723.93	273.32
724.26	272.74
724.59	272.20
724.92	271.67
725.25	271.17
725.59	270.66
725.92	270.17
726.25	269.63
726.58	269.13
726.91	268.67
727.24	268.20
727.57	267.74
727.91	267.25
728.24	266.81
728.57	266.31
728.90	265.88
729.23	265.40
729.56	264.98
729.89	264.53
730.22	264.11
730.55	263.64
730.89	263.22
731.22	262.79
731.55	262.39
731.88	261.98
732.21	261.56
732.54	261.15
732.87	260.74
733.20	260.38
733.53	260.01
733.86	259.62
734.19	259.24
734.52	258.86
734.85	258.56
735.18	258.17
735.51	257.86
735.84	257.47
736.17	257.14
736.50	256.72
736.83	256.47
737.16	256.13
737.49	255.81
737.82	255.48
738.15	255.19
738.48	254.87
738.81	254.56
739.14	254.26
739.47	253.93
739.80	253.64
740.13	253.35
740.46	253.01
740.79	252.69
741.12	252.35
741.45	252.06
741.78	251.68
742.11	251.40
742.44	251.04
742.77	250.79
743.10	250.52
743.43	250.23
743.75	249.86
744.08	249.74
744.41	249.47
744.74	249.20
745.07	248.86
745.40	248.60
745.73	248.34
746.06	248.06
746.39	247.81
746.71	247.52
747.04	247.22
747.37	246.96
747.70	246.69
748.03	246.44
748.36	246.21
748.68	245.98
749.01	245.71
749.34	245.52
749.67	245.29
750.00	245.02
750.33	244.82
750.65	244.60
750.98	244.23
751.31	243.97
751.64	243.73
751.97	243.54
752.29	243.28
752.62	243.04
752.95	242.82
753.28	242.56
753.60	242.32
753.93	242.12
754.26	241.92
754.59	241.70
754.91	241.50
755.24	241.26
755.57	241.06
755.90	240.87
756.22	240.59
756.55	240.38
756.88	240.18
757.20	239.96
757.53	239.75
757.86	239.58
758.19	239.46
758.51	239.28
758.84	239.09
759.17	238.95
759.49	238.77
759.82	238.63
760.15	238.49
760.47	238.36
760.80	238.22
761.13	238.09
761.45	237.90
761.78	237.76
762.11	237.65
762.43	237.49
762.76	237.37
763.08	237.30
763.41	237.15
763.74	237.03
764.06	236.90
764.39	236.76
764.71	236.62
765.04	236.48
765.37	236.33
765.69	236.20
766.02	236.06
766.34	235.96
766.67	235.83
767.00	235.74
767.32	235.70
767.65	235.64
767.97	235.52
768.30	235.44
768.62	235.35
768.95	235.21
769.27	235.12
769.60	235.03
769.92	234.87
770.25	234.77
770.57	234.65
770.90	234.59
771.22	234.49
771.55	234.40
771.87	234.29
772.20	234.23
772.52	234.24
772.85	234.29
773.17	234.21
773.50	234.11
773.82	233.99
774.15	233.84
774.47	233.71
774.80	233.60
775.12	233.53
775.45	233.43
775.77	233.36
776.09	233.31
776.42	233.23
776.74	233.21
777.07	233.15
777.39	233.10
777.72	232.99
778.04	232.93
778.36	232.84
778.69	232.83
779.01	232.74
779.33	232.60
779.66	232.42
779.98	232.36
780.31	232.31
780.63	232.31
780.95	232.30
781.28	232.22
781.60	232.19
781.92	232.16
782.25	232.08
782.57	232.03
782.89	231.94
783.22	231.85
783.54	231.77
783.86	231.72
784.19	231.64
784.51	231.61
784.83	231.56
785.16	231.51
785.48	231.41
785.80	231.38
786.12	231.30
786.45	231.25
786.77	231.16
787.09	231.07
787.42	230.98
787.74	230.91
788.06	230.87
788.38	230.84
788.71	230.76
789.03	230.74
789.35	230.68
789.67	230.65
789.99	230.62
790.32	230.53
790.64	230.50
790.96	230.53
791.28	230.48
791.61	230.42
791.93	230.40
792.25	230.36
792.57	230.40
792.89	230.31
793.21	230.28
793.54	230.27
793.86	230.25
794.18	230.20
794.50	230.14
794.82	230.06
795.14	230.02
795.47	229.99
795.79	229.95
796.11	229.90
796.43	229.83
796.75	229.83
797.07	229.87
797.39	229.80
797.71	229.72
798.04	229.67
798.36	229.62
798.68	229.59
799.00	229.54
799.32	229.39
799.64	229.42
799.96	229.39
800.28	229.37
800.60	229.30
800.92	229.32
801.24	229.28
801.56	229.26
801.89	229.20
802.21	229.17
802.53	229.11
802.85	229.10
803.17	229.11
803.49	229.06
803.81	228.96
804.13	228.95
804.45	228.89
804.77	228.87
805.09	228.86
805.41	228.80
805.73	228.80
806.05	228.80
806.37	228.76
806.69	228.74
807.01	228.69
807.33	228.68
807.65	228.60
807.97	228.61
808.28	228.63
808.60	228.63
808.92	228.60
809.24	228.69
809.56	228.65
809.88	228.64
810.20	228.62
810.52	228.63
810.84	228.59
811.16	228.59
811.48	228.59
811.80	228.62
812.12	228.59
812.43	228.58
812.75	228.56
813.07	228.51
813.39	228.48
813.71	228.45
814.03	228.46
814.35	228.42
814.67	228.39
814.98	228.34
815.30	228.31
815.62	228.30
815.94	228.16
816.26	228.22
816.58	228.17
816.89	228.14
817.21	228.13
817.53	228.13
817.85	228.08
818.17	228.05
818.48	228.00
818.80	228.01
819.12	227.97
819.44	227.97
819.76	228.01
820.07	228.00
820.39	228.00
820.71	227.96
821.03	227.95
821.34	227.90
821.66	227.89
821.98	227.89
822.30	227.85
822.61	227.92
822.93	227.82
823.25	227.81
823.57	227.82
823.88	227.79
824.20	227.76
824.52	227.80
824.83	227.79
825.15	227.76
825.47	227.77
825.79	227.77
826.10	227.72
826.42	227.65
826.74	227.66
827.05	227.65
827.37	227.67
827.69	227.65
828.00	227.65
828.32	227.60
828.64	227.57
828.95	227.62
829.27	227.53
829.58	227.54
829.90	227.55
830.22	227.49
830.53	227.47
830.85	227.44
831.17	227.40
831.48	227.37
831.80	227.36
832.11	227.30
832.43	227.27
832.75	227.26
833.06	227.34
833.38	227.27
833.69	227.27
834.01	227.24
834.32	227.26
834.64	227.22
834.96	227.23
835.27	227.21
835.59	227.15
835.90	227.16
836.22	227.12
836.53	227.08
836.85	227.08
837.16	227.16
837.48	227.17
837.79	227.19
838.11	227.16
838.42	227.13
838.74	227.15
839.05	227.15
839.37	227.12
839.68	227.02
840.00	227.04
840.31	227.01
840.63	227.02
840.94	226.97
841.26	226.96
841.57	226.95
841.88	226.96
842.20	226.94
842.51	226.92
842.83	226.88
843.14	226.98
843.46	226.99
843.77	226.92
844.08	226.88
844.40	226.84
844.71	226.84
845.03	226.83
845.34	226.81
845.65	226.80
845.97	226.79
846.28	226.78
846.60	226.76
846.91	226.74
847.22	226.72
847.54	226.76
847.85	226.77
848.16	226.77
848.48	226.77
848.79	226.81
849.10	226.79
849.42	226.82
849.73	226.72
850.04	226.72
850.36	226.71
850.67	226.75
850.98	226.72
851.30	226.73
851.61	226.71
851.92	226.70
852.23	226.72
852.55	226.75
852.86	226.75
853.17	226.76
853.49	226.79
853.80	226.77
854.11	226.75
854.42	226.75
854.74	226.75
855.05	226.71
855.36	226.69
855.67	226.68
855.99	226.67
856.30	226.77
856.61	226.75
856.92	226.72
857.23	226.73
857.55	226.74
857.86	226.74
858.17	226.77
858.48	226.78
858.79	226.74
859.11	226.74
859.42	226.71
859.73	226.69
860.04	226.63
860.35	226.62
860.66	226.59
860.98	226.60
861.29	226.58
861.60	226.58
861.91	226.58
862.22	226.56
862.53	226.52
862.84	226.42
863.16	226.44
863.47	226.42
863.78	226.40
864.09	226.40
864.40	226.37
864.71	226.34
865.02	226.36
865.33	226.36
865.64	226.33
865.95	226.35
866.27	226.41
866.58	226.42
866.89	226.43
867.20	226.43
867.51	226.42
867.82	226.44
868.13	226.47
868.44	226.46
868.75	226.51
869.06	226.53
869.37	226.53
869.68	226.49
869.99	226.51
870.30	226.49
870.61	226.51
870.92	226.53
871.23	226.53
871.54	226.55
871.85	226.55
872.16	226.61
872.47	226.58
872.78	226.53
873.09	226.54
873.40	226.56
873.71	226.55
874.02	226.52
874.33	226.51
874.64	226.46
874.95	226.45
875.26	226.43
875.56	226.44
875.87	226.46
876.18	226.43
876.49	226.52
876.80	226.52
877.11	226.51
877.42	226.51
877.73	226.52
878.04	226.49
878.35	226.51
878.66	226.44
878.96	226.47
879.27	226.47
879.58	226.48
879.89	226.44
880.20	226.46
880.51	226.50
880.82	226.49
881.12	226.51
881.43	226.51
881.74	226.47
882.05	226.44
882.36	226.42
882.67	226.44
882.97	226.33
883.28	226.33
883.59	226.29
883.90	226.27
884.21	226.29
884.51	226.30
884.82	226.28
885.13	226.32
885.44	226.30
885.74	226.30
886.05	226.29
886.36	226.29
886.67	226.27
886.98	226.31
887.28	226.31
887.59	226.33
887.90	226.34
888.20	226.36
888.51	226.39
888.82	226.38
889.13	226.41
889.43	226.48
889.74	226.47
890.05	226.48
890.35	226.47
890.66	226.46
890.97	226.43
891.28	226.39
891.58	226.38
891.89	226.41
892.20	226.37
892.50	226.36
892.81	226.37
893.12	226.35
893.42	226.29
893.73	226.29
894.04	226.26
894.34	226.28
894.65	226.30
894.95	226.31
895.26	226.35
895.57	226.39
895.87	226.29
896.18	226.27
896.48	226.28
896.79	226.31
897.10	226.32
897.40	226.28
897.71	226.31
898.01	226.29
898.32	226.28
898.63	226.28
898.93	226.29
899.24	226.32
899.54	226.34
899.85	226.33
900.15	226.33
900.46	226.33
900.76	226.29
901.07	226.28
901.38	226.28
901.68	226.27
901.99	226.21
902.29	226.24
902.60	226.25
902.90	226.27
903.21	226.29
903.51	226.28
903.82	226.38
904.12	226.41
904.43	226.42
904.73	226.41
905.03	226.44
905.34	226.55
905.64	226.51
905.95	226.51
906.25	226.51
906.56	226.51
906.86	226.50
907.17	226.53
907.47	226.55
907.77	226.53
908.08	226.52
908.38	226.55
908.69	226.54
908.99	226.57
909.30	226.56
909.60	226.50
909.90	226.49
910.21	226.43
910.51	226.39
910.81	226.43
911.12	226.45
911.42	226.44
911.73	226.32
912.03	226.33
912.33	226.33
912.64	226.36
912.94	226.37
913.24	226.35
913.55	226.27
913.85	226.27
914.15	226.28
914.46	226.30
914.76	226.27
915.06	226.26
915.37	226.24
915.67	226.22
915.97	226.27
916.27	226.24
916.58	226.24
916.88	226.22
917.18	226.16
917.49	226.22
917.79	226.23
918.09	226.22
918.39	226.26
918.70	226.28
919.00	226.24
919.30	226.26
919.60	226.28
919.91	226.30
920.21	226.26
920.51	226.26
920.81	226.24
921.12	226.23
921.42	226.20
921.72	226.18
922.02	226.18
922.32	226.13
922.63	226.14
922.93	226.21
923.23	226.23
923.53	226.27
923.83	226.16
924.13	226.16
924.44	226.20
924.74	226.18
925.04	226.16
925.34	226.14
925.64	226.12
925.94	226.13
926.24	226.20
926.55	226.19
926.85	226.17
927.15	226.16
927.45	226.15
927.75	226.17
928.05	226.18
928.35	226.19
928.65	226.19
928.95	226.19
929.26	226.14
929.56	226.13
929.86	226.13
930.16	226.12
930.46	226.12
930.76	226.12
931.06	226.11
931.36	226.10
931.66	226.15
931.96	226.12
932.26	226.12
932.56	226.09
932.86	226.10
933.16	226.08
933.46	226.04
933.76	226.05
934.06	226.05
934.36	226.10
934.66	226.08
934.96	226.08
935.26	226.09
935.56	226.10
935.86	226.07
936.16	226.02
936.46	226.02
936.76	225.98
937.06	225.90
937.36	225.88
937.66	225.87
937.96	225.83
938.26	225.83
938.56	225.80
938.86	225.78
939.16	225.79
939.46	225.84
939.76	225.88
940.06	225.88
940.35	225.87
940.65	225.81
940.95	225.83
941.25	225.85
941.55	225.83
941.85	225.85
942.15	225.90
942.45	225.97
942.75	225.96
943.04	226.00
943.34	226.06
943.64	226.06
943.94	226.06
944.24	226.07
944.54	226.12
944.84	226.16
945.13	226.18
945.43	226.18
945.73	226.17
946.03	226.17
946.33	226.16
946.62	226.18
946.92	226.18
947.22	226.19
947.52	226.19
947.82	226.23
948.11	226.22
948.41	226.19
948.71	226.19
949.01	226.21
949.31	226.23
949.60	226.22
949.90	226.24
950.20	226.23
950.50	226.22
950.79	226.21
951.09	226.20
951.39	226.17
951.69	226.19
951.98	226.19
952.28	226.20
952.58	226.21
952.87	226.18
953.17	226.21
953.47	226.21
953.76	226.19
954.06	226.17
954.36	226.14
954.66	226.15
954.95	226.13
955.25	226.14
955.55	226.12
955.84	226.10
956.14	226.09
956.44	226.10
956.73	226.10
957.03	226.10
957.32	226.10
957.62	226.11
957.92	226.11
958.21	226.11
958.51	226.21
958.81	226.23
959.10	226.26
959.40	226.29
959.69	226.29
959.99	226.32
960.29	226.28
960.58	226.29
960.88	226.33
961.17	226.33
961.47	226.33
961.76	226.31
962.06	226.34
962.36	226.32
962.65	226.32
962.95	226.35
963.24	226.31
963.54	226.30
963.83	226.33
964.13	226.30
964.42	226.29
964.72	226.19
965.01	226.19
965.31	226.19
965.60	226.12
965.90	226.18
966.19	226.16
966.49	226.19
966.78	226.17
967.08	226.17
967.37	226.17
967.67	226.14
967.96	226.15
968.26	226.14
968.55	226.21
968.85	226.18
969.14	226.16
969.43	226.17
969.73	226.19
970.02	226.13
970.32	226.13
970.61	226.11
970.91	226.08
971.20	226.08
971.49	226.03
971.79	226.08
972.08	225.98
972.38	225.98
972.67	225.96
972.96	225.99
973.26	225.93
973.55	225.92
973.85	225.91
974.14	225.93
974.43	225.92
974.73	225.87
975.02	225.88
975.31	225.88
975.61	225.87
975.90	225.83
976.19	225.85
976.49	225.86
976.78	225.89
977.07	225.88
977.37	225.88
977.66	225.91
977.95	225.86
978.24	225.90
978.54	225.91
978.83	225.93
979.12	225.92
979.42	225.93
979.71	225.94
980.00	225.97
980.29	225.97
980.59	225.97
980.88	225.99
981.17	225.99
981.46	226.00
981.76	226.01
982.05	226.08
982.34	226.08
982.63	226.08
982.93	226.06
983.22	226.13
983.51	226.12
983.80	226.14
984.09	226.18
984.39	226.19
984.68	226.15
984.97	226.18
985.26	226.16
985.55	226.19
985.85	226.15
986.14	226.14
986.43	226.14
986.72	226.16
987.01	226.15
987.30	226.15
987.59	226.13
987.89	226.13
988.18	226.08
988.47	226.06
988.76	226.02
989.05	226.00
989.34	225.96
989.63	225.97
989.92	225.95
990.22	225.92
990.51	225.93
990.80	225.93
991.09	225.92
991.38	225.92
991.67	225.90
991.96	225.89
992.25	225.93
992.54	225.93
992.83	225.91
993.12	225.91
993.41	225.92
993.70	225.98
993.99	225.99
994.28	226.01
994.58	226.02
994.87	226.03
995.16	226.05
995.45	226.04
995.74	226.02
996.03	226.00
996.32	226.04
996.61	226.04
996.90	226.03
997.19	226.00
997.48	226.00
997.77	225.98
998.06	225.97
998.34	225.94
998.63	225.93
998.92	225.89
999.21	225.87
999.50	225.88
999.79	225.79
1000.08	225.77
1000.37	225.76
1000.66	225.75
1000.95	225.78
1001.24	225.80
1001.53	225.81
1001.82	225.82
1002.11	225.79
1002.40	225.79
1002.68	225.83
1002.97	225.93
1003.26	225.94
1003.55	225.95
1003.84	225.96
1004.13	226.06
1004.42	226.05
1004.71	226.03
1004.99	226.07
1005.28	226.09
1005.57	226.10
1005.86	226.14
1006.15	226.16
1006.44	226.17
1006.72	226.19
1007.01	226.18
1007.30	226.18
1007.59	226.17
1007.88	226.17
1008.17	226.19
1008.45	226.15
1008.74	226.08
1009.03	226.02
1009.32	225.99
1009.60	225.98
1009.89	225.97
1010.18	225.89
1010.47	225.87
1010.76	225.88
1011.04	225.88
1011.33	225.89
1011.62	225.86
1011.91	225.87
1012.19	225.85
1012.48	225.84
1012.77	225.84
1013.05	225.87
1013.34	225.85
1013.63	225.84
1013.92	225.86
1014.20	225.89
1014.49	225.90
1014.78	225.89
1015.06	225.87
1015.35	225.89
1015.64	225.89
1015.92	225.90
1016.21	225.93
1016.50	225.94
1016.78	225.97
1017.07	225.97
1017.36	225.92
1017.64	225.94
1017.93	225.95
1018.22	225.92
1018.50	225.89
1018.79	225.90
1019.08	225.85
1019.36	225.84
1019.65	225.81
1019.93	225.81
1020.22	225.79
1020.51	225.80
1020.79	225.81
1021.08	225.34
1021.36	225.41
1021.65	226.06
1021.94	225.56
1022.22	225.59
1022.51	225.17
1022.79	225.88
1023.08	225.92
1023.36	226.25
1023.65	225.78
>>>>>End Processed Spectral Data<<<<<
