SpectraSuite Data File
++++++++++++++++++++++++++++++++++++
Date: Fri Feb 01 15:22:52 EST 2013
User: group
Dark Spectrum Present: No
Reference Spectrum Present: No
Number of Sampled Component Spectra: 1
Spectrometers: USB2E7196
Integration Time (usec): 35000 (USB2E7196)
Spectra Averaged: 100 (USB2E7196)
Boxcar Smoothing: 10 (USB2E7196)
Correct for Electrical Dark: No (USB2E7196)
Strobe/Lamp Enabled: No (USB2E7196)
Correct for Detector Non-linearity: No (USB2E7196)
Correct for Stray Light: No (USB2E7196)
Number of Pixels in Processed Spectrum: 2048
>>>>>Begin Processed Spectral Data<<<<<
339.09	0.00
339.48	215.10
339.86	215.97
340.24	217.75
340.63	219.35
341.01	221.87
341.39	222.00
341.78	223.42
342.16	224.29
342.54	224.90
342.93	213.26
343.31	224.05
343.69	224.59
344.07	225.06
344.46	225.48
344.84	225.87
345.22	226.14
345.60	226.39
345.99	226.58
346.37	226.70
346.75	226.79
347.13	226.87
347.52	226.92
347.90	226.99
348.28	227.00
348.66	227.06
349.05	227.08
349.43	227.14
349.81	227.18
350.19	227.26
350.57	227.36
350.96	227.41
351.34	227.49
351.72	227.54
352.10	227.66
352.48	227.76
352.87	227.80
353.25	227.86
353.63	227.95
354.01	228.01
354.39	228.08
354.77	228.16
355.15	228.27
355.54	228.32
355.92	228.35
356.30	228.46
356.68	228.61
357.06	228.67
357.44	228.72
357.82	228.77
358.20	228.80
358.58	228.81
358.97	228.90
359.35	228.95
359.73	229.06
360.11	229.08
360.49	229.13
360.87	229.16
361.25	229.21
361.63	229.28
362.01	229.34
362.39	229.41
362.77	229.44
363.15	229.42
363.53	229.48
363.91	229.51
364.29	229.49
364.67	229.39
365.05	229.44
365.43	229.48
365.81	229.50
366.19	229.56
366.57	229.60
366.95	229.58
367.33	229.57
367.71	229.57
368.09	229.58
368.47	229.55
368.85	229.51
369.23	229.47
369.61	229.39
369.99	229.36
370.37	229.31
370.75	229.35
371.13	229.34
371.51	229.26
371.89	229.19
372.27	229.17
372.65	229.14
373.03	229.03
373.41	228.97
373.78	228.93
374.16	228.82
374.54	228.72
374.92	228.64
375.30	228.56
375.68	228.44
376.06	228.38
376.44	228.30
376.82	228.27
377.19	228.23
377.57	228.17
377.95	228.06
378.33	228.02
378.71	227.89
379.09	227.82
379.47	227.79
379.84	227.74
380.22	227.69
380.60	227.59
380.98	227.52
381.36	227.45
381.73	227.36
382.11	227.28
382.49	227.24
382.87	227.16
383.25	227.11
383.62	227.17
384.00	227.11
384.38	227.06
384.76	226.98
385.13	226.95
385.51	226.87
385.89	226.80
386.27	226.70
386.64	226.66
387.02	226.58
387.40	226.51
387.78	226.47
388.15	226.42
388.53	226.40
388.91	226.40
389.29	226.34
389.66	226.33
390.04	226.30
390.42	226.29
390.79	226.28
391.17	226.25
391.55	226.15
391.92	226.16
392.30	226.17
392.68	226.18
393.05	226.15
393.43	226.18
393.81	226.21
394.18	226.26
394.56	226.28
394.94	226.33
395.31	226.37
395.69	226.43
396.06	226.47
396.44	226.50
396.82	226.49
397.19	226.61
397.57	226.64
397.95	226.72
398.32	226.74
398.70	226.84
399.07	226.95
399.45	227.03
399.82	227.10
400.20	227.16
400.58	227.24
400.95	227.32
401.33	227.44
401.70	227.59
402.08	227.70
402.45	227.80
402.83	227.96
403.20	228.06
403.58	228.18
403.95	228.31
404.33	228.47
404.71	228.61
405.08	228.79
405.46	228.92
405.83	229.07
406.21	229.26
406.58	229.44
406.96	229.61
407.33	229.80
407.70	229.97
408.08	230.25
408.45	230.46
408.83	230.68
409.20	230.89
409.58	231.10
409.95	231.36
410.33	231.64
410.70	231.86
411.08	232.16
411.45	232.45
411.82	232.77
412.20	233.13
412.57	233.57
412.95	233.87
413.32	234.30
413.69	234.69
414.07	235.10
414.44	235.55
414.82	236.05
415.19	236.60
415.56	237.22
415.94	237.73
416.31	238.41
416.68	239.04
417.06	239.75
417.43	240.43
417.81	241.21
418.18	241.98
418.55	242.83
418.93	243.69
419.30	244.61
419.67	245.56
420.04	246.49
420.42	247.46
420.79	248.65
421.16	249.80
421.54	250.98
421.91	252.25
422.28	253.48
422.66	254.79
423.03	256.07
423.40	257.37
423.77	258.78
424.15	260.14
424.52	261.63
424.89	263.21
425.26	264.73
425.64	266.14
426.01	267.75
426.38	269.41
426.75	271.09
427.13	272.78
427.50	274.54
427.87	276.43
428.24	278.31
428.61	280.05
428.99	282.00
429.36	284.12
429.73	286.15
430.10	288.20
430.47	290.26
430.85	292.36
431.22	294.61
431.59	297.00
431.96	299.27
432.33	301.75
432.70	304.15
433.08	306.94
433.45	309.61
433.82	312.19
434.19	315.08
434.56	317.91
434.93	320.60
435.30	323.23
435.68	326.10
436.05	328.92
436.42	331.70
436.79	334.20
437.16	336.94
437.53	339.77
437.90	342.58
438.27	345.36
438.64	348.21
439.01	350.78
439.38	353.05
439.75	355.21
440.13	357.73
440.50	360.08
440.87	362.00
441.24	363.97
441.61	366.12
441.98	367.59
442.35	369.41
442.72	371.28
443.09	373.09
443.46	374.07
443.83	374.67
444.20	375.19
444.57	376.07
444.94	376.36
445.31	376.70
445.68	377.05
446.05	377.09
446.42	376.71
446.79	376.29
447.16	375.83
447.53	375.54
447.90	374.38
448.27	373.24
448.64	371.67
449.01	370.50
449.37	368.55
449.74	366.65
450.11	364.40
450.48	361.91
450.85	359.40
451.22	357.27
451.59	355.28
451.96	353.33
452.33	350.72
452.70	348.35
453.07	345.49
453.43	342.56
453.80	339.75
454.17	337.07
454.54	334.54
454.91	331.83
455.28	329.14
455.65	326.63
456.02	324.19
456.38	322.02
456.75	319.35
457.12	317.09
457.49	314.91
457.86	312.71
458.23	310.84
458.59	308.79
458.96	306.72
459.33	304.84
459.70	302.98
460.07	301.45
460.43	299.70
460.80	298.10
461.17	296.68
461.54	295.23
461.91	293.83
462.27	292.38
462.64	291.10
463.01	289.74
463.38	288.47
463.74	287.08
464.11	285.89
464.48	284.89
464.85	283.77
465.21	282.85
465.58	281.92
465.95	280.82
466.32	279.89
466.68	278.98
467.05	278.05
467.42	277.16
467.78	276.25
468.15	275.38
468.52	274.70
468.88	273.83
469.25	273.03
469.62	272.37
469.98	271.66
470.35	270.98
470.72	270.35
471.08	269.67
471.45	269.12
471.82	268.57
472.18	267.94
472.55	267.51
472.92	267.00
473.28	266.52
473.65	266.06
474.02	265.62
474.38	265.23
474.75	264.90
475.11	264.53
475.48	264.23
475.85	263.96
476.21	263.71
476.58	263.47
476.94	263.33
477.31	263.12
477.67	262.97
478.04	262.89
478.41	262.84
478.77	262.88
479.14	262.78
479.50	262.77
479.87	262.86
480.23	262.91
480.60	262.96
480.96	263.06
481.33	263.28
481.69	263.48
482.06	263.69
482.42	263.85
482.79	264.13
483.15	264.43
483.52	264.82
483.88	265.15
484.25	265.57
484.61	265.97
484.98	266.45
485.34	267.00
485.71	267.59
486.07	268.17
486.44	268.73
486.80	269.42
487.17	270.14
487.53	270.94
487.90	271.76
488.26	272.67
488.62	273.63
488.99	274.57
489.35	275.60
489.72	276.74
490.08	277.98
490.44	279.24
490.81	280.59
491.17	281.94
491.54	283.48
491.90	285.00
492.26	286.66
492.63	288.39
492.99	290.15
493.36	292.04
493.72	294.07
494.08	296.21
494.45	298.47
494.81	300.87
495.17	303.26
495.54	305.85
495.90	308.55
496.26	311.39
496.63	314.39
496.99	317.49
497.35	320.72
497.72	324.12
498.08	327.58
498.44	331.25
498.80	335.20
499.17	339.22
499.53	343.43
499.89	347.79
500.26	352.31
500.62	357.02
500.98	361.98
501.34	367.01
501.71	372.33
502.07	377.79
502.43	383.42
502.79	389.22
503.16	395.31
503.52	401.59
503.88	407.97
504.24	414.59
504.60	421.55
504.97	428.70
505.33	436.07
505.69	443.81
506.05	451.65
506.41	459.53
506.78	467.71
507.14	476.14
507.50	484.89
507.86	493.89
508.22	503.07
508.59	512.28
508.95	521.91
509.31	531.73
509.67	541.84
510.03	552.12
510.39	562.70
510.75	573.58
511.12	584.55
511.48	595.87
511.84	607.29
512.20	618.78
512.56	630.72
512.92	642.85
513.28	655.16
513.64	667.62
514.00	680.32
514.37	693.20
514.73	706.25
515.09	719.33
515.45	732.67
515.81	746.33
516.17	760.35
516.53	774.40
516.89	788.56
517.25	802.73
517.61	817.18
517.97	831.68
518.33	846.07
518.69	860.96
519.05	875.98
519.41	891.19
519.77	906.73
520.13	922.24
520.49	937.66
520.85	953.14
521.21	968.86
521.57	985.13
521.93	1000.95
522.29	1017.46
522.65	1033.73
523.01	1050.07
523.37	1066.12
523.73	1082.36
524.09	1098.54
524.45	1114.90
524.81	1131.50
525.17	1148.39
525.53	1165.29
525.89	1182.19
526.25	1198.96
526.61	1215.39
526.97	1232.13
527.33	1248.71
527.68	1265.33
528.04	1281.93
528.40	1298.58
528.76	1315.74
529.12	1332.37
529.48	1349.37
529.84	1365.46
530.20	1382.15
530.56	1399.17
530.91	1416.72
531.27	1433.53
531.63	1450.13
531.99	1466.81
532.35	1482.99
532.71	1498.82
533.07	1515.15
533.42	1531.14
533.78	1547.15
534.14	1563.51
534.50	1578.96
534.86	1594.86
535.21	1610.11
535.57	1626.03
535.93	1641.58
536.29	1656.38
536.65	1671.61
537.00	1686.51
537.36	1701.73
537.72	1716.28
538.08	1730.65
538.44	1744.37
538.79	1758.31
539.15	1772.05
539.51	1785.93
539.87	1800.32
540.22	1814.15
540.58	1828.02
540.94	1841.45
541.29	1854.42
541.65	1867.22
542.01	1880.59
542.37	1893.00
542.72	1905.45
543.08	1917.24
543.44	1929.72
543.79	1941.09
544.15	1952.04
544.51	1963.55
544.87	1974.69
545.22	1985.57
545.58	1995.86
545.94	2005.81
546.29	2015.71
546.65	2025.50
547.01	2034.62
547.36	2043.50
547.72	2052.01
548.07	2059.92
548.43	2068.26
548.79	2076.53
549.14	2084.03
549.50	2091.45
549.86	2099.29
550.21	2106.68
550.57	2114.07
550.92	2120.65
551.28	2127.67
551.64	2134.81
551.99	2141.42
552.35	2147.51
552.70	2153.70
553.06	2159.68
553.41	2165.97
553.77	2171.97
554.13	2178.18
554.48	2184.34
554.84	2189.58
555.19	2195.08
555.55	2200.21
555.90	2204.45
556.26	2209.04
556.61	2213.63
556.97	2217.67
557.32	2221.78
557.68	2225.96
558.03	2230.09
558.39	2233.77
558.74	2238.28
559.10	2242.08
559.45	2245.68
559.81	2249.98
560.16	2253.68
560.52	2257.07
560.87	2260.41
561.23	2263.07
561.58	2265.94
561.94	2268.56
562.29	2270.96
562.64	2273.48
563.00	2276.13
563.35	2279.66
563.71	2282.94
564.06	2286.33
564.42	2289.18
564.77	2291.49
565.12	2293.61
565.48	2295.47
565.83	2297.28
566.19	2298.65
566.54	2299.72
566.89	2300.80
567.25	2301.38
567.60	2302.88
567.96	2304.35
568.31	2305.15
568.66	2306.11
569.02	2306.68
569.37	2306.80
569.72	2307.53
570.08	2307.51
570.43	2307.24
570.78	2306.55
571.14	2305.03
571.49	2303.62
571.84	2303.35
572.20	2302.14
572.55	2300.98
572.90	2299.42
573.26	2298.10
573.61	2296.33
573.96	2294.25
574.31	2291.23
574.67	2288.08
575.02	2284.26
575.37	2280.83
575.72	2276.91
576.08	2273.71
576.43	2270.37
576.78	2266.76
577.13	2263.69
577.49	2260.63
577.84	2257.24
578.19	2253.45
578.54	2249.67
578.90	2245.29
579.25	2239.59
579.60	2234.54
579.95	2229.72
580.30	2224.75
580.66	2219.40
581.01	2214.34
581.36	2209.39
581.71	2205.20
582.06	2200.66
582.42	2196.08
582.77	2190.84
583.12	2186.19
583.47	2181.21
583.82	2176.10
584.17	2170.72
584.53	2165.03
584.88	2159.32
585.23	2153.46
585.58	2147.86
585.93	2142.26
586.28	2137.52
586.63	2132.42
586.98	2127.36
587.34	2122.48
587.69	2117.33
588.04	2111.93
588.39	2106.34
588.74	2099.97
589.09	2093.69
589.44	2086.97
589.79	2080.92
590.14	2075.28
590.49	2068.75
590.84	2062.38
591.19	2056.28
591.54	2049.79
591.89	2042.24
592.25	2035.33
592.60	2028.17
592.95	2020.64
593.30	2013.29
593.65	2005.67
594.00	1998.60
594.35	1991.34
594.70	1983.23
595.05	1975.99
595.40	1968.64
595.75	1960.99
596.10	1954.54
596.45	1947.64
596.80	1941.33
597.15	1934.66
597.50	1927.40
597.85	1920.95
598.19	1914.21
598.54	1907.04
598.89	1900.45
599.24	1894.65
599.59	1887.90
599.94	1881.50
600.29	1875.11
600.64	1868.57
600.99	1860.86
601.34	1853.86
601.69	1846.72
602.04	1839.69
602.39	1832.32
602.74	1825.50
603.08	1818.71
603.43	1811.96
603.78	1804.75
604.13	1797.49
604.48	1790.00
604.83	1783.14
605.18	1776.00
605.53	1767.87
605.87	1759.80
606.22	1752.34
606.57	1744.37
606.92	1736.94
607.27	1729.86
607.62	1722.86
607.96	1715.41
608.31	1708.78
608.66	1701.15
609.01	1693.51
609.36	1685.94
609.70	1677.83
610.05	1669.77
610.40	1662.03
610.75	1653.65
611.10	1645.89
611.44	1637.54
611.79	1629.82
612.14	1621.21
612.49	1612.05
612.83	1603.78
613.18	1595.60
613.53	1587.63
613.88	1579.00
614.22	1570.84
614.57	1562.11
614.92	1553.99
615.27	1546.34
615.61	1538.03
615.96	1530.09
616.31	1522.51
616.65	1515.16
617.00	1507.57
617.35	1499.95
617.70	1491.57
618.04	1483.03
618.39	1474.78
618.74	1467.03
619.08	1458.55
619.43	1450.82
619.78	1444.00
620.12	1436.86
620.47	1429.32
620.82	1421.09
621.16	1413.72
621.51	1406.13
621.85	1398.54
622.20	1390.13
622.55	1381.89
622.89	1374.11
623.24	1366.43
623.59	1359.12
623.93	1351.51
624.28	1344.33
624.62	1336.68
624.97	1329.45
625.32	1322.78
625.66	1315.88
626.01	1308.76
626.35	1301.32
626.70	1293.66
627.04	1285.76
627.39	1277.91
627.73	1270.50
628.08	1263.60
628.43	1256.26
628.77	1248.75
629.12	1241.17
629.46	1233.97
629.81	1226.60
630.15	1219.30
630.50	1211.98
630.84	1203.77
631.19	1195.97
631.53	1188.48
631.88	1180.99
632.22	1173.45
632.57	1166.19
632.91	1158.51
633.26	1151.17
633.60	1143.78
633.95	1136.67
634.29	1129.79
634.64	1123.18
634.98	1115.90
635.32	1108.75
635.67	1102.17
636.01	1095.62
636.36	1088.89
636.70	1082.44
637.05	1075.89
637.39	1069.51
637.73	1063.00
638.08	1057.07
638.42	1051.10
638.77	1044.70
639.11	1038.04
639.45	1031.68
639.80	1024.89
640.14	1018.50
640.49	1011.89
640.83	1005.70
641.17	999.40
641.52	993.03
641.86	986.66
642.20	980.82
642.55	974.57
642.89	968.14
643.23	961.67
643.58	955.86
643.92	949.60
644.26	943.50
644.61	937.52
644.95	931.40
645.29	924.91
645.64	918.17
645.98	911.89
646.32	906.16
646.66	900.16
647.01	894.46
647.35	888.77
647.69	882.96
648.04	877.35
648.38	871.63
648.72	865.55
649.06	859.39
649.41	853.51
649.75	847.45
650.09	841.46
650.43	835.61
650.78	829.45
651.12	823.53
651.46	817.78
651.80	811.92
652.14	806.55
652.49	801.08
652.83	795.87
653.17	790.10
653.51	784.36
653.85	779.00
654.20	773.32
654.54	767.36
654.88	761.70
655.22	755.94
655.56	750.20
655.90	744.83
656.25	739.57
656.59	734.24
656.93	729.20
657.27	724.05
657.61	718.64
657.95	713.53
658.29	708.47
658.64	703.23
658.98	697.98
659.32	692.56
659.66	687.41
660.00	682.11
660.34	677.23
660.68	672.32
661.02	667.23
661.36	662.54
661.70	658.04
662.05	653.61
662.39	649.18
662.73	644.76
663.07	640.37
663.41	635.97
663.75	631.46
664.09	626.89
664.43	622.55
664.77	618.35
665.11	614.13
665.45	609.98
665.79	605.91
666.13	601.78
666.47	597.66
666.81	593.49
667.15	589.39
667.49	585.46
667.83	581.63
668.17	577.71
668.51	573.59
668.85	569.55
669.19	565.69
669.53	561.83
669.87	557.94
670.21	554.29
670.55	550.66
670.89	547.26
671.23	543.94
671.57	540.41
671.91	536.94
672.25	533.46
672.58	529.95
672.92	526.58
673.26	523.45
673.60	520.34
673.94	517.26
674.28	514.33
674.62	511.34
674.96	508.26
675.30	505.35
675.64	502.46
675.97	499.80
676.31	496.96
676.65	494.09
676.99	491.39
677.33	488.54
677.67	485.66
678.01	482.60
678.34	479.56
678.68	476.67
679.02	473.84
679.36	471.09
679.70	468.37
680.04	465.58
680.37	462.70
680.71	459.89
681.05	457.28
681.39	454.60
681.73	452.03
682.06	449.49
682.40	447.01
682.74	444.53
683.08	441.93
683.42	439.36
683.75	436.83
684.09	434.26
684.43	431.78
684.77	429.33
685.10	427.03
685.44	424.73
685.78	422.46
686.12	420.31
686.45	418.03
686.79	415.72
687.13	413.55
687.46	411.40
687.80	409.31
688.14	407.10
688.48	405.03
688.81	402.73
689.15	400.61
689.49	398.47
689.82	396.38
690.16	394.30
690.50	392.31
690.83	390.36
691.17	388.40
691.51	386.51
691.84	384.74
692.18	382.81
692.52	380.86
692.85	378.95
693.19	376.99
693.52	375.19
693.86	373.43
694.20	371.66
694.53	369.87
694.87	368.02
695.21	366.26
695.54	364.42
695.88	362.73
696.21	361.04
696.55	359.35
696.88	357.68
697.22	356.03
697.56	354.44
697.89	352.79
698.23	351.16
698.56	349.53
698.90	347.92
699.23	346.26
699.57	344.70
699.90	343.19
700.24	341.63
700.58	340.09
700.91	338.58
701.25	337.12
701.58	335.74
701.92	334.38
702.25	333.01
702.59	331.67
702.92	330.32
703.26	328.98
703.59	327.69
703.93	326.50
704.26	325.25
704.60	323.93
704.93	322.66
705.26	321.45
705.60	320.29
705.93	319.11
706.27	318.06
706.60	316.99
706.94	315.90
707.27	314.82
707.61	313.76
707.94	312.71
708.27	311.64
708.61	310.58
708.94	309.53
709.28	308.55
709.61	307.59
709.94	306.69
710.28	305.70
710.61	304.72
710.95	303.67
711.28	302.75
711.61	301.82
711.95	300.96
712.28	299.98
712.61	299.01
712.95	298.06
713.28	297.20
713.61	296.29
713.95	295.40
714.28	294.54
714.61	293.66
714.95	292.84
715.28	291.96
715.61	291.08
715.95	290.25
716.28	289.43
716.61	288.59
716.95	287.78
717.28	287.04
717.61	286.31
717.94	285.56
718.28	284.80
718.61	284.08
718.94	283.35
719.27	282.72
719.61	282.06
719.94	281.44
720.27	280.72
720.60	280.07
720.94	279.44
721.27	278.88
721.60	278.30
721.93	277.69
722.27	277.15
722.60	276.59
722.93	276.02
723.26	275.47
723.59	274.91
723.93	274.36
724.26	273.83
724.59	273.25
724.92	272.72
725.25	272.19
725.59	271.67
725.92	271.22
726.25	270.71
726.58	270.23
726.91	269.72
727.24	269.25
727.57	268.78
727.91	268.27
728.24	267.79
728.57	267.32
728.90	266.89
729.23	266.43
729.56	266.00
729.89	265.52
730.22	265.02
730.55	264.56
730.89	264.11
731.22	263.62
731.55	263.21
731.88	262.80
732.21	262.37
732.54	261.94
732.87	261.51
733.20	261.08
733.53	260.69
733.86	260.34
734.19	259.95
734.52	259.57
734.85	259.25
735.18	258.82
735.51	258.47
735.84	258.11
736.17	257.77
736.50	257.39
736.83	257.17
737.16	256.85
737.49	256.50
737.82	256.14
738.15	255.84
738.48	255.50
738.81	255.16
739.14	254.85
739.47	254.55
739.80	254.22
740.13	253.93
740.46	253.58
740.79	253.23
741.12	252.93
741.45	252.61
741.78	252.26
742.11	251.99
742.44	251.62
742.77	251.31
743.10	251.00
743.43	250.70
743.75	250.30
744.08	250.12
744.41	249.85
744.74	249.57
745.07	249.28
745.40	249.02
745.73	248.80
746.06	248.54
746.39	248.26
746.71	247.99
747.04	247.71
747.37	247.48
747.70	247.23
748.03	246.96
748.36	246.73
748.68	246.50
749.01	246.24
749.34	246.08
749.67	245.86
750.00	245.62
750.33	245.51
750.65	245.31
750.98	244.98
751.31	244.77
751.64	244.53
751.97	244.39
752.29	244.17
752.62	243.90
752.95	243.70
753.28	243.50
753.60	243.29
753.93	243.12
754.26	242.94
754.59	242.73
754.91	242.58
755.24	242.40
755.57	242.20
755.90	242.05
756.22	241.86
756.55	241.64
756.88	241.41
757.20	241.16
757.53	240.95
757.86	240.83
758.19	240.71
758.51	240.60
758.84	240.37
759.17	240.23
759.49	240.11
759.82	239.95
760.15	239.82
760.47	239.72
760.80	239.55
761.13	239.41
761.45	239.25
761.78	239.07
762.11	238.95
762.43	238.84
762.76	238.69
763.08	238.54
763.41	238.44
763.74	238.34
764.06	238.21
764.39	238.07
764.71	237.95
765.04	237.78
765.37	237.62
765.69	237.47
766.02	237.34
766.34	237.21
766.67	237.08
767.00	236.97
767.32	236.87
767.65	236.85
767.97	236.71
768.30	236.62
768.62	236.51
768.95	236.41
769.27	236.28
769.60	236.15
769.92	236.04
770.25	235.90
770.57	235.78
770.90	235.65
771.22	235.56
771.55	235.42
771.87	235.34
772.20	235.27
772.52	235.24
772.85	235.25
773.17	235.13
773.50	235.03
773.82	234.91
774.15	234.77
774.47	234.59
774.80	234.49
775.12	234.37
775.45	234.28
775.77	234.16
776.09	234.07
776.42	234.03
776.74	233.95
777.07	233.86
777.39	233.80
777.72	233.73
778.04	233.66
778.36	233.61
778.69	233.52
779.01	233.44
779.33	233.36
779.66	233.16
779.98	233.10
780.31	233.03
780.63	233.01
780.95	232.96
781.28	232.89
781.60	232.84
781.92	232.78
782.25	232.73
782.57	232.68
782.89	232.63
783.22	232.55
783.54	232.48
783.86	232.47
784.19	232.43
784.51	232.40
784.83	232.33
785.16	232.27
785.48	232.25
785.80	232.18
786.12	232.10
786.45	232.06
786.77	232.04
787.09	231.95
787.42	231.88
787.74	231.84
788.06	231.80
788.38	231.75
788.71	231.72
789.03	231.69
789.35	231.63
789.67	231.57
789.99	231.52
790.32	231.45
790.64	231.42
790.96	231.43
791.28	231.33
791.61	231.29
791.93	231.22
792.25	231.17
792.57	231.23
792.89	231.17
793.21	231.11
793.54	231.09
793.86	231.06
794.18	231.02
794.50	230.95
794.82	230.93
795.14	230.92
795.47	230.87
795.79	230.83
796.11	230.78
796.43	230.74
796.75	230.72
797.07	230.69
797.39	230.65
797.71	230.56
798.04	230.55
798.36	230.51
798.68	230.50
799.00	230.45
799.32	230.35
799.64	230.34
799.96	230.33
800.28	230.25
800.60	230.21
800.92	230.16
801.24	230.13
801.56	230.08
801.89	230.01
802.21	230.02
802.53	229.95
802.85	229.96
803.17	230.00
803.49	229.92
803.81	229.90
804.13	229.84
804.45	229.80
804.77	229.77
805.09	229.77
805.41	229.72
805.73	229.68
806.05	229.64
806.37	229.62
806.69	229.57
807.01	229.56
807.33	229.55
807.65	229.48
807.97	229.53
808.28	229.51
808.60	229.50
808.92	229.47
809.24	229.53
809.56	229.50
809.88	229.42
810.20	229.43
810.52	229.41
810.84	229.38
811.16	229.34
811.48	229.30
811.80	229.31
812.12	229.30
812.43	229.27
812.75	229.25
813.07	229.20
813.39	229.20
813.71	229.16
814.03	229.15
814.35	229.17
814.67	229.09
814.98	229.03
815.30	229.02
815.62	228.96
815.94	228.90
816.26	228.92
816.58	228.91
816.89	228.88
817.21	228.87
817.53	228.86
817.85	228.88
818.17	228.88
818.48	228.80
818.80	228.82
819.12	228.82
819.44	228.78
819.76	228.77
820.07	228.75
820.39	228.74
820.71	228.72
821.03	228.65
821.34	228.66
821.66	228.69
821.98	228.66
822.30	228.61
822.61	228.65
822.93	228.57
823.25	228.54
823.57	228.50
823.88	228.52
824.20	228.50
824.52	228.46
824.83	228.42
825.15	228.40
825.47	228.36
825.79	228.35
826.10	228.35
826.42	228.32
826.74	228.35
827.05	228.33
827.37	228.31
827.69	228.34
828.00	228.31
828.32	228.32
828.64	228.28
828.95	228.38
829.27	228.33
829.58	228.31
829.90	228.33
830.22	228.37
830.53	228.30
830.85	228.31
831.17	228.26
831.48	228.27
831.80	228.27
832.11	228.25
832.43	228.24
832.75	228.21
833.06	228.29
833.38	228.24
833.69	228.24
834.01	228.26
834.32	228.25
834.64	228.25
834.96	228.22
835.27	228.24
835.59	228.15
835.90	228.16
836.22	228.17
836.53	228.13
836.85	228.12
837.16	228.22
837.48	228.17
837.79	228.25
838.11	228.25
838.42	228.27
838.74	228.28
839.05	228.28
839.37	228.29
839.68	228.22
840.00	228.21
840.31	228.23
840.63	228.22
840.94	228.20
841.26	228.14
841.57	228.14
841.88	228.15
842.20	228.17
842.51	228.12
842.83	228.12
843.14	228.22
843.46	228.19
843.77	228.13
844.08	228.18
844.40	228.14
844.71	228.13
845.03	228.10
845.34	228.11
845.65	228.09
845.97	228.09
846.28	228.07
846.60	228.09
846.91	228.04
847.22	228.00
847.54	228.04
847.85	228.05
848.16	228.06
848.48	228.03
848.79	228.03
849.10	228.04
849.42	228.03
849.73	227.91
850.04	227.89
850.36	227.83
850.67	227.80
850.98	227.80
851.30	227.76
851.61	227.72
851.92	227.71
852.23	227.73
852.55	227.72
852.86	227.71
853.17	227.69
853.49	227.71
853.80	227.72
854.11	227.71
854.42	227.71
854.74	227.67
855.05	227.69
855.36	227.66
855.67	227.62
855.99	227.58
856.30	227.69
856.61	227.69
856.92	227.68
857.23	227.66
857.55	227.64
857.86	227.64
858.17	227.65
858.48	227.61
858.79	227.58
859.11	227.59
859.42	227.56
859.73	227.55
860.04	227.56
860.35	227.54
860.66	227.48
860.98	227.51
861.29	227.51
861.60	227.48
861.91	227.48
862.22	227.47
862.53	227.46
862.84	227.34
863.16	227.36
863.47	227.39
863.78	227.38
864.09	227.42
864.40	227.45
864.71	227.44
865.02	227.48
865.33	227.45
865.64	227.42
865.95	227.45
866.27	227.52
866.58	227.49
866.89	227.51
867.20	227.51
867.51	227.51
867.82	227.51
868.13	227.57
868.44	227.56
868.75	227.60
869.06	227.62
869.37	227.66
869.68	227.64
869.99	227.62
870.30	227.64
870.61	227.63
870.92	227.62
871.23	227.64
871.54	227.65
871.85	227.69
872.16	227.72
872.47	227.69
872.78	227.63
873.09	227.64
873.40	227.63
873.71	227.63
874.02	227.62
874.33	227.65
874.64	227.61
874.95	227.62
875.26	227.63
875.56	227.62
875.87	227.62
876.18	227.62
876.49	227.72
876.80	227.72
877.11	227.69
877.42	227.69
877.73	227.67
878.04	227.65
878.35	227.64
878.66	227.65
878.96	227.65
879.27	227.62
879.58	227.61
879.89	227.61
880.20	227.65
880.51	227.64
880.82	227.64
881.12	227.64
881.43	227.61
881.74	227.58
882.05	227.59
882.36	227.58
882.67	227.60
882.97	227.52
883.28	227.51
883.59	227.50
883.90	227.50
884.21	227.55
884.51	227.55
884.82	227.51
885.13	227.48
885.44	227.49
885.74	227.52
886.05	227.51
886.36	227.50
886.67	227.45
886.98	227.49
887.28	227.49
887.59	227.47
887.90	227.45
888.20	227.43
888.51	227.43
888.82	227.42
889.13	227.40
889.43	227.47
889.74	227.44
890.05	227.46
890.35	227.46
890.66	227.40
890.97	227.38
891.28	227.39
891.58	227.39
891.89	227.37
892.20	227.35
892.50	227.33
892.81	227.30
893.12	227.28
893.42	227.23
893.73	227.21
894.04	227.19
894.34	227.21
894.65	227.19
894.95	227.16
895.26	227.16
895.57	227.21
895.87	227.09
896.18	227.09
896.48	227.04
896.79	227.04
897.10	227.04
897.40	227.06
897.71	227.06
898.01	227.04
898.32	227.05
898.63	227.03
898.93	227.03
899.24	227.04
899.54	227.02
899.85	227.04
900.15	227.00
900.46	227.05
900.76	227.02
901.07	227.02
901.38	227.02
901.68	227.02
901.99	226.95
902.29	226.95
902.60	226.94
902.90	226.97
903.21	226.95
903.51	226.94
903.82	226.95
904.12	226.96
904.43	226.97
904.73	226.99
905.03	227.01
905.34	227.12
905.64	227.15
905.95	227.19
906.25	227.16
906.56	227.19
906.86	227.16
907.17	227.17
907.47	227.22
907.77	227.23
908.08	227.24
908.38	227.27
908.69	227.29
908.99	227.33
909.30	227.35
909.60	227.36
909.90	227.41
910.21	227.41
910.51	227.41
910.81	227.42
911.12	227.42
911.42	227.42
911.73	227.33
912.03	227.33
912.33	227.36
912.64	227.39
912.94	227.39
913.24	227.42
913.55	227.44
913.85	227.44
914.15	227.46
914.46	227.44
914.76	227.44
915.06	227.44
915.37	227.45
915.67	227.45
915.97	227.47
916.27	227.47
916.58	227.46
916.88	227.47
917.18	227.46
917.49	227.54
917.79	227.57
918.09	227.56
918.39	227.57
918.70	227.58
919.00	227.59
919.30	227.64
919.60	227.61
919.91	227.64
920.21	227.64
920.51	227.62
920.81	227.63
921.12	227.65
921.42	227.64
921.72	227.60
922.02	227.58
922.32	227.58
922.63	227.52
922.93	227.53
923.23	227.54
923.53	227.53
923.83	227.45
924.13	227.42
924.44	227.42
924.74	227.41
925.04	227.42
925.34	227.39
925.64	227.34
925.94	227.31
926.24	227.30
926.55	227.28
926.85	227.32
927.15	227.33
927.45	227.30
927.75	227.30
928.05	227.33
928.35	227.30
928.65	227.31
928.95	227.34
929.26	227.31
929.56	227.30
929.86	227.32
930.16	227.24
930.46	227.21
930.76	227.21
931.06	227.15
931.36	227.10
931.66	227.09
931.96	227.10
932.26	227.09
932.56	227.05
932.86	227.03
933.16	227.00
933.46	226.97
933.76	226.95
934.06	226.93
934.36	226.95
934.66	226.97
934.96	226.96
935.26	226.96
935.56	226.98
935.86	226.97
936.16	226.95
936.46	226.97
936.76	226.98
937.06	226.97
937.36	226.98
937.66	226.96
937.96	226.96
938.26	226.94
938.56	226.95
938.86	226.95
939.16	226.99
939.46	226.98
939.76	226.97
940.06	226.98
940.35	226.97
940.65	226.90
940.95	226.88
941.25	226.84
941.55	226.81
941.85	226.79
942.15	226.79
942.45	226.82
942.75	226.80
943.04	226.83
943.34	226.85
943.64	226.85
943.94	226.85
944.24	226.84
944.54	226.84
944.84	226.81
945.13	226.80
945.43	226.76
945.73	226.75
946.03	226.77
946.33	226.74
946.62	226.74
946.92	226.79
947.22	226.82
947.52	226.85
947.82	226.86
948.11	226.89
948.41	226.88
948.71	226.84
949.01	226.86
949.31	226.87
949.60	226.89
949.90	226.92
950.20	226.94
950.50	226.94
950.79	226.98
951.09	227.06
951.39	227.10
951.69	227.10
951.98	227.17
952.28	227.19
952.58	227.22
952.87	227.25
953.17	227.27
953.47	227.29
953.76	227.30
954.06	227.30
954.36	227.29
954.66	227.32
954.95	227.39
955.25	227.43
955.55	227.44
955.84	227.43
956.14	227.43
956.44	227.46
956.73	227.45
957.03	227.45
957.32	227.45
957.62	227.44
957.92	227.48
958.21	227.46
958.51	227.55
958.81	227.58
959.10	227.57
959.40	227.57
959.69	227.53
959.99	227.50
960.29	227.50
960.58	227.50
960.88	227.51
961.17	227.44
961.47	227.42
961.76	227.39
962.06	227.38
962.36	227.37
962.65	227.38
962.95	227.39
963.24	227.36
963.54	227.31
963.83	227.29
964.13	227.28
964.42	227.25
964.72	227.17
965.01	227.13
965.31	227.12
965.60	227.10
965.90	227.17
966.19	227.17
966.49	227.19
966.78	227.16
967.08	227.12
967.37	227.14
967.67	227.11
967.96	227.11
968.26	227.09
968.55	227.07
968.85	227.03
969.14	226.98
969.43	226.97
969.73	226.99
970.02	227.00
970.32	226.97
970.61	226.96
970.91	226.89
971.20	226.89
971.49	226.91
971.79	226.89
972.08	226.79
972.38	226.75
972.67	226.71
972.96	226.70
973.26	226.69
973.55	226.71
973.85	226.70
974.14	226.72
974.43	226.73
974.73	226.72
975.02	226.69
975.31	226.73
975.61	226.74
975.90	226.72
976.19	226.68
976.49	226.69
976.78	226.66
977.07	226.68
977.37	226.67
977.66	226.63
977.95	226.64
978.24	226.64
978.54	226.69
978.83	226.71
979.12	226.72
979.42	226.71
979.71	226.69
980.00	226.68
980.29	226.66
980.59	226.64
980.88	226.66
981.17	226.66
981.46	226.62
981.76	226.62
982.05	226.65
982.34	226.67
982.63	226.68
982.93	226.69
983.22	226.73
983.51	226.72
983.80	226.75
984.09	226.76
984.39	226.77
984.68	226.77
984.97	226.78
985.26	226.80
985.55	226.82
985.85	226.83
986.14	226.88
986.43	226.91
986.72	226.91
987.01	226.90
987.30	226.92
987.59	226.96
987.89	226.94
988.18	226.92
988.47	226.94
988.76	226.90
989.05	226.94
989.34	226.91
989.63	226.98
989.92	227.00
990.22	226.98
990.51	227.00
990.80	226.99
991.09	226.98
991.38	227.02
991.67	227.00
991.96	226.99
992.25	227.00
992.54	226.98
992.83	227.00
993.12	226.99
993.41	227.02
993.70	227.04
993.99	227.08
994.28	227.06
994.58	227.07
994.87	227.05
995.16	227.05
995.45	227.06
995.74	227.02
996.03	227.02
996.32	227.04
996.61	227.04
996.90	227.05
997.19	227.01
997.48	226.96
997.77	226.95
998.06	226.96
998.34	226.95
998.63	226.95
998.92	226.95
999.21	226.98
999.50	226.97
999.79	226.93
1000.08	226.92
1000.37	226.94
1000.66	226.93
1000.95	226.96
1001.24	226.94
1001.53	226.94
1001.82	226.94
1002.11	226.92
1002.40	226.90
1002.68	226.94
1002.97	227.01
1003.26	227.02
1003.55	227.01
1003.84	227.01
1004.13	227.02
1004.42	226.98
1004.71	226.94
1004.99	226.87
1005.28	226.88
1005.57	226.89
1005.86	226.90
1006.15	226.91
1006.44	226.86
1006.72	226.86
1007.01	226.85
1007.30	226.82
1007.59	226.80
1007.88	226.79
1008.17	226.78
1008.45	226.78
1008.74	226.72
1009.03	226.68
1009.32	226.68
1009.60	226.69
1009.89	226.66
1010.18	226.59
1010.47	226.61
1010.76	226.62
1011.04	226.67
1011.33	226.65
1011.62	226.66
1011.91	226.68
1012.19	226.66
1012.48	226.69
1012.77	226.68
1013.05	226.74
1013.34	226.75
1013.63	226.75
1013.92	226.75
1014.20	226.75
1014.49	226.74
1014.78	226.72
1015.06	226.65
1015.35	226.68
1015.64	226.69
1015.92	226.73
1016.21	226.77
1016.50	226.77
1016.78	226.79
1017.07	226.78
1017.36	226.77
1017.64	226.74
1017.93	226.72
1018.22	226.72
1018.50	226.71
1018.79	226.71
1019.08	226.66
1019.36	226.65
1019.65	226.65
1019.93	226.71
1020.22	226.74
1020.51	226.77
1020.79	226.80
1021.08	226.64
1021.36	226.59
1021.65	226.75
1021.94	226.72
1022.22	226.22
1022.51	226.66
1022.79	227.86
1023.08	227.16
1023.36	227.73
1023.65	226.56
>>>>>End Processed Spectral Data<<<<<
