SpectraSuite Data File
++++++++++++++++++++++++++++++++++++
Date: Fri Feb 01 16:12:53 EST 2013
User: group
Dark Spectrum Present: No
Reference Spectrum Present: No
Number of Sampled Component Spectra: 1
Spectrometers: USB2E7196
Integration Time (usec): 35000 (USB2E7196)
Spectra Averaged: 100 (USB2E7196)
Boxcar Smoothing: 10 (USB2E7196)
Correct for Electrical Dark: No (USB2E7196)
Strobe/Lamp Enabled: No (USB2E7196)
Correct for Detector Non-linearity: No (USB2E7196)
Correct for Stray Light: No (USB2E7196)
Number of Pixels in Processed Spectrum: 2048
>>>>>Begin Processed Spectral Data<<<<<
339.09	0.00
339.48	214.51
339.86	216.15
340.24	216.50
340.63	218.17
341.01	221.27
341.39	221.00
341.78	222.60
342.16	224.20
342.54	224.61
342.93	212.63
343.31	223.39
343.69	223.91
344.07	224.34
344.46	224.79
344.84	225.15
345.22	225.41
345.60	225.66
345.99	225.82
346.37	225.93
346.75	226.03
347.13	226.15
347.52	226.20
347.90	226.25
348.28	226.29
348.66	226.36
349.05	226.41
349.43	226.46
349.81	226.46
350.19	226.51
350.57	226.58
350.96	226.66
351.34	226.73
351.72	226.85
352.10	226.95
352.48	227.03
352.87	227.12
353.25	227.16
353.63	227.25
354.01	227.33
354.39	227.43
354.77	227.49
355.15	227.55
355.54	227.62
355.92	227.68
356.30	227.75
356.68	227.87
357.06	227.96
357.44	228.01
357.82	228.09
358.20	228.20
358.58	228.25
358.97	228.35
359.35	228.44
359.73	228.50
360.11	228.52
360.49	228.58
360.87	228.63
361.25	228.71
361.63	228.79
362.01	228.85
362.39	228.87
362.77	228.89
363.15	228.94
363.53	228.98
363.91	229.00
364.29	229.01
364.67	228.94
365.05	228.95
365.43	229.02
365.81	229.02
366.19	229.02
366.57	229.04
366.95	229.03
367.33	228.99
367.71	228.97
368.09	229.01
368.47	229.01
368.85	228.99
369.23	228.96
369.61	228.91
369.99	228.89
370.37	228.84
370.75	228.85
371.13	228.78
371.51	228.73
371.89	228.68
372.27	228.65
372.65	228.62
373.03	228.60
373.41	228.49
373.78	228.42
374.16	228.33
374.54	228.27
374.92	228.19
375.30	228.13
375.68	228.03
376.06	227.98
376.44	227.93
376.82	227.84
377.19	227.78
377.57	227.70
377.95	227.62
378.33	227.57
378.71	227.50
379.09	227.41
379.47	227.36
379.84	227.29
380.22	227.22
380.60	227.13
380.98	227.03
381.36	226.99
381.73	226.92
382.11	226.84
382.49	226.77
382.87	226.68
383.25	226.61
383.62	226.67
384.00	226.56
384.38	226.47
384.76	226.49
385.13	226.46
385.51	226.42
385.89	226.36
386.27	226.31
386.64	226.24
387.02	226.19
387.40	226.17
387.78	226.11
388.15	226.09
388.53	226.04
388.91	225.99
389.29	225.94
389.66	225.94
390.04	225.92
390.42	225.92
390.79	225.91
391.17	225.90
391.55	225.78
391.92	225.79
392.30	225.83
392.68	225.77
393.05	225.78
393.43	225.75
393.81	225.76
394.18	225.77
394.56	225.81
394.94	225.90
395.31	225.89
395.69	225.98
396.06	226.00
396.44	226.06
396.82	226.08
397.19	226.18
397.57	226.22
397.95	226.31
398.32	226.32
398.70	226.41
399.07	226.47
399.45	226.56
399.82	226.61
400.20	226.64
400.58	226.71
400.95	226.74
401.33	226.85
401.70	227.02
402.08	227.13
402.45	227.21
402.83	227.28
403.20	227.37
403.58	227.44
403.95	227.56
404.33	227.68
404.71	227.82
405.08	228.00
405.46	228.12
405.83	228.24
406.21	228.39
406.58	228.54
406.96	228.70
407.33	228.88
407.70	229.10
408.08	229.38
408.45	229.60
408.83	229.83
409.20	230.04
409.58	230.18
409.95	230.43
410.33	230.68
410.70	230.94
411.08	231.28
411.45	231.62
411.82	231.93
412.20	232.30
412.57	232.73
412.95	233.00
413.32	233.40
413.69	233.83
414.07	234.28
414.44	234.74
414.82	235.24
415.19	235.75
415.56	236.27
415.94	236.79
416.31	237.42
416.68	238.07
417.06	238.79
417.43	239.49
417.81	240.25
418.18	241.05
418.55	241.87
418.93	242.72
419.30	243.57
419.67	244.47
420.04	245.37
420.42	246.33
420.79	247.48
421.16	248.62
421.54	249.78
421.91	250.98
422.28	252.22
422.66	253.52
423.03	254.84
423.40	256.19
423.77	257.59
424.15	259.01
424.52	260.47
424.89	262.10
425.26	263.64
425.64	265.10
426.01	266.68
426.38	268.36
426.75	270.03
427.13	271.77
427.50	273.58
427.87	275.47
428.24	277.34
428.61	279.09
428.99	281.06
429.36	283.16
429.73	285.23
430.10	287.26
430.47	289.33
430.85	291.42
431.22	293.66
431.59	296.06
431.96	298.30
432.33	300.82
432.70	303.14
433.08	305.92
433.45	308.51
433.82	311.09
434.19	313.94
434.56	316.73
434.93	319.40
435.30	322.02
435.68	324.90
436.05	327.76
436.42	330.52
436.79	333.04
437.16	335.72
437.53	338.54
437.90	341.32
438.27	344.06
438.64	346.87
439.01	349.45
439.38	351.65
439.75	353.80
440.13	356.25
440.50	358.60
440.87	360.49
441.24	362.45
441.61	364.63
441.98	366.15
442.35	367.97
442.72	369.79
443.09	371.60
443.46	372.60
443.83	373.17
444.20	373.72
444.57	374.54
444.94	374.86
445.31	375.19
445.68	375.55
446.05	375.61
446.42	375.22
446.79	374.77
447.16	374.30
447.53	373.97
447.90	372.82
448.27	371.72
448.64	370.12
449.01	368.97
449.37	366.97
449.74	365.09
450.11	362.84
450.48	360.37
450.85	357.85
451.22	355.70
451.59	353.69
451.96	351.76
452.33	349.14
452.70	346.77
453.07	343.98
453.43	341.07
453.80	338.30
454.17	335.68
454.54	333.18
454.91	330.53
455.28	327.89
455.65	325.43
456.02	322.93
456.38	320.76
456.75	318.10
457.12	315.86
457.49	313.61
457.86	311.45
458.23	309.60
458.59	307.54
458.96	305.48
459.33	303.60
459.70	301.71
460.07	300.25
460.43	298.52
460.80	296.87
461.17	295.42
461.54	293.95
461.91	292.49
462.27	291.03
462.64	289.80
463.01	288.41
463.38	287.09
463.74	285.71
464.11	284.59
464.48	283.58
464.85	282.50
465.21	281.63
465.58	280.68
465.95	279.59
466.32	278.70
466.68	277.78
467.05	276.88
467.42	275.98
467.78	275.06
468.15	274.19
468.52	273.55
468.88	272.69
469.25	271.89
469.62	271.26
469.98	270.60
470.35	269.94
470.72	269.36
471.08	268.70
471.45	268.18
471.82	267.61
472.18	267.03
472.55	266.55
472.92	266.04
473.28	265.58
473.65	265.15
474.02	264.70
474.38	264.35
474.75	264.09
475.11	263.79
475.48	263.50
475.85	263.28
476.21	263.06
476.58	262.90
476.94	262.74
477.31	262.60
477.67	262.43
478.04	262.31
478.41	262.27
478.77	262.32
479.14	262.29
479.50	262.30
479.87	262.36
480.23	262.47
480.60	262.55
480.96	262.67
481.33	262.88
481.69	263.09
482.06	263.30
482.42	263.48
482.79	263.71
483.15	264.05
483.52	264.44
483.88	264.78
484.25	265.22
484.61	265.69
484.98	266.15
485.34	266.77
485.71	267.39
486.07	268.00
486.44	268.57
486.80	269.30
487.17	270.06
487.53	270.90
487.90	271.75
488.26	272.69
488.62	273.70
488.99	274.69
489.35	275.74
489.72	276.88
490.08	278.08
490.44	279.33
490.81	280.67
491.17	282.02
491.54	283.55
491.90	285.09
492.26	286.72
492.63	288.45
492.99	290.25
493.36	292.15
493.72	294.19
494.08	296.29
494.45	298.54
494.81	300.92
495.17	303.32
495.54	305.92
495.90	308.60
496.26	311.41
496.63	314.38
496.99	317.50
497.35	320.74
497.72	324.15
498.08	327.69
498.44	331.38
498.80	335.29
499.17	339.35
499.53	343.51
499.89	347.93
500.26	352.45
500.62	357.11
500.98	362.06
501.34	367.12
501.71	372.48
502.07	377.89
502.43	383.51
502.79	389.32
503.16	395.35
503.52	401.62
503.88	407.99
504.24	414.61
504.60	421.52
504.97	428.71
505.33	436.07
505.69	443.82
506.05	451.58
506.41	459.46
506.78	467.55
507.14	476.00
507.50	484.70
507.86	493.74
508.22	502.95
508.59	512.19
508.95	521.79
509.31	531.65
509.67	541.81
510.03	552.10
510.39	562.66
510.75	573.46
511.12	584.45
511.48	595.78
511.84	607.21
512.20	618.69
512.56	630.58
512.92	642.71
513.28	655.04
513.64	667.51
514.00	680.27
514.37	693.25
514.73	706.33
515.09	719.36
515.45	732.61
515.81	746.18
516.17	760.09
516.53	774.23
516.89	788.35
517.25	802.48
517.61	816.92
517.97	831.31
518.33	845.76
518.69	860.51
519.05	875.43
519.41	890.60
519.77	906.12
520.13	921.49
520.49	936.87
520.85	952.18
521.21	967.83
521.57	983.99
521.93	999.68
522.29	1015.98
522.65	1032.21
523.01	1048.40
523.37	1064.40
523.73	1080.54
524.09	1096.64
524.45	1112.90
524.81	1129.52
525.17	1146.21
525.53	1163.06
525.89	1179.90
526.25	1196.68
526.61	1212.98
526.97	1229.57
527.33	1245.99
527.68	1262.63
528.04	1278.93
528.40	1295.45
528.76	1312.52
529.12	1329.07
529.48	1345.92
529.84	1361.87
530.20	1378.39
530.56	1395.25
530.91	1412.57
531.27	1429.35
531.63	1445.65
531.99	1462.16
532.35	1478.03
532.71	1493.97
533.07	1510.15
533.42	1526.01
533.78	1541.99
534.14	1558.25
534.50	1573.61
534.86	1589.46
535.21	1604.52
535.57	1620.38
535.93	1635.84
536.29	1650.50
536.65	1665.42
537.00	1680.17
537.36	1695.47
537.72	1710.01
538.08	1724.35
538.44	1738.07
538.79	1751.91
539.15	1765.56
539.51	1779.29
539.87	1793.54
540.22	1807.01
540.58	1820.59
540.94	1833.61
541.29	1846.41
541.65	1858.95
542.01	1872.06
542.37	1884.20
542.72	1896.64
543.08	1908.60
543.44	1920.88
543.79	1932.16
544.15	1943.13
544.51	1954.57
544.87	1965.48
545.22	1976.22
545.58	1986.51
545.94	1996.27
546.29	2006.05
546.65	2015.83
547.01	2025.12
547.36	2033.79
547.72	2042.39
548.07	2050.43
548.43	2058.66
548.79	2066.60
549.14	2074.34
549.50	2081.60
549.86	2089.20
550.21	2096.35
550.57	2103.38
550.92	2110.02
551.28	2117.00
551.64	2123.92
551.99	2130.36
552.35	2136.60
552.70	2142.76
553.06	2148.63
553.41	2154.91
553.77	2160.85
554.13	2166.88
554.48	2172.69
554.84	2178.29
555.19	2183.45
555.55	2188.61
555.90	2193.22
556.26	2198.32
556.61	2202.91
556.97	2207.43
557.32	2211.68
557.68	2215.93
558.03	2220.16
558.39	2223.76
558.74	2228.35
559.10	2232.30
559.45	2235.97
559.81	2240.04
560.16	2243.83
560.52	2247.19
560.87	2250.62
561.23	2253.27
561.58	2256.13
561.94	2258.82
562.29	2261.00
562.64	2263.76
563.00	2266.32
563.35	2269.77
563.71	2272.71
564.06	2275.80
564.42	2278.63
564.77	2281.37
565.12	2283.77
565.48	2285.79
565.83	2287.71
566.19	2289.15
566.54	2289.93
566.89	2291.27
567.25	2292.06
567.60	2293.29
567.96	2295.01
568.31	2295.81
568.66	2296.98
569.02	2297.72
569.37	2298.09
569.72	2299.11
570.08	2299.28
570.43	2299.39
570.78	2298.82
571.14	2297.34
571.49	2296.03
571.84	2295.71
572.20	2294.37
572.55	2293.25
572.90	2291.57
573.26	2290.28
573.61	2288.44
573.96	2287.16
574.31	2284.13
574.67	2281.14
575.02	2277.64
575.37	2274.09
575.72	2270.49
576.08	2267.13
576.43	2263.68
576.78	2260.15
577.13	2256.85
577.49	2253.66
577.84	2250.13
578.19	2246.36
578.54	2242.79
578.90	2238.79
579.25	2233.24
579.60	2228.36
579.95	2223.45
580.30	2218.47
580.66	2213.37
581.01	2208.37
581.36	2203.33
581.71	2199.20
582.06	2194.88
582.42	2190.45
582.77	2185.42
583.12	2180.86
583.47	2176.37
583.82	2171.58
584.17	2166.41
584.53	2161.11
584.88	2155.60
585.23	2150.08
585.58	2144.73
585.93	2139.26
586.28	2134.28
586.63	2129.34
586.98	2124.35
587.34	2119.55
587.69	2114.64
588.04	2109.40
588.39	2103.91
588.74	2097.33
589.09	2091.25
589.44	2084.51
589.79	2078.40
590.14	2072.68
590.49	2066.01
590.84	2059.47
591.19	2053.39
591.54	2046.82
591.89	2039.47
592.25	2032.81
592.60	2025.38
592.95	2017.87
593.30	2010.45
593.65	2002.88
594.00	1995.80
594.35	1988.45
594.70	1980.28
595.05	1973.31
595.40	1966.02
595.75	1958.56
596.10	1952.62
596.45	1945.92
596.80	1939.74
597.15	1933.18
597.50	1926.33
597.85	1919.98
598.19	1913.41
598.54	1906.51
598.89	1899.86
599.24	1893.89
599.59	1887.33
599.94	1881.14
600.29	1874.79
600.64	1868.19
600.99	1860.87
601.34	1854.10
601.69	1847.10
602.04	1840.41
602.39	1832.99
602.74	1826.13
603.08	1819.40
603.43	1812.46
603.78	1805.06
604.13	1797.89
604.48	1790.76
604.83	1783.87
605.18	1777.05
605.53	1769.08
605.87	1761.00
606.22	1753.75
606.57	1745.83
606.92	1738.27
607.27	1731.23
607.62	1724.34
607.96	1717.33
608.31	1710.90
608.66	1703.30
609.01	1695.90
609.36	1688.49
609.70	1680.45
610.05	1672.67
610.40	1664.99
610.75	1656.70
611.10	1649.06
611.44	1640.54
611.79	1632.42
612.14	1623.67
612.49	1614.47
612.83	1606.07
613.18	1597.93
613.53	1589.98
613.88	1581.46
614.22	1573.20
614.57	1564.52
614.92	1556.45
615.27	1548.95
615.61	1540.50
615.96	1532.41
616.31	1524.78
616.65	1517.34
617.00	1509.85
617.35	1502.11
617.70	1493.90
618.04	1485.54
618.39	1477.31
618.74	1469.76
619.08	1461.45
619.43	1453.89
619.78	1446.87
620.12	1439.77
620.47	1432.27
620.82	1423.98
621.16	1416.54
621.51	1408.88
621.85	1401.18
622.20	1392.80
622.55	1384.25
622.89	1376.48
623.24	1368.81
623.59	1361.26
623.93	1353.62
624.28	1346.42
624.62	1338.87
624.97	1331.63
625.32	1324.71
625.66	1317.68
626.01	1310.52
626.35	1303.18
626.70	1295.31
627.04	1287.57
627.39	1279.69
627.73	1272.18
628.08	1265.27
628.43	1258.00
628.77	1250.76
629.12	1243.33
629.46	1236.13
629.81	1228.69
630.15	1221.32
630.50	1213.97
630.84	1205.88
631.19	1197.94
631.53	1190.34
631.88	1182.56
632.22	1174.87
632.57	1167.62
632.91	1160.08
633.26	1152.59
633.60	1145.06
633.95	1138.00
634.29	1131.07
634.64	1124.34
634.98	1117.02
635.32	1109.92
635.67	1103.24
636.01	1096.52
636.36	1089.73
636.70	1083.10
637.05	1076.59
637.39	1070.19
637.73	1063.64
638.08	1057.68
638.42	1051.70
638.77	1045.28
639.11	1038.95
639.45	1032.60
639.80	1025.90
640.14	1019.59
640.49	1013.12
640.83	1006.88
641.17	1000.71
641.52	994.31
641.86	987.90
642.20	982.08
642.55	975.70
642.89	969.36
643.23	962.74
643.58	956.94
643.92	950.78
644.26	944.81
644.61	938.70
644.95	932.79
645.29	926.34
645.64	919.59
645.98	913.31
646.32	907.29
646.66	901.28
647.01	895.51
647.35	889.73
647.69	883.82
648.04	878.22
648.38	872.34
648.72	866.35
649.06	860.35
649.41	854.37
649.75	848.43
650.09	842.39
650.43	836.70
650.78	830.49
651.12	824.58
651.46	818.80
651.80	813.15
652.14	807.66
652.49	802.21
652.83	797.10
653.17	791.44
653.51	785.78
653.85	780.20
654.20	774.51
654.54	768.54
654.88	762.78
655.22	756.92
655.56	751.28
655.90	745.81
656.25	740.57
656.59	735.26
656.93	730.13
657.27	724.98
657.61	719.53
657.95	714.55
658.29	709.48
658.64	704.13
658.98	698.74
659.32	693.30
659.66	688.13
660.00	682.85
660.34	677.86
660.68	672.97
661.02	668.03
661.36	663.31
661.70	658.75
662.05	654.45
662.39	650.10
662.73	645.62
663.07	641.21
663.41	636.76
663.75	632.28
664.09	627.72
664.43	623.43
664.77	619.36
665.11	615.11
665.45	610.89
665.79	606.88
666.13	602.77
666.47	598.68
666.81	594.52
667.15	590.35
667.49	586.44
667.83	582.57
668.17	578.63
668.51	574.58
668.85	570.62
669.19	566.74
669.53	562.94
669.87	559.10
670.21	555.42
670.55	551.72
670.89	548.25
671.23	544.85
671.57	541.22
671.91	537.59
672.25	534.02
672.58	530.50
672.92	527.07
673.26	523.92
673.60	520.77
673.94	517.65
674.28	514.72
674.62	511.70
674.96	508.61
675.30	505.70
675.64	502.80
675.97	499.93
676.31	497.08
676.65	494.17
676.99	491.43
677.33	488.57
677.67	485.76
678.01	482.77
678.34	479.82
678.68	476.93
679.02	474.17
679.36	471.39
679.70	468.68
680.04	465.89
680.37	463.00
680.71	460.13
681.05	457.48
681.39	454.75
681.73	452.12
682.06	449.58
682.40	447.04
682.74	444.50
683.08	441.93
683.42	439.35
683.75	436.84
684.09	434.31
684.43	431.80
684.77	429.39
685.10	427.00
685.44	424.65
685.78	422.40
686.12	420.12
686.45	417.84
686.79	415.57
687.13	413.41
687.46	411.27
687.80	409.13
688.14	406.93
688.48	404.90
688.81	402.69
689.15	400.55
689.49	398.45
689.82	396.33
690.16	394.27
690.50	392.28
690.83	390.36
691.17	388.35
691.51	386.49
691.84	384.64
692.18	382.74
692.52	380.79
692.85	378.85
693.19	377.02
693.52	375.15
693.86	373.32
694.20	371.52
694.53	369.71
694.87	367.87
695.21	366.10
695.54	364.27
695.88	362.53
696.21	360.79
696.55	359.05
696.88	357.40
697.22	355.73
697.56	354.08
697.89	352.43
698.23	350.88
698.56	349.28
698.90	347.67
699.23	346.01
699.57	344.43
699.90	342.88
700.24	341.30
700.58	339.84
700.91	338.37
701.25	336.92
701.58	335.55
701.92	334.21
702.25	332.81
702.59	331.46
702.92	330.17
703.26	328.89
703.59	327.63
703.93	326.39
704.26	325.17
704.60	323.88
704.93	322.59
705.26	321.31
705.60	320.10
705.93	318.97
706.27	317.96
706.60	316.89
706.94	315.82
707.27	314.72
707.61	313.59
707.94	312.52
708.27	311.44
708.61	310.35
708.94	309.30
709.28	308.31
709.61	307.37
709.94	306.41
710.28	305.37
710.61	304.37
710.95	303.30
711.28	302.37
711.61	301.45
711.95	300.48
712.28	299.56
712.61	298.58
712.95	297.60
713.28	296.70
713.61	295.82
713.95	294.93
714.28	294.04
714.61	293.21
714.95	292.36
715.28	291.51
715.61	290.63
715.95	289.81
716.28	288.94
716.61	288.08
716.95	287.23
717.28	286.47
717.61	285.74
717.94	285.01
718.28	284.17
718.61	283.40
718.94	282.73
719.27	282.05
719.61	281.40
719.94	280.76
720.27	280.01
720.60	279.35
720.94	278.75
721.27	278.15
721.60	277.58
721.93	276.97
722.27	276.40
722.60	275.87
722.93	275.25
723.26	274.74
723.59	274.16
723.93	273.64
724.26	273.11
724.59	272.53
724.92	271.99
725.25	271.50
725.59	271.01
725.92	270.50
726.25	269.97
726.58	269.50
726.91	269.00
727.24	268.54
727.57	268.06
727.91	267.51
728.24	267.05
728.57	266.52
728.90	266.07
729.23	265.58
729.56	265.18
729.89	264.75
730.22	264.26
730.55	263.80
730.89	263.36
731.22	262.92
731.55	262.52
731.88	262.11
732.21	261.69
732.54	261.22
732.87	260.80
733.20	260.43
733.53	260.00
733.86	259.64
734.19	259.27
734.52	258.88
734.85	258.62
735.18	258.22
735.51	257.86
735.84	257.50
736.17	257.17
736.50	256.74
736.83	256.54
737.16	256.20
737.49	255.85
737.82	255.51
738.15	255.18
738.48	254.82
738.81	254.50
739.14	254.19
739.47	253.91
739.80	253.65
740.13	253.35
740.46	253.04
740.79	252.69
741.12	252.40
741.45	252.12
741.78	251.77
742.11	251.50
742.44	251.22
742.77	250.95
743.10	250.64
743.43	250.37
743.75	250.00
744.08	249.90
744.41	249.61
744.74	249.38
745.07	249.07
745.40	248.82
745.73	248.57
746.06	248.32
746.39	248.04
746.71	247.74
747.04	247.45
747.37	247.22
747.70	246.98
748.03	246.73
748.36	246.52
748.68	246.30
749.01	246.08
749.34	245.84
749.67	245.59
750.00	245.36
750.33	245.19
750.65	244.97
750.98	244.61
751.31	244.42
751.64	244.18
751.97	244.02
752.29	243.78
752.62	243.51
752.95	243.30
753.28	243.08
753.60	242.87
753.93	242.70
754.26	242.48
754.59	242.24
754.91	242.05
755.24	241.80
755.57	241.58
755.90	241.35
756.22	241.13
756.55	240.93
756.88	240.73
757.20	240.48
757.53	240.25
757.86	240.06
758.19	239.89
758.51	239.72
758.84	239.52
759.17	239.39
759.49	239.25
759.82	239.08
760.15	238.93
760.47	238.79
760.80	238.61
761.13	238.46
761.45	238.33
761.78	238.13
762.11	237.99
762.43	237.82
762.76	237.68
763.08	237.57
763.41	237.42
763.74	237.28
764.06	237.19
764.39	237.05
764.71	236.91
765.04	236.75
765.37	236.58
765.69	236.45
766.02	236.32
766.34	236.21
766.67	236.10
767.00	236.00
767.32	235.88
767.65	235.85
767.97	235.71
768.30	235.60
768.62	235.51
768.95	235.37
769.27	235.29
769.60	235.18
769.92	235.01
770.25	234.90
770.57	234.81
770.90	234.67
771.22	234.57
771.55	234.50
771.87	234.43
772.20	234.33
772.52	234.33
772.85	234.34
773.17	234.22
773.50	234.10
773.82	234.02
774.15	233.89
774.47	233.73
774.80	233.64
775.12	233.56
775.45	233.47
775.77	233.42
776.09	233.34
776.42	233.27
776.74	233.22
777.07	233.16
777.39	233.08
777.72	233.02
778.04	232.97
778.36	232.90
778.69	232.84
779.01	232.79
779.33	232.62
779.66	232.42
779.98	232.37
780.31	232.35
780.63	232.34
780.95	232.30
781.28	232.24
781.60	232.18
781.92	232.13
782.25	232.08
782.57	232.02
782.89	231.97
783.22	231.93
783.54	231.88
783.86	231.86
784.19	231.79
784.51	231.77
784.83	231.69
785.16	231.64
785.48	231.62
785.80	231.59
786.12	231.55
786.45	231.53
786.77	231.51
787.09	231.45
787.42	231.33
787.74	231.33
788.06	231.34
788.38	231.32
788.71	231.30
789.03	231.24
789.35	231.22
789.67	231.16
789.99	231.09
790.32	231.08
790.64	231.04
790.96	231.07
791.28	230.97
791.61	230.95
791.93	230.89
792.25	230.82
792.57	230.84
792.89	230.79
793.21	230.74
793.54	230.70
793.86	230.64
794.18	230.62
794.50	230.55
794.82	230.42
795.14	230.39
795.47	230.31
795.79	230.29
796.11	230.20
796.43	230.17
796.75	230.14
797.07	230.09
797.39	230.03
797.71	229.94
798.04	229.93
798.36	229.89
798.68	229.86
799.00	229.86
799.32	229.76
799.64	229.75
799.96	229.72
800.28	229.63
800.60	229.57
800.92	229.52
801.24	229.45
801.56	229.45
801.89	229.41
802.21	229.43
802.53	229.38
802.85	229.38
803.17	229.38
803.49	229.33
803.81	229.28
804.13	229.25
804.45	229.21
804.77	229.16
805.09	229.14
805.41	229.09
805.73	229.02
806.05	228.97
806.37	228.90
806.69	228.87
807.01	228.85
807.33	228.83
807.65	228.79
807.97	228.82
808.28	228.80
808.60	228.76
808.92	228.71
809.24	228.72
809.56	228.68
809.88	228.62
810.20	228.59
810.52	228.60
810.84	228.55
811.16	228.53
811.48	228.52
811.80	228.53
812.12	228.51
812.43	228.51
812.75	228.51
813.07	228.50
813.39	228.46
813.71	228.40
814.03	228.40
814.35	228.37
814.67	228.29
814.98	228.27
815.30	228.21
815.62	228.16
815.94	228.06
816.26	228.08
816.58	228.04
816.89	228.01
817.21	227.95
817.53	227.96
817.85	227.91
818.17	227.86
818.48	227.77
818.80	227.80
819.12	227.73
819.44	227.70
819.76	227.65
820.07	227.64
820.39	227.68
820.71	227.66
821.03	227.65
821.34	227.64
821.66	227.64
821.98	227.69
822.30	227.69
822.61	227.75
822.93	227.68
823.25	227.69
823.57	227.68
823.88	227.71
824.20	227.65
824.52	227.69
824.83	227.69
825.15	227.66
825.47	227.63
825.79	227.66
826.10	227.66
826.42	227.68
826.74	227.69
827.05	227.68
827.37	227.71
827.69	227.74
828.00	227.73
828.32	227.72
828.64	227.67
828.95	227.72
829.27	227.66
829.58	227.69
829.90	227.68
830.22	227.71
830.53	227.67
830.85	227.70
831.17	227.64
831.48	227.65
831.80	227.66
832.11	227.64
832.43	227.61
832.75	227.58
833.06	227.66
833.38	227.63
833.69	227.59
834.01	227.56
834.32	227.55
834.64	227.55
834.96	227.56
835.27	227.60
835.59	227.55
835.90	227.56
836.22	227.57
836.53	227.57
836.85	227.53
837.16	227.62
837.48	227.56
837.79	227.59
838.11	227.57
838.42	227.55
838.74	227.58
839.05	227.58
839.37	227.57
839.68	227.48
840.00	227.45
840.31	227.45
840.63	227.40
840.94	227.37
841.26	227.35
841.57	227.33
841.88	227.29
842.20	227.28
842.51	227.25
842.83	227.22
843.14	227.29
843.46	227.26
843.77	227.21
844.08	227.23
844.40	227.21
844.71	227.20
845.03	227.15
845.34	227.13
845.65	227.11
845.97	227.11
846.28	227.09
846.60	227.08
846.91	227.04
847.22	227.06
847.54	227.07
847.85	227.05
848.16	227.03
848.48	227.02
848.79	227.03
849.10	227.03
849.42	227.01
849.73	226.91
850.04	226.91
850.36	226.86
850.67	226.88
850.98	226.88
851.30	226.89
851.61	226.92
851.92	226.91
852.23	226.97
852.55	226.96
852.86	226.96
853.17	226.97
853.49	227.03
853.80	227.06
854.11	227.06
854.42	227.08
854.74	227.10
855.05	227.06
855.36	227.05
855.67	227.08
855.99	227.06
856.30	227.15
856.61	227.15
856.92	227.15
857.23	227.11
857.55	227.10
857.86	227.06
858.17	227.09
858.48	227.07
858.79	227.01
859.11	227.02
859.42	226.99
859.73	226.97
860.04	226.93
860.35	226.88
860.66	226.84
860.98	226.84
861.29	226.83
861.60	226.82
861.91	226.81
862.22	226.77
862.53	226.78
862.84	226.66
863.16	226.67
863.47	226.66
863.78	226.64
864.09	226.65
864.40	226.67
864.71	226.64
865.02	226.62
865.33	226.58
865.64	226.56
865.95	226.56
866.27	226.59
866.58	226.60
866.89	226.61
867.20	226.60
867.51	226.58
867.82	226.55
868.13	226.61
868.44	226.59
868.75	226.62
869.06	226.62
869.37	226.65
869.68	226.64
869.99	226.62
870.30	226.64
870.61	226.63
870.92	226.62
871.23	226.61
871.54	226.64
871.85	226.69
872.16	226.69
872.47	226.68
872.78	226.67
873.09	226.67
873.40	226.68
873.71	226.68
874.02	226.67
874.33	226.65
874.64	226.58
874.95	226.60
875.26	226.55
875.56	226.57
875.87	226.57
876.18	226.54
876.49	226.64
876.80	226.60
877.11	226.59
877.42	226.62
877.73	226.63
878.04	226.62
878.35	226.59
878.66	226.59
878.96	226.58
879.27	226.56
879.58	226.54
879.89	226.48
880.20	226.52
880.51	226.50
880.82	226.49
881.12	226.53
881.43	226.51
881.74	226.49
882.05	226.47
882.36	226.46
882.67	226.46
882.97	226.38
883.28	226.39
883.59	226.35
883.90	226.35
884.21	226.38
884.51	226.40
884.82	226.38
885.13	226.36
885.44	226.37
885.74	226.34
886.05	226.34
886.36	226.36
886.67	226.33
886.98	226.39
887.28	226.41
887.59	226.41
887.90	226.41
888.20	226.43
888.51	226.41
888.82	226.41
889.13	226.44
889.43	226.52
889.74	226.50
890.05	226.55
890.35	226.51
890.66	226.50
890.97	226.47
891.28	226.42
891.58	226.46
891.89	226.47
892.20	226.50
892.50	226.50
892.81	226.51
893.12	226.52
893.42	226.46
893.73	226.48
894.04	226.50
894.34	226.49
894.65	226.46
894.95	226.46
895.26	226.44
895.57	226.50
895.87	226.40
896.18	226.45
896.48	226.45
896.79	226.46
897.10	226.46
897.40	226.47
897.71	226.52
898.01	226.51
898.32	226.51
898.63	226.52
898.93	226.52
899.24	226.51
899.54	226.48
899.85	226.48
900.15	226.46
900.46	226.44
900.76	226.48
901.07	226.48
901.38	226.45
901.68	226.51
901.99	226.43
902.29	226.42
902.60	226.41
902.90	226.40
903.21	226.38
903.51	226.36
903.82	226.38
904.12	226.40
904.43	226.39
904.73	226.40
905.03	226.38
905.34	226.47
905.64	226.48
905.95	226.51
906.25	226.51
906.56	226.51
906.86	226.52
907.17	226.48
907.47	226.48
907.77	226.51
908.08	226.46
908.38	226.47
908.69	226.49
908.99	226.45
909.30	226.47
909.60	226.46
909.90	226.48
910.21	226.43
910.51	226.41
910.81	226.45
911.12	226.46
911.42	226.48
911.73	226.40
912.03	226.42
912.33	226.44
912.64	226.44
912.94	226.45
913.24	226.43
913.55	226.42
913.85	226.43
914.15	226.43
914.46	226.48
914.76	226.46
915.06	226.49
915.37	226.51
915.67	226.49
915.97	226.48
916.27	226.47
916.58	226.46
916.88	226.48
917.18	226.47
917.49	226.52
917.79	226.49
918.09	226.51
918.39	226.51
918.70	226.51
919.00	226.51
919.30	226.52
919.60	226.52
919.91	226.56
920.21	226.59
920.51	226.56
920.81	226.55
921.12	226.60
921.42	226.60
921.72	226.62
922.02	226.62
922.32	226.64
922.63	226.64
922.93	226.77
923.23	226.76
923.53	226.72
923.83	226.66
924.13	226.67
924.44	226.65
924.74	226.68
925.04	226.68
925.34	226.69
925.64	226.67
925.94	226.65
926.24	226.69
926.55	226.68
926.85	226.68
927.15	226.65
927.45	226.63
927.75	226.59
928.05	226.59
928.35	226.57
928.65	226.61
928.95	226.59
929.26	226.52
929.56	226.54
929.86	226.56
930.16	226.55
930.46	226.55
930.76	226.53
931.06	226.46
931.36	226.44
931.66	226.45
931.96	226.47
932.26	226.46
932.56	226.39
932.86	226.37
933.16	226.41
933.46	226.42
933.76	226.43
934.06	226.47
934.36	226.49
934.66	226.55
934.96	226.52
935.26	226.52
935.56	226.51
935.86	226.48
936.16	226.47
936.46	226.47
936.76	226.45
937.06	226.46
937.36	226.47
937.66	226.48
937.96	226.48
938.26	226.43
938.56	226.45
938.86	226.44
939.16	226.46
939.46	226.43
939.76	226.40
940.06	226.37
940.35	226.34
940.65	226.27
940.95	226.21
941.25	226.17
941.55	226.16
941.85	226.17
942.15	226.18
942.45	226.21
942.75	226.20
943.04	226.21
943.34	226.22
943.64	226.19
943.94	226.21
944.24	226.22
944.54	226.27
944.84	226.24
945.13	226.24
945.43	226.24
945.73	226.24
946.03	226.27
946.33	226.26
946.62	226.27
946.92	226.25
947.22	226.27
947.52	226.30
947.82	226.32
948.11	226.29
948.41	226.26
948.71	226.21
949.01	226.22
949.31	226.21
949.60	226.24
949.90	226.29
950.20	226.24
950.50	226.22
950.79	226.19
951.09	226.24
951.39	226.26
951.69	226.26
951.98	226.27
952.28	226.24
952.58	226.26
952.87	226.24
953.17	226.28
953.47	226.29
953.76	226.29
954.06	226.29
954.36	226.30
954.66	226.33
954.95	226.37
955.25	226.40
955.55	226.41
955.84	226.40
956.14	226.42
956.44	226.42
956.73	226.43
957.03	226.43
957.32	226.42
957.62	226.41
957.92	226.44
958.21	226.44
958.51	226.60
958.81	226.60
959.10	226.62
959.40	226.62
959.69	226.63
959.99	226.65
960.29	226.65
960.58	226.64
960.88	226.65
961.17	226.65
961.47	226.68
961.76	226.65
962.06	226.64
962.36	226.59
962.65	226.62
962.95	226.64
963.24	226.61
963.54	226.61
963.83	226.62
964.13	226.60
964.42	226.59
964.72	226.47
965.01	226.45
965.31	226.43
965.60	226.42
965.90	226.48
966.19	226.43
966.49	226.45
966.78	226.46
967.08	226.45
967.37	226.45
967.67	226.43
967.96	226.44
968.26	226.47
968.55	226.51
968.85	226.50
969.14	226.48
969.43	226.51
969.73	226.51
970.02	226.50
970.32	226.50
970.61	226.47
970.91	226.47
971.20	226.45
971.49	226.44
971.79	226.44
972.08	226.36
972.38	226.39
972.67	226.34
972.96	226.35
973.26	226.31
973.55	226.32
973.85	226.29
974.14	226.29
974.43	226.25
974.73	226.19
975.02	226.17
975.31	226.17
975.61	226.17
975.90	226.14
976.19	226.10
976.49	226.08
976.78	226.09
977.07	226.06
977.37	226.09
977.66	226.09
977.95	226.08
978.24	226.09
978.54	226.08
978.83	226.09
979.12	226.08
979.42	226.09
979.71	226.07
980.00	226.05
980.29	226.06
980.59	226.04
980.88	226.07
981.17	226.05
981.46	226.01
981.76	225.98
982.05	226.02
982.34	226.03
982.63	226.05
982.93	226.03
983.22	226.09
983.51	226.07
983.80	226.12
984.09	226.13
984.39	226.10
984.68	226.10
984.97	226.10
985.26	226.09
985.55	226.11
985.85	226.12
986.14	226.14
986.43	226.14
986.72	226.14
987.01	226.12
987.30	226.11
987.59	226.12
987.89	226.13
988.18	226.10
988.47	226.09
988.76	226.07
989.05	226.08
989.34	226.05
989.63	226.07
989.92	226.01
990.22	225.99
990.51	225.99
990.80	225.98
991.09	225.99
991.38	226.01
991.67	226.01
991.96	225.98
992.25	225.98
992.54	225.96
992.83	225.99
993.12	226.02
993.41	226.05
993.70	226.12
993.99	226.13
994.28	226.10
994.58	226.14
994.87	226.13
995.16	226.15
995.45	226.13
995.74	226.14
996.03	226.19
996.32	226.22
996.61	226.24
996.90	226.28
997.19	226.27
997.48	226.28
997.77	226.28
998.06	226.30
998.34	226.29
998.63	226.32
998.92	226.32
999.21	226.29
999.50	226.28
999.79	226.21
1000.08	226.26
1000.37	226.27
1000.66	226.25
1000.95	226.28
1001.24	226.27
1001.53	226.28
1001.82	226.27
1002.11	226.28
1002.40	226.30
1002.68	226.34
1002.97	226.38
1003.26	226.36
1003.55	226.31
1003.84	226.32
1004.13	226.34
1004.42	226.37
1004.71	226.39
1004.99	226.39
1005.28	226.44
1005.57	226.46
1005.86	226.50
1006.15	226.46
1006.44	226.47
1006.72	226.49
1007.01	226.49
1007.30	226.51
1007.59	226.51
1007.88	226.47
1008.17	226.46
1008.45	226.45
1008.74	226.40
1009.03	226.36
1009.32	226.37
1009.60	226.38
1009.89	226.36
1010.18	226.31
1010.47	226.28
1010.76	226.23
1011.04	226.22
1011.33	226.23
1011.62	226.22
1011.91	226.21
1012.19	226.23
1012.48	226.23
1012.77	226.23
1013.05	226.25
1013.34	226.24
1013.63	226.26
1013.92	226.29
1014.20	226.23
1014.49	226.20
1014.78	226.20
1015.06	226.16
1015.35	226.17
1015.64	226.16
1015.92	226.16
1016.21	226.16
1016.50	226.14
1016.78	226.14
1017.07	226.14
1017.36	226.11
1017.64	226.09
1017.93	226.06
1018.22	226.02
1018.50	226.01
1018.79	225.97
1019.08	225.92
1019.36	225.91
1019.65	225.89
1019.93	225.92
1020.22	225.97
1020.51	225.99
1020.79	226.00
1021.08	225.47
1021.36	225.95
1021.65	225.56
1021.94	225.95
1022.22	225.74
1022.51	226.17
1022.79	226.74
1023.08	226.62
1023.36	226.16
1023.65	226.34
>>>>>End Processed Spectral Data<<<<<
