SpectraSuite Data File
++++++++++++++++++++++++++++++++++++
Date: Fri Feb 01 16:10:12 EST 2013
User: group
Dark Spectrum Present: No
Reference Spectrum Present: No
Number of Sampled Component Spectra: 1
Spectrometers: USB2E7196
Integration Time (usec): 35000 (USB2E7196)
Spectra Averaged: 100 (USB2E7196)
Boxcar Smoothing: 10 (USB2E7196)
Correct for Electrical Dark: No (USB2E7196)
Strobe/Lamp Enabled: No (USB2E7196)
Correct for Detector Non-linearity: No (USB2E7196)
Correct for Stray Light: No (USB2E7196)
Number of Pixels in Processed Spectrum: 2048
>>>>>Begin Processed Spectral Data<<<<<
339.09	0.00
339.48	214.06
339.86	215.92
340.24	217.14
340.63	218.57
341.01	221.35
341.39	221.34
341.78	221.94
342.16	224.05
342.54	223.96
342.93	212.68
343.31	223.44
343.69	223.99
344.07	224.43
344.46	224.86
344.84	225.25
345.22	225.50
345.60	225.73
345.99	225.97
346.37	226.08
346.75	226.23
347.13	226.31
347.52	226.35
347.90	226.39
348.28	226.42
348.66	226.49
349.05	226.45
349.43	226.51
349.81	226.58
350.19	226.66
350.57	226.71
350.96	226.81
351.34	226.92
351.72	227.01
352.10	227.12
352.48	227.21
352.87	227.28
353.25	227.33
353.63	227.42
354.01	227.45
354.39	227.55
354.77	227.61
355.15	227.73
355.54	227.79
355.92	227.87
356.30	227.93
356.68	228.05
357.06	228.18
357.44	228.22
357.82	228.29
358.20	228.34
358.58	228.43
358.97	228.49
359.35	228.54
359.73	228.62
360.11	228.68
360.49	228.74
360.87	228.78
361.25	228.85
361.63	228.92
362.01	228.99
362.39	229.01
362.77	229.02
363.15	229.02
363.53	229.05
363.91	229.06
364.29	229.06
364.67	228.99
365.05	228.98
365.43	228.99
365.81	228.98
366.19	229.02
366.57	229.02
366.95	229.00
367.33	228.98
367.71	228.96
368.09	228.94
368.47	228.89
368.85	228.85
369.23	228.85
369.61	228.75
369.99	228.73
370.37	228.67
370.75	228.71
371.13	228.63
371.51	228.57
371.89	228.53
372.27	228.50
372.65	228.45
373.03	228.39
373.41	228.33
373.78	228.27
374.16	228.15
374.54	228.07
374.92	228.01
375.30	227.95
375.68	227.86
376.06	227.81
376.44	227.76
376.82	227.71
377.19	227.64
377.57	227.59
377.95	227.51
378.33	227.46
378.71	227.30
379.09	227.28
379.47	227.22
379.84	227.14
380.22	227.07
380.60	227.00
380.98	226.93
381.36	226.88
381.73	226.83
382.11	226.79
382.49	226.73
382.87	226.66
383.25	226.60
383.62	226.67
384.00	226.60
384.38	226.54
384.76	226.53
385.13	226.52
385.51	226.44
385.89	226.36
386.27	226.34
386.64	226.33
387.02	226.23
387.40	226.22
387.78	226.20
388.15	226.14
388.53	226.12
388.91	226.12
389.29	226.06
389.66	226.04
390.04	226.01
390.42	226.01
390.79	226.02
391.17	225.99
391.55	225.88
391.92	225.86
392.30	225.86
392.68	225.82
393.05	225.82
393.43	225.88
393.81	225.90
394.18	225.89
394.56	225.96
394.94	226.00
395.31	226.02
395.69	226.06
396.06	226.15
396.44	226.20
396.82	226.22
397.19	226.36
397.57	226.39
397.95	226.46
398.32	226.49
398.70	226.55
399.07	226.67
399.45	226.74
399.82	226.84
400.20	226.91
400.58	227.00
400.95	227.03
401.33	227.12
401.70	227.28
402.08	227.40
402.45	227.44
402.83	227.59
403.20	227.69
403.58	227.80
403.95	227.93
404.33	228.03
404.71	228.15
405.08	228.28
405.46	228.44
405.83	228.59
406.21	228.71
406.58	228.88
406.96	228.99
407.33	229.20
407.70	229.40
408.08	229.68
408.45	229.88
408.83	230.09
409.20	230.30
409.58	230.49
409.95	230.74
410.33	231.05
410.70	231.26
411.08	231.54
411.45	231.83
411.82	232.15
412.20	232.50
412.57	232.89
412.95	233.18
413.32	233.57
413.69	233.98
414.07	234.47
414.44	234.93
414.82	235.42
415.19	235.92
415.56	236.43
415.94	236.94
416.31	237.58
416.68	238.21
417.06	238.93
417.43	239.57
417.81	240.31
418.18	241.05
418.55	241.88
418.93	242.77
419.30	243.65
419.67	244.55
420.04	245.47
420.42	246.44
420.79	247.63
421.16	248.75
421.54	249.92
421.91	251.07
422.28	252.31
422.66	253.63
423.03	254.92
423.40	256.25
423.77	257.67
424.15	259.07
424.52	260.56
424.89	262.17
425.26	263.73
425.64	265.18
426.01	266.74
426.38	268.38
426.75	270.03
427.13	271.75
427.50	273.51
427.87	275.42
428.24	277.28
428.61	278.99
428.99	280.93
429.36	283.04
429.73	285.10
430.10	287.09
430.47	289.17
430.85	291.28
431.22	293.53
431.59	295.89
431.96	298.15
432.33	300.65
432.70	303.01
433.08	305.85
433.45	308.51
433.82	311.12
434.19	314.01
434.56	316.83
434.93	319.48
435.30	322.13
435.68	324.97
436.05	327.82
436.42	330.60
436.79	333.14
437.16	335.81
437.53	338.66
437.90	341.47
438.27	344.20
438.64	347.00
439.01	349.57
439.38	351.80
439.75	353.94
440.13	356.38
440.50	358.72
440.87	360.55
441.24	362.50
441.61	364.65
441.98	366.12
442.35	367.92
442.72	369.80
443.09	371.61
443.46	372.64
443.83	373.22
444.20	373.75
444.57	374.58
444.94	374.89
445.31	375.23
445.68	375.61
446.05	375.66
446.42	375.30
446.79	374.86
447.16	374.41
447.53	374.12
447.90	372.97
448.27	371.80
448.64	370.21
449.01	369.08
449.37	367.15
449.74	365.29
450.11	363.07
450.48	360.57
450.85	358.07
451.22	356.00
451.59	353.99
451.96	352.08
452.33	349.51
452.70	347.14
453.07	344.33
453.43	341.40
453.80	338.64
454.17	335.99
454.54	333.50
454.91	330.80
455.28	328.14
455.65	325.67
456.02	323.21
456.38	321.07
456.75	318.37
457.12	316.12
457.49	313.90
457.86	311.71
458.23	309.89
458.59	307.82
458.96	305.66
459.33	303.84
459.70	301.94
460.07	300.41
460.43	298.70
460.80	297.03
461.17	295.61
461.54	294.12
461.91	292.64
462.27	291.19
462.64	289.96
463.01	288.60
463.38	287.27
463.74	285.90
464.11	284.72
464.48	283.71
464.85	282.61
465.21	281.75
465.58	280.83
465.95	279.70
466.32	278.82
466.68	277.91
467.05	276.96
467.42	276.06
467.78	275.14
468.15	274.29
468.52	273.64
468.88	272.81
469.25	272.06
469.62	271.46
469.98	270.80
470.35	270.14
470.72	269.54
471.08	268.93
471.45	268.44
471.82	267.87
472.18	267.25
472.55	266.82
472.92	266.34
473.28	265.86
473.65	265.42
474.02	264.91
474.38	264.58
474.75	264.31
475.11	264.00
475.48	263.72
475.85	263.49
476.21	263.27
476.58	263.09
476.94	262.94
477.31	262.80
477.67	262.66
478.04	262.56
478.41	262.50
478.77	262.55
479.14	262.48
479.50	262.50
479.87	262.59
480.23	262.66
480.60	262.65
480.96	262.76
481.33	262.96
481.69	263.21
482.06	263.40
482.42	263.56
482.79	263.83
483.15	264.17
483.52	264.56
483.88	264.95
484.25	265.37
484.61	265.79
484.98	266.23
485.34	266.81
485.71	267.41
486.07	268.05
486.44	268.59
486.80	269.31
487.17	270.08
487.53	270.91
487.90	271.79
488.26	272.73
488.62	273.72
488.99	274.69
489.35	275.75
489.72	276.87
490.08	278.13
490.44	279.34
490.81	280.68
491.17	282.02
491.54	283.49
491.90	285.01
492.26	286.67
492.63	288.44
492.99	290.20
493.36	292.11
493.72	294.10
494.08	296.23
494.45	298.45
494.81	300.84
495.17	303.29
495.54	305.90
495.90	308.63
496.26	311.44
496.63	314.41
496.99	317.52
497.35	320.76
497.72	324.15
498.08	327.69
498.44	331.37
498.80	335.28
499.17	339.31
499.53	343.48
499.89	347.89
500.26	352.38
500.62	357.08
500.98	362.07
501.34	367.20
501.71	372.53
502.07	378.01
502.43	383.58
502.79	389.36
503.16	395.43
503.52	401.69
503.88	408.09
504.24	414.78
504.60	421.69
504.97	428.80
505.33	436.15
505.69	443.83
506.05	451.64
506.41	459.55
506.78	467.73
507.14	476.15
507.50	484.83
507.86	493.89
508.22	503.06
508.59	512.27
508.95	521.85
509.31	531.69
509.67	541.81
510.03	552.15
510.39	562.75
510.75	573.51
511.12	584.48
511.48	595.78
511.84	607.20
512.20	618.71
512.56	630.65
512.92	642.87
513.28	655.28
513.64	667.74
514.00	680.45
514.37	693.39
514.73	706.56
515.09	719.62
515.45	732.87
515.81	746.40
516.17	760.36
516.53	774.44
516.89	788.57
517.25	802.66
517.61	816.99
517.97	831.43
518.33	845.79
518.69	860.55
519.05	875.51
519.41	890.70
519.77	906.20
520.13	921.69
520.49	937.03
520.85	952.37
521.21	968.06
521.57	984.32
521.93	1000.01
522.29	1016.23
522.65	1032.43
523.01	1048.67
523.37	1064.72
523.73	1080.84
524.09	1096.93
524.45	1113.24
524.81	1129.86
525.17	1146.67
525.53	1163.61
525.89	1180.51
526.25	1197.25
526.61	1213.55
526.97	1230.24
527.33	1246.59
527.68	1263.10
528.04	1279.54
528.40	1296.06
528.76	1313.07
529.12	1329.57
529.48	1346.41
529.84	1362.41
530.20	1378.98
530.56	1395.93
530.91	1413.24
531.27	1429.97
531.63	1446.47
531.99	1463.09
532.35	1479.04
532.71	1494.88
533.07	1511.08
533.42	1526.97
533.78	1543.01
534.14	1559.19
534.50	1574.49
534.86	1590.38
535.21	1605.57
535.57	1621.39
535.93	1636.85
536.29	1651.56
536.65	1666.52
537.00	1681.20
537.36	1696.47
537.72	1710.96
538.08	1725.22
538.44	1738.92
538.79	1752.68
539.15	1766.11
539.51	1779.68
539.87	1793.94
540.22	1807.49
540.58	1821.01
540.94	1834.21
541.29	1846.99
541.65	1859.73
542.01	1872.90
542.37	1885.10
542.72	1897.43
543.08	1909.23
543.44	1921.68
543.79	1932.92
544.15	1943.94
544.51	1955.51
544.87	1966.34
545.22	1977.06
545.58	1987.32
545.94	1997.11
546.29	2007.01
546.65	2017.03
547.01	2026.31
547.36	2034.87
547.72	2043.50
548.07	2051.47
548.43	2059.55
548.79	2067.60
549.14	2075.11
549.50	2082.41
549.86	2090.13
550.21	2097.53
550.57	2104.62
550.92	2111.03
551.28	2118.02
551.64	2125.06
551.99	2131.55
552.35	2137.81
552.70	2143.97
553.06	2149.89
553.41	2156.34
553.77	2162.19
554.13	2168.26
554.48	2174.37
554.84	2179.94
555.19	2185.11
555.55	2190.32
555.90	2194.84
556.26	2199.69
556.61	2204.29
556.97	2208.61
557.32	2212.64
557.68	2216.59
558.03	2220.82
558.39	2224.54
558.74	2229.12
559.10	2232.91
559.45	2236.58
559.81	2240.76
560.16	2244.64
560.52	2247.98
560.87	2251.27
561.23	2254.03
561.58	2256.75
561.94	2259.22
562.29	2261.53
562.64	2264.18
563.00	2266.67
563.35	2270.13
563.71	2273.15
564.06	2276.55
564.42	2279.48
564.77	2282.10
565.12	2284.49
565.48	2286.43
565.83	2288.35
566.19	2289.73
566.54	2290.61
566.89	2291.75
567.25	2292.54
567.60	2293.87
567.96	2295.67
568.31	2296.45
568.66	2297.67
569.02	2298.36
569.37	2298.74
569.72	2299.61
570.08	2299.83
570.43	2299.98
570.78	2299.36
571.14	2297.97
571.49	2296.61
571.84	2296.25
572.20	2295.17
572.55	2294.13
572.90	2292.50
573.26	2291.18
573.61	2289.43
573.96	2287.91
574.31	2284.88
574.67	2281.85
575.02	2278.18
575.37	2274.65
575.72	2271.01
576.08	2267.63
576.43	2264.24
576.78	2260.69
577.13	2257.64
577.49	2254.52
577.84	2250.87
578.19	2247.26
578.54	2243.73
578.90	2239.57
579.25	2233.95
579.60	2228.91
579.95	2223.88
580.30	2218.95
580.66	2213.73
581.01	2208.80
581.36	2203.79
581.71	2199.70
582.06	2195.26
582.42	2190.96
582.77	2185.75
583.12	2181.22
583.47	2176.51
583.82	2171.63
584.17	2166.27
584.53	2160.78
584.88	2155.37
585.23	2149.79
585.58	2144.36
585.93	2138.78
586.28	2133.89
586.63	2128.93
586.98	2124.07
587.34	2119.37
587.69	2114.58
588.04	2109.41
588.39	2103.75
588.74	2097.36
589.09	2091.35
589.44	2084.63
589.79	2078.56
590.14	2072.97
590.49	2066.35
590.84	2060.09
591.19	2054.10
591.54	2047.74
591.89	2040.43
592.25	2033.68
592.60	2026.49
592.95	2018.96
593.30	2011.68
593.65	2004.15
594.00	1997.03
594.35	1989.63
594.70	1981.52
595.05	1974.35
595.40	1967.18
595.75	1959.81
596.10	1953.60
596.45	1946.79
596.80	1940.63
597.15	1933.94
597.50	1926.82
597.85	1920.43
598.19	1913.69
598.54	1906.66
598.89	1899.86
599.24	1893.99
599.59	1887.17
599.94	1880.91
600.29	1874.64
600.64	1868.03
600.99	1860.63
601.34	1853.94
601.69	1847.06
602.04	1840.40
602.39	1833.14
602.74	1826.12
603.08	1819.46
603.43	1812.78
603.78	1805.48
604.13	1798.20
604.48	1791.04
604.83	1784.22
605.18	1777.36
605.53	1769.38
605.87	1761.35
606.22	1754.26
606.57	1746.33
606.92	1739.02
607.27	1731.98
607.62	1725.04
607.96	1717.89
608.31	1711.31
608.66	1703.69
609.01	1696.15
609.36	1688.59
609.70	1680.42
610.05	1672.38
610.40	1664.60
610.75	1656.25
611.10	1648.68
611.44	1640.27
611.79	1632.22
612.14	1623.61
612.49	1614.33
612.83	1606.02
613.18	1597.84
613.53	1589.77
613.88	1581.30
614.22	1573.06
614.57	1564.32
614.92	1556.32
615.27	1548.70
615.61	1540.37
615.96	1532.30
616.31	1524.64
616.65	1517.30
617.00	1509.76
617.35	1502.27
617.70	1493.99
618.04	1485.43
618.39	1477.16
618.74	1469.67
619.08	1461.29
619.43	1453.70
619.78	1446.84
620.12	1439.77
620.47	1432.25
620.82	1424.05
621.16	1416.51
621.51	1408.82
621.85	1401.25
622.20	1392.68
622.55	1384.32
622.89	1376.42
623.24	1368.81
623.59	1361.47
623.93	1353.93
624.28	1346.72
624.62	1339.13
624.97	1331.88
625.32	1325.11
625.66	1318.15
626.01	1310.94
626.35	1303.61
626.70	1295.92
627.04	1288.13
627.39	1280.23
627.73	1272.86
628.08	1265.90
628.43	1258.60
628.77	1251.29
629.12	1243.69
629.46	1236.61
629.81	1229.19
630.15	1221.89
630.50	1214.47
630.84	1206.23
631.19	1198.23
631.53	1190.73
631.88	1183.11
632.22	1175.49
632.57	1168.22
632.91	1160.61
633.26	1153.21
633.60	1145.74
633.95	1138.51
634.29	1131.49
634.64	1124.84
634.98	1117.48
635.32	1110.36
635.67	1103.70
636.01	1097.06
636.36	1090.28
636.70	1083.67
637.05	1077.04
637.39	1070.69
637.73	1064.18
638.08	1058.33
638.42	1052.37
638.77	1045.99
639.11	1039.48
639.45	1033.14
639.80	1026.47
640.14	1020.07
640.49	1013.53
640.83	1007.23
641.17	1001.07
641.52	994.72
641.86	988.19
642.20	982.40
642.55	976.01
642.89	969.60
643.23	963.01
643.58	957.28
643.92	951.10
644.26	945.16
644.61	939.08
644.95	933.05
645.29	926.47
645.64	919.72
645.98	913.30
646.32	907.34
646.66	901.28
647.01	895.45
647.35	889.67
647.69	883.79
648.04	878.22
648.38	872.39
648.72	866.42
649.06	860.38
649.41	854.46
649.75	848.54
650.09	842.56
650.43	836.83
650.78	830.63
651.12	824.71
651.46	818.95
651.80	813.28
652.14	807.92
652.49	802.53
652.83	797.31
653.17	791.69
653.51	786.02
653.85	780.59
654.20	774.96
654.54	768.99
654.88	763.19
655.22	757.34
655.56	751.60
655.90	746.15
656.25	740.94
656.59	735.53
656.93	730.50
657.27	725.37
657.61	719.89
657.95	714.80
658.29	709.72
658.64	704.36
658.98	698.98
659.32	693.52
659.66	688.30
660.00	683.08
660.34	678.12
660.68	673.24
661.02	668.23
661.36	663.58
661.70	659.11
662.05	654.74
662.39	650.41
662.73	645.97
663.07	641.57
663.41	637.17
663.75	632.68
664.09	628.08
664.43	623.67
664.77	619.60
665.11	615.34
665.45	611.21
665.79	607.21
666.13	603.03
666.47	598.91
666.81	594.72
667.15	590.52
667.49	586.59
667.83	582.71
668.17	578.77
668.51	574.64
668.85	570.60
669.19	566.75
669.53	562.96
669.87	559.09
670.21	555.38
670.55	551.71
670.89	548.27
671.23	544.85
671.57	541.37
671.91	537.84
672.25	534.33
672.58	530.75
672.92	527.29
673.26	524.18
673.60	521.04
673.94	517.97
674.28	515.09
674.62	512.13
674.96	509.06
675.30	506.18
675.64	503.26
675.97	500.50
676.31	497.61
676.65	494.64
676.99	491.96
677.33	489.07
677.67	486.23
678.01	483.26
678.34	480.26
678.68	477.35
679.02	474.50
679.36	471.76
679.70	469.07
680.04	466.33
680.37	463.41
680.71	460.56
681.05	457.99
681.39	455.25
681.73	452.54
682.06	450.03
682.40	447.48
682.74	444.94
683.08	442.35
683.42	439.76
683.75	437.30
684.09	434.71
684.43	432.27
684.77	429.81
685.10	427.39
685.44	425.05
685.78	422.80
686.12	420.54
686.45	418.17
686.79	415.85
687.13	413.68
687.46	411.54
687.80	409.43
688.14	407.08
688.48	405.06
688.81	402.83
689.15	400.63
689.49	398.43
689.82	396.34
690.16	394.24
690.50	392.31
690.83	390.31
691.17	388.33
691.51	386.41
691.84	384.53
692.18	382.58
692.52	380.63
692.85	378.64
693.19	376.74
693.52	374.95
693.86	373.15
694.20	371.34
694.53	369.57
694.87	367.67
695.21	365.90
695.54	364.06
695.88	362.36
696.21	360.68
696.55	359.01
696.88	357.30
697.22	355.61
697.56	353.99
697.89	352.35
698.23	350.74
698.56	349.14
698.90	347.53
699.23	345.92
699.57	344.35
699.90	342.86
700.24	341.30
700.58	339.76
700.91	338.24
701.25	336.81
701.58	335.42
701.92	334.10
702.25	332.76
702.59	331.36
702.92	330.00
703.26	328.63
703.59	327.36
703.93	326.18
704.26	324.98
704.60	323.69
704.93	322.44
705.26	321.20
705.60	320.01
705.93	318.86
706.27	317.78
706.60	316.70
706.94	315.58
707.27	314.48
707.61	313.44
707.94	312.41
708.27	311.29
708.61	310.26
708.94	309.25
709.28	308.25
709.61	307.31
709.94	306.43
710.28	305.43
710.61	304.48
710.95	303.44
711.28	302.52
711.61	301.53
711.95	300.64
712.28	299.67
712.61	298.69
712.95	297.76
713.28	296.90
713.61	296.05
713.95	295.13
714.28	294.29
714.61	293.46
714.95	292.62
715.28	291.78
715.61	290.88
715.95	290.00
716.28	289.15
716.61	288.32
716.95	287.47
717.28	286.72
717.61	285.92
717.94	285.17
718.28	284.38
718.61	283.67
718.94	282.96
719.27	282.33
719.61	281.66
719.94	281.01
720.27	280.29
720.60	279.63
720.94	279.05
721.27	278.48
721.60	277.87
721.93	277.30
722.27	276.75
722.60	276.22
722.93	275.65
723.26	275.11
723.59	274.57
723.93	274.02
724.26	273.49
724.59	272.96
724.92	272.43
725.25	271.93
725.59	271.44
725.92	270.89
726.25	270.37
726.58	269.92
726.91	269.43
727.24	268.94
727.57	268.45
727.91	267.94
728.24	267.44
728.57	266.91
728.90	266.42
729.23	265.90
729.56	265.45
729.89	264.98
730.22	264.49
730.55	264.01
730.89	263.56
731.22	263.13
731.55	262.64
731.88	262.18
732.21	261.74
732.54	261.29
732.87	260.87
733.20	260.43
733.53	260.03
733.86	259.63
734.19	259.27
734.52	258.90
734.85	258.62
735.18	258.21
735.51	257.87
735.84	257.49
736.17	257.16
736.50	256.78
736.83	256.53
737.16	256.19
737.49	255.85
737.82	255.50
738.15	255.14
738.48	254.84
738.81	254.51
739.14	254.16
739.47	253.84
739.80	253.55
740.13	253.30
740.46	252.99
740.79	252.67
741.12	252.36
741.45	252.05
741.78	251.67
742.11	251.40
742.44	251.08
742.77	250.81
743.10	250.52
743.43	250.25
743.75	249.90
744.08	249.76
744.41	249.48
744.74	249.21
745.07	248.95
745.40	248.72
745.73	248.49
746.06	248.25
746.39	248.00
746.71	247.72
747.04	247.40
747.37	247.11
747.70	246.90
748.03	246.68
748.36	246.46
748.68	246.24
749.01	245.97
749.34	245.78
749.67	245.52
750.00	245.30
750.33	245.13
750.65	244.92
750.98	244.58
751.31	244.40
751.64	244.23
751.97	244.06
752.29	243.83
752.62	243.60
752.95	243.36
753.28	243.16
753.60	242.99
753.93	242.89
754.26	242.71
754.59	242.49
754.91	242.26
755.24	242.03
755.57	241.82
755.90	241.67
756.22	241.47
756.55	241.28
756.88	241.11
757.20	240.88
757.53	240.67
757.86	240.51
758.19	240.34
758.51	240.15
758.84	239.97
759.17	239.82
759.49	239.69
759.82	239.59
760.15	239.42
760.47	239.23
760.80	239.06
761.13	238.91
761.45	238.73
761.78	238.60
762.11	238.46
762.43	238.34
762.76	238.20
763.08	238.09
763.41	237.97
763.74	237.84
764.06	237.68
764.39	237.55
764.71	237.39
765.04	237.25
765.37	237.12
765.69	236.98
766.02	236.82
766.34	236.68
766.67	236.55
767.00	236.45
767.32	236.43
767.65	236.32
767.97	236.21
768.30	236.11
768.62	235.93
768.95	235.82
769.27	235.70
769.60	235.57
769.92	235.41
770.25	235.28
770.57	235.13
770.90	235.02
771.22	234.91
771.55	234.82
771.87	234.72
772.20	234.58
772.52	234.58
772.85	234.56
773.17	234.47
773.50	234.34
773.82	234.21
774.15	234.04
774.47	233.91
774.80	233.78
775.12	233.70
775.45	233.64
775.77	233.53
776.09	233.44
776.42	233.37
776.74	233.34
777.07	233.25
777.39	233.14
777.72	233.06
778.04	233.00
778.36	232.91
778.69	232.81
779.01	232.76
779.33	232.58
779.66	232.42
779.98	232.35
780.31	232.29
780.63	232.29
780.95	232.23
781.28	232.13
781.60	232.09
781.92	232.02
782.25	231.95
782.57	231.90
782.89	231.80
783.22	231.75
783.54	231.65
783.86	231.60
784.19	231.58
784.51	231.54
784.83	231.48
785.16	231.39
785.48	231.38
785.80	231.32
786.12	231.29
786.45	231.28
786.77	231.21
787.09	231.15
787.42	231.03
787.74	230.99
788.06	230.99
788.38	230.94
788.71	230.88
789.03	230.85
789.35	230.84
789.67	230.80
789.99	230.77
790.32	230.70
790.64	230.66
790.96	230.70
791.28	230.65
791.61	230.61
791.93	230.59
792.25	230.54
792.57	230.56
792.89	230.50
793.21	230.44
793.54	230.40
793.86	230.38
794.18	230.34
794.50	230.30
794.82	230.23
795.14	230.18
795.47	230.16
795.79	230.14
796.11	230.07
796.43	230.07
796.75	230.02
797.07	230.01
797.39	229.97
797.71	229.88
798.04	229.85
798.36	229.81
798.68	229.83
799.00	229.80
799.32	229.75
799.64	229.75
799.96	229.71
800.28	229.72
800.60	229.65
800.92	229.66
801.24	229.60
801.56	229.60
801.89	229.57
802.21	229.56
802.53	229.52
802.85	229.52
803.17	229.53
803.49	229.48
803.81	229.44
804.13	229.42
804.45	229.36
804.77	229.35
805.09	229.32
805.41	229.25
805.73	229.19
806.05	229.13
806.37	229.09
806.69	229.06
807.01	229.04
807.33	229.05
807.65	228.98
807.97	229.04
808.28	228.99
808.60	228.98
808.92	228.94
809.24	228.96
809.56	228.92
809.88	228.86
810.20	228.85
810.52	228.85
810.84	228.79
811.16	228.78
811.48	228.77
811.80	228.78
812.12	228.74
812.43	228.75
812.75	228.77
813.07	228.73
813.39	228.71
813.71	228.65
814.03	228.61
814.35	228.59
814.67	228.51
814.98	228.50
815.30	228.47
815.62	228.42
815.94	228.36
816.26	228.36
816.58	228.32
816.89	228.28
817.21	228.26
817.53	228.25
817.85	228.22
818.17	228.16
818.48	228.10
818.80	228.08
819.12	228.03
819.44	227.96
819.76	227.94
820.07	227.91
820.39	227.89
820.71	227.90
821.03	227.89
821.34	227.86
821.66	227.84
821.98	227.80
822.30	227.77
822.61	227.78
822.93	227.73
823.25	227.69
823.57	227.67
823.88	227.66
824.20	227.68
824.52	227.65
824.83	227.64
825.15	227.60
825.47	227.61
825.79	227.60
826.10	227.60
826.42	227.56
826.74	227.59
827.05	227.55
827.37	227.53
827.69	227.53
828.00	227.52
828.32	227.51
828.64	227.51
828.95	227.58
829.27	227.54
829.58	227.52
829.90	227.53
830.22	227.52
830.53	227.48
830.85	227.44
831.17	227.40
831.48	227.41
831.80	227.41
832.11	227.37
832.43	227.33
832.75	227.31
833.06	227.35
833.38	227.29
833.69	227.29
834.01	227.28
834.32	227.25
834.64	227.21
834.96	227.23
835.27	227.22
835.59	227.18
835.90	227.19
836.22	227.23
836.53	227.22
836.85	227.21
837.16	227.33
837.48	227.36
837.79	227.40
838.11	227.40
838.42	227.38
838.74	227.43
839.05	227.45
839.37	227.49
839.68	227.44
840.00	227.46
840.31	227.48
840.63	227.50
840.94	227.50
841.26	227.50
841.57	227.50
841.88	227.50
842.20	227.47
842.51	227.45
842.83	227.42
843.14	227.51
843.46	227.53
843.77	227.47
844.08	227.47
844.40	227.46
844.71	227.47
845.03	227.50
845.34	227.47
845.65	227.47
845.97	227.47
846.28	227.49
846.60	227.47
846.91	227.46
847.22	227.44
847.54	227.46
847.85	227.45
848.16	227.45
848.48	227.45
848.79	227.47
849.10	227.48
849.42	227.47
849.73	227.36
850.04	227.33
850.36	227.28
850.67	227.28
850.98	227.26
851.30	227.24
851.61	227.23
851.92	227.27
852.23	227.27
852.55	227.27
852.86	227.27
853.17	227.30
853.49	227.30
853.80	227.32
854.11	227.34
854.42	227.36
854.74	227.34
855.05	227.32
855.36	227.29
855.67	227.27
855.99	227.26
856.30	227.38
856.61	227.39
856.92	227.37
857.23	227.36
857.55	227.36
857.86	227.37
858.17	227.36
858.48	227.33
858.79	227.28
859.11	227.26
859.42	227.24
859.73	227.21
860.04	227.22
860.35	227.16
860.66	227.12
860.98	227.09
861.29	227.08
861.60	227.05
861.91	227.06
862.22	227.05
862.53	227.02
862.84	226.91
863.16	226.91
863.47	226.89
863.78	226.87
864.09	226.87
864.40	226.83
864.71	226.81
865.02	226.79
865.33	226.79
865.64	226.75
865.95	226.78
866.27	226.81
866.58	226.79
866.89	226.80
867.20	226.77
867.51	226.74
867.82	226.73
868.13	226.78
868.44	226.78
868.75	226.79
869.06	226.81
869.37	226.79
869.68	226.77
869.99	226.78
870.30	226.78
870.61	226.79
870.92	226.78
871.23	226.77
871.54	226.77
871.85	226.82
872.16	226.84
872.47	226.85
872.78	226.81
873.09	226.84
873.40	226.85
873.71	226.87
874.02	226.92
874.33	226.92
874.64	226.88
874.95	226.88
875.26	226.87
875.56	226.88
875.87	226.88
876.18	226.89
876.49	226.98
876.80	226.95
877.11	226.95
877.42	226.96
877.73	226.97
878.04	226.98
878.35	226.98
878.66	226.99
878.96	226.98
879.27	226.98
879.58	226.96
879.89	226.94
880.20	226.97
880.51	226.92
880.82	226.95
881.12	226.96
881.43	226.93
881.74	226.96
882.05	226.94
882.36	226.95
882.67	226.97
882.97	226.90
883.28	226.91
883.59	226.90
883.90	226.92
884.21	226.96
884.51	226.94
884.82	226.92
885.13	226.91
885.44	226.90
885.74	226.89
886.05	226.89
886.36	226.90
886.67	226.85
886.98	226.92
887.28	226.92
887.59	226.94
887.90	226.98
888.20	226.94
888.51	226.95
888.82	226.96
889.13	226.95
889.43	227.01
889.74	227.02
890.05	227.01
890.35	226.99
890.66	226.97
890.97	226.97
891.28	226.95
891.58	226.95
891.89	226.92
892.20	226.91
892.50	226.91
892.81	226.91
893.12	226.91
893.42	226.88
893.73	226.87
894.04	226.84
894.34	226.79
894.65	226.79
894.95	226.75
895.26	226.73
895.57	226.75
895.87	226.65
896.18	226.63
896.48	226.60
896.79	226.59
897.10	226.58
897.40	226.56
897.71	226.58
898.01	226.55
898.32	226.57
898.63	226.57
898.93	226.56
899.24	226.53
899.54	226.49
899.85	226.45
900.15	226.41
900.46	226.37
900.76	226.38
901.07	226.33
901.38	226.34
901.68	226.31
901.99	226.25
902.29	226.25
902.60	226.24
902.90	226.24
903.21	226.22
903.51	226.22
903.82	226.25
904.12	226.23
904.43	226.22
904.73	226.21
905.03	226.21
905.34	226.28
905.64	226.29
905.95	226.31
906.25	226.29
906.56	226.31
906.86	226.33
907.17	226.34
907.47	226.36
907.77	226.38
908.08	226.39
908.38	226.44
908.69	226.47
908.99	226.47
909.30	226.48
909.60	226.48
909.90	226.53
910.21	226.50
910.51	226.50
910.81	226.53
911.12	226.54
911.42	226.54
911.73	226.46
912.03	226.46
912.33	226.51
912.64	226.53
912.94	226.52
913.24	226.53
913.55	226.53
913.85	226.56
914.15	226.56
914.46	226.60
914.76	226.58
915.06	226.55
915.37	226.54
915.67	226.54
915.97	226.57
916.27	226.54
916.58	226.55
916.88	226.55
917.18	226.53
917.49	226.59
917.79	226.60
918.09	226.62
918.39	226.65
918.70	226.63
919.00	226.64
919.30	226.73
919.60	226.72
919.91	226.72
920.21	226.73
920.51	226.71
920.81	226.73
921.12	226.74
921.42	226.77
921.72	226.80
922.02	226.82
922.32	226.80
922.63	226.79
922.93	226.86
923.23	226.89
923.53	226.89
923.83	226.84
924.13	226.84
924.44	226.85
924.74	226.89
925.04	226.94
925.34	226.91
925.64	226.82
925.94	226.82
926.24	226.88
926.55	226.86
926.85	226.89
927.15	226.85
927.45	226.85
927.75	226.81
928.05	226.79
928.35	226.78
928.65	226.82
928.95	226.83
929.26	226.76
929.56	226.74
929.86	226.74
930.16	226.72
930.46	226.67
930.76	226.66
931.06	226.59
931.36	226.52
931.66	226.56
931.96	226.57
932.26	226.57
932.56	226.49
932.86	226.50
933.16	226.50
933.46	226.45
933.76	226.44
934.06	226.48
934.36	226.50
934.66	226.48
934.96	226.43
935.26	226.43
935.56	226.44
935.86	226.41
936.16	226.41
936.46	226.39
936.76	226.43
937.06	226.38
937.36	226.39
937.66	226.40
937.96	226.38
938.26	226.34
938.56	226.32
938.86	226.34
939.16	226.35
939.46	226.34
939.76	226.35
940.06	226.32
940.35	226.27
940.65	226.23
940.95	226.23
941.25	226.24
941.55	226.22
941.85	226.19
942.15	226.22
942.45	226.24
942.75	226.22
943.04	226.22
943.34	226.22
943.64	226.22
943.94	226.21
944.24	226.22
944.54	226.24
944.84	226.24
945.13	226.22
945.43	226.19
945.73	226.21
946.03	226.25
946.33	226.29
946.62	226.30
946.92	226.31
947.22	226.31
947.52	226.36
947.82	226.35
948.11	226.39
948.41	226.40
948.71	226.39
949.01	226.45
949.31	226.47
949.60	226.50
949.90	226.54
950.20	226.57
950.50	226.58
950.79	226.59
951.09	226.64
951.39	226.63
951.69	226.61
951.98	226.62
952.28	226.61
952.58	226.59
952.87	226.59
953.17	226.63
953.47	226.62
953.76	226.61
954.06	226.61
954.36	226.56
954.66	226.52
954.95	226.55
955.25	226.54
955.55	226.53
955.84	226.52
956.14	226.53
956.44	226.55
956.73	226.51
957.03	226.53
957.32	226.52
957.62	226.58
957.92	226.64
958.21	226.62
958.51	226.72
958.81	226.75
959.10	226.78
959.40	226.80
959.69	226.80
959.99	226.79
960.29	226.77
960.58	226.78
960.88	226.83
961.17	226.83
961.47	226.82
961.76	226.83
962.06	226.87
962.36	226.82
962.65	226.81
962.95	226.83
963.24	226.77
963.54	226.77
963.83	226.76
964.13	226.74
964.42	226.72
964.72	226.64
965.01	226.64
965.31	226.61
965.60	226.58
965.90	226.64
966.19	226.62
966.49	226.65
966.78	226.64
967.08	226.62
967.37	226.61
967.67	226.58
967.96	226.57
968.26	226.54
968.55	226.54
968.85	226.55
969.14	226.51
969.43	226.52
969.73	226.52
970.02	226.48
970.32	226.46
970.61	226.45
970.91	226.43
971.20	226.37
971.49	226.35
971.79	226.34
972.08	226.29
972.38	226.27
972.67	226.23
972.96	226.23
973.26	226.22
973.55	226.20
973.85	226.18
974.14	226.16
974.43	226.14
974.73	226.13
975.02	226.08
975.31	226.09
975.61	226.08
975.90	226.03
976.19	226.03
976.49	226.05
976.78	226.03
977.07	226.03
977.37	226.04
977.66	226.04
977.95	226.02
978.24	226.02
978.54	226.06
978.83	226.05
979.12	226.07
979.42	226.08
979.71	226.06
980.00	226.10
980.29	226.11
980.59	226.09
980.88	226.12
981.17	226.15
981.46	226.16
981.76	226.19
982.05	226.23
982.34	226.24
982.63	226.25
982.93	226.25
983.22	226.30
983.51	226.32
983.80	226.37
984.09	226.42
984.39	226.40
984.68	226.41
984.97	226.45
985.26	226.43
985.55	226.42
985.85	226.44
986.14	226.47
986.43	226.51
986.72	226.53
987.01	226.54
987.30	226.54
987.59	226.55
987.89	226.57
988.18	226.54
988.47	226.57
988.76	226.58
989.05	226.62
989.34	226.59
989.63	226.64
989.92	226.64
990.22	226.63
990.51	226.64
990.80	226.60
991.09	226.65
991.38	226.68
991.67	226.71
991.96	226.70
992.25	226.69
992.54	226.67
992.83	226.68
993.12	226.64
993.41	226.68
993.70	226.71
993.99	226.76
994.28	226.81
994.58	226.81
994.87	226.78
995.16	226.79
995.45	226.78
995.74	226.71
996.03	226.69
996.32	226.70
996.61	226.74
996.90	226.79
997.19	226.77
997.48	226.79
997.77	226.78
998.06	226.80
998.34	226.80
998.63	226.80
998.92	226.84
999.21	226.85
999.50	226.84
999.79	226.81
1000.08	226.79
1000.37	226.77
1000.66	226.76
1000.95	226.78
1001.24	226.77
1001.53	226.82
1001.82	226.84
1002.11	226.80
1002.40	226.79
1002.68	226.79
1002.97	226.82
1003.26	226.77
1003.55	226.73
1003.84	226.70
1004.13	226.68
1004.42	226.64
1004.71	226.63
1004.99	226.59
1005.28	226.60
1005.57	226.58
1005.86	226.56
1006.15	226.53
1006.44	226.48
1006.72	226.48
1007.01	226.45
1007.30	226.42
1007.59	226.39
1007.88	226.36
1008.17	226.37
1008.45	226.37
1008.74	226.32
1009.03	226.28
1009.32	226.27
1009.60	226.22
1009.89	226.20
1010.18	226.16
1010.47	226.15
1010.76	226.11
1011.04	226.09
1011.33	226.08
1011.62	226.07
1011.91	226.05
1012.19	226.04
1012.48	226.06
1012.77	226.05
1013.05	226.09
1013.34	226.10
1013.63	226.09
1013.92	226.11
1014.20	226.10
1014.49	226.07
1014.78	226.09
1015.06	226.08
1015.35	226.08
1015.64	226.12
1015.92	226.11
1016.21	226.10
1016.50	226.13
1016.78	226.16
1017.07	226.16
1017.36	226.14
1017.64	226.13
1017.93	226.13
1018.22	226.13
1018.50	226.14
1018.79	226.10
1019.08	226.05
1019.36	226.03
1019.65	226.01
1019.93	226.02
1020.22	226.02
1020.51	226.10
1020.79	226.08
1021.08	226.22
1021.36	226.22
1021.65	225.46
1021.94	226.11
1022.22	225.85
1022.51	226.06
1022.79	226.62
1023.08	225.92
1023.36	227.61
1023.65	225.99
>>>>>End Processed Spectral Data<<<<<
