SpectraSuite Data File
++++++++++++++++++++++++++++++++++++
Date: Fri Feb 01 17:14:29 EST 2013
User: group
Dark Spectrum Present: No
Reference Spectrum Present: No
Number of Sampled Component Spectra: 1
Spectrometers: USB2E7196
Integration Time (usec): 35000 (USB2E7196)
Spectra Averaged: 100 (USB2E7196)
Boxcar Smoothing: 10 (USB2E7196)
Correct for Electrical Dark: No (USB2E7196)
Strobe/Lamp Enabled: No (USB2E7196)
Correct for Detector Non-linearity: No (USB2E7196)
Correct for Stray Light: No (USB2E7196)
Number of Pixels in Processed Spectrum: 2048
>>>>>Begin Processed Spectral Data<<<<<
339.09	0.00
339.48	213.30
339.86	214.33
340.24	216.12
340.63	217.86
341.01	220.38
341.39	220.43
341.78	221.72
342.16	223.27
342.54	223.97
342.93	211.80
343.31	222.51
343.69	223.06
344.07	223.56
344.46	223.99
344.84	224.38
345.22	224.63
345.60	224.88
345.99	225.06
346.37	225.17
346.75	225.25
347.13	225.35
347.52	225.43
347.90	225.51
348.28	225.56
348.66	225.59
349.05	225.60
349.43	225.64
349.81	225.69
350.19	225.78
350.57	225.87
350.96	225.97
351.34	226.05
351.72	226.14
352.10	226.22
352.48	226.28
352.87	226.29
353.25	226.37
353.63	226.42
354.01	226.46
354.39	226.54
354.77	226.61
355.15	226.71
355.54	226.77
355.92	226.79
356.30	226.83
356.68	226.94
357.06	226.98
357.44	227.01
357.82	227.06
358.20	227.13
358.58	227.16
358.97	227.21
359.35	227.28
359.73	227.37
360.11	227.42
360.49	227.49
360.87	227.56
361.25	227.63
361.63	227.70
362.01	227.78
362.39	227.80
362.77	227.80
363.15	227.79
363.53	227.78
363.91	227.81
364.29	227.85
364.67	227.79
365.05	227.80
365.43	227.84
365.81	227.86
366.19	227.85
366.57	227.86
366.95	227.85
367.33	227.78
367.71	227.72
368.09	227.71
368.47	227.68
368.85	227.65
369.23	227.60
369.61	227.53
369.99	227.52
370.37	227.49
370.75	227.53
371.13	227.48
371.51	227.43
371.89	227.36
372.27	227.30
372.65	227.24
373.03	227.18
373.41	227.10
373.78	227.04
374.16	226.94
374.54	226.84
374.92	226.77
375.30	226.71
375.68	226.61
376.06	226.56
376.44	226.46
376.82	226.38
377.19	226.30
377.57	226.24
377.95	226.12
378.33	226.03
378.71	225.89
379.09	225.83
379.47	225.80
379.84	225.76
380.22	225.67
380.60	225.56
380.98	225.50
381.36	225.45
381.73	225.38
382.11	225.35
382.49	225.32
382.87	225.24
383.25	225.18
383.62	225.27
384.00	225.15
384.38	225.13
384.76	225.13
385.13	225.10
385.51	225.04
385.89	224.95
386.27	224.88
386.64	224.86
387.02	224.84
387.40	224.77
387.78	224.70
388.15	224.67
388.53	224.66
388.91	224.64
389.29	224.60
389.66	224.60
390.04	224.55
390.42	224.53
390.79	224.53
391.17	224.53
391.55	224.41
391.92	224.45
392.30	224.47
392.68	224.43
393.05	224.43
393.43	224.44
393.81	224.47
394.18	224.49
394.56	224.52
394.94	224.51
395.31	224.55
395.69	224.63
396.06	224.69
396.44	224.72
396.82	224.75
397.19	224.85
397.57	224.90
397.95	224.97
398.32	224.99
398.70	225.08
399.07	225.17
399.45	225.26
399.82	225.31
400.20	225.34
400.58	225.44
400.95	225.50
401.33	225.58
401.70	225.74
402.08	225.84
402.45	225.95
402.83	226.08
403.20	226.19
403.58	226.27
403.95	226.40
404.33	226.54
404.71	226.66
405.08	226.81
405.46	226.93
405.83	227.09
406.21	227.28
406.58	227.44
406.96	227.57
407.33	227.72
407.70	227.91
408.08	228.20
408.45	228.41
408.83	228.65
409.20	228.89
409.58	229.11
409.95	229.39
410.33	229.62
410.70	229.87
411.08	230.14
411.45	230.46
411.82	230.75
412.20	231.10
412.57	231.52
412.95	231.84
413.32	232.24
413.69	232.65
414.07	233.09
414.44	233.55
414.82	234.07
415.19	234.63
415.56	235.19
415.94	235.73
416.31	236.36
416.68	236.98
417.06	237.67
417.43	238.34
417.81	239.13
418.18	239.91
418.55	240.74
418.93	241.66
419.30	242.57
419.67	243.51
420.04	244.48
420.42	245.47
420.79	246.64
421.16	247.79
421.54	248.96
421.91	250.15
422.28	251.42
422.66	252.73
423.03	254.06
423.40	255.41
423.77	256.84
424.15	258.27
424.52	259.79
424.89	261.44
425.26	262.99
425.64	264.46
426.01	266.10
426.38	267.77
426.75	269.45
427.13	271.19
427.50	273.00
427.87	274.92
428.24	276.83
428.61	278.61
428.99	280.65
429.36	282.77
429.73	284.88
430.10	286.90
430.47	289.01
430.85	291.18
431.22	293.43
431.59	295.82
431.96	298.14
432.33	300.66
432.70	303.08
433.08	305.94
433.45	308.63
433.82	311.27
434.19	314.20
434.56	317.09
434.93	319.80
435.30	322.51
435.68	325.43
436.05	328.34
436.42	331.19
436.79	333.74
437.16	336.52
437.53	339.45
437.90	342.37
438.27	345.17
438.64	348.06
439.01	350.80
439.38	353.10
439.75	355.31
440.13	357.84
440.50	360.21
440.87	362.14
441.24	364.10
441.61	366.31
441.98	367.89
442.35	369.71
442.72	371.63
443.09	373.49
443.46	374.55
443.83	375.14
444.20	375.67
444.57	376.52
444.94	376.82
445.31	377.17
445.68	377.50
446.05	377.59
446.42	377.23
446.79	376.76
447.16	376.30
447.53	376.00
447.90	374.84
448.27	373.72
448.64	372.12
449.01	371.03
449.37	369.06
449.74	367.17
450.11	364.94
450.48	362.46
450.85	359.88
451.22	357.73
451.59	355.71
451.96	353.80
452.33	351.15
452.70	348.77
453.07	345.89
453.43	342.94
453.80	340.13
454.17	337.42
454.54	334.81
454.91	332.09
455.28	329.36
455.65	326.85
456.02	324.35
456.38	322.17
456.75	319.41
457.12	317.12
457.49	314.82
457.86	312.60
458.23	310.67
458.59	308.60
458.96	306.45
459.33	304.55
459.70	302.61
460.07	301.07
460.43	299.32
460.80	297.68
461.17	296.24
461.54	294.72
461.91	293.23
462.27	291.80
462.64	290.53
463.01	289.14
463.38	287.79
463.74	286.37
464.11	285.16
464.48	284.13
464.85	282.97
465.21	282.10
465.58	281.12
465.95	279.99
466.32	279.05
466.68	278.10
467.05	277.20
467.42	276.31
467.78	275.36
468.15	274.44
468.52	273.72
468.88	272.86
469.25	272.05
469.62	271.43
469.98	270.71
470.35	270.03
470.72	269.41
471.08	268.73
471.45	268.17
471.82	267.63
472.18	267.07
472.55	266.61
472.92	266.08
473.28	265.62
473.65	265.20
474.02	264.77
474.38	264.44
474.75	264.08
475.11	263.74
475.48	263.49
475.85	263.29
476.21	263.10
476.58	262.91
476.94	262.76
477.31	262.57
477.67	262.43
478.04	262.31
478.41	262.23
478.77	262.29
479.14	262.24
479.50	262.24
479.87	262.28
480.23	262.36
480.60	262.39
480.96	262.50
481.33	262.68
481.69	262.87
482.06	263.04
482.42	263.22
482.79	263.47
483.15	263.79
483.52	264.16
483.88	264.45
484.25	264.84
484.61	265.29
484.98	265.75
485.34	266.28
485.71	266.88
486.07	267.51
486.44	268.09
486.80	268.81
487.17	269.57
487.53	270.40
487.90	271.25
488.26	272.21
488.62	273.20
488.99	274.16
489.35	275.19
489.72	276.33
490.08	277.52
490.44	278.73
490.81	280.03
491.17	281.39
491.54	282.92
491.90	284.45
492.26	286.11
492.63	287.84
492.99	289.71
493.36	291.60
493.72	293.66
494.08	295.78
494.45	298.03
494.81	300.39
495.17	302.78
495.54	305.32
495.90	308.04
496.26	310.88
496.63	313.86
496.99	316.98
497.35	320.26
497.72	323.74
498.08	327.33
498.44	330.99
498.80	334.93
499.17	338.95
499.53	343.10
499.89	347.48
500.26	351.97
500.62	356.55
500.98	361.52
501.34	366.53
501.71	371.78
502.07	377.21
502.43	382.77
502.79	388.58
503.16	394.70
503.52	400.88
503.88	407.20
504.24	413.77
504.60	420.62
504.97	427.66
505.33	434.84
505.69	442.40
506.05	450.15
506.41	457.97
506.78	466.03
507.14	474.40
507.50	482.94
507.86	491.88
508.22	501.01
508.59	510.08
508.95	519.53
509.31	529.26
509.67	539.21
510.03	549.36
510.39	559.78
510.75	570.32
511.12	581.17
511.48	592.30
511.84	603.60
512.20	614.97
512.56	626.71
512.92	638.71
513.28	650.94
513.64	663.23
514.00	675.76
514.37	688.55
514.73	701.44
515.09	714.25
515.45	727.28
515.81	740.56
516.17	754.32
516.53	768.26
516.89	782.27
517.25	796.26
517.61	810.49
517.97	824.70
518.33	838.93
518.69	853.52
519.05	868.28
519.41	883.10
519.77	898.24
520.13	913.44
520.49	928.55
520.85	943.57
521.21	958.98
521.57	974.86
521.93	990.29
522.29	1006.23
522.65	1022.22
523.01	1038.20
523.37	1054.07
523.73	1069.88
524.09	1085.64
524.45	1101.51
524.81	1117.86
525.17	1134.30
525.53	1150.70
525.89	1167.25
526.25	1183.72
526.61	1199.76
526.97	1216.26
527.33	1232.51
527.68	1248.78
528.04	1264.98
528.40	1281.24
528.76	1297.91
529.12	1314.16
529.48	1330.73
529.84	1346.55
530.20	1362.81
530.56	1379.48
530.91	1396.48
531.27	1413.00
531.63	1429.24
531.99	1445.53
532.35	1461.24
532.71	1476.84
533.07	1492.98
533.42	1508.68
533.78	1524.53
534.14	1540.54
534.50	1555.55
534.86	1571.20
535.21	1586.13
535.57	1601.75
535.93	1617.01
536.29	1631.55
536.65	1646.25
537.00	1660.70
537.36	1675.78
537.72	1690.00
538.08	1704.12
538.44	1717.60
538.79	1731.21
539.15	1744.45
539.51	1757.92
539.87	1771.98
540.22	1785.29
540.58	1798.70
540.94	1811.67
541.29	1823.98
541.65	1836.37
542.01	1849.44
542.37	1861.53
542.72	1873.74
543.08	1885.39
543.44	1897.64
543.79	1908.85
544.15	1919.84
544.51	1931.34
544.87	1942.23
545.22	1953.19
545.58	1963.39
545.94	1973.37
546.29	1983.26
546.65	1993.26
547.01	2002.78
547.36	2011.48
547.72	2020.26
548.07	2028.35
548.43	2036.60
548.79	2044.75
549.14	2052.59
549.50	2060.07
549.86	2067.69
550.21	2075.18
550.57	2082.55
550.92	2089.27
551.28	2096.43
551.64	2103.65
551.99	2110.39
552.35	2116.76
552.70	2122.99
553.06	2129.28
553.41	2135.61
553.77	2141.73
554.13	2147.94
554.48	2153.83
554.84	2159.62
555.19	2164.92
555.55	2170.17
555.90	2174.96
556.26	2180.35
556.61	2185.10
556.97	2189.71
557.32	2194.31
557.68	2198.62
558.03	2203.10
558.39	2206.88
558.74	2211.67
559.10	2215.78
559.45	2219.55
559.81	2223.93
560.16	2228.01
560.52	2231.43
560.87	2235.07
561.23	2238.00
561.58	2240.98
561.94	2244.00
562.29	2246.51
562.64	2249.68
563.00	2252.50
563.35	2256.11
563.71	2259.46
564.06	2262.81
564.42	2265.92
564.77	2268.78
565.12	2271.56
565.48	2273.73
565.83	2276.01
566.19	2277.76
566.54	2278.81
566.89	2280.34
567.25	2281.28
567.60	2282.75
567.96	2284.72
568.31	2285.86
568.66	2287.33
569.02	2288.34
569.37	2289.05
569.72	2290.04
570.08	2290.46
570.43	2290.79
570.78	2290.56
571.14	2289.25
571.49	2288.36
571.84	2288.15
572.20	2287.22
572.55	2286.25
572.90	2284.85
573.26	2283.90
573.61	2282.26
573.96	2280.98
574.31	2278.19
574.67	2275.49
575.02	2272.15
575.37	2268.94
575.72	2265.50
576.08	2262.19
576.43	2258.91
576.78	2255.49
577.13	2252.55
577.49	2249.54
577.84	2246.48
578.19	2242.97
578.54	2239.51
578.90	2235.67
579.25	2230.42
579.60	2225.79
579.95	2221.12
580.30	2216.36
580.66	2211.31
581.01	2206.57
581.36	2201.74
581.71	2198.01
582.06	2194.01
582.42	2189.87
582.77	2185.03
583.12	2180.69
583.47	2176.43
583.82	2172.07
584.17	2167.00
584.53	2161.78
584.88	2156.37
585.23	2150.74
585.58	2145.47
585.93	2140.27
586.28	2135.46
586.63	2130.67
586.98	2125.70
587.34	2121.07
587.69	2116.47
588.04	2111.51
588.39	2106.08
588.74	2099.89
589.09	2093.80
589.44	2087.17
589.79	2081.01
590.14	2075.43
590.49	2068.93
590.84	2062.60
591.19	2056.47
591.54	2050.15
591.89	2043.27
592.25	2036.93
592.60	2029.98
592.95	2022.77
593.30	2015.60
593.65	2008.14
594.00	2001.11
594.35	1993.95
594.70	1986.04
595.05	1979.07
595.40	1971.85
595.75	1964.61
596.10	1958.64
596.45	1952.12
596.80	1945.98
597.15	1939.72
597.50	1933.07
597.85	1926.84
598.19	1920.47
598.54	1913.83
598.89	1907.44
599.24	1901.44
599.59	1894.99
599.94	1888.68
600.29	1882.37
600.64	1875.71
600.99	1868.51
601.34	1861.82
601.69	1854.83
602.04	1848.14
602.39	1840.89
602.74	1834.23
603.08	1827.56
603.43	1820.74
603.78	1813.54
604.13	1806.29
604.48	1799.16
604.83	1792.13
605.18	1785.31
605.53	1777.38
605.87	1769.18
606.22	1761.84
606.57	1753.82
606.92	1746.01
607.27	1739.04
607.62	1732.04
607.96	1724.99
608.31	1718.56
608.66	1711.10
609.01	1703.70
609.36	1696.18
609.70	1688.10
610.05	1679.97
610.40	1672.16
610.75	1663.96
611.10	1656.26
611.44	1647.77
611.79	1639.51
612.14	1630.79
612.49	1621.59
612.83	1613.09
613.18	1604.88
613.53	1596.74
613.88	1588.26
614.22	1580.03
614.57	1571.22
614.92	1563.30
615.27	1555.84
615.61	1547.40
615.96	1539.22
616.31	1531.50
616.65	1524.09
617.00	1516.46
617.35	1508.78
617.70	1500.61
618.04	1492.14
618.39	1483.76
618.74	1476.29
619.08	1468.10
619.43	1460.48
619.78	1453.36
620.12	1446.24
620.47	1438.76
620.82	1430.55
621.16	1423.05
621.51	1415.39
621.85	1407.74
622.20	1399.18
622.55	1390.63
622.89	1382.67
623.24	1374.92
623.59	1367.32
623.93	1359.67
624.28	1352.31
624.62	1344.79
624.97	1337.44
625.32	1330.41
625.66	1323.29
626.01	1315.96
626.35	1308.61
626.70	1300.69
627.04	1293.06
627.39	1285.11
627.73	1277.64
628.08	1270.69
628.43	1263.49
628.77	1256.20
629.12	1248.70
629.46	1241.33
629.81	1233.68
630.15	1226.38
630.50	1218.95
630.84	1210.99
631.19	1202.92
631.53	1195.32
631.88	1187.57
632.22	1179.85
632.57	1172.57
632.91	1165.00
633.26	1157.62
633.60	1150.04
633.95	1142.80
634.29	1135.60
634.64	1128.88
634.98	1121.49
635.32	1114.27
635.67	1107.38
636.01	1100.66
636.36	1093.79
636.70	1087.34
637.05	1080.84
637.39	1074.33
637.73	1067.78
638.08	1061.68
638.42	1055.64
638.77	1049.23
639.11	1042.73
639.45	1036.45
639.80	1029.71
640.14	1023.35
640.49	1016.81
640.83	1010.39
641.17	1004.30
641.52	998.05
641.86	991.53
642.20	985.62
642.55	979.15
642.89	972.81
643.23	966.16
643.58	960.32
643.92	954.04
644.26	948.07
644.61	942.00
644.95	936.00
645.29	929.50
645.64	922.85
645.98	916.49
646.32	910.46
646.66	904.32
647.01	898.49
647.35	892.73
647.69	886.78
648.04	881.26
648.38	875.37
648.72	869.29
649.06	863.30
649.41	857.27
649.75	851.51
650.09	845.48
650.43	839.76
650.78	833.58
651.12	827.65
651.46	821.86
651.80	816.16
652.14	810.65
652.49	805.27
652.83	800.03
653.17	794.36
653.51	788.80
653.85	783.41
654.20	777.81
654.54	771.80
654.88	766.02
655.22	760.12
655.56	754.37
655.90	748.86
656.25	743.60
656.59	738.33
656.93	733.18
657.27	728.04
657.61	722.55
657.95	717.45
658.29	712.32
658.64	706.92
658.98	701.49
659.32	696.04
659.66	690.79
660.00	685.56
660.34	680.52
660.68	675.43
661.02	670.30
661.36	665.54
661.70	661.04
662.05	656.67
662.39	652.44
662.73	648.00
663.07	643.55
663.41	639.05
663.75	634.55
664.09	629.90
664.43	625.46
664.77	621.38
665.11	617.05
665.45	612.86
665.79	608.82
666.13	604.69
666.47	600.64
666.81	596.49
667.15	592.28
667.49	588.37
667.83	584.52
668.17	580.57
668.51	576.51
668.85	572.35
669.19	568.49
669.53	564.57
669.87	560.70
670.21	557.01
670.55	553.32
670.89	549.83
671.23	546.41
671.57	542.90
671.91	539.34
672.25	535.83
672.58	532.27
672.92	528.87
673.26	525.66
673.60	522.45
673.94	519.37
674.28	516.42
674.62	513.48
674.96	510.43
675.30	507.53
675.64	504.61
675.97	501.81
676.31	498.89
676.65	496.00
676.99	493.26
677.33	490.42
677.67	487.61
678.01	484.61
678.34	481.64
678.68	478.66
679.02	475.81
679.36	473.01
679.70	470.29
680.04	467.46
680.37	464.61
680.71	461.80
681.05	459.07
681.39	456.33
681.73	453.60
682.06	451.03
682.40	448.51
682.74	445.93
683.08	443.37
683.42	440.71
683.75	438.14
684.09	435.57
684.43	433.06
684.77	430.56
685.10	428.16
685.44	425.79
685.78	423.51
686.12	421.19
686.45	418.92
686.79	416.63
687.13	414.44
687.46	412.23
687.80	409.99
688.14	407.75
688.48	405.70
688.81	403.54
689.15	401.37
689.49	399.15
689.82	397.02
690.16	394.95
690.50	393.01
690.83	391.06
691.17	389.04
691.51	387.06
691.84	385.20
692.18	383.27
692.52	381.31
692.85	379.36
693.19	377.47
693.52	375.55
693.86	373.66
694.20	371.84
694.53	370.05
694.87	368.19
695.21	366.36
695.54	364.45
695.88	362.64
696.21	360.90
696.55	359.20
696.88	357.51
697.22	355.82
697.56	354.14
697.89	352.45
698.23	350.86
698.56	349.28
698.90	347.65
699.23	346.02
699.57	344.46
699.90	342.90
700.24	341.35
700.58	339.82
700.91	338.38
701.25	336.94
701.58	335.56
701.92	334.20
702.25	332.85
702.59	331.48
702.92	330.16
703.26	328.81
703.59	327.56
703.93	326.37
704.26	325.14
704.60	323.86
704.93	322.58
705.26	321.25
705.60	320.03
705.93	318.85
706.27	317.76
706.60	316.65
706.94	315.56
707.27	314.40
707.61	313.35
707.94	312.29
708.27	311.16
708.61	310.06
708.94	309.01
709.28	308.02
709.61	307.05
709.94	306.07
710.28	305.05
710.61	303.97
710.95	302.89
711.28	301.94
711.61	301.00
711.95	300.09
712.28	299.18
712.61	298.21
712.95	297.27
713.28	296.42
713.61	295.47
713.95	294.61
714.28	293.78
714.61	292.87
714.95	291.98
715.28	291.11
715.61	290.28
715.95	289.43
716.28	288.55
716.61	287.71
716.95	286.87
717.28	286.10
717.61	285.36
717.94	284.56
718.28	283.73
718.61	282.96
718.94	282.25
719.27	281.56
719.61	280.91
719.94	280.26
720.27	279.51
720.60	278.91
720.94	278.26
721.27	277.67
721.60	277.13
721.93	276.55
722.27	275.98
722.60	275.41
722.93	274.83
723.26	274.28
723.59	273.70
723.93	273.16
724.26	272.59
724.59	272.00
724.92	271.46
725.25	270.93
725.59	270.44
725.92	269.92
726.25	269.41
726.58	268.92
726.91	268.43
727.24	267.98
727.57	267.46
727.91	266.92
728.24	266.41
728.57	265.86
728.90	265.39
729.23	264.88
729.56	264.43
729.89	264.02
730.22	263.55
730.55	263.09
730.89	262.64
731.22	262.23
731.55	261.84
731.88	261.41
732.21	261.02
732.54	260.57
732.87	260.15
733.20	259.73
733.53	259.32
733.86	258.94
734.19	258.54
734.52	258.17
734.85	257.86
735.18	257.45
735.51	257.10
735.84	256.73
736.17	256.41
736.50	256.00
736.83	255.72
737.16	255.37
737.49	255.06
737.82	254.72
738.15	254.36
738.48	253.99
738.81	253.64
739.14	253.34
739.47	253.06
739.80	252.74
740.13	252.44
740.46	252.13
740.79	251.81
741.12	251.47
741.45	251.20
741.78	250.86
742.11	250.61
742.44	250.29
742.77	249.98
743.10	249.67
743.43	249.41
743.75	249.00
744.08	248.84
744.41	248.56
744.74	248.26
745.07	247.98
745.40	247.76
745.73	247.55
746.06	247.26
746.39	246.98
746.71	246.71
747.04	246.45
747.37	246.16
747.70	245.90
748.03	245.65
748.36	245.39
748.68	245.19
749.01	244.90
749.34	244.69
749.67	244.49
750.00	244.27
750.33	244.10
750.65	243.88
750.98	243.53
751.31	243.30
751.64	243.11
751.97	242.95
752.29	242.73
752.62	242.48
752.95	242.26
753.28	242.01
753.60	241.78
753.93	241.58
754.26	241.39
754.59	241.18
754.91	240.97
755.24	240.77
755.57	240.54
755.90	240.36
756.22	240.15
756.55	239.93
756.88	239.74
757.20	239.46
757.53	239.28
757.86	239.09
758.19	238.92
758.51	238.71
758.84	238.47
759.17	238.30
759.49	238.13
759.82	238.00
760.15	237.84
760.47	237.74
760.80	237.56
761.13	237.46
761.45	237.29
761.78	237.12
762.11	236.96
762.43	236.81
762.76	236.68
763.08	236.56
763.41	236.42
763.74	236.27
764.06	236.15
764.39	236.02
764.71	235.88
765.04	235.76
765.37	235.60
765.69	235.53
766.02	235.39
766.34	235.28
766.67	235.10
767.00	235.01
767.32	234.93
767.65	234.85
767.97	234.68
768.30	234.58
768.62	234.47
768.95	234.36
769.27	234.23
769.60	234.12
769.92	233.99
770.25	233.86
770.57	233.74
770.90	233.63
771.22	233.49
771.55	233.40
771.87	233.32
772.20	233.26
772.52	233.24
772.85	233.25
773.17	233.15
773.50	233.08
773.82	232.95
774.15	232.81
774.47	232.68
774.80	232.61
775.12	232.51
775.45	232.44
775.77	232.38
776.09	232.33
776.42	232.24
776.74	232.21
777.07	232.12
777.39	232.07
777.72	232.01
778.04	231.98
778.36	231.88
778.69	231.83
779.01	231.76
779.33	231.61
779.66	231.44
779.98	231.39
780.31	231.35
780.63	231.35
780.95	231.32
781.28	231.26
781.60	231.15
781.92	231.09
782.25	231.03
782.57	230.97
782.89	230.88
783.22	230.82
783.54	230.72
783.86	230.70
784.19	230.62
784.51	230.58
784.83	230.51
785.16	230.47
785.48	230.41
785.80	230.33
786.12	230.29
786.45	230.21
786.77	230.13
787.09	230.02
787.42	229.92
787.74	229.87
788.06	229.84
788.38	229.78
788.71	229.72
789.03	229.67
789.35	229.61
789.67	229.56
789.99	229.51
790.32	229.47
790.64	229.43
790.96	229.49
791.28	229.41
791.61	229.33
791.93	229.30
792.25	229.26
792.57	229.31
792.89	229.24
793.21	229.22
793.54	229.16
793.86	229.14
794.18	229.13
794.50	229.05
794.82	229.00
795.14	229.01
795.47	228.99
795.79	228.92
796.11	228.87
796.43	228.82
796.75	228.79
797.07	228.73
797.39	228.67
797.71	228.52
798.04	228.46
798.36	228.47
798.68	228.41
799.00	228.35
799.32	228.28
799.64	228.26
799.96	228.22
800.28	228.20
800.60	228.15
800.92	228.11
801.24	228.08
801.56	228.05
801.89	228.00
802.21	227.98
802.53	227.96
802.85	227.94
803.17	227.96
803.49	227.92
803.81	227.88
804.13	227.87
804.45	227.84
804.77	227.82
805.09	227.82
805.41	227.80
805.73	227.79
806.05	227.75
806.37	227.70
806.69	227.65
807.01	227.65
807.33	227.64
807.65	227.58
807.97	227.60
808.28	227.58
808.60	227.57
808.92	227.54
809.24	227.58
809.56	227.60
809.88	227.57
810.20	227.53
810.52	227.51
810.84	227.46
811.16	227.45
811.48	227.46
811.80	227.46
812.12	227.46
812.43	227.42
812.75	227.39
813.07	227.36
813.39	227.37
813.71	227.33
814.03	227.31
814.35	227.31
814.67	227.23
814.98	227.18
815.30	227.14
815.62	227.11
815.94	227.05
816.26	227.01
816.58	226.98
816.89	227.00
817.21	227.00
817.53	227.01
817.85	226.97
818.17	226.90
818.48	226.84
818.80	226.81
819.12	226.77
819.44	226.78
819.76	226.74
820.07	226.76
820.39	226.74
820.71	226.73
821.03	226.71
821.34	226.69
821.66	226.69
821.98	226.69
822.30	226.66
822.61	226.71
822.93	226.65
823.25	226.65
823.57	226.62
823.88	226.60
824.20	226.59
824.52	226.60
824.83	226.60
825.15	226.60
825.47	226.58
825.79	226.59
826.10	226.53
826.42	226.54
826.74	226.53
827.05	226.51
827.37	226.50
827.69	226.47
828.00	226.46
828.32	226.46
828.64	226.44
828.95	226.50
829.27	226.45
829.58	226.44
829.90	226.41
830.22	226.42
830.53	226.39
830.85	226.37
831.17	226.34
831.48	226.37
831.80	226.35
832.11	226.35
832.43	226.32
832.75	226.33
833.06	226.39
833.38	226.37
833.69	226.37
834.01	226.37
834.32	226.36
834.64	226.39
834.96	226.36
835.27	226.35
835.59	226.28
835.90	226.26
836.22	226.25
836.53	226.25
836.85	226.25
837.16	226.36
837.48	226.36
837.79	226.42
838.11	226.39
838.42	226.37
838.74	226.40
839.05	226.39
839.37	226.36
839.68	226.30
840.00	226.29
840.31	226.29
840.63	226.28
840.94	226.28
841.26	226.24
841.57	226.24
841.88	226.25
842.20	226.24
842.51	226.22
842.83	226.22
843.14	226.29
843.46	226.29
843.77	226.25
844.08	226.21
844.40	226.15
844.71	226.14
845.03	226.11
845.34	226.10
845.65	226.09
845.97	226.11
846.28	226.12
846.60	226.12
846.91	226.09
847.22	226.10
847.54	226.08
847.85	226.11
848.16	226.13
848.48	226.10
848.79	226.14
849.10	226.17
849.42	226.17
849.73	226.11
850.04	226.06
850.36	225.99
850.67	225.99
850.98	226.04
851.30	226.04
851.61	226.05
851.92	226.04
852.23	226.07
852.55	226.10
852.86	226.06
853.17	226.03
853.49	226.08
853.80	226.10
854.11	226.11
854.42	226.09
854.74	226.07
855.05	226.08
855.36	226.02
855.67	226.00
855.99	225.99
856.30	226.09
856.61	226.09
856.92	226.13
857.23	226.13
857.55	226.09
857.86	226.08
858.17	226.09
858.48	226.03
858.79	225.98
859.11	225.96
859.42	226.00
859.73	226.01
860.04	225.95
860.35	225.90
860.66	225.88
860.98	225.87
861.29	225.89
861.60	225.87
861.91	225.90
862.22	225.87
862.53	225.84
862.84	225.71
863.16	225.72
863.47	225.71
863.78	225.73
864.09	225.71
864.40	225.73
864.71	225.73
865.02	225.78
865.33	225.82
865.64	225.76
865.95	225.73
866.27	225.81
866.58	225.79
866.89	225.80
867.20	225.82
867.51	225.80
867.82	225.78
868.13	225.82
868.44	225.76
868.75	225.78
869.06	225.78
869.37	225.80
869.68	225.79
869.99	225.77
870.30	225.76
870.61	225.79
870.92	225.78
871.23	225.78
871.54	225.78
871.85	225.77
872.16	225.82
872.47	225.79
872.78	225.70
873.09	225.75
873.40	225.78
873.71	225.77
874.02	225.76
874.33	225.73
874.64	225.73
874.95	225.79
875.26	225.78
875.56	225.79
875.87	225.79
876.18	225.80
876.49	225.88
876.80	225.86
877.11	225.80
877.42	225.78
877.73	225.76
878.04	225.76
878.35	225.78
878.66	225.76
878.96	225.78
879.27	225.77
879.58	225.70
879.89	225.66
880.20	225.67
880.51	225.68
880.82	225.70
881.12	225.68
881.43	225.64
881.74	225.64
882.05	225.63
882.36	225.63
882.67	225.60
882.97	225.53
883.28	225.53
883.59	225.55
883.90	225.59
884.21	225.61
884.51	225.60
884.82	225.57
885.13	225.57
885.44	225.58
885.74	225.58
886.05	225.61
886.36	225.63
886.67	225.57
886.98	225.64
887.28	225.66
887.59	225.67
887.90	225.64
888.20	225.61
888.51	225.63
888.82	225.60
889.13	225.61
889.43	225.67
889.74	225.65
890.05	225.65
890.35	225.63
890.66	225.62
890.97	225.60
891.28	225.57
891.58	225.56
891.89	225.53
892.20	225.55
892.50	225.54
892.81	225.51
893.12	225.56
893.42	225.48
893.73	225.45
894.04	225.43
894.34	225.45
894.65	225.42
894.95	225.36
895.26	225.39
895.57	225.42
895.87	225.31
896.18	225.34
896.48	225.31
896.79	225.31
897.10	225.30
897.40	225.30
897.71	225.34
898.01	225.31
898.32	225.30
898.63	225.24
898.93	225.24
899.24	225.28
899.54	225.23
899.85	225.22
900.15	225.24
900.46	225.21
900.76	225.20
901.07	225.21
901.38	225.24
901.68	225.23
901.99	225.16
902.29	225.17
902.60	225.17
902.90	225.16
903.21	225.15
903.51	225.13
903.82	225.14
904.12	225.10
904.43	225.13
904.73	225.12
905.03	225.16
905.34	225.26
905.64	225.23
905.95	225.26
906.25	225.30
906.56	225.28
906.86	225.31
907.17	225.32
907.47	225.33
907.77	225.32
908.08	225.32
908.38	225.35
908.69	225.35
908.99	225.34
909.30	225.35
909.60	225.34
909.90	225.35
910.21	225.33
910.51	225.34
910.81	225.36
911.12	225.39
911.42	225.36
911.73	225.23
912.03	225.25
912.33	225.23
912.64	225.17
912.94	225.17
913.24	225.18
913.55	225.17
913.85	225.16
914.15	225.15
914.46	225.16
914.76	225.13
915.06	225.15
915.37	225.12
915.67	225.16
915.97	225.18
916.27	225.17
916.58	225.17
916.88	225.17
917.18	225.16
917.49	225.24
917.79	225.26
918.09	225.30
918.39	225.31
918.70	225.29
919.00	225.32
919.30	225.38
919.60	225.34
919.91	225.34
920.21	225.34
920.51	225.35
920.81	225.33
921.12	225.36
921.42	225.37
921.72	225.41
922.02	225.39
922.32	225.39
922.63	225.38
922.93	225.45
923.23	225.45
923.53	225.43
923.83	225.34
924.13	225.35
924.44	225.33
924.74	225.34
925.04	225.38
925.34	225.39
925.64	225.32
925.94	225.31
926.24	225.38
926.55	225.38
926.85	225.34
927.15	225.36
927.45	225.37
927.75	225.34
928.05	225.34
928.35	225.31
928.65	225.32
928.95	225.31
929.26	225.25
929.56	225.26
929.86	225.26
930.16	225.24
930.46	225.22
930.76	225.22
931.06	225.20
931.36	225.16
931.66	225.19
931.96	225.21
932.26	225.20
932.56	225.15
932.86	225.17
933.16	225.17
933.46	225.14
933.76	225.12
934.06	225.17
934.36	225.21
934.66	225.19
934.96	225.18
935.26	225.21
935.56	225.21
935.86	225.18
936.16	225.22
936.46	225.20
936.76	225.22
937.06	225.22
937.36	225.21
937.66	225.22
937.96	225.20
938.26	225.17
938.56	225.18
938.86	225.18
939.16	225.20
939.46	225.24
939.76	225.25
940.06	225.26
940.35	225.21
940.65	225.10
940.95	225.13
941.25	225.11
941.55	225.09
941.85	225.10
942.15	225.11
942.45	225.12
942.75	225.13
943.04	225.14
943.34	225.15
943.64	225.14
943.94	225.13
944.24	225.10
944.54	225.13
944.84	225.13
945.13	225.12
945.43	225.07
945.73	225.03
946.03	225.00
946.33	225.01
946.62	225.01
946.92	225.05
947.22	225.04
947.52	225.05
947.82	225.06
948.11	225.03
948.41	225.01
948.71	224.98
949.01	224.99
949.31	224.96
949.60	224.96
949.90	224.97
950.20	224.96
950.50	224.97
950.79	224.94
951.09	224.96
951.39	224.94
951.69	224.94
951.98	224.98
952.28	225.03
952.58	225.00
952.87	224.98
953.17	225.00
953.47	225.01
953.76	224.95
954.06	224.92
954.36	224.89
954.66	224.87
954.95	224.90
955.25	224.87
955.55	224.89
955.84	224.84
956.14	224.83
956.44	224.84
956.73	224.82
957.03	224.81
957.32	224.76
957.62	224.78
957.92	224.80
958.21	224.77
958.51	224.86
958.81	224.89
959.10	224.90
959.40	224.91
959.69	224.90
959.99	224.94
960.29	224.94
960.58	224.95
960.88	225.00
961.17	224.93
961.47	224.97
961.76	224.94
962.06	224.96
962.36	224.98
962.65	224.97
962.95	224.99
963.24	225.01
963.54	225.04
963.83	225.03
964.13	225.05
964.42	225.03
964.72	224.94
965.01	224.92
965.31	224.89
965.60	224.88
965.90	224.94
966.19	224.93
966.49	224.93
966.78	224.92
967.08	224.90
967.37	224.95
967.67	224.91
967.96	224.93
968.26	224.96
968.55	224.97
968.85	224.99
969.14	225.01
969.43	225.01
969.73	224.98
970.02	225.00
970.32	225.01
970.61	225.00
970.91	225.00
971.20	225.02
971.49	225.03
971.79	225.05
972.08	225.01
972.38	225.03
972.67	225.02
972.96	225.06
973.26	225.07
973.55	225.09
973.85	225.12
974.14	225.12
974.43	225.13
974.73	225.12
975.02	225.12
975.31	225.12
975.61	225.15
975.90	225.18
976.19	225.18
976.49	225.17
976.78	225.21
977.07	225.20
977.37	225.20
977.66	225.22
977.95	225.21
978.24	225.22
978.54	225.24
978.83	225.26
979.12	225.29
979.42	225.27
979.71	225.25
980.00	225.27
980.29	225.29
980.59	225.26
980.88	225.29
981.17	225.29
981.46	225.28
981.76	225.27
982.05	225.35
982.34	225.36
982.63	225.38
982.93	225.35
983.22	225.40
983.51	225.42
983.80	225.43
984.09	225.46
984.39	225.44
984.68	225.45
984.97	225.46
985.26	225.39
985.55	225.43
985.85	225.41
986.14	225.41
986.43	225.42
986.72	225.40
987.01	225.38
987.30	225.38
987.59	225.37
987.89	225.37
988.18	225.30
988.47	225.29
988.76	225.27
989.05	225.29
989.34	225.26
989.63	225.26
989.92	225.23
990.22	225.23
990.51	225.22
990.80	225.21
991.09	225.23
991.38	225.26
991.67	225.25
991.96	225.23
992.25	225.23
992.54	225.21
992.83	225.23
993.12	225.21
993.41	225.17
993.70	225.19
993.99	225.20
994.28	225.21
994.58	225.22
994.87	225.19
995.16	225.18
995.45	225.16
995.74	225.14
996.03	225.15
996.32	225.12
996.61	225.16
996.90	225.12
997.19	225.10
997.48	225.06
997.77	225.01
998.06	225.01
998.34	224.98
998.63	224.93
998.92	224.92
999.21	224.95
999.50	224.98
999.79	224.93
1000.08	224.90
1000.37	224.86
1000.66	224.83
1000.95	224.86
1001.24	224.83
1001.53	224.83
1001.82	224.79
1002.11	224.77
1002.40	224.77
1002.68	224.76
1002.97	224.83
1003.26	224.83
1003.55	224.84
1003.84	224.86
1004.13	224.91
1004.42	224.91
1004.71	224.95
1004.99	224.95
1005.28	224.95
1005.57	224.94
1005.86	224.95
1006.15	224.98
1006.44	224.97
1006.72	224.96
1007.01	224.93
1007.30	224.97
1007.59	224.97
1007.88	225.00
1008.17	225.01
1008.45	225.00
1008.74	224.94
1009.03	224.90
1009.32	224.88
1009.60	224.89
1009.89	224.90
1010.18	224.86
1010.47	224.89
1010.76	224.88
1011.04	224.85
1011.33	224.89
1011.62	224.88
1011.91	224.90
1012.19	224.88
1012.48	224.87
1012.77	224.87
1013.05	224.93
1013.34	224.87
1013.63	224.86
1013.92	224.90
1014.20	224.90
1014.49	224.92
1014.78	224.98
1015.06	224.94
1015.35	224.94
1015.64	224.98
1015.92	224.99
1016.21	224.99
1016.50	224.97
1016.78	225.01
1017.07	225.03
1017.36	224.99
1017.64	225.02
1017.93	225.05
1018.22	225.07
1018.50	225.07
1018.79	225.10
1019.08	225.10
1019.36	225.17
1019.65	225.14
1019.93	225.13
1020.22	225.15
1020.51	225.20
1020.79	225.15
1021.08	225.43
1021.36	224.46
1021.65	225.05
1021.94	225.74
1022.22	225.50
1022.51	224.33
1022.79	225.40
1023.08	225.22
1023.36	226.63
1023.65	224.52
>>>>>End Processed Spectral Data<<<<<
