SpectraSuite Data File
++++++++++++++++++++++++++++++++++++
Date: Fri Feb 01 15:51:51 EST 2013
User: group
Dark Spectrum Present: No
Reference Spectrum Present: No
Number of Sampled Component Spectra: 1
Spectrometers: USB2E7196
Integration Time (usec): 35000 (USB2E7196)
Spectra Averaged: 100 (USB2E7196)
Boxcar Smoothing: 10 (USB2E7196)
Correct for Electrical Dark: No (USB2E7196)
Strobe/Lamp Enabled: No (USB2E7196)
Correct for Detector Non-linearity: No (USB2E7196)
Correct for Stray Light: No (USB2E7196)
Number of Pixels in Processed Spectrum: 2048
>>>>>Begin Processed Spectral Data<<<<<
339.09	0.00
339.48	215.41
339.86	216.27
340.24	218.21
340.63	219.27
341.01	222.20
341.39	221.58
341.78	223.08
342.16	224.67
342.54	224.40
342.93	213.21
343.31	223.96
343.69	224.50
344.07	224.98
344.46	225.39
344.84	225.77
345.22	225.96
345.60	226.23
345.99	226.41
346.37	226.53
346.75	226.65
347.13	226.73
347.52	226.76
347.90	226.83
348.28	226.83
348.66	226.84
349.05	226.84
349.43	226.90
349.81	226.92
350.19	226.98
350.57	227.01
350.96	227.08
351.34	227.16
351.72	227.22
352.10	227.30
352.48	227.39
352.87	227.44
353.25	227.53
353.63	227.59
354.01	227.64
354.39	227.68
354.77	227.78
355.15	227.87
355.54	227.95
355.92	227.96
356.30	228.05
356.68	228.19
357.06	228.26
357.44	228.32
357.82	228.37
358.20	228.45
358.58	228.52
358.97	228.58
359.35	228.66
359.73	228.73
360.11	228.76
360.49	228.79
360.87	228.81
361.25	228.86
361.63	228.91
362.01	228.97
362.39	229.03
362.77	229.05
363.15	229.09
363.53	229.13
363.91	229.15
364.29	229.20
364.67	229.11
365.05	229.14
365.43	229.15
365.81	229.20
366.19	229.25
366.57	229.27
366.95	229.26
367.33	229.25
367.71	229.23
368.09	229.22
368.47	229.20
368.85	229.20
369.23	229.21
369.61	229.15
369.99	229.13
370.37	229.09
370.75	229.09
371.13	229.01
371.51	228.97
371.89	228.92
372.27	228.86
372.65	228.84
373.03	228.77
373.41	228.71
373.78	228.65
374.16	228.54
374.54	228.46
374.92	228.37
375.30	228.27
375.68	228.19
376.06	228.15
376.44	228.07
376.82	227.99
377.19	227.88
377.57	227.83
377.95	227.74
378.33	227.67
378.71	227.54
379.09	227.51
379.47	227.43
379.84	227.37
380.22	227.28
380.60	227.18
380.98	227.12
381.36	227.06
381.73	226.96
382.11	226.91
382.49	226.84
382.87	226.78
383.25	226.75
383.62	226.80
384.00	226.72
384.38	226.67
384.76	226.62
385.13	226.61
385.51	226.54
385.89	226.48
386.27	226.45
386.64	226.42
387.02	226.35
387.40	226.34
387.78	226.30
388.15	226.26
388.53	226.22
388.91	226.19
389.29	226.16
389.66	226.15
390.04	226.12
390.42	226.13
390.79	226.12
391.17	226.13
391.55	226.01
391.92	226.02
392.30	226.04
392.68	226.07
393.05	226.06
393.43	226.12
393.81	226.12
394.18	226.13
394.56	226.15
394.94	226.20
395.31	226.18
395.69	226.26
396.06	226.30
396.44	226.38
396.82	226.38
397.19	226.46
397.57	226.53
397.95	226.60
398.32	226.62
398.70	226.70
399.07	226.78
399.45	226.86
399.82	226.89
400.20	226.93
400.58	226.97
400.95	227.05
401.33	227.13
401.70	227.30
402.08	227.36
402.45	227.43
402.83	227.56
403.20	227.69
403.58	227.77
403.95	227.91
404.33	228.00
404.71	228.16
405.08	228.33
405.46	228.45
405.83	228.59
406.21	228.76
406.58	228.91
406.96	229.03
407.33	229.17
407.70	229.37
408.08	229.67
408.45	229.90
408.83	230.08
409.20	230.26
409.58	230.42
409.95	230.69
410.33	230.98
410.70	231.21
411.08	231.51
411.45	231.81
411.82	232.13
412.20	232.51
412.57	232.90
412.95	233.16
413.32	233.55
413.69	233.91
414.07	234.33
414.44	234.82
414.82	235.28
415.19	235.84
415.56	236.42
415.94	236.94
416.31	237.56
416.68	238.23
417.06	238.98
417.43	239.68
417.81	240.47
418.18	241.23
418.55	242.07
418.93	242.93
419.30	243.82
419.67	244.71
420.04	245.65
420.42	246.68
420.79	247.89
421.16	249.08
421.54	250.29
421.91	251.51
422.28	252.75
422.66	254.14
423.03	255.45
423.40	256.78
423.77	258.23
424.15	259.69
424.52	261.15
424.89	262.73
425.26	264.26
425.64	265.70
426.01	267.35
426.38	269.03
426.75	270.71
427.13	272.46
427.50	274.30
427.87	276.17
428.24	278.02
428.61	279.78
428.99	281.70
429.36	283.85
429.73	285.91
430.10	287.92
430.47	289.96
430.85	292.08
431.22	294.33
431.59	296.69
431.96	298.90
432.33	301.40
432.70	303.82
433.08	306.64
433.45	309.28
433.82	311.84
434.19	314.74
434.56	317.53
434.93	320.18
435.30	322.79
435.68	325.69
436.05	328.52
436.42	331.30
436.79	333.81
437.16	336.49
437.53	339.30
437.90	342.13
438.27	344.84
438.64	347.69
439.01	350.28
439.38	352.50
439.75	354.72
440.13	357.19
440.50	359.50
440.87	361.34
441.24	363.26
441.61	365.43
441.98	366.87
442.35	368.71
442.72	370.54
443.09	372.33
443.46	373.35
443.83	373.94
444.20	374.45
444.57	375.29
444.94	375.58
445.31	375.91
445.68	376.27
446.05	376.38
446.42	375.94
446.79	375.48
447.16	375.04
447.53	374.72
447.90	373.57
448.27	372.41
448.64	370.85
449.01	369.75
449.37	367.80
449.74	365.93
450.11	363.64
450.48	361.18
450.85	358.67
451.22	356.54
451.59	354.50
451.96	352.56
452.33	349.96
452.70	347.63
453.07	344.79
453.43	341.88
453.80	339.10
454.17	336.42
454.54	333.92
454.91	331.18
455.28	328.47
455.65	326.00
456.02	323.57
456.38	321.41
456.75	318.75
457.12	316.48
457.49	314.25
457.86	312.08
458.23	310.23
458.59	308.20
458.96	306.10
459.33	304.23
459.70	302.36
460.07	300.86
460.43	299.09
460.80	297.50
461.17	296.07
461.54	294.58
461.91	293.17
462.27	291.71
462.64	290.47
463.01	289.10
463.38	287.81
463.74	286.43
464.11	285.26
464.48	284.26
464.85	283.14
465.21	282.25
465.58	281.36
465.95	280.26
466.32	279.32
466.68	278.40
467.05	277.52
467.42	276.64
467.78	275.68
468.15	274.84
468.52	274.17
468.88	273.27
469.25	272.51
469.62	271.91
469.98	271.26
470.35	270.65
470.72	270.07
471.08	269.41
471.45	268.85
471.82	268.34
472.18	267.69
472.55	267.30
472.92	266.81
473.28	266.38
473.65	265.96
474.02	265.54
474.38	265.17
474.75	264.86
475.11	264.50
475.48	264.23
475.85	264.01
476.21	263.80
476.58	263.65
476.94	263.51
477.31	263.35
477.67	263.18
478.04	263.08
478.41	263.05
478.77	263.08
479.14	263.00
479.50	263.04
479.87	263.12
480.23	263.22
480.60	263.25
480.96	263.30
481.33	263.51
481.69	263.68
482.06	263.86
482.42	264.05
482.79	264.32
483.15	264.68
483.52	265.07
483.88	265.43
484.25	265.80
484.61	266.26
484.98	266.70
485.34	267.24
485.71	267.82
486.07	268.42
486.44	268.97
486.80	269.69
487.17	270.41
487.53	271.26
487.90	272.07
488.26	273.05
488.62	274.03
488.99	274.97
489.35	276.08
489.72	277.23
490.08	278.41
490.44	279.64
490.81	280.97
491.17	282.31
491.54	283.77
491.90	285.33
492.26	286.96
492.63	288.70
492.99	290.48
493.36	292.38
493.72	294.43
494.08	296.56
494.45	298.81
494.81	301.17
495.17	303.53
495.54	306.08
495.90	308.75
496.26	311.57
496.63	314.56
496.99	317.69
497.35	320.97
497.72	324.38
498.08	327.94
498.44	331.59
498.80	335.53
499.17	339.53
499.53	343.69
499.89	348.09
500.26	352.64
500.62	357.34
500.98	362.28
501.34	367.38
501.71	372.69
502.07	378.15
502.43	383.75
502.79	389.59
503.16	395.71
503.52	401.96
503.88	408.34
504.24	414.97
504.60	421.77
504.97	428.87
505.33	436.26
505.69	443.90
506.05	451.67
506.41	459.50
506.78	467.72
507.14	476.19
507.50	484.87
507.86	493.89
508.22	503.09
508.59	512.31
508.95	521.88
509.31	531.65
509.67	541.78
510.03	552.14
510.39	562.70
510.75	573.48
511.12	584.43
511.48	595.71
511.84	607.18
512.20	618.68
512.56	630.66
512.92	642.85
513.28	655.21
513.64	667.71
514.00	680.46
514.37	693.33
514.73	706.39
515.09	719.38
515.45	732.58
515.81	746.15
516.17	760.11
516.53	774.20
516.89	788.48
517.25	802.65
517.61	817.01
517.97	831.46
518.33	845.88
518.69	860.59
519.05	875.66
519.41	890.82
519.77	906.45
520.13	921.92
520.49	937.21
520.85	952.60
521.21	968.39
521.57	984.66
521.93	1000.44
522.29	1016.87
522.65	1033.22
523.01	1049.47
523.37	1065.60
523.73	1081.88
524.09	1097.97
524.45	1114.20
524.81	1130.77
525.17	1147.60
525.53	1164.42
525.89	1181.24
526.25	1198.10
526.61	1214.47
526.97	1231.15
527.33	1247.56
527.68	1264.20
528.04	1280.74
528.40	1297.36
528.76	1314.41
529.12	1330.98
529.48	1347.84
529.84	1363.68
530.20	1380.20
530.56	1397.26
530.91	1414.56
531.27	1431.20
531.63	1447.62
531.99	1464.27
532.35	1480.22
532.71	1496.06
533.07	1512.37
533.42	1528.25
533.78	1544.29
534.14	1560.49
534.50	1575.78
534.86	1591.58
535.21	1606.52
535.57	1622.53
535.93	1638.02
536.29	1652.77
536.65	1667.76
537.00	1682.51
537.36	1697.91
537.72	1712.52
538.08	1726.90
538.44	1740.62
538.79	1754.41
539.15	1768.09
539.51	1781.74
539.87	1796.00
540.22	1809.77
540.58	1823.55
540.94	1836.89
541.29	1849.74
541.65	1862.36
542.01	1875.62
542.37	1888.03
542.72	1900.55
543.08	1912.18
543.44	1924.53
543.79	1935.64
544.15	1946.57
544.51	1958.22
544.87	1968.99
545.22	1979.74
545.58	1989.85
545.94	1999.60
546.29	2009.50
546.65	2019.30
547.01	2028.72
547.36	2037.50
547.72	2045.95
548.07	2053.77
548.43	2061.90
548.79	2070.00
549.14	2077.62
549.50	2084.89
549.86	2092.51
550.21	2099.82
550.57	2106.81
550.92	2113.28
551.28	2120.42
551.64	2127.55
551.99	2134.05
552.35	2140.30
552.70	2146.35
553.06	2152.41
553.41	2158.87
553.77	2164.87
554.13	2171.15
554.48	2177.08
554.84	2182.52
555.19	2187.86
555.55	2192.91
555.90	2197.54
556.26	2202.29
556.61	2207.04
556.97	2211.41
557.32	2215.52
557.68	2219.58
558.03	2224.05
558.39	2227.86
558.74	2232.51
559.10	2236.42
559.45	2240.06
559.81	2244.44
560.16	2248.42
560.52	2251.58
560.87	2254.93
561.23	2257.62
561.58	2260.49
561.94	2263.11
562.29	2265.53
562.64	2268.14
563.00	2270.70
563.35	2274.05
563.71	2277.13
564.06	2280.37
564.42	2283.08
564.77	2285.52
565.12	2287.99
565.48	2289.89
565.83	2291.69
566.19	2292.86
566.54	2293.67
566.89	2294.62
567.25	2295.08
567.60	2296.36
567.96	2297.93
568.31	2298.80
568.66	2299.90
569.02	2300.24
569.37	2300.51
569.72	2301.34
570.08	2301.41
570.43	2301.64
570.78	2301.06
571.14	2299.64
571.49	2298.31
571.84	2298.11
572.20	2296.99
572.55	2295.75
572.90	2294.12
573.26	2292.85
573.61	2291.18
573.96	2289.32
574.31	2286.51
574.67	2283.49
575.02	2279.78
575.37	2276.57
575.72	2272.68
576.08	2269.31
576.43	2266.12
576.78	2262.44
577.13	2259.18
577.49	2256.21
577.84	2252.54
578.19	2248.93
578.54	2245.35
578.90	2240.88
579.25	2235.34
579.60	2230.37
579.95	2225.28
580.30	2220.39
580.66	2215.24
581.01	2210.31
581.36	2205.49
581.71	2201.32
582.06	2196.86
582.42	2192.29
582.77	2187.08
583.12	2182.52
583.47	2177.83
583.82	2172.80
584.17	2167.51
584.53	2162.02
584.88	2156.38
585.23	2150.65
585.58	2145.11
585.93	2139.69
586.28	2135.09
586.63	2130.04
586.98	2125.07
587.34	2120.45
587.69	2115.49
588.04	2110.07
588.39	2104.36
588.74	2097.99
589.09	2091.84
589.44	2085.14
589.79	2079.21
590.14	2073.49
590.49	2066.86
590.84	2060.45
591.19	2054.42
591.54	2048.10
591.89	2040.70
592.25	2033.77
592.60	2026.57
592.95	2019.06
593.30	2011.52
593.65	2003.99
594.00	1996.91
594.35	1989.58
594.70	1981.61
595.05	1974.43
595.40	1967.22
595.75	1959.82
596.10	1953.55
596.45	1946.77
596.80	1940.60
597.15	1934.04
597.50	1926.91
597.85	1920.54
598.19	1913.88
598.54	1906.80
598.89	1900.10
599.24	1894.28
599.59	1887.53
599.94	1881.38
600.29	1874.97
600.64	1868.57
600.99	1861.01
601.34	1854.16
601.69	1847.32
602.04	1840.38
602.39	1833.01
602.74	1826.13
603.08	1819.41
603.43	1812.79
603.78	1805.58
604.13	1798.38
604.48	1790.99
604.83	1784.26
605.18	1777.14
605.53	1769.23
605.87	1761.20
606.22	1754.02
606.57	1746.18
606.92	1739.02
607.27	1731.77
607.62	1724.78
607.96	1717.44
608.31	1710.78
608.66	1703.16
609.01	1695.54
609.36	1687.96
609.70	1679.94
610.05	1671.88
610.40	1663.99
610.75	1655.50
611.10	1647.74
611.44	1639.43
611.79	1631.49
612.14	1622.70
612.49	1613.69
612.83	1605.36
613.18	1597.30
613.53	1589.15
613.88	1580.43
614.22	1572.05
614.57	1563.43
614.92	1555.49
615.27	1547.81
615.61	1539.54
615.96	1531.54
616.31	1523.92
616.65	1516.57
617.00	1508.98
617.35	1501.35
617.70	1493.08
618.04	1484.64
618.39	1476.42
618.74	1468.70
619.08	1460.37
619.43	1452.85
619.78	1446.00
620.12	1438.77
620.47	1431.16
620.82	1422.97
621.16	1415.62
621.51	1408.10
621.85	1400.59
622.20	1392.01
622.55	1383.78
622.89	1375.97
623.24	1368.30
623.59	1360.97
623.93	1353.49
624.28	1346.25
624.62	1338.74
624.97	1331.65
625.32	1324.83
625.66	1317.81
626.01	1310.56
626.35	1303.13
626.70	1295.36
627.04	1287.57
627.39	1279.78
627.73	1272.39
628.08	1265.47
628.43	1258.09
628.77	1250.70
629.12	1243.03
629.46	1235.87
629.81	1228.43
630.15	1221.17
630.50	1213.74
630.84	1205.58
631.19	1197.65
631.53	1190.19
631.88	1182.62
632.22	1174.91
632.57	1167.62
632.91	1159.97
633.26	1152.65
633.60	1145.30
633.95	1138.24
634.29	1131.28
634.64	1124.57
634.98	1117.13
635.32	1109.92
635.67	1103.46
636.01	1096.76
636.36	1089.94
636.70	1083.44
637.05	1076.82
637.39	1070.31
637.73	1063.87
638.08	1057.93
638.42	1051.87
638.77	1045.44
639.11	1038.83
639.45	1032.46
639.80	1025.79
640.14	1019.34
640.49	1012.85
640.83	1006.49
641.17	1000.19
641.52	993.73
641.86	987.32
642.20	981.62
642.55	975.37
642.89	968.79
643.23	962.30
643.58	956.51
643.92	950.31
644.26	944.19
644.61	938.18
644.95	932.12
645.29	925.47
645.64	918.79
645.98	912.38
646.32	906.53
646.66	900.53
647.01	894.76
647.35	889.19
647.69	883.35
648.04	877.82
648.38	872.04
648.72	866.08
649.06	860.02
649.41	854.06
649.75	848.02
650.09	842.07
650.43	836.34
650.78	830.22
651.12	824.22
651.46	818.45
651.80	812.73
652.14	807.36
652.49	802.08
652.83	796.94
653.17	791.31
653.51	785.54
653.85	780.20
654.20	774.55
654.54	768.47
654.88	762.69
655.22	756.77
655.56	751.16
655.90	745.76
656.25	740.45
656.59	735.12
656.93	730.10
657.27	725.02
657.61	719.54
657.95	714.46
658.29	709.39
658.64	704.23
658.98	698.93
659.32	693.46
659.66	688.13
660.00	682.76
660.34	677.77
660.68	672.91
661.02	667.81
661.36	663.07
661.70	658.63
662.05	654.29
662.39	650.01
662.73	645.50
663.07	641.08
663.41	636.61
663.75	632.05
664.09	627.40
664.43	622.99
664.77	618.88
665.11	614.60
665.45	610.50
665.79	606.42
666.13	602.24
666.47	598.10
666.81	594.00
667.15	589.85
667.49	586.03
667.83	582.26
668.17	578.36
668.51	574.28
668.85	570.28
669.19	566.47
669.53	562.58
669.87	558.69
670.21	554.99
670.55	551.42
670.89	547.99
671.23	544.67
671.57	541.07
671.91	537.54
672.25	534.11
672.58	530.61
672.92	527.16
673.26	523.99
673.60	520.87
673.94	517.72
674.28	514.86
674.62	511.91
674.96	508.76
675.30	505.83
675.64	502.92
675.97	500.08
676.31	497.18
676.65	494.32
676.99	491.55
677.33	488.71
677.67	485.89
678.01	482.87
678.34	479.82
678.68	477.00
679.02	474.12
679.36	471.37
679.70	468.66
680.04	465.91
680.37	463.08
680.71	460.33
681.05	457.75
681.39	455.00
681.73	452.31
682.06	449.81
682.40	447.26
682.74	444.77
683.08	442.27
683.42	439.68
683.75	437.16
684.09	434.68
684.43	432.19
684.77	429.70
685.10	427.38
685.44	425.09
685.78	422.81
686.12	420.61
686.45	418.30
686.79	415.97
687.13	413.83
687.46	411.65
687.80	409.49
688.14	407.30
688.48	405.28
688.81	402.96
689.15	400.82
689.49	398.70
689.82	396.60
690.16	394.50
690.50	392.57
690.83	390.62
691.17	388.63
691.51	386.74
691.84	384.92
692.18	383.00
692.52	381.04
692.85	379.11
693.19	377.23
693.52	375.41
693.86	373.59
694.20	371.82
694.53	370.04
694.87	368.20
695.21	366.40
695.54	364.56
695.88	362.87
696.21	361.14
696.55	359.49
696.88	357.78
697.22	356.13
697.56	354.49
697.89	352.87
698.23	351.27
698.56	349.68
698.90	348.11
699.23	346.46
699.57	344.90
699.90	343.36
700.24	341.76
700.58	340.22
700.91	338.71
701.25	337.24
701.58	335.86
701.92	334.48
702.25	333.06
702.59	331.71
702.92	330.34
703.26	329.05
703.59	327.70
703.93	326.50
704.26	325.25
704.60	323.95
704.93	322.66
705.26	321.41
705.60	320.19
705.93	319.01
706.27	317.99
706.60	316.92
706.94	315.83
707.27	314.72
707.61	313.65
707.94	312.64
708.27	311.55
708.61	310.51
708.94	309.52
709.28	308.54
709.61	307.56
709.94	306.59
710.28	305.59
710.61	304.64
710.95	303.60
711.28	302.67
711.61	301.68
711.95	300.75
712.28	299.79
712.61	298.80
712.95	297.85
713.28	296.90
713.61	296.03
713.95	295.14
714.28	294.31
714.61	293.42
714.95	292.56
715.28	291.72
715.61	290.83
715.95	289.98
716.28	289.14
716.61	288.32
716.95	287.56
717.28	286.79
717.61	286.02
717.94	285.28
718.28	284.49
718.61	283.79
718.94	283.09
719.27	282.40
719.61	281.79
719.94	281.14
720.27	280.47
720.60	279.79
720.94	279.21
721.27	278.60
721.60	278.03
721.93	277.42
722.27	276.88
722.60	276.34
722.93	275.75
723.26	275.21
723.59	274.62
723.93	274.07
724.26	273.51
724.59	272.93
724.92	272.42
725.25	271.94
725.59	271.40
725.92	270.89
726.25	270.44
726.58	269.93
726.91	269.42
727.24	268.94
727.57	268.47
727.91	267.94
728.24	267.48
728.57	266.99
728.90	266.56
729.23	266.06
729.56	265.59
729.89	265.14
730.22	264.67
730.55	264.23
730.89	263.80
731.22	263.36
731.55	262.94
731.88	262.52
732.21	262.05
732.54	261.63
732.87	261.19
733.20	260.77
733.53	260.39
733.86	260.02
734.19	259.59
734.52	259.22
734.85	258.90
735.18	258.47
735.51	258.11
735.84	257.74
736.17	257.37
736.50	256.95
736.83	256.69
737.16	256.38
737.49	256.05
737.82	255.71
738.15	255.40
738.48	255.04
738.81	254.70
739.14	254.39
739.47	254.09
739.80	253.79
740.13	253.48
740.46	253.13
740.79	252.80
741.12	252.53
741.45	252.22
741.78	251.83
742.11	251.55
742.44	251.23
742.77	250.93
743.10	250.61
743.43	250.34
743.75	249.93
744.08	249.76
744.41	249.47
744.74	249.17
745.07	248.86
745.40	248.62
745.73	248.35
746.06	248.09
746.39	247.81
746.71	247.57
747.04	247.29
747.37	247.03
747.70	246.77
748.03	246.50
748.36	246.25
748.68	246.02
749.01	245.79
749.34	245.56
749.67	245.33
750.00	245.10
750.33	244.96
750.65	244.75
750.98	244.42
751.31	244.21
751.64	243.99
751.97	243.83
752.29	243.61
752.62	243.38
752.95	243.17
753.28	242.96
753.60	242.72
753.93	242.59
754.26	242.45
754.59	242.23
754.91	242.05
755.24	241.88
755.57	241.70
755.90	241.49
756.22	241.29
756.55	241.08
756.88	240.89
757.20	240.67
757.53	240.50
757.86	240.32
758.19	240.15
758.51	239.99
758.84	239.79
759.17	239.64
759.49	239.52
759.82	239.39
760.15	239.24
760.47	239.09
760.80	238.88
761.13	238.70
761.45	238.59
761.78	238.44
762.11	238.28
762.43	238.16
762.76	238.05
763.08	237.94
763.41	237.82
763.74	237.72
764.06	237.58
764.39	237.43
764.71	237.30
765.04	237.16
765.37	237.05
765.69	236.93
766.02	236.81
766.34	236.67
766.67	236.56
767.00	236.42
767.32	236.38
767.65	236.31
767.97	236.20
768.30	236.08
768.62	235.97
768.95	235.87
769.27	235.75
769.60	235.65
769.92	235.51
770.25	235.39
770.57	235.29
770.90	235.19
771.22	235.08
771.55	234.99
771.87	234.93
772.20	234.83
772.52	234.81
772.85	234.82
773.17	234.71
773.50	234.63
773.82	234.57
774.15	234.42
774.47	234.29
774.80	234.20
775.12	234.10
775.45	234.01
775.77	233.94
776.09	233.85
776.42	233.76
776.74	233.71
777.07	233.66
777.39	233.54
777.72	233.47
778.04	233.42
778.36	233.36
778.69	233.29
779.01	233.22
779.33	233.10
779.66	232.90
779.98	232.84
780.31	232.73
780.63	232.72
780.95	232.72
781.28	232.68
781.60	232.61
781.92	232.57
782.25	232.53
782.57	232.47
782.89	232.40
783.22	232.33
783.54	232.27
783.86	232.21
784.19	232.17
784.51	232.14
784.83	232.08
785.16	232.00
785.48	231.93
785.80	231.88
786.12	231.81
786.45	231.80
786.77	231.80
787.09	231.78
787.42	231.68
787.74	231.58
788.06	231.50
788.38	231.43
788.71	231.35
789.03	231.33
789.35	231.29
789.67	231.26
789.99	231.18
790.32	231.14
790.64	231.12
790.96	231.16
791.28	231.09
791.61	231.04
791.93	231.01
792.25	230.94
792.57	230.98
792.89	230.90
793.21	230.84
793.54	230.75
793.86	230.69
794.18	230.65
794.50	230.60
794.82	230.56
795.14	230.56
795.47	230.53
795.79	230.51
796.11	230.46
796.43	230.40
796.75	230.38
797.07	230.33
797.39	230.25
797.71	230.16
798.04	230.14
798.36	230.12
798.68	230.05
799.00	230.07
799.32	229.96
799.64	229.97
799.96	229.95
800.28	229.93
800.60	229.91
800.92	229.91
801.24	229.89
801.56	229.89
801.89	229.82
802.21	229.79
802.53	229.74
802.85	229.74
803.17	229.79
803.49	229.73
803.81	229.69
804.13	229.70
804.45	229.63
804.77	229.61
805.09	229.58
805.41	229.60
805.73	229.51
806.05	229.47
806.37	229.44
806.69	229.37
807.01	229.34
807.33	229.32
807.65	229.23
807.97	229.26
808.28	229.20
808.60	229.19
808.92	229.15
809.24	229.16
809.56	229.10
809.88	229.05
810.20	229.08
810.52	229.10
810.84	229.07
811.16	229.05
811.48	229.00
811.80	229.01
812.12	228.94
812.43	228.95
812.75	228.93
813.07	228.88
813.39	228.89
813.71	228.85
814.03	228.78
814.35	228.78
814.67	228.71
814.98	228.71
815.30	228.70
815.62	228.65
815.94	228.59
816.26	228.64
816.58	228.60
816.89	228.56
817.21	228.50
817.53	228.49
817.85	228.48
818.17	228.48
818.48	228.43
818.80	228.44
819.12	228.42
819.44	228.39
819.76	228.38
820.07	228.35
820.39	228.35
820.71	228.36
821.03	228.36
821.34	228.34
821.66	228.35
821.98	228.35
822.30	228.35
822.61	228.40
822.93	228.30
823.25	228.26
823.57	228.25
823.88	228.28
824.20	228.27
824.52	228.27
824.83	228.24
825.15	228.22
825.47	228.17
825.79	228.20
826.10	228.22
826.42	228.20
826.74	228.20
827.05	228.19
827.37	228.16
827.69	228.12
828.00	228.11
828.32	228.09
828.64	228.07
828.95	228.13
829.27	228.08
829.58	228.08
829.90	228.10
830.22	228.09
830.53	228.05
830.85	228.04
831.17	227.99
831.48	228.01
831.80	228.05
832.11	228.05
832.43	228.01
832.75	227.97
833.06	228.04
833.38	228.02
833.69	228.02
834.01	228.03
834.32	228.03
834.64	228.03
834.96	227.98
835.27	227.97
835.59	227.95
835.90	227.91
836.22	227.90
836.53	227.90
836.85	227.93
837.16	227.99
837.48	227.98
837.79	228.00
838.11	228.00
838.42	227.98
838.74	228.03
839.05	228.01
839.37	228.00
839.68	227.90
840.00	227.88
840.31	227.88
840.63	227.86
840.94	227.86
841.26	227.85
841.57	227.89
841.88	227.87
842.20	227.81
842.51	227.79
842.83	227.77
843.14	227.82
843.46	227.80
843.77	227.76
844.08	227.76
844.40	227.71
844.71	227.68
845.03	227.65
845.34	227.61
845.65	227.60
845.97	227.58
846.28	227.61
846.60	227.61
846.91	227.57
847.22	227.56
847.54	227.54
847.85	227.52
848.16	227.49
848.48	227.48
848.79	227.52
849.10	227.55
849.42	227.54
849.73	227.45
850.04	227.44
850.36	227.36
850.67	227.34
850.98	227.32
851.30	227.32
851.61	227.30
851.92	227.29
852.23	227.29
852.55	227.29
852.86	227.27
853.17	227.30
853.49	227.31
853.80	227.30
854.11	227.32
854.42	227.35
854.74	227.32
855.05	227.30
855.36	227.24
855.67	227.22
855.99	227.22
856.30	227.33
856.61	227.30
856.92	227.31
857.23	227.33
857.55	227.33
857.86	227.30
858.17	227.32
858.48	227.30
858.79	227.30
859.11	227.29
859.42	227.27
859.73	227.24
860.04	227.22
860.35	227.22
860.66	227.19
860.98	227.13
861.29	227.15
861.60	227.17
861.91	227.20
862.22	227.19
862.53	227.17
862.84	227.08
863.16	227.11
863.47	227.09
863.78	227.06
864.09	227.05
864.40	227.07
864.71	227.07
865.02	227.07
865.33	227.09
865.64	227.08
865.95	227.08
866.27	227.14
866.58	227.15
866.89	227.18
867.20	227.14
867.51	227.13
867.82	227.10
868.13	227.13
868.44	227.10
868.75	227.11
869.06	227.14
869.37	227.11
869.68	227.08
869.99	227.13
870.30	227.15
870.61	227.19
870.92	227.18
871.23	227.16
871.54	227.16
871.85	227.17
872.16	227.18
872.47	227.16
872.78	227.06
873.09	227.08
873.40	227.02
873.71	227.07
874.02	227.07
874.33	227.09
874.64	227.09
874.95	227.10
875.26	227.10
875.56	227.08
875.87	227.05
876.18	227.08
876.49	227.14
876.80	227.09
877.11	227.07
877.42	227.06
877.73	227.08
878.04	227.11
878.35	227.11
878.66	227.11
878.96	227.12
879.27	227.20
879.58	227.18
879.89	227.22
880.20	227.24
880.51	227.24
880.82	227.22
881.12	227.19
881.43	227.17
881.74	227.14
882.05	227.10
882.36	227.17
882.67	227.18
882.97	227.07
883.28	227.07
883.59	227.07
883.90	227.11
884.21	227.11
884.51	227.09
884.82	227.05
885.13	227.04
885.44	227.05
885.74	227.01
886.05	227.03
886.36	227.03
886.67	227.00
886.98	227.08
887.28	227.10
887.59	227.12
887.90	227.10
888.20	227.10
888.51	227.16
888.82	227.09
889.13	227.08
889.43	227.13
889.74	227.11
890.05	227.07
890.35	227.03
890.66	226.99
890.97	226.96
891.28	226.95
891.58	226.94
891.89	226.93
892.20	226.90
892.50	226.88
892.81	226.82
893.12	226.78
893.42	226.70
893.73	226.67
894.04	226.64
894.34	226.66
894.65	226.63
894.95	226.56
895.26	226.58
895.57	226.57
895.87	226.47
896.18	226.53
896.48	226.57
896.79	226.54
897.10	226.57
897.40	226.55
897.71	226.54
898.01	226.55
898.32	226.55
898.63	226.53
898.93	226.50
899.24	226.50
899.54	226.51
899.85	226.49
900.15	226.51
900.46	226.49
900.76	226.48
901.07	226.52
901.38	226.54
901.68	226.56
901.99	226.52
902.29	226.55
902.60	226.54
902.90	226.53
903.21	226.53
903.51	226.51
903.82	226.55
904.12	226.55
904.43	226.51
904.73	226.52
905.03	226.56
905.34	226.66
905.64	226.66
905.95	226.68
906.25	226.68
906.56	226.69
906.86	226.71
907.17	226.71
907.47	226.71
907.77	226.70
908.08	226.71
908.38	226.71
908.69	226.73
908.99	226.72
909.30	226.69
909.60	226.69
909.90	226.71
910.21	226.67
910.51	226.65
910.81	226.69
911.12	226.67
911.42	226.64
911.73	226.59
912.03	226.64
912.33	226.65
912.64	226.66
912.94	226.65
913.24	226.61
913.55	226.62
913.85	226.61
914.15	226.65
914.46	226.65
914.76	226.69
915.06	226.68
915.37	226.70
915.67	226.71
915.97	226.74
916.27	226.71
916.58	226.74
916.88	226.80
917.18	226.79
917.49	226.88
917.79	226.86
918.09	226.85
918.39	226.84
918.70	226.83
919.00	226.86
919.30	226.90
919.60	226.96
919.91	226.94
920.21	226.98
920.51	226.97
920.81	226.97
921.12	226.98
921.42	226.95
921.72	226.96
922.02	226.99
922.32	226.99
922.63	227.01
922.93	227.07
923.23	227.05
923.53	227.02
923.83	226.99
924.13	227.03
924.44	227.05
924.74	227.07
925.04	227.12
925.34	227.08
925.64	227.04
925.94	227.01
926.24	227.06
926.55	227.05
926.85	227.03
927.15	227.01
927.45	227.01
927.75	227.02
928.05	227.03
928.35	227.01
928.65	227.05
928.95	227.06
929.26	227.00
929.56	227.00
929.86	227.03
930.16	227.01
930.46	226.98
930.76	226.95
931.06	226.90
931.36	226.86
931.66	226.86
931.96	226.88
932.26	226.88
932.56	226.84
932.86	226.80
933.16	226.80
933.46	226.79
933.76	226.75
934.06	226.79
934.36	226.78
934.66	226.77
934.96	226.75
935.26	226.74
935.56	226.76
935.86	226.73
936.16	226.68
936.46	226.64
936.76	226.63
937.06	226.62
937.36	226.62
937.66	226.59
937.96	226.59
938.26	226.54
938.56	226.53
938.86	226.54
939.16	226.56
939.46	226.54
939.76	226.52
940.06	226.51
940.35	226.47
940.65	226.45
940.95	226.45
941.25	226.38
941.55	226.39
941.85	226.36
942.15	226.35
942.45	226.42
942.75	226.39
943.04	226.40
943.34	226.41
943.64	226.43
943.94	226.41
944.24	226.43
944.54	226.44
944.84	226.50
945.13	226.48
945.43	226.49
945.73	226.50
946.03	226.52
946.33	226.53
946.62	226.54
946.92	226.54
947.22	226.54
947.52	226.61
947.82	226.64
948.11	226.65
948.41	226.67
948.71	226.67
949.01	226.71
949.31	226.72
949.60	226.74
949.90	226.76
950.20	226.79
950.50	226.82
950.79	226.81
951.09	226.78
951.39	226.75
951.69	226.74
951.98	226.78
952.28	226.81
952.58	226.84
952.87	226.85
953.17	226.87
953.47	226.89
953.76	226.89
954.06	226.87
954.36	226.88
954.66	226.88
954.95	226.91
955.25	226.94
955.55	226.98
955.84	226.97
956.14	226.99
956.44	226.98
956.73	226.93
957.03	226.97
957.32	226.98
957.62	227.03
957.92	227.09
958.21	227.07
958.51	227.17
958.81	227.17
959.10	227.18
959.40	227.22
959.69	227.22
959.99	227.21
960.29	227.21
960.58	227.20
960.88	227.26
961.17	227.23
961.47	227.22
961.76	227.21
962.06	227.22
962.36	227.20
962.65	227.23
962.95	227.26
963.24	227.25
963.54	227.23
963.83	227.24
964.13	227.20
964.42	227.19
964.72	227.12
965.01	227.13
965.31	227.09
965.60	227.04
965.90	227.10
966.19	227.08
966.49	227.08
966.78	227.08
967.08	227.04
967.37	226.98
967.67	226.95
967.96	226.94
968.26	226.92
968.55	226.90
968.85	226.86
969.14	226.82
969.43	226.83
969.73	226.83
970.02	226.79
970.32	226.78
970.61	226.75
970.91	226.71
971.20	226.67
971.49	226.69
971.79	226.68
972.08	226.59
972.38	226.61
972.67	226.58
972.96	226.55
973.26	226.53
973.55	226.56
973.85	226.57
974.14	226.55
974.43	226.56
974.73	226.59
975.02	226.62
975.31	226.64
975.61	226.66
975.90	226.64
976.19	226.64
976.49	226.61
976.78	226.62
977.07	226.61
977.37	226.59
977.66	226.59
977.95	226.58
978.24	226.58
978.54	226.60
978.83	226.56
979.12	226.60
979.42	226.60
979.71	226.60
980.00	226.58
980.29	226.58
980.59	226.57
980.88	226.56
981.17	226.53
981.46	226.53
981.76	226.47
982.05	226.49
982.34	226.50
982.63	226.54
982.93	226.54
983.22	226.54
983.51	226.56
983.80	226.54
984.09	226.55
984.39	226.57
984.68	226.52
984.97	226.55
985.26	226.53
985.55	226.51
985.85	226.50
986.14	226.51
986.43	226.53
986.72	226.52
987.01	226.48
987.30	226.46
987.59	226.43
987.89	226.46
988.18	226.44
988.47	226.44
988.76	226.45
989.05	226.46
989.34	226.46
989.63	226.51
989.92	226.49
990.22	226.48
990.51	226.48
990.80	226.50
991.09	226.53
991.38	226.55
991.67	226.56
991.96	226.57
992.25	226.58
992.54	226.55
992.83	226.55
993.12	226.60
993.41	226.68
993.70	226.74
993.99	226.74
994.28	226.77
994.58	226.81
994.87	226.79
995.16	226.77
995.45	226.79
995.74	226.76
996.03	226.80
996.32	226.81
996.61	226.84
996.90	226.84
997.19	226.83
997.48	226.83
997.77	226.84
998.06	226.85
998.34	226.86
998.63	226.87
998.92	226.87
999.21	226.85
999.50	226.79
999.79	226.73
1000.08	226.76
1000.37	226.73
1000.66	226.69
1000.95	226.69
1001.24	226.67
1001.53	226.66
1001.82	226.63
1002.11	226.58
1002.40	226.59
1002.68	226.58
1002.97	226.65
1003.26	226.61
1003.55	226.59
1003.84	226.59
1004.13	226.62
1004.42	226.60
1004.71	226.60
1004.99	226.58
1005.28	226.60
1005.57	226.60
1005.86	226.61
1006.15	226.58
1006.44	226.55
1006.72	226.58
1007.01	226.56
1007.30	226.57
1007.59	226.54
1007.88	226.56
1008.17	226.57
1008.45	226.52
1008.74	226.48
1009.03	226.41
1009.32	226.38
1009.60	226.35
1009.89	226.32
1010.18	226.27
1010.47	226.26
1010.76	226.25
1011.04	226.27
1011.33	226.28
1011.62	226.30
1011.91	226.32
1012.19	226.33
1012.48	226.34
1012.77	226.33
1013.05	226.40
1013.34	226.40
1013.63	226.42
1013.92	226.42
1014.20	226.40
1014.49	226.43
1014.78	226.44
1015.06	226.40
1015.35	226.43
1015.64	226.46
1015.92	226.47
1016.21	226.49
1016.50	226.51
1016.78	226.51
1017.07	226.49
1017.36	226.44
1017.64	226.38
1017.93	226.35
1018.22	226.36
1018.50	226.35
1018.79	226.35
1019.08	226.29
1019.36	226.28
1019.65	226.27
1019.93	226.32
1020.22	226.35
1020.51	226.39
1020.79	226.39
1021.08	226.85
1021.36	226.26
1021.65	226.43
1021.94	226.30
1022.22	226.12
1022.51	226.36
1022.79	227.13
1023.08	226.83
1023.36	227.44
1023.65	226.30
>>>>>End Processed Spectral Data<<<<<
