SpectraSuite Data File
++++++++++++++++++++++++++++++++++++
Date: Fri Feb 01 16:20:08 EST 2013
User: group
Dark Spectrum Present: No
Reference Spectrum Present: No
Number of Sampled Component Spectra: 1
Spectrometers: USB2E7196
Integration Time (usec): 35000 (USB2E7196)
Spectra Averaged: 100 (USB2E7196)
Boxcar Smoothing: 10 (USB2E7196)
Correct for Electrical Dark: No (USB2E7196)
Strobe/Lamp Enabled: No (USB2E7196)
Correct for Detector Non-linearity: No (USB2E7196)
Correct for Stray Light: No (USB2E7196)
Number of Pixels in Processed Spectrum: 2048
>>>>>Begin Processed Spectral Data<<<<<
339.09	0.00
339.48	214.75
339.86	215.34
340.24	216.31
340.63	218.92
341.01	221.64
341.39	221.06
341.78	223.04
342.16	223.86
342.54	224.08
342.93	212.62
343.31	223.37
343.69	223.88
344.07	224.34
344.46	224.79
344.84	225.14
345.22	225.34
345.60	225.57
345.99	225.73
346.37	225.83
346.75	225.91
347.13	225.94
347.52	225.98
347.90	226.08
348.28	226.04
348.66	226.09
349.05	226.08
349.43	226.12
349.81	226.17
350.19	226.16
350.57	226.22
350.96	226.27
351.34	226.34
351.72	226.38
352.10	226.47
352.48	226.53
352.87	226.59
353.25	226.66
353.63	226.72
354.01	226.79
354.39	226.87
354.77	226.96
355.15	227.06
355.54	227.11
355.92	227.11
356.30	227.21
356.68	227.31
357.06	227.36
357.44	227.40
357.82	227.45
358.20	227.55
358.58	227.62
358.97	227.68
359.35	227.73
359.73	227.83
360.11	227.88
360.49	227.92
360.87	227.95
361.25	228.02
361.63	228.10
362.01	228.13
362.39	228.15
362.77	228.20
363.15	228.24
363.53	228.26
363.91	228.30
364.29	228.37
364.67	228.28
365.05	228.31
365.43	228.31
365.81	228.32
366.19	228.37
366.57	228.39
366.95	228.40
367.33	228.37
367.71	228.39
368.09	228.37
368.47	228.39
368.85	228.39
369.23	228.36
369.61	228.32
369.99	228.30
370.37	228.30
370.75	228.31
371.13	228.25
371.51	228.22
371.89	228.19
372.27	228.12
372.65	228.12
373.03	228.10
373.41	228.09
373.78	228.06
374.16	227.97
374.54	227.89
374.92	227.82
375.30	227.80
375.68	227.71
376.06	227.68
376.44	227.60
376.82	227.55
377.19	227.51
377.57	227.45
377.95	227.38
378.33	227.30
378.71	227.19
379.09	227.18
379.47	227.13
379.84	227.05
380.22	226.99
380.60	226.92
380.98	226.81
381.36	226.72
381.73	226.63
382.11	226.59
382.49	226.56
382.87	226.50
383.25	226.42
383.62	226.49
384.00	226.43
384.38	226.37
384.76	226.34
385.13	226.31
385.51	226.24
385.89	226.16
386.27	226.11
386.64	226.09
387.02	226.01
387.40	225.95
387.78	225.96
388.15	225.94
388.53	225.92
388.91	225.90
389.29	225.85
389.66	225.82
390.04	225.80
390.42	225.78
390.79	225.78
391.17	225.76
391.55	225.63
391.92	225.62
392.30	225.65
392.68	225.63
393.05	225.61
393.43	225.64
393.81	225.65
394.18	225.66
394.56	225.66
394.94	225.68
395.31	225.68
395.69	225.67
396.06	225.67
396.44	225.70
396.82	225.72
397.19	225.81
397.57	225.86
397.95	225.89
398.32	225.87
398.70	225.92
399.07	225.98
399.45	226.03
399.82	226.03
400.20	226.07
400.58	226.13
400.95	226.16
401.33	226.23
401.70	226.39
402.08	226.48
402.45	226.58
402.83	226.66
403.20	226.76
403.58	226.88
403.95	227.03
404.33	227.10
404.71	227.21
405.08	227.38
405.46	227.52
405.83	227.64
406.21	227.82
406.58	227.99
406.96	228.18
407.33	228.32
407.70	228.58
408.08	228.84
408.45	229.06
408.83	229.27
409.20	229.46
409.58	229.64
409.95	229.89
410.33	230.15
410.70	230.42
411.08	230.73
411.45	231.03
411.82	231.33
412.20	231.71
412.57	232.15
412.95	232.40
413.32	232.82
413.69	233.25
414.07	233.66
414.44	234.07
414.82	234.52
415.19	235.08
415.56	235.63
415.94	236.18
416.31	236.80
416.68	237.47
417.06	238.23
417.43	238.90
417.81	239.69
418.18	240.49
418.55	241.34
418.93	242.21
419.30	243.09
419.67	244.02
420.04	245.00
420.42	245.99
420.79	247.22
421.16	248.33
421.54	249.54
421.91	250.76
422.28	252.05
422.66	253.40
423.03	254.72
423.40	256.02
423.77	257.43
424.15	258.89
424.52	260.39
424.89	261.98
425.26	263.56
425.64	265.03
426.01	266.57
426.38	268.23
426.75	269.91
427.13	271.63
427.50	273.43
427.87	275.30
428.24	277.14
428.61	278.88
428.99	280.83
429.36	282.90
429.73	284.93
430.10	286.94
430.47	288.98
430.85	291.13
431.22	293.36
431.59	295.70
431.96	297.90
432.33	300.38
432.70	302.77
433.08	305.55
433.45	308.18
433.82	310.80
434.19	313.68
434.56	316.47
434.93	319.12
435.30	321.76
435.68	324.63
436.05	327.48
436.42	330.28
436.79	332.78
437.16	335.48
437.53	338.39
437.90	341.19
438.27	343.93
438.64	346.71
439.01	349.31
439.38	351.57
439.75	353.74
440.13	356.13
440.50	358.42
440.87	360.21
441.24	362.12
441.61	364.25
441.98	365.71
442.35	367.54
442.72	369.38
443.09	371.15
443.46	372.10
443.83	372.64
444.20	373.14
444.57	374.00
444.94	374.26
445.31	374.55
445.68	374.92
446.05	374.99
446.42	374.58
446.79	374.10
447.16	373.65
447.53	373.34
447.90	372.23
448.27	371.07
448.64	369.55
449.01	368.40
449.37	366.42
449.74	364.53
450.11	362.27
450.48	359.83
450.85	357.31
451.22	355.21
451.59	353.23
451.96	351.28
452.33	348.69
452.70	346.36
453.07	343.55
453.43	340.64
453.80	337.88
454.17	335.22
454.54	332.70
454.91	329.95
455.28	327.27
455.65	324.82
456.02	322.41
456.38	320.25
456.75	317.59
457.12	315.39
457.49	313.19
457.86	311.02
458.23	309.17
458.59	307.16
458.96	305.10
459.33	303.24
459.70	301.40
460.07	299.87
460.43	298.15
460.80	296.53
461.17	295.14
461.54	293.66
461.91	292.28
462.27	290.90
462.64	289.67
463.01	288.33
463.38	287.04
463.74	285.67
464.11	284.54
464.48	283.53
464.85	282.43
465.21	281.61
465.58	280.70
465.95	279.63
466.32	278.77
466.68	277.85
467.05	276.97
467.42	276.06
467.78	275.17
468.15	274.32
468.52	273.67
468.88	272.77
469.25	272.05
469.62	271.42
469.98	270.74
470.35	270.17
470.72	269.58
471.08	268.92
471.45	268.41
471.82	267.86
472.18	267.29
472.55	266.88
472.92	266.33
473.28	265.90
473.65	265.43
474.02	264.96
474.38	264.63
474.75	264.33
475.11	263.98
475.48	263.72
475.85	263.51
476.21	263.30
476.58	263.14
476.94	262.98
477.31	262.81
477.67	262.65
478.04	262.51
478.41	262.47
478.77	262.52
479.14	262.47
479.50	262.50
479.87	262.56
480.23	262.62
480.60	262.72
480.96	262.78
481.33	262.99
481.69	263.20
482.06	263.38
482.42	263.57
482.79	263.82
483.15	264.15
483.52	264.50
483.88	264.86
484.25	265.25
484.61	265.66
484.98	266.12
485.34	266.67
485.71	267.25
486.07	267.85
486.44	268.41
486.80	269.09
487.17	269.78
487.53	270.56
487.90	271.40
488.26	272.31
488.62	273.32
488.99	274.29
489.35	275.31
489.72	276.43
490.08	277.66
490.44	278.95
490.81	280.25
491.17	281.65
491.54	283.12
491.90	284.64
492.26	286.31
492.63	288.03
492.99	289.82
493.36	291.72
493.72	293.77
494.08	295.91
494.45	298.15
494.81	300.52
495.17	302.99
495.54	305.57
495.90	308.29
496.26	311.07
496.63	314.07
496.99	317.18
497.35	320.47
497.72	323.85
498.08	327.38
498.44	331.03
498.80	334.95
499.17	339.00
499.53	343.17
499.89	347.58
500.26	352.12
500.62	356.78
500.98	361.79
501.34	366.86
501.71	372.19
502.07	377.64
502.43	383.33
502.79	389.18
503.16	395.27
503.52	401.46
503.88	407.95
504.24	414.58
504.60	421.49
504.97	428.58
505.33	435.89
505.69	443.58
506.05	451.39
506.41	459.29
506.78	467.45
507.14	475.93
507.50	484.64
507.86	493.67
508.22	502.86
508.59	512.09
508.95	521.69
509.31	531.52
509.67	541.62
510.03	551.90
510.39	562.38
510.75	573.17
511.12	584.19
511.48	595.43
511.84	606.86
512.20	618.38
512.56	630.45
512.92	642.73
513.28	655.16
513.64	667.62
514.00	680.29
514.37	693.26
514.73	706.32
515.09	719.32
515.45	732.61
515.81	746.22
516.17	760.18
516.53	774.26
516.89	788.42
517.25	802.60
517.61	816.97
517.97	831.43
518.33	845.87
518.69	860.56
519.05	875.50
519.41	890.66
519.77	906.25
520.13	921.68
520.49	936.95
520.85	952.29
521.21	968.00
521.57	984.26
521.93	999.98
522.29	1016.32
522.65	1032.51
523.01	1048.69
523.37	1064.70
523.73	1080.84
524.09	1096.94
524.45	1113.23
524.81	1129.80
525.17	1146.63
525.53	1163.45
525.89	1180.30
526.25	1197.25
526.61	1213.64
526.97	1230.45
527.33	1246.79
527.68	1263.16
528.04	1279.65
528.40	1296.23
528.76	1313.18
529.12	1329.72
529.48	1346.43
529.84	1362.39
530.20	1379.05
530.56	1395.99
530.91	1413.36
531.27	1430.04
531.63	1446.46
531.99	1463.06
532.35	1478.96
532.71	1494.76
533.07	1510.96
533.42	1526.62
533.78	1542.46
534.14	1558.67
534.50	1573.86
534.86	1589.62
535.21	1604.82
535.57	1620.67
535.93	1636.12
536.29	1650.99
536.65	1665.88
537.00	1680.75
537.36	1695.96
537.72	1710.42
538.08	1724.73
538.44	1738.47
538.79	1752.27
539.15	1765.82
539.51	1779.43
539.87	1793.59
540.22	1807.26
540.58	1821.08
540.94	1834.52
541.29	1847.39
541.65	1859.97
542.01	1873.04
542.37	1885.34
542.72	1897.79
543.08	1909.49
543.44	1921.72
543.79	1932.76
544.15	1943.75
544.51	1955.20
544.87	1966.03
545.22	1976.81
545.58	1986.94
545.94	1996.61
546.29	2006.34
546.65	2016.18
547.01	2025.26
547.36	2033.96
547.72	2042.34
548.07	2050.00
548.43	2058.09
548.79	2066.09
549.14	2073.62
549.50	2081.03
549.86	2088.70
550.21	2095.86
550.57	2102.97
550.92	2109.54
551.28	2116.56
551.64	2123.60
551.99	2130.07
552.35	2136.39
552.70	2142.43
553.06	2148.53
553.41	2154.79
553.77	2160.90
554.13	2167.05
554.48	2173.32
554.84	2178.92
555.19	2184.18
555.55	2189.47
555.90	2194.03
556.26	2198.89
556.61	2203.62
556.97	2207.82
557.32	2212.01
557.68	2216.20
558.03	2220.50
558.39	2224.10
558.74	2228.71
559.10	2232.54
559.45	2236.28
559.81	2240.63
560.16	2244.44
560.52	2247.53
560.87	2250.93
561.23	2253.56
561.58	2256.48
561.94	2258.88
562.29	2261.27
562.64	2263.94
563.00	2266.45
563.35	2269.84
563.71	2272.97
564.06	2276.22
564.42	2279.27
564.77	2281.76
565.12	2284.01
565.48	2285.97
565.83	2287.91
566.19	2289.29
566.54	2290.24
566.89	2291.37
567.25	2291.90
567.60	2293.20
567.96	2294.91
568.31	2295.85
568.66	2297.11
569.02	2297.66
569.37	2298.10
569.72	2299.03
570.08	2299.26
570.43	2299.30
570.78	2298.96
571.14	2297.54
571.49	2296.17
571.84	2295.71
572.20	2294.60
572.55	2293.70
572.90	2292.16
573.26	2290.73
573.61	2289.05
573.96	2287.53
574.31	2284.51
574.67	2281.62
575.02	2278.21
575.37	2275.00
575.72	2271.28
576.08	2267.78
576.43	2264.52
576.78	2260.79
577.13	2257.60
577.49	2254.63
577.84	2251.26
578.19	2247.45
578.54	2243.88
578.90	2239.72
579.25	2234.21
579.60	2229.37
579.95	2224.19
580.30	2219.22
580.66	2214.36
581.01	2209.52
581.36	2204.60
581.71	2200.48
582.06	2195.94
582.42	2191.39
582.77	2186.20
583.12	2181.67
583.47	2177.10
583.82	2172.15
584.17	2167.07
584.53	2161.70
584.88	2156.08
585.23	2150.36
585.58	2144.82
585.93	2139.26
586.28	2134.55
586.63	2129.58
586.98	2124.45
587.34	2119.92
587.69	2115.06
588.04	2109.70
588.39	2104.07
588.74	2097.50
589.09	2091.43
589.44	2084.74
589.79	2078.77
590.14	2073.13
590.49	2066.52
590.84	2060.15
591.19	2054.19
591.54	2047.71
591.89	2040.34
592.25	2033.50
592.60	2026.14
592.95	2018.64
593.30	2011.37
593.65	2003.76
594.00	1996.75
594.35	1989.59
594.70	1981.59
595.05	1974.41
595.40	1967.16
595.75	1959.53
596.10	1953.36
596.45	1946.60
596.80	1940.44
597.15	1933.85
597.50	1926.75
597.85	1920.48
598.19	1913.80
598.54	1906.60
598.89	1899.98
599.24	1894.12
599.59	1887.46
599.94	1881.50
600.29	1875.15
600.64	1868.63
600.99	1861.28
601.34	1854.52
601.69	1847.53
602.04	1840.64
602.39	1833.27
602.74	1826.43
603.08	1819.85
603.43	1813.25
603.78	1806.00
604.13	1798.80
604.48	1791.53
604.83	1784.80
605.18	1777.82
605.53	1769.92
605.87	1761.99
606.22	1754.88
606.57	1746.90
606.92	1739.58
607.27	1732.41
607.62	1725.50
607.96	1718.18
608.31	1711.59
608.66	1704.02
609.01	1696.53
609.36	1689.01
609.70	1681.06
610.05	1672.99
610.40	1665.32
610.75	1656.87
611.10	1649.33
611.44	1640.96
611.79	1633.02
612.14	1624.32
612.49	1615.18
612.83	1606.73
613.18	1598.59
613.53	1590.46
613.88	1581.89
614.22	1573.53
614.57	1564.92
614.92	1556.93
615.27	1549.40
615.61	1541.02
615.96	1532.89
616.31	1525.34
616.65	1517.92
617.00	1510.40
617.35	1502.79
617.70	1494.37
618.04	1486.01
618.39	1477.70
618.74	1470.15
619.08	1461.76
619.43	1454.10
619.78	1447.19
620.12	1440.06
620.47	1432.55
620.82	1424.31
621.16	1416.95
621.51	1409.47
621.85	1401.81
622.20	1393.32
622.55	1385.00
622.89	1377.12
623.24	1369.52
623.59	1361.99
623.93	1354.47
624.28	1347.19
624.62	1339.61
624.97	1332.44
625.32	1325.59
625.66	1318.64
626.01	1311.50
626.35	1304.10
626.70	1296.36
627.04	1288.66
627.39	1280.85
627.73	1273.42
628.08	1266.58
628.43	1259.26
628.77	1251.93
629.12	1244.32
629.46	1237.19
629.81	1229.75
630.15	1222.51
630.50	1215.15
630.84	1206.99
631.19	1199.06
631.53	1191.54
631.88	1184.07
632.22	1176.44
632.57	1169.14
632.91	1161.49
633.26	1154.02
633.60	1146.64
633.95	1139.50
634.29	1132.41
634.64	1125.69
634.98	1118.41
635.32	1111.23
635.67	1104.55
636.01	1097.87
636.36	1091.13
636.70	1084.48
637.05	1077.91
637.39	1071.39
637.73	1064.90
638.08	1058.93
638.42	1052.96
638.77	1046.47
639.11	1039.82
639.45	1033.49
639.80	1026.75
640.14	1020.30
640.49	1013.74
640.83	1007.41
641.17	1001.22
641.52	994.80
641.86	988.40
642.20	982.51
642.55	976.18
642.89	969.80
643.23	963.19
643.58	957.44
643.92	951.28
644.26	945.11
644.61	939.12
644.95	933.01
645.29	926.44
645.64	919.71
645.98	913.45
646.32	907.61
646.66	901.59
647.01	895.81
647.35	890.11
647.69	884.25
648.04	878.70
648.38	872.82
648.72	866.79
649.06	860.70
649.41	854.78
649.75	848.80
650.09	842.71
650.43	836.88
650.78	830.62
651.12	824.73
651.46	819.08
651.80	813.30
652.14	807.93
652.49	802.55
652.83	797.37
653.17	791.59
653.51	785.88
653.85	780.38
654.20	774.76
654.54	768.75
654.88	763.02
655.22	757.12
655.56	751.51
655.90	746.13
656.25	740.96
656.59	735.58
656.93	730.51
657.27	725.39
657.61	720.03
657.95	714.99
658.29	709.82
658.64	704.56
658.98	699.28
659.32	693.84
659.66	688.65
660.00	683.30
660.34	678.38
660.68	673.39
661.02	668.41
661.36	663.68
661.70	659.17
662.05	654.74
662.39	650.42
662.73	645.94
663.07	641.54
663.41	637.01
663.75	632.50
664.09	627.85
664.43	623.44
664.77	619.26
665.11	614.97
665.45	610.86
665.79	606.74
666.13	602.61
666.47	598.43
666.81	594.31
667.15	590.23
667.49	586.35
667.83	582.59
668.17	578.62
668.51	574.49
668.85	570.46
669.19	566.64
669.53	562.74
669.87	558.88
670.21	555.16
670.55	551.50
670.89	548.07
671.23	544.69
671.57	541.22
671.91	537.63
672.25	534.09
672.58	530.53
672.92	527.13
673.26	523.93
673.60	520.81
673.94	517.74
674.28	514.78
674.62	511.82
674.96	508.67
675.30	505.77
675.64	502.79
675.97	499.99
676.31	497.12
676.65	494.23
676.99	491.49
677.33	488.63
677.67	485.81
678.01	482.77
678.34	479.77
678.68	476.89
679.02	474.11
679.36	471.35
679.70	468.68
680.04	465.92
680.37	463.04
680.71	460.21
681.05	457.44
681.39	454.75
681.73	452.08
682.06	449.55
682.40	446.94
682.74	444.49
683.08	441.95
683.42	439.34
683.75	436.86
684.09	434.27
684.43	431.75
684.77	429.28
685.10	426.93
685.44	424.60
685.78	422.27
686.12	420.05
686.45	417.73
686.79	415.38
687.13	413.13
687.46	410.91
687.80	408.79
688.14	406.63
688.48	404.53
688.81	402.27
689.15	400.14
689.49	398.04
689.82	395.92
690.16	393.85
690.50	391.91
690.83	389.90
691.17	387.92
691.51	386.02
691.84	384.19
692.18	382.27
692.52	380.29
692.85	378.37
693.19	376.50
693.52	374.67
693.86	372.87
694.20	371.08
694.53	369.34
694.87	367.47
695.21	365.64
695.54	363.81
695.88	362.09
696.21	360.35
696.55	358.68
696.88	357.03
697.22	355.34
697.56	353.66
697.89	352.05
698.23	350.45
698.56	348.89
698.90	347.28
699.23	345.63
699.57	344.09
699.90	342.58
700.24	341.03
700.58	339.53
700.91	338.02
701.25	336.57
701.58	335.16
701.92	333.81
702.25	332.47
702.59	331.07
702.92	329.74
703.26	328.42
703.59	327.13
703.93	325.95
704.26	324.73
704.60	323.45
704.93	322.19
705.26	320.93
705.60	319.72
705.93	318.58
706.27	317.56
706.60	316.52
706.94	315.41
707.27	314.30
707.61	313.22
707.94	312.24
708.27	311.20
708.61	310.17
708.94	309.16
709.28	308.17
709.61	307.23
709.94	306.25
710.28	305.25
710.61	304.28
710.95	303.20
711.28	302.30
711.61	301.36
711.95	300.46
712.28	299.51
712.61	298.53
712.95	297.61
713.28	296.70
713.61	295.77
713.95	294.90
714.28	294.04
714.61	293.20
714.95	292.33
715.28	291.46
715.61	290.58
715.95	289.73
716.28	288.85
716.61	288.00
716.95	287.19
717.28	286.42
717.61	285.65
717.94	284.89
718.28	284.04
718.61	283.32
718.94	282.58
719.27	281.93
719.61	281.27
719.94	280.64
720.27	279.91
720.60	279.28
720.94	278.63
721.27	278.04
721.60	277.44
721.93	276.83
722.27	276.29
722.60	275.73
722.93	275.16
723.26	274.63
723.59	274.09
723.93	273.57
724.26	273.04
724.59	272.51
724.92	272.01
725.25	271.52
725.59	270.97
725.92	270.50
726.25	269.96
726.58	269.48
726.91	268.97
727.24	268.50
727.57	267.98
727.91	267.49
728.24	267.00
728.57	266.50
728.90	266.07
729.23	265.52
729.56	265.08
729.89	264.60
730.22	264.12
730.55	263.63
730.89	263.15
731.22	262.66
731.55	262.21
731.88	261.73
732.21	261.29
732.54	260.86
732.87	260.37
733.20	259.97
733.53	259.58
733.86	259.16
734.19	258.77
734.52	258.37
734.85	258.05
735.18	257.65
735.51	257.27
735.84	256.91
736.17	256.58
736.50	256.20
736.83	255.98
737.16	255.67
737.49	255.37
737.82	255.01
738.15	254.70
738.48	254.37
738.81	254.05
739.14	253.72
739.47	253.41
739.80	253.17
740.13	252.87
740.46	252.57
740.79	252.26
741.12	251.98
741.45	251.69
741.78	251.34
742.11	251.06
742.44	250.76
742.77	250.48
743.10	250.17
743.43	249.87
743.75	249.48
744.08	249.34
744.41	249.04
744.74	248.81
745.07	248.53
745.40	248.28
745.73	248.05
746.06	247.82
746.39	247.59
746.71	247.29
747.04	247.01
747.37	246.73
747.70	246.48
748.03	246.20
748.36	245.96
748.68	245.70
749.01	245.47
749.34	245.24
749.67	245.00
750.00	244.83
750.33	244.68
750.65	244.47
750.98	244.13
751.31	243.96
751.64	243.75
751.97	243.61
752.29	243.41
752.62	243.16
752.95	242.92
753.28	242.72
753.60	242.51
753.93	242.34
754.26	242.18
754.59	241.98
754.91	241.80
755.24	241.62
755.57	241.47
755.90	241.27
756.22	241.08
756.55	240.86
756.88	240.64
757.20	240.38
757.53	240.19
757.86	240.00
758.19	239.82
758.51	239.62
758.84	239.41
759.17	239.24
759.49	239.08
759.82	238.98
760.15	238.79
760.47	238.66
760.80	238.50
761.13	238.35
761.45	238.22
761.78	238.04
762.11	237.92
762.43	237.75
762.76	237.61
763.08	237.48
763.41	237.39
763.74	237.26
764.06	237.12
764.39	236.97
764.71	236.82
765.04	236.65
765.37	236.55
765.69	236.40
766.02	236.25
766.34	236.14
766.67	235.98
767.00	235.89
767.32	235.80
767.65	235.74
767.97	235.61
768.30	235.48
768.62	235.39
768.95	235.24
769.27	235.12
769.60	235.02
769.92	234.91
770.25	234.75
770.57	234.60
770.90	234.52
771.22	234.39
771.55	234.29
771.87	234.21
772.20	234.11
772.52	234.11
772.85	234.15
773.17	234.04
773.50	233.93
773.82	233.81
774.15	233.69
774.47	233.52
774.80	233.41
775.12	233.29
775.45	233.19
775.77	233.13
776.09	233.06
776.42	233.00
776.74	232.94
777.07	232.85
777.39	232.80
777.72	232.67
778.04	232.64
778.36	232.61
778.69	232.55
779.01	232.46
779.33	232.31
779.66	232.12
779.98	232.06
780.31	232.01
780.63	232.00
780.95	231.94
781.28	231.90
781.60	231.85
781.92	231.80
782.25	231.78
782.57	231.72
782.89	231.68
783.22	231.58
783.54	231.49
783.86	231.43
784.19	231.35
784.51	231.38
784.83	231.34
785.16	231.23
785.48	231.19
785.80	231.15
786.12	231.10
786.45	231.06
786.77	231.02
787.09	230.98
787.42	230.88
787.74	230.82
788.06	230.76
788.38	230.72
788.71	230.69
789.03	230.61
789.35	230.58
789.67	230.53
789.99	230.51
790.32	230.48
790.64	230.50
790.96	230.56
791.28	230.49
791.61	230.43
791.93	230.41
792.25	230.34
792.57	230.37
792.89	230.29
793.21	230.24
793.54	230.21
793.86	230.17
794.18	230.19
794.50	230.16
794.82	230.12
795.14	230.10
795.47	230.07
795.79	230.04
796.11	229.97
796.43	229.95
796.75	229.93
797.07	229.87
797.39	229.80
797.71	229.71
798.04	229.68
798.36	229.65
798.68	229.63
799.00	229.62
799.32	229.56
799.64	229.58
799.96	229.59
800.28	229.59
800.60	229.53
800.92	229.47
801.24	229.44
801.56	229.42
801.89	229.38
802.21	229.38
802.53	229.31
802.85	229.33
803.17	229.34
803.49	229.27
803.81	229.28
804.13	229.22
804.45	229.18
804.77	229.17
805.09	229.14
805.41	229.10
805.73	229.06
806.05	228.99
806.37	228.96
806.69	228.92
807.01	228.86
807.33	228.84
807.65	228.81
807.97	228.84
808.28	228.79
808.60	228.74
808.92	228.69
809.24	228.72
809.56	228.68
809.88	228.60
810.20	228.56
810.52	228.52
810.84	228.49
811.16	228.48
811.48	228.38
811.80	228.36
812.12	228.32
812.43	228.31
812.75	228.29
813.07	228.23
813.39	228.18
813.71	228.13
814.03	228.09
814.35	228.03
814.67	227.96
814.98	227.95
815.30	227.94
815.62	227.90
815.94	227.81
816.26	227.81
816.58	227.77
816.89	227.77
817.21	227.71
817.53	227.70
817.85	227.68
818.17	227.69
818.48	227.70
818.80	227.72
819.12	227.65
819.44	227.62
819.76	227.60
820.07	227.63
820.39	227.64
820.71	227.66
821.03	227.67
821.34	227.66
821.66	227.69
821.98	227.67
822.30	227.65
822.61	227.73
822.93	227.69
823.25	227.69
823.57	227.68
823.88	227.72
824.20	227.73
824.52	227.71
824.83	227.72
825.15	227.69
825.47	227.65
825.79	227.69
826.10	227.70
826.42	227.67
826.74	227.66
827.05	227.63
827.37	227.61
827.69	227.61
828.00	227.59
828.32	227.58
828.64	227.60
828.95	227.65
829.27	227.62
829.58	227.62
829.90	227.62
830.22	227.64
830.53	227.61
830.85	227.59
831.17	227.60
831.48	227.60
831.80	227.58
832.11	227.55
832.43	227.53
832.75	227.56
833.06	227.62
833.38	227.56
833.69	227.55
834.01	227.57
834.32	227.60
834.64	227.58
834.96	227.54
835.27	227.53
835.59	227.50
835.90	227.48
836.22	227.48
836.53	227.46
836.85	227.44
837.16	227.53
837.48	227.52
837.79	227.52
838.11	227.51
838.42	227.52
838.74	227.57
839.05	227.57
839.37	227.52
839.68	227.47
840.00	227.48
840.31	227.49
840.63	227.43
840.94	227.37
841.26	227.34
841.57	227.33
841.88	227.33
842.20	227.32
842.51	227.27
842.83	227.22
843.14	227.30
843.46	227.29
843.77	227.23
844.08	227.20
844.40	227.17
844.71	227.12
845.03	227.08
845.34	227.01
845.65	226.98
845.97	226.95
846.28	226.93
846.60	226.94
846.91	226.91
847.22	226.92
847.54	226.92
847.85	226.93
848.16	226.91
848.48	226.87
848.79	226.87
849.10	226.88
849.42	226.88
849.73	226.75
850.04	226.73
850.36	226.67
850.67	226.68
850.98	226.63
851.30	226.63
851.61	226.63
851.92	226.62
852.23	226.66
852.55	226.66
852.86	226.65
853.17	226.61
853.49	226.62
853.80	226.64
854.11	226.68
854.42	226.64
854.74	226.62
855.05	226.61
855.36	226.57
855.67	226.53
855.99	226.53
856.30	226.64
856.61	226.63
856.92	226.64
857.23	226.62
857.55	226.65
857.86	226.65
858.17	226.66
858.48	226.68
858.79	226.65
859.11	226.68
859.42	226.68
859.73	226.65
860.04	226.65
860.35	226.64
860.66	226.60
860.98	226.62
861.29	226.61
861.60	226.62
861.91	226.63
862.22	226.67
862.53	226.67
862.84	226.56
863.16	226.58
863.47	226.55
863.78	226.55
864.09	226.55
864.40	226.56
864.71	226.55
865.02	226.51
865.33	226.49
865.64	226.46
865.95	226.46
866.27	226.57
866.58	226.56
866.89	226.57
867.20	226.56
867.51	226.56
867.82	226.57
868.13	226.55
868.44	226.53
868.75	226.53
869.06	226.52
869.37	226.52
869.68	226.49
869.99	226.54
870.30	226.55
870.61	226.57
870.92	226.54
871.23	226.53
871.54	226.55
871.85	226.57
872.16	226.60
872.47	226.59
872.78	226.51
873.09	226.49
873.40	226.50
873.71	226.52
874.02	226.52
874.33	226.51
874.64	226.52
874.95	226.54
875.26	226.51
875.56	226.52
875.87	226.52
876.18	226.52
876.49	226.58
876.80	226.52
877.11	226.49
877.42	226.51
877.73	226.52
878.04	226.54
878.35	226.52
878.66	226.49
878.96	226.49
879.27	226.50
879.58	226.50
879.89	226.49
880.20	226.49
880.51	226.52
880.82	226.49
881.12	226.49
881.43	226.45
881.74	226.41
882.05	226.42
882.36	226.43
882.67	226.44
882.97	226.37
883.28	226.39
883.59	226.38
883.90	226.40
884.21	226.40
884.51	226.40
884.82	226.36
885.13	226.34
885.44	226.31
885.74	226.26
886.05	226.26
886.36	226.22
886.67	226.18
886.98	226.17
887.28	226.22
887.59	226.20
887.90	226.22
888.20	226.27
888.51	226.25
888.82	226.21
889.13	226.25
889.43	226.30
889.74	226.31
890.05	226.27
890.35	226.22
890.66	226.21
890.97	226.20
891.28	226.20
891.58	226.21
891.89	226.21
892.20	226.25
892.50	226.22
892.81	226.20
893.12	226.19
893.42	226.19
893.73	226.17
894.04	226.15
894.34	226.14
894.65	226.07
894.95	226.06
895.26	226.06
895.57	226.06
895.87	225.97
896.18	225.98
896.48	226.00
896.79	226.03
897.10	226.02
897.40	226.00
897.71	226.05
898.01	226.02
898.32	226.06
898.63	226.04
898.93	226.03
899.24	226.02
899.54	226.02
899.85	225.97
900.15	225.99
900.46	226.03
900.76	226.00
901.07	226.03
901.38	226.04
901.68	226.01
901.99	225.96
902.29	225.96
902.60	225.92
902.90	225.92
903.21	225.92
903.51	225.90
903.82	225.94
904.12	225.90
904.43	225.95
904.73	225.92
905.03	225.94
905.34	226.04
905.64	226.07
905.95	226.07
906.25	226.08
906.56	226.08
906.86	226.06
907.17	226.06
907.47	226.07
907.77	226.05
908.08	226.08
908.38	226.10
908.69	226.12
908.99	226.13
909.30	226.14
909.60	226.14
909.90	226.15
910.21	226.10
910.51	226.10
910.81	226.08
911.12	226.08
911.42	226.08
911.73	225.99
912.03	225.99
912.33	226.00
912.64	225.99
912.94	225.98
913.24	225.99
913.55	226.01
913.85	226.00
914.15	226.02
914.46	225.99
914.76	225.98
915.06	225.98
915.37	225.96
915.67	225.95
915.97	225.95
916.27	225.92
916.58	225.93
916.88	225.91
917.18	225.92
917.49	225.98
917.79	225.95
918.09	225.96
918.39	225.97
918.70	225.99
919.00	226.00
919.30	226.02
919.60	226.00
919.91	226.00
920.21	226.01
920.51	225.99
920.81	226.00
921.12	226.01
921.42	226.01
921.72	226.04
922.02	226.07
922.32	226.07
922.63	226.09
922.93	226.16
923.23	226.15
923.53	226.15
923.83	226.11
924.13	226.19
924.44	226.18
924.74	226.20
925.04	226.21
925.34	226.17
925.64	226.17
925.94	226.16
926.24	226.17
926.55	226.18
926.85	226.19
927.15	226.22
927.45	226.23
927.75	226.21
928.05	226.19
928.35	226.14
928.65	226.14
928.95	226.14
929.26	226.06
929.56	226.13
929.86	226.13
930.16	226.11
930.46	226.10
930.76	226.12
931.06	226.06
931.36	226.03
931.66	226.08
931.96	226.06
932.26	226.06
932.56	226.04
932.86	226.01
933.16	226.04
933.46	226.02
933.76	226.00
934.06	226.02
934.36	226.08
934.66	226.07
934.96	226.09
935.26	226.11
935.56	226.18
935.86	226.11
936.16	226.07
936.46	226.07
936.76	226.04
937.06	226.01
937.36	226.03
937.66	226.04
937.96	226.04
938.26	226.02
938.56	226.00
938.86	226.01
939.16	226.02
939.46	226.00
939.76	226.01
940.06	226.01
940.35	225.99
940.65	225.93
940.95	225.96
941.25	225.96
941.55	225.94
941.85	225.88
942.15	225.92
942.45	225.99
942.75	225.96
943.04	225.96
943.34	225.96
943.64	225.97
943.94	225.95
944.24	225.98
944.54	226.00
944.84	226.01
945.13	226.03
945.43	226.02
945.73	226.02
946.03	226.01
946.33	226.04
946.62	226.03
946.92	226.04
947.22	226.05
947.52	226.04
947.82	226.07
948.11	226.07
948.41	226.07
948.71	226.01
949.01	226.02
949.31	226.03
949.60	226.03
949.90	226.06
950.20	226.07
950.50	226.07
950.79	226.06
951.09	226.07
951.39	226.05
951.69	226.08
951.98	226.08
952.28	226.07
952.58	226.02
952.87	226.05
953.17	226.06
953.47	226.03
953.76	226.05
954.06	225.98
954.36	225.98
954.66	225.96
954.95	226.00
955.25	226.01
955.55	226.01
955.84	226.00
956.14	225.94
956.44	225.98
956.73	225.94
957.03	225.94
957.32	225.92
957.62	225.88
957.92	225.88
958.21	225.84
958.51	225.94
958.81	225.94
959.10	225.91
959.40	225.92
959.69	225.93
959.99	225.93
960.29	225.95
960.58	225.95
960.88	225.98
961.17	225.93
961.47	225.95
961.76	225.93
962.06	225.95
962.36	225.98
962.65	225.97
962.95	225.97
963.24	225.96
963.54	226.02
963.83	226.07
964.13	226.05
964.42	226.05
964.72	225.98
965.01	226.00
965.31	226.02
965.60	226.01
965.90	226.06
966.19	226.03
966.49	226.05
966.78	226.02
967.08	226.01
967.37	226.04
967.67	226.01
967.96	226.02
968.26	226.03
968.55	226.05
968.85	226.04
969.14	226.03
969.43	226.02
969.73	226.01
970.02	225.97
970.32	225.96
970.61	225.99
970.91	225.99
971.20	226.00
971.49	225.99
971.79	226.02
972.08	225.95
972.38	225.97
972.67	225.96
972.96	225.98
973.26	225.94
973.55	225.98
973.85	225.97
974.14	225.97
974.43	225.95
974.73	225.92
975.02	225.90
975.31	225.92
975.61	225.93
975.90	225.92
976.19	225.98
976.49	226.04
976.78	226.03
977.07	226.02
977.37	226.02
977.66	226.02
977.95	226.01
978.24	226.04
978.54	226.06
978.83	226.07
979.12	226.05
979.42	226.11
979.71	226.09
980.00	226.14
980.29	226.14
980.59	226.14
980.88	226.17
981.17	226.17
981.46	226.19
981.76	226.20
982.05	226.22
982.34	226.21
982.63	226.18
982.93	226.18
983.22	226.22
983.51	226.23
983.80	226.27
984.09	226.29
984.39	226.29
984.68	226.33
984.97	226.35
985.26	226.37
985.55	226.39
985.85	226.35
986.14	226.35
986.43	226.37
986.72	226.39
987.01	226.38
987.30	226.39
987.59	226.37
987.89	226.37
988.18	226.35
988.47	226.34
988.76	226.33
989.05	226.33
989.34	226.31
989.63	226.35
989.92	226.31
990.22	226.29
990.51	226.27
990.80	226.22
991.09	226.21
991.38	226.24
991.67	226.22
991.96	226.22
992.25	226.21
992.54	226.20
992.83	226.21
993.12	226.20
993.41	226.21
993.70	226.25
993.99	226.27
994.28	226.29
994.58	226.28
994.87	226.27
995.16	226.25
995.45	226.23
995.74	226.16
996.03	226.17
996.32	226.17
996.61	226.18
996.90	226.19
997.19	226.16
997.48	226.15
997.77	226.12
998.06	226.17
998.34	226.15
998.63	226.14
998.92	226.12
999.21	226.12
999.50	226.11
999.79	226.06
1000.08	226.04
1000.37	226.05
1000.66	226.05
1000.95	226.07
1001.24	226.08
1001.53	226.09
1001.82	226.12
1002.11	226.09
1002.40	226.09
1002.68	226.14
1002.97	226.18
1003.26	226.21
1003.55	226.17
1003.84	226.17
1004.13	226.16
1004.42	226.14
1004.71	226.13
1004.99	226.10
1005.28	226.13
1005.57	226.14
1005.86	226.14
1006.15	226.13
1006.44	226.12
1006.72	226.10
1007.01	226.09
1007.30	226.08
1007.59	226.08
1007.88	226.06
1008.17	226.09
1008.45	226.09
1008.74	226.04
1009.03	226.04
1009.32	226.02
1009.60	226.04
1009.89	226.06
1010.18	226.01
1010.47	226.01
1010.76	226.03
1011.04	226.06
1011.33	226.05
1011.62	226.06
1011.91	226.10
1012.19	226.10
1012.48	226.08
1012.77	226.09
1013.05	226.15
1013.34	226.17
1013.63	226.18
1013.92	226.21
1014.20	226.21
1014.49	226.19
1014.78	226.23
1015.06	226.19
1015.35	226.23
1015.64	226.27
1015.92	226.28
1016.21	226.30
1016.50	226.34
1016.78	226.33
1017.07	226.32
1017.36	226.29
1017.64	226.27
1017.93	226.26
1018.22	226.28
1018.50	226.30
1018.79	226.31
1019.08	226.25
1019.36	226.24
1019.65	226.25
1019.93	226.27
1020.22	226.29
1020.51	226.36
1020.79	226.33
1021.08	226.41
1021.36	226.05
1021.65	226.50
1021.94	225.86
1022.22	226.32
1022.51	226.18
1022.79	226.92
1023.08	226.71
1023.36	227.54
1023.65	225.81
>>>>>End Processed Spectral Data<<<<<
