SpectraSuite Data File
++++++++++++++++++++++++++++++++++++
Date: Fri Feb 01 15:33:23 EST 2013
User: group
Dark Spectrum Present: No
Reference Spectrum Present: No
Number of Sampled Component Spectra: 1
Spectrometers: USB2E7196
Integration Time (usec): 35000 (USB2E7196)
Spectra Averaged: 100 (USB2E7196)
Boxcar Smoothing: 10 (USB2E7196)
Correct for Electrical Dark: No (USB2E7196)
Strobe/Lamp Enabled: No (USB2E7196)
Correct for Detector Non-linearity: No (USB2E7196)
Correct for Stray Light: No (USB2E7196)
Number of Pixels in Processed Spectrum: 2048
>>>>>Begin Processed Spectral Data<<<<<
339.09	0.00
339.48	214.85
339.86	216.51
340.24	217.93
340.63	218.82
341.01	221.79
341.39	221.66
341.78	223.46
342.16	224.43
342.54	225.05
342.93	213.16
343.31	223.93
343.69	224.46
344.07	224.94
344.46	225.35
344.84	225.72
345.22	225.97
345.60	226.22
345.99	226.38
346.37	226.48
346.75	226.56
347.13	226.62
347.52	226.67
347.90	226.78
348.28	226.82
348.66	226.86
349.05	226.85
349.43	226.87
349.81	226.93
350.19	226.99
350.57	227.06
350.96	227.11
351.34	227.20
351.72	227.30
352.10	227.38
352.48	227.47
352.87	227.53
353.25	227.60
353.63	227.69
354.01	227.77
354.39	227.86
354.77	227.95
355.15	228.08
355.54	228.17
355.92	228.21
356.30	228.30
356.68	228.46
357.06	228.52
357.44	228.58
357.82	228.65
358.20	228.74
358.58	228.83
358.97	228.91
359.35	228.98
359.73	229.08
360.11	229.14
360.49	229.17
360.87	229.22
361.25	229.27
361.63	229.35
362.01	229.39
362.39	229.43
362.77	229.47
363.15	229.50
363.53	229.54
363.91	229.57
364.29	229.58
364.67	229.51
365.05	229.59
365.43	229.64
365.81	229.66
366.19	229.72
366.57	229.77
366.95	229.74
367.33	229.71
367.71	229.68
368.09	229.69
368.47	229.72
368.85	229.72
369.23	229.73
369.61	229.66
369.99	229.65
370.37	229.64
370.75	229.68
371.13	229.59
371.51	229.51
371.89	229.49
372.27	229.44
372.65	229.42
373.03	229.34
373.41	229.29
373.78	229.21
374.16	229.06
374.54	228.92
374.92	228.89
375.30	228.85
375.68	228.74
376.06	228.66
376.44	228.57
376.82	228.51
377.19	228.43
377.57	228.37
377.95	228.28
378.33	228.22
378.71	228.03
379.09	228.00
379.47	227.95
379.84	227.85
380.22	227.78
380.60	227.66
380.98	227.58
381.36	227.50
381.73	227.45
382.11	227.39
382.49	227.34
382.87	227.26
383.25	227.15
383.62	227.21
384.00	227.10
384.38	227.03
384.76	227.00
385.13	226.98
385.51	226.93
385.89	226.83
386.27	226.77
386.64	226.77
387.02	226.68
387.40	226.61
387.78	226.58
388.15	226.54
388.53	226.50
388.91	226.46
389.29	226.38
389.66	226.36
390.04	226.31
390.42	226.30
390.79	226.31
391.17	226.31
391.55	226.19
391.92	226.20
392.30	226.23
392.68	226.17
393.05	226.16
393.43	226.17
393.81	226.21
394.18	226.18
394.56	226.20
394.94	226.28
395.31	226.35
395.69	226.38
396.06	226.44
396.44	226.45
396.82	226.48
397.19	226.58
397.57	226.64
397.95	226.72
398.32	226.73
398.70	226.77
399.07	226.89
399.45	226.93
399.82	227.00
400.20	227.09
400.58	227.16
400.95	227.19
401.33	227.31
401.70	227.44
402.08	227.56
402.45	227.62
402.83	227.71
403.20	227.79
403.58	227.90
403.95	228.01
404.33	228.16
404.71	228.31
405.08	228.51
405.46	228.62
405.83	228.76
406.21	228.87
406.58	229.05
406.96	229.20
407.33	229.38
407.70	229.58
408.08	229.80
408.45	230.03
408.83	230.24
409.20	230.44
409.58	230.64
409.95	230.91
410.33	231.22
410.70	231.49
411.08	231.81
411.45	232.13
411.82	232.46
412.20	232.80
412.57	233.21
412.95	233.52
413.32	233.94
413.69	234.36
414.07	234.83
414.44	235.33
414.82	235.82
415.19	236.39
415.56	236.94
415.94	237.50
416.31	238.14
416.68	238.80
417.06	239.51
417.43	240.20
417.81	240.97
418.18	241.75
418.55	242.60
418.93	243.48
419.30	244.36
419.67	245.30
420.04	246.30
420.42	247.26
420.79	248.42
421.16	249.57
421.54	250.75
421.91	251.97
422.28	253.20
422.66	254.51
423.03	255.82
423.40	257.16
423.77	258.58
424.15	260.02
424.52	261.49
424.89	263.14
425.26	264.74
425.64	266.20
426.01	267.80
426.38	269.46
426.75	271.14
427.13	272.84
427.50	274.62
427.87	276.49
428.24	278.33
428.61	280.04
428.99	281.98
429.36	284.08
429.73	286.16
430.10	288.16
430.47	290.23
430.85	292.35
431.22	294.64
431.59	297.07
431.96	299.28
432.33	301.81
432.70	304.16
433.08	306.93
433.45	309.52
433.82	312.16
434.19	315.02
434.56	317.82
434.93	320.53
435.30	323.17
435.68	326.08
436.05	328.94
436.42	331.76
436.79	334.26
437.16	337.00
437.53	339.84
437.90	342.66
438.27	345.42
438.64	348.26
439.01	350.79
439.38	352.96
439.75	355.17
440.13	357.64
440.50	359.93
440.87	361.80
441.24	363.79
441.61	365.90
441.98	367.40
442.35	369.20
442.72	371.05
443.09	372.85
443.46	373.83
443.83	374.38
444.20	374.92
444.57	375.75
444.94	376.00
445.31	376.33
445.68	376.69
446.05	376.78
446.42	376.41
446.79	375.97
447.16	375.52
447.53	375.22
447.90	374.08
448.27	372.95
448.64	371.33
449.01	370.15
449.37	368.15
449.74	366.27
450.11	364.01
450.48	361.49
450.85	358.95
451.22	356.79
451.59	354.84
451.96	352.91
452.33	350.33
452.70	347.95
453.07	345.09
453.43	342.16
453.80	339.34
454.17	336.62
454.54	334.11
454.91	331.41
455.28	328.66
455.65	326.12
456.02	323.67
456.38	321.53
456.75	318.85
457.12	316.64
457.49	314.41
457.86	312.25
458.23	310.40
458.59	308.37
458.96	306.27
459.33	304.35
459.70	302.50
460.07	300.98
460.43	299.28
460.80	297.68
461.17	296.24
461.54	294.77
461.91	293.38
462.27	291.91
462.64	290.66
463.01	289.36
463.38	288.08
463.74	286.73
464.11	285.56
464.48	284.58
464.85	283.44
465.21	282.53
465.58	281.59
465.95	280.51
466.32	279.60
466.68	278.72
467.05	277.87
467.42	276.98
467.78	276.07
468.15	275.20
468.52	274.54
468.88	273.69
469.25	272.94
469.62	272.28
469.98	271.65
470.35	271.02
470.72	270.42
471.08	269.78
471.45	269.18
471.82	268.65
472.18	268.05
472.55	267.62
472.92	267.13
473.28	266.65
473.65	266.19
474.02	265.79
474.38	265.40
474.75	265.04
475.11	264.70
475.48	264.43
475.85	264.21
476.21	263.98
476.58	263.80
476.94	263.64
477.31	263.46
477.67	263.26
478.04	263.15
478.41	263.04
478.77	263.06
479.14	263.02
479.50	263.04
479.87	263.09
480.23	263.17
480.60	263.24
480.96	263.34
481.33	263.53
481.69	263.70
482.06	263.92
482.42	264.11
482.79	264.34
483.15	264.63
483.52	264.98
483.88	265.30
484.25	265.68
484.61	266.07
484.98	266.53
485.34	267.12
485.71	267.69
486.07	268.31
486.44	268.88
486.80	269.60
487.17	270.32
487.53	271.13
487.90	271.96
488.26	272.87
488.62	273.88
488.99	274.87
489.35	275.90
489.72	276.98
490.08	278.20
490.44	279.42
490.81	280.76
491.17	282.13
491.54	283.66
491.90	285.20
492.26	286.86
492.63	288.57
492.99	290.31
493.36	292.21
493.72	294.25
494.08	296.36
494.45	298.58
494.81	300.92
495.17	303.32
495.54	305.94
495.90	308.62
496.26	311.40
496.63	314.34
496.99	317.44
497.35	320.70
497.72	324.07
498.08	327.56
498.44	331.20
498.80	335.08
499.17	339.12
499.53	343.29
499.89	347.66
500.26	352.16
500.62	356.84
500.98	361.76
501.34	366.82
501.71	372.13
502.07	377.57
502.43	383.18
502.79	389.06
503.16	395.08
503.52	401.39
503.88	407.77
504.24	414.36
504.60	421.29
504.97	428.43
505.33	435.79
505.69	443.51
506.05	451.30
506.41	459.24
506.78	467.39
507.14	475.85
507.50	484.60
507.86	493.60
508.22	502.84
508.59	512.13
508.95	521.76
509.31	531.59
509.67	541.67
510.03	551.94
510.39	562.42
510.75	573.27
511.12	584.17
511.48	595.56
511.84	607.08
512.20	618.61
512.56	630.60
512.92	642.75
513.28	655.06
513.64	667.58
514.00	680.23
514.37	693.19
514.73	706.32
515.09	719.41
515.45	732.81
515.81	746.37
516.17	760.35
516.53	774.43
516.89	788.64
517.25	802.89
517.61	817.38
517.97	831.94
518.33	846.37
518.69	861.27
519.05	876.24
519.41	891.49
519.77	907.04
520.13	922.48
520.49	937.94
520.85	953.49
521.21	969.25
521.57	985.54
521.93	1001.26
522.29	1017.69
522.65	1033.83
523.01	1050.10
523.37	1066.27
523.73	1082.50
524.09	1098.66
524.45	1115.03
524.81	1131.71
525.17	1148.65
525.53	1165.62
525.89	1182.59
526.25	1199.36
526.61	1215.80
526.97	1232.57
527.33	1249.08
527.68	1265.85
528.04	1282.40
528.40	1298.99
528.76	1316.15
529.12	1332.82
529.48	1349.79
529.84	1365.82
530.20	1382.57
530.56	1399.56
530.91	1416.92
531.27	1433.73
531.63	1450.27
531.99	1466.92
532.35	1482.94
532.71	1498.81
533.07	1515.05
533.42	1530.91
533.78	1547.09
534.14	1563.37
534.50	1578.74
534.86	1594.66
535.21	1609.71
535.57	1625.67
535.93	1641.28
536.29	1656.03
536.65	1671.23
537.00	1686.11
537.36	1701.47
537.72	1716.04
538.08	1730.44
538.44	1744.28
538.79	1758.25
539.15	1771.92
539.51	1785.65
539.87	1799.99
540.22	1813.66
540.58	1827.56
540.94	1840.86
541.29	1853.84
541.65	1866.60
542.01	1879.84
542.37	1892.33
542.72	1904.96
543.08	1916.76
543.44	1929.05
543.79	1940.27
544.15	1951.17
544.51	1962.69
544.87	1973.66
545.22	1984.55
545.58	1994.77
545.94	2004.52
546.29	2014.41
546.65	2024.21
547.01	2033.57
547.36	2042.31
547.72	2050.91
548.07	2058.68
548.43	2067.00
548.79	2074.90
549.14	2082.36
549.50	2089.78
549.86	2097.41
550.21	2104.58
550.57	2111.75
550.92	2118.47
551.28	2125.63
551.64	2132.66
551.99	2139.20
552.35	2145.39
552.70	2151.57
553.06	2157.63
553.41	2163.99
553.77	2169.96
554.13	2176.17
554.48	2182.23
554.84	2187.63
555.19	2192.98
555.55	2198.19
555.90	2202.76
556.26	2207.60
556.61	2212.46
556.97	2216.70
557.32	2220.87
557.68	2225.05
558.03	2229.43
558.39	2233.11
558.74	2237.79
559.10	2241.68
559.45	2245.37
559.81	2249.75
560.16	2253.61
560.52	2256.85
560.87	2260.30
561.23	2263.01
561.58	2266.11
561.94	2268.64
562.29	2271.10
562.64	2273.75
563.00	2276.42
563.35	2279.78
563.71	2282.97
564.06	2286.18
564.42	2289.01
564.77	2291.50
565.12	2293.73
565.48	2295.57
565.83	2297.43
566.19	2298.63
566.54	2299.44
566.89	2300.53
567.25	2301.00
567.60	2302.15
567.96	2303.84
568.31	2304.71
568.66	2305.77
569.02	2306.09
569.37	2306.36
569.72	2307.15
570.08	2307.08
570.43	2307.02
570.78	2306.34
571.14	2304.74
571.49	2303.23
571.84	2302.84
572.20	2301.54
572.55	2300.53
572.90	2298.97
573.26	2297.53
573.61	2295.86
573.96	2294.26
574.31	2291.27
574.67	2288.15
575.02	2284.46
575.37	2281.04
575.72	2277.20
576.08	2273.74
576.43	2270.42
576.78	2266.68
577.13	2263.59
577.49	2260.69
577.84	2257.11
578.19	2253.36
578.54	2249.61
578.90	2245.23
579.25	2239.75
579.60	2234.76
579.95	2229.70
580.30	2224.59
580.66	2219.39
581.01	2214.34
581.36	2209.18
581.71	2204.91
582.06	2200.43
582.42	2196.18
582.77	2190.93
583.12	2186.24
583.47	2181.36
583.82	2176.20
584.17	2171.05
584.53	2165.51
584.88	2159.74
585.23	2153.89
585.58	2148.36
585.93	2142.93
586.28	2138.37
586.63	2133.11
586.98	2128.06
587.34	2123.26
587.69	2118.35
588.04	2113.02
588.39	2107.34
588.74	2100.97
589.09	2094.82
589.44	2088.04
589.79	2081.84
590.14	2076.08
590.49	2069.46
590.84	2063.28
591.19	2057.26
591.54	2050.58
591.89	2043.06
592.25	2036.24
592.60	2028.95
592.95	2021.25
593.30	2013.74
593.65	2006.02
594.00	1998.98
594.35	1991.60
594.70	1983.49
595.05	1976.07
595.40	1968.76
595.75	1961.08
596.10	1954.77
596.45	1947.96
596.80	1941.71
597.15	1934.94
597.50	1927.71
597.85	1921.21
598.19	1914.30
598.54	1907.12
598.89	1900.55
599.24	1894.64
599.59	1887.80
599.94	1881.60
600.29	1875.26
600.64	1868.73
600.99	1861.22
601.34	1854.30
601.69	1847.36
602.04	1840.33
602.39	1833.01
602.74	1826.20
603.08	1819.48
603.43	1812.66
603.78	1805.25
604.13	1797.95
604.48	1790.70
604.83	1783.90
605.18	1776.93
605.53	1768.90
605.87	1760.90
606.22	1753.55
606.57	1745.52
606.92	1738.18
607.27	1730.97
607.62	1724.10
607.96	1716.75
608.31	1710.06
608.66	1702.41
609.01	1694.84
609.36	1687.30
609.70	1679.28
610.05	1671.02
610.40	1663.36
610.75	1655.06
611.10	1647.38
611.44	1639.08
611.79	1631.08
612.14	1622.37
612.49	1613.18
612.83	1604.76
613.18	1596.62
613.53	1588.46
613.88	1579.97
614.22	1571.83
614.57	1563.25
614.92	1555.13
615.27	1547.62
615.61	1539.40
615.96	1531.39
616.31	1523.72
616.65	1516.43
617.00	1508.90
617.35	1501.25
617.70	1492.77
618.04	1484.20
618.39	1476.09
618.74	1468.43
619.08	1460.00
619.43	1452.44
619.78	1445.57
620.12	1438.50
620.47	1430.99
620.82	1422.90
621.16	1415.45
621.51	1407.78
621.85	1400.10
622.20	1391.61
622.55	1383.18
622.89	1375.34
623.24	1367.77
623.59	1360.47
623.93	1352.95
624.28	1345.73
624.62	1338.24
624.97	1331.24
625.32	1324.61
625.66	1317.50
626.01	1310.26
626.35	1302.87
626.70	1295.16
627.04	1287.45
627.39	1279.75
627.73	1272.29
628.08	1265.39
628.43	1258.05
628.77	1250.60
629.12	1243.14
629.46	1235.98
629.81	1228.65
630.15	1221.40
630.50	1213.97
630.84	1205.70
631.19	1197.76
631.53	1190.22
631.88	1182.66
632.22	1174.94
632.57	1167.63
632.91	1160.12
633.26	1152.75
633.60	1145.41
633.95	1138.31
634.29	1131.22
634.64	1124.49
634.98	1117.16
635.32	1110.04
635.67	1103.47
636.01	1096.88
636.36	1089.99
636.70	1083.54
637.05	1076.99
637.39	1070.46
637.73	1063.91
638.08	1058.10
638.42	1052.14
638.77	1045.75
639.11	1039.16
639.45	1032.77
639.80	1026.01
640.14	1019.58
640.49	1013.02
640.83	1006.73
641.17	1000.42
641.52	994.12
641.86	987.70
642.20	981.90
642.55	975.50
642.89	969.00
643.23	962.44
643.58	956.64
643.92	950.41
644.26	944.29
644.61	938.33
644.95	932.33
645.29	925.64
645.64	918.85
645.98	912.48
646.32	906.66
646.66	900.68
647.01	894.97
647.35	889.27
647.69	883.37
648.04	877.79
648.38	871.97
648.72	865.87
649.06	859.79
649.41	853.83
649.75	847.88
650.09	841.94
650.43	836.11
650.78	829.99
651.12	824.00
651.46	818.35
651.80	812.63
652.14	807.20
652.49	801.85
652.83	796.74
653.17	791.03
653.51	785.31
653.85	779.90
654.20	774.15
654.54	768.10
654.88	762.49
655.22	756.57
655.56	750.86
655.90	745.51
656.25	740.21
656.59	734.86
656.93	729.84
657.27	724.68
657.61	719.24
657.95	714.13
658.29	709.02
658.64	703.71
658.98	698.40
659.32	692.92
659.66	687.72
660.00	682.32
660.34	677.40
660.68	672.53
661.02	667.48
661.36	662.89
661.70	658.44
662.05	654.02
662.39	649.70
662.73	645.37
663.07	640.98
663.41	636.54
663.75	632.09
664.09	627.46
664.43	623.07
664.77	618.95
665.11	614.68
665.45	610.63
665.79	606.51
666.13	602.38
666.47	598.31
666.81	594.14
667.15	590.04
667.49	586.16
667.83	582.35
668.17	578.40
668.51	574.27
668.85	570.23
669.19	566.44
669.53	562.59
669.87	558.60
670.21	554.87
670.55	551.27
670.89	547.85
671.23	544.47
671.57	540.97
671.91	537.48
672.25	534.04
672.58	530.51
672.92	527.19
673.26	524.01
673.60	520.85
673.94	517.70
674.28	514.86
674.62	511.87
674.96	508.75
675.30	505.86
675.64	502.95
675.97	500.25
676.31	497.36
676.65	494.48
676.99	491.84
677.33	489.00
677.67	486.22
678.01	483.13
678.34	480.09
678.68	477.25
679.02	474.46
679.36	471.74
679.70	469.05
680.04	466.22
680.37	463.31
680.71	460.59
681.05	457.97
681.39	455.22
681.73	452.58
682.06	450.00
682.40	447.44
682.74	444.90
683.08	442.31
683.42	439.70
683.75	437.16
684.09	434.60
684.43	432.17
684.77	429.68
685.10	427.39
685.44	425.14
685.78	422.83
686.12	420.55
686.45	418.27
686.79	415.92
687.13	413.69
687.46	411.57
687.80	409.40
688.14	407.25
688.48	405.21
688.81	402.95
689.15	400.83
689.49	398.69
689.82	396.60
690.16	394.57
690.50	392.66
690.83	390.72
691.17	388.74
691.51	386.79
691.84	384.92
692.18	382.94
692.52	380.93
692.85	379.01
693.19	377.11
693.52	375.29
693.86	373.51
694.20	371.77
694.53	369.96
694.87	368.14
695.21	366.36
695.54	364.51
695.88	362.80
696.21	361.09
696.55	359.40
696.88	357.72
697.22	356.02
697.56	354.37
697.89	352.71
698.23	351.10
698.56	349.51
698.90	347.92
699.23	346.31
699.57	344.81
699.90	343.26
700.24	341.78
700.58	340.19
700.91	338.67
701.25	337.20
701.58	335.83
701.92	334.43
702.25	333.00
702.59	331.64
702.92	330.30
703.26	329.00
703.59	327.74
703.93	326.56
704.26	325.32
704.60	324.02
704.93	322.79
705.26	321.55
705.60	320.39
705.93	319.24
706.27	318.24
706.60	317.18
706.94	316.11
707.27	314.97
707.61	313.95
707.94	312.99
708.27	311.94
708.61	310.83
708.94	309.82
709.28	308.91
709.61	307.96
709.94	307.03
710.28	306.04
710.61	305.05
710.95	303.97
711.28	303.09
711.61	302.15
711.95	301.25
712.28	300.31
712.61	299.31
712.95	298.37
713.28	297.44
713.61	296.54
713.95	295.67
714.28	294.79
714.61	293.90
714.95	293.04
715.28	292.17
715.61	291.33
715.95	290.50
716.28	289.63
716.61	288.79
716.95	287.98
717.28	287.24
717.61	286.49
717.94	285.74
718.28	284.91
718.61	284.18
718.94	283.46
719.27	282.79
719.61	282.12
719.94	281.48
720.27	280.75
720.60	280.06
720.94	279.44
721.27	278.88
721.60	278.26
721.93	277.66
722.27	277.15
722.60	276.59
722.93	276.00
723.26	275.46
723.59	274.89
723.93	274.35
724.26	273.81
724.59	273.22
724.92	272.71
725.25	272.22
725.59	271.70
725.92	271.20
726.25	270.70
726.58	270.20
726.91	269.67
727.24	269.20
727.57	268.75
727.91	268.21
728.24	267.72
728.57	267.25
728.90	266.77
729.23	266.24
729.56	265.78
729.89	265.30
730.22	264.81
730.55	264.33
730.89	263.89
731.22	263.38
731.55	262.93
731.88	262.48
732.21	262.04
732.54	261.59
732.87	261.16
733.20	260.72
733.53	260.37
733.86	260.00
734.19	259.58
734.52	259.20
734.85	258.85
735.18	258.46
735.51	258.04
735.84	257.65
736.17	257.29
736.50	256.90
736.83	256.65
737.16	256.29
737.49	255.97
737.82	255.57
738.15	255.26
738.48	254.95
738.81	254.65
739.14	254.34
739.47	254.02
739.80	253.66
740.13	253.34
740.46	253.00
740.79	252.66
741.12	252.37
741.45	252.05
741.78	251.71
742.11	251.38
742.44	251.11
742.77	250.86
743.10	250.56
743.43	250.27
743.75	249.87
744.08	249.73
744.41	249.48
744.74	249.24
745.07	248.96
745.40	248.69
745.73	248.48
746.06	248.20
746.39	247.95
746.71	247.72
747.04	247.52
747.37	247.26
747.70	247.05
748.03	246.80
748.36	246.56
748.68	246.33
749.01	246.11
749.34	245.89
749.67	245.64
750.00	245.46
750.33	245.30
750.65	245.14
750.98	244.79
751.31	244.57
751.64	244.38
751.97	244.23
752.29	244.05
752.62	243.82
752.95	243.60
753.28	243.41
753.60	243.24
753.93	243.02
754.26	242.87
754.59	242.67
754.91	242.52
755.24	242.32
755.57	242.15
755.90	241.97
756.22	241.78
756.55	241.62
756.88	241.40
757.20	241.20
757.53	241.06
757.86	240.93
758.19	240.78
758.51	240.66
758.84	240.47
759.17	240.28
759.49	240.11
759.82	240.02
760.15	239.87
760.47	239.70
760.80	239.57
761.13	239.43
761.45	239.26
761.78	239.10
762.11	239.00
762.43	238.86
762.76	238.71
763.08	238.62
763.41	238.51
763.74	238.39
764.06	238.24
764.39	238.05
764.71	237.88
765.04	237.75
765.37	237.57
765.69	237.44
766.02	237.34
766.34	237.22
766.67	237.09
767.00	237.01
767.32	236.93
767.65	236.85
767.97	236.71
768.30	236.58
768.62	236.45
768.95	236.32
769.27	236.21
769.60	236.13
769.92	235.95
770.25	235.81
770.57	235.69
770.90	235.58
771.22	235.47
771.55	235.32
771.87	235.19
772.20	235.10
772.52	235.09
772.85	235.08
773.17	234.96
773.50	234.85
773.82	234.68
774.15	234.55
774.47	234.42
774.80	234.31
775.12	234.24
775.45	234.11
775.77	234.06
776.09	233.97
776.42	233.86
776.74	233.80
777.07	233.69
777.39	233.61
777.72	233.53
778.04	233.49
778.36	233.45
778.69	233.39
779.01	233.30
779.33	233.12
779.66	232.90
779.98	232.81
780.31	232.71
780.63	232.70
780.95	232.64
781.28	232.55
781.60	232.47
781.92	232.40
782.25	232.39
782.57	232.30
782.89	232.21
783.22	232.11
783.54	232.08
783.86	232.04
784.19	231.96
784.51	231.91
784.83	231.81
785.16	231.75
785.48	231.70
785.80	231.64
786.12	231.56
786.45	231.53
786.77	231.46
787.09	231.40
787.42	231.29
787.74	231.23
788.06	231.18
788.38	231.15
788.71	231.09
789.03	231.01
789.35	230.96
789.67	230.94
789.99	230.95
790.32	230.88
790.64	230.86
790.96	230.91
791.28	230.85
791.61	230.83
791.93	230.82
792.25	230.79
792.57	230.86
792.89	230.83
793.21	230.80
793.54	230.78
793.86	230.77
794.18	230.76
794.50	230.74
794.82	230.74
795.14	230.73
795.47	230.75
795.79	230.76
796.11	230.72
796.43	230.69
796.75	230.65
797.07	230.65
797.39	230.61
797.71	230.51
798.04	230.49
798.36	230.47
798.68	230.42
799.00	230.41
799.32	230.35
799.64	230.35
799.96	230.37
800.28	230.39
800.60	230.36
800.92	230.32
801.24	230.29
801.56	230.25
801.89	230.20
802.21	230.17
802.53	230.11
802.85	230.12
803.17	230.14
803.49	230.12
803.81	230.09
804.13	230.08
804.45	230.09
804.77	230.10
805.09	230.09
805.41	230.07
805.73	230.04
806.05	230.01
806.37	229.98
806.69	229.92
807.01	229.87
807.33	229.86
807.65	229.84
807.97	229.85
808.28	229.82
808.60	229.81
808.92	229.72
809.24	229.78
809.56	229.73
809.88	229.64
810.20	229.60
810.52	229.58
810.84	229.55
811.16	229.52
811.48	229.45
811.80	229.42
812.12	229.39
812.43	229.36
812.75	229.28
813.07	229.24
813.39	229.21
813.71	229.20
814.03	229.16
814.35	229.10
814.67	229.02
814.98	228.96
815.30	228.95
815.62	228.95
815.94	228.86
816.26	228.89
816.58	228.88
816.89	228.86
817.21	228.82
817.53	228.77
817.85	228.72
818.17	228.71
818.48	228.68
818.80	228.64
819.12	228.60
819.44	228.59
819.76	228.55
820.07	228.55
820.39	228.52
820.71	228.48
821.03	228.44
821.34	228.43
821.66	228.45
821.98	228.42
822.30	228.38
822.61	228.39
822.93	228.30
823.25	228.26
823.57	228.25
823.88	228.26
824.20	228.23
824.52	228.23
824.83	228.21
825.15	228.18
825.47	228.18
825.79	228.17
826.10	228.17
826.42	228.15
826.74	228.10
827.05	228.08
827.37	228.09
827.69	228.12
828.00	228.14
828.32	228.12
828.64	228.11
828.95	228.17
829.27	228.16
829.58	228.19
829.90	228.20
830.22	228.18
830.53	228.12
830.85	228.13
831.17	228.08
831.48	228.08
831.80	228.08
832.11	228.10
832.43	228.09
832.75	228.07
833.06	228.15
833.38	228.17
833.69	228.16
834.01	228.18
834.32	228.13
834.64	228.10
834.96	228.12
835.27	228.12
835.59	228.06
835.90	228.03
836.22	228.00
836.53	228.00
836.85	227.99
837.16	228.09
837.48	228.07
837.79	228.13
838.11	228.13
838.42	228.14
838.74	228.14
839.05	228.14
839.37	228.14
839.68	228.06
840.00	228.04
840.31	228.06
840.63	228.04
840.94	228.06
841.26	228.09
841.57	228.07
841.88	228.09
842.20	228.10
842.51	228.08
842.83	228.09
843.14	228.16
843.46	228.18
843.77	228.10
844.08	228.12
844.40	228.05
844.71	228.06
845.03	228.02
845.34	227.98
845.65	227.99
845.97	227.96
846.28	227.98
846.60	227.97
846.91	227.95
847.22	227.95
847.54	228.00
847.85	228.00
848.16	227.96
848.48	227.95
848.79	227.95
849.10	227.98
849.42	228.00
849.73	227.90
850.04	227.88
850.36	227.87
850.67	227.86
850.98	227.88
851.30	227.87
851.61	227.86
851.92	227.88
852.23	227.89
852.55	227.91
852.86	227.90
853.17	227.91
853.49	227.91
853.80	227.90
854.11	227.86
854.42	227.86
854.74	227.86
855.05	227.83
855.36	227.78
855.67	227.74
855.99	227.72
856.30	227.83
856.61	227.84
856.92	227.84
857.23	227.85
857.55	227.82
857.86	227.81
858.17	227.82
858.48	227.82
858.79	227.78
859.11	227.77
859.42	227.77
859.73	227.74
860.04	227.73
860.35	227.70
860.66	227.64
860.98	227.61
861.29	227.60
861.60	227.56
861.91	227.57
862.22	227.54
862.53	227.50
862.84	227.38
863.16	227.37
863.47	227.36
863.78	227.31
864.09	227.33
864.40	227.29
864.71	227.28
865.02	227.26
865.33	227.23
865.64	227.21
865.95	227.18
866.27	227.23
866.58	227.19
866.89	227.19
867.20	227.19
867.51	227.18
867.82	227.23
868.13	227.31
868.44	227.31
868.75	227.33
869.06	227.36
869.37	227.35
869.68	227.34
869.99	227.36
870.30	227.35
870.61	227.38
870.92	227.40
871.23	227.38
871.54	227.37
871.85	227.38
872.16	227.39
872.47	227.42
872.78	227.38
873.09	227.41
873.40	227.43
873.71	227.47
874.02	227.46
874.33	227.43
874.64	227.39
874.95	227.42
875.26	227.41
875.56	227.40
875.87	227.41
876.18	227.39
876.49	227.47
876.80	227.49
877.11	227.46
877.42	227.46
877.73	227.47
878.04	227.49
878.35	227.51
878.66	227.54
878.96	227.51
879.27	227.49
879.58	227.44
879.89	227.46
880.20	227.48
880.51	227.50
880.82	227.49
881.12	227.49
881.43	227.45
881.74	227.48
882.05	227.47
882.36	227.49
882.67	227.49
882.97	227.41
883.28	227.40
883.59	227.40
883.90	227.39
884.21	227.41
884.51	227.39
884.82	227.35
885.13	227.33
885.44	227.31
885.74	227.34
886.05	227.36
886.36	227.36
886.67	227.33
886.98	227.39
887.28	227.41
887.59	227.41
887.90	227.41
888.20	227.39
888.51	227.40
888.82	227.41
889.13	227.43
889.43	227.48
889.74	227.48
890.05	227.52
890.35	227.53
890.66	227.51
890.97	227.50
891.28	227.51
891.58	227.49
891.89	227.52
892.20	227.51
892.50	227.52
892.81	227.49
893.12	227.45
893.42	227.37
893.73	227.36
894.04	227.34
894.34	227.34
894.65	227.32
894.95	227.34
895.26	227.32
895.57	227.36
895.87	227.26
896.18	227.26
896.48	227.27
896.79	227.26
897.10	227.28
897.40	227.30
897.71	227.31
898.01	227.31
898.32	227.31
898.63	227.26
898.93	227.27
899.24	227.26
899.54	227.26
899.85	227.26
900.15	227.24
900.46	227.24
900.76	227.27
901.07	227.26
901.38	227.25
901.68	227.26
901.99	227.22
902.29	227.26
902.60	227.28
902.90	227.25
903.21	227.25
903.51	227.23
903.82	227.24
904.12	227.22
904.43	227.22
904.73	227.21
905.03	227.27
905.34	227.34
905.64	227.35
905.95	227.37
906.25	227.36
906.56	227.37
906.86	227.38
907.17	227.36
907.47	227.33
907.77	227.31
908.08	227.29
908.38	227.29
908.69	227.28
908.99	227.25
909.30	227.22
909.60	227.16
909.90	227.18
910.21	227.15
910.51	227.15
910.81	227.16
911.12	227.18
911.42	227.15
911.73	227.07
912.03	227.06
912.33	227.11
912.64	227.11
912.94	227.12
913.24	227.06
913.55	227.06
913.85	227.05
914.15	227.06
914.46	227.03
914.76	226.99
915.06	226.99
915.37	226.99
915.67	227.01
915.97	227.04
916.27	227.00
916.58	227.00
916.88	227.00
917.18	227.01
917.49	227.07
917.79	227.07
918.09	227.06
918.39	227.07
918.70	227.06
919.00	227.08
919.30	227.13
919.60	227.15
919.91	227.12
920.21	227.16
920.51	227.13
920.81	227.16
921.12	227.20
921.42	227.19
921.72	227.17
922.02	227.18
922.32	227.19
922.63	227.20
922.93	227.24
923.23	227.26
923.53	227.25
923.83	227.18
924.13	227.18
924.44	227.18
924.74	227.18
925.04	227.17
925.34	227.19
925.64	227.13
925.94	227.12
926.24	227.18
926.55	227.14
926.85	227.16
927.15	227.16
927.45	227.16
927.75	227.13
928.05	227.15
928.35	227.12
928.65	227.17
928.95	227.17
929.26	227.15
929.56	227.16
929.86	227.15
930.16	227.15
930.46	227.14
930.76	227.14
931.06	227.09
931.36	227.08
931.66	227.07
931.96	227.10
932.26	227.09
932.56	227.07
932.86	227.11
933.16	227.08
933.46	227.09
933.76	227.06
934.06	227.13
934.36	227.14
934.66	227.13
934.96	227.07
935.26	227.10
935.56	227.11
935.86	227.09
936.16	227.07
936.46	227.05
936.76	227.04
937.06	227.03
937.36	227.09
937.66	227.06
937.96	227.06
938.26	227.03
938.56	227.04
938.86	227.01
939.16	227.06
939.46	227.09
939.76	227.10
940.06	227.09
940.35	227.05
940.65	227.02
940.95	227.04
941.25	227.03
941.55	227.01
941.85	226.97
942.15	226.97
942.45	226.99
942.75	226.96
943.04	226.97
943.34	226.99
943.64	226.94
943.94	226.91
944.24	226.90
944.54	226.88
944.84	226.89
945.13	226.86
945.43	226.80
945.73	226.77
946.03	226.73
946.33	226.74
946.62	226.70
946.92	226.66
947.22	226.67
947.52	226.68
947.82	226.69
948.11	226.71
948.41	226.69
948.71	226.65
949.01	226.72
949.31	226.67
949.60	226.65
949.90	226.68
950.20	226.68
950.50	226.66
950.79	226.65
951.09	226.65
951.39	226.68
951.69	226.70
951.98	226.71
952.28	226.73
952.58	226.70
952.87	226.74
953.17	226.79
953.47	226.77
953.76	226.79
954.06	226.78
954.36	226.77
954.66	226.78
954.95	226.81
955.25	226.81
955.55	226.88
955.84	226.90
956.14	226.89
956.44	226.92
956.73	226.93
957.03	226.97
957.32	226.98
957.62	226.97
957.92	226.99
958.21	227.01
958.51	227.13
958.81	227.15
959.10	227.15
959.40	227.18
959.69	227.18
959.99	227.19
960.29	227.22
960.58	227.22
960.88	227.24
961.17	227.23
961.47	227.22
961.76	227.19
962.06	227.22
962.36	227.24
962.65	227.27
962.95	227.26
963.24	227.21
963.54	227.19
963.83	227.20
964.13	227.18
964.42	227.13
964.72	227.04
965.01	227.07
965.31	227.03
965.60	227.00
965.90	227.10
966.19	227.06
966.49	227.01
966.78	227.02
967.08	227.05
967.37	227.06
967.67	227.05
967.96	227.06
968.26	227.02
968.55	226.96
968.85	226.94
969.14	226.92
969.43	226.93
969.73	226.96
970.02	226.96
970.32	226.96
970.61	226.97
970.91	226.95
971.20	226.89
971.49	226.93
971.79	226.92
972.08	226.83
972.38	226.85
972.67	226.87
972.96	226.84
973.26	226.80
973.55	226.84
973.85	226.81
974.14	226.81
974.43	226.81
974.73	226.84
975.02	226.84
975.31	226.87
975.61	226.86
975.90	226.83
976.19	226.82
976.49	226.78
976.78	226.77
977.07	226.77
977.37	226.78
977.66	226.75
977.95	226.75
978.24	226.74
978.54	226.72
978.83	226.69
979.12	226.66
979.42	226.66
979.71	226.62
980.00	226.61
980.29	226.58
980.59	226.58
980.88	226.61
981.17	226.60
981.46	226.57
981.76	226.60
982.05	226.61
982.34	226.60
982.63	226.63
982.93	226.65
983.22	226.67
983.51	226.67
983.80	226.67
984.09	226.68
984.39	226.69
984.68	226.71
984.97	226.70
985.26	226.72
985.55	226.72
985.85	226.68
986.14	226.71
986.43	226.75
986.72	226.74
987.01	226.69
987.30	226.66
987.59	226.66
987.89	226.64
988.18	226.63
988.47	226.63
988.76	226.63
989.05	226.62
989.34	226.59
989.63	226.66
989.92	226.70
990.22	226.71
990.51	226.66
990.80	226.65
991.09	226.67
991.38	226.71
991.67	226.72
991.96	226.74
992.25	226.74
992.54	226.69
992.83	226.69
993.12	226.70
993.41	226.76
993.70	226.79
993.99	226.80
994.28	226.84
994.58	226.84
994.87	226.83
995.16	226.83
995.45	226.84
995.74	226.79
996.03	226.78
996.32	226.76
996.61	226.81
996.90	226.82
997.19	226.84
997.48	226.86
997.77	226.83
998.06	226.82
998.34	226.84
998.63	226.85
998.92	226.88
999.21	226.92
999.50	226.91
999.79	226.93
1000.08	226.94
1000.37	226.91
1000.66	226.91
1000.95	226.96
1001.24	226.95
1001.53	226.94
1001.82	226.93
1002.11	226.92
1002.40	226.94
1002.68	226.96
1002.97	227.04
1003.26	227.04
1003.55	227.00
1003.84	227.00
1004.13	227.04
1004.42	227.04
1004.71	227.03
1004.99	227.03
1005.28	227.03
1005.57	227.00
1005.86	227.00
1006.15	227.00
1006.44	227.01
1006.72	227.05
1007.01	227.02
1007.30	227.03
1007.59	227.05
1007.88	227.06
1008.17	227.08
1008.45	227.05
1008.74	227.02
1009.03	226.96
1009.32	226.93
1009.60	226.91
1009.89	226.91
1010.18	226.89
1010.47	226.86
1010.76	226.87
1011.04	226.85
1011.33	226.83
1011.62	226.84
1011.91	226.78
1012.19	226.79
1012.48	226.79
1012.77	226.77
1013.05	226.83
1013.34	226.82
1013.63	226.81
1013.92	226.81
1014.20	226.79
1014.49	226.80
1014.78	226.79
1015.06	226.75
1015.35	226.73
1015.64	226.76
1015.92	226.78
1016.21	226.75
1016.50	226.76
1016.78	226.76
1017.07	226.74
1017.36	226.72
1017.64	226.69
1017.93	226.71
1018.22	226.66
1018.50	226.63
1018.79	226.62
1019.08	226.57
1019.36	226.56
1019.65	226.50
1019.93	226.50
1020.22	226.52
1020.51	226.58
1020.79	226.57
1021.08	225.89
1021.36	226.26
1021.65	226.77
1021.94	226.96
1022.22	226.60
1022.51	225.95
1022.79	226.85
1023.08	226.60
1023.36	228.07
1023.65	226.40
>>>>>End Processed Spectral Data<<<<<
