SpectraSuite Data File
++++++++++++++++++++++++++++++++++++
Date: Fri Feb 01 15:11:20 EST 2013
User: group
Dark Spectrum Present: No
Reference Spectrum Present: No
Number of Sampled Component Spectra: 1
Spectrometers: USB2E7196
Integration Time (usec): 35000 (USB2E7196)
Spectra Averaged: 100 (USB2E7196)
Boxcar Smoothing: 10 (USB2E7196)
Correct for Electrical Dark: No (USB2E7196)
Strobe/Lamp Enabled: No (USB2E7196)
Correct for Detector Non-linearity: No (USB2E7196)
Correct for Stray Light: No (USB2E7196)
Number of Pixels in Processed Spectrum: 2048
>>>>>Begin Processed Spectral Data<<<<<
339.09	0.00
339.48	214.73
339.86	216.68
340.24	218.46
340.63	219.36
341.01	222.22
341.39	222.79
341.78	223.85
342.16	225.22
342.54	225.28
342.93	213.74
343.31	224.55
343.69	225.13
344.07	225.60
344.46	226.03
344.84	226.41
345.22	226.62
345.60	226.83
345.99	227.02
346.37	227.11
346.75	227.20
347.13	227.25
347.52	227.30
347.90	227.38
348.28	227.40
348.66	227.38
349.05	227.39
349.43	227.40
349.81	227.43
350.19	227.50
350.57	227.56
350.96	227.66
351.34	227.74
351.72	227.79
352.10	227.89
352.48	227.94
352.87	228.01
353.25	228.07
353.63	228.17
354.01	228.22
354.39	228.33
354.77	228.44
355.15	228.52
355.54	228.62
355.92	228.63
356.30	228.71
356.68	228.84
357.06	228.92
357.44	228.98
357.82	229.05
358.20	229.11
358.58	229.12
358.97	229.16
359.35	229.21
359.73	229.30
360.11	229.35
360.49	229.43
360.87	229.45
361.25	229.52
361.63	229.59
362.01	229.64
362.39	229.64
362.77	229.66
363.15	229.66
363.53	229.66
363.91	229.70
364.29	229.70
364.67	229.61
365.05	229.59
365.43	229.61
365.81	229.61
366.19	229.63
366.57	229.65
366.95	229.66
367.33	229.62
367.71	229.58
368.09	229.56
368.47	229.50
368.85	229.47
369.23	229.47
369.61	229.37
369.99	229.38
370.37	229.34
370.75	229.36
371.13	229.32
371.51	229.26
371.89	229.21
372.27	229.20
372.65	229.17
373.03	229.11
373.41	229.03
373.78	228.95
374.16	228.83
374.54	228.75
374.92	228.65
375.30	228.61
375.68	228.52
376.06	228.47
376.44	228.40
376.82	228.35
377.19	228.24
377.57	228.19
377.95	228.06
378.33	227.96
378.71	227.84
379.09	227.77
379.47	227.67
379.84	227.59
380.22	227.43
380.60	227.33
380.98	227.28
381.36	227.22
381.73	227.15
382.11	227.11
382.49	227.03
382.87	226.98
383.25	226.91
383.62	226.95
384.00	226.88
384.38	226.80
384.76	226.76
385.13	226.73
385.51	226.66
385.89	226.61
386.27	226.60
386.64	226.51
387.02	226.47
387.40	226.43
387.78	226.39
388.15	226.38
388.53	226.35
388.91	226.30
389.29	226.26
389.66	226.25
390.04	226.23
390.42	226.25
390.79	226.25
391.17	226.24
391.55	226.13
391.92	226.11
392.30	226.14
392.68	226.10
393.05	226.11
393.43	226.12
393.81	226.12
394.18	226.13
394.56	226.17
394.94	226.23
395.31	226.28
395.69	226.31
396.06	226.40
396.44	226.46
396.82	226.51
397.19	226.65
397.57	226.69
397.95	226.75
398.32	226.77
398.70	226.84
399.07	226.92
399.45	227.05
399.82	227.16
400.20	227.22
400.58	227.34
400.95	227.40
401.33	227.52
401.70	227.69
402.08	227.80
402.45	227.92
402.83	228.04
403.20	228.17
403.58	228.31
403.95	228.42
404.33	228.56
404.71	228.68
405.08	228.84
405.46	228.97
405.83	229.12
406.21	229.31
406.58	229.47
406.96	229.62
407.33	229.76
407.70	229.91
408.08	230.20
408.45	230.42
408.83	230.67
409.20	230.87
409.58	231.06
409.95	231.31
410.33	231.60
410.70	231.82
411.08	232.10
411.45	232.41
411.82	232.73
412.20	233.06
412.57	233.48
412.95	233.75
413.32	234.23
413.69	234.64
414.07	235.06
414.44	235.55
414.82	236.06
415.19	236.62
415.56	237.22
415.94	237.75
416.31	238.36
416.68	238.98
417.06	239.70
417.43	240.36
417.81	241.14
418.18	241.89
418.55	242.72
418.93	243.60
419.30	244.49
419.67	245.42
420.04	246.39
420.42	247.41
420.79	248.58
421.16	249.69
421.54	250.87
421.91	252.10
422.28	253.31
422.66	254.63
423.03	255.89
423.40	257.20
423.77	258.59
424.15	260.04
424.52	261.55
424.89	263.15
425.26	264.71
425.64	266.14
426.01	267.71
426.38	269.39
426.75	271.11
427.13	272.82
427.50	274.61
427.87	276.46
428.24	278.28
428.61	280.06
428.99	281.97
429.36	284.05
429.73	286.12
430.10	288.14
430.47	290.20
430.85	292.36
431.22	294.63
431.59	297.02
431.96	299.30
432.33	301.77
432.70	304.17
433.08	307.03
433.45	309.72
433.82	312.38
434.19	315.25
434.56	318.04
434.93	320.71
435.30	323.36
435.68	326.31
436.05	329.18
436.42	331.98
436.79	334.49
437.16	337.21
437.53	340.09
437.90	342.97
438.27	345.72
438.64	348.56
439.01	351.14
439.38	353.43
439.75	355.58
440.13	358.08
440.50	360.46
440.87	362.29
441.24	364.22
441.61	366.37
441.98	367.93
442.35	369.74
442.72	371.56
443.09	373.39
443.46	374.39
443.83	375.01
444.20	375.53
444.57	376.41
444.94	376.71
445.31	377.03
445.68	377.36
446.05	377.44
446.42	377.06
446.79	376.67
447.16	376.19
447.53	375.87
447.90	374.74
448.27	373.55
448.64	371.97
449.01	370.85
449.37	368.89
449.74	366.96
450.11	364.67
450.48	362.25
450.85	359.69
451.22	357.51
451.59	355.45
451.96	353.49
452.33	350.84
452.70	348.49
453.07	345.67
453.43	342.73
453.80	339.96
454.17	337.24
454.54	334.66
454.91	331.96
455.28	329.23
455.65	326.68
456.02	324.23
456.38	322.07
456.75	319.39
457.12	317.13
457.49	314.91
457.86	312.76
458.23	310.89
458.59	308.84
458.96	306.75
459.33	304.87
459.70	302.97
460.07	301.46
460.43	299.74
460.80	298.05
461.17	296.62
461.54	295.10
461.91	293.70
462.27	292.23
462.64	290.95
463.01	289.61
463.38	288.26
463.74	286.86
464.11	285.67
464.48	284.61
464.85	283.47
465.21	282.58
465.58	281.64
465.95	280.51
466.32	279.55
466.68	278.62
467.05	277.69
467.42	276.81
467.78	275.87
468.15	275.00
468.52	274.38
468.88	273.52
469.25	272.75
469.62	272.09
469.98	271.40
470.35	270.73
470.72	270.13
471.08	269.50
471.45	268.98
471.82	268.44
472.18	267.85
472.55	267.39
472.92	266.85
473.28	266.34
473.65	265.90
474.02	265.49
474.38	265.12
474.75	264.80
475.11	264.46
475.48	264.22
475.85	263.97
476.21	263.70
476.58	263.51
476.94	263.33
477.31	263.19
477.67	263.05
478.04	262.98
478.41	262.95
478.77	262.98
479.14	262.92
479.50	262.92
479.87	262.95
480.23	263.05
480.60	263.17
480.96	263.32
481.33	263.54
481.69	263.71
482.06	263.92
482.42	264.15
482.79	264.39
483.15	264.68
483.52	265.03
483.88	265.39
484.25	265.76
484.61	266.22
484.98	266.66
485.34	267.26
485.71	267.83
486.07	268.41
486.44	268.99
486.80	269.67
487.17	270.38
487.53	271.23
487.90	272.10
488.26	272.98
488.62	273.94
488.99	274.92
489.35	275.98
489.72	277.11
490.08	278.33
490.44	279.62
490.81	280.98
491.17	282.34
491.54	283.81
491.90	285.38
492.26	286.99
492.63	288.73
492.99	290.49
493.36	292.38
493.72	294.37
494.08	296.45
494.45	298.70
494.81	301.10
495.17	303.56
495.54	306.11
495.90	308.79
496.26	311.60
496.63	314.52
496.99	317.61
497.35	320.86
497.72	324.24
498.08	327.69
498.44	331.31
498.80	335.20
499.17	339.22
499.53	343.40
499.89	347.78
500.26	352.25
500.62	356.87
500.98	361.80
501.34	366.88
501.71	372.24
502.07	377.67
502.43	383.21
502.79	388.96
503.16	394.98
503.52	401.26
503.88	407.65
504.24	414.26
504.60	421.14
504.97	428.27
505.33	435.56
505.69	443.26
506.05	451.01
506.41	458.91
506.78	467.06
507.14	475.43
507.50	484.13
507.86	493.20
508.22	502.43
508.59	511.57
508.95	521.18
509.31	530.97
509.67	541.09
510.03	551.43
510.39	562.01
510.75	572.82
511.12	583.75
511.48	595.01
511.84	606.48
512.20	618.04
512.56	629.94
512.92	642.14
513.28	654.44
513.64	667.04
514.00	679.74
514.37	692.59
514.73	705.70
515.09	718.75
515.45	732.01
515.81	745.63
516.17	759.75
516.53	773.81
516.89	787.92
517.25	802.10
517.61	816.57
517.97	831.07
518.33	845.58
518.69	860.28
519.05	875.42
519.41	890.57
519.77	906.12
520.13	921.69
520.49	937.07
520.85	952.63
521.21	968.35
521.57	984.62
521.93	1000.60
522.29	1017.07
522.65	1033.38
523.01	1049.65
523.37	1065.60
523.73	1081.74
524.09	1097.88
524.45	1114.28
524.81	1130.95
525.17	1147.79
525.53	1164.77
525.89	1181.72
526.25	1198.67
526.61	1215.02
526.97	1231.86
527.33	1248.41
527.68	1265.05
528.04	1281.67
528.40	1298.34
528.76	1315.43
529.12	1332.13
529.48	1349.08
529.84	1365.08
530.20	1381.76
530.56	1398.95
530.91	1416.49
531.27	1433.46
531.63	1450.08
531.99	1466.64
532.35	1482.75
532.71	1498.68
533.07	1514.98
533.42	1530.82
533.78	1546.97
534.14	1563.36
534.50	1578.84
534.86	1594.68
535.21	1609.87
535.57	1625.97
535.93	1641.44
536.29	1656.39
536.65	1671.64
537.00	1686.35
537.36	1701.66
537.72	1716.29
538.08	1730.65
538.44	1744.56
538.79	1758.42
539.15	1772.20
539.51	1786.19
539.87	1800.53
540.22	1814.33
540.58	1828.26
540.94	1841.77
541.29	1854.93
541.65	1867.73
542.01	1881.05
542.37	1893.59
542.72	1906.13
543.08	1917.78
543.44	1930.31
543.79	1941.49
544.15	1952.51
544.51	1964.25
544.87	1975.41
545.22	1986.24
545.58	1996.59
545.94	2006.35
546.29	2016.29
546.65	2026.05
547.01	2035.39
547.36	2044.27
547.72	2052.82
548.07	2060.67
548.43	2068.83
548.79	2076.83
549.14	2084.33
549.50	2091.58
549.86	2099.28
550.21	2106.72
550.57	2113.83
550.92	2120.41
551.28	2127.54
551.64	2134.58
551.99	2141.09
552.35	2147.25
552.70	2153.43
553.06	2159.35
553.41	2165.86
553.77	2171.92
554.13	2178.10
554.48	2184.03
554.84	2189.50
555.19	2194.84
555.55	2199.83
555.90	2204.24
556.26	2209.07
556.61	2213.77
556.97	2217.94
557.32	2222.05
557.68	2226.08
558.03	2230.49
558.39	2234.21
558.74	2238.83
559.10	2242.53
559.45	2246.19
559.81	2250.36
560.16	2254.24
560.52	2257.35
560.87	2260.60
561.23	2263.04
561.58	2266.02
561.94	2268.63
562.29	2270.88
562.64	2273.56
563.00	2276.25
563.35	2279.69
563.71	2282.72
564.06	2285.85
564.42	2288.78
564.77	2291.24
565.12	2293.49
565.48	2295.30
565.83	2297.01
566.19	2298.27
566.54	2299.26
566.89	2300.17
567.25	2300.80
567.60	2301.95
567.96	2303.59
568.31	2304.34
568.66	2305.48
569.02	2305.93
569.37	2306.14
569.72	2306.91
570.08	2306.72
570.43	2306.63
570.78	2305.94
571.14	2304.26
571.49	2302.90
571.84	2302.40
572.20	2301.09
572.55	2300.01
572.90	2298.53
573.26	2297.09
573.61	2295.21
573.96	2293.24
574.31	2290.26
574.67	2287.15
575.02	2283.45
575.37	2279.98
575.72	2276.17
576.08	2272.78
576.43	2269.30
576.78	2265.43
577.13	2262.14
577.49	2259.11
577.84	2255.54
578.19	2251.75
578.54	2248.02
578.90	2243.65
579.25	2238.06
579.60	2233.00
579.95	2227.77
580.30	2222.61
580.66	2217.26
581.01	2212.19
581.36	2207.18
581.71	2202.90
582.06	2198.36
582.42	2193.69
582.77	2188.31
583.12	2183.49
583.47	2178.59
583.82	2173.48
584.17	2168.23
584.53	2162.66
584.88	2156.81
585.23	2150.80
585.58	2145.30
585.93	2139.85
586.28	2135.13
586.63	2129.89
586.98	2124.80
587.34	2119.93
587.69	2114.94
588.04	2109.56
588.39	2103.81
588.74	2097.38
589.09	2091.20
589.44	2084.21
589.79	2078.26
590.14	2072.62
590.49	2066.08
590.84	2059.73
591.19	2053.59
591.54	2047.06
591.89	2039.43
592.25	2032.66
592.60	2025.41
592.95	2017.64
593.30	2010.23
593.65	2002.46
594.00	1995.40
594.35	1988.00
594.70	1980.08
595.05	1972.67
595.40	1965.45
595.75	1957.90
596.10	1951.51
596.45	1944.55
596.80	1938.45
597.15	1931.57
597.50	1924.40
597.85	1917.95
598.19	1911.09
598.54	1903.93
598.89	1897.48
599.24	1891.65
599.59	1884.85
599.94	1878.65
600.29	1872.27
600.64	1865.66
600.99	1858.02
601.34	1851.16
601.69	1844.13
602.04	1836.99
602.39	1829.63
602.74	1822.62
603.08	1815.94
603.43	1809.13
603.78	1801.96
604.13	1794.69
604.48	1787.38
604.83	1780.64
605.18	1773.40
605.53	1765.39
605.87	1757.35
606.22	1749.88
606.57	1741.82
606.92	1734.40
607.27	1727.14
607.62	1720.15
607.96	1712.74
608.31	1706.10
608.66	1698.35
609.01	1690.68
609.36	1683.10
609.70	1675.06
610.05	1667.04
610.40	1659.28
610.75	1650.93
611.10	1643.19
611.44	1634.86
611.79	1626.91
612.14	1618.03
612.49	1609.02
612.83	1600.65
613.18	1592.54
613.53	1584.52
613.88	1576.05
614.22	1567.86
614.57	1559.43
614.92	1551.52
615.27	1543.82
615.61	1535.65
615.96	1527.77
616.31	1520.32
616.65	1512.93
617.00	1505.39
617.35	1497.77
617.70	1489.39
618.04	1480.87
618.39	1472.55
618.74	1464.78
619.08	1456.39
619.43	1448.83
619.78	1441.92
620.12	1434.79
620.47	1427.29
620.82	1419.00
621.16	1411.70
621.51	1404.15
621.85	1396.44
622.20	1387.96
622.55	1379.78
622.89	1371.95
623.24	1364.37
623.59	1357.03
623.93	1349.68
624.28	1342.51
624.62	1334.95
624.97	1327.79
625.32	1321.12
625.66	1314.20
626.01	1307.00
626.35	1299.63
626.70	1291.99
627.04	1284.28
627.39	1276.58
627.73	1269.14
628.08	1262.22
628.43	1254.83
628.77	1247.40
629.12	1239.88
629.46	1232.64
629.81	1225.26
630.15	1217.92
630.50	1210.44
630.84	1202.21
631.19	1194.33
631.53	1186.80
631.88	1179.34
632.22	1171.73
632.57	1164.42
632.91	1156.92
633.26	1149.53
633.60	1142.22
633.95	1135.19
634.29	1128.24
634.64	1121.54
634.98	1114.25
635.32	1107.28
635.67	1100.78
636.01	1094.21
636.36	1087.45
636.70	1081.05
637.05	1074.45
637.39	1068.12
637.73	1061.73
638.08	1055.85
638.42	1049.87
638.77	1043.41
639.11	1036.75
639.45	1030.45
639.80	1023.89
640.14	1017.41
640.49	1010.99
640.83	1004.71
641.17	998.42
641.52	992.05
641.86	985.70
642.20	979.85
642.55	973.54
642.89	966.99
643.23	960.40
643.58	954.56
643.92	948.28
644.26	942.21
644.61	936.18
644.95	930.08
645.29	923.50
645.64	916.81
645.98	910.50
646.32	904.71
646.66	898.65
647.01	892.82
647.35	887.19
647.69	881.43
648.04	875.94
648.38	870.18
648.72	864.12
649.06	858.03
649.41	852.16
649.75	846.14
650.09	840.19
650.43	834.40
650.78	828.31
651.12	822.39
651.46	816.59
651.80	810.82
652.14	805.42
652.49	800.09
652.83	794.86
653.17	789.21
653.51	783.53
653.85	778.21
654.20	772.54
654.54	766.53
654.88	760.81
655.22	754.97
655.56	749.30
655.90	743.93
656.25	738.65
656.59	733.31
656.93	728.22
657.27	723.12
657.61	717.78
657.95	712.67
658.29	707.60
658.64	702.45
658.98	697.11
659.32	691.69
659.66	686.48
660.00	681.22
660.34	676.27
660.68	671.38
661.02	666.25
661.36	661.55
661.70	657.05
662.05	652.69
662.39	648.36
662.73	643.94
663.07	639.55
663.41	635.14
663.75	630.72
664.09	626.20
664.43	621.92
664.77	617.75
665.11	613.51
665.45	609.45
665.79	605.42
666.13	601.40
666.47	597.29
666.81	593.13
667.15	588.98
667.49	585.12
667.83	581.41
668.17	577.51
668.51	573.47
668.85	569.45
669.19	565.56
669.53	561.69
669.87	557.77
670.21	554.12
670.55	550.49
670.89	547.04
671.23	543.58
671.57	540.00
671.91	536.56
672.25	533.09
672.58	529.60
672.92	526.23
673.26	523.12
673.60	520.04
673.94	516.96
674.28	514.08
674.62	511.15
674.96	507.96
675.30	505.12
675.64	502.21
675.97	499.56
676.31	496.74
676.65	493.87
676.99	491.21
677.33	488.35
677.67	485.53
678.01	482.48
678.34	479.51
678.68	476.66
679.02	473.77
679.36	471.02
679.70	468.27
680.04	465.48
680.37	462.56
680.71	459.76
681.05	457.15
681.39	454.45
681.73	451.79
682.06	449.32
682.40	446.73
682.74	444.28
683.08	441.68
683.42	439.09
683.75	436.56
684.09	434.02
684.43	431.60
684.77	429.19
685.10	426.87
685.44	424.61
685.78	422.32
686.12	420.11
686.45	417.85
686.79	415.60
687.13	413.43
687.46	411.27
687.80	409.14
688.14	406.90
688.48	404.84
688.81	402.60
689.15	400.42
689.49	398.30
689.82	396.19
690.16	394.13
690.50	392.19
690.83	390.23
691.17	388.28
691.51	386.38
691.84	384.52
692.18	382.58
692.52	380.60
692.85	378.68
693.19	376.79
693.52	375.00
693.86	373.17
694.20	371.35
694.53	369.56
694.87	367.72
695.21	365.99
695.54	364.15
695.88	362.47
696.21	360.79
696.55	359.09
696.88	357.39
697.22	355.72
697.56	354.05
697.89	352.41
698.23	350.75
698.56	349.11
698.90	347.52
699.23	345.88
699.57	344.33
699.90	342.80
700.24	341.28
700.58	339.69
700.91	338.20
701.25	336.76
701.58	335.47
701.92	334.10
702.25	332.75
702.59	331.41
702.92	330.04
703.26	328.75
703.59	327.50
703.93	326.31
704.26	325.06
704.60	323.81
704.93	322.60
705.26	321.40
705.60	320.23
705.93	319.04
706.27	318.05
706.60	317.01
706.94	315.95
707.27	314.84
707.61	313.84
707.94	312.78
708.27	311.69
708.61	310.58
708.94	309.61
709.28	308.63
709.61	307.70
709.94	306.78
710.28	305.73
710.61	304.77
710.95	303.76
711.28	302.90
711.61	301.97
711.95	301.07
712.28	300.15
712.61	299.19
712.95	298.29
713.28	297.37
713.61	296.47
713.95	295.62
714.28	294.79
714.61	293.90
714.95	293.09
715.28	292.26
715.61	291.39
715.95	290.53
716.28	289.68
716.61	288.83
716.95	288.02
717.28	287.33
717.61	286.53
717.94	285.75
718.28	284.92
718.61	284.21
718.94	283.49
719.27	282.78
719.61	282.12
719.94	281.44
720.27	280.74
720.60	280.10
720.94	279.42
721.27	278.84
721.60	278.29
721.93	277.72
722.27	277.20
722.60	276.69
722.93	276.12
723.26	275.59
723.59	275.03
723.93	274.48
724.26	273.90
724.59	273.36
724.92	272.87
725.25	272.39
725.59	271.85
725.92	271.34
726.25	270.85
726.58	270.35
726.91	269.87
727.24	269.41
727.57	268.94
727.91	268.45
728.24	267.96
728.57	267.44
728.90	266.97
729.23	266.43
729.56	265.99
729.89	265.49
730.22	264.99
730.55	264.52
730.89	264.06
731.22	263.58
731.55	263.16
731.88	262.71
732.21	262.24
732.54	261.79
732.87	261.37
733.20	260.98
733.53	260.60
733.86	260.23
734.19	259.81
734.52	259.43
734.85	259.13
735.18	258.74
735.51	258.39
735.84	258.00
736.17	257.66
736.50	257.23
736.83	257.02
737.16	256.67
737.49	256.34
737.82	256.02
738.15	255.71
738.48	255.37
738.81	255.04
739.14	254.72
739.47	254.40
739.80	254.07
740.13	253.78
740.46	253.43
740.79	253.10
741.12	252.77
741.45	252.42
741.78	252.05
742.11	251.74
742.44	251.41
742.77	251.13
743.10	250.86
743.43	250.58
743.75	250.19
744.08	250.05
744.41	249.77
744.74	249.46
745.07	249.21
745.40	248.97
745.73	248.76
746.06	248.48
746.39	248.25
746.71	247.99
747.04	247.69
747.37	247.47
747.70	247.24
748.03	247.03
748.36	246.81
748.68	246.59
749.01	246.37
749.34	246.15
749.67	245.90
750.00	245.69
750.33	245.50
750.65	245.30
750.98	244.96
751.31	244.75
751.64	244.55
751.97	244.40
752.29	244.18
752.62	243.92
752.95	243.75
753.28	243.56
753.60	243.38
753.93	243.22
754.26	243.03
754.59	242.82
754.91	242.62
755.24	242.43
755.57	242.25
755.90	242.07
756.22	241.88
756.55	241.70
756.88	241.48
757.20	241.29
757.53	241.10
757.86	240.94
758.19	240.79
758.51	240.67
758.84	240.43
759.17	240.26
759.49	240.11
759.82	239.98
760.15	239.82
760.47	239.68
760.80	239.53
761.13	239.39
761.45	239.23
761.78	239.09
762.11	238.95
762.43	238.79
762.76	238.64
763.08	238.51
763.41	238.39
763.74	238.26
764.06	238.10
764.39	237.96
764.71	237.83
765.04	237.70
765.37	237.53
765.69	237.41
766.02	237.25
766.34	237.14
766.67	236.97
767.00	236.84
767.32	236.75
767.65	236.68
767.97	236.53
768.30	236.41
768.62	236.27
768.95	236.15
769.27	236.03
769.60	235.96
769.92	235.83
770.25	235.71
770.57	235.59
770.90	235.53
771.22	235.41
771.55	235.32
771.87	235.19
772.20	235.09
772.52	235.08
772.85	235.14
773.17	235.04
773.50	234.93
773.82	234.82
774.15	234.71
774.47	234.57
774.80	234.51
775.12	234.42
775.45	234.35
775.77	234.25
776.09	234.20
776.42	234.09
776.74	234.07
777.07	234.00
777.39	233.92
777.72	233.83
778.04	233.75
778.36	233.64
778.69	233.60
779.01	233.57
779.33	233.38
779.66	233.18
779.98	233.10
780.31	233.08
780.63	233.06
780.95	232.99
781.28	232.93
781.60	232.81
781.92	232.77
782.25	232.72
782.57	232.64
782.89	232.56
783.22	232.49
783.54	232.40
783.86	232.34
784.19	232.30
784.51	232.27
784.83	232.21
785.16	232.20
785.48	232.13
785.80	232.07
786.12	232.05
786.45	232.03
786.77	231.98
787.09	231.93
787.42	231.85
787.74	231.81
788.06	231.77
788.38	231.77
788.71	231.72
789.03	231.69
789.35	231.69
789.67	231.68
789.99	231.69
790.32	231.66
790.64	231.61
790.96	231.67
791.28	231.59
791.61	231.54
791.93	231.51
792.25	231.48
792.57	231.53
792.89	231.49
793.21	231.41
793.54	231.37
793.86	231.34
794.18	231.35
794.50	231.30
794.82	231.27
795.14	231.24
795.47	231.25
795.79	231.23
796.11	231.17
796.43	231.12
796.75	231.04
797.07	230.98
797.39	230.94
797.71	230.80
798.04	230.80
798.36	230.81
798.68	230.75
799.00	230.72
799.32	230.63
799.64	230.62
799.96	230.65
800.28	230.64
800.60	230.60
800.92	230.56
801.24	230.56
801.56	230.54
801.89	230.49
802.21	230.45
802.53	230.40
802.85	230.39
803.17	230.41
803.49	230.38
803.81	230.35
804.13	230.34
804.45	230.32
804.77	230.30
805.09	230.24
805.41	230.22
805.73	230.20
806.05	230.15
806.37	230.13
806.69	230.03
807.01	230.02
807.33	229.99
807.65	229.93
807.97	229.89
808.28	229.84
808.60	229.78
808.92	229.74
809.24	229.76
809.56	229.72
809.88	229.65
810.20	229.63
810.52	229.61
810.84	229.56
811.16	229.51
811.48	229.46
811.80	229.48
812.12	229.42
812.43	229.39
812.75	229.36
813.07	229.30
813.39	229.29
813.71	229.21
814.03	229.17
814.35	229.16
814.67	229.10
814.98	229.08
815.30	229.11
815.62	229.05
815.94	228.98
816.26	228.97
816.58	228.95
816.89	228.93
817.21	228.89
817.53	228.88
817.85	228.85
818.17	228.86
818.48	228.79
818.80	228.84
819.12	228.81
819.44	228.77
819.76	228.76
820.07	228.76
820.39	228.74
820.71	228.74
821.03	228.71
821.34	228.70
821.66	228.69
821.98	228.66
822.30	228.66
822.61	228.70
822.93	228.66
823.25	228.62
823.57	228.60
823.88	228.66
824.20	228.66
824.52	228.68
824.83	228.64
825.15	228.61
825.47	228.57
825.79	228.57
826.10	228.55
826.42	228.50
826.74	228.49
827.05	228.51
827.37	228.49
827.69	228.46
828.00	228.46
828.32	228.46
828.64	228.42
828.95	228.45
829.27	228.39
829.58	228.39
829.90	228.42
830.22	228.42
830.53	228.35
830.85	228.34
831.17	228.30
831.48	228.30
831.80	228.30
832.11	228.28
832.43	228.24
832.75	228.28
833.06	228.38
833.38	228.35
833.69	228.32
834.01	228.34
834.32	228.34
834.64	228.30
834.96	228.29
835.27	228.32
835.59	228.28
835.90	228.26
836.22	228.23
836.53	228.20
836.85	228.21
837.16	228.30
837.48	228.31
837.79	228.33
838.11	228.35
838.42	228.34
838.74	228.35
839.05	228.36
839.37	228.34
839.68	228.27
840.00	228.28
840.31	228.28
840.63	228.24
840.94	228.23
841.26	228.24
841.57	228.23
841.88	228.21
842.20	228.22
842.51	228.22
842.83	228.24
843.14	228.32
843.46	228.27
843.77	228.21
844.08	228.20
844.40	228.18
844.71	228.15
845.03	228.17
845.34	228.17
845.65	228.13
845.97	228.12
846.28	228.08
846.60	228.09
846.91	228.07
847.22	228.05
847.54	228.05
847.85	228.04
848.16	228.03
848.48	228.02
848.79	228.04
849.10	228.06
849.42	228.05
849.73	227.93
850.04	227.92
850.36	227.85
850.67	227.85
850.98	227.87
851.30	227.86
851.61	227.81
851.92	227.76
852.23	227.80
852.55	227.79
852.86	227.82
853.17	227.76
853.49	227.78
853.80	227.80
854.11	227.81
854.42	227.81
854.74	227.79
855.05	227.76
855.36	227.71
855.67	227.68
855.99	227.64
856.30	227.77
856.61	227.74
856.92	227.76
857.23	227.74
857.55	227.71
857.86	227.70
858.17	227.73
858.48	227.71
858.79	227.70
859.11	227.71
859.42	227.71
859.73	227.71
860.04	227.69
860.35	227.66
860.66	227.62
860.98	227.60
861.29	227.62
861.60	227.60
861.91	227.60
862.22	227.56
862.53	227.55
862.84	227.45
863.16	227.48
863.47	227.43
863.78	227.44
864.09	227.44
864.40	227.44
864.71	227.43
865.02	227.44
865.33	227.43
865.64	227.40
865.95	227.38
866.27	227.44
866.58	227.46
866.89	227.47
867.20	227.48
867.51	227.47
867.82	227.43
868.13	227.45
868.44	227.44
868.75	227.46
869.06	227.45
869.37	227.44
869.68	227.41
869.99	227.45
870.30	227.44
870.61	227.43
870.92	227.43
871.23	227.42
871.54	227.42
871.85	227.47
872.16	227.52
872.47	227.53
872.78	227.48
873.09	227.49
873.40	227.46
873.71	227.44
874.02	227.46
874.33	227.50
874.64	227.50
874.95	227.52
875.26	227.53
875.56	227.54
875.87	227.55
876.18	227.58
876.49	227.69
876.80	227.69
877.11	227.65
877.42	227.64
877.73	227.64
878.04	227.65
878.35	227.61
878.66	227.59
878.96	227.59
879.27	227.58
879.58	227.58
879.89	227.59
880.20	227.64
880.51	227.64
880.82	227.63
881.12	227.63
881.43	227.59
881.74	227.59
882.05	227.59
882.36	227.59
882.67	227.58
882.97	227.47
883.28	227.49
883.59	227.51
883.90	227.50
884.21	227.48
884.51	227.49
884.82	227.46
885.13	227.46
885.44	227.45
885.74	227.45
886.05	227.41
886.36	227.43
886.67	227.39
886.98	227.43
887.28	227.40
887.59	227.40
887.90	227.42
888.20	227.37
888.51	227.39
888.82	227.38
889.13	227.38
889.43	227.44
889.74	227.41
890.05	227.38
890.35	227.40
890.66	227.41
890.97	227.37
891.28	227.40
891.58	227.38
891.89	227.35
892.20	227.34
892.50	227.34
892.81	227.32
893.12	227.34
893.42	227.32
893.73	227.32
894.04	227.35
894.34	227.33
894.65	227.37
894.95	227.37
895.26	227.36
895.57	227.36
895.87	227.28
896.18	227.32
896.48	227.33
896.79	227.32
897.10	227.32
897.40	227.35
897.71	227.31
898.01	227.31
898.32	227.30
898.63	227.33
898.93	227.36
899.24	227.34
899.54	227.32
899.85	227.30
900.15	227.28
900.46	227.27
900.76	227.29
901.07	227.26
901.38	227.27
901.68	227.26
901.99	227.23
902.29	227.22
902.60	227.19
902.90	227.19
903.21	227.17
903.51	227.17
903.82	227.16
904.12	227.19
904.43	227.20
904.73	227.22
905.03	227.21
905.34	227.26
905.64	227.27
905.95	227.25
906.25	227.24
906.56	227.26
906.86	227.26
907.17	227.26
907.47	227.29
907.77	227.28
908.08	227.30
908.38	227.33
908.69	227.37
908.99	227.41
909.30	227.45
909.60	227.47
909.90	227.49
910.21	227.48
910.51	227.47
910.81	227.50
911.12	227.54
911.42	227.53
911.73	227.45
912.03	227.48
912.33	227.52
912.64	227.54
912.94	227.53
913.24	227.50
913.55	227.46
913.85	227.43
914.15	227.46
914.46	227.46
914.76	227.43
915.06	227.42
915.37	227.38
915.67	227.38
915.97	227.38
916.27	227.36
916.58	227.37
916.88	227.37
917.18	227.36
917.49	227.39
917.79	227.42
918.09	227.45
918.39	227.47
918.70	227.46
919.00	227.47
919.30	227.53
919.60	227.53
919.91	227.55
920.21	227.55
920.51	227.54
920.81	227.53
921.12	227.57
921.42	227.56
921.72	227.58
922.02	227.56
922.32	227.56
922.63	227.58
922.93	227.62
923.23	227.58
923.53	227.58
923.83	227.51
924.13	227.48
924.44	227.47
924.74	227.48
925.04	227.48
925.34	227.47
925.64	227.41
925.94	227.42
926.24	227.46
926.55	227.44
926.85	227.41
927.15	227.38
927.45	227.35
927.75	227.35
928.05	227.33
928.35	227.34
928.65	227.34
928.95	227.32
929.26	227.28
929.56	227.33
929.86	227.32
930.16	227.28
930.46	227.28
930.76	227.24
931.06	227.18
931.36	227.17
931.66	227.17
931.96	227.19
932.26	227.18
932.56	227.15
932.86	227.16
933.16	227.19
933.46	227.17
933.76	227.13
934.06	227.12
934.36	227.15
934.66	227.12
934.96	227.13
935.26	227.11
935.56	227.13
935.86	227.07
936.16	227.04
936.46	227.05
936.76	227.03
937.06	227.01
937.36	227.03
937.66	227.01
937.96	227.02
938.26	226.99
938.56	226.97
938.86	226.99
939.16	227.00
939.46	227.00
939.76	227.04
940.06	227.07
940.35	227.06
940.65	226.98
940.95	226.98
941.25	226.94
941.55	226.95
941.85	226.93
942.15	227.00
942.45	227.02
942.75	227.01
943.04	227.02
943.34	227.07
943.64	227.05
943.94	227.03
944.24	227.02
944.54	227.01
944.84	227.05
945.13	227.03
945.43	227.03
945.73	227.02
946.03	227.02
946.33	227.00
946.62	227.01
946.92	227.05
947.22	227.05
947.52	227.07
947.82	227.08
948.11	227.05
948.41	227.01
948.71	227.01
949.01	227.03
949.31	227.03
949.60	227.03
949.90	227.06
950.20	227.08
950.50	227.11
950.79	227.09
951.09	227.06
951.39	227.07
951.69	227.04
951.98	227.08
952.28	227.08
952.58	227.12
952.87	227.13
953.17	227.14
953.47	227.15
953.76	227.13
954.06	227.15
954.36	227.15
954.66	227.16
954.95	227.18
955.25	227.19
955.55	227.23
955.84	227.18
956.14	227.20
956.44	227.20
956.73	227.18
957.03	227.21
957.32	227.21
957.62	227.21
957.92	227.20
958.21	227.20
958.51	227.30
958.81	227.30
959.10	227.33
959.40	227.34
959.69	227.37
959.99	227.39
960.29	227.38
960.58	227.38
960.88	227.42
961.17	227.39
961.47	227.39
961.76	227.35
962.06	227.38
962.36	227.37
962.65	227.36
962.95	227.39
963.24	227.36
963.54	227.36
963.83	227.36
964.13	227.36
964.42	227.30
964.72	227.22
965.01	227.19
965.31	227.16
965.60	227.15
965.90	227.18
966.19	227.14
966.49	227.12
966.78	227.11
967.08	227.10
967.37	227.12
967.67	227.10
967.96	227.11
968.26	227.14
968.55	227.11
968.85	227.15
969.14	227.13
969.43	227.14
969.73	227.15
970.02	227.15
970.32	227.16
970.61	227.17
970.91	227.12
971.20	227.12
971.49	227.11
971.79	227.09
972.08	227.05
972.38	227.07
972.67	227.04
972.96	227.07
973.26	227.05
973.55	227.08
973.85	227.08
974.14	227.05
974.43	227.05
974.73	227.05
975.02	227.00
975.31	226.98
975.61	226.97
975.90	226.95
976.19	226.90
976.49	226.94
976.78	226.94
977.07	226.95
977.37	226.96
977.66	226.94
977.95	226.92
978.24	226.93
978.54	226.93
978.83	226.98
979.12	226.96
979.42	226.95
979.71	226.93
980.00	226.92
980.29	226.94
980.59	226.90
980.88	226.93
981.17	226.95
981.46	226.97
981.76	226.98
982.05	227.05
982.34	227.11
982.63	227.09
982.93	227.12
983.22	227.15
983.51	227.15
983.80	227.18
984.09	227.19
984.39	227.16
984.68	227.16
984.97	227.11
985.26	227.12
985.55	227.14
985.85	227.16
986.14	227.19
986.43	227.21
986.72	227.20
987.01	227.15
987.30	227.14
987.59	227.15
987.89	227.14
988.18	227.11
988.47	227.07
988.76	227.08
989.05	227.06
989.34	227.04
989.63	227.10
989.92	227.09
990.22	227.10
990.51	227.10
990.80	227.12
991.09	227.16
991.38	227.14
991.67	227.11
991.96	227.07
992.25	227.07
992.54	227.05
992.83	227.09
993.12	227.10
993.41	227.12
993.70	227.13
993.99	227.15
994.28	227.14
994.58	227.16
994.87	227.16
995.16	227.16
995.45	227.15
995.74	227.09
996.03	227.09
996.32	227.12
996.61	227.13
996.90	227.14
997.19	227.15
997.48	227.16
997.77	227.17
998.06	227.15
998.34	227.16
998.63	227.16
998.92	227.15
999.21	227.18
999.50	227.19
999.79	227.14
1000.08	227.12
1000.37	227.16
1000.66	227.15
1000.95	227.16
1001.24	227.17
1001.53	227.21
1001.82	227.21
1002.11	227.21
1002.40	227.19
1002.68	227.24
1002.97	227.30
1003.26	227.25
1003.55	227.26
1003.84	227.26
1004.13	227.33
1004.42	227.32
1004.71	227.30
1004.99	227.30
1005.28	227.31
1005.57	227.31
1005.86	227.34
1006.15	227.33
1006.44	227.29
1006.72	227.29
1007.01	227.26
1007.30	227.26
1007.59	227.24
1007.88	227.23
1008.17	227.24
1008.45	227.25
1008.74	227.22
1009.03	227.15
1009.32	227.17
1009.60	227.17
1009.89	227.15
1010.18	227.11
1010.47	227.12
1010.76	227.16
1011.04	227.11
1011.33	227.13
1011.62	227.14
1011.91	227.14
1012.19	227.17
1012.48	227.17
1012.77	227.16
1013.05	227.22
1013.34	227.24
1013.63	227.21
1013.92	227.21
1014.20	227.19
1014.49	227.16
1014.78	227.15
1015.06	227.10
1015.35	227.10
1015.64	227.10
1015.92	227.13
1016.21	227.13
1016.50	227.10
1016.78	227.11
1017.07	227.14
1017.36	227.10
1017.64	227.05
1017.93	227.05
1018.22	227.03
1018.50	227.03
1018.79	227.05
1019.08	226.97
1019.36	226.94
1019.65	226.93
1019.93	226.98
1020.22	227.00
1020.51	227.06
1020.79	227.04
1021.08	227.13
1021.36	226.85
1021.65	227.21
1021.94	226.70
1022.22	226.97
1022.51	226.64
1022.79	227.59
1023.08	227.25
1023.36	228.37
1023.65	226.54
>>>>>End Processed Spectral Data<<<<<
