SpectraSuite Data File
++++++++++++++++++++++++++++++++++++
Date: Fri Feb 01 16:39:06 EST 2013
User: group
Dark Spectrum Present: No
Reference Spectrum Present: No
Number of Sampled Component Spectra: 1
Spectrometers: USB2E7196
Integration Time (usec): 35000 (USB2E7196)
Spectra Averaged: 100 (USB2E7196)
Boxcar Smoothing: 10 (USB2E7196)
Correct for Electrical Dark: No (USB2E7196)
Strobe/Lamp Enabled: No (USB2E7196)
Correct for Detector Non-linearity: No (USB2E7196)
Correct for Stray Light: No (USB2E7196)
Number of Pixels in Processed Spectrum: 2048
>>>>>Begin Processed Spectral Data<<<<<
339.09	0.00
339.48	213.57
339.86	215.32
340.24	216.92
340.63	217.73
341.01	221.44
341.39	221.26
341.78	222.72
342.16	223.22
342.54	224.25
342.93	212.40
343.31	223.13
343.69	223.67
344.07	224.15
344.46	224.56
344.84	224.94
345.22	225.16
345.60	225.41
345.99	225.57
346.37	225.71
346.75	225.79
347.13	225.86
347.52	225.93
347.90	226.01
348.28	226.02
348.66	226.06
349.05	226.03
349.43	226.08
349.81	226.09
350.19	226.09
350.57	226.14
350.96	226.20
351.34	226.27
351.72	226.39
352.10	226.49
352.48	226.56
352.87	226.62
353.25	226.68
353.63	226.70
354.01	226.76
354.39	226.85
354.77	226.89
355.15	226.99
355.54	227.03
355.92	227.05
356.30	227.13
356.68	227.27
357.06	227.36
357.44	227.41
357.82	227.49
358.20	227.57
358.58	227.63
358.97	227.70
359.35	227.79
359.73	227.83
360.11	227.87
360.49	227.93
360.87	227.98
361.25	228.02
361.63	228.10
362.01	228.14
362.39	228.13
362.77	228.20
363.15	228.20
363.53	228.22
363.91	228.24
364.29	228.24
364.67	228.13
365.05	228.15
365.43	228.18
365.81	228.18
366.19	228.21
366.57	228.24
366.95	228.24
367.33	228.18
367.71	228.16
368.09	228.14
368.47	228.12
368.85	228.07
369.23	228.06
369.61	228.02
369.99	228.02
370.37	228.01
370.75	228.01
371.13	227.94
371.51	227.90
371.89	227.87
372.27	227.83
372.65	227.80
373.03	227.76
373.41	227.69
373.78	227.63
374.16	227.53
374.54	227.44
374.92	227.35
375.30	227.30
375.68	227.21
376.06	227.18
376.44	227.11
376.82	227.05
377.19	227.00
377.57	226.94
377.95	226.84
378.33	226.80
378.71	226.67
379.09	226.65
379.47	226.60
379.84	226.53
380.22	226.46
380.60	226.34
380.98	226.27
381.36	226.23
381.73	226.19
382.11	226.14
382.49	226.11
382.87	226.06
383.25	226.03
383.62	226.13
384.00	226.05
384.38	226.02
384.76	225.99
385.13	225.96
385.51	225.90
385.89	225.82
386.27	225.76
386.64	225.77
387.02	225.72
387.40	225.69
387.78	225.67
388.15	225.66
388.53	225.64
388.91	225.61
389.29	225.59
389.66	225.57
390.04	225.52
390.42	225.49
390.79	225.49
391.17	225.44
391.55	225.30
391.92	225.30
392.30	225.31
392.68	225.30
393.05	225.32
393.43	225.35
393.81	225.39
394.18	225.37
394.56	225.39
394.94	225.42
395.31	225.43
395.69	225.47
396.06	225.52
396.44	225.59
396.82	225.62
397.19	225.71
397.57	225.75
397.95	225.83
398.32	225.86
398.70	225.91
399.07	226.05
399.45	226.11
399.82	226.19
400.20	226.22
400.58	226.27
400.95	226.31
401.33	226.39
401.70	226.55
402.08	226.68
402.45	226.74
402.83	226.87
403.20	226.96
403.58	227.04
403.95	227.18
404.33	227.29
404.71	227.42
405.08	227.58
405.46	227.71
405.83	227.84
406.21	228.00
406.58	228.17
406.96	228.28
407.33	228.42
407.70	228.59
408.08	228.85
408.45	229.08
408.83	229.29
409.20	229.46
409.58	229.62
409.95	229.88
410.33	230.13
410.70	230.34
411.08	230.64
411.45	230.95
411.82	231.22
412.20	231.59
412.57	231.98
412.95	232.24
413.32	232.67
413.69	233.06
414.07	233.46
414.44	233.89
414.82	234.36
415.19	234.91
415.56	235.46
415.94	235.99
416.31	236.65
416.68	237.29
417.06	238.02
417.43	238.69
417.81	239.42
418.18	240.20
418.55	241.01
418.93	241.88
419.30	242.77
419.67	243.71
420.04	244.65
420.42	245.62
420.79	246.77
421.16	247.86
421.54	249.04
421.91	250.27
422.28	251.53
422.66	252.84
423.03	254.18
423.40	255.53
423.77	256.91
424.15	258.32
424.52	259.78
424.89	261.43
425.26	262.95
425.64	264.37
426.01	265.95
426.38	267.61
426.75	269.27
427.13	270.98
427.50	272.74
427.87	274.59
428.24	276.48
428.61	278.21
428.99	280.14
429.36	282.28
429.73	284.26
430.10	286.25
430.47	288.30
430.85	290.38
431.22	292.56
431.59	294.93
431.96	297.14
432.33	299.59
432.70	301.86
433.08	304.70
433.45	307.34
433.82	309.94
434.19	312.80
434.56	315.60
434.93	318.22
435.30	320.84
435.68	323.68
436.05	326.44
436.42	329.21
436.79	331.73
437.16	334.34
437.53	337.20
437.90	340.00
438.27	342.69
438.64	345.49
439.01	348.05
439.38	350.24
439.75	352.41
440.13	354.89
440.50	357.25
440.87	359.05
441.24	360.98
441.61	363.10
441.98	364.57
442.35	366.33
442.72	368.17
443.09	369.99
443.46	371.01
443.83	371.59
444.20	372.08
444.57	372.87
444.94	373.19
445.31	373.50
445.68	373.81
446.05	373.91
446.42	373.53
446.79	373.11
447.16	372.73
447.53	372.43
447.90	371.26
448.27	370.10
448.64	368.56
449.01	367.41
449.37	365.53
449.74	363.69
450.11	361.47
450.48	359.02
450.85	356.51
451.22	354.39
451.59	352.43
451.96	350.58
452.33	348.04
452.70	345.67
453.07	342.89
453.43	340.06
453.80	337.31
454.17	334.69
454.54	332.20
454.91	329.48
455.28	326.83
455.65	324.43
456.02	322.02
456.38	319.88
456.75	317.25
457.12	314.97
457.49	312.72
457.86	310.59
458.23	308.78
458.59	306.73
458.96	304.66
459.33	302.84
459.70	300.96
460.07	299.47
460.43	297.82
460.80	296.23
461.17	294.85
461.54	293.37
461.91	291.95
462.27	290.53
462.64	289.30
463.01	287.97
463.38	286.67
463.74	285.33
464.11	284.20
464.48	283.23
464.85	282.14
465.21	281.34
465.58	280.45
465.95	279.37
466.32	278.47
466.68	277.57
467.05	276.67
467.42	275.82
467.78	274.89
468.15	274.02
468.52	273.35
468.88	272.44
469.25	271.69
469.62	271.05
469.98	270.35
470.35	269.71
470.72	269.07
471.08	268.38
471.45	267.84
471.82	267.27
472.18	266.66
472.55	266.22
472.92	265.68
473.28	265.22
473.65	264.74
474.02	264.28
474.38	263.95
474.75	263.61
475.11	263.23
475.48	262.98
475.85	262.77
476.21	262.56
476.58	262.40
476.94	262.29
477.31	262.14
477.67	261.99
478.04	261.88
478.41	261.84
478.77	261.90
479.14	261.82
479.50	261.85
479.87	261.90
480.23	261.97
480.60	262.03
480.96	262.10
481.33	262.33
481.69	262.53
482.06	262.68
482.42	262.91
482.79	263.15
483.15	263.42
483.52	263.79
483.88	264.08
484.25	264.45
484.61	264.83
484.98	265.26
485.34	265.85
485.71	266.44
486.07	267.02
486.44	267.53
486.80	268.25
487.17	268.94
487.53	269.75
487.90	270.60
488.26	271.55
488.62	272.57
488.99	273.53
489.35	274.62
489.72	275.78
490.08	277.01
490.44	278.28
490.81	279.63
491.17	280.98
491.54	282.49
491.90	284.05
492.26	285.72
492.63	287.49
492.99	289.26
493.36	291.14
493.72	293.27
494.08	295.46
494.45	297.69
494.81	300.10
495.17	302.55
495.54	305.14
495.90	307.83
496.26	310.61
496.63	313.58
496.99	316.70
497.35	319.96
497.72	323.37
498.08	326.90
498.44	330.60
498.80	334.52
499.17	338.63
499.53	342.82
499.89	347.21
500.26	351.70
500.62	356.39
500.98	361.42
501.34	366.48
501.71	371.83
502.07	377.29
502.43	382.95
502.79	388.82
503.16	394.90
503.52	401.17
503.88	407.59
504.24	414.28
504.60	421.11
504.97	428.27
505.33	435.59
505.69	443.30
506.05	451.13
506.41	459.00
506.78	467.09
507.14	475.54
507.50	484.26
507.86	493.29
508.22	502.48
508.59	511.63
508.95	521.21
509.31	531.00
509.67	541.12
510.03	551.32
510.39	561.82
510.75	572.61
511.12	583.49
511.48	594.77
511.84	606.20
512.20	617.76
512.56	629.71
512.92	641.82
513.28	654.14
513.64	666.49
514.00	679.14
514.37	692.15
514.73	705.22
515.09	718.24
515.45	731.50
515.81	745.07
516.17	759.00
516.53	773.01
516.89	787.16
517.25	801.24
517.61	815.62
517.97	830.04
518.33	844.36
518.69	859.15
519.05	874.00
519.41	889.09
519.77	904.38
520.13	919.76
520.49	935.02
520.85	950.32
521.21	965.96
521.57	982.11
521.93	997.68
522.29	1013.87
522.65	1030.09
523.01	1046.19
523.37	1062.19
523.73	1078.16
524.09	1094.20
524.45	1110.28
524.81	1126.79
525.17	1143.44
525.53	1160.19
525.89	1176.98
526.25	1193.61
526.61	1209.87
526.97	1226.39
527.33	1242.97
527.68	1259.37
528.04	1275.82
528.40	1292.17
528.76	1309.10
529.12	1325.65
529.48	1342.39
529.84	1358.26
530.20	1374.65
530.56	1391.43
530.91	1408.50
531.27	1425.26
531.63	1441.65
531.99	1458.13
532.35	1474.10
532.71	1490.05
533.07	1506.16
533.42	1522.02
533.78	1537.98
534.14	1554.18
534.50	1569.45
534.86	1585.13
535.21	1600.17
535.57	1615.90
535.93	1631.35
536.29	1646.04
536.65	1660.90
537.00	1675.47
537.36	1690.61
537.72	1704.97
538.08	1719.30
538.44	1732.87
538.79	1746.57
539.15	1759.77
539.51	1773.19
539.87	1787.31
540.22	1800.60
540.58	1814.03
540.94	1826.91
541.29	1839.43
541.65	1851.82
542.01	1864.69
542.37	1876.79
542.72	1889.05
543.08	1900.68
543.44	1912.86
543.79	1924.04
544.15	1934.84
544.51	1946.28
544.87	1957.15
545.22	1967.89
545.58	1978.07
545.94	1987.86
546.29	1997.63
546.65	2007.63
547.01	2017.03
547.36	2025.71
547.72	2034.22
548.07	2042.22
548.43	2050.55
548.79	2058.50
549.14	2066.24
549.50	2073.56
549.86	2081.15
550.21	2088.41
550.57	2095.47
550.92	2102.10
551.28	2109.08
551.64	2116.14
551.99	2122.67
552.35	2128.87
552.70	2134.94
553.06	2140.88
553.41	2147.30
553.77	2153.21
554.13	2159.21
554.48	2165.24
554.84	2170.78
555.19	2175.78
555.55	2180.88
555.90	2185.24
556.26	2190.41
556.61	2194.96
556.97	2199.59
557.32	2203.86
557.68	2208.14
558.03	2212.33
558.39	2215.93
558.74	2220.40
559.10	2224.44
559.45	2228.20
559.81	2232.37
560.16	2236.14
560.52	2239.42
560.87	2242.67
561.23	2245.42
561.58	2248.31
561.94	2250.92
562.29	2253.07
562.64	2256.21
563.00	2258.80
563.35	2262.36
563.71	2265.53
564.06	2268.55
564.42	2271.33
564.77	2273.87
565.12	2276.19
565.48	2278.45
565.83	2280.44
566.19	2282.00
566.54	2282.73
566.89	2283.99
567.25	2284.75
567.60	2286.13
567.96	2287.92
568.31	2288.81
568.66	2289.96
569.02	2290.73
569.37	2291.17
569.72	2292.23
570.08	2292.45
570.43	2292.57
570.78	2292.03
571.14	2290.47
571.49	2289.43
571.84	2289.00
572.20	2287.94
572.55	2286.81
572.90	2285.05
573.26	2283.75
573.61	2281.87
573.96	2280.24
574.31	2277.19
574.67	2274.19
575.02	2270.67
575.37	2267.27
575.72	2263.73
576.08	2260.27
576.43	2256.75
576.78	2253.12
577.13	2249.79
577.49	2246.44
577.84	2243.15
578.19	2239.50
578.54	2235.90
578.90	2231.73
579.25	2226.24
579.60	2221.40
579.95	2216.55
580.30	2211.65
580.66	2206.43
581.01	2201.66
581.36	2196.81
581.71	2192.88
582.06	2188.68
582.42	2184.25
582.77	2179.03
583.12	2174.41
583.47	2170.08
583.82	2165.31
584.17	2160.16
584.53	2154.84
584.88	2149.35
585.23	2143.64
585.58	2138.08
585.93	2132.56
586.28	2127.76
586.63	2122.85
586.98	2117.81
587.34	2113.02
587.69	2108.10
588.04	2103.08
588.39	2097.38
588.74	2090.89
589.09	2084.66
589.44	2077.97
589.79	2071.81
590.14	2066.09
590.49	2059.62
590.84	2053.09
591.19	2047.15
591.54	2040.75
591.89	2033.60
592.25	2027.02
592.60	2019.95
592.95	2012.63
593.30	2005.56
593.65	1998.05
594.00	1991.01
594.35	1983.74
594.70	1975.61
595.05	1968.78
595.40	1961.55
595.75	1954.24
596.10	1948.29
596.45	1941.71
596.80	1935.61
597.15	1929.27
597.50	1922.62
597.85	1916.19
598.19	1909.76
598.54	1902.93
598.89	1896.42
599.24	1890.42
599.59	1883.93
599.94	1877.53
600.29	1871.30
600.64	1864.62
600.99	1857.27
601.34	1850.57
601.69	1843.70
602.04	1837.23
602.39	1829.89
602.74	1823.20
603.08	1816.55
603.43	1809.73
603.78	1802.39
604.13	1795.15
604.48	1787.95
604.83	1780.97
605.18	1774.24
605.53	1766.21
605.87	1758.07
606.22	1750.66
606.57	1742.67
606.92	1735.14
607.27	1728.16
607.62	1721.29
607.96	1714.19
608.31	1707.77
608.66	1700.28
609.01	1692.79
609.36	1685.23
609.70	1677.12
610.05	1669.00
610.40	1661.41
610.75	1653.07
611.10	1645.47
611.44	1637.00
611.79	1629.01
612.14	1620.38
612.49	1611.11
612.83	1602.76
613.18	1594.81
613.53	1586.81
613.88	1578.39
614.22	1570.10
614.57	1561.38
614.92	1553.37
615.27	1546.02
615.61	1537.70
615.96	1529.66
616.31	1522.03
616.65	1514.63
617.00	1507.23
617.35	1499.50
617.70	1491.20
618.04	1482.88
618.39	1474.56
618.74	1467.03
619.08	1458.72
619.43	1451.18
619.78	1444.25
620.12	1437.22
620.47	1429.67
620.82	1421.53
621.16	1414.10
621.51	1406.54
621.85	1398.95
622.20	1390.56
622.55	1382.12
622.89	1374.22
623.24	1366.51
623.59	1359.02
623.93	1351.51
624.28	1344.21
624.62	1336.84
624.97	1329.65
625.32	1322.75
625.66	1315.77
626.01	1308.62
626.35	1301.42
626.70	1293.61
627.04	1285.97
627.39	1278.19
627.73	1270.61
628.08	1263.75
628.43	1256.69
628.77	1249.46
629.12	1242.03
629.46	1234.71
629.81	1227.15
630.15	1219.86
630.50	1212.53
630.84	1204.38
631.19	1196.47
631.53	1188.87
631.88	1181.22
632.22	1173.56
632.57	1166.30
632.91	1158.76
633.26	1151.29
633.60	1143.74
633.95	1136.60
634.29	1129.48
634.64	1122.70
634.98	1115.44
635.32	1108.28
635.67	1101.49
636.01	1094.79
636.36	1088.10
636.70	1081.58
637.05	1075.01
637.39	1068.61
637.73	1062.19
638.08	1056.41
638.42	1050.44
638.77	1044.06
639.11	1037.67
639.45	1031.36
639.80	1024.69
640.14	1018.44
640.49	1012.08
640.83	1005.82
641.17	999.78
641.52	993.54
641.86	987.08
642.20	981.32
642.55	974.93
642.89	968.56
643.23	961.88
643.58	956.01
643.92	949.86
644.26	943.98
644.61	937.96
644.95	932.01
645.29	925.51
645.64	918.77
645.98	912.42
646.32	906.31
646.66	900.24
647.01	894.50
647.35	888.84
647.69	882.92
648.04	877.31
648.38	871.43
648.72	865.53
649.06	859.58
649.41	853.64
649.75	847.75
650.09	841.77
650.43	836.08
650.78	829.97
651.12	824.02
651.46	818.19
651.80	812.47
652.14	806.99
652.49	801.51
652.83	796.37
653.17	790.83
653.51	785.26
653.85	779.82
654.20	774.24
654.54	768.18
654.88	762.39
655.22	756.54
655.56	750.77
655.90	745.21
656.25	739.89
656.59	734.52
656.93	729.40
657.27	724.26
657.61	718.81
657.95	713.66
658.29	708.54
658.64	703.26
658.98	697.89
659.32	692.40
659.66	687.23
660.00	681.95
660.34	676.96
660.68	671.98
661.02	666.99
661.36	662.25
661.70	657.81
662.05	653.53
662.39	649.23
662.73	644.85
663.07	640.47
663.41	636.03
663.75	631.56
664.09	626.97
664.43	622.60
664.77	618.57
665.11	614.38
665.45	610.24
665.79	606.21
666.13	602.14
666.47	598.03
666.81	593.89
667.15	589.70
667.49	585.82
667.83	581.95
668.17	578.02
668.51	573.97
668.85	569.83
669.19	565.93
669.53	562.09
669.87	558.21
670.21	554.55
670.55	550.89
670.89	547.47
671.23	544.10
671.57	540.56
671.91	537.01
672.25	533.47
672.58	530.03
672.92	526.56
673.26	523.39
673.60	520.28
673.94	517.18
674.28	514.26
674.62	511.27
674.96	508.22
675.30	505.32
675.64	502.40
675.97	499.69
676.31	496.80
676.65	493.84
676.99	491.13
677.33	488.29
677.67	485.49
678.01	482.47
678.34	479.58
678.68	476.71
679.02	473.92
679.36	471.07
679.70	468.28
680.04	465.56
680.37	462.76
680.71	459.90
681.05	457.25
681.39	454.61
681.73	451.92
682.06	449.41
682.40	446.85
682.74	444.30
683.08	441.68
683.42	439.13
683.75	436.66
684.09	434.06
684.43	431.60
684.77	429.14
685.10	426.78
685.44	424.41
685.78	422.13
686.12	419.84
686.45	417.64
686.79	415.38
687.13	413.21
687.46	410.99
687.80	408.84
688.14	406.58
688.48	404.48
688.81	402.28
689.15	400.09
689.49	397.99
689.82	395.92
690.16	393.84
690.50	391.87
690.83	389.92
691.17	387.98
691.51	386.02
691.84	384.21
692.18	382.31
692.52	380.34
692.85	378.36
693.19	376.49
693.52	374.60
693.86	372.78
694.20	370.96
694.53	369.19
694.87	367.33
695.21	365.55
695.54	363.70
695.88	361.98
696.21	360.26
696.55	358.57
696.88	356.83
697.22	355.15
697.56	353.47
697.89	351.81
698.23	350.19
698.56	348.57
698.90	346.98
699.23	345.32
699.57	343.78
699.90	342.28
700.24	340.72
700.58	339.24
700.91	337.76
701.25	336.27
701.58	334.84
701.92	333.47
702.25	332.08
702.59	330.73
702.92	329.36
703.26	328.04
703.59	326.72
703.93	325.52
704.26	324.27
704.60	322.99
704.93	321.71
705.26	320.43
705.60	319.27
705.93	318.06
706.27	317.03
706.60	315.99
706.94	314.89
707.27	313.76
707.61	312.65
707.94	311.57
708.27	310.53
708.61	309.49
708.94	308.52
709.28	307.52
709.61	306.56
709.94	305.63
710.28	304.64
710.61	303.68
710.95	302.61
711.28	301.71
711.61	300.76
711.95	299.86
712.28	298.95
712.61	297.98
712.95	297.07
713.28	296.15
713.61	295.21
713.95	294.30
714.28	293.48
714.61	292.64
714.95	291.82
715.28	290.94
715.61	290.00
715.95	289.12
716.28	288.26
716.61	287.45
716.95	286.63
717.28	285.87
717.61	285.07
717.94	284.35
718.28	283.54
718.61	282.79
718.94	282.11
719.27	281.43
719.61	280.74
719.94	280.08
720.27	279.40
720.60	278.72
720.94	278.14
721.27	277.53
721.60	276.94
721.93	276.33
722.27	275.83
722.60	275.29
722.93	274.72
723.26	274.21
723.59	273.65
723.93	273.08
724.26	272.53
724.59	271.97
724.92	271.45
725.25	270.97
725.59	270.51
725.92	270.01
726.25	269.50
726.58	269.01
726.91	268.51
727.24	267.96
727.57	267.48
727.91	266.94
728.24	266.46
728.57	265.96
728.90	265.49
729.23	264.97
729.56	264.58
729.89	264.07
730.22	263.62
730.55	263.11
730.89	262.68
731.22	262.24
731.55	261.83
731.88	261.40
732.21	260.97
732.54	260.50
732.87	260.07
733.20	259.68
733.53	259.31
733.86	258.95
734.19	258.62
734.52	258.25
734.85	257.94
735.18	257.55
735.51	257.18
735.84	256.82
736.17	256.50
736.50	256.12
736.83	255.90
737.16	255.54
737.49	255.28
737.82	254.93
738.15	254.60
738.48	254.25
738.81	253.94
739.14	253.64
739.47	253.32
739.80	253.03
740.13	252.69
740.46	252.39
740.79	252.04
741.12	251.74
741.45	251.45
741.78	251.10
742.11	250.82
742.44	250.53
742.77	250.28
743.10	249.95
743.43	249.65
743.75	249.30
744.08	249.18
744.41	248.86
744.74	248.60
745.07	248.33
745.40	248.09
745.73	247.85
746.06	247.55
746.39	247.29
746.71	247.00
747.04	246.73
747.37	246.47
747.70	246.24
748.03	246.00
748.36	245.75
748.68	245.51
749.01	245.25
749.34	244.98
749.67	244.69
750.00	244.44
750.33	244.28
750.65	244.08
750.98	243.71
751.31	243.51
751.64	243.29
751.97	243.15
752.29	242.93
752.62	242.67
752.95	242.46
753.28	242.27
753.60	242.08
753.93	241.89
754.26	241.66
754.59	241.44
754.91	241.25
755.24	241.06
755.57	240.83
755.90	240.68
756.22	240.50
756.55	240.32
756.88	240.17
757.20	239.93
757.53	239.68
757.86	239.52
758.19	239.32
758.51	239.16
758.84	238.94
759.17	238.75
759.49	238.61
759.82	238.52
760.15	238.38
760.47	238.19
760.80	238.03
761.13	237.89
761.45	237.72
761.78	237.54
762.11	237.40
762.43	237.27
762.76	237.14
763.08	237.02
763.41	236.91
763.74	236.79
764.06	236.60
764.39	236.48
764.71	236.35
765.04	236.23
765.37	236.09
765.69	235.91
766.02	235.82
766.34	235.69
766.67	235.49
767.00	235.40
767.32	235.36
767.65	235.33
767.97	235.24
768.30	235.12
768.62	234.99
768.95	234.87
769.27	234.78
769.60	234.65
769.92	234.53
770.25	234.37
770.57	234.22
770.90	234.14
771.22	234.04
771.55	233.94
771.87	233.84
772.20	233.75
772.52	233.77
772.85	233.78
773.17	233.66
773.50	233.59
773.82	233.45
774.15	233.33
774.47	233.14
774.80	233.01
775.12	232.94
775.45	232.88
775.77	232.80
776.09	232.73
776.42	232.67
776.74	232.61
777.07	232.56
777.39	232.53
777.72	232.46
778.04	232.41
778.36	232.34
778.69	232.25
779.01	232.22
779.33	232.07
779.66	231.91
779.98	231.86
780.31	231.82
780.63	231.79
780.95	231.74
781.28	231.67
781.60	231.64
781.92	231.59
782.25	231.55
782.57	231.47
782.89	231.39
783.22	231.32
783.54	231.25
783.86	231.22
784.19	231.17
784.51	231.15
784.83	231.08
785.16	231.01
785.48	231.00
785.80	230.93
786.12	230.85
786.45	230.78
786.77	230.74
787.09	230.68
787.42	230.61
787.74	230.54
788.06	230.52
788.38	230.48
788.71	230.43
789.03	230.37
789.35	230.36
789.67	230.32
789.99	230.27
790.32	230.23
790.64	230.18
790.96	230.21
791.28	230.12
791.61	230.09
791.93	230.06
792.25	229.98
792.57	229.98
792.89	229.93
793.21	229.90
793.54	229.83
793.86	229.77
794.18	229.70
794.50	229.66
794.82	229.59
795.14	229.54
795.47	229.51
795.79	229.47
796.11	229.39
796.43	229.34
796.75	229.31
797.07	229.30
797.39	229.24
797.71	229.13
798.04	229.12
798.36	229.08
798.68	229.06
799.00	229.07
799.32	229.04
799.64	229.04
799.96	228.99
800.28	229.00
800.60	228.99
800.92	228.97
801.24	228.95
801.56	228.97
801.89	228.92
802.21	228.90
802.53	228.83
802.85	228.85
803.17	228.88
803.49	228.84
803.81	228.81
804.13	228.79
804.45	228.71
804.77	228.70
805.09	228.69
805.41	228.64
805.73	228.58
806.05	228.55
806.37	228.53
806.69	228.52
807.01	228.46
807.33	228.43
807.65	228.41
807.97	228.45
808.28	228.41
808.60	228.40
808.92	228.38
809.24	228.45
809.56	228.38
809.88	228.32
810.20	228.30
810.52	228.25
810.84	228.19
811.16	228.20
811.48	228.18
811.80	228.20
812.12	228.20
812.43	228.20
812.75	228.16
813.07	228.13
813.39	228.09
813.71	228.07
814.03	228.04
814.35	228.04
814.67	227.95
814.98	227.92
815.30	227.91
815.62	227.86
815.94	227.76
816.26	227.81
816.58	227.78
816.89	227.80
817.21	227.77
817.53	227.78
817.85	227.78
818.17	227.72
818.48	227.67
818.80	227.68
819.12	227.63
819.44	227.58
819.76	227.55
820.07	227.55
820.39	227.55
820.71	227.56
821.03	227.53
821.34	227.52
821.66	227.53
821.98	227.52
822.30	227.55
822.61	227.62
822.93	227.54
823.25	227.53
823.57	227.47
823.88	227.48
824.20	227.47
824.52	227.47
824.83	227.48
825.15	227.43
825.47	227.37
825.79	227.35
826.10	227.34
826.42	227.33
826.74	227.29
827.05	227.30
827.37	227.27
827.69	227.27
828.00	227.27
828.32	227.28
828.64	227.22
828.95	227.23
829.27	227.19
829.58	227.19
829.90	227.19
830.22	227.20
830.53	227.16
830.85	227.15
831.17	227.13
831.48	227.11
831.80	227.11
832.11	227.11
832.43	227.10
832.75	227.07
833.06	227.10
833.38	227.11
833.69	227.08
834.01	227.07
834.32	227.05
834.64	226.98
834.96	226.90
835.27	226.95
835.59	226.91
835.90	226.88
836.22	226.84
836.53	226.82
836.85	226.78
837.16	226.87
837.48	226.82
837.79	226.83
838.11	226.82
838.42	226.79
838.74	226.79
839.05	226.77
839.37	226.76
839.68	226.71
840.00	226.68
840.31	226.68
840.63	226.64
840.94	226.60
841.26	226.59
841.57	226.62
841.88	226.59
842.20	226.52
842.51	226.49
842.83	226.48
843.14	226.54
843.46	226.56
843.77	226.46
844.08	226.45
844.40	226.40
844.71	226.38
845.03	226.35
845.34	226.33
845.65	226.32
845.97	226.32
846.28	226.31
846.60	226.30
846.91	226.25
847.22	226.24
847.54	226.25
847.85	226.26
848.16	226.24
848.48	226.20
848.79	226.25
849.10	226.26
849.42	226.26
849.73	226.16
850.04	226.12
850.36	226.15
850.67	226.16
850.98	226.15
851.30	226.15
851.61	226.19
851.92	226.19
852.23	226.20
852.55	226.21
852.86	226.21
853.17	226.23
853.49	226.27
853.80	226.27
854.11	226.31
854.42	226.31
854.74	226.31
855.05	226.31
855.36	226.27
855.67	226.27
855.99	226.29
856.30	226.36
856.61	226.37
856.92	226.33
857.23	226.33
857.55	226.32
857.86	226.33
858.17	226.33
858.48	226.33
858.79	226.34
859.11	226.35
859.42	226.38
859.73	226.35
860.04	226.34
860.35	226.34
860.66	226.30
860.98	226.30
861.29	226.30
861.60	226.30
861.91	226.34
862.22	226.32
862.53	226.31
862.84	226.22
863.16	226.29
863.47	226.30
863.78	226.27
864.09	226.30
864.40	226.29
864.71	226.30
865.02	226.27
865.33	226.26
865.64	226.25
865.95	226.23
866.27	226.31
866.58	226.31
866.89	226.36
867.20	226.38
867.51	226.37
867.82	226.38
868.13	226.43
868.44	226.41
868.75	226.45
869.06	226.47
869.37	226.50
869.68	226.44
869.99	226.46
870.30	226.51
870.61	226.51
870.92	226.51
871.23	226.49
871.54	226.49
871.85	226.48
872.16	226.50
872.47	226.48
872.78	226.42
873.09	226.43
873.40	226.36
873.71	226.34
874.02	226.36
874.33	226.35
874.64	226.31
874.95	226.30
875.26	226.27
875.56	226.26
875.87	226.24
876.18	226.24
876.49	226.31
876.80	226.29
877.11	226.29
877.42	226.29
877.73	226.30
878.04	226.28
878.35	226.29
878.66	226.29
878.96	226.30
879.27	226.27
879.58	226.26
879.89	226.24
880.20	226.29
880.51	226.29
880.82	226.25
881.12	226.26
881.43	226.24
881.74	226.23
882.05	226.21
882.36	226.23
882.67	226.22
882.97	226.13
883.28	226.12
883.59	226.10
883.90	226.10
884.21	226.11
884.51	226.14
884.82	226.14
885.13	226.11
885.44	226.08
885.74	226.10
886.05	226.10
886.36	226.12
886.67	226.04
886.98	226.07
887.28	226.11
887.59	226.12
887.90	226.12
888.20	226.14
888.51	226.16
888.82	226.12
889.13	226.13
889.43	226.20
889.74	226.18
890.05	226.17
890.35	226.16
890.66	226.17
890.97	226.15
891.28	226.10
891.58	226.15
891.89	226.19
892.20	226.17
892.50	226.18
892.81	226.17
893.12	226.16
893.42	226.12
893.73	226.11
894.04	226.11
894.34	226.12
894.65	226.12
894.95	226.08
895.26	226.11
895.57	226.16
895.87	226.06
896.18	226.08
896.48	226.12
896.79	226.09
897.10	226.07
897.40	226.09
897.71	226.13
898.01	226.07
898.32	226.07
898.63	226.05
898.93	226.06
899.24	226.05
899.54	226.06
899.85	226.06
900.15	226.05
900.46	226.03
900.76	226.03
901.07	225.99
901.38	226.02
901.68	226.01
901.99	225.92
902.29	225.94
902.60	225.93
902.90	225.89
903.21	225.86
903.51	225.86
903.82	225.87
904.12	225.87
904.43	225.91
904.73	225.86
905.03	225.87
905.34	225.98
905.64	225.98
905.95	225.99
906.25	225.99
906.56	225.98
906.86	225.98
907.17	226.00
907.47	226.04
907.77	226.02
908.08	226.01
908.38	226.06
908.69	226.04
908.99	226.07
909.30	226.11
909.60	226.15
909.90	226.16
910.21	226.10
910.51	226.07
910.81	226.06
911.12	226.05
911.42	226.06
911.73	225.91
912.03	225.93
912.33	225.97
912.64	225.95
912.94	225.97
913.24	225.95
913.55	225.92
913.85	225.93
914.15	225.96
914.46	226.00
914.76	225.97
915.06	225.99
915.37	225.96
915.67	225.95
915.97	225.98
916.27	225.96
916.58	226.00
916.88	226.01
917.18	225.97
917.49	226.08
917.79	226.10
918.09	226.15
918.39	226.18
918.70	226.15
919.00	226.19
919.30	226.21
919.60	226.22
919.91	226.20
920.21	226.19
920.51	226.18
920.81	226.16
921.12	226.19
921.42	226.12
921.72	226.12
922.02	226.08
922.32	226.04
922.63	226.03
922.93	226.07
923.23	226.07
923.53	226.09
923.83	226.00
924.13	226.01
924.44	225.98
924.74	225.98
925.04	226.00
925.34	225.97
925.64	225.91
925.94	225.90
926.24	225.98
926.55	225.95
926.85	225.89
927.15	225.87
927.45	225.86
927.75	225.91
928.05	225.90
928.35	225.96
928.65	225.97
928.95	225.98
929.26	225.94
929.56	225.93
929.86	225.94
930.16	225.90
930.46	225.88
930.76	225.88
931.06	225.80
931.36	225.79
931.66	225.80
931.96	225.83
932.26	225.81
932.56	225.78
932.86	225.79
933.16	225.80
933.46	225.80
933.76	225.77
934.06	225.77
934.36	225.80
934.66	225.76
934.96	225.76
935.26	225.76
935.56	225.77
935.86	225.77
936.16	225.78
936.46	225.78
936.76	225.78
937.06	225.75
937.36	225.77
937.66	225.76
937.96	225.75
938.26	225.73
938.56	225.71
938.86	225.68
939.16	225.69
939.46	225.72
939.76	225.72
940.06	225.72
940.35	225.67
940.65	225.62
940.95	225.64
941.25	225.62
941.55	225.62
941.85	225.63
942.15	225.65
942.45	225.63
942.75	225.64
943.04	225.64
943.34	225.67
943.64	225.67
943.94	225.67
944.24	225.67
944.54	225.71
944.84	225.71
945.13	225.69
945.43	225.72
945.73	225.70
946.03	225.70
946.33	225.71
946.62	225.78
946.92	225.79
947.22	225.77
947.52	225.77
947.82	225.80
948.11	225.79
948.41	225.76
948.71	225.76
949.01	225.76
949.31	225.76
949.60	225.76
949.90	225.78
950.20	225.76
950.50	225.76
950.79	225.74
951.09	225.78
951.39	225.79
951.69	225.76
951.98	225.76
952.28	225.74
952.58	225.74
952.87	225.70
953.17	225.74
953.47	225.72
953.76	225.72
954.06	225.65
954.36	225.62
954.66	225.63
954.95	225.65
955.25	225.66
955.55	225.64
955.84	225.62
956.14	225.64
956.44	225.67
956.73	225.65
957.03	225.65
957.32	225.65
957.62	225.68
957.92	225.69
958.21	225.71
958.51	225.84
958.81	225.85
959.10	225.87
959.40	225.88
959.69	225.89
959.99	225.92
960.29	225.96
960.58	225.98
960.88	226.02
961.17	226.00
961.47	226.02
961.76	226.02
962.06	226.05
962.36	226.02
962.65	225.99
962.95	225.99
963.24	225.97
963.54	225.94
963.83	225.92
964.13	225.89
964.42	225.86
964.72	225.77
965.01	225.81
965.31	225.76
965.60	225.74
965.90	225.80
966.19	225.75
966.49	225.73
966.78	225.71
967.08	225.68
967.37	225.69
967.67	225.70
967.96	225.71
968.26	225.70
968.55	225.72
968.85	225.74
969.14	225.76
969.43	225.78
969.73	225.78
970.02	225.78
970.32	225.79
970.61	225.80
970.91	225.76
971.20	225.74
971.49	225.77
971.79	225.80
972.08	225.73
972.38	225.74
972.67	225.75
972.96	225.79
973.26	225.75
973.55	225.77
973.85	225.75
974.14	225.72
974.43	225.71
974.73	225.68
975.02	225.67
975.31	225.66
975.61	225.64
975.90	225.63
976.19	225.63
976.49	225.64
976.78	225.65
977.07	225.63
977.37	225.60
977.66	225.59
977.95	225.55
978.24	225.57
978.54	225.59
978.83	225.57
979.12	225.54
979.42	225.57
979.71	225.55
980.00	225.56
980.29	225.59
980.59	225.58
980.88	225.60
981.17	225.60
981.46	225.61
981.76	225.64
982.05	225.66
982.34	225.68
982.63	225.68
982.93	225.66
983.22	225.72
983.51	225.74
983.80	225.75
984.09	225.78
984.39	225.76
984.68	225.75
984.97	225.76
985.26	225.78
985.55	225.77
985.85	225.75
986.14	225.75
986.43	225.76
986.72	225.78
987.01	225.77
987.30	225.76
987.59	225.76
987.89	225.78
988.18	225.79
988.47	225.77
988.76	225.76
989.05	225.77
989.34	225.77
989.63	225.77
989.92	225.78
990.22	225.77
990.51	225.79
990.80	225.80
991.09	225.82
991.38	225.85
991.67	225.86
991.96	225.87
992.25	225.89
992.54	225.87
992.83	225.85
993.12	225.87
993.41	225.91
993.70	225.94
993.99	225.90
994.28	225.90
994.58	225.93
994.87	225.92
995.16	225.94
995.45	225.91
995.74	225.93
996.03	225.93
996.32	225.96
996.61	225.99
996.90	225.99
997.19	225.99
997.48	225.94
997.77	225.91
998.06	225.88
998.34	225.87
998.63	225.87
998.92	225.90
999.21	225.88
999.50	225.86
999.79	225.82
1000.08	225.82
1000.37	225.81
1000.66	225.80
1000.95	225.80
1001.24	225.76
1001.53	225.79
1001.82	225.76
1002.11	225.72
1002.40	225.68
1002.68	225.69
1002.97	225.75
1003.26	225.67
1003.55	225.68
1003.84	225.71
1004.13	225.72
1004.42	225.70
1004.71	225.73
1004.99	225.70
1005.28	225.73
1005.57	225.71
1005.86	225.70
1006.15	225.69
1006.44	225.67
1006.72	225.68
1007.01	225.68
1007.30	225.67
1007.59	225.64
1007.88	225.63
1008.17	225.64
1008.45	225.63
1008.74	225.59
1009.03	225.55
1009.32	225.58
1009.60	225.59
1009.89	225.57
1010.18	225.55
1010.47	225.55
1010.76	225.52
1011.04	225.49
1011.33	225.47
1011.62	225.49
1011.91	225.51
1012.19	225.51
1012.48	225.52
1012.77	225.49
1013.05	225.54
1013.34	225.55
1013.63	225.56
1013.92	225.58
1014.20	225.57
1014.49	225.58
1014.78	225.58
1015.06	225.56
1015.35	225.56
1015.64	225.58
1015.92	225.56
1016.21	225.56
1016.50	225.55
1016.78	225.56
1017.07	225.59
1017.36	225.58
1017.64	225.57
1017.93	225.57
1018.22	225.58
1018.50	225.57
1018.79	225.58
1019.08	225.53
1019.36	225.53
1019.65	225.50
1019.93	225.48
1020.22	225.52
1020.51	225.55
1020.79	225.54
1021.08	225.69
1021.36	225.28
1021.65	225.62
1021.94	225.59
1022.22	225.40
1022.51	225.03
1022.79	225.47
1023.08	225.88
1023.36	226.43
1023.65	225.67
>>>>>End Processed Spectral Data<<<<<
