SpectraSuite Data File
++++++++++++++++++++++++++++++++++++
Date: Fri Feb 01 15:09:13 EST 2013
User: group
Dark Spectrum Present: No
Reference Spectrum Present: No
Number of Sampled Component Spectra: 1
Spectrometers: USB2E7196
Integration Time (usec): 35000 (USB2E7196)
Spectra Averaged: 100 (USB2E7196)
Boxcar Smoothing: 10 (USB2E7196)
Correct for Electrical Dark: No (USB2E7196)
Strobe/Lamp Enabled: No (USB2E7196)
Correct for Detector Non-linearity: No (USB2E7196)
Correct for Stray Light: No (USB2E7196)
Number of Pixels in Processed Spectrum: 2048
>>>>>Begin Processed Spectral Data<<<<<
339.09	0.00
339.48	215.12
339.86	216.47
340.24	218.21
340.63	219.40
341.01	221.67
341.39	222.08
341.78	223.69
342.16	224.73
342.54	225.46
342.93	213.60
343.31	224.39
343.69	224.96
344.07	225.43
344.46	225.86
344.84	226.26
345.22	226.50
345.60	226.73
345.99	226.91
346.37	227.02
346.75	227.11
347.13	227.19
347.52	227.21
347.90	227.22
348.28	227.24
348.66	227.29
349.05	227.30
349.43	227.35
349.81	227.40
350.19	227.43
350.57	227.47
350.96	227.55
351.34	227.61
351.72	227.65
352.10	227.76
352.48	227.83
352.87	227.86
353.25	227.96
353.63	228.04
354.01	228.12
354.39	228.18
354.77	228.24
355.15	228.34
355.54	228.44
355.92	228.49
356.30	228.58
356.68	228.73
357.06	228.79
357.44	228.88
357.82	228.93
358.20	229.02
358.58	229.09
358.97	229.15
359.35	229.23
359.73	229.33
360.11	229.38
360.49	229.43
360.87	229.50
361.25	229.55
361.63	229.63
362.01	229.69
362.39	229.75
362.77	229.81
363.15	229.85
363.53	229.86
363.91	229.91
364.29	229.94
364.67	229.83
365.05	229.87
365.43	229.87
365.81	229.89
366.19	229.92
366.57	229.93
366.95	229.91
367.33	229.90
367.71	229.85
368.09	229.88
368.47	229.84
368.85	229.83
369.23	229.86
369.61	229.80
369.99	229.78
370.37	229.76
370.75	229.74
371.13	229.66
371.51	229.59
371.89	229.52
372.27	229.47
372.65	229.44
373.03	229.36
373.41	229.32
373.78	229.24
374.16	229.12
374.54	229.05
374.92	228.99
375.30	228.92
375.68	228.85
376.06	228.76
376.44	228.68
376.82	228.61
377.19	228.49
377.57	228.37
377.95	228.24
378.33	228.15
378.71	228.01
379.09	227.95
379.47	227.88
379.84	227.81
380.22	227.70
380.60	227.60
380.98	227.49
381.36	227.39
381.73	227.28
382.11	227.24
382.49	227.16
382.87	227.07
383.25	226.98
383.62	227.04
384.00	226.96
384.38	226.89
384.76	226.84
385.13	226.80
385.51	226.77
385.89	226.68
386.27	226.64
386.64	226.64
387.02	226.60
387.40	226.56
387.78	226.53
388.15	226.50
388.53	226.47
388.91	226.46
389.29	226.40
389.66	226.39
390.04	226.37
390.42	226.37
390.79	226.37
391.17	226.35
391.55	226.19
391.92	226.18
392.30	226.15
392.68	226.12
393.05	226.11
393.43	226.14
393.81	226.19
394.18	226.20
394.56	226.19
394.94	226.23
395.31	226.24
395.69	226.28
396.06	226.33
396.44	226.38
396.82	226.45
397.19	226.55
397.57	226.59
397.95	226.64
398.32	226.66
398.70	226.75
399.07	226.85
399.45	226.94
399.82	227.03
400.20	227.14
400.58	227.21
400.95	227.29
401.33	227.37
401.70	227.51
402.08	227.61
402.45	227.73
402.83	227.88
403.20	228.04
403.58	228.15
403.95	228.29
404.33	228.42
404.71	228.55
405.08	228.74
405.46	228.88
405.83	229.02
406.21	229.19
406.58	229.37
406.96	229.51
407.33	229.71
407.70	229.92
408.08	230.16
408.45	230.45
408.83	230.69
409.20	230.94
409.58	231.14
409.95	231.43
410.33	231.72
410.70	231.96
411.08	232.24
411.45	232.58
411.82	232.93
412.20	233.25
412.57	233.68
412.95	234.01
413.32	234.45
413.69	234.88
414.07	235.33
414.44	235.75
414.82	236.26
415.19	236.82
415.56	237.35
415.94	237.93
416.31	238.52
416.68	239.14
417.06	239.86
417.43	240.53
417.81	241.28
418.18	242.02
418.55	242.85
418.93	243.73
419.30	244.60
419.67	245.54
420.04	246.50
420.42	247.46
420.79	248.61
421.16	249.76
421.54	250.94
421.91	252.15
422.28	253.43
422.66	254.77
423.03	256.06
423.40	257.40
423.77	258.83
424.15	260.28
424.52	261.76
424.89	263.33
425.26	264.89
425.64	266.36
426.01	267.98
426.38	269.68
426.75	271.36
427.13	273.06
427.50	274.78
427.87	276.69
428.24	278.56
428.61	280.32
428.99	282.23
429.36	284.33
429.73	286.37
430.10	288.38
430.47	290.43
430.85	292.55
431.22	294.81
431.59	297.15
431.96	299.36
432.33	301.87
432.70	304.23
433.08	307.06
433.45	309.68
433.82	312.28
434.19	315.16
434.56	317.99
434.93	320.67
435.30	323.35
435.68	326.24
436.05	329.08
436.42	331.86
436.79	334.41
437.16	337.11
437.53	339.98
437.90	342.81
438.27	345.59
438.64	348.42
439.01	350.99
439.38	353.28
439.75	355.53
440.13	358.04
440.50	360.46
440.87	362.28
441.24	364.22
441.61	366.41
441.98	367.90
442.35	369.69
442.72	371.57
443.09	373.36
443.46	374.35
443.83	374.96
444.20	375.53
444.57	376.35
444.94	376.67
445.31	377.06
445.68	377.42
446.05	377.46
446.42	377.07
446.79	376.71
447.16	376.26
447.53	375.89
447.90	374.71
448.27	373.52
448.64	371.96
449.01	370.86
449.37	368.85
449.74	366.90
450.11	364.65
450.48	362.16
450.85	359.66
451.22	357.51
451.59	355.44
451.96	353.45
452.33	350.87
452.70	348.53
453.07	345.66
453.43	342.74
453.80	339.98
454.17	337.32
454.54	334.70
454.91	331.98
455.28	329.29
455.65	326.85
456.02	324.42
456.38	322.26
456.75	319.58
457.12	317.36
457.49	315.16
457.86	313.00
458.23	311.13
458.59	309.05
458.96	306.97
459.33	305.14
459.70	303.25
460.07	301.75
460.43	300.01
460.80	298.41
461.17	296.96
461.54	295.47
461.91	294.02
462.27	292.62
462.64	291.30
463.01	289.96
463.38	288.60
463.74	287.18
464.11	286.01
464.48	284.95
464.85	283.82
465.21	282.92
465.58	281.97
465.95	280.87
466.32	279.98
466.68	279.06
467.05	278.15
467.42	277.27
467.78	276.30
468.15	275.34
468.52	274.61
468.88	273.75
469.25	272.97
469.62	272.30
469.98	271.60
470.35	270.96
470.72	270.35
471.08	269.68
471.45	269.14
471.82	268.58
472.18	268.00
472.55	267.52
472.92	267.00
473.28	266.49
473.65	266.00
474.02	265.56
474.38	265.20
474.75	264.89
475.11	264.56
475.48	264.31
475.85	264.11
476.21	263.86
476.58	263.70
476.94	263.54
477.31	263.35
477.67	263.19
478.04	263.07
478.41	262.97
478.77	262.99
479.14	262.91
479.50	262.93
479.87	262.99
480.23	263.06
480.60	263.13
480.96	263.26
481.33	263.48
481.69	263.65
482.06	263.81
482.42	263.97
482.79	264.23
483.15	264.53
483.52	264.92
483.88	265.28
484.25	265.64
484.61	266.05
484.98	266.55
485.34	267.11
485.71	267.73
486.07	268.37
486.44	268.93
486.80	269.65
487.17	270.37
487.53	271.23
487.90	272.11
488.26	273.07
488.62	274.02
488.99	275.01
489.35	276.06
489.72	277.14
490.08	278.37
490.44	279.59
490.81	280.92
491.17	282.24
491.54	283.71
491.90	285.25
492.26	286.93
492.63	288.63
492.99	290.38
493.36	292.23
493.72	294.25
494.08	296.35
494.45	298.60
494.81	300.93
495.17	303.32
495.54	305.86
495.90	308.47
496.26	311.27
496.63	314.15
496.99	317.22
497.35	320.50
497.72	323.89
498.08	327.37
498.44	331.01
498.80	334.90
499.17	338.94
499.53	343.09
499.89	347.42
500.26	351.93
500.62	356.55
500.98	361.51
501.34	366.61
501.71	371.94
502.07	377.38
502.43	382.98
502.79	388.78
503.16	394.85
503.52	401.11
503.88	407.52
504.24	414.20
504.60	421.13
504.97	428.24
505.33	435.56
505.69	443.28
506.05	451.06
506.41	458.97
506.78	467.19
507.14	475.60
507.50	484.35
507.86	493.39
508.22	502.57
508.59	511.80
508.95	521.37
509.31	531.13
509.67	541.18
510.03	551.50
510.39	562.02
510.75	572.77
511.12	583.72
511.48	594.95
511.84	606.34
512.20	617.82
512.56	629.78
512.92	641.96
513.28	654.26
513.64	666.73
514.00	679.40
514.37	692.22
514.73	705.37
515.09	718.37
515.45	731.61
515.81	745.21
516.17	759.11
516.53	773.21
516.89	787.36
517.25	801.56
517.61	816.00
517.97	830.50
518.33	845.00
518.69	859.84
519.05	874.92
519.41	890.16
519.77	905.77
520.13	921.27
520.49	936.60
520.85	952.09
521.21	967.87
521.57	984.20
521.93	1000.06
522.29	1016.48
522.65	1032.78
523.01	1049.07
523.37	1065.25
523.73	1081.54
524.09	1097.66
524.45	1114.08
524.81	1130.78
525.17	1147.71
525.53	1164.75
525.89	1181.65
526.25	1198.52
526.61	1214.89
526.97	1231.71
527.33	1248.21
527.68	1264.90
528.04	1281.50
528.40	1298.13
528.76	1315.26
529.12	1331.92
529.48	1348.86
529.84	1364.80
530.20	1381.51
530.56	1398.62
530.91	1416.01
531.27	1432.82
531.63	1449.36
531.99	1466.07
532.35	1482.07
532.71	1497.92
533.07	1514.23
533.42	1530.18
533.78	1546.27
534.14	1562.72
534.50	1578.07
534.86	1594.01
535.21	1609.16
535.57	1625.25
535.93	1640.95
536.29	1655.68
536.65	1670.95
537.00	1685.91
537.36	1701.37
537.72	1716.13
538.08	1730.54
538.44	1744.42
538.79	1758.45
539.15	1772.39
539.51	1786.20
539.87	1800.61
540.22	1814.37
540.58	1828.29
540.94	1841.75
541.29	1854.82
541.65	1867.58
542.01	1880.94
542.37	1893.25
542.72	1905.85
543.08	1917.61
543.44	1929.96
543.79	1941.42
544.15	1952.33
544.51	1963.82
544.87	1974.94
545.22	1985.59
545.58	1995.92
545.94	2005.70
546.29	2015.56
546.65	2025.34
547.01	2034.51
547.36	2043.37
547.72	2052.00
548.07	2059.71
548.43	2067.95
548.79	2075.96
549.14	2083.52
549.50	2090.92
549.86	2098.81
550.21	2106.14
550.57	2113.38
550.92	2119.96
551.28	2127.01
551.64	2134.15
551.99	2140.91
552.35	2147.03
552.70	2153.15
553.06	2159.04
553.41	2165.46
553.77	2171.51
554.13	2177.63
554.48	2183.83
554.84	2189.20
555.19	2194.48
555.55	2199.59
555.90	2203.95
556.26	2208.74
556.61	2213.45
556.97	2217.63
557.32	2221.65
557.68	2225.78
558.03	2230.16
558.39	2233.85
558.74	2238.37
559.10	2242.06
559.45	2245.54
559.81	2249.91
560.16	2253.74
560.52	2256.96
560.87	2260.35
561.23	2263.00
561.58	2265.94
561.94	2268.44
562.29	2270.77
562.64	2273.33
563.00	2275.92
563.35	2279.46
563.71	2282.47
564.06	2285.66
564.42	2288.47
564.77	2290.89
565.12	2292.86
565.48	2294.49
565.83	2296.19
566.19	2297.37
566.54	2298.38
566.89	2299.38
567.25	2299.62
567.60	2301.05
567.96	2302.61
568.31	2303.30
568.66	2304.21
569.02	2304.57
569.37	2304.68
569.72	2305.42
570.08	2305.40
570.43	2305.29
570.78	2304.47
571.14	2302.88
571.49	2301.24
571.84	2300.82
572.20	2299.42
572.55	2298.40
572.90	2296.81
573.26	2295.36
573.61	2293.65
573.96	2291.61
574.31	2288.50
574.67	2285.36
575.02	2281.61
575.37	2278.15
575.72	2274.18
576.08	2270.87
576.43	2267.46
576.78	2263.79
577.13	2260.60
577.49	2257.50
577.84	2254.00
578.19	2250.17
578.54	2246.44
578.90	2242.16
579.25	2236.54
579.60	2231.59
579.95	2226.49
580.30	2221.30
580.66	2216.08
581.01	2210.91
581.36	2206.03
581.71	2201.64
582.06	2197.17
582.42	2192.47
582.77	2187.18
583.12	2182.53
583.47	2177.58
583.82	2172.43
584.17	2167.06
584.53	2161.28
584.88	2155.51
585.23	2149.53
585.58	2143.99
585.93	2138.47
586.28	2133.63
586.63	2128.40
586.98	2123.16
587.34	2118.49
587.69	2113.56
588.04	2108.15
588.39	2102.43
588.74	2095.85
589.09	2089.72
589.44	2082.86
589.79	2076.91
590.14	2071.23
590.49	2064.65
590.84	2058.19
591.19	2052.00
591.54	2045.49
591.89	2038.05
592.25	2031.20
592.60	2023.94
592.95	2016.25
593.30	2008.76
593.65	2001.06
594.00	1994.05
594.35	1986.87
594.70	1978.74
595.05	1971.25
595.40	1963.83
595.75	1956.31
596.10	1949.91
596.45	1943.05
596.80	1936.84
597.15	1929.81
597.50	1922.60
597.85	1916.08
598.19	1909.33
598.54	1902.16
598.89	1895.45
599.24	1889.57
599.59	1882.79
599.94	1876.50
600.29	1870.17
600.64	1863.60
600.99	1856.18
601.34	1849.16
601.69	1841.96
602.04	1834.85
602.39	1827.61
602.74	1820.87
603.08	1814.15
603.43	1807.32
603.78	1800.06
604.13	1792.72
604.48	1785.47
604.83	1778.59
605.18	1771.48
605.53	1763.45
605.87	1755.39
606.22	1748.18
606.57	1740.19
606.92	1732.89
607.27	1725.76
607.62	1718.88
607.96	1711.45
608.31	1704.69
608.66	1697.06
609.01	1689.73
609.36	1682.28
609.70	1674.31
610.05	1666.16
610.40	1658.39
610.75	1650.26
611.10	1642.59
611.44	1634.39
611.79	1626.43
612.14	1617.72
612.49	1608.80
612.83	1600.50
613.18	1592.57
613.53	1584.45
613.88	1575.89
614.22	1567.70
614.57	1559.19
614.92	1551.09
615.27	1543.63
615.61	1535.40
615.96	1527.49
616.31	1519.84
616.65	1512.26
617.00	1504.74
617.35	1497.17
617.70	1488.85
618.04	1480.18
618.39	1471.96
618.74	1464.28
619.08	1455.97
619.43	1448.39
619.78	1441.44
620.12	1434.25
620.47	1426.65
620.82	1418.53
621.16	1411.28
621.51	1403.58
621.85	1395.93
622.20	1387.43
622.55	1379.10
622.89	1371.29
623.24	1363.68
623.59	1356.31
623.93	1348.91
624.28	1341.63
624.62	1334.10
624.97	1326.92
625.32	1320.31
625.66	1313.26
626.01	1306.01
626.35	1298.56
626.70	1290.85
627.04	1282.98
627.39	1275.28
627.73	1267.93
628.08	1260.92
628.43	1253.56
628.77	1246.18
629.12	1238.57
629.46	1231.45
629.81	1224.13
630.15	1216.88
630.50	1209.46
630.84	1201.35
631.19	1193.63
631.53	1186.16
631.88	1178.65
632.22	1171.07
632.57	1163.81
632.91	1156.39
633.26	1149.03
633.60	1141.74
633.95	1134.75
634.29	1127.89
634.64	1121.27
634.98	1113.89
635.32	1106.91
635.67	1100.32
636.01	1093.76
636.36	1086.97
636.70	1080.51
637.05	1073.96
637.39	1067.51
637.73	1061.13
638.08	1055.21
638.42	1049.13
638.77	1042.73
639.11	1036.13
639.45	1029.82
639.80	1023.12
640.14	1016.68
640.49	1010.16
640.83	1003.98
641.17	997.77
641.52	991.43
641.86	985.01
642.20	979.26
642.55	973.02
642.89	966.55
643.23	960.08
643.58	954.35
643.92	948.16
644.26	942.05
644.61	936.09
644.95	929.98
645.29	923.43
645.64	916.69
645.98	910.40
646.32	904.57
646.66	898.61
647.01	892.88
647.35	887.19
647.69	881.50
648.04	875.98
648.38	870.19
648.72	864.14
649.06	858.04
649.41	852.15
649.75	846.02
650.09	840.12
650.43	834.29
650.78	828.16
651.12	822.27
651.46	816.52
651.80	810.80
652.14	805.36
652.49	799.91
652.83	794.78
653.17	789.02
653.51	783.37
653.85	777.95
654.20	772.25
654.54	766.26
654.88	760.52
655.22	754.63
655.56	748.95
655.90	743.57
656.25	738.35
656.59	732.99
656.93	728.01
657.27	722.88
657.61	717.42
657.95	712.32
658.29	707.19
658.64	702.04
658.98	696.72
659.32	691.32
659.66	686.13
660.00	680.85
660.34	676.00
660.68	671.07
661.02	666.03
661.36	661.30
661.70	656.78
662.05	652.37
662.39	648.05
662.73	643.58
663.07	639.23
663.41	634.79
663.75	630.29
664.09	625.69
664.43	621.33
664.77	617.24
665.11	612.99
665.45	608.92
665.79	604.86
666.13	600.77
666.47	596.62
666.81	592.50
667.15	588.41
667.49	584.54
667.83	580.80
668.17	576.89
668.51	572.89
668.85	568.91
669.19	565.04
669.53	561.23
669.87	557.34
670.21	553.66
670.55	550.04
670.89	546.61
671.23	543.20
671.57	539.71
671.91	536.23
672.25	532.82
672.58	529.31
672.92	525.83
673.26	522.68
673.60	519.67
673.94	516.62
674.28	513.78
674.62	510.82
674.96	507.69
675.30	504.80
675.64	501.95
675.97	499.28
676.31	496.49
676.65	493.54
676.99	490.90
677.33	488.03
677.67	485.25
678.01	482.27
678.34	479.32
678.68	476.42
679.02	473.59
679.36	470.85
679.70	468.15
680.04	465.45
680.37	462.61
680.71	459.81
681.05	457.24
681.39	454.51
681.73	451.90
682.06	449.39
682.40	446.83
682.74	444.28
683.08	441.72
683.42	439.17
683.75	436.73
684.09	434.16
684.43	431.69
684.77	429.27
685.10	426.95
685.44	424.64
685.78	422.41
686.12	420.20
686.45	417.91
686.79	415.64
687.13	413.46
687.46	411.27
687.80	409.17
688.14	406.98
688.48	404.92
688.81	402.68
689.15	400.54
689.49	398.41
689.82	396.32
690.16	394.25
690.50	392.23
690.83	390.25
691.17	388.31
691.51	386.45
691.84	384.55
692.18	382.65
692.52	380.71
692.85	378.77
693.19	376.89
693.52	375.06
693.86	373.23
694.20	371.47
694.53	369.74
694.87	367.90
695.21	366.10
695.54	364.26
695.88	362.57
696.21	360.86
696.55	359.19
696.88	357.52
697.22	355.86
697.56	354.25
697.89	352.63
698.23	350.98
698.56	349.38
698.90	347.80
699.23	346.14
699.57	344.59
699.90	343.01
700.24	341.49
700.58	340.00
700.91	338.53
701.25	337.04
701.58	335.62
701.92	334.27
702.25	332.87
702.59	331.48
702.92	330.06
703.26	328.76
703.59	327.48
703.93	326.31
704.26	325.08
704.60	323.80
704.93	322.54
705.26	321.32
705.60	320.14
705.93	319.00
706.27	317.96
706.60	316.87
706.94	315.84
707.27	314.71
707.61	313.64
707.94	312.60
708.27	311.54
708.61	310.52
708.94	309.51
709.28	308.54
709.61	307.67
709.94	306.74
710.28	305.72
710.61	304.75
710.95	303.69
711.28	302.79
711.61	301.85
711.95	300.94
712.28	300.02
712.61	299.05
712.95	298.14
713.28	297.26
713.61	296.42
713.95	295.57
714.28	294.75
714.61	293.87
714.95	293.04
715.28	292.20
715.61	291.35
715.95	290.50
716.28	289.67
716.61	288.83
716.95	288.02
717.28	287.29
717.61	286.55
717.94	285.84
718.28	285.05
718.61	284.36
718.94	283.69
719.27	283.02
719.61	282.37
719.94	281.72
720.27	281.07
720.60	280.43
720.94	279.83
721.27	279.22
721.60	278.66
721.93	278.08
722.27	277.56
722.60	277.02
722.93	276.49
723.26	275.93
723.59	275.35
723.93	274.84
724.26	274.34
724.59	273.77
724.92	273.24
725.25	272.72
725.59	272.22
725.92	271.70
726.25	271.22
726.58	270.76
726.91	270.26
727.24	269.77
727.57	269.28
727.91	268.75
728.24	268.27
728.57	267.82
728.90	267.35
729.23	266.85
729.56	266.37
729.89	265.87
730.22	265.41
730.55	264.93
730.89	264.47
731.22	263.97
731.55	263.54
731.88	263.08
732.21	262.66
732.54	262.18
732.87	261.74
733.20	261.31
733.53	260.90
733.86	260.50
734.19	260.08
734.52	259.66
734.85	259.34
735.18	258.92
735.51	258.52
735.84	258.16
736.17	257.78
736.50	257.39
736.83	257.14
737.16	256.77
737.49	256.45
737.82	256.09
738.15	255.72
738.48	255.39
738.81	255.08
739.14	254.71
739.47	254.38
739.80	254.08
740.13	253.77
740.46	253.41
740.79	253.08
741.12	252.76
741.45	252.46
741.78	252.11
742.11	251.84
742.44	251.52
742.77	251.20
743.10	250.92
743.43	250.64
743.75	250.28
744.08	250.15
744.41	249.85
744.74	249.57
745.07	249.34
745.40	249.10
745.73	248.85
746.06	248.57
746.39	248.33
746.71	248.06
747.04	247.79
747.37	247.54
747.70	247.27
748.03	247.04
748.36	246.85
748.68	246.59
749.01	246.32
749.34	246.10
749.67	245.86
750.00	245.65
750.33	245.46
750.65	245.27
750.98	244.93
751.31	244.72
751.64	244.52
751.97	244.36
752.29	244.14
752.62	243.93
752.95	243.75
753.28	243.57
753.60	243.38
753.93	243.25
754.26	243.09
754.59	242.90
754.91	242.70
755.24	242.47
755.57	242.31
755.90	242.16
756.22	241.97
756.55	241.80
756.88	241.62
757.20	241.42
757.53	241.19
757.86	241.06
758.19	240.93
758.51	240.78
758.84	240.56
759.17	240.41
759.49	240.25
759.82	240.14
760.15	240.00
760.47	239.88
760.80	239.67
761.13	239.53
761.45	239.43
761.78	239.26
762.11	239.12
762.43	238.99
762.76	238.86
763.08	238.77
763.41	238.66
763.74	238.54
764.06	238.39
764.39	238.26
764.71	238.09
765.04	237.96
765.37	237.81
765.69	237.70
766.02	237.54
766.34	237.42
766.67	237.24
767.00	237.10
767.32	237.01
767.65	236.96
767.97	236.83
768.30	236.70
768.62	236.58
768.95	236.48
769.27	236.33
769.60	236.22
769.92	236.08
770.25	235.96
770.57	235.84
770.90	235.78
771.22	235.64
771.55	235.54
771.87	235.43
772.20	235.35
772.52	235.31
772.85	235.31
773.17	235.18
773.50	235.05
773.82	234.95
774.15	234.83
774.47	234.66
774.80	234.60
775.12	234.46
775.45	234.35
775.77	234.24
776.09	234.17
776.42	234.09
776.74	234.03
777.07	233.92
777.39	233.81
777.72	233.69
778.04	233.67
778.36	233.60
778.69	233.54
779.01	233.49
779.33	233.35
779.66	233.21
779.98	233.12
780.31	233.07
780.63	233.02
780.95	232.95
781.28	232.88
781.60	232.76
781.92	232.73
782.25	232.70
782.57	232.65
782.89	232.57
783.22	232.46
783.54	232.37
783.86	232.32
784.19	232.25
784.51	232.22
784.83	232.14
785.16	232.09
785.48	232.01
785.80	231.91
786.12	231.87
786.45	231.83
786.77	231.83
787.09	231.78
787.42	231.71
787.74	231.69
788.06	231.65
788.38	231.62
788.71	231.57
789.03	231.56
789.35	231.56
789.67	231.51
789.99	231.49
790.32	231.45
790.64	231.44
790.96	231.54
791.28	231.45
791.61	231.43
791.93	231.40
792.25	231.38
792.57	231.41
792.89	231.35
793.21	231.29
793.54	231.25
793.86	231.23
794.18	231.21
794.50	231.15
794.82	231.14
795.14	231.12
795.47	231.13
795.79	231.08
796.11	230.99
796.43	230.98
796.75	230.95
797.07	230.92
797.39	230.89
797.71	230.77
798.04	230.76
798.36	230.74
798.68	230.73
799.00	230.72
799.32	230.64
799.64	230.63
799.96	230.63
800.28	230.62
800.60	230.57
800.92	230.56
801.24	230.50
801.56	230.48
801.89	230.45
802.21	230.39
802.53	230.34
802.85	230.34
803.17	230.35
803.49	230.32
803.81	230.29
804.13	230.25
804.45	230.23
804.77	230.22
805.09	230.20
805.41	230.17
805.73	230.12
806.05	230.06
806.37	230.02
806.69	229.98
807.01	229.93
807.33	229.90
807.65	229.84
807.97	229.87
808.28	229.85
808.60	229.82
808.92	229.77
809.24	229.80
809.56	229.74
809.88	229.69
810.20	229.66
810.52	229.66
810.84	229.60
811.16	229.51
811.48	229.44
811.80	229.41
812.12	229.36
812.43	229.33
812.75	229.32
813.07	229.31
813.39	229.27
813.71	229.22
814.03	229.16
814.35	229.13
814.67	229.03
814.98	228.91
815.30	228.90
815.62	228.87
815.94	228.80
816.26	228.82
816.58	228.77
816.89	228.73
817.21	228.67
817.53	228.63
817.85	228.62
818.17	228.59
818.48	228.54
818.80	228.52
819.12	228.50
819.44	228.48
819.76	228.43
820.07	228.40
820.39	228.39
820.71	228.40
821.03	228.34
821.34	228.34
821.66	228.38
821.98	228.35
822.30	228.32
822.61	228.37
822.93	228.30
823.25	228.29
823.57	228.26
823.88	228.27
824.20	228.30
824.52	228.31
824.83	228.30
825.15	228.29
825.47	228.29
825.79	228.26
826.10	228.23
826.42	228.23
826.74	228.25
827.05	228.25
827.37	228.26
827.69	228.30
828.00	228.33
828.32	228.29
828.64	228.29
828.95	228.34
829.27	228.30
829.58	228.33
829.90	228.35
830.22	228.40
830.53	228.39
830.85	228.40
831.17	228.35
831.48	228.36
831.80	228.37
832.11	228.37
832.43	228.38
832.75	228.38
833.06	228.43
833.38	228.40
833.69	228.39
834.01	228.39
834.32	228.39
834.64	228.33
834.96	228.38
835.27	228.39
835.59	228.36
835.90	228.37
836.22	228.36
836.53	228.35
836.85	228.33
837.16	228.42
837.48	228.40
837.79	228.48
838.11	228.50
838.42	228.50
838.74	228.53
839.05	228.52
839.37	228.53
839.68	228.47
840.00	228.47
840.31	228.50
840.63	228.50
840.94	228.49
841.26	228.54
841.57	228.56
841.88	228.57
842.20	228.58
842.51	228.53
842.83	228.51
843.14	228.60
843.46	228.56
843.77	228.50
844.08	228.46
844.40	228.40
844.71	228.37
845.03	228.39
845.34	228.34
845.65	228.33
845.97	228.33
846.28	228.31
846.60	228.32
846.91	228.31
847.22	228.29
847.54	228.30
847.85	228.25
848.16	228.20
848.48	228.16
848.79	228.16
849.10	228.14
849.42	228.12
849.73	228.00
850.04	228.02
850.36	227.96
850.67	227.97
850.98	227.93
851.30	227.91
851.61	227.89
851.92	227.88
852.23	227.87
852.55	227.88
852.86	227.87
853.17	227.86
853.49	227.84
853.80	227.84
854.11	227.81
854.42	227.82
854.74	227.78
855.05	227.77
855.36	227.69
855.67	227.70
855.99	227.70
856.30	227.79
856.61	227.75
856.92	227.76
857.23	227.77
857.55	227.76
857.86	227.77
858.17	227.74
858.48	227.70
858.79	227.66
859.11	227.63
859.42	227.61
859.73	227.59
860.04	227.55
860.35	227.49
860.66	227.46
860.98	227.44
861.29	227.47
861.60	227.48
861.91	227.51
862.22	227.50
862.53	227.49
862.84	227.38
863.16	227.42
863.47	227.40
863.78	227.36
864.09	227.36
864.40	227.35
864.71	227.34
865.02	227.39
865.33	227.36
865.64	227.34
865.95	227.34
866.27	227.40
866.58	227.40
866.89	227.45
867.20	227.42
867.51	227.42
867.82	227.42
868.13	227.42
868.44	227.41
868.75	227.44
869.06	227.45
869.37	227.46
869.68	227.43
869.99	227.43
870.30	227.48
870.61	227.51
870.92	227.50
871.23	227.53
871.54	227.52
871.85	227.58
872.16	227.61
872.47	227.63
872.78	227.58
873.09	227.61
873.40	227.58
873.71	227.63
874.02	227.67
874.33	227.66
874.64	227.65
874.95	227.65
875.26	227.64
875.56	227.64
875.87	227.64
876.18	227.65
876.49	227.77
876.80	227.77
877.11	227.76
877.42	227.76
877.73	227.78
878.04	227.76
878.35	227.75
878.66	227.77
878.96	227.81
879.27	227.82
879.58	227.82
879.89	227.84
880.20	227.87
880.51	227.85
880.82	227.86
881.12	227.88
881.43	227.88
881.74	227.85
882.05	227.84
882.36	227.86
882.67	227.85
882.97	227.78
883.28	227.76
883.59	227.76
883.90	227.78
884.21	227.77
884.51	227.79
884.82	227.79
885.13	227.76
885.44	227.72
885.74	227.72
886.05	227.72
886.36	227.71
886.67	227.65
886.98	227.74
887.28	227.76
887.59	227.76
887.90	227.74
888.20	227.73
888.51	227.73
888.82	227.70
889.13	227.72
889.43	227.75
889.74	227.73
890.05	227.70
890.35	227.67
890.66	227.63
890.97	227.61
891.28	227.54
891.58	227.53
891.89	227.51
892.20	227.46
892.50	227.43
892.81	227.41
893.12	227.40
893.42	227.29
893.73	227.25
894.04	227.23
894.34	227.25
894.65	227.23
894.95	227.20
895.26	227.18
895.57	227.22
895.87	227.13
896.18	227.12
896.48	227.09
896.79	227.09
897.10	227.10
897.40	227.08
897.71	227.12
898.01	227.11
898.32	227.10
898.63	227.11
898.93	227.10
899.24	227.10
899.54	227.09
899.85	227.11
900.15	227.09
900.46	227.08
900.76	227.06
901.07	227.04
901.38	227.05
901.68	227.04
901.99	226.96
902.29	226.96
902.60	226.97
902.90	227.00
903.21	226.99
903.51	226.99
903.82	227.01
904.12	226.99
904.43	227.01
904.73	227.02
905.03	227.03
905.34	227.11
905.64	227.12
905.95	227.14
906.25	227.10
906.56	227.13
906.86	227.11
907.17	227.10
907.47	227.13
907.77	227.13
908.08	227.16
908.38	227.19
908.69	227.19
908.99	227.18
909.30	227.19
909.60	227.21
909.90	227.20
910.21	227.18
910.51	227.16
910.81	227.15
911.12	227.17
911.42	227.16
911.73	227.06
912.03	227.09
912.33	227.09
912.64	227.14
912.94	227.11
913.24	227.12
913.55	227.13
913.85	227.14
914.15	227.16
914.46	227.15
914.76	227.15
915.06	227.16
915.37	227.15
915.67	227.15
915.97	227.17
916.27	227.15
916.58	227.17
916.88	227.22
917.18	227.22
917.49	227.27
917.79	227.28
918.09	227.32
918.39	227.32
918.70	227.32
919.00	227.32
919.30	227.37
919.60	227.38
919.91	227.40
920.21	227.39
920.51	227.41
920.81	227.44
921.12	227.45
921.42	227.46
921.72	227.51
922.02	227.52
922.32	227.52
922.63	227.52
922.93	227.56
923.23	227.55
923.53	227.53
923.83	227.47
924.13	227.50
924.44	227.52
924.74	227.54
925.04	227.54
925.34	227.52
925.64	227.52
925.94	227.52
926.24	227.55
926.55	227.56
926.85	227.58
927.15	227.58
927.45	227.58
927.75	227.56
928.05	227.55
928.35	227.53
928.65	227.56
928.95	227.57
929.26	227.54
929.56	227.55
929.86	227.58
930.16	227.59
930.46	227.57
930.76	227.56
931.06	227.52
931.36	227.52
931.66	227.54
931.96	227.52
932.26	227.51
932.56	227.46
932.86	227.43
933.16	227.42
933.46	227.37
933.76	227.37
934.06	227.39
934.36	227.39
934.66	227.36
934.96	227.34
935.26	227.36
935.56	227.38
935.86	227.38
936.16	227.33
936.46	227.32
936.76	227.31
937.06	227.29
937.36	227.31
937.66	227.32
937.96	227.30
938.26	227.31
938.56	227.31
938.86	227.34
939.16	227.37
939.46	227.38
939.76	227.37
940.06	227.36
940.35	227.34
940.65	227.30
940.95	227.34
941.25	227.34
941.55	227.33
941.85	227.33
942.15	227.31
942.45	227.37
942.75	227.35
943.04	227.34
943.34	227.33
943.64	227.33
943.94	227.30
944.24	227.34
944.54	227.33
944.84	227.32
945.13	227.32
945.43	227.31
945.73	227.29
946.03	227.30
946.33	227.28
946.62	227.29
946.92	227.30
947.22	227.30
947.52	227.27
947.82	227.27
948.11	227.24
948.41	227.24
948.71	227.23
949.01	227.24
949.31	227.24
949.60	227.23
949.90	227.24
950.20	227.22
950.50	227.20
950.79	227.22
951.09	227.21
951.39	227.23
951.69	227.22
951.98	227.23
952.28	227.24
952.58	227.26
952.87	227.24
953.17	227.23
953.47	227.21
953.76	227.22
954.06	227.22
954.36	227.19
954.66	227.18
954.95	227.21
955.25	227.25
955.55	227.28
955.84	227.29
956.14	227.28
956.44	227.30
956.73	227.29
957.03	227.27
957.32	227.29
957.62	227.28
957.92	227.31
958.21	227.31
958.51	227.39
958.81	227.40
959.10	227.40
959.40	227.44
959.69	227.46
959.99	227.47
960.29	227.45
960.58	227.46
960.88	227.50
961.17	227.47
961.47	227.42
961.76	227.42
962.06	227.43
962.36	227.46
962.65	227.46
962.95	227.44
963.24	227.40
963.54	227.37
963.83	227.37
964.13	227.35
964.42	227.34
964.72	227.28
965.01	227.25
965.31	227.25
965.60	227.22
965.90	227.28
966.19	227.27
966.49	227.28
966.78	227.29
967.08	227.25
967.37	227.26
967.67	227.25
967.96	227.25
968.26	227.23
968.55	227.20
968.85	227.19
969.14	227.19
969.43	227.22
969.73	227.21
970.02	227.17
970.32	227.16
970.61	227.14
970.91	227.10
971.20	227.07
971.49	227.06
971.79	227.06
972.08	226.99
972.38	227.01
972.67	227.01
972.96	227.01
973.26	227.01
973.55	227.03
973.85	227.05
974.14	227.05
974.43	227.05
974.73	227.02
975.02	227.01
975.31	227.00
975.61	226.99
975.90	227.00
976.19	227.02
976.49	227.01
976.78	227.04
977.07	227.07
977.37	227.09
977.66	227.09
977.95	227.06
978.24	227.05
978.54	227.05
978.83	227.05
979.12	227.04
979.42	227.02
979.71	227.00
980.00	227.00
980.29	227.00
980.59	226.96
980.88	226.98
981.17	226.97
981.46	226.98
981.76	226.98
982.05	226.99
982.34	227.00
982.63	227.02
982.93	226.99
983.22	226.99
983.51	227.01
983.80	227.04
984.09	227.05
984.39	227.05
984.68	227.02
984.97	227.06
985.26	227.06
985.55	227.07
985.85	227.05
986.14	227.05
986.43	227.06
986.72	227.09
987.01	227.09
987.30	227.09
987.59	227.08
987.89	227.07
988.18	227.05
988.47	227.03
988.76	227.04
989.05	227.04
989.34	227.06
989.63	227.09
989.92	227.05
990.22	227.05
990.51	227.07
990.80	227.08
991.09	227.09
991.38	227.11
991.67	227.13
991.96	227.13
992.25	227.12
992.54	227.08
992.83	227.12
993.12	227.13
993.41	227.17
993.70	227.24
993.99	227.27
994.28	227.30
994.58	227.29
994.87	227.25
995.16	227.24
995.45	227.24
995.74	227.19
996.03	227.25
996.32	227.26
996.61	227.27
996.90	227.27
997.19	227.25
997.48	227.22
997.77	227.16
998.06	227.18
998.34	227.17
998.63	227.19
998.92	227.17
999.21	227.12
999.50	227.12
999.79	227.03
1000.08	227.05
1000.37	227.03
1000.66	227.03
1000.95	227.09
1001.24	227.12
1001.53	227.13
1001.82	227.12
1002.11	227.09
1002.40	227.09
1002.68	227.10
1002.97	227.13
1003.26	227.11
1003.55	227.10
1003.84	227.13
1004.13	227.15
1004.42	227.17
1004.71	227.18
1004.99	227.16
1005.28	227.20
1005.57	227.18
1005.86	227.20
1006.15	227.18
1006.44	227.17
1006.72	227.20
1007.01	227.15
1007.30	227.11
1007.59	227.08
1007.88	227.08
1008.17	227.06
1008.45	227.00
1008.74	226.97
1009.03	226.92
1009.32	226.94
1009.60	226.94
1009.89	226.97
1010.18	226.87
1010.47	226.86
1010.76	226.85
1011.04	226.85
1011.33	226.84
1011.62	226.85
1011.91	226.86
1012.19	226.86
1012.48	226.86
1012.77	226.85
1013.05	226.92
1013.34	226.91
1013.63	226.89
1013.92	226.88
1014.20	226.91
1014.49	226.92
1014.78	226.95
1015.06	226.94
1015.35	226.92
1015.64	226.95
1015.92	226.95
1016.21	226.99
1016.50	226.96
1016.78	226.96
1017.07	226.97
1017.36	226.97
1017.64	226.95
1017.93	226.95
1018.22	226.90
1018.50	226.87
1018.79	226.90
1019.08	226.82
1019.36	226.87
1019.65	226.86
1019.93	226.88
1020.22	226.90
1020.51	226.98
1020.79	226.95
1021.08	226.12
1021.36	226.11
1021.65	227.63
1021.94	226.58
1022.22	227.31
1022.51	226.52
1022.79	226.79
1023.08	227.60
1023.36	228.44
1023.65	226.72
>>>>>End Processed Spectral Data<<<<<
