SpectraSuite Data File
++++++++++++++++++++++++++++++++++++
Date: Fri Feb 01 16:11:11 EST 2013
User: group
Dark Spectrum Present: No
Reference Spectrum Present: No
Number of Sampled Component Spectra: 1
Spectrometers: USB2E7196
Integration Time (usec): 35000 (USB2E7196)
Spectra Averaged: 100 (USB2E7196)
Boxcar Smoothing: 10 (USB2E7196)
Correct for Electrical Dark: No (USB2E7196)
Strobe/Lamp Enabled: No (USB2E7196)
Correct for Detector Non-linearity: No (USB2E7196)
Correct for Stray Light: No (USB2E7196)
Number of Pixels in Processed Spectrum: 2048
>>>>>Begin Processed Spectral Data<<<<<
339.09	0.00
339.48	214.26
339.86	215.74
340.24	217.25
340.63	218.33
341.01	221.87
341.39	221.43
341.78	223.15
342.16	223.29
342.54	224.71
342.93	212.68
343.31	223.45
343.69	224.00
344.07	224.51
344.46	224.94
344.84	225.31
345.22	225.53
345.60	225.78
345.99	225.93
346.37	226.07
346.75	226.12
347.13	226.16
347.52	226.23
347.90	226.34
348.28	226.38
348.66	226.45
349.05	226.39
349.43	226.45
349.81	226.51
350.19	226.56
350.57	226.61
350.96	226.68
351.34	226.76
351.72	226.84
352.10	226.87
352.48	226.95
352.87	227.04
353.25	227.08
353.63	227.13
354.01	227.21
354.39	227.32
354.77	227.41
355.15	227.55
355.54	227.61
355.92	227.63
356.30	227.70
356.68	227.81
357.06	227.92
357.44	227.99
357.82	228.05
358.20	228.12
358.58	228.21
358.97	228.28
359.35	228.32
359.73	228.38
360.11	228.46
360.49	228.51
360.87	228.55
361.25	228.62
361.63	228.69
362.01	228.72
362.39	228.76
362.77	228.82
363.15	228.82
363.53	228.87
363.91	228.89
364.29	228.93
364.67	228.87
365.05	228.89
365.43	228.87
365.81	228.89
366.19	228.93
366.57	228.96
366.95	228.96
367.33	228.96
367.71	228.94
368.09	228.92
368.47	228.91
368.85	228.91
369.23	228.92
369.61	228.89
369.99	228.90
370.37	228.87
370.75	228.86
371.13	228.84
371.51	228.76
371.89	228.72
372.27	228.66
372.65	228.63
373.03	228.55
373.41	228.50
373.78	228.44
374.16	228.34
374.54	228.25
374.92	228.17
375.30	228.08
375.68	228.05
376.06	228.02
376.44	227.94
376.82	227.86
377.19	227.75
377.57	227.65
377.95	227.55
378.33	227.45
378.71	227.35
379.09	227.29
379.47	227.24
379.84	227.15
380.22	227.07
380.60	227.00
380.98	226.92
381.36	226.87
381.73	226.77
382.11	226.73
382.49	226.70
382.87	226.64
383.25	226.57
383.62	226.63
384.00	226.52
384.38	226.44
384.76	226.40
385.13	226.42
385.51	226.39
385.89	226.34
386.27	226.30
386.64	226.23
387.02	226.14
387.40	226.10
387.78	226.06
388.15	226.02
388.53	225.96
388.91	225.97
389.29	225.94
389.66	225.96
390.04	225.92
390.42	225.89
390.79	225.82
391.17	225.84
391.55	225.67
391.92	225.66
392.30	225.70
392.68	225.65
393.05	225.62
393.43	225.59
393.81	225.58
394.18	225.57
394.56	225.61
394.94	225.64
395.31	225.62
395.69	225.70
396.06	225.74
396.44	225.76
396.82	225.77
397.19	225.83
397.57	225.84
397.95	225.89
398.32	225.87
398.70	225.96
399.07	226.01
399.45	226.07
399.82	226.10
400.20	226.12
400.58	226.21
400.95	226.26
401.33	226.36
401.70	226.53
402.08	226.66
402.45	226.75
402.83	226.86
403.20	227.00
403.58	227.08
403.95	227.24
404.33	227.45
404.71	227.59
405.08	227.77
405.46	227.90
405.83	228.05
406.21	228.25
406.58	228.42
406.96	228.58
407.33	228.79
407.70	229.04
408.08	229.34
408.45	229.56
408.83	229.82
409.20	230.06
409.58	230.24
409.95	230.47
410.33	230.74
410.70	231.02
411.08	231.32
411.45	231.67
411.82	231.97
412.20	232.26
412.57	232.68
412.95	232.97
413.32	233.38
413.69	233.79
414.07	234.24
414.44	234.71
414.82	235.20
415.19	235.71
415.56	236.24
415.94	236.78
416.31	237.44
416.68	238.02
417.06	238.72
417.43	239.40
417.81	240.15
418.18	240.95
418.55	241.76
418.93	242.66
419.30	243.53
419.67	244.43
420.04	245.41
420.42	246.39
420.79	247.59
421.16	248.77
421.54	249.94
421.91	251.12
422.28	252.36
422.66	253.67
423.03	254.99
423.40	256.32
423.77	257.72
424.15	259.09
424.52	260.60
424.89	262.23
425.26	263.72
425.64	265.22
426.01	266.77
426.38	268.42
426.75	270.03
427.13	271.76
427.50	273.58
427.87	275.46
428.24	277.30
428.61	279.01
428.99	280.93
429.36	283.04
429.73	285.15
430.10	287.20
430.47	289.28
430.85	291.39
431.22	293.63
431.59	296.02
431.96	298.27
432.33	300.73
432.70	303.10
433.08	305.95
433.45	308.53
433.82	311.18
434.19	314.08
434.56	316.93
434.93	319.57
435.30	322.15
435.68	325.02
436.05	327.82
436.42	330.62
436.79	333.13
437.16	335.84
437.53	338.60
437.90	341.38
438.27	344.08
438.64	346.91
439.01	349.51
439.38	351.74
439.75	353.92
440.13	356.39
440.50	358.71
440.87	360.51
441.24	362.50
441.61	364.63
441.98	366.06
442.35	367.81
442.72	369.68
443.09	371.49
443.46	372.47
443.83	373.12
444.20	373.60
444.57	374.48
444.94	374.72
445.31	375.10
445.68	375.40
446.05	375.54
446.42	375.14
446.79	374.76
447.16	374.25
447.53	373.89
447.90	372.73
448.27	371.54
448.64	370.02
449.01	368.84
449.37	366.86
449.74	365.04
450.11	362.83
450.48	360.36
450.85	357.84
451.22	355.73
451.59	353.69
451.96	351.77
452.33	349.14
452.70	346.81
453.07	344.00
453.43	341.13
453.80	338.35
454.17	335.68
454.54	333.11
454.91	330.47
455.28	327.83
455.65	325.38
456.02	322.98
456.38	320.85
456.75	318.19
457.12	315.92
457.49	313.70
457.86	311.52
458.23	309.66
458.59	307.62
458.96	305.53
459.33	303.66
459.70	301.81
460.07	300.28
460.43	298.58
460.80	296.96
461.17	295.53
461.54	294.05
461.91	292.63
462.27	291.20
462.64	289.93
463.01	288.57
463.38	287.31
463.74	285.95
464.11	284.75
464.48	283.75
464.85	282.67
465.21	281.83
465.58	280.93
465.95	279.84
466.32	278.95
466.68	278.06
467.05	277.18
467.42	276.32
467.78	275.40
468.15	274.51
468.52	273.85
468.88	272.98
469.25	272.18
469.62	271.57
469.98	270.91
470.35	270.31
470.72	269.73
471.08	269.05
471.45	268.49
471.82	267.94
472.18	267.37
472.55	266.91
472.92	266.35
473.28	265.90
473.65	265.46
474.02	265.04
474.38	264.67
474.75	264.36
475.11	264.01
475.48	263.75
475.85	263.52
476.21	263.25
476.58	263.10
476.94	262.95
477.31	262.78
477.67	262.58
478.04	262.45
478.41	262.39
478.77	262.39
479.14	262.33
479.50	262.36
479.87	262.42
480.23	262.50
480.60	262.54
480.96	262.61
481.33	262.81
481.69	262.97
482.06	263.14
482.42	263.33
482.79	263.58
483.15	263.89
483.52	264.27
483.88	264.68
484.25	265.06
484.61	265.49
484.98	265.94
485.34	266.49
485.71	267.08
486.07	267.66
486.44	268.24
486.80	268.98
487.17	269.69
487.53	270.48
487.90	271.37
488.26	272.33
488.62	273.30
488.99	274.29
489.35	275.35
489.72	276.50
490.08	277.69
490.44	278.93
490.81	280.27
491.17	281.60
491.54	283.02
491.90	284.56
492.26	286.22
492.63	287.99
492.99	289.83
493.36	291.71
493.72	293.76
494.08	295.84
494.45	298.06
494.81	300.47
495.17	302.96
495.54	305.49
495.90	308.22
496.26	311.06
496.63	314.01
496.99	317.10
497.35	320.38
497.72	323.78
498.08	327.33
498.44	331.04
498.80	335.02
499.17	339.07
499.53	343.23
499.89	347.61
500.26	352.09
500.62	356.78
500.98	361.74
501.34	366.82
501.71	372.21
502.07	377.70
502.43	383.35
502.79	389.18
503.16	395.27
503.52	401.52
503.88	407.92
504.24	414.57
504.60	421.51
504.97	428.71
505.33	436.10
505.69	443.82
506.05	451.68
506.41	459.49
506.78	467.69
507.14	476.23
507.50	484.95
507.86	493.95
508.22	503.20
508.59	512.46
508.95	522.09
509.31	531.91
509.67	541.98
510.03	552.24
510.39	562.78
510.75	573.59
511.12	584.57
511.48	595.88
511.84	607.37
512.20	618.84
512.56	630.76
512.92	642.91
513.28	655.25
513.64	667.66
514.00	680.47
514.37	693.36
514.73	706.35
515.09	719.43
515.45	732.70
515.81	746.27
516.17	760.26
516.53	774.46
516.89	788.65
517.25	802.73
517.61	817.11
517.97	831.56
518.33	845.96
518.69	860.67
519.05	875.66
519.41	890.81
519.77	906.40
520.13	921.82
520.49	937.23
520.85	952.57
521.21	968.24
521.57	984.44
521.93	1000.21
522.29	1016.58
522.65	1032.76
523.01	1048.94
523.37	1065.00
523.73	1081.14
524.09	1097.09
524.45	1113.30
524.81	1130.05
525.17	1146.83
525.53	1163.70
525.89	1180.56
526.25	1197.43
526.61	1213.69
526.97	1230.41
527.33	1246.84
527.68	1263.38
528.04	1279.77
528.40	1296.32
528.76	1313.39
529.12	1329.78
529.48	1346.70
529.84	1362.74
530.20	1379.35
530.56	1396.22
530.91	1413.46
531.27	1430.18
531.63	1446.71
531.99	1463.29
532.35	1479.25
532.71	1495.12
533.07	1511.33
533.42	1527.21
533.78	1543.11
534.14	1559.51
534.50	1574.77
534.86	1590.57
535.21	1605.73
535.57	1621.56
535.93	1636.87
536.29	1651.53
536.65	1666.57
537.00	1681.17
537.36	1696.33
537.72	1710.73
538.08	1725.28
538.44	1738.99
538.79	1752.72
539.15	1766.10
539.51	1779.68
539.87	1793.96
540.22	1807.61
540.58	1821.31
540.94	1834.40
541.29	1847.18
541.65	1859.77
542.01	1872.91
542.37	1885.21
542.72	1897.47
543.08	1909.25
543.44	1921.78
543.79	1933.07
544.15	1944.15
544.51	1955.70
544.87	1966.67
545.22	1977.53
545.58	1987.66
545.94	1997.44
546.29	2007.23
546.65	2017.20
547.01	2026.42
547.36	2034.95
547.72	2043.47
548.07	2051.16
548.43	2059.51
548.79	2067.66
549.14	2075.11
549.50	2082.44
549.86	2090.03
550.21	2097.32
550.57	2104.40
550.92	2110.95
551.28	2118.00
551.64	2125.01
551.99	2131.53
552.35	2137.64
552.70	2143.69
553.06	2149.69
553.41	2156.14
553.77	2162.28
554.13	2168.35
554.48	2174.56
554.84	2180.27
555.19	2185.42
555.55	2190.77
555.90	2195.16
556.26	2200.02
556.61	2204.84
556.97	2209.15
557.32	2213.20
557.68	2217.54
558.03	2221.95
558.39	2225.52
558.74	2229.99
559.10	2233.76
559.45	2237.38
559.81	2241.56
560.16	2245.36
560.52	2248.55
560.87	2251.80
561.23	2254.49
561.58	2257.34
561.94	2259.81
562.29	2262.08
562.64	2264.72
563.00	2267.17
563.35	2270.70
563.71	2273.77
564.06	2276.86
564.42	2279.75
564.77	2282.38
565.12	2284.54
565.48	2286.46
565.83	2288.45
566.19	2289.94
566.54	2290.83
566.89	2292.11
567.25	2292.76
567.60	2294.08
567.96	2295.96
568.31	2296.80
568.66	2297.92
569.02	2298.62
569.37	2298.98
569.72	2299.81
570.08	2300.06
570.43	2300.18
570.78	2299.71
571.14	2298.10
571.49	2296.85
571.84	2296.47
572.20	2295.45
572.55	2294.40
572.90	2292.71
573.26	2291.35
573.61	2289.47
573.96	2287.82
574.31	2284.84
574.67	2281.98
575.02	2278.39
575.37	2274.91
575.72	2271.22
576.08	2267.73
576.43	2264.40
576.78	2260.80
577.13	2257.60
577.49	2254.47
577.84	2251.00
578.19	2247.13
578.54	2243.72
578.90	2239.53
579.25	2234.01
579.60	2228.97
579.95	2224.00
580.30	2218.95
580.66	2213.74
581.01	2208.93
581.36	2204.08
581.71	2199.85
582.06	2195.48
582.42	2191.08
582.77	2185.79
583.12	2181.38
583.47	2176.79
583.82	2171.82
584.17	2166.67
584.53	2161.24
584.88	2155.61
585.23	2149.93
585.58	2144.54
585.93	2139.06
586.28	2134.19
586.63	2129.22
586.98	2124.27
587.34	2119.69
587.69	2115.06
588.04	2109.89
588.39	2104.39
588.74	2097.95
589.09	2091.77
589.44	2084.96
589.79	2078.87
590.14	2073.30
590.49	2066.49
590.84	2060.07
591.19	2054.01
591.54	2047.50
591.89	2040.11
592.25	2033.34
592.60	2026.24
592.95	2018.75
593.30	2011.31
593.65	2003.82
594.00	1996.82
594.35	1989.49
594.70	1981.33
595.05	1974.01
595.40	1966.67
595.75	1958.98
596.10	1952.81
596.45	1946.25
596.80	1940.08
597.15	1933.57
597.50	1926.55
597.85	1920.19
598.19	1913.59
598.54	1906.53
598.89	1899.92
599.24	1894.14
599.59	1887.55
599.94	1881.23
600.29	1874.82
600.64	1868.26
600.99	1860.77
601.34	1853.83
601.69	1846.89
602.04	1840.16
602.39	1832.95
602.74	1826.28
603.08	1819.58
603.43	1812.75
603.78	1805.32
604.13	1798.15
604.48	1790.80
604.83	1783.95
605.18	1777.07
605.53	1769.19
605.87	1761.26
606.22	1754.10
606.57	1746.11
606.92	1738.79
607.27	1731.64
607.62	1724.73
607.96	1717.54
608.31	1711.04
608.66	1703.55
609.01	1696.02
609.36	1688.54
609.70	1680.45
610.05	1672.44
610.40	1664.82
610.75	1656.52
611.10	1648.97
611.44	1640.48
611.79	1632.64
612.14	1623.89
612.49	1614.70
612.83	1606.28
613.18	1598.14
613.53	1589.92
613.88	1581.35
614.22	1573.10
614.57	1564.41
614.92	1556.48
615.27	1548.93
615.61	1540.60
615.96	1532.55
616.31	1524.89
616.65	1517.45
617.00	1509.91
617.35	1502.10
617.70	1493.72
618.04	1485.28
618.39	1476.91
618.74	1469.33
619.08	1461.00
619.43	1453.40
619.78	1446.45
620.12	1439.28
620.47	1431.84
620.82	1423.66
621.16	1416.27
621.51	1408.64
621.85	1401.03
622.20	1392.42
622.55	1384.04
622.89	1376.10
623.24	1368.42
623.59	1360.92
623.93	1353.37
624.28	1346.16
624.62	1338.70
624.97	1331.64
625.32	1324.86
625.66	1317.96
626.01	1310.89
626.35	1303.35
626.70	1295.72
627.04	1288.10
627.39	1280.23
627.73	1272.71
628.08	1265.82
628.43	1258.65
628.77	1251.21
629.12	1243.67
629.46	1236.58
629.81	1229.11
630.15	1221.84
630.50	1214.40
630.84	1206.31
631.19	1198.31
631.53	1190.72
631.88	1183.27
632.22	1175.54
632.57	1168.25
632.91	1160.66
633.26	1153.20
633.60	1145.84
633.95	1138.72
634.29	1131.51
634.64	1124.94
634.98	1117.62
635.32	1110.47
635.67	1103.69
636.01	1097.09
636.36	1090.30
636.70	1083.70
637.05	1077.21
637.39	1070.84
637.73	1064.40
638.08	1058.52
638.42	1052.62
638.77	1046.17
639.11	1039.57
639.45	1033.16
639.80	1026.49
640.14	1020.09
640.49	1013.57
640.83	1007.40
641.17	1001.04
641.52	994.72
641.86	988.18
642.20	982.35
642.55	976.03
642.89	969.62
643.23	963.12
643.58	957.32
643.92	951.16
644.26	945.07
644.61	939.00
644.95	932.96
645.29	926.44
645.64	919.67
645.98	913.35
646.32	907.45
646.66	901.43
647.01	895.71
647.35	890.01
647.69	884.06
648.04	878.45
648.38	872.73
648.72	866.81
649.06	860.81
649.41	854.89
649.75	848.91
650.09	842.95
650.43	837.17
650.78	830.96
651.12	824.99
651.46	819.27
651.80	813.56
652.14	808.15
652.49	802.72
652.83	797.50
653.17	791.89
653.51	786.13
653.85	780.73
654.20	775.05
654.54	769.01
654.88	763.29
655.22	757.35
655.56	751.67
655.90	746.17
656.25	740.84
656.59	735.43
656.93	730.34
657.27	725.12
657.61	719.63
657.95	714.62
658.29	709.52
658.64	704.23
658.98	698.90
659.32	693.44
659.66	688.22
660.00	682.94
660.34	677.94
660.68	673.01
661.02	668.00
661.36	663.27
661.70	658.83
662.05	654.50
662.39	650.10
662.73	645.60
663.07	641.22
663.41	636.84
663.75	632.28
664.09	627.73
664.43	623.39
664.77	619.32
665.11	615.05
665.45	610.90
665.79	606.85
666.13	602.65
666.47	598.52
666.81	594.34
667.15	590.16
667.49	586.22
667.83	582.35
668.17	578.36
668.51	574.20
668.85	570.17
669.19	566.28
669.53	562.47
669.87	558.61
670.21	554.94
670.55	551.33
670.89	547.91
671.23	544.45
671.57	540.90
671.91	537.35
672.25	533.85
672.58	530.37
672.92	526.88
673.26	523.79
673.60	520.64
673.94	517.55
674.28	514.68
674.62	511.74
674.96	508.68
675.30	505.79
675.64	502.90
675.97	500.07
676.31	497.21
676.65	494.32
676.99	491.66
677.33	488.80
677.67	485.89
678.01	482.90
678.34	479.92
678.68	477.01
679.02	474.21
679.36	471.41
679.70	468.66
680.04	465.98
680.37	463.08
680.71	460.31
681.05	457.69
681.39	454.92
681.73	452.26
682.06	449.74
682.40	447.14
682.74	444.59
683.08	441.96
683.42	439.43
683.75	436.90
684.09	434.28
684.43	431.79
684.77	429.35
685.10	427.01
685.44	424.72
685.78	422.48
686.12	420.15
686.45	417.88
686.79	415.58
687.13	413.33
687.46	411.14
687.80	408.98
688.14	406.77
688.48	404.80
688.81	402.53
689.15	400.37
689.49	398.25
689.82	396.21
690.16	394.20
690.50	392.17
690.83	390.20
691.17	388.25
691.51	386.35
691.84	384.50
692.18	382.56
692.52	380.59
692.85	378.64
693.19	376.86
693.52	375.00
693.86	373.19
694.20	371.42
694.53	369.66
694.87	367.79
695.21	366.01
695.54	364.14
695.88	362.41
696.21	360.70
696.55	359.02
696.88	357.29
697.22	355.61
697.56	354.01
697.89	352.38
698.23	350.76
698.56	349.12
698.90	347.57
699.23	345.95
699.57	344.41
699.90	342.87
700.24	341.30
700.58	339.79
700.91	338.30
701.25	336.85
701.58	335.45
701.92	334.08
702.25	332.69
702.59	331.31
702.92	330.00
703.26	328.65
703.59	327.35
703.93	326.17
704.26	324.96
704.60	323.65
704.93	322.41
705.26	321.15
705.60	319.99
705.93	318.78
706.27	317.75
706.60	316.69
706.94	315.61
707.27	314.50
707.61	313.46
707.94	312.43
708.27	311.35
708.61	310.31
708.94	309.31
709.28	308.33
709.61	307.39
709.94	306.41
710.28	305.43
710.61	304.45
710.95	303.40
711.28	302.47
711.61	301.55
711.95	300.62
712.28	299.70
712.61	298.71
712.95	297.81
713.28	296.89
713.61	295.98
713.95	295.08
714.28	294.22
714.61	293.32
714.95	292.44
715.28	291.62
715.61	290.69
715.95	289.83
716.28	288.97
716.61	288.12
716.95	287.31
717.28	286.53
717.61	285.80
717.94	285.09
718.28	284.30
718.61	283.56
718.94	282.87
719.27	282.20
719.61	281.55
719.94	280.91
720.27	280.21
720.60	279.57
720.94	278.94
721.27	278.35
721.60	277.80
721.93	277.22
722.27	276.68
722.60	276.12
722.93	275.54
723.26	275.00
723.59	274.48
723.93	273.94
724.26	273.40
724.59	272.78
724.92	272.22
725.25	271.72
725.59	271.20
725.92	270.66
726.25	270.13
726.58	269.65
726.91	269.11
727.24	268.64
727.57	268.15
727.91	267.67
728.24	267.18
728.57	266.69
728.90	266.23
729.23	265.71
729.56	265.33
729.89	264.87
730.22	264.38
730.55	263.89
730.89	263.45
731.22	263.00
731.55	262.58
731.88	262.16
732.21	261.72
732.54	261.28
732.87	260.87
733.20	260.47
733.53	260.07
733.86	259.70
734.19	259.30
734.52	258.94
734.85	258.63
735.18	258.25
735.51	257.88
735.84	257.53
736.17	257.18
736.50	256.74
736.83	256.50
737.16	256.19
737.49	255.87
737.82	255.48
738.15	255.15
738.48	254.85
738.81	254.53
739.14	254.20
739.47	253.89
739.80	253.57
740.13	253.28
740.46	252.95
740.79	252.62
741.12	252.28
741.45	251.94
741.78	251.59
742.11	251.28
742.44	250.94
742.77	250.66
743.10	250.39
743.43	250.10
743.75	249.73
744.08	249.58
744.41	249.30
744.74	249.07
745.07	248.76
745.40	248.52
745.73	248.29
746.06	247.99
746.39	247.73
746.71	247.45
747.04	247.20
747.37	246.95
747.70	246.72
748.03	246.52
748.36	246.31
748.68	246.05
749.01	245.80
749.34	245.60
749.67	245.36
750.00	245.10
750.33	244.96
750.65	244.76
750.98	244.39
751.31	244.18
751.64	243.98
751.97	243.83
752.29	243.61
752.62	243.33
752.95	243.16
753.28	242.97
753.60	242.78
753.93	242.61
754.26	242.40
754.59	242.16
754.91	241.98
755.24	241.77
755.57	241.59
755.90	241.41
756.22	241.19
756.55	240.97
756.88	240.77
757.20	240.54
757.53	240.33
757.86	240.15
758.19	239.98
758.51	239.79
758.84	239.59
759.17	239.43
759.49	239.31
759.82	239.19
760.15	239.02
760.47	238.84
760.80	238.64
761.13	238.53
761.45	238.39
761.78	238.22
762.11	238.09
762.43	237.96
762.76	237.79
763.08	237.67
763.41	237.52
763.74	237.39
764.06	237.23
764.39	237.07
764.71	236.95
765.04	236.82
765.37	236.72
765.69	236.54
766.02	236.39
766.34	236.27
766.67	236.11
767.00	236.02
767.32	235.99
767.65	235.93
767.97	235.80
768.30	235.65
768.62	235.52
768.95	235.41
769.27	235.32
769.60	235.24
769.92	235.12
770.25	235.03
770.57	234.93
770.90	234.85
771.22	234.76
771.55	234.69
771.87	234.58
772.20	234.43
772.52	234.45
772.85	234.44
773.17	234.35
773.50	234.27
773.82	234.14
774.15	234.01
774.47	233.86
774.80	233.76
775.12	233.73
775.45	233.64
775.77	233.56
776.09	233.44
776.42	233.38
776.74	233.36
777.07	233.32
777.39	233.23
777.72	233.12
778.04	233.04
778.36	232.94
778.69	232.87
779.01	232.83
779.33	232.66
779.66	232.49
779.98	232.42
780.31	232.32
780.63	232.27
780.95	232.24
781.28	232.14
781.60	232.07
781.92	232.00
782.25	231.94
782.57	231.87
782.89	231.84
783.22	231.74
783.54	231.65
783.86	231.57
784.19	231.50
784.51	231.50
784.83	231.45
785.16	231.39
785.48	231.34
785.80	231.31
786.12	231.29
786.45	231.26
786.77	231.22
787.09	231.18
787.42	231.10
787.74	231.03
788.06	231.05
788.38	231.01
788.71	230.94
789.03	230.90
789.35	230.86
789.67	230.79
789.99	230.77
790.32	230.71
790.64	230.66
790.96	230.68
791.28	230.61
791.61	230.59
791.93	230.56
792.25	230.53
792.57	230.55
792.89	230.45
793.21	230.41
793.54	230.36
793.86	230.32
794.18	230.31
794.50	230.27
794.82	230.23
795.14	230.16
795.47	230.12
795.79	230.06
796.11	230.00
796.43	229.96
796.75	229.90
797.07	229.87
797.39	229.82
797.71	229.75
798.04	229.72
798.36	229.64
798.68	229.60
799.00	229.57
799.32	229.49
799.64	229.52
799.96	229.49
800.28	229.48
800.60	229.44
800.92	229.41
801.24	229.38
801.56	229.33
801.89	229.31
802.21	229.33
802.53	229.33
802.85	229.31
803.17	229.32
803.49	229.28
803.81	229.22
804.13	229.19
804.45	229.13
804.77	229.11
805.09	229.10
805.41	229.08
805.73	229.05
806.05	228.96
806.37	228.94
806.69	228.90
807.01	228.88
807.33	228.86
807.65	228.78
807.97	228.81
808.28	228.78
808.60	228.75
808.92	228.69
809.24	228.74
809.56	228.72
809.88	228.66
810.20	228.63
810.52	228.65
810.84	228.61
811.16	228.61
811.48	228.59
811.80	228.63
812.12	228.61
812.43	228.59
812.75	228.62
813.07	228.60
813.39	228.58
813.71	228.50
814.03	228.49
814.35	228.49
814.67	228.43
814.98	228.40
815.30	228.40
815.62	228.37
815.94	228.27
816.26	228.28
816.58	228.26
816.89	228.25
817.21	228.21
817.53	228.19
817.85	228.15
818.17	228.11
818.48	228.03
818.80	228.00
819.12	227.95
819.44	227.94
819.76	227.89
820.07	227.91
820.39	227.91
820.71	227.91
821.03	227.89
821.34	227.83
821.66	227.82
821.98	227.81
822.30	227.82
822.61	227.87
822.93	227.82
823.25	227.81
823.57	227.81
823.88	227.83
824.20	227.82
824.52	227.85
824.83	227.86
825.15	227.84
825.47	227.82
825.79	227.83
826.10	227.79
826.42	227.79
826.74	227.79
827.05	227.77
827.37	227.77
827.69	227.76
828.00	227.77
828.32	227.78
828.64	227.76
828.95	227.78
829.27	227.76
829.58	227.74
829.90	227.75
830.22	227.75
830.53	227.72
830.85	227.72
831.17	227.67
831.48	227.66
831.80	227.66
832.11	227.64
832.43	227.65
832.75	227.61
833.06	227.66
833.38	227.59
833.69	227.57
834.01	227.57
834.32	227.57
834.64	227.54
834.96	227.53
835.27	227.53
835.59	227.50
835.90	227.46
836.22	227.44
836.53	227.42
836.85	227.39
837.16	227.46
837.48	227.44
837.79	227.48
838.11	227.49
838.42	227.47
838.74	227.48
839.05	227.46
839.37	227.47
839.68	227.38
840.00	227.39
840.31	227.38
840.63	227.33
840.94	227.28
841.26	227.28
841.57	227.24
841.88	227.24
842.20	227.19
842.51	227.18
842.83	227.17
843.14	227.24
843.46	227.24
843.77	227.21
844.08	227.23
844.40	227.22
844.71	227.19
845.03	227.17
845.34	227.20
845.65	227.19
845.97	227.18
846.28	227.22
846.60	227.21
846.91	227.18
847.22	227.18
847.54	227.21
847.85	227.21
848.16	227.18
848.48	227.16
848.79	227.19
849.10	227.20
849.42	227.23
849.73	227.14
850.04	227.16
850.36	227.08
850.67	227.08
850.98	227.04
851.30	227.02
851.61	227.00
851.92	226.96
852.23	226.99
852.55	226.97
852.86	226.97
853.17	226.97
853.49	227.05
853.80	227.06
854.11	227.06
854.42	227.08
854.74	227.06
855.05	227.04
855.36	227.02
855.67	227.02
855.99	226.98
856.30	227.09
856.61	227.05
856.92	227.06
857.23	227.06
857.55	227.08
857.86	227.06
858.17	227.09
858.48	227.07
858.79	227.01
859.11	227.03
859.42	226.99
859.73	226.98
860.04	226.93
860.35	226.90
860.66	226.88
860.98	226.87
861.29	226.91
861.60	226.92
861.91	226.93
862.22	226.94
862.53	226.93
862.84	226.84
863.16	226.87
863.47	226.85
863.78	226.86
864.09	226.85
864.40	226.88
864.71	226.87
865.02	226.88
865.33	226.89
865.64	226.87
865.95	226.86
866.27	226.93
866.58	226.91
866.89	226.97
867.20	226.98
867.51	226.96
867.82	226.98
868.13	227.01
868.44	226.98
868.75	226.96
869.06	226.99
869.37	226.99
869.68	226.94
869.99	226.98
870.30	226.98
870.61	226.97
870.92	226.96
871.23	226.95
871.54	226.98
871.85	227.00
872.16	227.01
872.47	227.03
872.78	226.97
873.09	227.00
873.40	226.97
873.71	226.95
874.02	226.97
874.33	226.92
874.64	226.90
874.95	226.91
875.26	226.94
875.56	226.94
875.87	226.91
876.18	226.93
876.49	227.00
876.80	226.98
877.11	227.00
877.42	227.05
877.73	227.06
878.04	227.06
878.35	227.07
878.66	227.09
878.96	227.10
879.27	227.10
879.58	227.09
879.89	227.06
880.20	227.08
880.51	227.06
880.82	227.08
881.12	227.10
881.43	227.09
881.74	227.06
882.05	227.08
882.36	227.07
882.67	227.08
882.97	226.98
883.28	227.00
883.59	226.95
883.90	226.90
884.21	226.89
884.51	226.90
884.82	226.86
885.13	226.88
885.44	226.81
885.74	226.82
886.05	226.80
886.36	226.80
886.67	226.78
886.98	226.82
887.28	226.80
887.59	226.78
887.90	226.78
888.20	226.77
888.51	226.76
888.82	226.74
889.13	226.73
889.43	226.80
889.74	226.76
890.05	226.77
890.35	226.71
890.66	226.71
890.97	226.68
891.28	226.67
891.58	226.65
891.89	226.68
892.20	226.65
892.50	226.64
892.81	226.60
893.12	226.62
893.42	226.57
893.73	226.60
894.04	226.64
894.34	226.60
894.65	226.58
894.95	226.56
895.26	226.57
895.57	226.61
895.87	226.51
896.18	226.53
896.48	226.52
896.79	226.56
897.10	226.57
897.40	226.55
897.71	226.57
898.01	226.55
898.32	226.53
898.63	226.54
898.93	226.56
899.24	226.60
899.54	226.59
899.85	226.59
900.15	226.58
900.46	226.56
900.76	226.60
901.07	226.60
901.38	226.61
901.68	226.61
901.99	226.54
902.29	226.56
902.60	226.54
902.90	226.55
903.21	226.52
903.51	226.51
903.82	226.50
904.12	226.47
904.43	226.48
904.73	226.49
905.03	226.49
905.34	226.57
905.64	226.56
905.95	226.55
906.25	226.55
906.56	226.53
906.86	226.51
907.17	226.51
907.47	226.53
907.77	226.54
908.08	226.54
908.38	226.58
908.69	226.57
908.99	226.58
909.30	226.61
909.60	226.62
909.90	226.61
910.21	226.62
910.51	226.62
910.81	226.62
911.12	226.65
911.42	226.69
911.73	226.58
912.03	226.58
912.33	226.62
912.64	226.66
912.94	226.65
913.24	226.62
913.55	226.61
913.85	226.60
914.15	226.61
914.46	226.62
914.76	226.57
915.06	226.58
915.37	226.57
915.67	226.52
915.97	226.56
916.27	226.54
916.58	226.54
916.88	226.55
917.18	226.55
917.49	226.59
917.79	226.55
918.09	226.55
918.39	226.59
918.70	226.55
919.00	226.50
919.30	226.54
919.60	226.55
919.91	226.51
920.21	226.49
920.51	226.45
920.81	226.43
921.12	226.47
921.42	226.47
921.72	226.47
922.02	226.50
922.32	226.47
922.63	226.50
922.93	226.55
923.23	226.53
923.53	226.53
923.83	226.47
924.13	226.48
924.44	226.45
924.74	226.45
925.04	226.46
925.34	226.46
925.64	226.41
925.94	226.39
926.24	226.45
926.55	226.48
926.85	226.48
927.15	226.48
927.45	226.46
927.75	226.45
928.05	226.43
928.35	226.41
928.65	226.41
928.95	226.38
929.26	226.34
929.56	226.36
929.86	226.32
930.16	226.30
930.46	226.27
930.76	226.30
931.06	226.22
931.36	226.21
931.66	226.21
931.96	226.22
932.26	226.20
932.56	226.14
932.86	226.11
933.16	226.10
933.46	226.04
933.76	226.01
934.06	226.05
934.36	226.05
934.66	226.04
934.96	226.04
935.26	226.06
935.56	226.06
935.86	226.04
936.16	226.04
936.46	226.02
936.76	226.03
937.06	226.01
937.36	226.03
937.66	226.04
937.96	226.05
938.26	226.03
938.56	226.07
938.86	226.06
939.16	226.07
939.46	226.10
939.76	226.15
940.06	226.14
940.35	226.11
940.65	226.12
940.95	226.13
941.25	226.10
941.55	226.09
941.85	226.09
942.15	226.10
942.45	226.15
942.75	226.16
943.04	226.15
943.34	226.19
943.64	226.21
943.94	226.20
944.24	226.19
944.54	226.21
944.84	226.21
945.13	226.25
945.43	226.23
945.73	226.24
946.03	226.27
946.33	226.28
946.62	226.26
946.92	226.24
947.22	226.26
947.52	226.31
947.82	226.34
948.11	226.31
948.41	226.31
948.71	226.27
949.01	226.27
949.31	226.28
949.60	226.29
949.90	226.32
950.20	226.32
950.50	226.33
950.79	226.34
951.09	226.37
951.39	226.35
951.69	226.37
951.98	226.39
952.28	226.40
952.58	226.42
952.87	226.44
953.17	226.48
953.47	226.50
953.76	226.48
954.06	226.44
954.36	226.47
954.66	226.46
954.95	226.50
955.25	226.52
955.55	226.54
955.84	226.52
956.14	226.52
956.44	226.49
956.73	226.49
957.03	226.51
957.32	226.51
957.62	226.52
957.92	226.55
958.21	226.54
958.51	226.61
958.81	226.60
959.10	226.60
959.40	226.61
959.69	226.57
959.99	226.60
960.29	226.61
960.58	226.60
960.88	226.64
961.17	226.62
961.47	226.64
961.76	226.64
962.06	226.64
962.36	226.61
962.65	226.64
962.95	226.64
963.24	226.60
963.54	226.56
963.83	226.56
964.13	226.53
964.42	226.49
964.72	226.42
965.01	226.40
965.31	226.42
965.60	226.38
965.90	226.42
966.19	226.41
966.49	226.42
966.78	226.39
967.08	226.36
967.37	226.35
967.67	226.31
967.96	226.29
968.26	226.28
968.55	226.30
968.85	226.30
969.14	226.23
969.43	226.23
969.73	226.21
970.02	226.21
970.32	226.18
970.61	226.17
970.91	226.12
971.20	226.11
971.49	226.05
971.79	226.08
972.08	226.02
972.38	225.96
972.67	225.93
972.96	225.96
973.26	225.93
973.55	225.96
973.85	225.93
974.14	225.92
974.43	225.91
974.73	225.88
975.02	225.86
975.31	225.89
975.61	225.88
975.90	225.88
976.19	225.87
976.49	225.90
976.78	225.90
977.07	225.89
977.37	225.89
977.66	225.91
977.95	225.86
978.24	225.88
978.54	225.93
978.83	225.92
979.12	225.90
979.42	225.90
979.71	225.84
980.00	225.86
980.29	225.88
980.59	225.85
980.88	225.85
981.17	225.82
981.46	225.81
981.76	225.82
982.05	225.84
982.34	225.85
982.63	225.84
982.93	225.84
983.22	225.87
983.51	225.88
983.80	225.89
984.09	225.93
984.39	225.92
984.68	225.91
984.97	225.93
985.26	225.95
985.55	225.99
985.85	225.99
986.14	226.02
986.43	226.03
986.72	226.06
987.01	226.04
987.30	226.09
987.59	226.08
987.89	226.10
988.18	226.08
988.47	226.09
988.76	226.08
989.05	226.07
989.34	226.06
989.63	226.09
989.92	226.08
990.22	226.07
990.51	226.08
990.80	226.06
991.09	226.08
991.38	226.06
991.67	226.03
991.96	226.04
992.25	226.06
992.54	226.06
992.83	226.06
993.12	226.07
993.41	226.06
993.70	226.11
993.99	226.13
994.28	226.14
994.58	226.16
994.87	226.17
995.16	226.17
995.45	226.18
995.74	226.16
996.03	226.21
996.32	226.22
996.61	226.22
996.90	226.24
997.19	226.23
997.48	226.26
997.77	226.28
998.06	226.27
998.34	226.26
998.63	226.23
998.92	226.24
999.21	226.26
999.50	226.26
999.79	226.25
1000.08	226.25
1000.37	226.28
1000.66	226.27
1000.95	226.29
1001.24	226.30
1001.53	226.31
1001.82	226.30
1002.11	226.27
1002.40	226.26
1002.68	226.26
1002.97	226.35
1003.26	226.34
1003.55	226.31
1003.84	226.28
1004.13	226.32
1004.42	226.28
1004.71	226.29
1004.99	226.28
1005.28	226.31
1005.57	226.27
1005.86	226.26
1006.15	226.24
1006.44	226.21
1006.72	226.19
1007.01	226.15
1007.30	226.14
1007.59	226.10
1007.88	226.10
1008.17	226.09
1008.45	226.08
1008.74	226.05
1009.03	225.95
1009.32	225.94
1009.60	225.92
1009.89	225.93
1010.18	225.87
1010.47	225.89
1010.76	225.88
1011.04	225.86
1011.33	225.84
1011.62	225.85
1011.91	225.84
1012.19	225.84
1012.48	225.85
1012.77	225.85
1013.05	225.88
1013.34	225.90
1013.63	225.92
1013.92	225.90
1014.20	225.88
1014.49	225.87
1014.78	225.87
1015.06	225.86
1015.35	225.85
1015.64	225.84
1015.92	225.85
1016.21	225.87
1016.50	225.87
1016.78	225.85
1017.07	225.86
1017.36	225.84
1017.64	225.82
1017.93	225.80
1018.22	225.80
1018.50	225.78
1018.79	225.78
1019.08	225.75
1019.36	225.74
1019.65	225.72
1019.93	225.76
1020.22	225.80
1020.51	225.88
1020.79	225.88
1021.08	225.77
1021.36	225.88
1021.65	226.07
1021.94	225.77
1022.22	225.73
1022.51	225.73
1022.79	226.70
1023.08	226.29
1023.36	227.53
1023.65	225.85
>>>>>End Processed Spectral Data<<<<<
