SpectraSuite Data File
++++++++++++++++++++++++++++++++++++
Date: Fri Feb 01 15:28:43 EST 2013
User: group
Dark Spectrum Present: No
Reference Spectrum Present: No
Number of Sampled Component Spectra: 1
Spectrometers: USB2E7196
Integration Time (usec): 35000 (USB2E7196)
Spectra Averaged: 100 (USB2E7196)
Boxcar Smoothing: 10 (USB2E7196)
Correct for Electrical Dark: No (USB2E7196)
Strobe/Lamp Enabled: No (USB2E7196)
Correct for Detector Non-linearity: No (USB2E7196)
Correct for Stray Light: No (USB2E7196)
Number of Pixels in Processed Spectrum: 2048
>>>>>Begin Processed Spectral Data<<<<<
339.09	0.00
339.48	215.61
339.86	216.65
340.24	217.65
340.63	219.35
341.01	221.95
341.39	222.03
341.78	223.12
342.16	224.97
342.54	224.13
342.93	213.43
343.31	224.21
343.69	224.70
344.07	225.16
344.46	225.58
344.84	225.97
345.22	226.23
345.60	226.48
345.99	226.67
346.37	226.77
346.75	226.89
347.13	226.92
347.52	226.93
347.90	226.98
348.28	227.00
348.66	227.06
349.05	227.07
349.43	227.09
349.81	227.11
350.19	227.18
350.57	227.24
350.96	227.29
351.34	227.34
351.72	227.44
352.10	227.52
352.48	227.62
352.87	227.64
353.25	227.67
353.63	227.73
354.01	227.79
354.39	227.89
354.77	227.96
355.15	228.05
355.54	228.16
355.92	228.16
356.30	228.27
356.68	228.36
357.06	228.42
357.44	228.51
357.82	228.60
358.20	228.68
358.58	228.74
358.97	228.81
359.35	228.91
359.73	228.99
360.11	229.07
360.49	229.12
360.87	229.23
361.25	229.31
361.63	229.37
362.01	229.43
362.39	229.41
362.77	229.47
363.15	229.51
363.53	229.52
363.91	229.59
364.29	229.60
364.67	229.55
365.05	229.57
365.43	229.56
365.81	229.56
366.19	229.59
366.57	229.60
366.95	229.61
367.33	229.60
367.71	229.60
368.09	229.60
368.47	229.58
368.85	229.51
369.23	229.52
369.61	229.46
369.99	229.45
370.37	229.45
370.75	229.47
371.13	229.42
371.51	229.34
371.89	229.27
372.27	229.19
372.65	229.15
373.03	229.13
373.41	229.11
373.78	229.06
374.16	228.96
374.54	228.88
374.92	228.78
375.30	228.72
375.68	228.63
376.06	228.54
376.44	228.45
376.82	228.42
377.19	228.31
377.57	228.25
377.95	228.14
378.33	228.08
378.71	227.92
379.09	227.86
379.47	227.83
379.84	227.77
380.22	227.73
380.60	227.67
380.98	227.57
381.36	227.46
381.73	227.37
382.11	227.32
382.49	227.28
382.87	227.21
383.25	227.12
383.62	227.15
384.00	227.06
384.38	227.02
384.76	226.93
385.13	226.91
385.51	226.85
385.89	226.77
386.27	226.72
386.64	226.71
387.02	226.66
387.40	226.62
387.78	226.59
388.15	226.56
388.53	226.50
388.91	226.48
389.29	226.46
389.66	226.43
390.04	226.41
390.42	226.39
390.79	226.38
391.17	226.36
391.55	226.26
391.92	226.29
392.30	226.29
392.68	226.29
393.05	226.29
393.43	226.31
393.81	226.36
394.18	226.36
394.56	226.38
394.94	226.41
395.31	226.39
395.69	226.44
396.06	226.50
396.44	226.52
396.82	226.52
397.19	226.60
397.57	226.62
397.95	226.67
398.32	226.68
398.70	226.76
399.07	226.85
399.45	226.93
399.82	226.97
400.20	227.01
400.58	227.11
400.95	227.15
401.33	227.25
401.70	227.40
402.08	227.51
402.45	227.60
402.83	227.72
403.20	227.88
403.58	227.98
403.95	228.11
404.33	228.25
404.71	228.40
405.08	228.59
405.46	228.75
405.83	228.93
406.21	229.13
406.58	229.30
406.96	229.45
407.33	229.62
407.70	229.88
408.08	230.15
408.45	230.36
408.83	230.57
409.20	230.79
409.58	230.97
409.95	231.23
410.33	231.48
410.70	231.73
411.08	232.00
411.45	232.31
411.82	232.60
412.20	232.96
412.57	233.37
412.95	233.68
413.32	234.09
413.69	234.47
414.07	234.88
414.44	235.36
414.82	235.84
415.19	236.40
415.56	236.92
415.94	237.47
416.31	238.10
416.68	238.76
417.06	239.48
417.43	240.17
417.81	240.96
418.18	241.79
418.55	242.64
418.93	243.55
419.30	244.46
419.67	245.40
420.04	246.36
420.42	247.38
420.79	248.55
421.16	249.73
421.54	250.92
421.91	252.14
422.28	253.38
422.66	254.69
423.03	256.01
423.40	257.33
423.77	258.76
424.15	260.20
424.52	261.71
424.89	263.32
425.26	264.86
425.64	266.30
426.01	267.87
426.38	269.51
426.75	271.20
427.13	272.91
427.50	274.71
427.87	276.62
428.24	278.52
428.61	280.29
428.99	282.22
429.36	284.36
429.73	286.43
430.10	288.45
430.47	290.56
430.85	292.66
431.22	294.87
431.59	297.20
431.96	299.43
432.33	301.89
432.70	304.26
433.08	307.09
433.45	309.70
433.82	312.30
434.19	315.22
434.56	318.02
434.93	320.61
435.30	323.25
435.68	326.15
436.05	328.94
436.42	331.72
436.79	334.25
437.16	336.95
437.53	339.81
437.90	342.61
438.27	345.36
438.64	348.21
439.01	350.86
439.38	353.17
439.75	355.36
440.13	357.91
440.50	360.28
440.87	362.12
441.24	364.06
441.61	366.26
441.98	367.72
442.35	369.54
442.72	371.47
443.09	373.30
443.46	374.28
443.83	374.85
444.20	375.34
444.57	376.13
444.94	376.37
445.31	376.71
445.68	377.08
446.05	377.09
446.42	376.69
446.79	376.25
447.16	375.76
447.53	375.39
447.90	374.14
448.27	372.94
448.64	371.34
449.01	370.20
449.37	368.19
449.74	366.30
450.11	364.06
450.48	361.56
450.85	358.97
451.22	356.81
451.59	354.80
451.96	352.90
452.33	350.34
452.70	347.96
453.07	345.08
453.43	342.16
453.80	339.42
454.17	336.73
454.54	334.18
454.91	331.46
455.28	328.82
455.65	326.34
456.02	323.90
456.38	321.76
456.75	319.11
457.12	316.85
457.49	314.61
457.86	312.38
458.23	310.55
458.59	308.53
458.96	306.43
459.33	304.55
459.70	302.61
460.07	301.09
460.43	299.35
460.80	297.77
461.17	296.34
461.54	294.84
461.91	293.41
462.27	291.97
462.64	290.70
463.01	289.35
463.38	288.06
463.74	286.65
464.11	285.48
464.48	284.47
464.85	283.38
465.21	282.50
465.58	281.61
465.95	280.52
466.32	279.59
466.68	278.66
467.05	277.76
467.42	276.88
467.78	275.96
468.15	275.15
468.52	274.48
468.88	273.57
469.25	272.80
469.62	272.19
469.98	271.49
470.35	270.86
470.72	270.26
471.08	269.60
471.45	269.09
471.82	268.55
472.18	267.94
472.55	267.50
472.92	266.97
473.28	266.49
473.65	265.99
474.02	265.58
474.38	265.26
474.75	264.95
475.11	264.60
475.48	264.33
475.85	264.04
476.21	263.77
476.58	263.62
476.94	263.47
477.31	263.30
477.67	263.17
478.04	263.07
478.41	263.01
478.77	263.06
479.14	262.99
479.50	262.97
479.87	263.03
480.23	263.12
480.60	263.19
480.96	263.27
481.33	263.50
481.69	263.68
482.06	263.85
482.42	264.02
482.79	264.32
483.15	264.64
483.52	265.01
483.88	265.35
484.25	265.71
484.61	266.14
484.98	266.56
485.34	267.07
485.71	267.66
486.07	268.23
486.44	268.76
486.80	269.48
487.17	270.20
487.53	271.01
487.90	271.84
488.26	272.80
488.62	273.80
488.99	274.76
489.35	275.79
489.72	276.96
490.08	278.17
490.44	279.38
490.81	280.69
491.17	282.04
491.54	283.56
491.90	285.12
492.26	286.74
492.63	288.50
492.99	290.33
493.36	292.23
493.72	294.33
494.08	296.48
494.45	298.73
494.81	301.15
495.17	303.58
495.54	306.14
495.90	308.83
496.26	311.61
496.63	314.61
496.99	317.71
497.35	320.93
497.72	324.35
498.08	327.86
498.44	331.58
498.80	335.52
499.17	339.50
499.53	343.67
499.89	348.10
500.26	352.63
500.62	357.31
500.98	362.29
501.34	367.38
501.71	372.73
502.07	378.19
502.43	383.78
502.79	389.62
503.16	395.76
503.52	402.03
503.88	408.43
504.24	415.05
504.60	421.97
504.97	429.15
505.33	436.50
505.69	444.25
506.05	451.97
506.41	459.86
506.78	468.09
507.14	476.55
507.50	485.26
507.86	494.28
508.22	503.45
508.59	512.64
508.95	522.23
509.31	531.94
509.67	542.03
510.03	552.34
510.39	562.93
510.75	573.68
511.12	584.58
511.48	595.88
511.84	607.35
512.20	618.89
512.56	630.80
512.92	642.95
513.28	655.33
513.64	667.88
514.00	680.64
514.37	693.55
514.73	706.65
515.09	719.70
515.45	732.97
515.81	746.56
516.17	760.55
516.53	774.63
516.89	788.93
517.25	803.18
517.61	817.58
517.97	832.03
518.33	846.58
518.69	861.47
519.05	876.58
519.41	891.92
519.77	907.54
520.13	923.05
520.49	938.55
520.85	953.96
521.21	969.73
521.57	986.10
521.93	1002.00
522.29	1018.35
522.65	1034.66
523.01	1051.01
523.37	1067.15
523.73	1083.43
524.09	1099.61
524.45	1115.98
524.81	1132.64
525.17	1149.63
525.53	1166.61
525.89	1183.59
526.25	1200.33
526.61	1216.76
526.97	1233.45
527.33	1249.94
527.68	1266.61
528.04	1283.08
528.40	1299.78
528.76	1316.87
529.12	1333.37
529.48	1350.31
529.84	1366.51
530.20	1383.16
530.56	1400.28
530.91	1417.78
531.27	1434.63
531.63	1451.09
531.99	1467.88
532.35	1483.85
532.71	1499.70
533.07	1516.09
533.42	1531.98
533.78	1548.22
534.14	1564.54
534.50	1579.86
534.86	1595.74
535.21	1611.04
535.57	1627.09
535.93	1642.55
536.29	1657.39
536.65	1672.72
537.00	1687.56
537.36	1702.76
537.72	1717.31
538.08	1731.64
538.44	1745.47
538.79	1759.22
539.15	1773.04
539.51	1786.64
539.87	1800.93
540.22	1814.72
540.58	1828.43
540.94	1841.77
541.29	1854.72
541.65	1867.38
542.01	1880.71
542.37	1893.10
542.72	1905.44
543.08	1917.07
543.44	1929.57
543.79	1940.85
544.15	1951.76
544.51	1963.34
544.87	1974.46
545.22	1985.31
545.58	1995.68
545.94	2005.47
546.29	2015.52
546.65	2025.26
547.01	2034.62
547.36	2043.62
547.72	2052.20
548.07	2060.22
548.43	2068.41
548.79	2076.49
549.14	2084.19
549.50	2091.76
549.86	2099.53
550.21	2107.02
550.57	2114.38
550.92	2121.14
551.28	2128.36
551.64	2135.32
551.99	2141.79
552.35	2147.98
552.70	2154.22
553.06	2160.25
553.41	2166.65
553.77	2172.73
554.13	2178.92
554.48	2185.05
554.84	2190.47
555.19	2195.68
555.55	2200.78
555.90	2205.23
556.26	2210.07
556.61	2214.79
556.97	2218.91
557.32	2223.01
557.68	2227.17
558.03	2231.51
558.39	2235.07
558.74	2239.55
559.10	2243.53
559.45	2247.33
559.81	2251.62
560.16	2255.45
560.52	2258.63
560.87	2262.16
561.23	2264.75
561.58	2267.75
561.94	2270.24
562.29	2272.67
562.64	2275.44
563.00	2278.01
563.35	2281.62
563.71	2284.80
564.06	2287.83
564.42	2290.70
564.77	2293.29
565.12	2295.53
565.48	2297.24
565.83	2299.02
566.19	2300.33
566.54	2301.23
566.89	2302.45
567.25	2303.04
567.60	2304.42
567.96	2306.15
568.31	2306.66
568.66	2307.60
569.02	2308.19
569.37	2308.39
569.72	2309.19
570.08	2309.30
570.43	2309.31
570.78	2308.59
571.14	2306.92
571.49	2305.53
571.84	2305.08
572.20	2303.78
572.55	2302.58
572.90	2300.97
573.26	2299.65
573.61	2297.77
573.96	2295.93
574.31	2292.77
574.67	2289.55
575.02	2285.68
575.37	2282.04
575.72	2278.32
576.08	2275.03
576.43	2271.63
576.78	2268.00
577.13	2264.59
577.49	2261.53
577.84	2257.92
578.19	2254.06
578.54	2250.35
578.90	2246.04
579.25	2240.41
579.60	2235.48
579.95	2230.44
580.30	2225.46
580.66	2220.03
581.01	2215.09
581.36	2210.04
581.71	2205.73
582.06	2201.37
582.42	2196.98
582.77	2191.61
583.12	2186.83
583.47	2182.05
583.82	2176.90
584.17	2171.56
584.53	2166.05
584.88	2160.22
585.23	2154.29
585.58	2148.81
585.93	2143.25
586.28	2138.58
586.63	2133.38
586.98	2128.07
587.34	2123.34
587.69	2118.37
588.04	2113.14
588.39	2107.46
588.74	2100.88
589.09	2094.57
589.44	2087.64
589.79	2081.56
590.14	2076.00
590.49	2069.50
590.84	2062.90
591.19	2056.73
591.54	2050.20
591.89	2042.79
592.25	2035.79
592.60	2028.67
592.95	2020.98
593.30	2013.58
593.65	2005.77
594.00	1998.76
594.35	1991.50
594.70	1983.25
595.05	1975.98
595.40	1968.59
595.75	1961.01
596.10	1954.70
596.45	1947.95
596.80	1941.74
597.15	1934.96
597.50	1927.86
597.85	1921.31
598.19	1914.80
598.54	1907.81
598.89	1901.14
599.24	1895.26
599.59	1888.63
599.94	1882.27
600.29	1876.06
600.64	1869.41
600.99	1862.02
601.34	1855.04
601.69	1847.96
602.04	1841.01
602.39	1833.59
602.74	1826.83
603.08	1820.18
603.43	1813.50
603.78	1806.16
604.13	1798.91
604.48	1791.67
604.83	1784.75
605.18	1777.82
605.53	1769.71
605.87	1761.45
606.22	1754.12
606.57	1745.85
606.92	1738.43
607.27	1731.14
607.62	1724.10
607.96	1716.71
608.31	1710.09
608.66	1702.52
609.01	1694.91
609.36	1687.39
609.70	1679.34
610.05	1671.19
610.40	1663.32
610.75	1654.93
611.10	1647.15
611.44	1638.73
611.79	1630.68
612.14	1621.91
612.49	1612.70
612.83	1604.34
613.18	1596.24
613.53	1588.14
613.88	1579.81
614.22	1571.60
614.57	1563.15
614.92	1555.10
615.27	1547.55
615.61	1539.16
615.96	1531.21
616.31	1523.71
616.65	1516.33
617.00	1508.79
617.35	1501.09
617.70	1492.74
618.04	1484.22
618.39	1476.00
618.74	1468.36
619.08	1460.01
619.43	1452.44
619.78	1445.55
620.12	1438.39
620.47	1430.89
620.82	1422.66
621.16	1415.19
621.51	1407.47
621.85	1399.84
622.20	1391.34
622.55	1383.16
622.89	1375.28
623.24	1367.66
623.59	1360.15
623.93	1352.65
624.28	1345.37
624.62	1337.86
624.97	1330.66
625.32	1323.95
625.66	1317.02
626.01	1309.88
626.35	1302.45
626.70	1294.77
627.04	1287.01
627.39	1279.23
627.73	1271.83
628.08	1265.04
628.43	1257.82
628.77	1250.49
629.12	1242.87
629.46	1235.65
629.81	1228.17
630.15	1220.94
630.50	1213.37
630.84	1205.24
631.19	1197.34
631.53	1189.97
631.88	1182.43
632.22	1174.85
632.57	1167.59
632.91	1160.10
633.26	1152.70
633.60	1145.24
633.95	1138.12
634.29	1131.13
634.64	1124.43
634.98	1117.06
635.32	1109.89
635.67	1103.25
636.01	1096.61
636.36	1089.90
636.70	1083.43
637.05	1076.91
637.39	1070.48
637.73	1064.06
638.08	1058.17
638.42	1052.12
638.77	1045.60
639.11	1038.95
639.45	1032.62
639.80	1025.88
640.14	1019.39
640.49	1012.86
640.83	1006.61
641.17	1000.32
641.52	993.91
641.86	987.45
642.20	981.61
642.55	975.28
642.89	968.83
643.23	962.24
643.58	956.42
643.92	950.08
644.26	943.90
644.61	937.90
644.95	931.94
645.29	925.37
645.64	918.67
645.98	912.31
646.32	906.51
646.66	900.50
647.01	894.69
647.35	889.07
647.69	883.19
648.04	877.65
648.38	871.93
648.72	865.94
649.06	859.95
649.41	854.09
649.75	848.13
650.09	842.12
650.43	836.33
650.78	830.15
651.12	824.25
651.46	818.51
651.80	812.74
652.14	807.27
652.49	801.95
652.83	796.79
653.17	791.09
653.51	785.31
653.85	779.85
654.20	774.20
654.54	768.09
654.88	762.33
655.22	756.42
655.56	750.67
655.90	745.24
656.25	739.94
656.59	734.57
656.93	729.47
657.27	724.33
657.61	718.89
657.95	713.81
658.29	708.67
658.64	703.41
658.98	698.09
659.32	692.61
659.66	687.30
660.00	682.00
660.34	677.06
660.68	672.27
661.02	667.21
661.36	662.56
661.70	658.16
662.05	653.87
662.39	649.59
662.73	645.11
663.07	640.69
663.41	636.21
663.75	631.69
664.09	627.12
664.43	622.74
664.77	618.66
665.11	614.37
665.45	610.27
665.79	606.24
666.13	602.06
666.47	597.99
666.81	593.92
667.15	589.75
667.49	585.89
667.83	582.00
668.17	578.10
668.51	573.97
668.85	569.94
669.19	566.06
669.53	562.24
669.87	558.41
670.21	554.70
670.55	551.08
670.89	547.69
671.23	544.27
671.57	540.77
671.91	537.29
672.25	533.85
672.58	530.36
672.92	526.99
673.26	523.88
673.60	520.77
673.94	517.64
674.28	514.71
674.62	511.76
674.96	508.69
675.30	505.77
675.64	502.91
675.97	500.15
676.31	497.29
676.65	494.36
676.99	491.66
677.33	488.83
677.67	486.05
678.01	482.95
678.34	479.97
678.68	477.11
679.02	474.25
679.36	471.52
679.70	468.84
680.04	466.08
680.37	463.19
680.71	460.38
681.05	457.79
681.39	455.15
681.73	452.53
682.06	450.02
682.40	447.47
682.74	444.98
683.08	442.40
683.42	439.79
683.75	437.26
684.09	434.66
684.43	432.23
684.77	429.75
685.10	427.44
685.44	425.16
685.78	422.84
686.12	420.63
686.45	418.35
686.79	416.05
687.13	413.82
687.46	411.69
687.80	409.52
688.14	407.31
688.48	405.20
688.81	402.89
689.15	400.76
689.49	398.63
689.82	396.52
690.16	394.43
690.50	392.45
690.83	390.53
691.17	388.57
691.51	386.65
691.84	384.80
692.18	382.90
692.52	380.91
692.85	379.01
693.19	377.13
693.52	375.27
693.86	373.48
694.20	371.68
694.53	369.90
694.87	368.07
695.21	366.28
695.54	364.46
695.88	362.76
696.21	360.97
696.55	359.27
696.88	357.58
697.22	355.91
697.56	354.35
697.89	352.66
698.23	351.04
698.56	349.43
698.90	347.88
699.23	346.20
699.57	344.67
699.90	343.10
700.24	341.52
700.58	339.99
700.91	338.48
701.25	337.03
701.58	335.69
701.92	334.34
702.25	332.90
702.59	331.58
702.92	330.26
703.26	329.00
703.59	327.72
703.93	326.49
704.26	325.27
704.60	323.97
704.93	322.74
705.26	321.54
705.60	320.38
705.93	319.18
706.27	318.21
706.60	317.18
706.94	316.14
707.27	315.05
707.61	314.02
707.94	312.96
708.27	311.85
708.61	310.79
708.94	309.83
709.28	308.91
709.61	307.92
709.94	306.98
710.28	305.93
710.61	305.00
710.95	303.98
711.28	303.08
711.61	302.12
711.95	301.23
712.28	300.30
712.61	299.32
712.95	298.38
713.28	297.46
713.61	296.56
713.95	295.66
714.28	294.82
714.61	293.90
714.95	293.12
715.28	292.36
715.61	291.45
715.95	290.56
716.28	289.75
716.61	288.93
716.95	288.11
717.28	287.40
717.61	286.65
717.94	285.93
718.28	285.13
718.61	284.43
718.94	283.77
719.27	283.10
719.61	282.46
719.94	281.81
720.27	281.11
720.60	280.43
720.94	279.80
721.27	279.19
721.60	278.66
721.93	278.06
722.27	277.48
722.60	276.98
722.93	276.40
723.26	275.86
723.59	275.32
723.93	274.80
724.26	274.25
724.59	273.69
724.92	273.14
725.25	272.64
725.59	272.11
725.92	271.54
726.25	271.04
726.58	270.53
726.91	270.06
727.24	269.60
727.57	269.16
727.91	268.64
728.24	268.14
728.57	267.64
728.90	267.13
729.23	266.63
729.56	266.20
729.89	265.75
730.22	265.23
730.55	264.75
730.89	264.32
731.22	263.86
731.55	263.41
731.88	262.99
732.21	262.53
732.54	262.07
732.87	261.64
733.20	261.21
733.53	260.81
733.86	260.44
734.19	260.04
734.52	259.66
734.85	259.38
735.18	258.98
735.51	258.62
735.84	258.25
736.17	257.91
736.50	257.49
736.83	257.25
737.16	256.91
737.49	256.56
737.82	256.17
738.15	255.85
738.48	255.51
738.81	255.15
739.14	254.85
739.47	254.54
739.80	254.26
740.13	254.01
740.46	253.69
740.79	253.35
741.12	253.05
741.45	252.74
741.78	252.36
742.11	252.09
742.44	251.74
742.77	251.46
743.10	251.14
743.43	250.85
743.75	250.45
744.08	250.35
744.41	250.10
744.74	249.83
745.07	249.56
745.40	249.31
745.73	249.08
746.06	248.82
746.39	248.59
746.71	248.34
747.04	248.05
747.37	247.81
747.70	247.57
748.03	247.29
748.36	247.08
748.68	246.87
749.01	246.63
749.34	246.43
749.67	246.20
750.00	246.01
750.33	245.85
750.65	245.63
750.98	245.26
751.31	245.02
751.64	244.82
751.97	244.66
752.29	244.44
752.62	244.17
752.95	243.94
753.28	243.70
753.60	243.50
753.93	243.32
754.26	243.12
754.59	242.92
754.91	242.73
755.24	242.52
755.57	242.28
755.90	242.13
756.22	241.95
756.55	241.78
756.88	241.57
757.20	241.36
757.53	241.18
757.86	241.02
758.19	240.87
758.51	240.73
758.84	240.53
759.17	240.36
759.49	240.27
759.82	240.16
760.15	240.03
760.47	239.86
760.80	239.70
761.13	239.55
761.45	239.37
761.78	239.21
762.11	239.06
762.43	238.93
762.76	238.77
763.08	238.66
763.41	238.52
763.74	238.38
764.06	238.23
764.39	238.10
764.71	237.93
765.04	237.79
765.37	237.61
765.69	237.46
766.02	237.33
766.34	237.13
766.67	236.97
767.00	236.86
767.32	236.78
767.65	236.70
767.97	236.57
768.30	236.49
768.62	236.37
768.95	236.24
769.27	236.14
769.60	236.00
769.92	235.85
770.25	235.68
770.57	235.59
770.90	235.48
771.22	235.34
771.55	235.29
771.87	235.19
772.20	235.08
772.52	235.05
772.85	235.10
773.17	235.02
773.50	234.93
773.82	234.81
774.15	234.67
774.47	234.51
774.80	234.41
775.12	234.28
775.45	234.22
775.77	234.15
776.09	234.07
776.42	234.00
776.74	233.93
777.07	233.89
777.39	233.80
777.72	233.72
778.04	233.70
778.36	233.59
778.69	233.52
779.01	233.51
779.33	233.35
779.66	233.13
779.98	233.09
780.31	233.03
780.63	232.97
780.95	232.92
781.28	232.83
781.60	232.77
781.92	232.71
782.25	232.66
782.57	232.61
782.89	232.55
783.22	232.48
783.54	232.39
783.86	232.34
784.19	232.26
784.51	232.23
784.83	232.13
785.16	232.04
785.48	231.98
785.80	231.88
786.12	231.85
786.45	231.83
786.77	231.78
787.09	231.73
787.42	231.70
787.74	231.68
788.06	231.67
788.38	231.63
788.71	231.63
789.03	231.59
789.35	231.53
789.67	231.50
789.99	231.50
790.32	231.49
790.64	231.45
790.96	231.50
791.28	231.44
791.61	231.38
791.93	231.38
792.25	231.36
792.57	231.39
792.89	231.35
793.21	231.30
793.54	231.30
793.86	231.24
794.18	231.21
794.50	231.18
794.82	231.11
795.14	231.09
795.47	231.09
795.79	231.04
796.11	230.99
796.43	230.96
796.75	230.92
797.07	230.91
797.39	230.90
797.71	230.83
798.04	230.79
798.36	230.81
798.68	230.79
799.00	230.77
799.32	230.70
799.64	230.71
799.96	230.70
800.28	230.66
800.60	230.65
800.92	230.64
801.24	230.61
801.56	230.60
801.89	230.57
802.21	230.52
802.53	230.47
802.85	230.49
803.17	230.50
803.49	230.47
803.81	230.43
804.13	230.39
804.45	230.36
804.77	230.37
805.09	230.33
805.41	230.30
805.73	230.25
806.05	230.19
806.37	230.13
806.69	230.05
807.01	230.03
807.33	229.99
807.65	229.93
807.97	229.93
808.28	229.91
808.60	229.90
808.92	229.85
809.24	229.86
809.56	229.80
809.88	229.68
810.20	229.65
810.52	229.63
810.84	229.56
811.16	229.49
811.48	229.42
811.80	229.41
812.12	229.34
812.43	229.33
812.75	229.32
813.07	229.23
813.39	229.23
813.71	229.14
814.03	229.09
814.35	229.04
814.67	228.98
814.98	228.93
815.30	228.85
815.62	228.83
815.94	228.75
816.26	228.77
816.58	228.71
816.89	228.70
817.21	228.60
817.53	228.59
817.85	228.59
818.17	228.58
818.48	228.54
818.80	228.54
819.12	228.50
819.44	228.46
819.76	228.46
820.07	228.44
820.39	228.43
820.71	228.41
821.03	228.41
821.34	228.37
821.66	228.38
821.98	228.41
822.30	228.35
822.61	228.37
822.93	228.33
823.25	228.34
823.57	228.30
823.88	228.33
824.20	228.32
824.52	228.31
824.83	228.31
825.15	228.29
825.47	228.27
825.79	228.26
826.10	228.25
826.42	228.21
826.74	228.23
827.05	228.23
827.37	228.24
827.69	228.23
828.00	228.23
828.32	228.21
828.64	228.16
828.95	228.23
829.27	228.24
829.58	228.18
829.90	228.22
830.22	228.24
830.53	228.23
830.85	228.20
831.17	228.17
831.48	228.12
831.80	228.11
832.11	228.09
832.43	228.06
832.75	228.07
833.06	228.13
833.38	228.10
833.69	228.10
834.01	228.09
834.32	228.09
834.64	228.08
834.96	228.09
835.27	228.09
835.59	228.06
835.90	228.00
836.22	228.03
836.53	228.01
836.85	227.97
837.16	228.07
837.48	228.07
837.79	228.09
838.11	228.14
838.42	228.12
838.74	228.13
839.05	228.15
839.37	228.15
839.68	228.14
840.00	228.14
840.31	228.11
840.63	228.12
840.94	228.10
841.26	228.09
841.57	228.07
841.88	228.08
842.20	228.07
842.51	228.08
842.83	228.08
843.14	228.13
843.46	228.16
843.77	228.10
844.08	228.07
844.40	228.01
844.71	227.98
845.03	227.98
845.34	227.99
845.65	227.97
845.97	227.98
846.28	227.95
846.60	227.93
846.91	227.91
847.22	227.85
847.54	227.87
847.85	227.88
848.16	227.87
848.48	227.85
848.79	227.89
849.10	227.86
849.42	227.85
849.73	227.75
850.04	227.70
850.36	227.66
850.67	227.65
850.98	227.68
851.30	227.69
851.61	227.69
851.92	227.67
852.23	227.68
852.55	227.65
852.86	227.63
853.17	227.63
853.49	227.66
853.80	227.70
854.11	227.68
854.42	227.68
854.74	227.64
855.05	227.62
855.36	227.55
855.67	227.58
855.99	227.56
856.30	227.67
856.61	227.70
856.92	227.69
857.23	227.72
857.55	227.68
857.86	227.65
858.17	227.66
858.48	227.66
858.79	227.65
859.11	227.64
859.42	227.67
859.73	227.66
860.04	227.65
860.35	227.58
860.66	227.57
860.98	227.57
861.29	227.58
861.60	227.58
861.91	227.57
862.22	227.53
862.53	227.53
862.84	227.40
863.16	227.43
863.47	227.41
863.78	227.40
864.09	227.42
864.40	227.43
864.71	227.39
865.02	227.41
865.33	227.41
865.64	227.43
865.95	227.42
866.27	227.48
866.58	227.51
866.89	227.54
867.20	227.55
867.51	227.53
867.82	227.52
868.13	227.56
868.44	227.55
868.75	227.62
869.06	227.64
869.37	227.70
869.68	227.66
869.99	227.67
870.30	227.69
870.61	227.72
870.92	227.70
871.23	227.72
871.54	227.69
871.85	227.73
872.16	227.72
872.47	227.72
872.78	227.70
873.09	227.66
873.40	227.65
873.71	227.66
874.02	227.68
874.33	227.68
874.64	227.65
874.95	227.68
875.26	227.63
875.56	227.59
875.87	227.59
876.18	227.57
876.49	227.65
876.80	227.61
877.11	227.57
877.42	227.61
877.73	227.61
878.04	227.62
878.35	227.60
878.66	227.63
878.96	227.58
879.27	227.54
879.58	227.55
879.89	227.51
880.20	227.55
880.51	227.53
880.82	227.53
881.12	227.53
881.43	227.52
881.74	227.50
882.05	227.50
882.36	227.53
882.67	227.55
882.97	227.42
883.28	227.43
883.59	227.42
883.90	227.41
884.21	227.41
884.51	227.40
884.82	227.34
885.13	227.34
885.44	227.38
885.74	227.38
886.05	227.38
886.36	227.39
886.67	227.34
886.98	227.35
887.28	227.35
887.59	227.38
887.90	227.36
888.20	227.36
888.51	227.38
888.82	227.33
889.13	227.32
889.43	227.43
889.74	227.41
890.05	227.44
890.35	227.42
890.66	227.40
890.97	227.38
891.28	227.39
891.58	227.36
891.89	227.33
892.20	227.31
892.50	227.28
892.81	227.32
893.12	227.32
893.42	227.29
893.73	227.27
894.04	227.26
894.34	227.28
894.65	227.27
894.95	227.26
895.26	227.26
895.57	227.28
895.87	227.18
896.18	227.20
896.48	227.20
896.79	227.19
897.10	227.19
897.40	227.19
897.71	227.21
898.01	227.22
898.32	227.21
898.63	227.22
898.93	227.24
899.24	227.23
899.54	227.22
899.85	227.20
900.15	227.26
900.46	227.22
900.76	227.23
901.07	227.24
901.38	227.22
901.68	227.25
901.99	227.22
902.29	227.26
902.60	227.24
902.90	227.25
903.21	227.26
903.51	227.27
903.82	227.30
904.12	227.31
904.43	227.30
904.73	227.33
905.03	227.34
905.34	227.44
905.64	227.40
905.95	227.40
906.25	227.40
906.56	227.37
906.86	227.37
907.17	227.33
907.47	227.34
907.77	227.34
908.08	227.31
908.38	227.31
908.69	227.29
908.99	227.32
909.30	227.28
909.60	227.29
909.90	227.26
910.21	227.19
910.51	227.18
910.81	227.19
911.12	227.19
911.42	227.19
911.73	227.07
912.03	227.07
912.33	227.10
912.64	227.10
912.94	227.07
913.24	227.09
913.55	227.11
913.85	227.08
914.15	227.13
914.46	227.12
914.76	227.11
915.06	227.09
915.37	227.04
915.67	227.03
915.97	227.00
916.27	227.02
916.58	227.07
916.88	227.07
917.18	227.01
917.49	227.08
917.79	227.07
918.09	227.09
918.39	227.14
918.70	227.15
919.00	227.13
919.30	227.21
919.60	227.17
919.91	227.15
920.21	227.17
920.51	227.12
920.81	227.12
921.12	227.15
921.42	227.14
921.72	227.18
922.02	227.21
922.32	227.24
922.63	227.23
922.93	227.23
923.23	227.21
923.53	227.24
923.83	227.17
924.13	227.18
924.44	227.17
924.74	227.18
925.04	227.17
925.34	227.18
925.64	227.15
925.94	227.15
926.24	227.21
926.55	227.19
926.85	227.20
927.15	227.22
927.45	227.20
927.75	227.24
928.05	227.25
928.35	227.25
928.65	227.26
928.95	227.27
929.26	227.26
929.56	227.28
929.86	227.28
930.16	227.27
930.46	227.24
930.76	227.28
931.06	227.24
931.36	227.19
931.66	227.21
931.96	227.20
932.26	227.22
932.56	227.20
932.86	227.23
933.16	227.25
933.46	227.24
933.76	227.22
934.06	227.22
934.36	227.23
934.66	227.19
934.96	227.18
935.26	227.18
935.56	227.22
935.86	227.20
936.16	227.19
936.46	227.17
936.76	227.18
937.06	227.17
937.36	227.17
937.66	227.21
937.96	227.18
938.26	227.19
938.56	227.19
938.86	227.16
939.16	227.16
939.46	227.18
939.76	227.14
940.06	227.14
940.35	227.11
940.65	227.07
940.95	227.13
941.25	227.14
941.55	227.16
941.85	227.14
942.15	227.16
942.45	227.17
942.75	227.21
943.04	227.21
943.34	227.23
943.64	227.18
943.94	227.18
944.24	227.20
944.54	227.17
944.84	227.16
945.13	227.15
945.43	227.13
945.73	227.11
946.03	227.16
946.33	227.16
946.62	227.17
946.92	227.14
947.22	227.14
947.52	227.10
947.82	227.10
948.11	227.08
948.41	227.07
948.71	227.09
949.01	227.07
949.31	227.07
949.60	227.07
949.90	227.10
950.20	227.04
950.50	227.01
950.79	227.05
951.09	227.06
951.39	227.07
951.69	227.06
951.98	227.08
952.28	227.06
952.58	227.05
952.87	227.05
953.17	227.07
953.47	227.07
953.76	227.06
954.06	227.03
954.36	227.00
954.66	226.97
954.95	226.96
955.25	226.97
955.55	226.97
955.84	226.93
956.14	226.93
956.44	226.97
956.73	227.00
957.03	227.00
957.32	227.00
957.62	226.99
957.92	227.02
958.21	227.03
958.51	227.12
958.81	227.15
959.10	227.15
959.40	227.19
959.69	227.19
959.99	227.23
960.29	227.24
960.58	227.24
960.88	227.27
961.17	227.27
961.47	227.27
961.76	227.24
962.06	227.27
962.36	227.25
962.65	227.25
962.95	227.25
963.24	227.21
963.54	227.21
963.83	227.24
964.13	227.23
964.42	227.19
964.72	227.12
965.01	227.09
965.31	227.09
965.60	227.07
965.90	227.12
966.19	227.08
966.49	227.08
966.78	227.10
967.08	227.12
967.37	227.12
967.67	227.13
967.96	227.17
968.26	227.14
968.55	227.16
968.85	227.14
969.14	227.12
969.43	227.16
969.73	227.15
970.02	227.14
970.32	227.14
970.61	227.14
970.91	227.09
971.20	227.12
971.49	227.11
971.79	227.12
972.08	227.07
972.38	227.09
972.67	227.07
972.96	227.11
973.26	227.09
973.55	227.13
973.85	227.11
974.14	227.11
974.43	227.16
974.73	227.13
975.02	227.16
975.31	227.17
975.61	227.14
975.90	227.15
976.19	227.15
976.49	227.15
976.78	227.16
977.07	227.21
977.37	227.21
977.66	227.21
977.95	227.19
978.24	227.18
978.54	227.21
978.83	227.22
979.12	227.19
979.42	227.22
979.71	227.17
980.00	227.16
980.29	227.16
980.59	227.12
980.88	227.15
981.17	227.11
981.46	227.11
981.76	227.14
982.05	227.16
982.34	227.15
982.63	227.14
982.93	227.12
983.22	227.11
983.51	227.10
983.80	227.13
984.09	227.16
984.39	227.16
984.68	227.13
984.97	227.14
985.26	227.13
985.55	227.12
985.85	227.13
986.14	227.15
986.43	227.16
986.72	227.15
987.01	227.16
987.30	227.15
987.59	227.15
987.89	227.17
988.18	227.12
988.47	227.12
988.76	227.12
989.05	227.12
989.34	227.14
989.63	227.16
989.92	227.11
990.22	227.06
990.51	227.03
990.80	227.01
991.09	227.00
991.38	227.02
991.67	226.99
991.96	226.96
992.25	226.94
992.54	226.93
992.83	226.94
993.12	226.87
993.41	226.88
993.70	226.91
993.99	226.90
994.28	226.89
994.58	226.86
994.87	226.83
995.16	226.83
995.45	226.83
995.74	226.81
996.03	226.82
996.32	226.87
996.61	226.87
996.90	226.89
997.19	226.88
997.48	226.85
997.77	226.84
998.06	226.86
998.34	226.87
998.63	226.86
998.92	226.86
999.21	226.93
999.50	226.94
999.79	226.90
1000.08	226.88
1000.37	226.89
1000.66	226.91
1000.95	226.95
1001.24	226.94
1001.53	226.94
1001.82	226.94
1002.11	226.92
1002.40	226.90
1002.68	226.99
1002.97	227.06
1003.26	227.05
1003.55	227.06
1003.84	227.06
1004.13	227.12
1004.42	227.11
1004.71	227.12
1004.99	227.14
1005.28	227.14
1005.57	227.16
1005.86	227.16
1006.15	227.18
1006.44	227.16
1006.72	227.19
1007.01	227.15
1007.30	227.15
1007.59	227.13
1007.88	227.13
1008.17	227.15
1008.45	227.17
1008.74	227.11
1009.03	227.05
1009.32	227.07
1009.60	227.06
1009.89	227.07
1010.18	226.99
1010.47	226.97
1010.76	226.98
1011.04	226.99
1011.33	226.97
1011.62	226.97
1011.91	226.98
1012.19	226.97
1012.48	227.00
1012.77	227.00
1013.05	227.07
1013.34	227.08
1013.63	227.09
1013.92	227.09
1014.20	227.10
1014.49	227.08
1014.78	227.12
1015.06	227.09
1015.35	227.08
1015.64	227.11
1015.92	227.13
1016.21	227.15
1016.50	227.17
1016.78	227.15
1017.07	227.13
1017.36	227.11
1017.64	227.10
1017.93	227.10
1018.22	227.10
1018.50	227.13
1018.79	227.10
1019.08	227.06
1019.36	227.08
1019.65	227.08
1019.93	227.11
1020.22	227.08
1020.51	227.13
1020.79	227.11
1021.08	226.91
1021.36	227.47
1021.65	226.78
1021.94	227.25
1022.22	227.27
1022.51	227.21
1022.79	227.54
1023.08	226.81
1023.36	228.07
1023.65	226.95
>>>>>End Processed Spectral Data<<<<<
