SpectraSuite Data File
++++++++++++++++++++++++++++++++++++
Date: Fri Feb 01 15:50:53 EST 2013
User: group
Dark Spectrum Present: No
Reference Spectrum Present: No
Number of Sampled Component Spectra: 1
Spectrometers: USB2E7196
Integration Time (usec): 35000 (USB2E7196)
Spectra Averaged: 100 (USB2E7196)
Boxcar Smoothing: 10 (USB2E7196)
Correct for Electrical Dark: No (USB2E7196)
Strobe/Lamp Enabled: No (USB2E7196)
Correct for Detector Non-linearity: No (USB2E7196)
Correct for Stray Light: No (USB2E7196)
Number of Pixels in Processed Spectrum: 2048
>>>>>Begin Processed Spectral Data<<<<<
339.09	0.00
339.48	215.26
339.86	216.78
340.24	218.00
340.63	219.21
341.01	221.97
341.39	221.52
341.78	222.71
342.16	224.67
342.54	224.62
342.93	213.35
343.31	224.14
343.69	224.70
344.07	225.18
344.46	225.59
344.84	225.95
345.22	226.19
345.60	226.49
345.99	226.72
346.37	226.82
346.75	226.92
347.13	226.99
347.52	227.03
347.90	227.09
348.28	227.07
348.66	227.10
349.05	227.10
349.43	227.14
349.81	227.15
350.19	227.17
350.57	227.24
350.96	227.32
351.34	227.37
351.72	227.40
352.10	227.47
352.48	227.53
352.87	227.61
353.25	227.65
353.63	227.69
354.01	227.75
354.39	227.82
354.77	227.91
355.15	227.97
355.54	228.04
355.92	228.06
356.30	228.16
356.68	228.29
357.06	228.34
357.44	228.37
357.82	228.47
358.20	228.58
358.58	228.65
358.97	228.71
359.35	228.80
359.73	228.90
360.11	228.94
360.49	228.99
360.87	229.01
361.25	229.10
361.63	229.19
362.01	229.22
362.39	229.26
362.77	229.30
363.15	229.34
363.53	229.37
363.91	229.42
364.29	229.41
364.67	229.35
365.05	229.38
365.43	229.43
365.81	229.43
366.19	229.48
366.57	229.52
366.95	229.52
367.33	229.49
367.71	229.47
368.09	229.50
368.47	229.50
368.85	229.54
369.23	229.55
369.61	229.45
369.99	229.45
370.37	229.45
370.75	229.43
371.13	229.38
371.51	229.34
371.89	229.31
372.27	229.27
372.65	229.20
373.03	229.11
373.41	229.03
373.78	228.97
374.16	228.87
374.54	228.76
374.92	228.68
375.30	228.63
375.68	228.55
376.06	228.48
376.44	228.39
376.82	228.30
377.19	228.19
377.57	228.13
377.95	228.05
378.33	227.95
378.71	227.86
379.09	227.79
379.47	227.72
379.84	227.63
380.22	227.55
380.60	227.49
380.98	227.41
381.36	227.34
381.73	227.24
382.11	227.17
382.49	227.12
382.87	227.02
383.25	226.96
383.62	227.00
384.00	226.91
384.38	226.84
384.76	226.77
385.13	226.75
385.51	226.70
385.89	226.56
386.27	226.50
386.64	226.47
387.02	226.41
387.40	226.36
387.78	226.31
388.15	226.27
388.53	226.22
388.91	226.22
389.29	226.20
389.66	226.20
390.04	226.18
390.42	226.17
390.79	226.14
391.17	226.13
391.55	226.01
391.92	225.99
392.30	226.00
392.68	225.99
393.05	225.97
393.43	225.95
393.81	226.04
394.18	226.04
394.56	226.05
394.94	226.10
395.31	226.13
395.69	226.22
396.06	226.27
396.44	226.32
396.82	226.38
397.19	226.46
397.57	226.51
397.95	226.57
398.32	226.59
398.70	226.68
399.07	226.77
399.45	226.84
399.82	226.92
400.20	226.98
400.58	227.05
400.95	227.08
401.33	227.23
401.70	227.37
402.08	227.49
402.45	227.55
402.83	227.66
403.20	227.75
403.58	227.82
403.95	227.96
404.33	228.10
404.71	228.18
405.08	228.36
405.46	228.49
405.83	228.63
406.21	228.83
406.58	229.01
406.96	229.16
407.33	229.34
407.70	229.54
408.08	229.85
408.45	230.12
408.83	230.39
409.20	230.61
409.58	230.79
409.95	231.06
410.33	231.35
410.70	231.60
411.08	231.88
411.45	232.18
411.82	232.49
412.20	232.82
412.57	233.25
412.95	233.54
413.32	233.96
413.69	234.35
414.07	234.75
414.44	235.22
414.82	235.70
415.19	236.24
415.56	236.79
415.94	237.31
416.31	237.91
416.68	238.56
417.06	239.28
417.43	239.96
417.81	240.75
418.18	241.53
418.55	242.39
418.93	243.31
419.30	244.23
419.67	245.18
420.04	246.15
420.42	247.15
420.79	248.35
421.16	249.50
421.54	250.71
421.91	251.92
422.28	253.12
422.66	254.49
423.03	255.80
423.40	257.14
423.77	258.55
424.15	259.98
424.52	261.41
424.89	263.00
425.26	264.52
425.64	265.95
426.01	267.56
426.38	269.20
426.75	270.87
427.13	272.54
427.50	274.33
427.87	276.22
428.24	278.06
428.61	279.76
428.99	281.72
429.36	283.84
429.73	285.92
430.10	287.97
430.47	289.94
430.85	292.08
431.22	294.28
431.59	296.66
431.96	298.92
432.33	301.44
432.70	303.78
433.08	306.62
433.45	309.25
433.82	311.83
434.19	314.69
434.56	317.46
434.93	320.17
435.30	322.75
435.68	325.63
436.05	328.47
436.42	331.30
436.79	333.82
437.16	336.50
437.53	339.31
437.90	342.10
438.27	344.88
438.64	347.66
439.01	350.29
439.38	352.51
439.75	354.64
440.13	357.07
440.50	359.44
440.87	361.24
441.24	363.21
441.61	365.36
441.98	366.83
442.35	368.65
442.72	370.47
443.09	372.30
443.46	373.32
443.83	373.90
444.20	374.38
444.57	375.18
444.94	375.46
445.31	375.79
445.68	376.17
446.05	376.23
446.42	375.90
446.79	375.51
447.16	375.05
447.53	374.76
447.90	373.66
448.27	372.49
448.64	370.94
449.01	369.81
449.37	367.86
449.74	365.97
450.11	363.68
450.48	361.21
450.85	358.68
451.22	356.53
451.59	354.51
451.96	352.55
452.33	349.96
452.70	347.61
453.07	344.81
453.43	341.92
453.80	339.16
454.17	336.46
454.54	333.87
454.91	331.13
455.28	328.48
455.65	325.97
456.02	323.53
456.38	321.36
456.75	318.67
457.12	316.40
457.49	314.19
457.86	312.05
458.23	310.21
458.59	308.18
458.96	306.07
459.33	304.21
459.70	302.38
460.07	300.91
460.43	299.15
460.80	297.55
461.17	296.10
461.54	294.61
461.91	293.20
462.27	291.76
462.64	290.52
463.01	289.15
463.38	287.90
463.74	286.52
464.11	285.36
464.48	284.30
464.85	283.19
465.21	282.36
465.58	281.46
465.95	280.39
466.32	279.49
466.68	278.56
467.05	277.68
467.42	276.77
467.78	275.78
468.15	274.93
468.52	274.25
468.88	273.39
469.25	272.62
469.62	271.98
469.98	271.31
470.35	270.66
470.72	270.05
471.08	269.36
471.45	268.82
471.82	268.31
472.18	267.75
472.55	267.31
472.92	266.79
473.28	266.31
473.65	265.84
474.02	265.37
474.38	265.03
474.75	264.70
475.11	264.35
475.48	264.11
475.85	263.88
476.21	263.65
476.58	263.44
476.94	263.28
477.31	263.12
477.67	262.96
478.04	262.87
478.41	262.86
478.77	262.89
479.14	262.85
479.50	262.85
479.87	262.92
480.23	263.03
480.60	263.07
480.96	263.17
481.33	263.38
481.69	263.59
482.06	263.76
482.42	263.96
482.79	264.22
483.15	264.55
483.52	264.95
483.88	265.28
484.25	265.65
484.61	266.10
484.98	266.54
485.34	267.12
485.71	267.73
486.07	268.28
486.44	268.86
486.80	269.52
487.17	270.26
487.53	271.09
487.90	271.93
488.26	272.87
488.62	273.86
488.99	274.85
489.35	275.89
489.72	277.02
490.08	278.20
490.44	279.42
490.81	280.76
491.17	282.11
491.54	283.61
491.90	285.15
492.26	286.76
492.63	288.52
492.99	290.25
493.36	292.14
493.72	294.17
494.08	296.29
494.45	298.56
494.81	300.95
495.17	303.35
495.54	305.93
495.90	308.60
496.26	311.39
496.63	314.36
496.99	317.47
497.35	320.75
497.72	324.18
498.08	327.73
498.44	331.42
498.80	335.34
499.17	339.37
499.53	343.58
499.89	348.00
500.26	352.51
500.62	357.25
500.98	362.20
501.34	367.27
501.71	372.58
502.07	378.01
502.43	383.58
502.79	389.40
503.16	395.50
503.52	401.83
503.88	408.26
504.24	414.91
504.60	421.81
504.97	428.92
505.33	436.28
505.69	443.99
506.05	451.71
506.41	459.63
506.78	467.84
507.14	476.27
507.50	484.95
507.86	493.97
508.22	503.16
508.59	512.38
508.95	522.01
509.31	531.87
509.67	542.01
510.03	552.33
510.39	562.86
510.75	573.62
511.12	584.55
511.48	595.86
511.84	607.30
512.20	618.79
512.56	630.75
512.92	642.92
513.28	655.26
513.64	667.83
514.00	680.54
514.37	693.50
514.73	706.64
515.09	719.73
515.45	733.10
515.81	746.67
516.17	760.68
516.53	774.81
516.89	788.88
517.25	803.02
517.61	817.43
517.97	831.90
518.33	846.33
518.69	861.10
519.05	876.09
519.41	891.27
519.77	906.90
520.13	922.38
520.49	937.76
520.85	953.14
521.21	968.72
521.57	984.94
521.93	1000.66
522.29	1017.04
522.65	1033.34
523.01	1049.43
523.37	1065.40
523.73	1081.58
524.09	1097.66
524.45	1114.10
524.81	1130.79
525.17	1147.62
525.53	1164.53
525.89	1181.50
526.25	1198.22
526.61	1214.59
526.97	1231.27
527.33	1247.72
527.68	1264.30
528.04	1280.64
528.40	1297.22
528.76	1314.25
529.12	1330.77
529.48	1347.59
529.84	1363.44
530.20	1380.04
530.56	1397.10
530.91	1414.54
531.27	1431.20
531.63	1447.68
531.99	1464.11
532.35	1480.00
532.71	1495.76
533.07	1511.96
533.42	1527.67
533.78	1543.64
534.14	1559.95
534.50	1575.33
534.86	1591.24
535.21	1606.38
535.57	1622.49
535.93	1638.05
536.29	1652.99
536.65	1668.06
537.00	1682.86
537.36	1698.14
537.72	1712.58
538.08	1726.94
538.44	1740.68
538.79	1754.59
539.15	1768.18
539.51	1782.00
539.87	1796.20
540.22	1810.07
540.58	1823.73
540.94	1837.11
541.29	1850.21
541.65	1862.88
542.01	1876.06
542.37	1888.16
542.72	1900.57
543.08	1912.33
543.44	1924.66
543.79	1935.92
544.15	1946.97
544.51	1958.43
544.87	1969.39
545.22	1980.24
545.58	1990.50
545.94	2000.26
546.29	2010.10
546.65	2019.84
547.01	2028.95
547.36	2037.79
547.72	2046.25
548.07	2054.10
548.43	2062.26
548.79	2070.17
549.14	2077.65
549.50	2085.06
549.86	2092.96
550.21	2100.16
550.57	2107.26
550.92	2113.79
551.28	2120.71
551.64	2127.76
551.99	2134.25
552.35	2140.58
552.70	2146.65
553.06	2152.64
553.41	2158.97
553.77	2165.06
554.13	2171.25
554.48	2177.54
554.84	2182.95
555.19	2188.28
555.55	2193.64
555.90	2198.25
556.26	2203.16
556.61	2207.91
556.97	2212.12
557.32	2216.23
557.68	2220.55
558.03	2224.92
558.39	2228.63
558.74	2233.25
559.10	2237.08
559.45	2240.94
559.81	2245.19
560.16	2249.05
560.52	2252.20
560.87	2255.65
561.23	2258.33
561.58	2261.38
561.94	2263.86
562.29	2266.32
562.64	2268.87
563.00	2271.40
563.35	2274.74
563.71	2277.90
564.06	2281.12
564.42	2283.93
564.77	2286.24
565.12	2288.43
565.48	2290.14
565.83	2292.05
566.19	2293.40
566.54	2294.33
566.89	2295.31
567.25	2295.80
567.60	2297.13
567.96	2298.82
568.31	2299.64
568.66	2300.62
569.02	2301.19
569.37	2301.53
569.72	2302.44
570.08	2302.64
570.43	2302.61
570.78	2302.02
571.14	2300.40
571.49	2299.06
571.84	2298.77
572.20	2297.59
572.55	2296.52
572.90	2295.02
573.26	2293.53
573.61	2291.81
573.96	2289.97
574.31	2287.06
574.67	2284.10
575.02	2280.38
575.37	2276.96
575.72	2273.20
576.08	2270.10
576.43	2266.72
576.78	2263.05
577.13	2259.83
577.49	2256.75
577.84	2253.28
578.19	2249.60
578.54	2245.99
578.90	2241.65
579.25	2236.05
579.60	2231.03
579.95	2225.93
580.30	2220.96
580.66	2215.91
581.01	2211.09
581.36	2206.35
581.71	2202.21
582.06	2197.84
582.42	2193.51
582.77	2188.26
583.12	2183.56
583.47	2178.61
583.82	2173.56
584.17	2168.18
584.53	2162.58
584.88	2156.90
585.23	2151.02
585.58	2145.53
585.93	2140.08
586.28	2135.39
586.63	2130.30
586.98	2125.41
587.34	2120.71
587.69	2115.75
588.04	2110.41
588.39	2104.60
588.74	2097.98
589.09	2091.80
589.44	2084.94
589.79	2078.99
590.14	2073.55
590.49	2066.97
590.84	2060.59
591.19	2054.68
591.54	2048.27
591.89	2040.83
592.25	2034.02
592.60	2026.83
592.95	2019.20
593.30	2011.89
593.65	2004.20
594.00	1997.24
594.35	1989.93
594.70	1982.03
595.05	1974.87
595.40	1967.67
595.75	1960.05
596.10	1953.98
596.45	1947.23
596.80	1941.04
597.15	1934.34
597.50	1927.01
597.85	1920.83
598.19	1914.23
598.54	1906.93
598.89	1900.39
599.24	1894.62
599.59	1887.96
599.94	1881.74
600.29	1875.45
600.64	1868.74
600.99	1861.38
601.34	1854.42
601.69	1847.55
602.04	1840.53
602.39	1833.20
602.74	1826.43
603.08	1819.78
603.43	1812.82
603.78	1805.41
604.13	1798.21
604.48	1790.82
604.83	1784.08
605.18	1776.90
605.53	1768.80
605.87	1760.91
606.22	1753.70
606.57	1745.75
606.92	1738.39
607.27	1731.26
607.62	1724.39
607.96	1717.06
608.31	1710.46
608.66	1702.95
609.01	1695.34
609.36	1687.92
609.70	1679.95
610.05	1671.78
610.40	1664.06
610.75	1655.76
611.10	1648.14
611.44	1639.81
611.79	1631.82
612.14	1623.10
612.49	1613.93
612.83	1605.52
613.18	1597.29
613.53	1589.13
613.88	1580.51
614.22	1572.29
614.57	1563.65
614.92	1555.51
615.27	1548.01
615.61	1539.57
615.96	1531.34
616.31	1523.63
616.65	1516.12
617.00	1508.54
617.35	1500.81
617.70	1492.48
618.04	1483.99
618.39	1475.69
618.74	1468.09
619.08	1459.85
619.43	1452.28
619.78	1445.41
620.12	1438.29
620.47	1430.82
620.82	1422.57
621.16	1415.21
621.51	1407.51
621.85	1399.96
622.20	1391.49
622.55	1383.10
622.89	1375.44
623.24	1368.05
623.59	1360.72
623.93	1353.18
624.28	1345.94
624.62	1338.47
624.97	1331.34
625.32	1324.66
625.66	1317.71
626.01	1310.44
626.35	1302.82
626.70	1295.06
627.04	1287.20
627.39	1279.43
627.73	1272.05
628.08	1265.19
628.43	1257.96
628.77	1250.55
629.12	1242.95
629.46	1235.78
629.81	1228.34
630.15	1220.95
630.50	1213.49
630.84	1205.32
631.19	1197.49
631.53	1189.98
631.88	1182.43
632.22	1174.80
632.57	1167.45
632.91	1159.88
633.26	1152.45
633.60	1145.26
633.95	1138.14
634.29	1131.16
634.64	1124.53
634.98	1117.09
635.32	1109.92
635.67	1103.30
636.01	1096.65
636.36	1089.82
636.70	1083.33
637.05	1076.78
637.39	1070.44
637.73	1063.97
638.08	1058.13
638.42	1052.14
638.77	1045.69
639.11	1039.00
639.45	1032.56
639.80	1025.96
640.14	1019.57
640.49	1013.03
640.83	1006.65
641.17	1000.45
641.52	994.18
641.86	987.72
642.20	981.92
642.55	975.69
642.89	969.18
643.23	962.62
643.58	956.92
643.92	950.67
644.26	944.61
644.61	938.55
644.95	932.48
645.29	925.81
645.64	919.08
645.98	912.73
646.32	907.08
646.66	901.12
647.01	895.33
647.35	889.62
647.69	883.86
648.04	878.33
648.38	872.51
648.72	866.49
649.06	860.38
649.41	854.46
649.75	848.37
650.09	842.44
650.43	836.76
650.78	830.53
651.12	824.63
651.46	818.91
651.80	813.11
652.14	807.75
652.49	802.42
652.83	797.24
653.17	791.50
653.51	785.64
653.85	780.22
654.20	774.50
654.54	768.45
654.88	762.67
655.22	756.79
655.56	751.13
655.90	745.71
656.25	740.46
656.59	735.11
656.93	730.06
657.27	724.94
657.61	719.50
657.95	714.47
658.29	709.33
658.64	704.11
658.98	698.85
659.32	693.36
659.66	688.06
660.00	682.61
660.34	677.68
660.68	672.78
661.02	667.75
661.36	663.05
661.70	658.62
662.05	654.19
662.39	649.85
662.73	645.39
663.07	640.99
663.41	636.61
663.75	632.08
664.09	627.52
664.43	623.03
664.77	618.94
665.11	614.65
665.45	610.55
665.79	606.45
666.13	602.30
666.47	598.16
666.81	594.06
667.15	590.02
667.49	586.15
667.83	582.39
668.17	578.46
668.51	574.37
668.85	570.35
669.19	566.63
669.53	562.78
669.87	558.89
670.21	555.26
670.55	551.59
670.89	548.20
671.23	544.75
671.57	541.25
671.91	537.62
672.25	534.20
672.58	530.68
672.92	527.28
673.26	524.14
673.60	521.05
673.94	517.95
674.28	515.09
674.62	512.13
674.96	508.97
675.30	506.06
675.64	503.18
675.97	500.42
676.31	497.50
676.65	494.59
676.99	491.92
677.33	488.97
677.67	486.18
678.01	483.15
678.34	480.16
678.68	477.35
679.02	474.57
679.36	471.78
679.70	469.09
680.04	466.34
680.37	463.40
680.71	460.55
681.05	457.93
681.39	455.23
681.73	452.59
682.06	450.05
682.40	447.46
682.74	444.93
683.08	442.37
683.42	439.78
683.75	437.29
684.09	434.72
684.43	432.28
684.77	429.83
685.10	427.50
685.44	425.23
685.78	422.87
686.12	420.67
686.45	418.38
686.79	416.05
687.13	413.86
687.46	411.73
687.80	409.58
688.14	407.35
688.48	405.28
688.81	403.01
689.15	400.84
689.49	398.68
689.82	396.58
690.16	394.47
690.50	392.47
690.83	390.54
691.17	388.51
691.51	386.62
691.84	384.75
692.18	382.81
692.52	380.80
692.85	378.88
693.19	376.93
693.52	375.10
693.86	373.31
694.20	371.56
694.53	369.77
694.87	367.89
695.21	366.05
695.54	364.21
695.88	362.50
696.21	360.82
696.55	359.18
696.88	357.51
697.22	355.85
697.56	354.24
697.89	352.55
698.23	350.97
698.56	349.33
698.90	347.68
699.23	346.00
699.57	344.47
699.90	342.97
700.24	341.41
700.58	339.86
700.91	338.37
701.25	336.91
701.58	335.55
701.92	334.26
702.25	332.97
702.59	331.63
702.92	330.30
703.26	329.03
703.59	327.75
703.93	326.57
704.26	325.36
704.60	324.06
704.93	322.78
705.26	321.54
705.60	320.39
705.93	319.29
706.27	318.32
706.60	317.26
706.94	316.15
707.27	315.09
707.61	314.06
707.94	313.01
708.27	311.92
708.61	310.87
708.94	309.91
709.28	308.91
709.61	307.98
709.94	307.05
710.28	306.05
710.61	305.05
710.95	303.93
711.28	303.06
711.61	302.11
711.95	301.21
712.28	300.31
712.61	299.30
712.95	298.36
713.28	297.43
713.61	296.55
713.95	295.69
714.28	294.87
714.61	294.03
714.95	293.18
715.28	292.32
715.61	291.42
715.95	290.52
716.28	289.67
716.61	288.79
716.95	287.98
717.28	287.23
717.61	286.49
717.94	285.78
718.28	284.94
718.61	284.27
718.94	283.57
719.27	282.90
719.61	282.33
719.94	281.67
720.27	280.98
720.60	280.32
720.94	279.66
721.27	279.05
721.60	278.43
721.93	277.85
722.27	277.32
722.60	276.76
722.93	276.17
723.26	275.64
723.59	275.08
723.93	274.50
724.26	273.88
724.59	273.31
724.92	272.78
725.25	272.25
725.59	271.67
725.92	271.15
726.25	270.62
726.58	270.08
726.91	269.61
727.24	269.15
727.57	268.71
727.91	268.21
728.24	267.70
728.57	267.23
728.90	266.75
729.23	266.20
729.56	265.80
729.89	265.36
730.22	264.88
730.55	264.44
730.89	263.97
731.22	263.54
731.55	263.11
731.88	262.70
732.21	262.30
732.54	261.86
732.87	261.48
733.20	261.07
733.53	260.66
733.86	260.26
734.19	259.85
734.52	259.44
734.85	259.11
735.18	258.71
735.51	258.34
735.84	257.97
736.17	257.67
736.50	257.24
736.83	257.01
737.16	256.67
737.49	256.31
737.82	255.98
738.15	255.64
738.48	255.31
738.81	254.94
739.14	254.64
739.47	254.36
739.80	254.01
740.13	253.74
740.46	253.44
740.79	253.11
741.12	252.81
741.45	252.46
741.78	252.10
742.11	251.83
742.44	251.52
742.77	251.24
743.10	250.92
743.43	250.61
743.75	250.20
744.08	250.04
744.41	249.74
744.74	249.46
745.07	249.19
745.40	248.97
745.73	248.74
746.06	248.44
746.39	248.17
746.71	247.92
747.04	247.65
747.37	247.37
747.70	247.12
748.03	246.87
748.36	246.67
748.68	246.47
749.01	246.22
749.34	246.01
749.67	245.79
750.00	245.56
750.33	245.43
750.65	245.24
750.98	244.94
751.31	244.76
751.64	244.61
751.97	244.46
752.29	244.24
752.62	244.00
752.95	243.79
753.28	243.57
753.60	243.35
753.93	243.16
754.26	242.98
754.59	242.75
754.91	242.52
755.24	242.33
755.57	242.12
755.90	241.95
756.22	241.73
756.55	241.54
756.88	241.36
757.20	241.11
757.53	240.89
757.86	240.71
758.19	240.53
758.51	240.33
758.84	240.08
759.17	239.95
759.49	239.78
759.82	239.64
760.15	239.51
760.47	239.36
760.80	239.17
761.13	239.03
761.45	238.88
761.78	238.77
762.11	238.59
762.43	238.42
762.76	238.26
763.08	238.14
763.41	238.01
763.74	237.89
764.06	237.77
764.39	237.62
764.71	237.44
765.04	237.31
765.37	237.18
765.69	237.11
766.02	236.93
766.34	236.85
766.67	236.72
767.00	236.63
767.32	236.60
767.65	236.57
767.97	236.42
768.30	236.34
768.62	236.22
768.95	236.14
769.27	236.05
769.60	235.96
769.92	235.85
770.25	235.68
770.57	235.51
770.90	235.42
771.22	235.29
771.55	235.22
771.87	235.11
772.20	234.99
772.52	234.92
772.85	234.98
773.17	234.83
773.50	234.75
773.82	234.61
774.15	234.46
774.47	234.28
774.80	234.23
775.12	234.12
775.45	234.04
775.77	233.93
776.09	233.84
776.42	233.76
776.74	233.67
777.07	233.60
777.39	233.58
777.72	233.47
778.04	233.41
778.36	233.35
778.69	233.31
779.01	233.25
779.33	233.13
779.66	232.91
779.98	232.85
780.31	232.79
780.63	232.76
780.95	232.67
781.28	232.61
781.60	232.50
781.92	232.45
782.25	232.35
782.57	232.34
782.89	232.27
783.22	232.20
783.54	232.16
783.86	232.12
784.19	232.04
784.51	232.01
784.83	231.97
785.16	231.91
785.48	231.85
785.80	231.80
786.12	231.74
786.45	231.72
786.77	231.70
787.09	231.61
787.42	231.54
787.74	231.51
788.06	231.51
788.38	231.51
788.71	231.46
789.03	231.44
789.35	231.38
789.67	231.33
789.99	231.27
790.32	231.19
790.64	231.18
790.96	231.23
791.28	231.17
791.61	231.15
791.93	231.12
792.25	231.07
792.57	231.08
792.89	231.05
793.21	231.00
793.54	230.97
793.86	230.93
794.18	230.90
794.50	230.81
794.82	230.75
795.14	230.69
795.47	230.68
795.79	230.63
796.11	230.60
796.43	230.60
796.75	230.61
797.07	230.60
797.39	230.56
797.71	230.44
798.04	230.43
798.36	230.40
798.68	230.40
799.00	230.37
799.32	230.31
799.64	230.32
799.96	230.29
800.28	230.28
800.60	230.26
800.92	230.23
801.24	230.23
801.56	230.20
801.89	230.18
802.21	230.14
802.53	230.10
802.85	230.09
803.17	230.10
803.49	230.05
803.81	230.05
804.13	230.01
804.45	229.98
804.77	229.96
805.09	229.93
805.41	229.85
805.73	229.79
806.05	229.73
806.37	229.65
806.69	229.60
807.01	229.54
807.33	229.54
807.65	229.48
807.97	229.51
808.28	229.49
808.60	229.43
808.92	229.42
809.24	229.45
809.56	229.41
809.88	229.34
810.20	229.31
810.52	229.27
810.84	229.23
811.16	229.18
811.48	229.14
811.80	229.13
812.12	229.11
812.43	229.11
812.75	229.10
813.07	229.08
813.39	229.06
813.71	229.03
814.03	228.99
814.35	228.95
814.67	228.87
814.98	228.81
815.30	228.78
815.62	228.73
815.94	228.63
816.26	228.64
816.58	228.57
816.89	228.54
817.21	228.48
817.53	228.46
817.85	228.44
818.17	228.39
818.48	228.32
818.80	228.32
819.12	228.28
819.44	228.22
819.76	228.22
820.07	228.22
820.39	228.19
820.71	228.15
821.03	228.18
821.34	228.13
821.66	228.13
821.98	228.14
822.30	228.10
822.61	228.14
822.93	228.06
823.25	228.05
823.57	228.03
823.88	228.07
824.20	228.06
824.52	228.04
824.83	228.01
825.15	228.00
825.47	227.98
825.79	227.97
826.10	227.95
826.42	227.91
826.74	227.87
827.05	227.83
827.37	227.84
827.69	227.78
828.00	227.78
828.32	227.79
828.64	227.76
828.95	227.81
829.27	227.76
829.58	227.79
829.90	227.82
830.22	227.84
830.53	227.79
830.85	227.78
831.17	227.76
831.48	227.76
831.80	227.72
832.11	227.70
832.43	227.70
832.75	227.71
833.06	227.76
833.38	227.74
833.69	227.77
834.01	227.74
834.32	227.76
834.64	227.76
834.96	227.75
835.27	227.75
835.59	227.73
835.90	227.73
836.22	227.73
836.53	227.72
836.85	227.70
837.16	227.79
837.48	227.79
837.79	227.87
838.11	227.88
838.42	227.90
838.74	227.93
839.05	227.90
839.37	227.90
839.68	227.86
840.00	227.85
840.31	227.87
840.63	227.88
840.94	227.88
841.26	227.87
841.57	227.90
841.88	227.94
842.20	227.90
842.51	227.91
842.83	227.91
843.14	227.97
843.46	227.98
843.77	227.93
844.08	227.92
844.40	227.86
844.71	227.88
845.03	227.89
845.34	227.88
845.65	227.90
845.97	227.92
846.28	227.89
846.60	227.93
846.91	227.89
847.22	227.90
847.54	227.89
847.85	227.90
848.16	227.85
848.48	227.82
848.79	227.85
849.10	227.84
849.42	227.82
849.73	227.77
850.04	227.75
850.36	227.72
850.67	227.77
850.98	227.79
851.30	227.80
851.61	227.78
851.92	227.78
852.23	227.79
852.55	227.80
852.86	227.80
853.17	227.79
853.49	227.82
853.80	227.80
854.11	227.81
854.42	227.80
854.74	227.80
855.05	227.78
855.36	227.75
855.67	227.76
855.99	227.74
856.30	227.81
856.61	227.80
856.92	227.76
857.23	227.71
857.55	227.66
857.86	227.63
858.17	227.62
858.48	227.56
858.79	227.53
859.11	227.50
859.42	227.49
859.73	227.44
860.04	227.43
860.35	227.40
860.66	227.36
860.98	227.36
861.29	227.39
861.60	227.39
861.91	227.37
862.22	227.33
862.53	227.31
862.84	227.19
863.16	227.20
863.47	227.18
863.78	227.17
864.09	227.17
864.40	227.17
864.71	227.19
865.02	227.24
865.33	227.22
865.64	227.19
865.95	227.20
866.27	227.25
866.58	227.21
866.89	227.22
867.20	227.23
867.51	227.22
867.82	227.21
868.13	227.22
868.44	227.21
868.75	227.23
869.06	227.25
869.37	227.26
869.68	227.21
869.99	227.21
870.30	227.19
870.61	227.18
870.92	227.15
871.23	227.12
871.54	227.11
871.85	227.12
872.16	227.15
872.47	227.14
872.78	227.10
873.09	227.11
873.40	227.11
873.71	227.11
874.02	227.10
874.33	227.08
874.64	227.09
874.95	227.12
875.26	227.10
875.56	227.10
875.87	227.10
876.18	227.14
876.49	227.27
876.80	227.30
877.11	227.29
877.42	227.30
877.73	227.31
878.04	227.29
878.35	227.30
878.66	227.29
878.96	227.27
879.27	227.24
879.58	227.24
879.89	227.27
880.20	227.29
880.51	227.31
880.82	227.28
881.12	227.25
881.43	227.23
881.74	227.25
882.05	227.24
882.36	227.25
882.67	227.25
882.97	227.15
883.28	227.17
883.59	227.16
883.90	227.18
884.21	227.23
884.51	227.23
884.82	227.21
885.13	227.23
885.44	227.23
885.74	227.27
886.05	227.27
886.36	227.26
886.67	227.21
886.98	227.22
887.28	227.25
887.59	227.27
887.90	227.27
888.20	227.23
888.51	227.23
888.82	227.22
889.13	227.22
889.43	227.29
889.74	227.27
890.05	227.27
890.35	227.24
890.66	227.19
890.97	227.21
891.28	227.21
891.58	227.19
891.89	227.21
892.20	227.18
892.50	227.13
892.81	227.10
893.12	227.12
893.42	227.09
893.73	227.10
894.04	227.08
894.34	227.11
894.65	227.12
894.95	227.11
895.26	227.09
895.57	227.12
895.87	227.01
896.18	227.01
896.48	227.01
896.79	227.01
897.10	227.02
897.40	227.01
897.71	227.01
898.01	226.98
898.32	226.99
898.63	226.99
898.93	227.06
899.24	227.07
899.54	227.05
899.85	227.04
900.15	227.04
900.46	227.01
900.76	226.98
901.07	226.98
901.38	226.98
901.68	226.99
901.99	226.92
902.29	226.92
902.60	226.89
902.90	226.88
903.21	226.88
903.51	226.87
903.82	226.90
904.12	226.91
904.43	226.93
904.73	226.92
905.03	226.94
905.34	227.00
905.64	227.00
905.95	227.00
906.25	227.00
906.56	226.97
906.86	227.00
907.17	226.97
907.47	226.96
907.77	226.95
908.08	226.95
908.38	226.97
908.69	226.98
908.99	227.01
909.30	227.00
909.60	227.00
909.90	227.01
910.21	226.98
910.51	226.94
910.81	226.94
911.12	226.92
911.42	226.90
911.73	226.79
912.03	226.81
912.33	226.85
912.64	226.83
912.94	226.82
913.24	226.80
913.55	226.83
913.85	226.82
914.15	226.83
914.46	226.85
914.76	226.84
915.06	226.84
915.37	226.85
915.67	226.83
915.97	226.83
916.27	226.80
916.58	226.80
916.88	226.82
917.18	226.82
917.49	226.90
917.79	226.91
918.09	226.96
918.39	227.00
918.70	226.98
919.00	227.01
919.30	227.06
919.60	227.04
919.91	227.05
920.21	227.06
920.51	227.02
920.81	226.98
921.12	227.03
921.42	227.03
921.72	227.02
922.02	227.07
922.32	227.10
922.63	227.10
922.93	227.16
923.23	227.16
923.53	227.15
923.83	227.10
924.13	227.11
924.44	227.09
924.74	227.10
925.04	227.13
925.34	227.12
925.64	227.10
925.94	227.12
926.24	227.19
926.55	227.20
926.85	227.23
927.15	227.26
927.45	227.23
927.75	227.22
928.05	227.21
928.35	227.19
928.65	227.18
928.95	227.20
929.26	227.15
929.56	227.14
929.86	227.14
930.16	227.12
930.46	227.12
930.76	227.11
931.06	227.01
931.36	226.97
931.66	226.99
931.96	226.97
932.26	226.94
932.56	226.86
932.86	226.83
933.16	226.86
933.46	226.81
933.76	226.79
934.06	226.81
934.36	226.84
934.66	226.85
934.96	226.87
935.26	226.85
935.56	226.85
935.86	226.86
936.16	226.87
936.46	226.87
936.76	226.85
937.06	226.83
937.36	226.87
937.66	226.86
937.96	226.86
938.26	226.84
938.56	226.84
938.86	226.86
939.16	226.90
939.46	226.86
939.76	226.88
940.06	226.91
940.35	226.91
940.65	226.84
940.95	226.81
941.25	226.78
941.55	226.77
941.85	226.77
942.15	226.76
942.45	226.79
942.75	226.78
943.04	226.79
943.34	226.79
943.64	226.79
943.94	226.76
944.24	226.76
944.54	226.78
944.84	226.77
945.13	226.73
945.43	226.70
945.73	226.72
946.03	226.71
946.33	226.69
946.62	226.68
946.92	226.70
947.22	226.72
947.52	226.73
947.82	226.73
948.11	226.72
948.41	226.69
948.71	226.65
949.01	226.69
949.31	226.69
949.60	226.70
949.90	226.71
950.20	226.74
950.50	226.74
950.79	226.75
951.09	226.76
951.39	226.77
951.69	226.78
951.98	226.80
952.28	226.78
952.58	226.79
952.87	226.76
953.17	226.77
953.47	226.74
953.76	226.71
954.06	226.73
954.36	226.70
954.66	226.75
954.95	226.80
955.25	226.77
955.55	226.76
955.84	226.77
956.14	226.76
956.44	226.79
956.73	226.75
957.03	226.76
957.32	226.77
957.62	226.79
957.92	226.80
958.21	226.79
958.51	226.92
958.81	226.95
959.10	226.99
959.40	227.01
959.69	227.04
959.99	227.07
960.29	227.04
960.58	227.04
960.88	227.06
961.17	227.04
961.47	227.05
961.76	227.06
962.06	227.07
962.36	227.04
962.65	227.04
962.95	227.08
963.24	227.07
963.54	227.06
963.83	227.06
964.13	227.07
964.42	227.04
964.72	226.97
965.01	226.95
965.31	226.94
965.60	226.92
965.90	226.98
966.19	226.95
966.49	226.99
966.78	226.99
967.08	226.98
967.37	226.99
967.67	226.98
967.96	226.97
968.26	226.97
968.55	227.01
968.85	226.99
969.14	226.99
969.43	226.99
969.73	226.99
970.02	226.94
970.32	226.93
970.61	226.94
970.91	226.93
971.20	226.92
971.49	226.93
971.79	226.94
972.08	226.89
972.38	226.89
972.67	226.86
972.96	226.87
973.26	226.83
973.55	226.82
973.85	226.80
974.14	226.82
974.43	226.84
974.73	226.82
975.02	226.81
975.31	226.79
975.61	226.77
975.90	226.74
976.19	226.77
976.49	226.74
976.78	226.72
977.07	226.72
977.37	226.68
977.66	226.70
977.95	226.68
978.24	226.68
978.54	226.71
978.83	226.72
979.12	226.73
979.42	226.72
979.71	226.71
980.00	226.70
980.29	226.70
980.59	226.65
980.88	226.66
981.17	226.67
981.46	226.67
981.76	226.64
982.05	226.66
982.34	226.66
982.63	226.67
982.93	226.70
983.22	226.69
983.51	226.71
983.80	226.71
984.09	226.70
984.39	226.68
984.68	226.69
984.97	226.68
985.26	226.65
985.55	226.70
985.85	226.69
986.14	226.71
986.43	226.73
986.72	226.71
987.01	226.67
987.30	226.69
987.59	226.68
987.89	226.73
988.18	226.71
988.47	226.68
988.76	226.69
989.05	226.67
989.34	226.67
989.63	226.69
989.92	226.69
990.22	226.68
990.51	226.67
990.80	226.64
991.09	226.68
991.38	226.71
991.67	226.68
991.96	226.66
992.25	226.70
992.54	226.65
992.83	226.67
993.12	226.71
993.41	226.68
993.70	226.74
993.99	226.79
994.28	226.82
994.58	226.89
994.87	226.87
995.16	226.88
995.45	226.88
995.74	226.86
996.03	226.86
996.32	226.89
996.61	226.91
996.90	226.91
997.19	226.88
997.48	226.87
997.77	226.86
998.06	226.87
998.34	226.85
998.63	226.88
998.92	226.90
999.21	226.88
999.50	226.90
999.79	226.85
1000.08	226.84
1000.37	226.82
1000.66	226.80
1000.95	226.81
1001.24	226.83
1001.53	226.84
1001.82	226.82
1002.11	226.79
1002.40	226.82
1002.68	226.81
1002.97	226.89
1003.26	226.87
1003.55	226.87
1003.84	226.88
1004.13	226.91
1004.42	226.89
1004.71	226.84
1004.99	226.83
1005.28	226.87
1005.57	226.84
1005.86	226.86
1006.15	226.81
1006.44	226.79
1006.72	226.78
1007.01	226.76
1007.30	226.77
1007.59	226.74
1007.88	226.73
1008.17	226.72
1008.45	226.69
1008.74	226.68
1009.03	226.61
1009.32	226.60
1009.60	226.60
1009.89	226.58
1010.18	226.56
1010.47	226.54
1010.76	226.57
1011.04	226.58
1011.33	226.57
1011.62	226.60
1011.91	226.59
1012.19	226.60
1012.48	226.61
1012.77	226.64
1013.05	226.69
1013.34	226.68
1013.63	226.71
1013.92	226.73
1014.20	226.73
1014.49	226.71
1014.78	226.72
1015.06	226.72
1015.35	226.74
1015.64	226.74
1015.92	226.73
1016.21	226.71
1016.50	226.73
1016.78	226.72
1017.07	226.69
1017.36	226.68
1017.64	226.64
1017.93	226.64
1018.22	226.64
1018.50	226.63
1018.79	226.61
1019.08	226.54
1019.36	226.52
1019.65	226.48
1019.93	226.51
1020.22	226.53
1020.51	226.62
1020.79	226.61
1021.08	226.69
1021.36	226.19
1021.65	226.66
1021.94	226.11
1022.22	226.54
1022.51	226.08
1022.79	227.33
1023.08	226.62
1023.36	228.37
1023.65	226.41
>>>>>End Processed Spectral Data<<<<<
