SpectraSuite Data File
++++++++++++++++++++++++++++++++++++
Date: Fri Feb 01 15:25:11 EST 2013
User: group
Dark Spectrum Present: No
Reference Spectrum Present: No
Number of Sampled Component Spectra: 1
Spectrometers: USB2E7196
Integration Time (usec): 35000 (USB2E7196)
Spectra Averaged: 100 (USB2E7196)
Boxcar Smoothing: 10 (USB2E7196)
Correct for Electrical Dark: No (USB2E7196)
Strobe/Lamp Enabled: No (USB2E7196)
Correct for Detector Non-linearity: No (USB2E7196)
Correct for Stray Light: No (USB2E7196)
Number of Pixels in Processed Spectrum: 2048
>>>>>Begin Processed Spectral Data<<<<<
339.09	0.00
339.48	215.38
339.86	216.50
340.24	217.65
340.63	218.72
341.01	221.77
341.39	221.70
341.78	223.32
342.16	224.50
342.54	224.87
342.93	213.23
343.31	224.01
343.69	224.52
344.07	224.99
344.46	225.44
344.84	225.83
345.22	226.07
345.60	226.36
345.99	226.55
346.37	226.68
346.75	226.78
347.13	226.86
347.52	226.92
347.90	226.99
348.28	227.08
348.66	227.15
349.05	227.17
349.43	227.25
349.81	227.30
350.19	227.35
350.57	227.38
350.96	227.47
351.34	227.57
351.72	227.69
352.10	227.80
352.48	227.88
352.87	227.96
353.25	228.04
353.63	228.08
354.01	228.15
354.39	228.26
354.77	228.34
355.15	228.46
355.54	228.55
355.92	228.62
356.30	228.67
356.68	228.82
357.06	228.89
357.44	228.97
357.82	229.04
358.20	229.13
358.58	229.20
358.97	229.24
359.35	229.30
359.73	229.39
360.11	229.44
360.49	229.50
360.87	229.54
361.25	229.60
361.63	229.68
362.01	229.73
362.39	229.72
362.77	229.78
363.15	229.77
363.53	229.80
363.91	229.76
364.29	229.79
364.67	229.71
365.05	229.69
365.43	229.66
365.81	229.67
366.19	229.71
366.57	229.77
366.95	229.76
367.33	229.75
367.71	229.70
368.09	229.69
368.47	229.67
368.85	229.66
369.23	229.63
369.61	229.58
369.99	229.55
370.37	229.51
370.75	229.50
371.13	229.44
371.51	229.34
371.89	229.31
372.27	229.24
372.65	229.18
373.03	229.16
373.41	229.06
373.78	228.99
374.16	228.87
374.54	228.76
374.92	228.67
375.30	228.59
375.68	228.53
376.06	228.42
376.44	228.30
376.82	228.23
377.19	228.13
377.57	228.04
377.95	227.95
378.33	227.84
378.71	227.71
379.09	227.67
379.47	227.63
379.84	227.56
380.22	227.47
380.60	227.37
380.98	227.31
381.36	227.26
381.73	227.20
382.11	227.17
382.49	227.09
382.87	227.03
383.25	226.97
383.62	226.96
384.00	226.92
384.38	226.87
384.76	226.81
385.13	226.81
385.51	226.75
385.89	226.68
386.27	226.66
386.64	226.63
387.02	226.56
387.40	226.50
387.78	226.45
388.15	226.45
388.53	226.41
388.91	226.33
389.29	226.29
389.66	226.26
390.04	226.22
390.42	226.22
390.79	226.23
391.17	226.21
391.55	226.17
391.92	226.17
392.30	226.18
392.68	226.18
393.05	226.21
393.43	226.21
393.81	226.26
394.18	226.27
394.56	226.30
394.94	226.39
395.31	226.43
395.69	226.52
396.06	226.56
396.44	226.62
396.82	226.69
397.19	226.80
397.57	226.85
397.95	226.91
398.32	226.95
398.70	227.04
399.07	227.14
399.45	227.20
399.82	227.27
400.20	227.38
400.58	227.45
400.95	227.47
401.33	227.63
401.70	227.79
402.08	227.91
402.45	228.03
402.83	228.13
403.20	228.26
403.58	228.37
403.95	228.52
404.33	228.67
404.71	228.82
405.08	229.03
405.46	229.19
405.83	229.35
406.21	229.51
406.58	229.66
406.96	229.84
407.33	230.00
407.70	230.21
408.08	230.48
408.45	230.74
408.83	230.98
409.20	231.20
409.58	231.38
409.95	231.63
410.33	231.87
410.70	232.09
411.08	232.39
411.45	232.68
411.82	232.97
412.20	233.32
412.57	233.73
412.95	233.97
413.32	234.35
413.69	234.75
414.07	235.19
414.44	235.64
414.82	236.07
415.19	236.62
415.56	237.17
415.94	237.70
416.31	238.31
416.68	238.94
417.06	239.59
417.43	240.27
417.81	241.02
418.18	241.80
418.55	242.64
418.93	243.51
419.30	244.36
419.67	245.31
420.04	246.25
420.42	247.19
420.79	248.39
421.16	249.55
421.54	250.76
421.91	251.97
422.28	253.23
422.66	254.59
423.03	255.87
423.40	257.21
423.77	258.63
424.15	260.04
424.52	261.49
424.89	263.10
425.26	264.61
425.64	266.05
426.01	267.62
426.38	269.29
426.75	270.95
427.13	272.71
427.50	274.50
427.87	276.36
428.24	278.26
428.61	279.98
428.99	281.91
429.36	284.02
429.73	286.06
430.10	288.08
430.47	290.12
430.85	292.27
431.22	294.51
431.59	296.86
431.96	299.10
432.33	301.62
432.70	304.02
433.08	306.87
433.45	309.56
433.82	312.20
434.19	315.06
434.56	317.90
434.93	320.56
435.30	323.24
435.68	326.18
436.05	329.02
436.42	331.83
436.79	334.37
437.16	337.06
437.53	339.91
437.90	342.76
438.27	345.55
438.64	348.40
439.01	350.97
439.38	353.22
439.75	355.38
440.13	357.87
440.50	360.25
440.87	362.07
441.24	364.04
441.61	366.17
441.98	367.71
442.35	369.48
442.72	371.37
443.09	373.17
443.46	374.18
443.83	374.78
444.20	375.36
444.57	376.23
444.94	376.50
445.31	376.86
445.68	377.20
446.05	377.28
446.42	376.89
446.79	376.49
447.16	376.06
447.53	375.79
447.90	374.66
448.27	373.49
448.64	371.93
449.01	370.75
449.37	368.81
449.74	366.94
450.11	364.71
450.48	362.21
450.85	359.64
451.22	357.45
451.59	355.41
451.96	353.41
452.33	350.76
452.70	348.39
453.07	345.55
453.43	342.66
453.80	339.86
454.17	337.15
454.54	334.63
454.91	331.86
455.28	329.16
455.65	326.66
456.02	324.21
456.38	322.05
456.75	319.39
457.12	317.16
457.49	314.87
457.86	312.71
458.23	310.84
458.59	308.77
458.96	306.70
459.33	304.84
459.70	302.99
460.07	301.48
460.43	299.77
460.80	298.16
461.17	296.67
461.54	295.17
461.91	293.74
462.27	292.25
462.64	291.02
463.01	289.65
463.38	288.31
463.74	286.92
464.11	285.76
464.48	284.69
464.85	283.52
465.21	282.65
465.58	281.67
465.95	280.58
466.32	279.71
466.68	278.76
467.05	277.84
467.42	276.96
467.78	276.03
468.15	275.13
468.52	274.41
468.88	273.58
469.25	272.78
469.62	272.18
469.98	271.49
470.35	270.85
470.72	270.22
471.08	269.58
471.45	269.05
471.82	268.48
472.18	267.87
472.55	267.44
472.92	266.93
473.28	266.48
473.65	266.03
474.02	265.56
474.38	265.17
474.75	264.83
475.11	264.48
475.48	264.18
475.85	263.97
476.21	263.76
476.58	263.54
476.94	263.37
477.31	263.17
477.67	263.03
478.04	262.90
478.41	262.85
478.77	262.88
479.14	262.81
479.50	262.83
479.87	262.94
480.23	263.01
480.60	263.09
480.96	263.19
481.33	263.37
481.69	263.58
482.06	263.85
482.42	264.09
482.79	264.34
483.15	264.72
483.52	265.11
483.88	265.46
484.25	265.85
484.61	266.32
484.98	266.78
485.34	267.36
485.71	267.95
486.07	268.54
486.44	269.12
486.80	269.82
487.17	270.56
487.53	271.34
487.90	272.19
488.26	273.12
488.62	274.11
488.99	275.09
489.35	276.11
489.72	277.22
490.08	278.41
490.44	279.64
490.81	280.89
491.17	282.21
491.54	283.70
491.90	285.27
492.26	286.93
492.63	288.68
492.99	290.42
493.36	292.33
493.72	294.39
494.08	296.51
494.45	298.75
494.81	301.11
495.17	303.51
495.54	306.09
495.90	308.76
496.26	311.53
496.63	314.50
496.99	317.61
497.35	320.87
497.72	324.23
498.08	327.78
498.44	331.48
498.80	335.45
499.17	339.50
499.53	343.62
499.89	347.99
500.26	352.45
500.62	357.13
500.98	362.12
501.34	367.19
501.71	372.51
502.07	377.92
502.43	383.53
502.79	389.39
503.16	395.41
503.52	401.71
503.88	408.13
504.24	414.72
504.60	421.59
504.97	428.72
505.33	436.08
505.69	443.75
506.05	451.55
506.41	459.38
506.78	467.51
507.14	476.02
507.50	484.67
507.86	493.69
508.22	502.86
508.59	512.03
508.95	521.60
509.31	531.40
509.67	541.44
510.03	551.73
510.39	562.30
510.75	573.15
511.12	584.16
511.48	595.49
511.84	607.01
512.20	618.50
512.56	630.44
512.92	642.55
513.28	654.74
513.64	667.20
514.00	679.99
514.37	692.89
514.73	705.90
515.09	718.97
515.45	732.26
515.81	745.93
516.17	759.89
516.53	774.07
516.89	788.27
517.25	802.55
517.61	817.03
517.97	831.61
518.33	846.07
518.69	860.82
519.05	875.82
519.41	890.98
519.77	906.59
520.13	922.13
520.49	937.60
520.85	953.25
521.21	969.06
521.57	985.29
521.93	1001.20
522.29	1017.61
522.65	1033.89
523.01	1050.23
523.37	1066.29
523.73	1082.53
524.09	1098.67
524.45	1115.10
524.81	1131.83
525.17	1148.72
525.53	1165.59
525.89	1182.51
526.25	1199.31
526.61	1215.80
526.97	1232.67
527.33	1249.23
527.68	1265.76
528.04	1282.35
528.40	1299.04
528.76	1316.19
529.12	1332.85
529.48	1349.70
529.84	1365.88
530.20	1382.59
530.56	1399.73
530.91	1417.11
531.27	1433.94
531.63	1450.56
531.99	1467.22
532.35	1483.24
532.71	1499.16
533.07	1515.41
533.42	1531.35
533.78	1547.44
534.14	1563.79
534.50	1579.15
534.86	1595.10
535.21	1610.44
535.57	1626.49
535.93	1641.98
536.29	1656.74
536.65	1671.87
537.00	1686.88
537.36	1702.22
537.72	1716.81
538.08	1731.20
538.44	1745.17
538.79	1759.29
539.15	1773.05
539.51	1786.85
539.87	1801.20
540.22	1814.99
540.58	1828.96
540.94	1842.49
541.29	1855.53
541.65	1868.30
542.01	1881.68
542.37	1894.01
542.72	1906.45
543.08	1918.23
543.44	1930.78
543.79	1942.06
544.15	1953.12
544.51	1964.48
544.87	1975.53
545.22	1986.29
545.58	1996.51
545.94	2006.30
546.29	2016.03
546.65	2025.88
547.01	2035.02
547.36	2043.79
547.72	2052.35
548.07	2060.18
548.43	2068.40
548.79	2076.41
549.14	2084.04
549.50	2091.39
549.86	2099.24
550.21	2106.61
550.57	2113.70
550.92	2120.29
551.28	2127.40
551.64	2134.48
551.99	2141.13
552.35	2147.28
552.70	2153.37
553.06	2159.39
553.41	2165.70
553.77	2171.72
554.13	2177.79
554.48	2183.92
554.84	2189.35
555.19	2194.63
555.55	2199.77
555.90	2204.16
556.26	2209.01
556.61	2213.70
556.97	2217.85
557.32	2221.83
557.68	2226.02
558.03	2230.42
558.39	2234.04
558.74	2238.68
559.10	2242.48
559.45	2246.16
559.81	2250.55
560.16	2254.55
560.52	2257.81
560.87	2261.24
561.23	2263.88
561.58	2266.77
561.94	2269.42
562.29	2271.89
562.64	2274.49
563.00	2277.12
563.35	2280.53
563.71	2283.79
564.06	2286.94
564.42	2289.84
564.77	2292.18
565.12	2294.35
565.48	2296.12
565.83	2297.95
566.19	2299.23
566.54	2300.22
566.89	2301.33
567.25	2301.77
567.60	2303.21
567.96	2304.78
568.31	2305.68
568.66	2306.76
569.02	2307.20
569.37	2307.47
569.72	2308.21
570.08	2308.26
570.43	2308.20
570.78	2307.66
571.14	2305.94
571.49	2304.54
571.84	2304.11
572.20	2302.91
572.55	2301.81
572.90	2300.19
573.26	2298.75
573.61	2296.94
573.96	2294.92
574.31	2291.83
574.67	2288.73
575.02	2284.90
575.37	2281.34
575.72	2277.35
576.08	2274.02
576.43	2270.81
576.78	2266.99
577.13	2263.74
577.49	2260.61
577.84	2256.93
578.19	2253.14
578.54	2249.38
578.90	2245.09
579.25	2239.50
579.60	2234.61
579.95	2229.51
580.30	2224.55
580.66	2219.35
581.01	2214.36
581.36	2209.49
581.71	2205.28
582.06	2200.75
582.42	2196.26
582.77	2191.01
583.12	2186.30
583.47	2181.47
583.82	2176.32
584.17	2171.03
584.53	2165.41
584.88	2159.68
585.23	2153.80
585.58	2148.20
585.93	2142.77
586.28	2137.85
586.63	2132.66
586.98	2127.53
587.34	2122.82
587.69	2117.74
588.04	2112.30
588.39	2106.60
588.74	2100.02
589.09	2093.74
589.44	2086.86
589.79	2080.73
590.14	2075.09
590.49	2068.63
590.84	2062.16
591.19	2056.12
591.54	2049.64
591.89	2042.15
592.25	2035.38
592.60	2028.25
592.95	2020.54
593.30	2013.03
593.65	2005.37
594.00	1998.34
594.35	1991.06
594.70	1982.87
595.05	1975.53
595.40	1968.19
595.75	1960.57
596.10	1954.21
596.45	1947.45
596.80	1941.22
597.15	1934.45
597.50	1927.16
597.85	1920.66
598.19	1913.84
598.54	1906.60
598.89	1899.91
599.24	1893.98
599.59	1887.19
599.94	1880.85
600.29	1874.53
600.64	1868.04
600.99	1860.57
601.34	1853.62
601.69	1846.59
602.04	1839.54
602.39	1832.19
602.74	1825.40
603.08	1818.62
603.43	1811.85
603.78	1804.53
604.13	1797.26
604.48	1790.03
604.83	1783.27
605.18	1776.14
605.53	1768.20
605.87	1760.05
606.22	1752.81
606.57	1744.89
606.92	1737.60
607.27	1730.39
607.62	1723.44
607.96	1715.98
608.31	1709.33
608.66	1701.54
609.01	1693.99
609.36	1686.46
609.70	1678.58
610.05	1670.45
610.40	1662.69
610.75	1654.50
611.10	1646.78
611.44	1638.47
611.79	1630.40
612.14	1621.64
612.49	1612.51
612.83	1604.11
613.18	1596.12
613.53	1588.00
613.88	1579.42
614.22	1571.09
614.57	1562.53
614.92	1554.46
615.27	1546.93
615.61	1538.62
615.96	1530.81
616.31	1523.20
616.65	1515.87
617.00	1508.29
617.35	1500.63
617.70	1492.24
618.04	1483.72
618.39	1475.45
618.74	1467.78
619.08	1459.42
619.43	1451.93
619.78	1445.01
620.12	1437.90
620.47	1430.35
620.82	1422.14
621.16	1414.79
621.51	1407.20
621.85	1399.73
622.20	1391.22
622.55	1382.87
622.89	1374.97
623.24	1367.32
623.59	1359.98
623.93	1352.51
624.28	1345.08
624.62	1337.50
624.97	1330.40
625.32	1323.66
625.66	1316.76
626.01	1309.59
626.35	1302.15
626.70	1294.49
627.04	1286.82
627.39	1278.92
627.73	1271.55
628.08	1264.61
628.43	1257.17
628.77	1249.75
629.12	1241.98
629.46	1234.73
629.81	1227.34
630.15	1220.11
630.50	1212.73
630.84	1204.50
631.19	1196.53
631.53	1189.15
631.88	1181.58
632.22	1173.99
632.57	1166.66
632.91	1159.01
633.26	1151.51
633.60	1144.18
633.95	1137.06
634.29	1129.90
634.64	1123.36
634.98	1116.02
635.32	1108.83
635.67	1102.36
636.01	1095.67
636.36	1088.92
636.70	1082.48
637.05	1075.88
637.39	1069.46
637.73	1062.81
638.08	1056.97
638.42	1050.95
638.77	1044.49
639.11	1037.90
639.45	1031.60
639.80	1024.90
640.14	1018.50
640.49	1011.98
640.83	1005.71
641.17	999.39
641.52	993.12
641.86	986.64
642.20	980.75
642.55	974.53
642.89	967.93
643.23	961.45
643.58	955.66
643.92	949.40
644.26	943.31
644.61	937.25
644.95	931.27
645.29	924.60
645.64	917.87
645.98	911.63
646.32	905.82
646.66	899.71
647.01	893.95
647.35	888.30
647.69	882.56
648.04	877.07
648.38	871.31
648.72	865.32
649.06	859.21
649.41	853.28
649.75	847.26
650.09	841.43
650.43	835.62
650.78	829.47
651.12	823.59
651.46	817.90
651.80	812.13
652.14	806.72
652.49	801.35
652.83	796.27
653.17	790.48
653.51	784.75
653.85	779.36
654.20	773.68
654.54	767.73
654.88	762.00
655.22	756.13
655.56	750.47
655.90	745.06
656.25	739.86
656.59	734.52
656.93	729.41
657.27	724.28
657.61	718.83
657.95	713.76
658.29	708.62
658.64	703.41
658.98	698.19
659.32	692.78
659.66	687.59
660.00	682.27
660.34	677.40
660.68	672.54
661.02	667.56
661.36	662.86
661.70	658.30
662.05	653.90
662.39	649.51
662.73	645.03
663.07	640.60
663.41	636.15
663.75	631.68
664.09	627.16
664.43	622.77
664.77	618.64
665.11	614.44
665.45	610.31
665.79	606.20
666.13	602.05
666.47	597.93
666.81	593.71
667.15	589.53
667.49	585.59
667.83	581.76
668.17	577.78
668.51	573.71
668.85	569.70
669.19	565.87
669.53	562.03
669.87	558.13
670.21	554.40
670.55	550.75
670.89	547.37
671.23	543.90
671.57	540.39
671.91	536.91
672.25	533.42
672.58	529.91
672.92	526.55
673.26	523.39
673.60	520.25
673.94	517.16
674.28	514.32
674.62	511.38
674.96	508.31
675.30	505.42
675.64	502.50
675.97	499.79
676.31	496.89
676.65	493.98
676.99	491.26
677.33	488.48
677.67	485.62
678.01	482.57
678.34	479.57
678.68	476.75
679.02	473.98
679.36	471.20
679.70	468.58
680.04	465.82
680.37	462.94
680.71	460.21
681.05	457.66
681.39	454.93
681.73	452.27
682.06	449.72
682.40	447.16
682.74	444.70
683.08	442.11
683.42	439.58
683.75	437.10
684.09	434.61
684.43	432.11
684.77	429.67
685.10	427.33
685.44	425.08
685.78	422.73
686.12	420.47
686.45	418.20
686.79	415.86
687.13	413.69
687.46	411.57
687.80	409.44
688.14	407.26
688.48	405.20
688.81	402.94
689.15	400.87
689.49	398.76
689.82	396.70
690.16	394.61
690.50	392.59
690.83	390.61
691.17	388.66
691.51	386.82
691.84	385.02
692.18	383.08
692.52	381.06
692.85	379.14
693.19	377.27
693.52	375.41
693.86	373.64
694.20	371.83
694.53	370.03
694.87	368.18
695.21	366.34
695.54	364.57
695.88	362.88
696.21	361.12
696.55	359.40
696.88	357.67
697.22	356.05
697.56	354.46
697.89	352.84
698.23	351.20
698.56	349.55
698.90	347.99
699.23	346.31
699.57	344.81
699.90	343.28
700.24	341.73
700.58	340.23
700.91	338.69
701.25	337.26
701.58	335.86
701.92	334.47
702.25	333.09
702.59	331.71
702.92	330.36
703.26	329.07
703.59	327.82
703.93	326.63
704.26	325.37
704.60	324.06
704.93	322.79
705.26	321.53
705.60	320.36
705.93	319.18
706.27	318.20
706.60	317.13
706.94	316.04
707.27	314.86
707.61	313.77
707.94	312.74
708.27	311.64
708.61	310.59
708.94	309.61
709.28	308.62
709.61	307.66
709.94	306.73
710.28	305.67
710.61	304.71
710.95	303.66
711.28	302.77
711.61	301.86
711.95	300.94
712.28	299.99
712.61	299.03
712.95	298.07
713.28	297.17
713.61	296.25
713.95	295.42
714.28	294.69
714.61	293.88
714.95	293.04
715.28	292.19
715.61	291.34
715.95	290.43
716.28	289.63
716.61	288.82
716.95	287.96
717.28	287.25
717.61	286.49
717.94	285.75
718.28	284.91
718.61	284.19
718.94	283.51
719.27	282.87
719.61	282.21
719.94	281.56
720.27	280.84
720.60	280.21
720.94	279.57
721.27	278.92
721.60	278.33
721.93	277.72
722.27	277.17
722.60	276.65
722.93	276.08
723.26	275.55
723.59	274.98
723.93	274.46
724.26	273.89
724.59	273.31
724.92	272.79
725.25	272.31
725.59	271.80
725.92	271.29
726.25	270.78
726.58	270.30
726.91	269.79
727.24	269.32
727.57	268.86
727.91	268.33
728.24	267.88
728.57	267.36
728.90	266.92
729.23	266.45
729.56	265.95
729.89	265.56
730.22	265.07
730.55	264.61
730.89	264.18
731.22	263.73
731.55	263.33
731.88	262.89
732.21	262.47
732.54	262.00
732.87	261.54
733.20	261.15
733.53	260.75
733.86	260.38
734.19	260.02
734.52	259.64
734.85	259.32
735.18	258.89
735.51	258.54
735.84	258.21
736.17	257.85
736.50	257.47
736.83	257.20
737.16	256.88
737.49	256.55
737.82	256.18
738.15	255.88
738.48	255.54
738.81	255.22
739.14	254.90
739.47	254.62
739.80	254.34
740.13	254.06
740.46	253.73
740.79	253.44
741.12	253.10
741.45	252.79
741.78	252.48
742.11	252.20
742.44	251.88
742.77	251.60
743.10	251.31
743.43	251.03
743.75	250.67
744.08	250.50
744.41	250.21
744.74	249.96
745.07	249.65
745.40	249.41
745.73	249.22
746.06	248.95
746.39	248.69
746.71	248.45
747.04	248.16
747.37	247.89
747.70	247.63
748.03	247.36
748.36	247.11
748.68	246.85
749.01	246.61
749.34	246.43
749.67	246.16
750.00	245.92
750.33	245.75
750.65	245.51
750.98	245.21
751.31	245.01
751.64	244.80
751.97	244.64
752.29	244.38
752.62	244.07
752.95	243.84
753.28	243.64
753.60	243.42
753.93	243.23
754.26	243.04
754.59	242.83
754.91	242.64
755.24	242.46
755.57	242.26
755.90	242.06
756.22	241.85
756.55	241.64
756.88	241.43
757.20	241.22
757.53	241.03
757.86	240.81
758.19	240.65
758.51	240.47
758.84	240.26
759.17	240.09
759.49	239.95
759.82	239.82
760.15	239.67
760.47	239.54
760.80	239.38
761.13	239.26
761.45	239.12
761.78	238.95
762.11	238.83
762.43	238.71
762.76	238.58
763.08	238.43
763.41	238.29
763.74	238.18
764.06	238.03
764.39	237.90
764.71	237.75
765.04	237.57
765.37	237.44
765.69	237.30
766.02	237.17
766.34	237.02
766.67	236.88
767.00	236.79
767.32	236.70
767.65	236.64
767.97	236.50
768.30	236.38
768.62	236.30
768.95	236.17
769.27	236.03
769.60	235.94
769.92	235.88
770.25	235.77
770.57	235.64
770.90	235.53
771.22	235.41
771.55	235.35
771.87	235.30
772.20	235.19
772.52	235.17
772.85	235.17
773.17	235.13
773.50	235.05
773.82	234.91
774.15	234.75
774.47	234.61
774.80	234.50
775.12	234.43
775.45	234.32
775.77	234.26
776.09	234.21
776.42	234.10
776.74	234.01
777.07	233.93
777.39	233.87
777.72	233.80
778.04	233.75
778.36	233.69
778.69	233.60
779.01	233.57
779.33	233.44
779.66	233.27
779.98	233.18
780.31	233.11
780.63	233.11
780.95	233.09
781.28	233.01
781.60	232.95
781.92	232.86
782.25	232.81
782.57	232.71
782.89	232.63
783.22	232.55
783.54	232.49
783.86	232.47
784.19	232.43
784.51	232.37
784.83	232.28
785.16	232.19
785.48	232.13
785.80	232.06
786.12	232.04
786.45	232.02
786.77	231.97
787.09	231.89
787.42	231.80
787.74	231.76
788.06	231.73
788.38	231.68
788.71	231.66
789.03	231.62
789.35	231.64
789.67	231.59
789.99	231.56
790.32	231.48
790.64	231.44
790.96	231.45
791.28	231.40
791.61	231.38
791.93	231.36
792.25	231.32
792.57	231.38
792.89	231.31
793.21	231.27
793.54	231.23
793.86	231.21
794.18	231.16
794.50	231.07
794.82	231.04
795.14	230.99
795.47	230.96
795.79	230.93
796.11	230.86
796.43	230.85
796.75	230.82
797.07	230.81
797.39	230.76
797.71	230.68
798.04	230.67
798.36	230.63
798.68	230.58
799.00	230.55
799.32	230.46
799.64	230.45
799.96	230.44
800.28	230.42
800.60	230.37
800.92	230.36
801.24	230.38
801.56	230.35
801.89	230.32
802.21	230.28
802.53	230.22
802.85	230.22
803.17	230.22
803.49	230.19
803.81	230.12
804.13	230.10
804.45	230.02
804.77	229.97
805.09	229.95
805.41	229.89
805.73	229.88
806.05	229.77
806.37	229.72
806.69	229.66
807.01	229.64
807.33	229.63
807.65	229.57
807.97	229.57
808.28	229.53
808.60	229.51
808.92	229.51
809.24	229.56
809.56	229.51
809.88	229.44
810.20	229.43
810.52	229.45
810.84	229.37
811.16	229.37
811.48	229.35
811.80	229.37
812.12	229.38
812.43	229.38
812.75	229.40
813.07	229.38
813.39	229.38
813.71	229.36
814.03	229.31
814.35	229.27
814.67	229.22
814.98	229.19
815.30	229.16
815.62	229.12
815.94	229.04
816.26	229.04
816.58	228.99
816.89	228.98
817.21	228.94
817.53	228.97
817.85	228.95
818.17	228.95
818.48	228.86
818.80	228.86
819.12	228.84
819.44	228.81
819.76	228.78
820.07	228.75
820.39	228.70
820.71	228.72
821.03	228.74
821.34	228.69
821.66	228.69
821.98	228.69
822.30	228.67
822.61	228.70
822.93	228.65
823.25	228.67
823.57	228.63
823.88	228.65
824.20	228.64
824.52	228.64
824.83	228.62
825.15	228.60
825.47	228.58
825.79	228.54
826.10	228.51
826.42	228.49
826.74	228.46
827.05	228.49
827.37	228.47
827.69	228.46
828.00	228.47
828.32	228.48
828.64	228.47
828.95	228.51
829.27	228.50
829.58	228.47
829.90	228.48
830.22	228.50
830.53	228.42
830.85	228.38
831.17	228.31
831.48	228.30
831.80	228.32
832.11	228.33
832.43	228.29
832.75	228.28
833.06	228.34
833.38	228.32
833.69	228.28
834.01	228.28
834.32	228.25
834.64	228.19
834.96	228.14
835.27	228.11
835.59	228.08
835.90	228.04
836.22	228.06
836.53	227.98
836.85	227.95
837.16	228.06
837.48	228.07
837.79	228.10
838.11	228.14
838.42	228.12
838.74	228.12
839.05	228.12
839.37	228.12
839.68	228.05
840.00	228.07
840.31	228.10
840.63	228.06
840.94	228.05
841.26	228.07
841.57	228.08
841.88	228.11
842.20	228.08
842.51	228.07
842.83	228.06
843.14	228.17
843.46	228.16
843.77	228.11
844.08	228.10
844.40	228.07
844.71	228.03
845.03	227.98
845.34	227.98
845.65	227.95
845.97	227.93
846.28	227.93
846.60	227.93
846.91	227.90
847.22	227.91
847.54	227.94
847.85	227.94
848.16	227.94
848.48	227.89
848.79	227.92
849.10	227.90
849.42	227.92
849.73	227.81
850.04	227.83
850.36	227.78
850.67	227.80
850.98	227.79
851.30	227.80
851.61	227.85
851.92	227.82
852.23	227.85
852.55	227.85
852.86	227.86
853.17	227.85
853.49	227.83
853.80	227.85
854.11	227.86
854.42	227.84
854.74	227.83
855.05	227.85
855.36	227.81
855.67	227.83
855.99	227.78
856.30	227.89
856.61	227.86
856.92	227.88
857.23	227.88
857.55	227.89
857.86	227.85
858.17	227.86
858.48	227.85
858.79	227.82
859.11	227.84
859.42	227.80
859.73	227.77
860.04	227.77
860.35	227.72
860.66	227.68
860.98	227.67
861.29	227.66
861.60	227.63
861.91	227.61
862.22	227.58
862.53	227.56
862.84	227.43
863.16	227.46
863.47	227.41
863.78	227.37
864.09	227.35
864.40	227.37
864.71	227.34
865.02	227.36
865.33	227.34
865.64	227.34
865.95	227.37
866.27	227.45
866.58	227.43
866.89	227.45
867.20	227.47
867.51	227.46
867.82	227.46
868.13	227.50
868.44	227.47
868.75	227.51
869.06	227.53
869.37	227.54
869.68	227.51
869.99	227.53
870.30	227.56
870.61	227.58
870.92	227.56
871.23	227.51
871.54	227.53
871.85	227.58
872.16	227.57
872.47	227.54
872.78	227.46
873.09	227.48
873.40	227.44
873.71	227.42
874.02	227.45
874.33	227.44
874.64	227.44
874.95	227.49
875.26	227.46
875.56	227.47
875.87	227.46
876.18	227.45
876.49	227.53
876.80	227.52
877.11	227.51
877.42	227.53
877.73	227.60
878.04	227.55
878.35	227.52
878.66	227.53
878.96	227.56
879.27	227.59
879.58	227.57
879.89	227.57
880.20	227.60
880.51	227.58
880.82	227.59
881.12	227.58
881.43	227.56
881.74	227.54
882.05	227.49
882.36	227.49
882.67	227.52
882.97	227.43
883.28	227.42
883.59	227.41
883.90	227.39
884.21	227.37
884.51	227.38
884.82	227.36
885.13	227.38
885.44	227.38
885.74	227.36
886.05	227.36
886.36	227.40
886.67	227.37
886.98	227.41
887.28	227.39
887.59	227.39
887.90	227.41
888.20	227.43
888.51	227.49
888.82	227.49
889.13	227.49
889.43	227.58
889.74	227.57
890.05	227.56
890.35	227.58
890.66	227.57
890.97	227.56
891.28	227.57
891.58	227.52
891.89	227.46
892.20	227.45
892.50	227.44
892.81	227.40
893.12	227.39
893.42	227.38
893.73	227.36
894.04	227.38
894.34	227.38
894.65	227.37
894.95	227.34
895.26	227.36
895.57	227.40
895.87	227.29
896.18	227.32
896.48	227.32
896.79	227.28
897.10	227.27
897.40	227.27
897.71	227.26
898.01	227.25
898.32	227.26
898.63	227.26
898.93	227.28
899.24	227.31
899.54	227.28
899.85	227.23
900.15	227.26
900.46	227.21
900.76	227.20
901.07	227.18
901.38	227.16
901.68	227.12
901.99	227.07
902.29	227.06
902.60	227.06
902.90	227.07
903.21	227.08
903.51	227.10
903.82	227.08
904.12	227.12
904.43	227.13
904.73	227.13
905.03	227.12
905.34	227.19
905.64	227.19
905.95	227.18
906.25	227.20
906.56	227.18
906.86	227.17
907.17	227.19
907.47	227.22
907.77	227.20
908.08	227.17
908.38	227.18
908.69	227.19
908.99	227.19
909.30	227.18
909.60	227.19
909.90	227.18
910.21	227.17
910.51	227.12
910.81	227.12
911.12	227.15
911.42	227.18
911.73	227.12
912.03	227.10
912.33	227.14
912.64	227.11
912.94	227.13
913.24	227.13
913.55	227.06
913.85	227.03
914.15	227.05
914.46	227.08
914.76	227.10
915.06	227.10
915.37	227.07
915.67	227.07
915.97	227.06
916.27	227.06
916.58	227.08
916.88	227.12
917.18	227.11
917.49	227.19
917.79	227.16
918.09	227.16
918.39	227.20
918.70	227.19
919.00	227.20
919.30	227.22
919.60	227.23
919.91	227.24
920.21	227.28
920.51	227.27
920.81	227.28
921.12	227.28
921.42	227.29
921.72	227.29
922.02	227.31
922.32	227.33
922.63	227.31
922.93	227.34
923.23	227.33
923.53	227.35
923.83	227.27
924.13	227.26
924.44	227.26
924.74	227.28
925.04	227.28
925.34	227.30
925.64	227.27
925.94	227.23
926.24	227.31
926.55	227.31
926.85	227.36
927.15	227.37
927.45	227.35
927.75	227.32
928.05	227.31
928.35	227.29
928.65	227.31
928.95	227.35
929.26	227.32
929.56	227.34
929.86	227.33
930.16	227.33
930.46	227.31
930.76	227.29
931.06	227.24
931.36	227.27
931.66	227.29
931.96	227.33
932.26	227.35
932.56	227.30
932.86	227.31
933.16	227.27
933.46	227.22
933.76	227.21
934.06	227.28
934.36	227.36
934.66	227.37
934.96	227.36
935.26	227.35
935.56	227.36
935.86	227.37
936.16	227.38
936.46	227.36
936.76	227.37
937.06	227.37
937.36	227.39
937.66	227.37
937.96	227.33
938.26	227.30
938.56	227.28
938.86	227.28
939.16	227.28
939.46	227.29
939.76	227.35
940.06	227.36
940.35	227.34
940.65	227.23
940.95	227.23
941.25	227.17
941.55	227.20
941.85	227.15
942.15	227.16
942.45	227.16
942.75	227.18
943.04	227.15
943.34	227.18
943.64	227.16
943.94	227.10
944.24	227.11
944.54	227.13
944.84	227.18
945.13	227.14
945.43	227.14
945.73	227.13
946.03	227.13
946.33	227.10
946.62	227.06
946.92	227.09
947.22	227.11
947.52	227.12
947.82	227.13
948.11	227.15
948.41	227.12
948.71	227.08
949.01	227.05
949.31	227.08
949.60	227.05
949.90	227.06
950.20	227.09
950.50	227.10
950.79	227.05
951.09	227.04
951.39	227.06
951.69	227.01
951.98	226.99
952.28	226.96
952.58	226.98
952.87	226.99
953.17	227.00
953.47	226.93
953.76	226.90
954.06	226.87
954.36	226.83
954.66	226.80
954.95	226.85
955.25	226.87
955.55	226.86
955.84	226.83
956.14	226.87
956.44	226.88
956.73	226.87
957.03	226.87
957.32	226.86
957.62	226.85
957.92	226.89
958.21	226.91
958.51	227.00
958.81	226.98
959.10	226.99
959.40	227.00
959.69	227.02
959.99	227.08
960.29	227.08
960.58	227.11
960.88	227.14
961.17	227.10
961.47	227.10
961.76	227.12
962.06	227.16
962.36	227.11
962.65	227.13
962.95	227.12
963.24	227.13
963.54	227.18
963.83	227.22
964.13	227.22
964.42	227.21
964.72	227.15
965.01	227.18
965.31	227.20
965.60	227.18
965.90	227.27
966.19	227.24
966.49	227.25
966.78	227.24
967.08	227.24
967.37	227.28
967.67	227.28
967.96	227.27
968.26	227.26
968.55	227.32
968.85	227.29
969.14	227.30
969.43	227.30
969.73	227.24
970.02	227.23
970.32	227.24
970.61	227.23
970.91	227.22
971.20	227.22
971.49	227.23
971.79	227.27
972.08	227.15
972.38	227.16
972.67	227.17
972.96	227.15
973.26	227.15
973.55	227.19
973.85	227.19
974.14	227.19
974.43	227.20
974.73	227.16
975.02	227.15
975.31	227.14
975.61	227.15
975.90	227.14
976.19	227.11
976.49	227.12
976.78	227.11
977.07	227.08
977.37	227.08
977.66	227.08
977.95	227.03
978.24	227.03
978.54	227.04
978.83	227.05
979.12	227.09
979.42	227.09
979.71	227.04
980.00	227.04
980.29	227.04
980.59	227.03
980.88	227.03
981.17	227.05
981.46	227.05
981.76	227.03
982.05	227.09
982.34	227.11
982.63	227.11
982.93	227.12
983.22	227.14
983.51	227.12
983.80	227.11
984.09	227.12
984.39	227.16
984.68	227.13
984.97	227.07
985.26	227.04
985.55	227.01
985.85	227.00
986.14	227.00
986.43	226.99
986.72	226.98
987.01	226.93
987.30	226.94
987.59	226.91
987.89	226.87
988.18	226.82
988.47	226.81
988.76	226.76
989.05	226.77
989.34	226.76
989.63	226.75
989.92	226.74
990.22	226.72
990.51	226.71
990.80	226.70
991.09	226.74
991.38	226.73
991.67	226.76
991.96	226.76
992.25	226.76
992.54	226.73
992.83	226.77
993.12	226.76
993.41	226.72
993.70	226.78
993.99	226.85
994.28	226.86
994.58	226.89
994.87	226.91
995.16	226.88
995.45	226.86
995.74	226.84
996.03	226.85
996.32	226.85
996.61	226.84
996.90	226.86
997.19	226.84
997.48	226.85
997.77	226.81
998.06	226.79
998.34	226.78
998.63	226.82
998.92	226.79
999.21	226.82
999.50	226.86
999.79	226.82
1000.08	226.81
1000.37	226.80
1000.66	226.75
1000.95	226.76
1001.24	226.78
1001.53	226.83
1001.82	226.87
1002.11	226.87
1002.40	226.91
1002.68	226.95
1002.97	227.02
1003.26	227.05
1003.55	227.06
1003.84	227.12
1004.13	227.18
1004.42	227.21
1004.71	227.20
1004.99	227.23
1005.28	227.25
1005.57	227.23
1005.86	227.25
1006.15	227.28
1006.44	227.30
1006.72	227.30
1007.01	227.30
1007.30	227.30
1007.59	227.26
1007.88	227.22
1008.17	227.22
1008.45	227.18
1008.74	227.15
1009.03	227.15
1009.32	227.18
1009.60	227.14
1009.89	227.10
1010.18	227.05
1010.47	227.06
1010.76	227.06
1011.04	227.05
1011.33	227.04
1011.62	227.10
1011.91	227.07
1012.19	227.08
1012.48	227.06
1012.77	227.09
1013.05	227.14
1013.34	227.17
1013.63	227.18
1013.92	227.20
1014.20	227.22
1014.49	227.26
1014.78	227.26
1015.06	227.20
1015.35	227.17
1015.64	227.20
1015.92	227.22
1016.21	227.21
1016.50	227.18
1016.78	227.19
1017.07	227.17
1017.36	227.16
1017.64	227.14
1017.93	227.13
1018.22	227.08
1018.50	227.07
1018.79	227.04
1019.08	226.98
1019.36	227.01
1019.65	226.99
1019.93	227.03
1020.22	227.01
1020.51	227.01
1020.79	226.99
1021.08	226.37
1021.36	226.60
1021.65	226.57
1021.94	227.12
1022.22	227.71
1022.51	226.93
1022.79	227.57
1023.08	227.12
1023.36	227.58
1023.65	226.38
>>>>>End Processed Spectral Data<<<<<
