SpectraSuite Data File
++++++++++++++++++++++++++++++++++++
Date: Fri Feb 01 16:16:50 EST 2013
User: group
Dark Spectrum Present: No
Reference Spectrum Present: No
Number of Sampled Component Spectra: 1
Spectrometers: USB2E7196
Integration Time (usec): 35000 (USB2E7196)
Spectra Averaged: 100 (USB2E7196)
Boxcar Smoothing: 10 (USB2E7196)
Correct for Electrical Dark: No (USB2E7196)
Strobe/Lamp Enabled: No (USB2E7196)
Correct for Detector Non-linearity: No (USB2E7196)
Correct for Stray Light: No (USB2E7196)
Number of Pixels in Processed Spectrum: 2048
>>>>>Begin Processed Spectral Data<<<<<
339.09	0.00
339.48	214.15
339.86	215.50
340.24	217.17
340.63	218.10
341.01	221.32
341.39	220.88
341.78	222.30
342.16	223.83
342.54	224.38
342.93	212.55
343.31	223.31
343.69	223.83
344.07	224.30
344.46	224.75
344.84	225.13
345.22	225.34
345.60	225.62
345.99	225.82
346.37	225.94
346.75	226.03
347.13	226.06
347.52	226.15
347.90	226.21
348.28	226.25
348.66	226.29
349.05	226.30
349.43	226.33
349.81	226.35
350.19	226.40
350.57	226.45
350.96	226.53
351.34	226.60
351.72	226.70
352.10	226.79
352.48	226.83
352.87	226.88
353.25	226.96
353.63	227.00
354.01	227.09
354.39	227.16
354.77	227.21
355.15	227.32
355.54	227.34
355.92	227.42
356.30	227.51
356.68	227.64
357.06	227.69
357.44	227.75
357.82	227.80
358.20	227.84
358.58	227.91
358.97	227.99
359.35	228.06
359.73	228.15
360.11	228.23
360.49	228.31
360.87	228.41
361.25	228.45
361.63	228.52
362.01	228.54
362.39	228.58
362.77	228.64
363.15	228.69
363.53	228.74
363.91	228.75
364.29	228.77
364.67	228.71
365.05	228.73
365.43	228.76
365.81	228.80
366.19	228.90
366.57	228.91
366.95	228.89
367.33	228.86
367.71	228.87
368.09	228.87
368.47	228.81
368.85	228.74
369.23	228.76
369.61	228.71
369.99	228.74
370.37	228.69
370.75	228.71
371.13	228.64
371.51	228.58
371.89	228.56
372.27	228.55
372.65	228.49
373.03	228.45
373.41	228.39
373.78	228.34
374.16	228.21
374.54	228.14
374.92	228.08
375.30	228.03
375.68	227.93
376.06	227.87
376.44	227.79
376.82	227.72
377.19	227.66
377.57	227.59
377.95	227.44
378.33	227.38
378.71	227.27
379.09	227.21
379.47	227.15
379.84	227.07
380.22	226.97
380.60	226.89
380.98	226.79
381.36	226.71
381.73	226.60
382.11	226.52
382.49	226.49
382.87	226.43
383.25	226.37
383.62	226.40
384.00	226.32
384.38	226.29
384.76	226.28
385.13	226.26
385.51	226.19
385.89	226.17
386.27	226.11
386.64	226.06
387.02	225.99
387.40	225.91
387.78	225.85
388.15	225.81
388.53	225.78
388.91	225.76
389.29	225.73
389.66	225.73
390.04	225.71
390.42	225.68
390.79	225.66
391.17	225.65
391.55	225.53
391.92	225.50
392.30	225.53
392.68	225.48
393.05	225.44
393.43	225.44
393.81	225.44
394.18	225.43
394.56	225.46
394.94	225.48
395.31	225.51
395.69	225.60
396.06	225.64
396.44	225.67
396.82	225.71
397.19	225.79
397.57	225.82
397.95	225.88
398.32	225.92
398.70	225.97
399.07	226.01
399.45	226.09
399.82	226.13
400.20	226.17
400.58	226.25
400.95	226.32
401.33	226.44
401.70	226.59
402.08	226.69
402.45	226.76
402.83	226.87
403.20	226.98
403.58	227.03
403.95	227.16
404.33	227.29
404.71	227.40
405.08	227.58
405.46	227.72
405.83	227.86
406.21	227.99
406.58	228.18
406.96	228.37
407.33	228.56
407.70	228.78
408.08	229.04
408.45	229.25
408.83	229.47
409.20	229.68
409.58	229.87
409.95	230.13
410.33	230.41
410.70	230.67
411.08	230.99
411.45	231.29
411.82	231.59
412.20	231.93
412.57	232.37
412.95	232.65
413.32	233.04
413.69	233.48
414.07	233.92
414.44	234.37
414.82	234.89
415.19	235.43
415.56	235.99
415.94	236.54
416.31	237.18
416.68	237.82
417.06	238.53
417.43	239.23
417.81	240.04
418.18	240.85
418.55	241.69
418.93	242.55
419.30	243.46
419.67	244.42
420.04	245.38
420.42	246.35
420.79	247.55
421.16	248.72
421.54	249.90
421.91	251.11
422.28	252.36
422.66	253.62
423.03	254.90
423.40	256.23
423.77	257.63
424.15	259.08
424.52	260.56
424.89	262.19
425.26	263.76
425.64	265.21
426.01	266.76
426.38	268.42
426.75	270.12
427.13	271.88
427.50	273.64
427.87	275.52
428.24	277.39
428.61	279.13
428.99	281.10
429.36	283.19
429.73	285.28
430.10	287.30
430.47	289.39
430.85	291.50
431.22	293.72
431.59	296.10
431.96	298.33
432.33	300.84
432.70	303.20
433.08	305.93
433.45	308.52
433.82	311.14
434.19	314.04
434.56	316.82
434.93	319.44
435.30	322.11
435.68	324.94
436.05	327.78
436.42	330.61
436.79	333.09
437.16	335.77
437.53	338.58
437.90	341.33
438.27	344.03
438.64	346.85
439.01	349.43
439.38	351.65
439.75	353.81
440.13	356.24
440.50	358.53
440.87	360.37
441.24	362.27
441.61	364.45
441.98	365.89
442.35	367.66
442.72	369.49
443.09	371.27
443.46	372.28
443.83	372.82
444.20	373.26
444.57	374.08
444.94	374.36
445.31	374.63
445.68	375.01
446.05	375.08
446.42	374.69
446.79	374.29
447.16	373.83
447.53	373.47
447.90	372.32
448.27	371.16
448.64	369.58
449.01	368.44
449.37	366.46
449.74	364.56
450.11	362.33
450.48	359.86
450.85	357.28
451.22	355.15
451.59	353.16
451.96	351.19
452.33	348.60
452.70	346.21
453.07	343.42
453.43	340.50
453.80	337.77
454.17	335.12
454.54	332.59
454.91	329.86
455.28	327.21
455.65	324.72
456.02	322.28
456.38	320.14
456.75	317.53
457.12	315.27
457.49	313.06
457.86	310.88
458.23	309.04
458.59	307.02
458.96	304.93
459.33	303.06
459.70	301.23
460.07	299.71
460.43	298.04
460.80	296.41
461.17	295.01
461.54	293.53
461.91	292.07
462.27	290.59
462.64	289.35
463.01	288.00
463.38	286.74
463.74	285.42
464.11	284.29
464.48	283.24
464.85	282.15
465.21	281.27
465.58	280.37
465.95	279.27
466.32	278.41
466.68	277.54
467.05	276.68
467.42	275.80
467.78	274.91
468.15	274.06
468.52	273.43
468.88	272.58
469.25	271.82
469.62	271.25
469.98	270.62
470.35	270.04
470.72	269.45
471.08	268.79
471.45	268.23
471.82	267.70
472.18	267.13
472.55	266.75
472.92	266.25
473.28	265.78
473.65	265.36
474.02	264.92
474.38	264.58
474.75	264.23
475.11	263.90
475.48	263.69
475.85	263.44
476.21	263.24
476.58	263.05
476.94	262.89
477.31	262.74
477.67	262.56
478.04	262.48
478.41	262.42
478.77	262.48
479.14	262.45
479.50	262.46
479.87	262.54
480.23	262.59
480.60	262.70
480.96	262.83
481.33	263.08
481.69	263.25
482.06	263.37
482.42	263.61
482.79	263.90
483.15	264.17
483.52	264.56
483.88	264.89
484.25	265.31
484.61	265.74
484.98	266.19
485.34	266.76
485.71	267.30
486.07	267.91
486.44	268.45
486.80	269.13
487.17	269.87
487.53	270.68
487.90	271.51
488.26	272.44
488.62	273.41
488.99	274.36
489.35	275.44
489.72	276.63
490.08	277.81
490.44	279.05
490.81	280.40
491.17	281.77
491.54	283.28
491.90	284.77
492.26	286.40
492.63	288.15
492.99	289.92
493.36	291.84
493.72	293.92
494.08	296.05
494.45	298.31
494.81	300.68
495.17	303.10
495.54	305.67
495.90	308.32
496.26	311.13
496.63	314.06
496.99	317.17
497.35	320.43
497.72	323.81
498.08	327.30
498.44	331.00
498.80	334.91
499.17	338.96
499.53	343.17
499.89	347.57
500.26	352.07
500.62	356.75
500.98	361.70
501.34	366.75
501.71	372.07
502.07	377.51
502.43	383.11
502.79	388.97
503.16	395.03
503.52	401.40
503.88	407.82
504.24	414.48
504.60	421.35
504.97	428.50
505.33	435.84
505.69	443.60
506.05	451.36
506.41	459.28
506.78	467.43
507.14	475.92
507.50	484.61
507.86	493.62
508.22	502.86
508.59	512.05
508.95	521.65
509.31	531.47
509.67	541.55
510.03	551.83
510.39	562.32
510.75	573.15
511.12	584.03
511.48	595.36
511.84	606.84
512.20	618.40
512.56	630.34
512.92	642.51
513.28	654.89
513.64	667.39
514.00	680.04
514.37	693.05
514.73	706.16
515.09	719.23
515.45	732.50
515.81	746.12
516.17	760.11
516.53	774.25
516.89	788.40
517.25	802.58
517.61	817.08
517.97	831.61
518.33	846.03
518.69	860.78
519.05	875.71
519.41	890.87
519.77	906.34
520.13	921.72
520.49	937.13
520.85	952.32
521.21	967.93
521.57	984.16
521.93	999.76
522.29	1015.99
522.65	1032.16
523.01	1048.36
523.37	1064.28
523.73	1080.40
524.09	1096.48
524.45	1112.69
524.81	1129.36
525.17	1146.02
525.53	1162.82
525.89	1179.65
526.25	1196.49
526.61	1212.81
526.97	1229.41
527.33	1245.75
527.68	1262.35
528.04	1278.78
528.40	1295.48
528.76	1312.61
529.12	1329.08
529.48	1346.01
529.84	1362.03
530.20	1378.56
530.56	1395.54
530.91	1412.91
531.27	1429.57
531.63	1446.00
531.99	1462.53
532.35	1478.35
532.71	1494.27
533.07	1510.57
533.42	1526.37
533.78	1542.36
534.14	1558.55
534.50	1573.96
534.86	1589.88
535.21	1605.06
535.57	1620.91
535.93	1636.33
536.29	1650.94
536.65	1666.02
537.00	1680.55
537.36	1695.79
537.72	1710.29
538.08	1724.56
538.44	1738.22
538.79	1752.13
539.15	1765.64
539.51	1779.48
539.87	1793.82
540.22	1807.43
540.58	1820.98
540.94	1834.22
541.29	1847.05
541.65	1859.73
542.01	1872.87
542.37	1885.14
542.72	1897.39
543.08	1909.08
543.44	1921.47
543.79	1932.65
544.15	1943.56
544.51	1955.18
544.87	1966.04
545.22	1976.80
545.58	1986.93
545.94	1996.69
546.29	2006.57
546.65	2016.47
547.01	2025.59
547.36	2034.16
547.72	2042.62
548.07	2050.58
548.43	2058.80
548.79	2066.77
549.14	2074.33
549.50	2081.54
549.86	2089.05
550.21	2096.34
550.57	2103.42
550.92	2109.83
551.28	2117.01
551.64	2124.00
551.99	2130.49
552.35	2136.72
552.70	2142.96
553.06	2148.99
553.41	2155.37
553.77	2161.35
554.13	2167.29
554.48	2173.42
554.84	2179.05
555.19	2184.25
555.55	2189.30
555.90	2193.69
556.26	2198.51
556.61	2203.11
556.97	2207.51
557.32	2211.71
557.68	2215.86
558.03	2220.17
558.39	2223.85
558.74	2228.27
559.10	2232.10
559.45	2235.95
559.81	2240.22
560.16	2244.00
560.52	2247.17
560.87	2250.49
561.23	2253.18
561.58	2256.21
561.94	2258.67
562.29	2260.84
562.64	2263.64
563.00	2266.10
563.35	2269.69
563.71	2272.84
564.06	2276.17
564.42	2278.98
564.77	2281.62
565.12	2284.05
565.48	2286.02
565.83	2288.05
566.19	2289.47
566.54	2290.46
566.89	2291.60
567.25	2292.05
567.60	2293.37
567.96	2295.28
568.31	2296.13
568.66	2297.32
569.02	2297.88
569.37	2298.31
569.72	2299.39
570.08	2299.67
570.43	2299.92
570.78	2299.47
571.14	2297.87
571.49	2296.48
571.84	2296.16
572.20	2295.05
572.55	2293.99
572.90	2292.38
573.26	2290.94
573.61	2289.31
573.96	2287.66
574.31	2284.67
574.67	2282.00
575.02	2278.43
575.37	2274.90
575.72	2271.22
576.08	2267.85
576.43	2264.59
576.78	2260.89
577.13	2257.71
577.49	2254.40
577.84	2250.85
578.19	2247.10
578.54	2243.67
578.90	2239.56
579.25	2234.09
579.60	2229.12
579.95	2224.05
580.30	2219.12
580.66	2213.99
581.01	2209.04
581.36	2204.12
581.71	2199.92
582.06	2195.45
582.42	2191.04
582.77	2185.99
583.12	2181.44
583.47	2176.78
583.82	2171.85
584.17	2166.78
584.53	2161.28
584.88	2155.68
585.23	2150.07
585.58	2144.61
585.93	2139.15
586.28	2134.37
586.63	2129.35
586.98	2124.43
587.34	2119.80
587.69	2115.03
588.04	2109.86
588.39	2104.24
588.74	2097.75
589.09	2091.56
589.44	2084.66
589.79	2078.53
590.14	2072.94
590.49	2066.37
590.84	2059.97
591.19	2054.00
591.54	2047.39
591.89	2040.01
592.25	2033.28
592.60	2026.01
592.95	2018.40
593.30	2010.94
593.65	2003.37
594.00	1996.46
594.35	1989.22
594.70	1981.24
595.05	1974.00
595.40	1966.79
595.75	1959.36
596.10	1953.29
596.45	1946.67
596.80	1940.60
597.15	1934.08
597.50	1927.07
597.85	1920.75
598.19	1914.05
598.54	1906.77
598.89	1900.21
599.24	1894.45
599.59	1887.92
599.94	1881.73
600.29	1875.47
600.64	1868.93
600.99	1861.54
601.34	1854.59
601.69	1847.49
602.04	1840.61
602.39	1833.30
602.74	1826.43
603.08	1819.63
603.43	1812.79
603.78	1805.48
604.13	1798.34
604.48	1791.11
604.83	1784.09
605.18	1777.13
605.53	1769.23
605.87	1761.48
606.22	1754.34
606.57	1746.42
606.92	1739.08
607.27	1732.01
607.62	1725.16
607.96	1718.06
608.31	1711.44
608.66	1703.81
609.01	1696.28
609.36	1688.81
609.70	1680.84
610.05	1672.87
610.40	1665.27
610.75	1657.06
611.10	1649.48
611.44	1640.99
611.79	1633.03
612.14	1624.42
612.49	1615.29
612.83	1606.98
613.18	1598.71
613.53	1590.49
613.88	1581.84
614.22	1573.50
614.57	1564.83
614.92	1556.77
615.27	1549.20
615.61	1540.80
615.96	1532.86
616.31	1525.33
616.65	1517.93
617.00	1510.39
617.35	1502.66
617.70	1494.30
618.04	1485.79
618.39	1477.53
618.74	1469.98
619.08	1461.60
619.43	1453.92
619.78	1446.93
620.12	1439.67
620.47	1432.27
620.82	1424.20
621.16	1416.79
621.51	1409.21
621.85	1401.57
622.20	1392.97
622.55	1384.51
622.89	1376.69
623.24	1369.01
623.59	1361.50
623.93	1353.88
624.28	1346.71
624.62	1339.21
624.97	1332.03
625.32	1325.13
625.66	1317.92
626.01	1310.75
626.35	1303.26
626.70	1295.57
627.04	1287.82
627.39	1279.91
627.73	1272.36
628.08	1265.41
628.43	1258.21
628.77	1250.75
629.12	1243.26
629.46	1236.11
629.81	1228.66
630.15	1221.52
630.50	1213.98
630.84	1205.85
631.19	1197.91
631.53	1190.34
631.88	1182.72
632.22	1175.05
632.57	1167.78
632.91	1160.31
633.26	1152.85
633.60	1145.45
633.95	1138.34
634.29	1131.29
634.64	1124.71
634.98	1117.34
635.32	1110.18
635.67	1103.53
636.01	1096.97
636.36	1090.11
636.70	1083.62
637.05	1077.14
637.39	1070.56
637.73	1064.13
638.08	1058.16
638.42	1052.23
638.77	1045.81
639.11	1039.26
639.45	1032.93
639.80	1026.32
640.14	1020.06
640.49	1013.49
640.83	1007.26
641.17	1001.07
641.52	994.75
641.86	988.26
642.20	982.46
642.55	976.05
642.89	969.56
643.23	962.96
643.58	957.31
643.92	951.11
644.26	945.06
644.61	939.06
644.95	933.11
645.29	926.50
645.64	919.77
645.98	913.37
646.32	907.44
646.66	901.38
647.01	895.62
647.35	889.78
647.69	883.89
648.04	878.28
648.38	872.44
648.72	866.35
649.06	860.33
649.41	854.39
649.75	848.52
650.09	842.58
650.43	836.82
650.78	830.62
651.12	824.65
651.46	818.87
651.80	813.12
652.14	807.69
652.49	802.44
652.83	797.21
653.17	791.51
653.51	785.86
653.85	780.39
654.20	774.68
654.54	768.67
654.88	763.00
655.22	757.15
655.56	751.51
655.90	746.23
656.25	741.02
656.59	735.66
656.93	730.62
657.27	725.41
657.61	719.98
657.95	714.80
658.29	709.70
658.64	704.49
658.98	699.20
659.32	693.75
659.66	688.50
660.00	683.18
660.34	678.25
660.68	673.32
661.02	668.33
661.36	663.57
661.70	659.08
662.05	654.72
662.39	650.44
662.73	645.97
663.07	641.48
663.41	636.96
663.75	632.51
664.09	627.89
664.43	623.55
664.77	619.42
665.11	615.19
665.45	611.01
665.79	606.87
666.13	602.69
666.47	598.61
666.81	594.44
667.15	590.37
667.49	586.42
667.83	582.59
668.17	578.67
668.51	574.67
668.85	570.64
669.19	566.79
669.53	562.92
669.87	559.04
670.21	555.34
670.55	551.75
670.89	548.28
671.23	544.85
671.57	541.29
671.91	537.74
672.25	534.23
672.58	530.75
672.92	527.36
673.26	524.19
673.60	520.97
673.94	517.84
674.28	514.87
674.62	511.92
674.96	508.78
675.30	505.91
675.64	502.97
675.97	500.17
676.31	497.27
676.65	494.38
676.99	491.63
677.33	488.73
677.67	485.87
678.01	482.89
678.34	479.87
678.68	476.98
679.02	474.16
679.36	471.39
679.70	468.67
680.04	465.88
680.37	462.95
680.71	460.13
681.05	457.51
681.39	454.81
681.73	452.16
682.06	449.63
682.40	447.03
682.74	444.42
683.08	441.90
683.42	439.31
683.75	436.78
684.09	434.23
684.43	431.81
684.77	429.35
685.10	426.90
685.44	424.63
685.78	422.34
686.12	420.07
686.45	417.75
686.79	415.45
687.13	413.28
687.46	411.14
687.80	409.07
688.14	406.88
688.48	404.85
688.81	402.65
689.15	400.48
689.49	398.33
689.82	396.30
690.16	394.16
690.50	392.17
690.83	390.19
691.17	388.20
691.51	386.26
691.84	384.43
692.18	382.60
692.52	380.63
692.85	378.73
693.19	376.88
693.52	375.06
693.86	373.20
694.20	371.40
694.53	369.65
694.87	367.74
695.21	365.94
695.54	364.09
695.88	362.35
696.21	360.64
696.55	358.95
696.88	357.27
697.22	355.64
697.56	354.05
697.89	352.42
698.23	350.82
698.56	349.22
698.90	347.65
699.23	345.99
699.57	344.42
699.90	342.85
700.24	341.32
700.58	339.81
700.91	338.31
701.25	336.88
701.58	335.49
701.92	334.19
702.25	332.81
702.59	331.42
702.92	330.12
703.26	328.82
703.59	327.57
703.93	326.40
704.26	325.11
704.60	323.84
704.93	322.58
705.26	321.33
705.60	320.15
705.93	318.95
706.27	317.85
706.60	316.82
706.94	315.72
707.27	314.54
707.61	313.45
707.94	312.49
708.27	311.38
708.61	310.25
708.94	309.23
709.28	308.28
709.61	307.34
709.94	306.34
710.28	305.30
710.61	304.32
710.95	303.24
711.28	302.36
711.61	301.39
711.95	300.48
712.28	299.51
712.61	298.52
712.95	297.58
713.28	296.73
713.61	295.83
713.95	294.98
714.28	294.18
714.61	293.31
714.95	292.43
715.28	291.57
715.61	290.73
715.95	289.86
716.28	288.94
716.61	288.10
716.95	287.28
717.28	286.48
717.61	285.68
717.94	284.91
718.28	284.09
718.61	283.34
718.94	282.59
719.27	281.98
719.61	281.30
719.94	280.66
720.27	279.92
720.60	279.22
720.94	278.56
721.27	277.93
721.60	277.35
721.93	276.72
722.27	276.18
722.60	275.63
722.93	275.03
723.26	274.53
723.59	273.94
723.93	273.40
724.26	272.89
724.59	272.31
724.92	271.76
725.25	271.29
725.59	270.77
725.92	270.30
726.25	269.73
726.58	269.26
726.91	268.76
727.24	268.26
727.57	267.82
727.91	267.32
728.24	266.84
728.57	266.35
728.90	265.89
729.23	265.39
729.56	264.93
729.89	264.46
730.22	263.97
730.55	263.52
730.89	263.06
731.22	262.61
731.55	262.16
731.88	261.80
732.21	261.35
732.54	260.92
732.87	260.48
733.20	260.12
733.53	259.70
733.86	259.32
734.19	258.94
734.52	258.56
734.85	258.25
735.18	257.86
735.51	257.49
735.84	257.14
736.17	256.79
736.50	256.41
736.83	256.20
737.16	255.86
737.49	255.53
737.82	255.19
738.15	254.89
738.48	254.60
738.81	254.24
739.14	253.94
739.47	253.64
739.80	253.33
740.13	253.02
740.46	252.74
740.79	252.44
741.12	252.13
741.45	251.78
741.78	251.48
742.11	251.21
742.44	250.92
742.77	250.64
743.10	250.36
743.43	250.06
743.75	249.66
744.08	249.53
744.41	249.26
744.74	248.97
745.07	248.67
745.40	248.41
745.73	248.21
746.06	247.93
746.39	247.68
746.71	247.43
747.04	247.16
747.37	246.92
747.70	246.67
748.03	246.46
748.36	246.23
748.68	245.93
749.01	245.63
749.34	245.42
749.67	245.20
750.00	244.97
750.33	244.81
750.65	244.59
750.98	244.25
751.31	244.03
751.64	243.84
751.97	243.70
752.29	243.46
752.62	243.17
752.95	242.95
753.28	242.69
753.60	242.49
753.93	242.27
754.26	242.03
754.59	241.81
754.91	241.57
755.24	241.37
755.57	241.18
755.90	241.05
756.22	240.78
756.55	240.53
756.88	240.31
757.20	240.04
757.53	239.83
757.86	239.62
758.19	239.44
758.51	239.23
758.84	238.98
759.17	238.79
759.49	238.62
759.82	238.52
760.15	238.37
760.47	238.20
760.80	238.02
761.13	237.89
761.45	237.72
761.78	237.58
762.11	237.45
762.43	237.29
762.76	237.12
763.08	237.02
763.41	236.93
763.74	236.79
764.06	236.70
764.39	236.59
764.71	236.49
765.04	236.32
765.37	236.21
765.69	236.09
766.02	236.00
766.34	235.89
766.67	235.73
767.00	235.64
767.32	235.61
767.65	235.55
767.97	235.44
768.30	235.32
768.62	235.21
768.95	235.10
769.27	235.02
769.60	234.93
769.92	234.78
770.25	234.62
770.57	234.55
770.90	234.43
771.22	234.34
771.55	234.24
771.87	234.14
772.20	234.03
772.52	234.02
772.85	234.03
773.17	233.97
773.50	233.87
773.82	233.78
774.15	233.62
774.47	233.50
774.80	233.41
775.12	233.34
775.45	233.28
775.77	233.21
776.09	233.12
776.42	233.04
776.74	233.04
777.07	233.00
777.39	232.90
777.72	232.80
778.04	232.75
778.36	232.70
778.69	232.68
779.01	232.65
779.33	232.53
779.66	232.39
779.98	232.33
780.31	232.26
780.63	232.21
780.95	232.16
781.28	232.11
781.60	232.05
781.92	232.01
782.25	231.95
782.57	231.88
782.89	231.85
783.22	231.78
783.54	231.67
783.86	231.66
784.19	231.61
784.51	231.60
784.83	231.54
785.16	231.48
785.48	231.40
785.80	231.35
786.12	231.28
786.45	231.21
786.77	231.15
787.09	231.13
787.42	231.10
787.74	231.07
788.06	231.04
788.38	231.01
788.71	230.94
789.03	230.88
789.35	230.86
789.67	230.78
789.99	230.75
790.32	230.70
790.64	230.64
790.96	230.70
791.28	230.60
791.61	230.53
791.93	230.48
792.25	230.40
792.57	230.39
792.89	230.36
793.21	230.32
793.54	230.27
793.86	230.18
794.18	230.10
794.50	230.04
794.82	229.96
795.14	229.89
795.47	229.85
795.79	229.82
796.11	229.74
796.43	229.68
796.75	229.64
797.07	229.61
797.39	229.56
797.71	229.44
798.04	229.42
798.36	229.39
798.68	229.36
799.00	229.34
799.32	229.27
799.64	229.23
799.96	229.18
800.28	229.16
800.60	229.12
800.92	229.10
801.24	229.05
801.56	229.06
801.89	229.04
802.21	229.02
802.53	228.94
802.85	228.94
803.17	229.01
803.49	228.98
803.81	228.92
804.13	228.89
804.45	228.86
804.77	228.85
805.09	228.83
805.41	228.79
805.73	228.77
806.05	228.73
806.37	228.69
806.69	228.67
807.01	228.62
807.33	228.63
807.65	228.59
807.97	228.59
808.28	228.58
808.60	228.55
808.92	228.53
809.24	228.61
809.56	228.55
809.88	228.47
810.20	228.43
810.52	228.45
810.84	228.41
811.16	228.36
811.48	228.32
811.80	228.33
812.12	228.30
812.43	228.30
812.75	228.30
813.07	228.28
813.39	228.26
813.71	228.24
814.03	228.18
814.35	228.15
814.67	228.13
814.98	228.08
815.30	228.04
815.62	228.03
815.94	227.91
816.26	227.95
816.58	227.92
816.89	227.93
817.21	227.90
817.53	227.91
817.85	227.89
818.17	227.86
818.48	227.82
818.80	227.83
819.12	227.75
819.44	227.71
819.76	227.70
820.07	227.71
820.39	227.70
820.71	227.68
821.03	227.66
821.34	227.62
821.66	227.62
821.98	227.65
822.30	227.63
822.61	227.69
822.93	227.63
823.25	227.63
823.57	227.61
823.88	227.60
824.20	227.58
824.52	227.59
824.83	227.61
825.15	227.58
825.47	227.58
825.79	227.60
826.10	227.57
826.42	227.54
826.74	227.52
827.05	227.49
827.37	227.52
827.69	227.51
828.00	227.54
828.32	227.52
828.64	227.49
828.95	227.49
829.27	227.47
829.58	227.48
829.90	227.46
830.22	227.46
830.53	227.45
830.85	227.42
831.17	227.37
831.48	227.35
831.80	227.32
832.11	227.29
832.43	227.30
832.75	227.32
833.06	227.38
833.38	227.35
833.69	227.34
834.01	227.32
834.32	227.31
834.64	227.27
834.96	227.23
835.27	227.22
835.59	227.19
835.90	227.15
836.22	227.13
836.53	227.11
836.85	227.07
837.16	227.17
837.48	227.17
837.79	227.22
838.11	227.22
838.42	227.21
838.74	227.22
839.05	227.21
839.37	227.18
839.68	227.12
840.00	227.09
840.31	227.08
840.63	227.08
840.94	227.03
841.26	227.03
841.57	227.04
841.88	227.02
842.20	227.01
842.51	227.01
842.83	227.00
843.14	227.07
843.46	227.06
843.77	226.99
844.08	226.96
844.40	226.92
844.71	226.92
845.03	226.91
845.34	226.92
845.65	226.90
845.97	226.91
846.28	226.93
846.60	226.96
846.91	226.94
847.22	226.93
847.54	226.98
847.85	226.97
848.16	226.97
848.48	226.98
848.79	226.99
849.10	226.98
849.42	227.00
849.73	226.94
850.04	226.95
850.36	226.89
850.67	226.94
850.98	226.92
851.30	226.90
851.61	226.87
851.92	226.86
852.23	226.89
852.55	226.91
852.86	226.87
853.17	226.89
853.49	226.92
853.80	226.97
854.11	226.96
854.42	227.00
854.74	226.97
855.05	226.98
855.36	226.95
855.67	226.97
855.99	226.97
856.30	227.04
856.61	227.02
856.92	227.02
857.23	226.96
857.55	226.95
857.86	226.96
858.17	227.01
858.48	226.99
858.79	226.97
859.11	226.97
859.42	226.99
859.73	226.95
860.04	226.91
860.35	226.86
860.66	226.85
860.98	226.81
861.29	226.82
861.60	226.80
861.91	226.82
862.22	226.78
862.53	226.73
862.84	226.60
863.16	226.63
863.47	226.59
863.78	226.61
864.09	226.64
864.40	226.61
864.71	226.57
865.02	226.59
865.33	226.58
865.64	226.53
865.95	226.51
866.27	226.57
866.58	226.56
866.89	226.54
867.20	226.52
867.51	226.52
867.82	226.49
868.13	226.47
868.44	226.46
868.75	226.48
869.06	226.49
869.37	226.52
869.68	226.48
869.99	226.55
870.30	226.54
870.61	226.54
870.92	226.54
871.23	226.52
871.54	226.51
871.85	226.51
872.16	226.51
872.47	226.51
872.78	226.47
873.09	226.50
873.40	226.51
873.71	226.51
874.02	226.51
874.33	226.53
874.64	226.53
874.95	226.53
875.26	226.51
875.56	226.51
875.87	226.50
876.18	226.50
876.49	226.57
876.80	226.58
877.11	226.55
877.42	226.56
877.73	226.56
878.04	226.54
878.35	226.54
878.66	226.56
878.96	226.57
879.27	226.53
879.58	226.49
879.89	226.49
880.20	226.52
880.51	226.50
880.82	226.53
881.12	226.54
881.43	226.52
881.74	226.50
882.05	226.47
882.36	226.49
882.67	226.48
882.97	226.39
883.28	226.40
883.59	226.41
883.90	226.42
884.21	226.46
884.51	226.49
884.82	226.48
885.13	226.50
885.44	226.51
885.74	226.56
886.05	226.58
886.36	226.59
886.67	226.57
886.98	226.64
887.28	226.62
887.59	226.64
887.90	226.66
888.20	226.66
888.51	226.72
888.82	226.69
889.13	226.73
889.43	226.83
889.74	226.83
890.05	226.83
890.35	226.85
890.66	226.83
890.97	226.81
891.28	226.79
891.58	226.75
891.89	226.72
892.20	226.69
892.50	226.67
892.81	226.68
893.12	226.67
893.42	226.63
893.73	226.62
894.04	226.57
894.34	226.55
894.65	226.55
894.95	226.52
895.26	226.53
895.57	226.56
895.87	226.45
896.18	226.43
896.48	226.42
896.79	226.40
897.10	226.40
897.40	226.38
897.71	226.40
898.01	226.41
898.32	226.45
898.63	226.45
898.93	226.47
899.24	226.46
899.54	226.45
899.85	226.43
900.15	226.42
900.46	226.43
900.76	226.47
901.07	226.48
901.38	226.48
901.68	226.49
901.99	226.39
902.29	226.40
902.60	226.39
902.90	226.39
903.21	226.38
903.51	226.37
903.82	226.39
904.12	226.37
904.43	226.38
904.73	226.34
905.03	226.37
905.34	226.43
905.64	226.40
905.95	226.39
906.25	226.39
906.56	226.36
906.86	226.37
907.17	226.33
907.47	226.33
907.77	226.30
908.08	226.27
908.38	226.30
908.69	226.30
908.99	226.31
909.30	226.30
909.60	226.28
909.90	226.25
910.21	226.24
910.51	226.23
910.81	226.21
911.12	226.21
911.42	226.18
911.73	226.09
912.03	226.07
912.33	226.10
912.64	226.09
912.94	226.11
913.24	226.06
913.55	226.08
913.85	226.07
914.15	226.08
914.46	226.09
914.76	226.07
915.06	226.04
915.37	226.01
915.67	226.01
915.97	226.02
916.27	226.03
916.58	226.03
916.88	226.02
917.18	226.01
917.49	226.06
917.79	226.03
918.09	226.04
918.39	226.09
918.70	226.08
919.00	226.09
919.30	226.16
919.60	226.20
919.91	226.17
920.21	226.16
920.51	226.16
920.81	226.18
921.12	226.23
921.42	226.25
921.72	226.29
922.02	226.30
922.32	226.32
922.63	226.30
922.93	226.35
923.23	226.38
923.53	226.36
923.83	226.32
924.13	226.37
924.44	226.36
924.74	226.40
925.04	226.43
925.34	226.40
925.64	226.36
925.94	226.36
926.24	226.41
926.55	226.41
926.85	226.42
927.15	226.42
927.45	226.37
927.75	226.39
928.05	226.38
928.35	226.36
928.65	226.36
928.95	226.40
929.26	226.38
929.56	226.38
929.86	226.39
930.16	226.37
930.46	226.35
930.76	226.36
931.06	226.29
931.36	226.27
931.66	226.29
931.96	226.31
932.26	226.27
932.56	226.23
932.86	226.25
933.16	226.24
933.46	226.23
933.76	226.21
934.06	226.19
934.36	226.21
934.66	226.19
934.96	226.18
935.26	226.16
935.56	226.15
935.86	226.12
936.16	226.14
936.46	226.11
936.76	226.10
937.06	226.06
937.36	226.06
937.66	226.06
937.96	226.04
938.26	226.01
938.56	225.99
938.86	225.99
939.16	226.01
939.46	225.99
939.76	225.96
940.06	225.98
940.35	225.97
940.65	225.94
940.95	225.95
941.25	225.92
941.55	225.93
941.85	225.91
942.15	225.96
942.45	225.93
942.75	225.96
943.04	225.94
943.34	225.97
943.64	225.97
943.94	225.95
944.24	225.94
944.54	225.94
944.84	225.96
945.13	225.96
945.43	225.93
945.73	225.94
946.03	225.95
946.33	225.90
946.62	225.90
946.92	225.89
947.22	225.90
947.52	225.90
947.82	225.93
948.11	225.91
948.41	225.85
948.71	225.85
949.01	225.85
949.31	225.88
949.60	225.88
949.90	225.89
950.20	225.89
950.50	225.87
950.79	225.85
951.09	225.85
951.39	225.86
951.69	225.89
951.98	225.89
952.28	225.90
952.58	225.93
952.87	225.94
953.17	225.97
953.47	225.96
953.76	225.97
954.06	225.93
954.36	225.91
954.66	225.93
954.95	225.98
955.25	226.00
955.55	225.99
955.84	225.96
956.14	225.94
956.44	225.95
956.73	225.98
957.03	226.01
957.32	226.02
957.62	225.99
957.92	226.01
958.21	226.02
958.51	226.14
958.81	226.18
959.10	226.21
959.40	226.23
959.69	226.24
959.99	226.26
960.29	226.26
960.58	226.27
960.88	226.34
961.17	226.33
961.47	226.32
961.76	226.31
962.06	226.38
962.36	226.37
962.65	226.40
962.95	226.41
963.24	226.39
963.54	226.40
963.83	226.43
964.13	226.40
964.42	226.39
964.72	226.32
965.01	226.30
965.31	226.30
965.60	226.27
965.90	226.36
966.19	226.36
966.49	226.37
966.78	226.35
967.08	226.32
967.37	226.32
967.67	226.29
967.96	226.32
968.26	226.30
968.55	226.33
968.85	226.34
969.14	226.34
969.43	226.33
969.73	226.33
970.02	226.32
970.32	226.31
970.61	226.32
970.91	226.26
971.20	226.25
971.49	226.17
971.79	226.17
972.08	226.05
972.38	226.04
972.67	226.06
972.96	226.11
973.26	226.10
973.55	226.12
973.85	226.12
974.14	226.08
974.43	226.08
974.73	226.08
975.02	226.06
975.31	226.06
975.61	226.06
975.90	226.04
976.19	226.03
976.49	226.02
976.78	226.01
977.07	226.02
977.37	226.04
977.66	226.08
977.95	226.06
978.24	226.10
978.54	226.09
978.83	226.06
979.12	226.03
979.42	226.01
979.71	226.00
980.00	226.03
980.29	226.04
980.59	226.00
980.88	225.98
981.17	225.98
981.46	225.98
981.76	225.97
982.05	226.00
982.34	226.01
982.63	226.01
982.93	226.01
983.22	226.04
983.51	226.05
983.80	226.03
984.09	226.10
984.39	226.05
984.68	226.07
984.97	226.08
985.26	226.09
985.55	226.10
985.85	226.05
986.14	226.04
986.43	226.05
986.72	226.06
987.01	226.04
987.30	226.02
987.59	225.98
987.89	225.96
988.18	225.94
988.47	225.90
988.76	225.91
989.05	225.88
989.34	225.86
989.63	225.85
989.92	225.83
990.22	225.77
990.51	225.77
990.80	225.75
991.09	225.74
991.38	225.76
991.67	225.76
991.96	225.76
992.25	225.78
992.54	225.78
992.83	225.79
993.12	225.81
993.41	225.83
993.70	225.88
993.99	225.91
994.28	225.92
994.58	225.95
994.87	225.90
995.16	225.92
995.45	225.92
995.74	225.90
996.03	225.93
996.32	225.96
996.61	226.02
996.90	226.01
997.19	225.98
997.48	225.97
997.77	225.94
998.06	225.96
998.34	225.95
998.63	225.93
998.92	225.95
999.21	225.92
999.50	225.91
999.79	225.88
1000.08	225.87
1000.37	225.88
1000.66	225.90
1000.95	225.95
1001.24	225.96
1001.53	225.96
1001.82	225.95
1002.11	225.92
1002.40	225.95
1002.68	225.94
1002.97	226.02
1003.26	226.05
1003.55	226.06
1003.84	226.10
1004.13	226.09
1004.42	226.10
1004.71	226.14
1004.99	226.10
1005.28	226.16
1005.57	226.16
1005.86	226.14
1006.15	226.15
1006.44	226.12
1006.72	226.14
1007.01	226.16
1007.30	226.14
1007.59	226.13
1007.88	226.16
1008.17	226.19
1008.45	226.17
1008.74	226.13
1009.03	226.07
1009.32	226.06
1009.60	226.05
1009.89	226.04
1010.18	226.00
1010.47	225.99
1010.76	225.97
1011.04	225.99
1011.33	225.99
1011.62	225.98
1011.91	226.01
1012.19	226.02
1012.48	226.06
1012.77	226.07
1013.05	226.09
1013.34	226.11
1013.63	226.10
1013.92	226.14
1014.20	226.10
1014.49	226.12
1014.78	226.11
1015.06	226.11
1015.35	226.12
1015.64	226.12
1015.92	226.12
1016.21	226.16
1016.50	226.16
1016.78	226.18
1017.07	226.16
1017.36	226.11
1017.64	226.10
1017.93	226.10
1018.22	226.07
1018.50	226.04
1018.79	226.01
1019.08	225.92
1019.36	225.90
1019.65	225.90
1019.93	225.88
1020.22	225.87
1020.51	225.88
1020.79	225.88
1021.08	225.79
1021.36	225.62
1021.65	225.73
1021.94	225.35
1022.22	225.77
1022.51	225.78
1022.79	226.21
1023.08	225.42
1023.36	226.79
1023.65	225.61
>>>>>End Processed Spectral Data<<<<<
