SpectraSuite Data File
++++++++++++++++++++++++++++++++++++
Date: Fri Feb 01 15:19:54 EST 2013
User: group
Dark Spectrum Present: No
Reference Spectrum Present: No
Number of Sampled Component Spectra: 1
Spectrometers: USB2E7196
Integration Time (usec): 35000 (USB2E7196)
Spectra Averaged: 100 (USB2E7196)
Boxcar Smoothing: 10 (USB2E7196)
Correct for Electrical Dark: No (USB2E7196)
Strobe/Lamp Enabled: No (USB2E7196)
Correct for Detector Non-linearity: No (USB2E7196)
Correct for Stray Light: No (USB2E7196)
Number of Pixels in Processed Spectrum: 2048
>>>>>Begin Processed Spectral Data<<<<<
339.09	0.00
339.48	215.33
339.86	216.60
340.24	218.38
340.63	219.20
341.01	221.86
341.39	222.16
341.78	223.18
342.16	224.12
342.54	224.82
342.93	213.52
343.31	224.31
343.69	224.83
344.07	225.28
344.46	225.71
344.84	226.10
345.22	226.35
345.60	226.56
345.99	226.77
346.37	226.93
346.75	227.04
347.13	227.10
347.52	227.15
347.90	227.22
348.28	227.22
348.66	227.27
349.05	227.25
349.43	227.29
349.81	227.33
350.19	227.39
350.57	227.41
350.96	227.45
351.34	227.53
351.72	227.62
352.10	227.74
352.48	227.80
352.87	227.86
353.25	227.92
353.63	228.02
354.01	228.09
354.39	228.17
354.77	228.25
355.15	228.34
355.54	228.37
355.92	228.42
356.30	228.50
356.68	228.63
357.06	228.74
357.44	228.80
357.82	228.85
358.20	228.91
358.58	228.99
358.97	229.09
359.35	229.19
359.73	229.25
360.11	229.25
360.49	229.32
360.87	229.36
361.25	229.41
361.63	229.47
362.01	229.51
362.39	229.54
362.77	229.57
363.15	229.56
363.53	229.59
363.91	229.62
364.29	229.63
364.67	229.54
365.05	229.55
365.43	229.55
365.81	229.58
366.19	229.60
366.57	229.67
366.95	229.62
367.33	229.55
367.71	229.56
368.09	229.59
368.47	229.56
368.85	229.52
369.23	229.51
369.61	229.44
369.99	229.44
370.37	229.40
370.75	229.40
371.13	229.38
371.51	229.32
371.89	229.24
372.27	229.23
372.65	229.18
373.03	229.11
373.41	229.07
373.78	228.98
374.16	228.86
374.54	228.75
374.92	228.67
375.30	228.59
375.68	228.48
376.06	228.41
376.44	228.31
376.82	228.26
377.19	228.19
377.57	228.12
377.95	228.02
378.33	227.94
378.71	227.81
379.09	227.72
379.47	227.64
379.84	227.57
380.22	227.47
380.60	227.35
380.98	227.26
381.36	227.15
381.73	227.08
382.11	227.04
382.49	226.95
382.87	226.88
383.25	226.84
383.62	226.90
384.00	226.79
384.38	226.74
384.76	226.69
385.13	226.68
385.51	226.61
385.89	226.51
386.27	226.47
386.64	226.39
387.02	226.36
387.40	226.31
387.78	226.26
388.15	226.25
388.53	226.25
388.91	226.23
389.29	226.23
389.66	226.25
390.04	226.22
390.42	226.21
390.79	226.21
391.17	226.17
391.55	226.04
391.92	226.04
392.30	226.06
392.68	226.05
393.05	226.03
393.43	226.05
393.81	226.07
394.18	226.06
394.56	226.11
394.94	226.14
395.31	226.18
395.69	226.22
396.06	226.28
396.44	226.30
396.82	226.36
397.19	226.46
397.57	226.46
397.95	226.51
398.32	226.55
398.70	226.62
399.07	226.71
399.45	226.81
399.82	226.90
400.20	226.95
400.58	227.03
400.95	227.10
401.33	227.20
401.70	227.37
402.08	227.49
402.45	227.61
402.83	227.75
403.20	227.86
403.58	227.99
403.95	228.11
404.33	228.29
404.71	228.38
405.08	228.55
405.46	228.70
405.83	228.91
406.21	229.07
406.58	229.26
406.96	229.46
407.33	229.66
407.70	229.89
408.08	230.17
408.45	230.38
408.83	230.62
409.20	230.85
409.58	231.02
409.95	231.29
410.33	231.56
410.70	231.81
411.08	232.13
411.45	232.45
411.82	232.76
412.20	233.11
412.57	233.55
412.95	233.83
413.32	234.25
413.69	234.63
414.07	235.05
414.44	235.52
414.82	235.95
415.19	236.50
415.56	237.02
415.94	237.55
416.31	238.20
416.68	238.82
417.06	239.50
417.43	240.19
417.81	240.96
418.18	241.74
418.55	242.59
418.93	243.46
419.30	244.33
419.67	245.24
420.04	246.20
420.42	247.19
420.79	248.40
421.16	249.56
421.54	250.72
421.91	251.97
422.28	253.19
422.66	254.52
423.03	255.80
423.40	257.13
423.77	258.54
424.15	259.96
424.52	261.40
424.89	263.04
425.26	264.58
425.64	266.02
426.01	267.57
426.38	269.22
426.75	270.90
427.13	272.63
427.50	274.44
427.87	276.30
428.24	278.14
428.61	279.84
428.99	281.76
429.36	283.91
429.73	285.96
430.10	288.01
430.47	290.03
430.85	292.13
431.22	294.39
431.59	296.80
431.96	299.07
432.33	301.59
432.70	303.95
433.08	306.76
433.45	309.38
433.82	312.08
434.19	314.97
434.56	317.75
434.93	320.41
435.30	323.06
435.68	325.97
436.05	328.79
436.42	331.60
436.79	334.14
437.16	336.78
437.53	339.60
437.90	342.43
438.27	345.23
438.64	348.11
439.01	350.73
439.38	352.92
439.75	355.10
440.13	357.59
440.50	359.97
440.87	361.86
441.24	363.85
441.61	366.01
441.98	367.52
442.35	369.33
442.72	371.19
443.09	373.00
443.46	374.00
443.83	374.61
444.20	375.14
444.57	375.96
444.94	376.28
445.31	376.67
445.68	377.01
446.05	377.15
446.42	376.76
446.79	376.33
447.16	375.92
447.53	375.59
447.90	374.42
448.27	373.26
448.64	371.68
449.01	370.55
449.37	368.57
449.74	366.71
450.11	364.49
450.48	362.03
450.85	359.50
451.22	357.39
451.59	355.40
451.96	353.49
452.33	350.88
452.70	348.56
453.07	345.73
453.43	342.81
453.80	340.04
454.17	337.38
454.54	334.83
454.91	332.14
455.28	329.47
455.65	327.04
456.02	324.58
456.38	322.44
456.75	319.76
457.12	317.50
457.49	315.24
457.86	313.03
458.23	311.15
458.59	309.11
458.96	306.99
459.33	305.10
459.70	303.25
460.07	301.75
460.43	299.99
460.80	298.33
461.17	296.90
461.54	295.37
461.91	293.91
462.27	292.48
462.64	291.20
463.01	289.84
463.38	288.50
463.74	287.12
464.11	285.93
464.48	284.89
464.85	283.76
465.21	282.87
465.58	281.96
465.95	280.89
466.32	279.97
466.68	279.06
467.05	278.16
467.42	277.21
467.78	276.27
468.15	275.38
468.52	274.71
468.88	273.83
469.25	273.05
469.62	272.38
469.98	271.64
470.35	270.94
470.72	270.32
471.08	269.67
471.45	269.10
471.82	268.52
472.18	267.88
472.55	267.44
472.92	266.90
473.28	266.42
473.65	265.95
474.02	265.49
474.38	265.11
474.75	264.75
475.11	264.39
475.48	264.14
475.85	263.94
476.21	263.69
476.58	263.50
476.94	263.35
477.31	263.20
477.67	263.06
478.04	262.95
478.41	262.87
478.77	262.90
479.14	262.85
479.50	262.86
479.87	262.96
480.23	263.05
480.60	263.12
480.96	263.22
481.33	263.42
481.69	263.56
482.06	263.77
482.42	263.93
482.79	264.20
483.15	264.48
483.52	264.83
483.88	265.17
484.25	265.56
484.61	265.96
484.98	266.39
485.34	266.96
485.71	267.56
486.07	268.20
486.44	268.77
486.80	269.45
487.17	270.22
487.53	271.03
487.90	271.87
488.26	272.79
488.62	273.76
488.99	274.75
489.35	275.86
489.72	276.97
490.08	278.25
490.44	279.48
490.81	280.83
491.17	282.19
491.54	283.73
491.90	285.25
492.26	286.91
492.63	288.66
492.99	290.37
493.36	292.28
493.72	294.28
494.08	296.40
494.45	298.68
494.81	300.99
495.17	303.45
495.54	306.03
495.90	308.69
496.26	311.49
496.63	314.43
496.99	317.53
497.35	320.82
497.72	324.18
498.08	327.72
498.44	331.37
498.80	335.29
499.17	339.30
499.53	343.48
499.89	347.85
500.26	352.35
500.62	357.07
500.98	362.02
501.34	367.12
501.71	372.43
502.07	377.85
502.43	383.49
502.79	389.31
503.16	395.37
503.52	401.66
503.88	408.04
504.24	414.64
504.60	421.50
504.97	428.58
505.33	435.92
505.69	443.63
506.05	451.42
506.41	459.28
506.78	467.43
507.14	475.91
507.50	484.61
507.86	493.61
508.22	502.78
508.59	512.01
508.95	521.57
509.31	531.34
509.67	541.49
510.03	551.74
510.39	562.28
510.75	573.03
511.12	584.04
511.48	595.41
511.84	606.83
512.20	618.35
512.56	630.28
512.92	642.43
513.28	654.80
513.64	667.26
514.00	679.99
514.37	692.89
514.73	705.93
515.09	718.96
515.45	732.23
515.81	745.89
516.17	759.94
516.53	774.03
516.89	788.29
517.25	802.48
517.61	817.00
517.97	831.50
518.33	846.01
518.69	860.76
519.05	875.67
519.41	890.91
519.77	906.57
520.13	922.09
520.49	937.62
520.85	953.02
521.21	968.82
521.57	985.16
521.93	1001.07
522.29	1017.54
522.65	1033.91
523.01	1050.23
523.37	1066.29
523.73	1082.50
524.09	1098.75
524.45	1115.05
524.81	1131.74
525.17	1148.67
525.53	1165.65
525.89	1182.60
526.25	1199.53
526.61	1216.06
526.97	1232.79
527.33	1249.30
527.68	1266.01
528.04	1282.43
528.40	1299.17
528.76	1316.39
529.12	1333.03
529.48	1349.94
529.84	1366.07
530.20	1382.76
530.56	1400.03
530.91	1417.48
531.27	1434.23
531.63	1450.68
531.99	1467.33
532.35	1483.37
532.71	1499.26
533.07	1515.48
533.42	1531.41
533.78	1547.41
534.14	1563.73
534.50	1579.13
534.86	1595.16
535.21	1610.25
535.57	1626.22
535.93	1641.78
536.29	1656.64
536.65	1671.77
537.00	1686.65
537.36	1701.98
537.72	1716.57
538.08	1730.93
538.44	1744.70
538.79	1758.65
539.15	1772.55
539.51	1786.49
539.87	1800.92
540.22	1814.74
540.58	1828.67
540.94	1842.23
541.29	1855.43
541.65	1868.36
542.01	1881.75
542.37	1894.07
542.72	1906.69
543.08	1918.62
543.44	1931.03
543.79	1942.23
544.15	1953.25
544.51	1964.86
544.87	1975.81
545.22	1986.71
545.58	1996.91
545.94	2006.90
546.29	2016.79
546.65	2026.57
547.01	2035.74
547.36	2044.57
547.72	2053.06
548.07	2060.90
548.43	2068.99
548.79	2076.95
549.14	2084.40
549.50	2091.77
549.86	2099.48
550.21	2106.82
550.57	2113.95
550.92	2120.65
551.28	2127.78
551.64	2134.91
551.99	2141.46
552.35	2147.64
552.70	2153.69
553.06	2159.73
553.41	2166.01
553.77	2172.19
554.13	2178.28
554.48	2184.52
554.84	2189.91
555.19	2195.22
555.55	2200.26
555.90	2204.75
556.26	2209.56
556.61	2214.27
556.97	2218.43
557.32	2222.59
557.68	2226.70
558.03	2231.17
558.39	2234.85
558.74	2239.49
559.10	2243.40
559.45	2247.07
559.81	2251.44
560.16	2255.27
560.52	2258.40
560.87	2261.80
561.23	2264.38
561.58	2267.31
561.94	2269.72
562.29	2272.12
562.64	2274.78
563.00	2277.56
563.35	2281.08
563.71	2284.10
564.06	2287.35
564.42	2290.42
564.77	2292.76
565.12	2294.84
565.48	2296.38
565.83	2298.18
566.19	2299.31
566.54	2300.14
566.89	2301.17
567.25	2301.59
567.60	2302.91
567.96	2304.65
568.31	2305.45
568.66	2306.39
569.02	2306.84
569.37	2307.07
569.72	2307.68
570.08	2307.59
570.43	2307.47
570.78	2306.67
571.14	2305.13
571.49	2303.65
571.84	2302.99
572.20	2301.72
572.55	2300.82
572.90	2299.49
573.26	2297.98
573.61	2296.30
573.96	2294.40
574.31	2291.26
574.67	2288.23
575.02	2284.50
575.37	2281.05
575.72	2277.13
576.08	2273.93
576.43	2270.69
576.78	2266.98
577.13	2263.90
577.49	2260.91
577.84	2257.42
578.19	2253.68
578.54	2249.94
578.90	2245.59
579.25	2240.09
579.60	2235.10
579.95	2229.93
580.30	2224.77
580.66	2219.50
581.01	2214.39
581.36	2209.34
581.71	2205.14
582.06	2200.54
582.42	2195.99
582.77	2190.53
583.12	2185.85
583.47	2180.90
583.82	2175.56
584.17	2170.34
584.53	2164.60
584.88	2158.76
585.23	2152.76
585.58	2147.30
585.93	2141.83
586.28	2137.05
586.63	2131.79
586.98	2126.66
587.34	2121.97
587.69	2116.91
588.04	2111.60
588.39	2105.80
588.74	2099.30
589.09	2093.05
589.44	2086.23
589.79	2080.22
590.14	2074.58
590.49	2067.89
590.84	2061.47
591.19	2055.58
591.54	2048.94
591.89	2041.47
592.25	2034.64
592.60	2027.27
592.95	2019.55
593.30	2012.05
593.65	2004.41
594.00	1997.33
594.35	1990.03
594.70	1981.81
595.05	1974.49
595.40	1967.11
595.75	1959.61
596.10	1953.24
596.45	1946.39
596.80	1940.15
597.15	1933.28
597.50	1926.16
597.85	1919.79
598.19	1913.01
598.54	1905.80
598.89	1899.16
599.24	1893.29
599.59	1886.48
599.94	1880.37
600.29	1873.88
600.64	1867.27
600.99	1859.60
601.34	1852.64
601.69	1845.61
602.04	1838.57
602.39	1831.13
602.74	1824.20
603.08	1817.53
603.43	1810.85
603.78	1803.55
604.13	1796.25
604.48	1789.07
604.83	1782.09
605.18	1775.09
605.53	1767.01
605.87	1758.98
606.22	1751.65
606.57	1743.63
606.92	1736.37
607.27	1729.13
607.62	1722.20
607.96	1714.89
608.31	1708.21
608.66	1700.67
609.01	1693.04
609.36	1685.62
609.70	1677.62
610.05	1669.61
610.40	1661.80
610.75	1653.39
611.10	1645.71
611.44	1637.33
611.79	1629.28
612.14	1620.57
612.49	1611.46
612.83	1603.12
613.18	1595.07
613.53	1586.95
613.88	1578.36
614.22	1570.11
614.57	1561.49
614.92	1553.47
615.27	1545.89
615.61	1537.73
615.96	1529.65
616.31	1522.17
616.65	1514.76
617.00	1507.29
617.35	1499.59
617.70	1491.26
618.04	1482.82
618.39	1474.60
618.74	1467.10
619.08	1458.78
619.43	1451.16
619.78	1444.18
620.12	1437.01
620.47	1429.42
620.82	1421.24
621.16	1413.91
621.51	1406.22
621.85	1398.59
622.20	1390.02
622.55	1381.67
622.89	1373.84
623.24	1366.26
623.59	1358.89
623.93	1351.32
624.28	1344.04
624.62	1336.56
624.97	1329.43
625.32	1322.76
625.66	1315.75
626.01	1308.44
626.35	1300.98
626.70	1293.32
627.04	1285.55
627.39	1277.81
627.73	1270.31
628.08	1263.49
628.43	1256.15
628.77	1248.71
629.12	1241.19
629.46	1234.05
629.81	1226.70
630.15	1219.44
630.50	1212.07
630.84	1203.81
631.19	1195.92
631.53	1188.56
631.88	1181.02
632.22	1173.41
632.57	1166.01
632.91	1158.45
633.26	1151.16
633.60	1143.89
633.95	1136.82
634.29	1129.81
634.64	1123.19
634.98	1115.82
635.32	1108.65
635.67	1102.18
636.01	1095.61
636.36	1088.83
636.70	1082.38
637.05	1075.83
637.39	1069.35
637.73	1062.82
638.08	1057.01
638.42	1051.10
638.77	1044.51
639.11	1037.80
639.45	1031.43
639.80	1024.75
640.14	1018.34
640.49	1011.77
640.83	1005.42
641.17	999.07
641.52	992.73
641.86	986.32
642.20	980.61
642.55	974.39
642.89	967.74
643.23	961.21
643.58	955.40
643.92	949.18
644.26	943.03
644.61	937.04
644.95	931.00
645.29	924.40
645.64	917.63
645.98	911.39
646.32	905.67
646.66	899.53
647.01	893.73
647.35	888.07
647.69	882.24
648.04	876.71
648.38	870.99
648.72	864.98
649.06	858.88
649.41	852.90
649.75	846.83
650.09	840.92
650.43	835.16
650.78	829.06
651.12	823.12
651.46	817.43
651.80	811.65
652.14	806.26
652.49	800.86
652.83	795.72
653.17	789.91
653.51	784.20
653.85	778.84
654.20	773.20
654.54	767.18
654.88	761.52
655.22	755.71
655.56	750.04
655.90	744.68
656.25	739.39
656.59	734.07
656.93	728.97
657.27	723.88
657.61	718.49
657.95	713.42
658.29	708.34
658.64	703.12
658.98	697.86
659.32	692.40
659.66	687.25
660.00	681.88
660.34	677.03
660.68	672.13
661.02	667.12
661.36	662.44
661.70	658.00
662.05	653.62
662.39	649.30
662.73	644.83
663.07	640.40
663.41	635.94
663.75	631.48
664.09	626.99
664.43	622.68
664.77	618.57
665.11	614.25
665.45	610.17
665.79	606.09
666.13	601.99
666.47	597.95
666.81	593.79
667.15	589.72
667.49	585.86
667.83	582.10
668.17	578.20
668.51	574.08
668.85	570.09
669.19	566.20
669.53	562.33
669.87	558.45
670.21	554.79
670.55	551.23
670.89	547.86
671.23	544.47
671.57	540.93
671.91	537.35
672.25	533.93
672.58	530.41
672.92	527.06
673.26	523.86
673.60	520.75
673.94	517.62
674.28	514.68
674.62	511.73
674.96	508.61
675.30	505.72
675.64	502.87
675.97	500.09
676.31	497.30
676.65	494.35
676.99	491.65
677.33	488.73
677.67	485.88
678.01	482.77
678.34	479.73
678.68	476.87
679.02	474.06
679.36	471.35
679.70	468.69
680.04	465.94
680.37	463.03
680.71	460.22
681.05	457.64
681.39	454.92
681.73	452.26
682.06	449.68
682.40	447.12
682.74	444.55
683.08	441.98
683.42	439.39
683.75	436.87
684.09	434.37
684.43	431.93
684.77	429.45
685.10	427.12
685.44	424.84
685.78	422.51
686.12	420.28
686.45	417.93
686.79	415.55
687.13	413.31
687.46	411.21
687.80	409.03
688.14	406.77
688.48	404.70
688.81	402.48
689.15	400.37
689.49	398.25
689.82	396.18
690.16	394.09
690.50	392.10
690.83	390.22
691.17	388.22
691.51	386.34
691.84	384.54
692.18	382.60
692.52	380.61
692.85	378.70
693.19	376.82
693.52	375.03
693.86	373.27
694.20	371.47
694.53	369.68
694.87	367.88
695.21	366.11
695.54	364.33
695.88	362.59
696.21	360.82
696.55	359.08
696.88	357.45
697.22	355.82
697.56	354.25
697.89	352.57
698.23	350.98
698.56	349.34
698.90	347.77
699.23	346.13
699.57	344.65
699.90	343.13
700.24	341.63
700.58	340.12
700.91	338.63
701.25	337.23
701.58	335.86
701.92	334.48
702.25	333.11
702.59	331.78
702.92	330.46
703.26	329.22
703.59	328.02
703.93	326.83
704.26	325.60
704.60	324.26
704.93	323.02
705.26	321.79
705.60	320.70
705.93	319.53
706.27	318.54
706.60	317.48
706.94	316.40
707.27	315.25
707.61	314.18
707.94	313.16
708.27	312.05
708.61	310.98
708.94	309.97
709.28	309.02
709.61	308.05
709.94	307.09
710.28	306.05
710.61	305.08
710.95	304.01
711.28	303.07
711.61	302.16
711.95	301.22
712.28	300.26
712.61	299.30
712.95	298.35
713.28	297.50
713.61	296.55
713.95	295.69
714.28	294.85
714.61	293.96
714.95	293.12
715.28	292.25
715.61	291.38
715.95	290.53
716.28	289.68
716.61	288.84
716.95	288.03
717.28	287.28
717.61	286.48
717.94	285.76
718.28	284.96
718.61	284.21
718.94	283.54
719.27	282.87
719.61	282.18
719.94	281.53
720.27	280.81
720.60	280.16
720.94	279.48
721.27	278.85
721.60	278.25
721.93	277.63
722.27	277.12
722.60	276.53
722.93	275.99
723.26	275.44
723.59	274.86
723.93	274.30
724.26	273.75
724.59	273.20
724.92	272.65
725.25	272.16
725.59	271.60
725.92	271.08
726.25	270.58
726.58	270.06
726.91	269.55
727.24	269.06
727.57	268.55
727.91	268.06
728.24	267.59
728.57	267.12
728.90	266.70
729.23	266.21
729.56	265.81
729.89	265.30
730.22	264.81
730.55	264.37
730.89	263.95
731.22	263.48
731.55	263.02
731.88	262.58
732.21	262.18
732.54	261.77
732.87	261.33
733.20	260.93
733.53	260.59
733.86	260.20
734.19	259.79
734.52	259.47
734.85	259.16
735.18	258.76
735.51	258.40
735.84	258.01
736.17	257.65
736.50	257.27
736.83	257.06
737.16	256.77
737.49	256.44
737.82	256.08
738.15	255.79
738.48	255.50
738.81	255.23
739.14	254.88
739.47	254.59
739.80	254.32
740.13	254.05
740.46	253.71
740.79	253.43
741.12	253.17
741.45	252.83
741.78	252.47
742.11	252.20
742.44	251.86
742.77	251.61
743.10	251.33
743.43	251.02
743.75	250.62
744.08	250.44
744.41	250.14
744.74	249.86
745.07	249.59
745.40	249.34
745.73	249.09
746.06	248.81
746.39	248.56
746.71	248.29
747.04	248.00
747.37	247.74
747.70	247.49
748.03	247.22
748.36	247.03
748.68	246.82
749.01	246.58
749.34	246.37
749.67	246.12
750.00	245.88
750.33	245.71
750.65	245.52
750.98	245.20
751.31	244.99
751.64	244.81
751.97	244.63
752.29	244.41
752.62	244.16
752.95	243.94
753.28	243.69
753.60	243.45
753.93	243.29
754.26	243.08
754.59	242.81
754.91	242.59
755.24	242.36
755.57	242.13
755.90	241.93
756.22	241.76
756.55	241.56
756.88	241.36
757.20	241.16
757.53	240.96
757.86	240.79
758.19	240.62
758.51	240.45
758.84	240.24
759.17	240.05
759.49	239.87
759.82	239.75
760.15	239.61
760.47	239.48
760.80	239.25
761.13	239.16
761.45	239.04
761.78	238.89
762.11	238.75
762.43	238.62
762.76	238.48
763.08	238.35
763.41	238.22
763.74	238.11
764.06	237.95
764.39	237.78
764.71	237.62
765.04	237.48
765.37	237.32
765.69	237.19
766.02	237.06
766.34	236.90
766.67	236.78
767.00	236.68
767.32	236.57
767.65	236.51
767.97	236.35
768.30	236.26
768.62	236.14
768.95	236.02
769.27	235.91
769.60	235.82
769.92	235.70
770.25	235.59
770.57	235.43
770.90	235.35
771.22	235.29
771.55	235.23
771.87	235.11
772.20	235.02
772.52	235.03
772.85	235.08
773.17	234.98
773.50	234.89
773.82	234.81
774.15	234.74
774.47	234.63
774.80	234.52
775.12	234.41
775.45	234.30
775.77	234.23
776.09	234.18
776.42	234.13
776.74	234.08
777.07	234.01
777.39	233.97
777.72	233.86
778.04	233.79
778.36	233.68
778.69	233.67
779.01	233.64
779.33	233.48
779.66	233.30
779.98	233.27
780.31	233.19
780.63	233.16
780.95	233.08
781.28	233.04
781.60	233.00
781.92	232.95
782.25	232.95
782.57	232.88
782.89	232.79
783.22	232.68
783.54	232.58
783.86	232.50
784.19	232.44
784.51	232.47
784.83	232.38
785.16	232.35
785.48	232.26
785.80	232.20
786.12	232.16
786.45	232.12
786.77	232.10
787.09	232.05
787.42	231.97
787.74	231.97
788.06	231.93
788.38	231.87
788.71	231.83
789.03	231.74
789.35	231.71
789.67	231.68
789.99	231.66
790.32	231.60
790.64	231.58
790.96	231.64
791.28	231.56
791.61	231.54
791.93	231.51
792.25	231.51
792.57	231.50
792.89	231.46
793.21	231.38
793.54	231.28
793.86	231.24
794.18	231.20
794.50	231.07
794.82	231.01
795.14	231.00
795.47	230.94
795.79	230.94
796.11	230.87
796.43	230.82
796.75	230.79
797.07	230.77
797.39	230.71
797.71	230.56
798.04	230.48
798.36	230.44
798.68	230.36
799.00	230.30
799.32	230.22
799.64	230.16
799.96	230.11
800.28	230.13
800.60	230.06
800.92	230.03
801.24	230.03
801.56	229.99
801.89	229.93
802.21	229.92
802.53	229.88
802.85	229.92
803.17	229.90
803.49	229.84
803.81	229.82
804.13	229.80
804.45	229.78
804.77	229.81
805.09	229.79
805.41	229.78
805.73	229.74
806.05	229.73
806.37	229.73
806.69	229.73
807.01	229.70
807.33	229.70
807.65	229.67
807.97	229.65
808.28	229.64
808.60	229.61
808.92	229.57
809.24	229.60
809.56	229.53
809.88	229.49
810.20	229.50
810.52	229.49
810.84	229.45
811.16	229.45
811.48	229.37
811.80	229.38
812.12	229.37
812.43	229.40
812.75	229.36
813.07	229.36
813.39	229.35
813.71	229.33
814.03	229.29
814.35	229.26
814.67	229.21
814.98	229.19
815.30	229.20
815.62	229.16
815.94	229.05
816.26	229.08
816.58	229.08
816.89	229.06
817.21	229.04
817.53	229.03
817.85	228.98
818.17	228.99
818.48	228.94
818.80	228.95
819.12	228.91
819.44	228.88
819.76	228.84
820.07	228.83
820.39	228.81
820.71	228.84
821.03	228.82
821.34	228.79
821.66	228.78
821.98	228.78
822.30	228.78
822.61	228.84
822.93	228.79
823.25	228.74
823.57	228.70
823.88	228.71
824.20	228.71
824.52	228.72
824.83	228.71
825.15	228.71
825.47	228.66
825.79	228.63
826.10	228.59
826.42	228.57
826.74	228.55
827.05	228.49
827.37	228.47
827.69	228.43
828.00	228.41
828.32	228.42
828.64	228.34
828.95	228.41
829.27	228.35
829.58	228.33
829.90	228.34
830.22	228.34
830.53	228.29
830.85	228.25
831.17	228.20
831.48	228.19
831.80	228.17
832.11	228.16
832.43	228.12
832.75	228.15
833.06	228.16
833.38	228.12
833.69	228.14
834.01	228.10
834.32	228.09
834.64	228.07
834.96	228.04
835.27	228.06
835.59	228.00
835.90	227.96
836.22	227.92
836.53	227.88
836.85	227.88
837.16	227.95
837.48	227.95
837.79	227.96
838.11	227.93
838.42	227.91
838.74	227.87
839.05	227.88
839.37	227.83
839.68	227.77
840.00	227.78
840.31	227.76
840.63	227.77
840.94	227.77
841.26	227.76
841.57	227.76
841.88	227.73
842.20	227.69
842.51	227.69
842.83	227.72
843.14	227.80
843.46	227.79
843.77	227.72
844.08	227.73
844.40	227.71
844.71	227.71
845.03	227.70
845.34	227.71
845.65	227.73
845.97	227.76
846.28	227.77
846.60	227.77
846.91	227.76
847.22	227.74
847.54	227.76
847.85	227.80
848.16	227.78
848.48	227.78
848.79	227.85
849.10	227.90
849.42	227.87
849.73	227.77
850.04	227.77
850.36	227.73
850.67	227.76
850.98	227.75
851.30	227.74
851.61	227.77
851.92	227.77
852.23	227.75
852.55	227.77
852.86	227.75
853.17	227.74
853.49	227.78
853.80	227.80
854.11	227.80
854.42	227.79
854.74	227.78
855.05	227.81
855.36	227.73
855.67	227.71
855.99	227.74
856.30	227.87
856.61	227.87
856.92	227.90
857.23	227.87
857.55	227.87
857.86	227.86
858.17	227.88
858.48	227.85
858.79	227.85
859.11	227.83
859.42	227.85
859.73	227.86
860.04	227.82
860.35	227.81
860.66	227.80
860.98	227.80
861.29	227.83
861.60	227.80
861.91	227.84
862.22	227.84
862.53	227.81
862.84	227.70
863.16	227.73
863.47	227.72
863.78	227.71
864.09	227.74
864.40	227.73
864.71	227.74
865.02	227.76
865.33	227.77
865.64	227.75
865.95	227.72
866.27	227.78
866.58	227.77
866.89	227.78
867.20	227.75
867.51	227.74
867.82	227.72
868.13	227.75
868.44	227.70
868.75	227.68
869.06	227.69
869.37	227.69
869.68	227.66
869.99	227.67
870.30	227.65
870.61	227.66
870.92	227.62
871.23	227.59
871.54	227.59
871.85	227.58
872.16	227.56
872.47	227.56
872.78	227.48
873.09	227.48
873.40	227.45
873.71	227.42
874.02	227.39
874.33	227.37
874.64	227.34
874.95	227.34
875.26	227.33
875.56	227.31
875.87	227.27
876.18	227.23
876.49	227.29
876.80	227.29
877.11	227.27
877.42	227.29
877.73	227.30
878.04	227.31
878.35	227.30
878.66	227.31
878.96	227.28
879.27	227.31
879.58	227.30
879.89	227.30
880.20	227.35
880.51	227.35
880.82	227.37
881.12	227.37
881.43	227.33
881.74	227.31
882.05	227.29
882.36	227.33
882.67	227.34
882.97	227.21
883.28	227.20
883.59	227.18
883.90	227.17
884.21	227.15
884.51	227.12
884.82	227.11
885.13	227.10
885.44	227.10
885.74	227.09
886.05	227.11
886.36	227.10
886.67	227.08
886.98	227.14
887.28	227.15
887.59	227.16
887.90	227.19
888.20	227.17
888.51	227.20
888.82	227.16
889.13	227.16
889.43	227.28
889.74	227.27
890.05	227.28
890.35	227.29
890.66	227.27
890.97	227.27
891.28	227.28
891.58	227.29
891.89	227.32
892.20	227.27
892.50	227.25
892.81	227.26
893.12	227.24
893.42	227.19
893.73	227.18
894.04	227.20
894.34	227.20
894.65	227.19
894.95	227.17
895.26	227.18
895.57	227.22
895.87	227.12
896.18	227.14
896.48	227.13
896.79	227.11
897.10	227.15
897.40	227.17
897.71	227.15
898.01	227.15
898.32	227.15
898.63	227.16
898.93	227.15
899.24	227.12
899.54	227.16
899.85	227.14
900.15	227.15
900.46	227.13
900.76	227.15
901.07	227.20
901.38	227.22
901.68	227.24
901.99	227.20
902.29	227.25
902.60	227.22
902.90	227.21
903.21	227.23
903.51	227.21
903.82	227.24
904.12	227.24
904.43	227.21
904.73	227.21
905.03	227.24
905.34	227.35
905.64	227.33
905.95	227.32
906.25	227.32
906.56	227.32
906.86	227.32
907.17	227.30
907.47	227.28
907.77	227.31
908.08	227.30
908.38	227.28
908.69	227.26
908.99	227.29
909.30	227.29
909.60	227.28
909.90	227.27
910.21	227.26
910.51	227.26
910.81	227.28
911.12	227.30
911.42	227.28
911.73	227.17
912.03	227.18
912.33	227.18
912.64	227.19
912.94	227.19
913.24	227.15
913.55	227.16
913.85	227.15
914.15	227.13
914.46	227.13
914.76	227.13
915.06	227.14
915.37	227.13
915.67	227.13
915.97	227.14
916.27	227.14
916.58	227.13
916.88	227.12
917.18	227.12
917.49	227.18
917.79	227.16
918.09	227.15
918.39	227.20
918.70	227.20
919.00	227.20
919.30	227.23
919.60	227.24
919.91	227.20
920.21	227.20
920.51	227.19
920.81	227.17
921.12	227.21
921.42	227.19
921.72	227.18
922.02	227.19
922.32	227.20
922.63	227.19
922.93	227.23
923.23	227.26
923.53	227.23
923.83	227.18
924.13	227.18
924.44	227.19
924.74	227.20
925.04	227.21
925.34	227.19
925.64	227.13
925.94	227.15
926.24	227.22
926.55	227.21
926.85	227.23
927.15	227.22
927.45	227.17
927.75	227.18
928.05	227.20
928.35	227.21
928.65	227.25
928.95	227.24
929.26	227.20
929.56	227.20
929.86	227.23
930.16	227.18
930.46	227.18
930.76	227.18
931.06	227.13
931.36	227.10
931.66	227.12
931.96	227.14
932.26	227.10
932.56	227.08
932.86	227.09
933.16	227.07
933.46	227.09
933.76	227.12
934.06	227.11
934.36	227.13
934.66	227.11
934.96	227.06
935.26	227.06
935.56	227.07
935.86	227.05
936.16	227.06
936.46	227.05
936.76	227.02
937.06	227.02
937.36	227.04
937.66	227.04
937.96	227.03
938.26	227.02
938.56	227.08
938.86	227.07
939.16	227.08
939.46	227.09
939.76	227.10
940.06	227.09
940.35	227.09
940.65	227.03
940.95	227.05
941.25	227.05
941.55	227.05
941.85	227.06
942.15	227.08
942.45	227.07
942.75	227.09
943.04	227.15
943.34	227.20
943.64	227.18
943.94	227.18
944.24	227.19
944.54	227.20
944.84	227.19
945.13	227.15
945.43	227.13
945.73	227.15
946.03	227.15
946.33	227.14
946.62	227.16
946.92	227.17
947.22	227.19
947.52	227.20
947.82	227.22
948.11	227.20
948.41	227.20
948.71	227.17
949.01	227.17
949.31	227.15
949.60	227.14
949.90	227.18
950.20	227.17
950.50	227.17
950.79	227.14
951.09	227.14
951.39	227.18
951.69	227.19
951.98	227.21
952.28	227.19
952.58	227.22
952.87	227.20
953.17	227.19
953.47	227.17
953.76	227.19
954.06	227.16
954.36	227.12
954.66	227.11
954.95	227.11
955.25	227.11
955.55	227.12
955.84	227.10
956.14	227.09
956.44	227.09
956.73	227.09
957.03	227.09
957.32	227.05
957.62	227.04
957.92	227.04
958.21	227.01
958.51	227.15
958.81	227.12
959.10	227.11
959.40	227.16
959.69	227.17
959.99	227.15
960.29	227.15
960.58	227.18
960.88	227.20
961.17	227.22
961.47	227.25
961.76	227.22
962.06	227.22
962.36	227.20
962.65	227.22
962.95	227.24
963.24	227.25
963.54	227.26
963.83	227.26
964.13	227.27
964.42	227.25
964.72	227.14
965.01	227.13
965.31	227.14
965.60	227.07
965.90	227.13
966.19	227.13
966.49	227.15
966.78	227.14
967.08	227.12
967.37	227.11
967.67	227.08
967.96	227.12
968.26	227.12
968.55	227.13
968.85	227.12
969.14	227.09
969.43	227.08
969.73	227.07
970.02	227.09
970.32	227.08
970.61	227.06
970.91	227.04
971.20	227.05
971.49	227.05
971.79	227.06
972.08	226.96
972.38	226.97
972.67	226.95
972.96	226.96
973.26	226.96
973.55	227.01
973.85	227.02
974.14	226.99
974.43	226.99
974.73	226.97
975.02	226.94
975.31	226.95
975.61	226.96
975.90	226.96
976.19	226.93
976.49	226.94
976.78	226.99
977.07	226.99
977.37	227.00
977.66	226.99
977.95	227.01
978.24	227.01
978.54	227.04
978.83	227.03
979.12	227.00
979.42	227.00
979.71	226.96
980.00	226.95
980.29	226.93
980.59	226.93
980.88	226.97
981.17	226.94
981.46	226.93
981.76	226.92
982.05	226.95
982.34	226.91
982.63	226.92
982.93	226.87
983.22	226.89
983.51	226.86
983.80	226.89
984.09	226.90
984.39	226.94
984.68	226.91
984.97	226.92
985.26	226.90
985.55	226.92
985.85	226.91
986.14	226.92
986.43	226.99
986.72	226.98
987.01	226.97
987.30	227.02
987.59	227.00
987.89	227.02
988.18	227.01
988.47	227.05
988.76	227.05
989.05	227.06
989.34	227.04
989.63	227.09
989.92	227.07
990.22	227.01
990.51	227.00
990.80	226.97
991.09	227.00
991.38	227.01
991.67	227.01
991.96	227.00
992.25	227.00
992.54	226.97
992.83	226.97
993.12	226.96
993.41	226.94
993.70	227.00
993.99	227.01
994.28	227.00
994.58	227.00
994.87	227.00
995.16	227.04
995.45	227.03
995.74	227.01
996.03	227.00
996.32	227.06
996.61	227.09
996.90	227.11
997.19	227.11
997.48	227.12
997.77	227.09
998.06	227.10
998.34	227.11
998.63	227.09
998.92	227.08
999.21	227.09
999.50	227.10
999.79	227.08
1000.08	227.09
1000.37	227.09
1000.66	227.07
1000.95	227.07
1001.24	227.05
1001.53	227.08
1001.82	227.04
1002.11	227.04
1002.40	227.02
1002.68	227.03
1002.97	227.10
1003.26	227.09
1003.55	227.07
1003.84	227.08
1004.13	227.10
1004.42	227.07
1004.71	227.08
1004.99	227.06
1005.28	227.07
1005.57	227.06
1005.86	227.06
1006.15	227.04
1006.44	227.01
1006.72	227.01
1007.01	226.97
1007.30	226.95
1007.59	226.92
1007.88	226.91
1008.17	226.91
1008.45	226.92
1008.74	226.88
1009.03	226.82
1009.32	226.83
1009.60	226.85
1009.89	226.86
1010.18	226.83
1010.47	226.82
1010.76	226.82
1011.04	226.87
1011.33	226.88
1011.62	226.89
1011.91	226.88
1012.19	226.92
1012.48	226.94
1012.77	226.94
1013.05	227.04
1013.34	227.02
1013.63	227.05
1013.92	227.09
1014.20	227.08
1014.49	227.05
1014.78	227.06
1015.06	227.05
1015.35	227.06
1015.64	227.04
1015.92	227.03
1016.21	227.02
1016.50	227.03
1016.78	227.04
1017.07	227.04
1017.36	227.02
1017.64	226.96
1017.93	226.96
1018.22	226.92
1018.50	226.92
1018.79	226.92
1019.08	226.81
1019.36	226.83
1019.65	226.76
1019.93	226.76
1020.22	226.79
1020.51	226.82
1020.79	226.82
1021.08	226.38
1021.36	227.01
1021.65	226.68
1021.94	225.96
1022.22	226.87
1022.51	225.87
1022.79	227.29
1023.08	227.38
1023.36	227.19
1023.65	227.18
>>>>>End Processed Spectral Data<<<<<
