SpectraSuite Data File
++++++++++++++++++++++++++++++++++++
Date: Fri Feb 01 17:17:21 EST 2013
User: group
Dark Spectrum Present: No
Reference Spectrum Present: No
Number of Sampled Component Spectra: 1
Spectrometers: USB2E7196
Integration Time (usec): 35000 (USB2E7196)
Spectra Averaged: 100 (USB2E7196)
Boxcar Smoothing: 10 (USB2E7196)
Correct for Electrical Dark: No (USB2E7196)
Strobe/Lamp Enabled: No (USB2E7196)
Correct for Detector Non-linearity: No (USB2E7196)
Correct for Stray Light: No (USB2E7196)
Number of Pixels in Processed Spectrum: 2048
>>>>>Begin Processed Spectral Data<<<<<
339.09	0.00
339.48	213.18
339.86	214.53
340.24	216.40
340.63	217.45
341.01	220.35
341.39	219.71
341.78	221.45
342.16	222.75
342.54	223.86
342.93	211.67
343.31	222.36
343.69	222.90
344.07	223.38
344.46	223.78
344.84	224.17
345.22	224.39
345.60	224.65
345.99	224.87
346.37	224.97
346.75	225.05
347.13	225.11
347.52	225.13
347.90	225.20
348.28	225.26
348.66	225.32
349.05	225.29
349.43	225.31
349.81	225.38
350.19	225.40
350.57	225.47
350.96	225.52
351.34	225.62
351.72	225.67
352.10	225.77
352.48	225.84
352.87	225.89
353.25	225.96
353.63	226.05
354.01	226.06
354.39	226.13
354.77	226.19
355.15	226.33
355.54	226.38
355.92	226.40
356.30	226.45
356.68	226.56
357.06	226.64
357.44	226.69
357.82	226.73
358.20	226.80
358.58	226.86
358.97	226.93
359.35	226.98
359.73	227.07
360.11	227.11
360.49	227.17
360.87	227.21
361.25	227.29
361.63	227.36
362.01	227.44
362.39	227.51
362.77	227.54
363.15	227.56
363.53	227.58
363.91	227.62
364.29	227.63
364.67	227.59
365.05	227.60
365.43	227.65
365.81	227.68
366.19	227.74
366.57	227.75
366.95	227.77
367.33	227.71
367.71	227.74
368.09	227.74
368.47	227.73
368.85	227.71
369.23	227.69
369.61	227.64
369.99	227.66
370.37	227.64
370.75	227.65
371.13	227.57
371.51	227.55
371.89	227.54
372.27	227.51
372.65	227.43
373.03	227.38
373.41	227.32
373.78	227.27
374.16	227.17
374.54	227.11
374.92	227.01
375.30	226.99
375.68	226.87
376.06	226.80
376.44	226.75
376.82	226.69
377.19	226.63
377.57	226.54
377.95	226.41
378.33	226.31
378.71	226.19
379.09	226.15
379.47	226.09
379.84	226.01
380.22	225.93
380.60	225.88
380.98	225.82
381.36	225.71
381.73	225.61
382.11	225.57
382.49	225.52
382.87	225.46
383.25	225.38
383.62	225.45
384.00	225.39
384.38	225.33
384.76	225.28
385.13	225.26
385.51	225.18
385.89	225.10
386.27	225.08
386.64	225.05
387.02	225.02
387.40	224.97
387.78	224.95
388.15	224.92
388.53	224.86
388.91	224.81
389.29	224.82
389.66	224.81
390.04	224.75
390.42	224.73
390.79	224.71
391.17	224.73
391.55	224.62
391.92	224.58
392.30	224.59
392.68	224.57
393.05	224.55
393.43	224.59
393.81	224.62
394.18	224.63
394.56	224.64
394.94	224.64
395.31	224.62
395.69	224.66
396.06	224.70
396.44	224.75
396.82	224.78
397.19	224.85
397.57	224.89
397.95	224.96
398.32	224.98
398.70	225.03
399.07	225.08
399.45	225.12
399.82	225.19
400.20	225.26
400.58	225.32
400.95	225.30
401.33	225.41
401.70	225.54
402.08	225.60
402.45	225.68
402.83	225.79
403.20	225.86
403.58	225.93
403.95	226.06
404.33	226.16
404.71	226.27
405.08	226.42
405.46	226.54
405.83	226.66
406.21	226.79
406.58	226.97
406.96	227.11
407.33	227.26
407.70	227.45
408.08	227.71
408.45	227.92
408.83	228.17
409.20	228.38
409.58	228.57
409.95	228.85
410.33	229.12
410.70	229.37
411.08	229.69
411.45	229.98
411.82	230.31
412.20	230.70
412.57	231.12
412.95	231.40
413.32	231.82
413.69	232.27
414.07	232.72
414.44	233.20
414.82	233.69
415.19	234.27
415.56	234.85
415.94	235.39
416.31	236.07
416.68	236.69
417.06	237.43
417.43	238.10
417.81	238.86
418.18	239.64
418.55	240.52
418.93	241.43
419.30	242.36
419.67	243.29
420.04	244.27
420.42	245.28
420.79	246.55
421.16	247.75
421.54	248.95
421.91	250.21
422.28	251.51
422.66	252.91
423.03	254.27
423.40	255.62
423.77	257.09
424.15	258.54
424.52	260.11
424.89	261.77
425.26	263.39
425.64	264.90
426.01	266.58
426.38	268.25
426.75	270.01
427.13	271.82
427.50	273.69
427.87	275.62
428.24	277.55
428.61	279.30
428.99	281.27
429.36	283.39
429.73	285.54
430.10	287.57
430.47	289.67
430.85	291.83
431.22	294.14
431.59	296.59
431.96	298.90
432.33	301.45
432.70	303.89
433.08	306.76
433.45	309.44
433.82	312.11
434.19	315.10
434.56	317.94
434.93	320.64
435.30	323.32
435.68	326.29
436.05	329.18
436.42	332.11
436.79	334.71
437.16	337.54
437.53	340.42
437.90	343.36
438.27	346.13
438.64	349.08
439.01	351.72
439.38	354.02
439.75	356.28
440.13	358.84
440.50	361.26
440.87	363.17
441.24	365.20
441.61	367.42
441.98	368.95
442.35	370.79
442.72	372.73
443.09	374.62
443.46	375.67
443.83	376.29
444.20	376.80
444.57	377.69
444.94	378.05
445.31	378.44
445.68	378.83
446.05	378.98
446.42	378.54
446.79	378.15
447.16	377.69
447.53	377.39
447.90	376.24
448.27	375.03
448.64	373.48
449.01	372.31
449.37	370.35
449.74	368.40
450.11	366.13
450.48	363.58
450.85	361.00
451.22	358.83
451.59	356.76
451.96	354.79
452.33	352.11
452.70	349.67
453.07	346.74
453.43	343.75
453.80	340.92
454.17	338.20
454.54	335.59
454.91	332.80
455.28	330.03
455.65	327.50
456.02	324.99
456.38	322.72
456.75	320.00
457.12	317.65
457.49	315.39
457.86	313.18
458.23	311.26
458.59	309.14
458.96	306.95
459.33	305.04
459.70	303.12
460.07	301.55
460.43	299.75
460.80	298.11
461.17	296.61
461.54	295.08
461.91	293.61
462.27	292.11
462.64	290.82
463.01	289.44
463.38	288.05
463.74	286.62
464.11	285.42
464.48	284.34
464.85	283.23
465.21	282.35
465.58	281.42
465.95	280.30
466.32	279.38
466.68	278.46
467.05	277.52
467.42	276.57
467.78	275.64
468.15	274.75
468.52	274.04
468.88	273.17
469.25	272.32
469.62	271.69
469.98	270.99
470.35	270.31
470.72	269.69
471.08	269.02
471.45	268.52
471.82	267.94
472.18	267.35
472.55	266.87
472.92	266.28
473.28	265.80
473.65	265.33
474.02	264.88
474.38	264.54
474.75	264.23
475.11	263.89
475.48	263.61
475.85	263.36
476.21	263.11
476.58	262.92
476.94	262.81
477.31	262.62
477.67	262.46
478.04	262.37
478.41	262.30
478.77	262.36
479.14	262.28
479.50	262.33
479.87	262.39
480.23	262.52
480.60	262.62
480.96	262.69
481.33	262.93
481.69	263.13
482.06	263.32
482.42	263.53
482.79	263.79
483.15	264.09
483.52	264.48
483.88	264.86
484.25	265.26
484.61	265.65
484.98	266.15
485.34	266.74
485.71	267.37
486.07	267.99
486.44	268.54
486.80	269.21
487.17	269.91
487.53	270.74
487.90	271.57
488.26	272.52
488.62	273.55
488.99	274.49
489.35	275.51
489.72	276.63
490.08	277.82
490.44	279.04
490.81	280.37
491.17	281.71
491.54	283.21
491.90	284.71
492.26	286.39
492.63	288.09
492.99	289.86
493.36	291.70
493.72	293.73
494.08	295.85
494.45	298.12
494.81	300.51
495.17	302.91
495.54	305.44
495.90	308.11
496.26	310.85
496.63	313.80
496.99	316.87
497.35	320.11
497.72	323.53
498.08	327.08
498.44	330.75
498.80	334.66
499.17	338.65
499.53	342.84
499.89	347.18
500.26	351.65
500.62	356.23
500.98	361.18
501.34	366.18
501.71	371.46
502.07	376.86
502.43	382.40
502.79	388.18
503.16	394.26
503.52	400.43
503.88	406.80
504.24	413.40
504.60	420.26
504.97	427.34
505.33	434.54
505.69	442.19
506.05	449.85
506.41	457.65
506.78	465.74
507.14	474.07
507.50	482.68
507.86	491.59
508.22	500.73
508.59	509.83
508.95	519.32
509.31	528.96
509.67	538.95
510.03	549.12
510.39	559.57
510.75	570.14
511.12	580.93
511.48	592.04
511.84	603.25
512.20	614.60
512.56	626.26
512.92	638.25
513.28	650.35
513.64	662.62
514.00	675.15
514.37	687.87
514.73	700.71
515.09	713.53
515.45	726.60
515.81	739.90
516.17	753.63
516.53	767.50
516.89	781.44
517.25	795.25
517.61	809.43
517.97	823.62
518.33	837.78
518.69	852.29
519.05	867.07
519.41	882.05
519.77	897.29
520.13	912.55
520.49	927.71
520.85	942.72
521.21	958.15
521.57	974.05
521.93	989.48
522.29	1005.54
522.65	1021.45
523.01	1037.27
523.37	1053.01
523.73	1068.78
524.09	1084.58
524.45	1100.53
524.81	1116.81
525.17	1133.19
525.53	1149.67
525.89	1166.22
526.25	1182.66
526.61	1198.60
526.97	1214.93
527.33	1231.12
527.68	1247.39
528.04	1263.56
528.40	1279.64
528.76	1296.38
529.12	1312.68
529.48	1329.23
529.84	1344.86
530.20	1361.09
530.56	1377.65
530.91	1394.77
531.27	1411.33
531.63	1427.32
531.99	1443.57
532.35	1459.48
532.71	1475.09
533.07	1491.06
533.42	1506.66
533.78	1522.55
534.14	1538.54
534.50	1553.67
534.86	1569.22
535.21	1584.12
535.57	1599.74
535.93	1615.18
536.29	1629.70
536.65	1644.41
537.00	1658.82
537.36	1673.89
537.72	1688.26
538.08	1702.65
538.44	1716.18
538.79	1729.78
539.15	1743.17
539.51	1756.75
539.87	1770.81
540.22	1784.31
540.58	1797.88
540.94	1810.90
541.29	1823.50
541.65	1835.94
542.01	1848.85
542.37	1861.07
542.72	1873.38
543.08	1885.09
543.44	1897.46
543.79	1908.72
544.15	1919.72
544.51	1931.37
544.87	1942.28
545.22	1953.17
545.58	1963.37
545.94	1973.14
546.29	1983.00
546.65	1993.09
547.01	2002.56
547.36	2011.39
547.72	2019.92
548.07	2028.05
548.43	2036.28
548.79	2044.28
549.14	2052.12
549.50	2059.59
549.86	2067.11
550.21	2074.53
550.57	2081.86
550.92	2088.61
551.28	2095.75
551.64	2102.97
551.99	2109.61
552.35	2116.08
552.70	2122.35
553.06	2128.46
553.41	2135.05
553.77	2141.40
554.13	2147.54
554.48	2153.76
554.84	2159.52
555.19	2165.00
555.55	2170.36
555.90	2175.18
556.26	2180.54
556.61	2185.49
556.97	2190.39
557.32	2194.98
557.68	2199.35
558.03	2203.78
558.39	2207.56
558.74	2212.40
559.10	2216.56
559.45	2220.43
559.81	2224.79
560.16	2228.77
560.52	2232.42
560.87	2236.01
561.23	2238.85
561.58	2242.12
561.94	2244.88
562.29	2247.40
562.64	2250.53
563.00	2253.20
563.35	2257.05
563.71	2260.40
564.06	2263.71
564.42	2266.83
564.77	2269.68
565.12	2272.49
565.48	2274.88
565.83	2277.36
566.19	2279.09
566.54	2280.14
566.89	2281.67
567.25	2282.76
567.60	2284.44
567.96	2286.54
568.31	2287.85
568.66	2289.35
569.02	2290.33
569.37	2291.03
569.72	2292.21
570.08	2292.86
570.43	2293.21
570.78	2293.04
571.14	2291.85
571.49	2290.82
571.84	2290.54
572.20	2289.79
572.55	2288.88
572.90	2287.34
573.26	2286.12
573.61	2284.47
573.96	2283.13
574.31	2280.56
574.67	2277.89
575.02	2274.56
575.37	2271.29
575.72	2267.78
576.08	2264.62
576.43	2261.46
576.78	2258.25
577.13	2255.19
577.49	2252.05
577.84	2248.93
578.19	2245.36
578.54	2242.05
578.90	2238.37
579.25	2233.23
579.60	2228.60
579.95	2223.90
580.30	2219.30
580.66	2214.47
581.01	2209.91
581.36	2205.26
581.71	2201.42
582.06	2197.33
582.42	2193.23
582.77	2188.36
583.12	2184.07
583.47	2179.81
583.82	2175.15
584.17	2169.93
584.53	2164.89
584.88	2159.56
585.23	2154.12
585.58	2148.85
585.93	2143.59
586.28	2138.80
586.63	2134.02
586.98	2129.04
587.34	2124.41
587.69	2119.60
588.04	2114.65
588.39	2109.21
588.74	2102.83
589.09	2096.71
589.44	2090.08
589.79	2084.02
590.14	2078.34
590.49	2071.85
590.84	2065.53
591.19	2059.55
591.54	2053.22
591.89	2046.21
592.25	2039.76
592.60	2032.67
592.95	2025.48
593.30	2018.25
593.65	2010.85
594.00	2003.86
594.35	1996.74
594.70	1988.83
595.05	1981.95
595.40	1974.61
595.75	1967.23
596.10	1961.37
596.45	1954.87
596.80	1948.81
597.15	1942.36
597.50	1935.83
597.85	1929.43
598.19	1922.85
598.54	1916.17
598.89	1909.68
599.24	1903.63
599.59	1897.17
599.94	1890.88
600.29	1884.58
600.64	1878.03
600.99	1870.75
601.34	1863.92
601.69	1856.99
602.04	1850.38
602.39	1843.05
602.74	1836.32
603.08	1829.68
603.43	1822.96
603.78	1815.71
604.13	1808.50
604.48	1801.44
604.83	1794.36
605.18	1787.73
605.53	1779.86
605.87	1771.74
606.22	1764.52
606.57	1756.59
606.92	1748.90
607.27	1742.10
607.62	1735.15
607.96	1728.05
608.31	1721.67
608.66	1714.23
609.01	1706.78
609.36	1699.24
609.70	1691.30
610.05	1683.31
610.40	1675.58
610.75	1667.25
611.10	1659.63
611.44	1651.13
611.79	1642.98
612.14	1634.36
612.49	1625.04
612.83	1616.55
613.18	1608.36
613.53	1600.29
613.88	1591.79
614.22	1583.55
614.57	1574.64
614.92	1566.53
615.27	1559.07
615.61	1550.60
615.96	1542.43
616.31	1534.69
616.65	1527.18
617.00	1519.59
617.35	1511.83
617.70	1503.53
618.04	1495.01
618.39	1486.55
618.74	1478.97
619.08	1470.67
619.43	1462.98
619.78	1455.98
620.12	1448.81
620.47	1441.26
620.82	1432.86
621.16	1425.18
621.51	1417.53
621.85	1409.86
622.20	1401.24
622.55	1392.62
622.89	1384.60
623.24	1376.79
623.59	1369.29
623.93	1361.71
624.28	1354.36
624.62	1346.74
624.97	1339.49
625.32	1332.53
625.66	1325.40
626.01	1318.15
626.35	1310.72
626.70	1302.86
627.04	1295.06
627.39	1287.25
627.73	1279.81
628.08	1273.01
628.43	1265.79
628.77	1258.43
629.12	1250.87
629.46	1243.64
629.81	1236.06
630.15	1228.68
630.50	1221.30
630.84	1213.08
631.19	1204.98
631.53	1197.31
631.88	1189.65
632.22	1182.01
632.57	1174.56
632.91	1166.96
633.26	1159.59
633.60	1152.11
633.95	1144.74
634.29	1137.58
634.64	1130.70
634.98	1123.20
635.32	1115.95
635.67	1109.15
636.01	1102.38
636.36	1095.51
636.70	1088.92
637.05	1082.30
637.39	1075.88
637.73	1069.22
638.08	1063.30
638.42	1057.28
638.77	1050.84
639.11	1044.29
639.45	1037.71
639.80	1031.12
640.14	1024.70
640.49	1018.07
640.83	1011.73
641.17	1005.58
641.52	999.20
641.86	992.67
642.20	986.83
642.55	980.32
642.89	973.88
643.23	967.18
643.58	961.42
643.92	955.20
644.26	949.23
644.61	943.05
644.95	937.19
645.29	930.59
645.64	923.88
645.98	917.45
646.32	911.42
646.66	905.43
647.01	899.57
647.35	893.87
647.69	887.94
648.04	882.23
648.38	876.41
648.72	870.49
649.06	864.48
649.41	858.47
649.75	852.62
650.09	846.71
650.43	840.96
650.78	834.75
651.12	828.78
651.46	823.00
651.80	817.33
652.14	811.80
652.49	806.44
652.83	801.22
653.17	795.58
653.51	789.99
653.85	784.48
654.20	778.85
654.54	772.80
654.88	766.98
655.22	761.04
655.56	755.29
655.90	749.74
656.25	744.41
656.59	739.05
656.93	733.89
657.27	728.68
657.61	723.23
657.95	718.05
658.29	712.96
658.64	707.58
658.98	702.21
659.32	696.69
659.66	691.48
660.00	686.13
660.34	681.14
660.68	676.09
661.02	671.06
661.36	666.28
661.70	661.77
662.05	657.41
662.39	653.14
662.73	648.67
663.07	644.21
663.41	639.78
663.75	635.36
664.09	630.73
664.43	626.29
664.77	622.15
665.11	617.91
665.45	613.72
665.79	609.67
666.13	605.52
666.47	601.35
666.81	597.08
667.15	592.96
667.49	589.00
667.83	585.11
668.17	581.09
668.51	577.02
668.85	572.94
669.19	569.01
669.53	565.15
669.87	561.28
670.21	557.55
670.55	553.86
670.89	550.29
671.23	546.88
671.57	543.30
671.91	539.74
672.25	536.12
672.58	532.57
672.92	529.07
673.26	525.83
673.60	522.74
673.94	519.59
674.28	516.58
674.62	513.60
674.96	510.53
675.30	507.71
675.64	504.83
675.97	501.99
676.31	499.12
676.65	496.18
676.99	493.47
677.33	490.55
677.67	487.68
678.01	484.67
678.34	481.70
678.68	478.83
679.02	475.98
679.36	473.22
679.70	470.46
680.04	467.69
680.37	464.87
680.71	462.01
681.05	459.36
681.39	456.63
681.73	453.93
682.06	451.37
682.40	448.74
682.74	446.15
683.08	443.63
683.42	440.98
683.75	438.44
684.09	435.85
684.43	433.37
684.77	430.88
685.10	428.54
685.44	426.19
685.78	423.89
686.12	421.60
686.45	419.31
686.79	417.03
687.13	414.84
687.46	412.62
687.80	410.39
688.14	408.17
688.48	406.10
688.81	403.89
689.15	401.75
689.49	399.59
689.82	397.49
690.16	395.33
690.50	393.39
690.83	391.42
691.17	389.39
691.51	387.46
691.84	385.59
692.18	383.65
692.52	381.72
692.85	379.74
693.19	377.83
693.52	375.97
693.86	374.06
694.20	372.22
694.53	370.45
694.87	368.61
695.21	366.79
695.54	364.92
695.88	363.14
696.21	361.36
696.55	359.67
696.88	357.92
697.22	356.23
697.56	354.54
697.89	352.87
698.23	351.28
698.56	349.65
698.90	348.10
699.23	346.45
699.57	344.83
699.90	343.31
700.24	341.76
700.58	340.24
700.91	338.79
701.25	337.34
701.58	335.90
701.92	334.55
702.25	333.17
702.59	331.85
702.92	330.53
703.26	329.20
703.59	327.90
703.93	326.70
704.26	325.47
704.60	324.19
704.93	322.94
705.26	321.69
705.60	320.49
705.93	319.28
706.27	318.21
706.60	317.12
706.94	316.01
707.27	314.88
707.61	313.80
707.94	312.75
708.27	311.64
708.61	310.53
708.94	309.46
709.28	308.45
709.61	307.42
709.94	306.47
710.28	305.47
710.61	304.44
710.95	303.35
711.28	302.41
711.61	301.48
711.95	300.55
712.28	299.57
712.61	298.61
712.95	297.64
713.28	296.70
713.61	295.80
713.95	294.91
714.28	294.05
714.61	293.16
714.95	292.27
715.28	291.42
715.61	290.56
715.95	289.68
716.28	288.83
716.61	287.97
716.95	287.10
717.28	286.27
717.61	285.50
717.94	284.78
718.28	283.92
718.61	283.16
718.94	282.41
719.27	281.74
719.61	281.02
719.94	280.34
720.27	279.63
720.60	278.94
720.94	278.29
721.27	277.65
721.60	277.05
721.93	276.47
722.27	275.89
722.60	275.33
722.93	274.74
723.26	274.18
723.59	273.59
723.93	273.05
724.26	272.48
724.59	271.90
724.92	271.33
725.25	270.86
725.59	270.33
725.92	269.83
726.25	269.31
726.58	268.82
726.91	268.37
727.24	267.87
727.57	267.36
727.91	266.84
728.24	266.37
728.57	265.86
728.90	265.37
729.23	264.87
729.56	264.44
729.89	264.00
730.22	263.50
730.55	263.10
730.89	262.65
731.22	262.24
731.55	261.80
731.88	261.36
732.21	260.90
732.54	260.46
732.87	260.01
733.20	259.59
733.53	259.18
733.86	258.76
734.19	258.35
734.52	257.99
734.85	257.64
735.18	257.20
735.51	256.86
735.84	256.49
736.17	256.16
736.50	255.74
736.83	255.50
737.16	255.15
737.49	254.81
737.82	254.46
738.15	254.11
738.48	253.77
738.81	253.44
739.14	253.14
739.47	252.81
739.80	252.49
740.13	252.19
740.46	251.87
740.79	251.53
741.12	251.25
741.45	250.94
741.78	250.65
742.11	250.40
742.44	250.06
742.77	249.77
743.10	249.44
743.43	249.16
743.75	248.77
744.08	248.63
744.41	248.33
744.74	248.05
745.07	247.80
745.40	247.58
745.73	247.34
746.06	247.05
746.39	246.81
746.71	246.55
747.04	246.30
747.37	246.10
747.70	245.87
748.03	245.62
748.36	245.40
748.68	245.15
749.01	244.89
749.34	244.69
749.67	244.49
750.00	244.27
750.33	244.14
750.65	243.93
750.98	243.61
751.31	243.39
751.64	243.19
751.97	243.01
752.29	242.79
752.62	242.54
752.95	242.32
753.28	242.13
753.60	241.92
753.93	241.75
754.26	241.53
754.59	241.30
754.91	241.06
755.24	240.86
755.57	240.67
755.90	240.49
756.22	240.26
756.55	240.02
756.88	239.84
757.20	239.58
757.53	239.38
757.86	239.21
758.19	239.06
758.51	238.86
758.84	238.64
759.17	238.45
759.49	238.29
759.82	238.20
760.15	238.01
760.47	237.86
760.80	237.63
761.13	237.47
761.45	237.29
761.78	237.14
762.11	236.96
762.43	236.82
762.76	236.67
763.08	236.58
763.41	236.47
763.74	236.32
764.06	236.17
764.39	236.00
764.71	235.84
765.04	235.68
765.37	235.56
765.69	235.38
766.02	235.26
766.34	235.12
766.67	234.94
767.00	234.85
767.32	234.80
767.65	234.77
767.97	234.63
768.30	234.56
768.62	234.47
768.95	234.33
769.27	234.19
769.60	234.09
769.92	233.95
770.25	233.82
770.57	233.69
770.90	233.60
771.22	233.51
771.55	233.43
771.87	233.33
772.20	233.20
772.52	233.21
772.85	233.22
773.17	233.16
773.50	233.07
773.82	232.96
774.15	232.80
774.47	232.62
774.80	232.52
775.12	232.44
775.45	232.35
775.77	232.28
776.09	232.22
776.42	232.13
776.74	232.06
777.07	231.99
777.39	231.90
777.72	231.79
778.04	231.74
778.36	231.65
778.69	231.63
779.01	231.60
779.33	231.44
779.66	231.25
779.98	231.15
780.31	231.09
780.63	231.07
780.95	231.03
781.28	230.98
781.60	230.92
781.92	230.83
782.25	230.79
782.57	230.74
782.89	230.67
783.22	230.62
783.54	230.56
783.86	230.49
784.19	230.46
784.51	230.50
784.83	230.43
785.16	230.36
785.48	230.28
785.80	230.25
786.12	230.22
786.45	230.19
786.77	230.15
787.09	230.11
787.42	230.03
787.74	230.00
788.06	229.96
788.38	229.93
788.71	229.90
789.03	229.85
789.35	229.81
789.67	229.77
789.99	229.73
790.32	229.68
790.64	229.68
790.96	229.78
791.28	229.66
791.61	229.62
791.93	229.62
792.25	229.57
792.57	229.57
792.89	229.51
793.21	229.47
793.54	229.42
793.86	229.36
794.18	229.31
794.50	229.24
794.82	229.23
795.14	229.20
795.47	229.15
795.79	229.11
796.11	229.05
796.43	229.02
796.75	228.97
797.07	228.93
797.39	228.86
797.71	228.67
798.04	228.62
798.36	228.61
798.68	228.55
799.00	228.53
799.32	228.45
799.64	228.45
799.96	228.42
800.28	228.43
800.60	228.39
800.92	228.34
801.24	228.30
801.56	228.27
801.89	228.20
802.21	228.20
802.53	228.17
802.85	228.17
803.17	228.20
803.49	228.17
803.81	228.12
804.13	228.07
804.45	228.04
804.77	228.04
805.09	228.00
805.41	227.98
805.73	227.96
806.05	227.88
806.37	227.85
806.69	227.85
807.01	227.80
807.33	227.77
807.65	227.70
807.97	227.73
808.28	227.68
808.60	227.70
808.92	227.66
809.24	227.70
809.56	227.63
809.88	227.53
810.20	227.51
810.52	227.50
810.84	227.50
811.16	227.46
811.48	227.42
811.80	227.41
812.12	227.37
812.43	227.34
812.75	227.31
813.07	227.26
813.39	227.22
813.71	227.17
814.03	227.13
814.35	227.11
814.67	227.05
814.98	227.02
815.30	226.98
815.62	226.91
815.94	226.78
816.26	226.82
816.58	226.80
816.89	226.78
817.21	226.77
817.53	226.71
817.85	226.69
818.17	226.66
818.48	226.61
818.80	226.58
819.12	226.53
819.44	226.53
819.76	226.48
820.07	226.45
820.39	226.43
820.71	226.44
821.03	226.41
821.34	226.36
821.66	226.34
821.98	226.29
822.30	226.28
822.61	226.34
822.93	226.26
823.25	226.24
823.57	226.20
823.88	226.17
824.20	226.19
824.52	226.17
824.83	226.18
825.15	226.15
825.47	226.14
825.79	226.11
826.10	226.10
826.42	226.08
826.74	226.06
827.05	226.03
827.37	226.00
827.69	226.01
828.00	226.00
828.32	225.99
828.64	225.98
828.95	226.08
829.27	226.06
829.58	226.05
829.90	226.06
830.22	226.07
830.53	226.06
830.85	226.04
831.17	226.03
831.48	226.01
831.80	226.02
832.11	225.99
832.43	226.00
832.75	226.02
833.06	226.08
833.38	226.07
833.69	226.12
834.01	226.11
834.32	226.11
834.64	226.12
834.96	226.10
835.27	226.14
835.59	226.06
835.90	226.03
836.22	226.04
836.53	225.99
836.85	225.96
837.16	226.04
837.48	226.04
837.79	226.05
838.11	226.05
838.42	226.02
838.74	226.06
839.05	226.06
839.37	226.02
839.68	225.97
840.00	225.95
840.31	225.94
840.63	225.97
840.94	225.95
841.26	225.92
841.57	225.93
841.88	225.89
842.20	225.88
842.51	225.86
842.83	225.86
843.14	225.94
843.46	225.96
843.77	225.90
844.08	225.88
844.40	225.85
844.71	225.84
845.03	225.82
845.34	225.80
845.65	225.77
845.97	225.77
846.28	225.77
846.60	225.78
846.91	225.75
847.22	225.73
847.54	225.73
847.85	225.77
848.16	225.76
848.48	225.77
848.79	225.82
849.10	225.83
849.42	225.83
849.73	225.76
850.04	225.75
850.36	225.71
850.67	225.73
850.98	225.75
851.30	225.74
851.61	225.74
851.92	225.73
852.23	225.75
852.55	225.76
852.86	225.76
853.17	225.77
853.49	225.77
853.80	225.78
854.11	225.76
854.42	225.71
854.74	225.73
855.05	225.72
855.36	225.66
855.67	225.64
855.99	225.62
856.30	225.74
856.61	225.73
856.92	225.73
857.23	225.69
857.55	225.67
857.86	225.64
858.17	225.65
858.48	225.61
858.79	225.58
859.11	225.60
859.42	225.57
859.73	225.51
860.04	225.52
860.35	225.50
860.66	225.49
860.98	225.51
861.29	225.47
861.60	225.44
861.91	225.44
862.22	225.41
862.53	225.41
862.84	225.29
863.16	225.31
863.47	225.29
863.78	225.28
864.09	225.27
864.40	225.30
864.71	225.30
865.02	225.34
865.33	225.32
865.64	225.29
865.95	225.31
866.27	225.39
866.58	225.37
866.89	225.33
867.20	225.35
867.51	225.34
867.82	225.33
868.13	225.39
868.44	225.41
868.75	225.43
869.06	225.41
869.37	225.42
869.68	225.38
869.99	225.42
870.30	225.46
870.61	225.47
870.92	225.46
871.23	225.46
871.54	225.49
871.85	225.52
872.16	225.53
872.47	225.51
872.78	225.46
873.09	225.48
873.40	225.50
873.71	225.52
874.02	225.53
874.33	225.53
874.64	225.49
874.95	225.48
875.26	225.48
875.56	225.47
875.87	225.46
876.18	225.46
876.49	225.56
876.80	225.54
877.11	225.55
877.42	225.57
877.73	225.58
878.04	225.55
878.35	225.55
878.66	225.57
878.96	225.58
879.27	225.59
879.58	225.55
879.89	225.51
880.20	225.52
880.51	225.51
880.82	225.53
881.12	225.54
881.43	225.52
881.74	225.52
882.05	225.51
882.36	225.50
882.67	225.51
882.97	225.37
883.28	225.37
883.59	225.36
883.90	225.33
884.21	225.34
884.51	225.33
884.82	225.30
885.13	225.29
885.44	225.28
885.74	225.26
886.05	225.28
886.36	225.30
886.67	225.23
886.98	225.27
887.28	225.26
887.59	225.25
887.90	225.26
888.20	225.24
888.51	225.27
888.82	225.26
889.13	225.26
889.43	225.36
889.74	225.34
890.05	225.35
890.35	225.35
890.66	225.31
890.97	225.29
891.28	225.29
891.58	225.31
891.89	225.29
892.20	225.25
892.50	225.24
892.81	225.24
893.12	225.29
893.42	225.24
893.73	225.21
894.04	225.23
894.34	225.25
894.65	225.23
894.95	225.23
895.26	225.25
895.57	225.28
895.87	225.16
896.18	225.19
896.48	225.19
896.79	225.20
897.10	225.25
897.40	225.27
897.71	225.28
898.01	225.27
898.32	225.30
898.63	225.33
898.93	225.35
899.24	225.35
899.54	225.35
899.85	225.34
900.15	225.36
900.46	225.35
900.76	225.32
901.07	225.32
901.38	225.30
901.68	225.29
901.99	225.25
902.29	225.29
902.60	225.27
902.90	225.25
903.21	225.25
903.51	225.20
903.82	225.22
904.12	225.19
904.43	225.18
904.73	225.20
905.03	225.20
905.34	225.29
905.64	225.29
905.95	225.28
906.25	225.28
906.56	225.28
906.86	225.27
907.17	225.30
907.47	225.32
907.77	225.35
908.08	225.34
908.38	225.36
908.69	225.34
908.99	225.35
909.30	225.34
909.60	225.31
909.90	225.34
910.21	225.34
910.51	225.33
910.81	225.33
911.12	225.32
911.42	225.31
911.73	225.17
912.03	225.20
912.33	225.18
912.64	225.18
912.94	225.18
913.24	225.16
913.55	225.13
913.85	225.11
914.15	225.12
914.46	225.14
914.76	225.14
915.06	225.13
915.37	225.10
915.67	225.08
915.97	225.10
916.27	225.06
916.58	225.05
916.88	225.06
917.18	225.02
917.49	225.11
917.79	225.08
918.09	225.11
918.39	225.10
918.70	225.12
919.00	225.13
919.30	225.16
919.60	225.15
919.91	225.13
920.21	225.15
920.51	225.12
920.81	225.11
921.12	225.12
921.42	225.12
921.72	225.13
922.02	225.15
922.32	225.18
922.63	225.19
922.93	225.23
923.23	225.22
923.53	225.27
923.83	225.18
924.13	225.18
924.44	225.19
924.74	225.20
925.04	225.20
925.34	225.18
925.64	225.15
925.94	225.15
926.24	225.20
926.55	225.20
926.85	225.18
927.15	225.19
927.45	225.22
927.75	225.23
928.05	225.24
928.35	225.24
928.65	225.22
928.95	225.24
929.26	225.19
929.56	225.22
929.86	225.18
930.16	225.19
930.46	225.19
930.76	225.20
931.06	225.15
931.36	225.14
931.66	225.17
931.96	225.18
932.26	225.18
932.56	225.17
932.86	225.20
933.16	225.23
933.46	225.22
933.76	225.17
934.06	225.19
934.36	225.24
934.66	225.23
934.96	225.25
935.26	225.29
935.56	225.32
935.86	225.30
936.16	225.28
936.46	225.26
936.76	225.29
937.06	225.28
937.36	225.29
937.66	225.31
937.96	225.31
938.26	225.29
938.56	225.30
938.86	225.29
939.16	225.31
939.46	225.33
939.76	225.32
940.06	225.33
940.35	225.31
940.65	225.26
940.95	225.26
941.25	225.22
941.55	225.18
941.85	225.18
942.15	225.22
942.45	225.22
942.75	225.22
943.04	225.18
943.34	225.21
943.64	225.19
943.94	225.14
944.24	225.14
944.54	225.14
944.84	225.12
945.13	225.11
945.43	225.08
945.73	225.06
946.03	225.03
946.33	225.01
946.62	225.00
946.92	224.99
947.22	224.98
947.52	224.99
947.82	224.98
948.11	224.98
948.41	224.92
948.71	224.94
949.01	224.96
949.31	224.96
949.60	224.94
949.90	224.95
950.20	224.95
950.50	224.94
950.79	224.91
951.09	224.93
951.39	224.91
951.69	224.86
951.98	224.85
952.28	224.84
952.58	224.84
952.87	224.82
953.17	224.83
953.47	224.85
953.76	224.85
954.06	224.83
954.36	224.80
954.66	224.81
954.95	224.81
955.25	224.81
955.55	224.79
955.84	224.77
956.14	224.78
956.44	224.79
956.73	224.78
957.03	224.79
957.32	224.78
957.62	224.77
957.92	224.82
958.21	224.79
958.51	224.90
958.81	224.91
959.10	224.90
959.40	224.92
959.69	224.92
959.99	224.88
960.29	224.84
960.58	224.83
960.88	224.88
961.17	224.83
961.47	224.86
961.76	224.86
962.06	224.88
962.36	224.86
962.65	224.87
962.95	224.86
963.24	224.90
963.54	224.89
963.83	224.90
964.13	224.86
964.42	224.86
964.72	224.79
965.01	224.80
965.31	224.81
965.60	224.78
965.90	224.84
966.19	224.85
966.49	224.89
966.78	224.88
967.08	224.84
967.37	224.87
967.67	224.83
967.96	224.83
968.26	224.84
968.55	224.86
968.85	224.87
969.14	224.88
969.43	224.88
969.73	224.89
970.02	224.89
970.32	224.93
970.61	224.94
970.91	224.92
971.20	224.94
971.49	224.95
971.79	224.98
972.08	224.92
972.38	224.94
972.67	224.94
972.96	224.98
973.26	225.01
973.55	225.06
973.85	225.08
974.14	225.12
974.43	225.13
974.73	225.14
975.02	225.13
975.31	225.11
975.61	225.09
975.90	225.12
976.19	225.13
976.49	225.15
976.78	225.15
977.07	225.16
977.37	225.15
977.66	225.15
977.95	225.15
978.24	225.18
978.54	225.22
978.83	225.22
979.12	225.22
979.42	225.23
979.71	225.21
980.00	225.22
980.29	225.23
980.59	225.22
980.88	225.24
981.17	225.26
981.46	225.29
981.76	225.33
982.05	225.35
982.34	225.35
982.63	225.37
982.93	225.39
983.22	225.41
983.51	225.42
983.80	225.43
984.09	225.42
984.39	225.44
984.68	225.40
984.97	225.43
985.26	225.40
985.55	225.39
985.85	225.37
986.14	225.35
986.43	225.35
986.72	225.33
987.01	225.31
987.30	225.29
987.59	225.25
987.89	225.19
988.18	225.11
988.47	225.11
988.76	225.04
989.05	225.02
989.34	225.00
989.63	225.01
989.92	225.03
990.22	225.00
990.51	224.96
990.80	224.96
991.09	224.97
991.38	224.99
991.67	225.00
991.96	224.96
992.25	224.99
992.54	224.96
992.83	224.93
993.12	224.90
993.41	224.92
993.70	225.00
993.99	225.03
994.28	225.09
994.58	225.08
994.87	225.10
995.16	225.11
995.45	225.11
995.74	225.08
996.03	225.05
996.32	225.07
996.61	225.09
996.90	225.07
997.19	225.06
997.48	225.04
997.77	225.02
998.06	225.03
998.34	224.97
998.63	224.96
998.92	224.98
999.21	225.02
999.50	225.01
999.79	224.95
1000.08	224.95
1000.37	224.94
1000.66	224.93
1000.95	224.92
1001.24	224.92
1001.53	224.92
1001.82	224.90
1002.11	224.87
1002.40	224.85
1002.68	224.88
1002.97	224.93
1003.26	224.91
1003.55	224.90
1003.84	224.93
1004.13	224.95
1004.42	224.94
1004.71	224.94
1004.99	224.95
1005.28	224.93
1005.57	224.88
1005.86	224.87
1006.15	224.86
1006.44	224.80
1006.72	224.80
1007.01	224.82
1007.30	224.81
1007.59	224.80
1007.88	224.84
1008.17	224.85
1008.45	224.86
1008.74	224.84
1009.03	224.83
1009.32	224.83
1009.60	224.81
1009.89	224.78
1010.18	224.79
1010.47	224.82
1010.76	224.82
1011.04	224.81
1011.33	224.84
1011.62	224.90
1011.91	224.90
1012.19	224.91
1012.48	224.94
1012.77	224.99
1013.05	225.03
1013.34	225.03
1013.63	225.03
1013.92	225.04
1014.20	225.06
1014.49	225.08
1014.78	225.07
1015.06	225.03
1015.35	225.02
1015.64	225.06
1015.92	225.06
1016.21	225.05
1016.50	225.06
1016.78	225.10
1017.07	225.11
1017.36	225.11
1017.64	225.12
1017.93	225.15
1018.22	225.15
1018.50	225.14
1018.79	225.11
1019.08	225.06
1019.36	225.09
1019.65	225.06
1019.93	225.09
1020.22	225.09
1020.51	225.10
1020.79	225.09
1021.08	224.99
1021.36	224.43
1021.65	225.25
1021.94	225.00
1022.22	225.24
1022.51	224.46
1022.79	225.89
1023.08	225.19
1023.36	225.94
1023.65	224.73
>>>>>End Processed Spectral Data<<<<<
