SpectraSuite Data File
++++++++++++++++++++++++++++++++++++
Date: Fri Feb 01 14:57:09 EST 2013
User: group
Dark Spectrum Present: No
Reference Spectrum Present: No
Number of Sampled Component Spectra: 1
Spectrometers: USB2E7196
Integration Time (usec): 35000 (USB2E7196)
Spectra Averaged: 100 (USB2E7196)
Boxcar Smoothing: 10 (USB2E7196)
Correct for Electrical Dark: No (USB2E7196)
Strobe/Lamp Enabled: No (USB2E7196)
Correct for Detector Non-linearity: No (USB2E7196)
Correct for Stray Light: No (USB2E7196)
Number of Pixels in Processed Spectrum: 2048
>>>>>Begin Processed Spectral Data<<<<<
339.09	0.00
339.48	215.63
339.86	216.85
340.24	218.27
340.63	219.38
341.01	222.32
341.39	222.18
341.78	223.52
342.16	224.66
342.54	225.23
342.93	213.56
343.31	224.35
343.69	224.86
344.07	225.31
344.46	225.73
344.84	226.12
345.22	226.34
345.60	226.61
345.99	226.79
346.37	226.92
346.75	227.00
347.13	227.06
347.52	227.14
347.90	227.23
348.28	227.27
348.66	227.31
349.05	227.29
349.43	227.31
349.81	227.37
350.19	227.43
350.57	227.47
350.96	227.53
351.34	227.64
351.72	227.70
352.10	227.78
352.48	227.82
352.87	227.87
353.25	227.93
353.63	227.98
354.01	228.05
354.39	228.13
354.77	228.20
355.15	228.29
355.54	228.34
355.92	228.37
356.30	228.47
356.68	228.61
357.06	228.69
357.44	228.77
357.82	228.84
358.20	228.92
358.58	228.98
358.97	229.01
359.35	229.09
359.73	229.18
360.11	229.28
360.49	229.39
360.87	229.42
361.25	229.49
361.63	229.55
362.01	229.60
362.39	229.64
362.77	229.71
363.15	229.71
363.53	229.73
363.91	229.77
364.29	229.77
364.67	229.68
365.05	229.71
365.43	229.68
365.81	229.69
366.19	229.71
366.57	229.76
366.95	229.75
367.33	229.72
367.71	229.72
368.09	229.67
368.47	229.61
368.85	229.55
369.23	229.56
369.61	229.50
369.99	229.45
370.37	229.46
370.75	229.45
371.13	229.36
371.51	229.30
371.89	229.26
372.27	229.22
372.65	229.18
373.03	229.09
373.41	229.07
373.78	228.99
374.16	228.87
374.54	228.77
374.92	228.69
375.30	228.58
375.68	228.49
376.06	228.45
376.44	228.39
376.82	228.36
377.19	228.27
377.57	228.22
377.95	228.13
378.33	227.98
378.71	227.86
379.09	227.85
379.47	227.77
379.84	227.68
380.22	227.58
380.60	227.52
380.98	227.45
381.36	227.34
381.73	227.25
382.11	227.23
382.49	227.14
382.87	227.11
383.25	227.09
383.62	227.15
384.00	227.07
384.38	226.99
384.76	226.97
385.13	226.90
385.51	226.80
385.89	226.73
386.27	226.72
386.64	226.68
387.02	226.58
387.40	226.54
387.78	226.52
388.15	226.48
388.53	226.41
388.91	226.41
389.29	226.38
389.66	226.38
390.04	226.35
390.42	226.39
390.79	226.35
391.17	226.29
391.55	226.16
391.92	226.17
392.30	226.18
392.68	226.16
393.05	226.18
393.43	226.19
393.81	226.22
394.18	226.20
394.56	226.20
394.94	226.28
395.31	226.26
395.69	226.34
396.06	226.40
396.44	226.45
396.82	226.50
397.19	226.61
397.57	226.65
397.95	226.72
398.32	226.75
398.70	226.81
399.07	226.91
399.45	226.99
399.82	227.07
400.20	227.12
400.58	227.19
400.95	227.26
401.33	227.40
401.70	227.59
402.08	227.72
402.45	227.84
402.83	227.97
403.20	228.14
403.58	228.23
403.95	228.37
404.33	228.54
404.71	228.65
405.08	228.86
405.46	229.01
405.83	229.18
406.21	229.31
406.58	229.49
406.96	229.67
407.33	229.83
407.70	229.99
408.08	230.33
408.45	230.52
408.83	230.76
409.20	230.97
409.58	231.15
409.95	231.46
410.33	231.74
410.70	231.97
411.08	232.27
411.45	232.58
411.82	232.90
412.20	233.26
412.57	233.70
412.95	234.01
413.32	234.41
413.69	234.81
414.07	235.29
414.44	235.79
414.82	236.25
415.19	236.83
415.56	237.42
415.94	237.95
416.31	238.64
416.68	239.31
417.06	240.03
417.43	240.71
417.81	241.42
418.18	242.21
418.55	243.06
418.93	243.94
419.30	244.82
419.67	245.76
420.04	246.72
420.42	247.69
420.79	248.88
421.16	250.04
421.54	251.22
421.91	252.39
422.28	253.62
422.66	254.96
423.03	256.24
423.40	257.56
423.77	258.96
424.15	260.34
424.52	261.80
424.89	263.42
425.26	264.93
425.64	266.39
426.01	267.93
426.38	269.58
426.75	271.25
427.13	272.95
427.50	274.74
427.87	276.60
428.24	278.43
428.61	280.14
428.99	282.07
429.36	284.18
429.73	286.28
430.10	288.27
430.47	290.32
430.85	292.42
431.22	294.65
431.59	297.06
431.96	299.32
432.33	301.79
432.70	304.16
433.08	307.01
433.45	309.64
433.82	312.28
434.19	315.17
434.56	317.97
434.93	320.65
435.30	323.29
435.68	326.18
436.05	329.04
436.42	331.86
436.79	334.38
437.16	337.10
437.53	339.92
437.90	342.76
438.27	345.48
438.64	348.32
439.01	350.92
439.38	353.13
439.75	355.28
440.13	357.79
440.50	360.09
440.87	361.94
441.24	363.85
441.61	365.99
441.98	367.50
442.35	369.33
442.72	371.15
443.09	372.94
443.46	373.91
443.83	374.50
444.20	375.02
444.57	375.87
444.94	376.12
445.31	376.42
445.68	376.78
446.05	376.91
446.42	376.56
446.79	376.20
447.16	375.76
447.53	375.51
447.90	374.37
448.27	373.23
448.64	371.65
449.01	370.55
449.37	368.61
449.74	366.65
450.11	364.41
450.48	361.95
450.85	359.44
451.22	357.31
451.59	355.24
451.96	353.29
452.33	350.67
452.70	348.34
453.07	345.54
453.43	342.65
453.80	339.87
454.17	337.23
454.54	334.65
454.91	331.95
455.28	329.19
455.65	326.69
456.02	324.25
456.38	322.06
456.75	319.40
457.12	317.16
457.49	314.99
457.86	312.80
458.23	310.95
458.59	308.93
458.96	306.85
459.33	305.05
459.70	303.19
460.07	301.66
460.43	299.94
460.80	298.34
461.17	296.90
461.54	295.38
461.91	293.92
462.27	292.49
462.64	291.19
463.01	289.88
463.38	288.57
463.74	287.22
464.11	286.12
464.48	285.10
464.85	283.96
465.21	283.04
465.58	282.14
465.95	281.02
466.32	280.07
466.68	279.12
467.05	278.21
467.42	277.30
467.78	276.39
468.15	275.48
468.52	274.80
468.88	273.94
469.25	273.15
469.62	272.51
469.98	271.82
470.35	271.19
470.72	270.57
471.08	269.90
471.45	269.30
471.82	268.70
472.18	268.11
472.55	267.68
472.92	267.16
473.28	266.71
473.65	266.28
474.02	265.83
474.38	265.47
474.75	265.10
475.11	264.73
475.48	264.44
475.85	264.22
476.21	263.96
476.58	263.72
476.94	263.58
477.31	263.38
477.67	263.22
478.04	263.09
478.41	262.98
478.77	262.98
479.14	262.92
479.50	262.92
479.87	262.98
480.23	263.05
480.60	263.11
480.96	263.15
481.33	263.37
481.69	263.55
482.06	263.75
482.42	263.95
482.79	264.21
483.15	264.52
483.52	264.87
483.88	265.23
484.25	265.64
484.61	266.04
484.98	266.50
485.34	267.05
485.71	267.63
486.07	268.23
486.44	268.80
486.80	269.51
487.17	270.23
487.53	271.01
487.90	271.82
488.26	272.77
488.62	273.75
488.99	274.65
489.35	275.68
489.72	276.78
490.08	278.00
490.44	279.21
490.81	280.51
491.17	281.83
491.54	283.30
491.90	284.82
492.26	286.49
492.63	288.19
492.99	289.92
493.36	291.81
493.72	293.83
494.08	295.94
494.45	298.18
494.81	300.58
495.17	303.05
495.54	305.63
495.90	308.24
496.26	311.00
496.63	313.96
496.99	317.06
497.35	320.31
497.72	323.66
498.08	327.19
498.44	330.86
498.80	334.76
499.17	338.76
499.53	342.94
499.89	347.30
500.26	351.79
500.62	356.44
500.98	361.38
501.34	366.43
501.71	371.72
502.07	377.12
502.43	382.67
502.79	388.39
503.16	394.46
503.52	400.72
503.88	407.14
504.24	413.80
504.60	420.67
504.97	427.84
505.33	435.17
505.69	442.89
506.05	450.61
506.41	458.55
506.78	466.66
507.14	475.09
507.50	483.76
507.86	492.76
508.22	501.99
508.59	511.16
508.95	520.73
509.31	530.50
509.67	540.54
510.03	550.85
510.39	561.47
510.75	572.22
511.12	583.16
511.48	594.48
511.84	605.86
512.20	617.40
512.56	629.33
512.92	641.49
513.28	653.74
513.64	666.24
514.00	678.89
514.37	691.84
514.73	704.81
515.09	717.91
515.45	731.20
515.81	744.79
516.17	758.82
516.53	773.02
516.89	787.16
517.25	801.41
517.61	815.88
517.97	830.29
518.33	844.71
518.69	859.47
519.05	874.39
519.41	889.62
519.77	905.11
520.13	920.56
520.49	935.95
520.85	951.46
521.21	967.19
521.57	983.53
521.93	999.46
522.29	1015.94
522.65	1032.21
523.01	1048.47
523.37	1064.56
523.73	1080.83
524.09	1096.83
524.45	1113.29
524.81	1129.97
525.17	1146.79
525.53	1163.71
525.89	1180.65
526.25	1197.53
526.61	1214.01
526.97	1230.89
527.33	1247.50
527.68	1264.20
528.04	1280.76
528.40	1297.46
528.76	1314.65
529.12	1331.28
529.48	1348.21
529.84	1364.39
530.20	1381.17
530.56	1398.30
530.91	1415.71
531.27	1432.43
531.63	1449.04
531.99	1465.66
532.35	1481.73
532.71	1497.67
533.07	1514.07
533.42	1530.07
533.78	1546.26
534.14	1562.72
534.50	1578.00
534.86	1593.84
535.21	1609.02
535.57	1625.16
535.93	1640.66
536.29	1655.52
536.65	1670.79
537.00	1685.51
537.36	1700.79
537.72	1715.39
538.08	1729.83
538.44	1743.79
538.79	1757.88
539.15	1771.77
539.51	1785.78
539.87	1800.20
540.22	1814.02
540.58	1827.98
540.94	1841.47
541.29	1854.51
541.65	1867.31
542.01	1880.60
542.37	1893.08
542.72	1905.58
543.08	1917.23
543.44	1929.72
543.79	1940.94
544.15	1951.88
544.51	1963.58
544.87	1974.68
545.22	1985.38
545.58	1995.63
545.94	2005.47
546.29	2015.34
546.65	2025.18
547.01	2034.24
547.36	2043.00
547.72	2051.47
548.07	2059.15
548.43	2067.30
548.79	2075.29
549.14	2082.70
549.50	2090.20
549.86	2097.99
550.21	2105.42
550.57	2112.77
550.92	2119.45
551.28	2126.61
551.64	2133.61
551.99	2140.24
552.35	2146.29
552.70	2152.47
553.06	2158.54
553.41	2164.71
553.77	2170.65
554.13	2176.68
554.48	2182.88
554.84	2188.13
555.19	2193.56
555.55	2198.75
555.90	2203.18
556.26	2207.95
556.61	2212.68
556.97	2216.80
557.32	2220.86
557.68	2225.01
558.03	2229.20
558.39	2232.80
558.74	2237.42
559.10	2241.21
559.45	2244.64
559.81	2249.00
560.16	2252.80
560.52	2255.85
560.87	2259.19
561.23	2261.86
561.58	2264.68
561.94	2267.05
562.29	2269.50
562.64	2272.00
563.00	2274.60
563.35	2278.05
563.71	2281.13
564.06	2284.15
564.42	2286.90
564.77	2289.32
565.12	2291.20
565.48	2292.96
565.83	2294.65
566.19	2295.60
566.54	2296.56
566.89	2297.64
567.25	2297.90
567.60	2299.14
567.96	2300.60
568.31	2301.45
568.66	2302.28
569.02	2302.70
569.37	2302.77
569.72	2303.43
570.08	2303.28
570.43	2303.06
570.78	2302.05
571.14	2300.34
571.49	2298.90
571.84	2298.53
572.20	2297.10
572.55	2295.96
572.90	2294.32
573.26	2292.75
573.61	2291.01
573.96	2288.80
574.31	2285.51
574.67	2282.37
575.02	2278.50
575.37	2275.02
575.72	2270.84
576.08	2267.47
576.43	2264.10
576.78	2260.37
577.13	2257.09
577.49	2254.05
577.84	2250.54
578.19	2246.86
578.54	2242.94
578.90	2238.53
579.25	2232.74
579.60	2227.56
579.95	2222.43
580.30	2217.21
580.66	2211.93
581.01	2206.89
581.36	2201.93
581.71	2197.72
582.06	2193.23
582.42	2188.65
582.77	2183.28
583.12	2178.58
583.47	2173.65
583.82	2168.37
584.17	2162.96
584.53	2157.34
584.88	2151.41
585.23	2145.40
585.58	2139.77
585.93	2134.39
586.28	2129.64
586.63	2124.43
586.98	2119.35
587.34	2114.49
587.69	2109.47
588.04	2104.08
588.39	2098.23
588.74	2091.82
589.09	2085.49
589.44	2078.47
589.79	2072.31
590.14	2066.59
590.49	2060.03
590.84	2053.47
591.19	2047.36
591.54	2040.81
591.89	2033.13
592.25	2026.16
592.60	2018.86
592.95	2011.09
593.30	2003.52
593.65	1995.76
594.00	1988.65
594.35	1981.33
594.70	1973.34
595.05	1966.06
595.40	1958.72
595.75	1951.20
596.10	1944.70
596.45	1937.76
596.80	1931.62
597.15	1924.80
597.50	1917.53
597.85	1911.07
598.19	1904.44
598.54	1897.31
598.89	1890.69
599.24	1884.85
599.59	1878.08
599.94	1871.70
600.29	1865.43
600.64	1858.83
600.99	1851.18
601.34	1844.25
601.69	1837.30
602.04	1830.29
602.39	1822.81
602.74	1815.87
603.08	1809.05
603.43	1802.45
603.78	1795.28
604.13	1788.05
604.48	1780.74
604.83	1773.98
605.18	1766.82
605.53	1758.72
605.87	1750.65
606.22	1743.38
606.57	1735.48
606.92	1728.32
607.27	1721.19
607.62	1714.31
607.96	1706.96
608.31	1700.43
608.66	1692.79
609.01	1685.16
609.36	1677.58
609.70	1669.69
610.05	1661.67
610.40	1653.99
610.75	1645.54
611.10	1637.98
611.44	1629.72
611.79	1621.86
612.14	1613.16
612.49	1604.14
612.83	1595.82
613.18	1587.77
613.53	1579.63
613.88	1571.10
614.22	1562.84
614.57	1554.30
614.92	1546.22
615.27	1538.68
615.61	1530.38
615.96	1522.42
616.31	1514.74
616.65	1507.48
617.00	1500.01
617.35	1492.29
617.70	1484.04
618.04	1475.54
618.39	1467.33
618.74	1459.62
619.08	1451.32
619.43	1443.77
619.78	1436.94
620.12	1429.79
620.47	1422.27
620.82	1414.25
621.16	1406.90
621.51	1399.29
621.85	1391.73
622.20	1383.39
622.55	1375.22
622.89	1367.52
623.24	1360.03
623.59	1352.85
623.93	1345.30
624.28	1337.90
624.62	1330.51
624.97	1323.34
625.32	1316.71
625.66	1309.68
626.01	1302.55
626.35	1295.05
626.70	1287.48
627.04	1279.80
627.39	1272.21
627.73	1264.88
628.08	1258.03
628.43	1250.71
628.77	1243.38
629.12	1235.83
629.46	1228.60
629.81	1221.23
630.15	1214.02
630.50	1206.68
630.84	1198.55
631.19	1190.84
631.53	1183.49
631.88	1175.96
632.22	1168.46
632.57	1161.29
632.91	1153.84
633.26	1146.40
633.60	1139.25
633.95	1132.20
634.29	1125.25
634.64	1118.57
634.98	1111.26
635.32	1104.15
635.67	1097.77
636.01	1091.19
636.36	1084.42
636.70	1078.05
637.05	1071.50
637.39	1065.12
637.73	1058.58
638.08	1052.70
638.42	1046.60
638.77	1040.14
639.11	1033.61
639.45	1027.19
639.80	1020.45
640.14	1014.04
640.49	1007.60
640.83	1001.34
641.17	995.11
641.52	988.80
641.86	982.44
642.20	976.72
642.55	970.48
642.89	963.90
643.23	957.45
643.58	951.70
643.92	945.44
644.26	939.34
644.61	933.36
644.95	927.42
645.29	920.79
645.64	914.11
645.98	907.86
646.32	902.16
646.66	896.25
647.01	890.54
647.35	884.87
647.69	879.10
648.04	873.57
648.38	867.76
648.72	861.72
649.06	855.60
649.41	849.68
649.75	843.63
650.09	837.75
650.43	831.94
650.78	825.93
651.12	820.02
651.46	814.35
651.80	808.53
652.14	803.09
652.49	797.80
652.83	792.65
653.17	786.98
653.51	781.13
653.85	775.71
654.20	770.06
654.54	764.06
654.88	758.41
655.22	752.57
655.56	746.94
655.90	741.55
656.25	736.32
656.59	730.95
656.93	725.98
657.27	720.84
657.61	715.45
657.95	710.27
658.29	705.29
658.64	700.07
658.98	694.82
659.32	689.42
659.66	684.29
660.00	679.06
660.34	674.23
660.68	669.45
661.02	664.43
661.36	659.77
661.70	655.30
662.05	650.93
662.39	646.59
662.73	642.19
663.07	637.85
663.41	633.46
663.75	629.04
664.09	624.47
664.43	620.12
664.77	616.07
665.11	611.88
665.45	607.71
665.79	603.68
666.13	599.57
666.47	595.54
666.81	591.40
667.15	587.25
667.49	583.31
667.83	579.53
668.17	575.63
668.51	571.58
668.85	567.59
669.19	563.82
669.53	560.09
669.87	556.24
670.21	552.60
670.55	549.02
670.89	545.65
671.23	542.28
671.57	538.80
671.91	535.31
672.25	531.92
672.58	528.43
672.92	525.08
673.26	521.99
673.60	518.80
673.94	515.73
674.28	512.87
674.62	509.96
674.96	506.88
675.30	503.97
675.64	501.11
675.97	498.43
676.31	495.56
676.65	492.60
676.99	489.87
677.33	487.01
677.67	484.19
678.01	481.14
678.34	478.13
678.68	475.31
679.02	472.50
679.36	469.74
679.70	467.08
680.04	464.29
680.37	461.49
680.71	458.76
681.05	456.16
681.39	453.46
681.73	450.86
682.06	448.30
682.40	445.82
682.74	443.35
683.08	440.78
683.42	438.22
683.75	435.81
684.09	433.33
684.43	430.90
684.77	428.48
685.10	426.18
685.44	423.95
685.78	421.66
686.12	419.46
686.45	417.22
686.79	414.98
687.13	412.86
687.46	410.72
687.80	408.62
688.14	406.44
688.48	404.40
688.81	402.15
689.15	400.10
689.49	397.98
689.82	395.87
690.16	393.80
690.50	391.87
690.83	389.93
691.17	388.01
691.51	386.13
691.84	384.30
692.18	382.37
692.52	380.39
692.85	378.47
693.19	376.60
693.52	374.81
693.86	372.98
694.20	371.25
694.53	369.42
694.87	367.61
695.21	365.85
695.54	364.09
695.88	362.40
696.21	360.65
696.55	359.00
696.88	357.33
697.22	355.76
697.56	354.17
697.89	352.50
698.23	350.89
698.56	349.26
698.90	347.68
699.23	346.06
699.57	344.50
699.90	342.93
700.24	341.36
700.58	339.76
700.91	338.27
701.25	336.78
701.58	335.43
701.92	334.07
702.25	332.67
702.59	331.27
702.92	329.95
703.26	328.66
703.59	327.41
703.93	326.23
704.26	324.98
704.60	323.66
704.93	322.36
705.26	321.11
705.60	319.96
705.93	318.79
706.27	317.74
706.60	316.72
706.94	315.70
707.27	314.62
707.61	313.62
707.94	312.58
708.27	311.52
708.61	310.43
708.94	309.42
709.28	308.45
709.61	307.51
709.94	306.55
710.28	305.50
710.61	304.52
710.95	303.48
711.28	302.52
711.61	301.61
711.95	300.74
712.28	299.78
712.61	298.79
712.95	297.86
713.28	297.02
713.61	296.12
713.95	295.21
714.28	294.37
714.61	293.53
714.95	292.70
715.28	291.81
715.61	290.96
715.95	290.09
716.28	289.26
716.61	288.43
716.95	287.58
717.28	286.85
717.61	286.07
717.94	285.32
718.28	284.54
718.61	283.83
718.94	283.13
719.27	282.50
719.61	281.87
719.94	281.27
720.27	280.56
720.60	279.91
720.94	279.30
721.27	278.74
721.60	278.15
721.93	277.59
722.27	277.07
722.60	276.51
722.93	275.98
723.26	275.44
723.59	274.92
723.93	274.45
724.26	273.92
724.59	273.40
724.92	272.90
725.25	272.40
725.59	271.88
725.92	271.41
726.25	270.90
726.58	270.44
726.91	269.94
727.24	269.47
727.57	269.04
727.91	268.56
728.24	268.08
728.57	267.58
728.90	267.14
729.23	266.65
729.56	266.22
729.89	265.76
730.22	265.28
730.55	264.80
730.89	264.33
731.22	263.89
731.55	263.44
731.88	263.03
732.21	262.60
732.54	262.14
732.87	261.72
733.20	261.31
733.53	260.89
733.86	260.53
734.19	260.15
734.52	259.77
734.85	259.46
735.18	259.05
735.51	258.68
735.84	258.27
736.17	257.94
736.50	257.54
736.83	257.28
737.16	256.95
737.49	256.65
737.82	256.30
738.15	255.95
738.48	255.61
738.81	255.26
739.14	254.93
739.47	254.62
739.80	254.29
740.13	253.99
740.46	253.66
740.79	253.29
741.12	252.97
741.45	252.65
741.78	252.27
742.11	251.96
742.44	251.63
742.77	251.37
743.10	251.07
743.43	250.77
743.75	250.37
744.08	250.19
744.41	249.89
744.74	249.63
745.07	249.33
745.40	249.06
745.73	248.86
746.06	248.57
746.39	248.29
746.71	248.04
747.04	247.77
747.37	247.48
747.70	247.24
748.03	246.95
748.36	246.70
748.68	246.49
749.01	246.24
749.34	245.99
749.67	245.74
750.00	245.51
750.33	245.35
750.65	245.17
750.98	244.87
751.31	244.65
751.64	244.44
751.97	244.33
752.29	244.14
752.62	243.84
752.95	243.65
753.28	243.46
753.60	243.23
753.93	243.06
754.26	242.90
754.59	242.67
754.91	242.52
755.24	242.35
755.57	242.17
755.90	241.99
756.22	241.84
756.55	241.63
756.88	241.42
757.20	241.21
757.53	241.01
757.86	240.82
758.19	240.65
758.51	240.49
758.84	240.28
759.17	240.12
759.49	239.98
759.82	239.85
760.15	239.72
760.47	239.61
760.80	239.41
761.13	239.30
761.45	239.19
761.78	239.03
762.11	238.92
762.43	238.78
762.76	238.66
763.08	238.53
763.41	238.42
763.74	238.31
764.06	238.20
764.39	238.05
764.71	237.93
765.04	237.79
765.37	237.65
765.69	237.54
766.02	237.41
766.34	237.29
766.67	237.17
767.00	237.09
767.32	236.98
767.65	236.96
767.97	236.82
768.30	236.71
768.62	236.61
768.95	236.45
769.27	236.33
769.60	236.24
769.92	236.15
770.25	236.03
770.57	235.92
770.90	235.82
771.22	235.73
771.55	235.61
771.87	235.55
772.20	235.49
772.52	235.46
772.85	235.48
773.17	235.44
773.50	235.33
773.82	235.22
774.15	235.11
774.47	234.93
774.80	234.83
775.12	234.72
775.45	234.65
775.77	234.58
776.09	234.53
776.42	234.46
776.74	234.37
777.07	234.26
777.39	234.16
777.72	234.07
778.04	234.02
778.36	233.96
778.69	233.85
779.01	233.77
779.33	233.60
779.66	233.41
779.98	233.31
780.31	233.24
780.63	233.19
780.95	233.15
781.28	233.10
781.60	233.03
781.92	232.99
782.25	232.91
782.57	232.82
782.89	232.70
783.22	232.63
783.54	232.57
783.86	232.53
784.19	232.50
784.51	232.43
784.83	232.33
785.16	232.25
785.48	232.23
785.80	232.15
786.12	232.11
786.45	232.07
786.77	232.00
787.09	231.93
787.42	231.88
787.74	231.83
788.06	231.76
788.38	231.72
788.71	231.65
789.03	231.64
789.35	231.63
789.67	231.61
789.99	231.54
790.32	231.46
790.64	231.41
790.96	231.42
791.28	231.36
791.61	231.32
791.93	231.30
792.25	231.22
792.57	231.27
792.89	231.21
793.21	231.18
793.54	231.15
793.86	231.12
794.18	231.05
794.50	230.99
794.82	230.98
795.14	230.95
795.47	230.94
795.79	230.87
796.11	230.81
796.43	230.77
796.75	230.76
797.07	230.78
797.39	230.76
797.71	230.70
798.04	230.70
798.36	230.71
798.68	230.69
799.00	230.71
799.32	230.65
799.64	230.63
799.96	230.58
800.28	230.57
800.60	230.54
800.92	230.52
801.24	230.51
801.56	230.50
801.89	230.47
802.21	230.48
802.53	230.45
802.85	230.46
803.17	230.46
803.49	230.44
803.81	230.39
804.13	230.36
804.45	230.31
804.77	230.33
805.09	230.29
805.41	230.26
805.73	230.21
806.05	230.14
806.37	230.13
806.69	230.12
807.01	230.07
807.33	230.07
807.65	230.01
807.97	230.06
808.28	229.99
808.60	229.96
808.92	229.91
809.24	229.93
809.56	229.90
809.88	229.84
810.20	229.83
810.52	229.82
810.84	229.78
811.16	229.75
811.48	229.69
811.80	229.70
812.12	229.69
812.43	229.68
812.75	229.68
813.07	229.64
813.39	229.62
813.71	229.58
814.03	229.52
814.35	229.54
814.67	229.46
814.98	229.46
815.30	229.46
815.62	229.42
815.94	229.33
816.26	229.33
816.58	229.29
816.89	229.28
817.21	229.19
817.53	229.17
817.85	229.15
818.17	229.13
818.48	229.07
818.80	229.05
819.12	229.01
819.44	228.97
819.76	228.97
820.07	228.91
820.39	228.90
820.71	228.90
821.03	228.86
821.34	228.83
821.66	228.79
821.98	228.77
822.30	228.76
822.61	228.80
822.93	228.74
823.25	228.72
823.57	228.65
823.88	228.69
824.20	228.66
824.52	228.66
824.83	228.62
825.15	228.59
825.47	228.57
825.79	228.57
826.10	228.53
826.42	228.48
826.74	228.49
827.05	228.48
827.37	228.45
827.69	228.45
828.00	228.44
828.32	228.46
828.64	228.40
828.95	228.46
829.27	228.44
829.58	228.42
829.90	228.42
830.22	228.44
830.53	228.40
830.85	228.40
831.17	228.36
831.48	228.38
831.80	228.38
832.11	228.35
832.43	228.33
832.75	228.31
833.06	228.35
833.38	228.35
833.69	228.34
834.01	228.35
834.32	228.33
834.64	228.32
834.96	228.33
835.27	228.33
835.59	228.26
835.90	228.22
836.22	228.19
836.53	228.19
836.85	228.18
837.16	228.31
837.48	228.33
837.79	228.37
838.11	228.36
838.42	228.40
838.74	228.42
839.05	228.39
839.37	228.41
839.68	228.32
840.00	228.32
840.31	228.34
840.63	228.31
840.94	228.31
841.26	228.31
841.57	228.32
841.88	228.35
842.20	228.34
842.51	228.34
842.83	228.41
843.14	228.50
843.46	228.48
843.77	228.39
844.08	228.35
844.40	228.31
844.71	228.31
845.03	228.25
845.34	228.24
845.65	228.26
845.97	228.27
846.28	228.29
846.60	228.28
846.91	228.24
847.22	228.25
847.54	228.26
847.85	228.22
848.16	228.17
848.48	228.16
848.79	228.17
849.10	228.14
849.42	228.09
849.73	227.97
850.04	227.99
850.36	227.94
850.67	227.99
850.98	227.97
851.30	227.94
851.61	227.93
851.92	227.92
852.23	227.93
852.55	227.93
852.86	227.91
853.17	227.92
853.49	227.93
853.80	227.94
854.11	227.93
854.42	227.96
854.74	227.96
855.05	227.89
855.36	227.83
855.67	227.87
855.99	227.87
856.30	227.98
856.61	227.95
856.92	227.95
857.23	227.91
857.55	227.92
857.86	227.93
858.17	227.95
858.48	227.92
858.79	227.89
859.11	227.88
859.42	227.90
859.73	227.87
860.04	227.83
860.35	227.80
860.66	227.76
860.98	227.70
861.29	227.72
861.60	227.74
861.91	227.77
862.22	227.74
862.53	227.72
862.84	227.61
863.16	227.63
863.47	227.64
863.78	227.63
864.09	227.64
864.40	227.64
864.71	227.63
865.02	227.65
865.33	227.65
865.64	227.63
865.95	227.59
866.27	227.64
866.58	227.70
866.89	227.71
867.20	227.71
867.51	227.73
867.82	227.69
868.13	227.71
868.44	227.69
868.75	227.72
869.06	227.70
869.37	227.70
869.68	227.64
869.99	227.65
870.30	227.66
870.61	227.67
870.92	227.65
871.23	227.66
871.54	227.69
871.85	227.72
872.16	227.73
872.47	227.76
872.78	227.70
873.09	227.67
873.40	227.66
873.71	227.68
874.02	227.68
874.33	227.70
874.64	227.69
874.95	227.70
875.26	227.69
875.56	227.72
875.87	227.74
876.18	227.77
876.49	227.81
876.80	227.76
877.11	227.72
877.42	227.73
877.73	227.72
878.04	227.70
878.35	227.66
878.66	227.67
878.96	227.66
879.27	227.65
879.58	227.64
879.89	227.65
880.20	227.69
880.51	227.67
880.82	227.68
881.12	227.68
881.43	227.66
881.74	227.61
882.05	227.60
882.36	227.59
882.67	227.58
882.97	227.55
883.28	227.60
883.59	227.60
883.90	227.60
884.21	227.59
884.51	227.56
884.82	227.57
885.13	227.55
885.44	227.58
885.74	227.57
886.05	227.54
886.36	227.54
886.67	227.49
886.98	227.53
887.28	227.52
887.59	227.52
887.90	227.54
888.20	227.58
888.51	227.56
888.82	227.53
889.13	227.55
889.43	227.58
889.74	227.54
890.05	227.53
890.35	227.50
890.66	227.46
890.97	227.45
891.28	227.42
891.58	227.41
891.89	227.40
892.20	227.40
892.50	227.39
892.81	227.37
893.12	227.36
893.42	227.32
893.73	227.30
894.04	227.25
894.34	227.25
894.65	227.23
894.95	227.22
895.26	227.24
895.57	227.24
895.87	227.16
896.18	227.15
896.48	227.15
896.79	227.15
897.10	227.19
897.40	227.20
897.71	227.24
898.01	227.23
898.32	227.20
898.63	227.17
898.93	227.19
899.24	227.18
899.54	227.19
899.85	227.16
900.15	227.16
900.46	227.17
900.76	227.18
901.07	227.14
901.38	227.15
901.68	227.14
901.99	227.10
902.29	227.13
902.60	227.12
902.90	227.12
903.21	227.13
903.51	227.13
903.82	227.14
904.12	227.11
904.43	227.14
904.73	227.16
905.03	227.19
905.34	227.28
905.64	227.28
905.95	227.26
906.25	227.27
906.56	227.27
906.86	227.28
907.17	227.30
907.47	227.35
907.77	227.35
908.08	227.37
908.38	227.38
908.69	227.38
908.99	227.39
909.30	227.41
909.60	227.41
909.90	227.42
910.21	227.41
910.51	227.39
910.81	227.38
911.12	227.39
911.42	227.39
911.73	227.29
912.03	227.27
912.33	227.33
912.64	227.37
912.94	227.39
913.24	227.40
913.55	227.35
913.85	227.35
914.15	227.37
914.46	227.37
914.76	227.37
915.06	227.38
915.37	227.40
915.67	227.42
915.97	227.45
916.27	227.42
916.58	227.43
916.88	227.47
917.18	227.47
917.49	227.55
917.79	227.56
918.09	227.59
918.39	227.64
918.70	227.62
919.00	227.61
919.30	227.66
919.60	227.65
919.91	227.67
920.21	227.67
920.51	227.64
920.81	227.65
921.12	227.65
921.42	227.61
921.72	227.59
922.02	227.56
922.32	227.58
922.63	227.60
922.93	227.66
923.23	227.63
923.53	227.62
923.83	227.52
924.13	227.51
924.44	227.48
924.74	227.51
925.04	227.50
925.34	227.50
925.64	227.46
925.94	227.42
926.24	227.43
926.55	227.42
926.85	227.41
927.15	227.38
927.45	227.38
927.75	227.37
928.05	227.37
928.35	227.36
928.65	227.33
928.95	227.32
929.26	227.24
929.56	227.27
929.86	227.28
930.16	227.24
930.46	227.23
930.76	227.28
931.06	227.20
931.36	227.17
931.66	227.17
931.96	227.15
932.26	227.15
932.56	227.12
932.86	227.13
933.16	227.15
933.46	227.13
933.76	227.10
934.06	227.15
934.36	227.18
934.66	227.18
934.96	227.17
935.26	227.15
935.56	227.16
935.86	227.13
936.16	227.11
936.46	227.11
936.76	227.09
937.06	227.03
937.36	227.06
937.66	227.04
937.96	227.02
938.26	227.01
938.56	227.02
938.86	227.01
939.16	227.04
939.46	227.03
939.76	227.06
940.06	227.10
940.35	227.05
940.65	227.01
940.95	227.01
941.25	226.98
941.55	226.96
941.85	226.95
942.15	226.96
942.45	227.00
942.75	227.02
943.04	227.03
943.34	227.07
943.64	227.04
943.94	227.05
944.24	227.06
944.54	227.08
944.84	227.07
945.13	227.07
945.43	227.01
945.73	227.03
946.03	227.02
946.33	226.98
946.62	227.01
946.92	227.05
947.22	227.06
947.52	227.07
947.82	227.09
948.11	227.12
948.41	227.13
948.71	227.10
949.01	227.12
949.31	227.14
949.60	227.13
949.90	227.17
950.20	227.19
950.50	227.17
950.79	227.16
951.09	227.19
951.39	227.22
951.69	227.25
951.98	227.26
952.28	227.26
952.58	227.28
952.87	227.27
953.17	227.25
953.47	227.23
953.76	227.24
954.06	227.24
954.36	227.21
954.66	227.20
954.95	227.24
955.25	227.24
955.55	227.25
955.84	227.25
956.14	227.25
956.44	227.25
956.73	227.27
957.03	227.26
957.32	227.25
957.62	227.25
957.92	227.29
958.21	227.28
958.51	227.39
958.81	227.37
959.10	227.39
959.40	227.42
959.69	227.44
959.99	227.44
960.29	227.46
960.58	227.48
960.88	227.51
961.17	227.49
961.47	227.50
961.76	227.47
962.06	227.50
962.36	227.49
962.65	227.53
962.95	227.50
963.24	227.53
963.54	227.52
963.83	227.52
964.13	227.52
964.42	227.47
964.72	227.41
965.01	227.42
965.31	227.39
965.60	227.35
965.90	227.43
966.19	227.42
966.49	227.41
966.78	227.39
967.08	227.39
967.37	227.40
967.67	227.36
967.96	227.40
968.26	227.37
968.55	227.39
968.85	227.32
969.14	227.34
969.43	227.31
969.73	227.31
970.02	227.29
970.32	227.25
970.61	227.27
970.91	227.23
971.20	227.23
971.49	227.24
971.79	227.23
972.08	227.12
972.38	227.13
972.67	227.11
972.96	227.12
973.26	227.09
973.55	227.12
973.85	227.10
974.14	227.04
974.43	227.03
974.73	226.96
975.02	227.01
975.31	227.01
975.61	226.99
975.90	226.97
976.19	226.99
976.49	227.01
976.78	227.01
977.07	227.00
977.37	226.97
977.66	226.96
977.95	226.95
978.24	226.95
978.54	226.98
978.83	226.99
979.12	226.97
979.42	226.97
979.71	226.92
980.00	226.91
980.29	226.95
980.59	226.95
980.88	227.00
981.17	226.98
981.46	226.97
981.76	227.00
982.05	227.02
982.34	227.00
982.63	226.99
982.93	226.98
983.22	226.96
983.51	226.98
983.80	227.02
984.09	227.06
984.39	227.09
984.68	227.06
984.97	227.06
985.26	227.05
985.55	227.05
985.85	227.02
986.14	227.02
986.43	227.02
986.72	227.04
987.01	227.00
987.30	227.00
987.59	226.96
987.89	226.96
988.18	226.93
988.47	226.93
988.76	226.93
989.05	226.91
989.34	226.94
989.63	226.98
989.92	226.97
990.22	226.92
990.51	226.91
990.80	226.89
991.09	226.92
991.38	226.93
991.67	226.94
991.96	226.98
992.25	227.04
992.54	227.02
992.83	226.99
993.12	227.00
993.41	227.02
993.70	227.07
993.99	227.07
994.28	227.09
994.58	227.11
994.87	227.12
995.16	227.14
995.45	227.12
995.74	227.05
996.03	227.06
996.32	227.07
996.61	227.06
996.90	227.08
997.19	227.06
997.48	227.09
997.77	227.05
998.06	227.01
998.34	226.95
998.63	226.95
998.92	226.98
999.21	226.98
999.50	226.96
999.79	226.95
1000.08	226.95
1000.37	226.95
1000.66	226.92
1000.95	226.94
1001.24	226.95
1001.53	226.97
1001.82	226.99
1002.11	226.96
1002.40	226.98
1002.68	227.02
1002.97	227.06
1003.26	227.07
1003.55	227.04
1003.84	227.07
1004.13	227.13
1004.42	227.15
1004.71	227.16
1004.99	227.11
1005.28	227.13
1005.57	227.12
1005.86	227.11
1006.15	227.11
1006.44	227.09
1006.72	227.12
1007.01	227.08
1007.30	227.09
1007.59	227.09
1007.88	227.07
1008.17	227.09
1008.45	227.07
1008.74	227.02
1009.03	227.00
1009.32	226.99
1009.60	226.99
1009.89	226.98
1010.18	226.94
1010.47	226.94
1010.76	226.92
1011.04	226.96
1011.33	226.98
1011.62	227.01
1011.91	227.01
1012.19	227.03
1012.48	227.03
1012.77	227.03
1013.05	227.09
1013.34	227.12
1013.63	227.12
1013.92	227.15
1014.20	227.14
1014.49	227.16
1014.78	227.18
1015.06	227.13
1015.35	227.12
1015.64	227.14
1015.92	227.17
1016.21	227.18
1016.50	227.20
1016.78	227.23
1017.07	227.25
1017.36	227.22
1017.64	227.21
1017.93	227.24
1018.22	227.20
1018.50	227.19
1018.79	227.21
1019.08	227.17
1019.36	227.13
1019.65	227.11
1019.93	227.15
1020.22	227.15
1020.51	227.18
1020.79	227.17
1021.08	226.46
1021.36	226.85
1021.65	227.60
1021.94	227.28
1022.22	226.87
1022.51	226.95
1022.79	227.86
1023.08	227.26
1023.36	227.84
1023.65	226.68
>>>>>End Processed Spectral Data<<<<<
