SpectraSuite Data File
++++++++++++++++++++++++++++++++++++
Date: Fri Feb 01 16:26:06 EST 2013
User: group
Dark Spectrum Present: No
Reference Spectrum Present: No
Number of Sampled Component Spectra: 1
Spectrometers: USB2E7196
Integration Time (usec): 35000 (USB2E7196)
Spectra Averaged: 100 (USB2E7196)
Boxcar Smoothing: 10 (USB2E7196)
Correct for Electrical Dark: No (USB2E7196)
Strobe/Lamp Enabled: No (USB2E7196)
Correct for Detector Non-linearity: No (USB2E7196)
Correct for Stray Light: No (USB2E7196)
Number of Pixels in Processed Spectrum: 2048
>>>>>Begin Processed Spectral Data<<<<<
339.09	0.00
339.48	213.55
339.86	215.54
340.24	216.96
340.63	217.78
341.01	220.90
341.39	220.33
341.78	222.13
342.16	223.64
342.54	224.46
342.93	212.32
343.31	223.06
343.69	223.59
344.07	224.05
344.46	224.50
344.84	224.90
345.22	225.12
345.60	225.40
345.99	225.61
346.37	225.75
346.75	225.83
347.13	225.92
347.52	225.98
347.90	226.05
348.28	226.12
348.66	226.19
349.05	226.17
349.43	226.22
349.81	226.29
350.19	226.36
350.57	226.41
350.96	226.46
351.34	226.56
351.72	226.67
352.10	226.76
352.48	226.81
352.87	226.88
353.25	226.97
353.63	227.03
354.01	227.08
354.39	227.15
354.77	227.21
355.15	227.34
355.54	227.39
355.92	227.44
356.30	227.48
356.68	227.57
357.06	227.63
357.44	227.65
357.82	227.73
358.20	227.76
358.58	227.82
358.97	227.89
359.35	227.97
359.73	228.06
360.11	228.13
360.49	228.16
360.87	228.18
361.25	228.25
361.63	228.34
362.01	228.39
362.39	228.41
362.77	228.47
363.15	228.45
363.53	228.48
363.91	228.50
364.29	228.54
364.67	228.49
365.05	228.52
365.43	228.56
365.81	228.56
366.19	228.61
366.57	228.64
366.95	228.62
367.33	228.58
367.71	228.55
368.09	228.54
368.47	228.51
368.85	228.49
369.23	228.47
369.61	228.38
369.99	228.39
370.37	228.36
370.75	228.35
371.13	228.32
371.51	228.27
371.89	228.24
372.27	228.19
372.65	228.12
373.03	228.09
373.41	228.03
373.78	227.95
374.16	227.89
374.54	227.79
374.92	227.74
375.30	227.68
375.68	227.61
376.06	227.57
376.44	227.52
376.82	227.46
377.19	227.39
377.57	227.35
377.95	227.22
378.33	227.15
378.71	227.02
379.09	226.93
379.47	226.89
379.84	226.82
380.22	226.70
380.60	226.62
380.98	226.53
381.36	226.47
381.73	226.42
382.11	226.33
382.49	226.26
382.87	226.15
383.25	226.07
383.62	226.14
384.00	226.06
384.38	226.00
384.76	225.97
385.13	225.93
385.51	225.87
385.89	225.85
386.27	225.78
386.64	225.73
387.02	225.71
387.40	225.68
387.78	225.61
388.15	225.62
388.53	225.61
388.91	225.59
389.29	225.56
389.66	225.50
390.04	225.50
390.42	225.51
390.79	225.52
391.17	225.53
391.55	225.38
391.92	225.34
392.30	225.34
392.68	225.32
393.05	225.35
393.43	225.39
393.81	225.38
394.18	225.39
394.56	225.42
394.94	225.46
395.31	225.43
395.69	225.51
396.06	225.53
396.44	225.56
396.82	225.58
397.19	225.66
397.57	225.73
397.95	225.77
398.32	225.80
398.70	225.88
399.07	225.95
399.45	226.03
399.82	226.12
400.20	226.22
400.58	226.32
400.95	226.31
401.33	226.35
401.70	226.52
402.08	226.64
402.45	226.76
402.83	226.85
403.20	226.98
403.58	227.06
403.95	227.22
404.33	227.33
404.71	227.46
405.08	227.64
405.46	227.80
405.83	227.96
406.21	228.12
406.58	228.25
406.96	228.42
407.33	228.59
407.70	228.78
408.08	229.02
408.45	229.24
408.83	229.51
409.20	229.78
409.58	229.96
409.95	230.20
410.33	230.45
410.70	230.70
411.08	231.02
411.45	231.35
411.82	231.63
412.20	232.01
412.57	232.45
412.95	232.73
413.32	233.13
413.69	233.51
414.07	233.93
414.44	234.39
414.82	234.87
415.19	235.40
415.56	235.95
415.94	236.50
416.31	237.12
416.68	237.72
417.06	238.42
417.43	239.08
417.81	239.86
418.18	240.62
418.55	241.46
418.93	242.35
419.30	243.20
419.67	244.18
420.04	245.12
420.42	246.11
420.79	247.29
421.16	248.41
421.54	249.59
421.91	250.80
422.28	252.10
422.66	253.43
423.03	254.75
423.40	256.06
423.77	257.48
424.15	258.90
424.52	260.42
424.89	262.00
425.26	263.59
425.64	265.05
426.01	266.67
426.38	268.32
426.75	269.96
427.13	271.67
427.50	273.41
427.87	275.27
428.24	277.13
428.61	278.85
428.99	280.78
429.36	282.89
429.73	284.95
430.10	286.92
430.47	288.97
430.85	291.08
431.22	293.31
431.59	295.63
431.96	297.85
432.33	300.32
432.70	302.69
433.08	305.44
433.45	308.02
433.82	310.61
434.19	313.51
434.56	316.29
434.93	318.93
435.30	321.56
435.68	324.44
436.05	327.23
436.42	330.01
436.79	332.54
437.16	335.21
437.53	338.03
437.90	340.83
438.27	343.53
438.64	346.33
439.01	348.91
439.38	351.14
439.75	353.31
440.13	355.77
440.50	358.07
440.87	359.89
441.24	361.85
441.61	363.96
441.98	365.39
442.35	367.19
442.72	369.07
443.09	370.87
443.46	371.88
443.83	372.48
444.20	373.03
444.57	373.86
444.94	374.15
445.31	374.47
445.68	374.82
446.05	374.89
446.42	374.53
446.79	374.08
447.16	373.60
447.53	373.26
447.90	372.09
448.27	370.97
448.64	369.38
449.01	368.20
449.37	366.27
449.74	364.37
450.11	362.15
450.48	359.68
450.85	357.16
451.22	355.01
451.59	352.98
451.96	351.02
452.33	348.42
452.70	346.10
453.07	343.28
453.43	340.42
453.80	337.68
454.17	335.00
454.54	332.48
454.91	329.82
455.28	327.16
455.65	324.65
456.02	322.20
456.38	320.08
456.75	317.49
457.12	315.24
457.49	313.05
457.86	310.85
458.23	309.02
458.59	306.98
458.96	304.91
459.33	303.08
459.70	301.20
460.07	299.71
460.43	297.99
460.80	296.41
461.17	294.97
461.54	293.47
461.91	292.04
462.27	290.61
462.64	289.38
463.01	288.03
463.38	286.75
463.74	285.37
464.11	284.26
464.48	283.23
464.85	282.11
465.21	281.22
465.58	280.33
465.95	279.21
466.32	278.32
466.68	277.46
467.05	276.58
467.42	275.73
467.78	274.80
468.15	273.90
468.52	273.24
468.88	272.40
469.25	271.64
469.62	271.04
469.98	270.35
470.35	269.72
470.72	269.14
471.08	268.50
471.45	267.95
471.82	267.40
472.18	266.79
472.55	266.39
472.92	265.89
473.28	265.45
473.65	265.00
474.02	264.56
474.38	264.12
474.75	263.83
475.11	263.49
475.48	263.22
475.85	263.01
476.21	262.77
476.58	262.60
476.94	262.46
477.31	262.31
477.67	262.19
478.04	262.07
478.41	262.03
478.77	262.13
479.14	262.14
479.50	262.17
479.87	262.27
480.23	262.38
480.60	262.44
480.96	262.52
481.33	262.75
481.69	262.96
482.06	263.14
482.42	263.33
482.79	263.61
483.15	263.94
483.52	264.35
483.88	264.69
484.25	265.08
484.61	265.51
484.98	265.98
485.34	266.56
485.71	267.16
486.07	267.73
486.44	268.29
486.80	268.96
487.17	269.68
487.53	270.49
487.90	271.32
488.26	272.29
488.62	273.30
488.99	274.26
489.35	275.33
489.72	276.51
490.08	277.71
490.44	278.95
490.81	280.31
491.17	281.65
491.54	283.17
491.90	284.73
492.26	286.35
492.63	288.07
492.99	289.84
493.36	291.73
493.72	293.85
494.08	295.97
494.45	298.22
494.81	300.60
495.17	303.03
495.54	305.65
495.90	308.32
496.26	311.12
496.63	314.11
496.99	317.22
497.35	320.50
497.72	323.89
498.08	327.38
498.44	331.06
498.80	335.05
499.17	339.09
499.53	343.25
499.89	347.63
500.26	352.13
500.62	356.80
500.98	361.79
501.34	366.81
501.71	372.16
502.07	377.66
502.43	383.25
502.79	389.03
503.16	395.07
503.52	401.37
503.88	407.77
504.24	414.41
504.60	421.31
504.97	428.47
505.33	435.81
505.69	443.52
506.05	451.31
506.41	459.12
506.78	467.25
507.14	475.75
507.50	484.51
507.86	493.62
508.22	502.87
508.59	512.09
508.95	521.73
509.31	531.54
509.67	541.58
510.03	551.92
510.39	562.50
510.75	573.30
511.12	584.24
511.48	595.53
511.84	606.97
512.20	618.44
512.56	630.42
512.92	642.65
513.28	654.98
513.64	667.38
514.00	680.11
514.37	693.06
514.73	706.03
515.09	719.11
515.45	732.34
515.81	745.90
516.17	759.90
516.53	773.95
516.89	788.07
517.25	802.19
517.61	816.53
517.97	831.06
518.33	845.41
518.69	860.08
519.05	875.01
519.41	890.13
519.77	905.65
520.13	920.93
520.49	936.15
520.85	951.55
521.21	967.26
521.57	983.47
521.93	999.08
522.29	1015.50
522.65	1031.69
523.01	1047.76
523.37	1063.73
523.73	1079.81
524.09	1095.80
524.45	1112.08
524.81	1128.65
525.17	1145.36
525.53	1162.11
525.89	1178.99
526.25	1195.81
526.61	1212.22
526.97	1228.87
527.33	1245.24
527.68	1261.72
528.04	1278.19
528.40	1294.69
528.76	1311.65
529.12	1328.12
529.48	1345.04
529.84	1360.90
530.20	1377.45
530.56	1394.43
530.91	1411.68
531.27	1428.29
531.63	1444.69
531.99	1461.09
532.35	1477.05
532.71	1492.81
533.07	1508.97
533.42	1524.82
533.78	1540.75
534.14	1556.88
534.50	1572.06
534.86	1587.87
535.21	1603.03
535.57	1618.75
535.93	1634.22
536.29	1648.83
536.65	1663.74
537.00	1678.40
537.36	1693.66
537.72	1708.02
538.08	1722.31
538.44	1735.91
538.79	1749.82
539.15	1763.43
539.51	1777.08
539.87	1791.28
540.22	1805.02
540.58	1818.79
540.94	1831.90
541.29	1844.71
541.65	1857.27
542.01	1870.47
542.37	1882.68
542.72	1894.91
543.08	1906.65
543.44	1918.76
543.79	1929.93
544.15	1940.92
544.51	1952.37
544.87	1963.12
545.22	1973.91
545.58	1984.09
545.94	1993.89
546.29	2003.58
546.65	2013.34
547.01	2022.68
547.36	2031.38
547.72	2039.76
548.07	2047.48
548.43	2055.66
548.79	2063.66
549.14	2071.23
549.50	2078.56
549.86	2086.20
550.21	2093.67
550.57	2100.89
550.92	2107.47
551.28	2114.51
551.64	2121.54
551.99	2127.96
552.35	2134.16
552.70	2140.35
553.06	2146.27
553.41	2152.64
553.77	2158.73
554.13	2164.86
554.48	2171.03
554.84	2176.45
555.19	2181.73
555.55	2186.85
555.90	2191.23
556.26	2196.08
556.61	2200.75
556.97	2205.08
557.32	2209.22
557.68	2213.22
558.03	2217.43
558.39	2221.24
558.74	2225.94
559.10	2229.88
559.45	2233.58
559.81	2237.94
560.16	2241.53
560.52	2244.78
560.87	2248.19
561.23	2250.76
561.58	2253.67
561.94	2256.03
562.29	2258.44
562.64	2261.10
563.00	2263.65
563.35	2267.16
563.71	2270.23
564.06	2273.47
564.42	2276.29
564.77	2278.85
565.12	2281.18
565.48	2283.30
565.83	2285.24
566.19	2286.45
566.54	2287.35
566.89	2288.55
567.25	2289.09
567.60	2290.67
567.96	2292.60
568.31	2293.39
568.66	2294.58
569.02	2295.08
569.37	2295.46
569.72	2296.32
570.08	2296.49
570.43	2296.64
570.78	2296.31
571.14	2294.85
571.49	2293.47
571.84	2293.25
572.20	2292.35
572.55	2291.46
572.90	2289.94
573.26	2288.59
573.61	2287.17
573.96	2285.47
574.31	2282.55
574.67	2279.63
575.02	2275.95
575.37	2272.46
575.72	2268.82
576.08	2265.51
576.43	2262.33
576.78	2258.72
577.13	2255.60
577.49	2252.76
577.84	2249.34
578.19	2245.43
578.54	2241.89
578.90	2237.82
579.25	2232.28
579.60	2227.30
579.95	2222.22
580.30	2217.11
580.66	2211.85
581.01	2206.79
581.36	2201.93
581.71	2197.87
582.06	2193.56
582.42	2189.17
582.77	2183.99
583.12	2179.55
583.47	2174.86
583.82	2170.01
584.17	2164.85
584.53	2159.44
584.88	2153.78
585.23	2148.04
585.58	2142.77
585.93	2137.34
586.28	2132.64
586.63	2127.72
586.98	2122.58
587.34	2117.98
587.69	2113.13
588.04	2108.02
588.39	2102.43
588.74	2096.02
589.09	2089.88
589.44	2083.16
589.79	2077.28
590.14	2071.67
590.49	2065.21
590.84	2059.07
591.19	2053.09
591.54	2046.78
591.89	2039.52
592.25	2032.66
592.60	2025.50
592.95	2017.96
593.30	2010.68
593.65	2003.15
594.00	1996.06
594.35	1988.87
594.70	1980.88
595.05	1973.81
595.40	1966.68
595.75	1959.25
596.10	1953.07
596.45	1946.38
596.80	1940.29
597.15	1933.62
597.50	1926.59
597.85	1920.06
598.19	1913.21
598.54	1905.99
598.89	1899.19
599.24	1893.26
599.59	1886.65
599.94	1880.56
600.29	1874.36
600.64	1867.82
600.99	1860.51
601.34	1853.78
601.69	1846.92
602.04	1840.10
602.39	1832.70
602.74	1825.76
603.08	1819.00
603.43	1812.31
603.78	1805.02
604.13	1797.72
604.48	1790.36
604.83	1783.45
605.18	1776.57
605.53	1768.71
605.87	1760.81
606.22	1753.74
606.57	1745.82
606.92	1738.62
607.27	1731.42
607.62	1724.45
607.96	1717.18
608.31	1710.44
608.66	1702.77
609.01	1695.31
609.36	1687.70
609.70	1679.76
610.05	1671.85
610.40	1664.07
610.75	1655.77
611.10	1648.23
611.44	1639.78
611.79	1631.83
612.14	1623.28
612.49	1613.99
612.83	1605.64
613.18	1597.48
613.53	1589.34
613.88	1580.70
614.22	1572.39
614.57	1563.78
614.92	1555.69
615.27	1548.15
615.61	1539.82
615.96	1531.74
616.31	1524.03
616.65	1516.73
617.00	1509.21
617.35	1501.52
617.70	1493.25
618.04	1484.68
618.39	1476.38
618.74	1468.87
619.08	1460.53
619.43	1452.91
619.78	1446.04
620.12	1438.85
620.47	1431.43
620.82	1423.32
621.16	1416.00
621.51	1408.37
621.85	1400.74
622.20	1392.31
622.55	1383.96
622.89	1376.19
623.24	1368.54
623.59	1361.11
623.93	1353.51
624.28	1346.21
624.62	1338.65
624.97	1331.43
625.32	1324.75
625.66	1317.68
626.01	1310.50
626.35	1303.11
626.70	1295.34
627.04	1287.62
627.39	1279.79
627.73	1272.30
628.08	1265.30
628.43	1258.12
628.77	1250.73
629.12	1243.18
629.46	1235.98
629.81	1228.55
630.15	1221.26
630.50	1214.00
630.84	1205.85
631.19	1197.93
631.53	1190.50
631.88	1183.00
632.22	1175.49
632.57	1168.08
632.91	1160.53
633.26	1153.21
633.60	1145.87
633.95	1138.78
634.29	1131.74
634.64	1125.12
634.98	1117.82
635.32	1110.62
635.67	1103.87
636.01	1097.27
636.36	1090.43
636.70	1083.86
637.05	1077.31
637.39	1070.81
637.73	1064.18
638.08	1058.14
638.42	1052.25
638.77	1045.65
639.11	1038.98
639.45	1032.52
639.80	1025.93
640.14	1019.58
640.49	1012.99
640.83	1006.68
641.17	1000.42
641.52	994.00
641.86	987.48
642.20	981.57
642.55	975.31
642.89	968.90
643.23	962.31
643.58	956.59
643.92	950.43
644.26	944.33
644.61	938.24
644.95	932.24
645.29	925.71
645.64	918.86
645.98	912.64
646.32	906.80
646.66	900.79
647.01	894.95
647.35	889.14
647.69	883.22
648.04	877.61
648.38	871.83
648.72	865.93
649.06	859.91
649.41	853.98
649.75	848.02
650.09	842.08
650.43	836.27
650.78	830.05
651.12	824.04
651.46	818.32
651.80	812.71
652.14	807.36
652.49	802.00
652.83	796.87
653.17	791.12
653.51	785.44
653.85	780.06
654.20	774.45
654.54	768.56
654.88	762.82
655.22	756.97
655.56	751.27
655.90	745.75
656.25	740.47
656.59	735.14
656.93	730.03
657.27	724.85
657.61	719.38
657.95	714.25
658.29	709.22
658.64	703.98
658.98	698.58
659.32	693.10
659.66	687.93
660.00	682.49
660.34	677.59
660.68	672.61
661.02	667.60
661.36	662.83
661.70	658.25
662.05	653.91
662.39	649.56
662.73	645.13
663.07	640.79
663.41	636.32
663.75	631.86
664.09	627.29
664.43	622.89
664.77	618.83
665.11	614.61
665.45	610.47
665.79	606.35
666.13	602.28
666.47	598.18
666.81	593.98
667.15	589.89
667.49	586.02
667.83	582.25
668.17	578.28
668.51	574.22
668.85	570.25
669.19	566.42
669.53	562.54
669.87	558.66
670.21	554.94
670.55	551.35
670.89	547.89
671.23	544.49
671.57	540.99
671.91	537.44
672.25	533.94
672.58	530.45
672.92	527.02
673.26	523.81
673.60	520.64
673.94	517.56
674.28	514.68
674.62	511.69
674.96	508.58
675.30	505.69
675.64	502.74
675.97	499.91
676.31	497.06
676.65	494.17
676.99	491.47
677.33	488.67
677.67	485.84
678.01	482.86
678.34	479.90
678.68	477.02
679.02	474.18
679.36	471.39
679.70	468.67
680.04	465.94
680.37	463.02
680.71	460.22
681.05	457.53
681.39	454.82
681.73	452.15
682.06	449.59
682.40	446.96
682.74	444.47
683.08	441.94
683.42	439.33
683.75	436.86
684.09	434.27
684.43	431.73
684.77	429.29
685.10	426.89
685.44	424.57
685.78	422.31
686.12	420.07
686.45	417.79
686.79	415.45
687.13	413.23
687.46	411.05
687.80	408.89
688.14	406.71
688.48	404.68
688.81	402.45
689.15	400.29
689.49	398.17
689.82	396.04
690.16	393.94
690.50	391.96
690.83	390.00
691.17	388.01
691.51	386.13
691.84	384.25
692.18	382.32
692.52	380.32
692.85	378.36
693.19	376.46
693.52	374.63
693.86	372.81
694.20	371.06
694.53	369.31
694.87	367.47
695.21	365.71
695.54	363.87
695.88	362.15
696.21	360.42
696.55	358.74
696.88	357.08
697.22	355.43
697.56	353.81
697.89	352.13
698.23	350.56
698.56	348.92
698.90	347.33
699.23	345.71
699.57	344.14
699.90	342.59
700.24	341.08
700.58	339.57
700.91	338.06
701.25	336.62
701.58	335.25
701.92	333.90
702.25	332.50
702.59	331.14
702.92	329.80
703.26	328.50
703.59	327.22
703.93	326.08
704.26	324.86
704.60	323.55
704.93	322.29
705.26	321.03
705.60	319.83
705.93	318.69
706.27	317.63
706.60	316.55
706.94	315.46
707.27	314.35
707.61	313.28
707.94	312.26
708.27	311.13
708.61	310.02
708.94	309.03
709.28	308.03
709.61	307.10
709.94	306.12
710.28	305.12
710.61	304.16
710.95	303.03
711.28	302.12
711.61	301.21
711.95	300.26
712.28	299.30
712.61	298.32
712.95	297.35
713.28	296.46
713.61	295.61
713.95	294.73
714.28	293.88
714.61	293.02
714.95	292.15
715.28	291.29
715.61	290.43
715.95	289.57
716.28	288.70
716.61	287.83
716.95	287.06
717.28	286.31
717.61	285.53
717.94	284.82
718.28	283.95
718.61	283.22
718.94	282.54
719.27	281.89
719.61	281.26
719.94	280.64
720.27	279.91
720.60	279.21
720.94	278.57
721.27	277.96
721.60	277.38
721.93	276.82
722.27	276.25
722.60	275.71
722.93	275.14
723.26	274.62
723.59	274.04
723.93	273.46
724.26	272.90
724.59	272.36
724.92	271.84
725.25	271.43
725.59	270.89
725.92	270.36
726.25	269.87
726.58	269.37
726.91	268.84
727.24	268.36
727.57	267.92
727.91	267.44
728.24	266.99
728.57	266.51
728.90	266.07
729.23	265.63
729.56	265.20
729.89	264.70
730.22	264.24
730.55	263.76
730.89	263.32
731.22	262.88
731.55	262.44
731.88	262.02
732.21	261.58
732.54	261.17
732.87	260.77
733.20	260.33
733.53	259.95
733.86	259.58
734.19	259.18
734.52	258.79
734.85	258.47
735.18	258.02
735.51	257.65
735.84	257.25
736.17	256.88
736.50	256.45
736.83	256.25
737.16	255.91
737.49	255.60
737.82	255.23
738.15	254.93
738.48	254.60
738.81	254.27
739.14	253.94
739.47	253.62
739.80	253.29
740.13	253.03
740.46	252.68
740.79	252.38
741.12	252.10
741.45	251.80
741.78	251.44
742.11	251.18
742.44	250.87
742.77	250.60
743.10	250.31
743.43	250.03
743.75	249.64
744.08	249.49
744.41	249.24
744.74	249.00
745.07	248.70
745.40	248.42
745.73	248.17
746.06	247.90
746.39	247.63
746.71	247.36
747.04	247.06
747.37	246.82
747.70	246.57
748.03	246.27
748.36	246.06
748.68	245.82
749.01	245.54
749.34	245.32
749.67	245.09
750.00	244.87
750.33	244.73
750.65	244.50
750.98	244.15
751.31	243.94
751.64	243.72
751.97	243.57
752.29	243.36
752.62	243.10
752.95	242.88
753.28	242.67
753.60	242.48
753.93	242.33
754.26	242.12
754.59	241.89
754.91	241.73
755.24	241.51
755.57	241.34
755.90	241.13
756.22	240.93
756.55	240.74
756.88	240.52
757.20	240.25
757.53	240.08
757.86	239.89
758.19	239.68
758.51	239.50
758.84	239.25
759.17	239.07
759.49	238.91
759.82	238.79
760.15	238.67
760.47	238.50
760.80	238.33
761.13	238.23
761.45	238.05
761.78	237.89
762.11	237.74
762.43	237.57
762.76	237.44
763.08	237.29
763.41	237.13
763.74	237.02
764.06	236.92
764.39	236.78
764.71	236.67
765.04	236.57
765.37	236.44
765.69	236.32
766.02	236.21
766.34	236.11
766.67	235.95
767.00	235.81
767.32	235.76
767.65	235.67
767.97	235.57
768.30	235.46
768.62	235.39
768.95	235.24
769.27	235.12
769.60	235.03
769.92	234.90
770.25	234.79
770.57	234.68
770.90	234.54
771.22	234.41
771.55	234.30
771.87	234.19
772.20	234.08
772.52	234.08
772.85	234.08
773.17	233.99
773.50	233.90
773.82	233.77
774.15	233.62
774.47	233.49
774.80	233.36
775.12	233.33
775.45	233.22
775.77	233.17
776.09	233.12
776.42	233.06
776.74	233.01
777.07	232.94
777.39	232.84
777.72	232.78
778.04	232.76
778.36	232.69
778.69	232.61
779.01	232.57
779.33	232.39
779.66	232.22
779.98	232.14
780.31	232.08
780.63	232.08
780.95	232.03
781.28	231.95
781.60	231.87
781.92	231.79
782.25	231.70
782.57	231.64
782.89	231.57
783.22	231.50
783.54	231.44
783.86	231.40
784.19	231.35
784.51	231.30
784.83	231.19
785.16	231.13
785.48	231.09
785.80	231.01
786.12	231.00
786.45	230.97
786.77	230.92
787.09	230.87
787.42	230.84
787.74	230.78
788.06	230.77
788.38	230.75
788.71	230.69
789.03	230.67
789.35	230.64
789.67	230.60
789.99	230.55
790.32	230.52
790.64	230.48
790.96	230.50
791.28	230.44
791.61	230.41
791.93	230.37
792.25	230.31
792.57	230.38
792.89	230.29
793.21	230.24
793.54	230.19
793.86	230.14
794.18	230.07
794.50	230.05
794.82	229.98
795.14	229.95
795.47	229.94
795.79	229.92
796.11	229.87
796.43	229.84
796.75	229.81
797.07	229.77
797.39	229.75
797.71	229.65
798.04	229.60
798.36	229.55
798.68	229.52
799.00	229.49
799.32	229.38
799.64	229.40
799.96	229.35
800.28	229.31
800.60	229.27
800.92	229.23
801.24	229.15
801.56	229.15
801.89	229.09
802.21	229.06
802.53	228.99
802.85	228.98
803.17	228.97
803.49	228.91
803.81	228.86
804.13	228.81
804.45	228.79
804.77	228.80
805.09	228.79
805.41	228.74
805.73	228.71
806.05	228.66
806.37	228.61
806.69	228.60
807.01	228.59
807.33	228.57
807.65	228.52
807.97	228.53
808.28	228.49
808.60	228.46
808.92	228.40
809.24	228.44
809.56	228.40
809.88	228.36
810.20	228.34
810.52	228.33
810.84	228.30
811.16	228.25
811.48	228.22
811.80	228.22
812.12	228.22
812.43	228.22
812.75	228.23
813.07	228.20
813.39	228.20
813.71	228.15
814.03	228.13
814.35	228.14
814.67	228.10
814.98	228.09
815.30	228.10
815.62	228.07
815.94	227.97
816.26	227.98
816.58	227.92
816.89	227.92
817.21	227.89
817.53	227.87
817.85	227.86
818.17	227.81
818.48	227.77
818.80	227.77
819.12	227.74
819.44	227.68
819.76	227.64
820.07	227.60
820.39	227.58
820.71	227.57
821.03	227.54
821.34	227.52
821.66	227.51
821.98	227.46
822.30	227.44
822.61	227.53
822.93	227.48
823.25	227.50
823.57	227.44
823.88	227.46
824.20	227.42
824.52	227.44
824.83	227.43
825.15	227.39
825.47	227.34
825.79	227.31
826.10	227.29
826.42	227.30
826.74	227.29
827.05	227.29
827.37	227.28
827.69	227.26
828.00	227.23
828.32	227.21
828.64	227.18
828.95	227.22
829.27	227.16
829.58	227.13
829.90	227.10
830.22	227.12
830.53	227.08
830.85	227.09
831.17	227.02
831.48	226.99
831.80	226.99
832.11	226.96
832.43	226.96
832.75	226.94
833.06	226.98
833.38	226.92
833.69	226.90
834.01	226.87
834.32	226.85
834.64	226.85
834.96	226.86
835.27	226.90
835.59	226.86
835.90	226.83
836.22	226.83
836.53	226.79
836.85	226.78
837.16	226.88
837.48	226.85
837.79	226.89
838.11	226.90
838.42	226.92
838.74	226.97
839.05	226.96
839.37	226.96
839.68	226.87
840.00	226.85
840.31	226.85
840.63	226.86
840.94	226.84
841.26	226.80
841.57	226.79
841.88	226.74
842.20	226.73
842.51	226.71
842.83	226.72
843.14	226.81
843.46	226.82
843.77	226.73
844.08	226.74
844.40	226.71
844.71	226.68
845.03	226.64
845.34	226.62
845.65	226.62
845.97	226.62
846.28	226.64
846.60	226.67
846.91	226.69
847.22	226.67
847.54	226.70
847.85	226.72
848.16	226.69
848.48	226.72
848.79	226.75
849.10	226.76
849.42	226.75
849.73	226.65
850.04	226.66
850.36	226.63
850.67	226.62
850.98	226.63
851.30	226.63
851.61	226.66
851.92	226.65
852.23	226.70
852.55	226.72
852.86	226.76
853.17	226.75
853.49	226.77
853.80	226.79
854.11	226.81
854.42	226.82
854.74	226.82
855.05	226.79
855.36	226.77
855.67	226.75
855.99	226.75
856.30	226.86
856.61	226.86
856.92	226.90
857.23	226.90
857.55	226.91
857.86	226.93
858.17	226.94
858.48	226.91
858.79	226.88
859.11	226.89
859.42	226.83
859.73	226.85
860.04	226.83
860.35	226.81
860.66	226.79
860.98	226.77
861.29	226.76
861.60	226.78
861.91	226.76
862.22	226.80
862.53	226.79
862.84	226.72
863.16	226.68
863.47	226.63
863.78	226.62
864.09	226.64
864.40	226.65
864.71	226.59
865.02	226.60
865.33	226.56
865.64	226.55
865.95	226.59
866.27	226.64
866.58	226.63
866.89	226.65
867.20	226.64
867.51	226.66
867.82	226.66
868.13	226.67
868.44	226.66
868.75	226.63
869.06	226.60
869.37	226.57
869.68	226.57
869.99	226.59
870.30	226.62
870.61	226.57
870.92	226.52
871.23	226.55
871.54	226.55
871.85	226.58
872.16	226.55
872.47	226.49
872.78	226.42
873.09	226.41
873.40	226.39
873.71	226.38
874.02	226.37
874.33	226.35
874.64	226.32
874.95	226.31
875.26	226.30
875.56	226.30
875.87	226.27
876.18	226.25
876.49	226.34
876.80	226.31
877.11	226.28
877.42	226.28
877.73	226.28
878.04	226.27
878.35	226.29
878.66	226.30
878.96	226.32
879.27	226.31
879.58	226.34
879.89	226.30
880.20	226.31
880.51	226.29
880.82	226.29
881.12	226.28
881.43	226.26
881.74	226.24
882.05	226.24
882.36	226.30
882.67	226.30
882.97	226.19
883.28	226.19
883.59	226.20
883.90	226.24
884.21	226.24
884.51	226.23
884.82	226.21
885.13	226.19
885.44	226.18
885.74	226.20
886.05	226.17
886.36	226.20
886.67	226.17
886.98	226.24
887.28	226.27
887.59	226.32
887.90	226.35
888.20	226.35
888.51	226.38
888.82	226.36
889.13	226.41
889.43	226.51
889.74	226.52
890.05	226.53
890.35	226.49
890.66	226.48
890.97	226.48
891.28	226.47
891.58	226.47
891.89	226.50
892.20	226.48
892.50	226.50
892.81	226.49
893.12	226.52
893.42	226.46
893.73	226.46
894.04	226.41
894.34	226.43
894.65	226.45
894.95	226.42
895.26	226.42
895.57	226.45
895.87	226.34
896.18	226.35
896.48	226.36
896.79	226.39
897.10	226.43
897.40	226.43
897.71	226.46
898.01	226.46
898.32	226.45
898.63	226.42
898.93	226.38
899.24	226.38
899.54	226.35
899.85	226.36
900.15	226.36
900.46	226.36
900.76	226.33
901.07	226.32
901.38	226.32
901.68	226.35
901.99	226.28
902.29	226.29
902.60	226.26
902.90	226.24
903.21	226.19
903.51	226.16
903.82	226.16
904.12	226.14
904.43	226.11
904.73	226.11
905.03	226.14
905.34	226.27
905.64	226.26
905.95	226.27
906.25	226.26
906.56	226.23
906.86	226.24
907.17	226.23
907.47	226.22
907.77	226.19
908.08	226.14
908.38	226.13
908.69	226.15
908.99	226.19
909.30	226.21
909.60	226.24
909.90	226.24
910.21	226.23
910.51	226.22
910.81	226.26
911.12	226.23
911.42	226.23
911.73	226.13
912.03	226.15
912.33	226.14
912.64	226.13
912.94	226.13
913.24	226.14
913.55	226.12
913.85	226.10
914.15	226.12
914.46	226.14
914.76	226.12
915.06	226.11
915.37	226.08
915.67	226.05
915.97	226.05
916.27	226.02
916.58	225.99
916.88	225.97
917.18	225.96
917.49	226.06
917.79	226.04
918.09	226.06
918.39	226.07
918.70	226.06
919.00	226.06
919.30	226.13
919.60	226.09
919.91	226.08
920.21	226.12
920.51	226.07
920.81	226.06
921.12	226.11
921.42	226.11
921.72	226.10
922.02	226.11
922.32	226.14
922.63	226.15
922.93	226.23
923.23	226.22
923.53	226.18
923.83	226.10
924.13	226.12
924.44	226.10
924.74	226.11
925.04	226.16
925.34	226.18
925.64	226.13
925.94	226.14
926.24	226.24
926.55	226.24
926.85	226.28
927.15	226.30
927.45	226.29
927.75	226.28
928.05	226.29
928.35	226.29
928.65	226.28
928.95	226.28
929.26	226.26
929.56	226.31
929.86	226.34
930.16	226.35
930.46	226.34
930.76	226.37
931.06	226.33
931.36	226.29
931.66	226.29
931.96	226.31
932.26	226.30
932.56	226.24
932.86	226.24
933.16	226.27
933.46	226.25
933.76	226.23
934.06	226.24
934.36	226.28
934.66	226.26
934.96	226.25
935.26	226.30
935.56	226.29
935.86	226.26
936.16	226.24
936.46	226.22
936.76	226.22
937.06	226.17
937.36	226.19
937.66	226.19
937.96	226.15
938.26	226.13
938.56	226.12
938.86	226.12
939.16	226.15
939.46	226.15
939.76	226.17
940.06	226.16
940.35	226.15
940.65	226.09
940.95	226.14
941.25	226.12
941.55	226.07
941.85	226.07
942.15	226.09
942.45	226.10
942.75	226.10
943.04	226.13
943.34	226.14
943.64	226.16
943.94	226.16
944.24	226.18
944.54	226.15
944.84	226.16
945.13	226.15
945.43	226.14
945.73	226.12
946.03	226.09
946.33	226.13
946.62	226.14
946.92	226.13
947.22	226.12
947.52	226.11
947.82	226.14
948.11	226.12
948.41	226.12
948.71	226.10
949.01	226.07
949.31	226.01
949.60	226.03
949.90	225.99
950.20	225.97
950.50	225.96
950.79	225.95
951.09	225.97
951.39	225.94
951.69	225.91
951.98	225.92
952.28	225.91
952.58	225.86
952.87	225.85
953.17	225.85
953.47	225.83
953.76	225.82
954.06	225.78
954.36	225.75
954.66	225.72
954.95	225.74
955.25	225.79
955.55	225.83
955.84	225.79
956.14	225.80
956.44	225.82
956.73	225.79
957.03	225.84
957.32	225.80
957.62	225.81
957.92	225.80
958.21	225.77
958.51	225.85
958.81	225.85
959.10	225.83
959.40	225.86
959.69	225.86
959.99	225.88
960.29	225.87
960.58	225.86
960.88	225.91
961.17	225.89
961.47	225.89
961.76	225.89
962.06	225.92
962.36	225.94
962.65	225.89
962.95	225.91
963.24	225.85
963.54	225.86
963.83	225.90
964.13	225.90
964.42	225.92
964.72	225.87
965.01	225.88
965.31	225.86
965.60	225.82
965.90	225.91
966.19	225.88
966.49	225.90
966.78	225.89
967.08	225.84
967.37	225.87
967.67	225.84
967.96	225.80
968.26	225.77
968.55	225.75
968.85	225.80
969.14	225.82
969.43	225.86
969.73	225.87
970.02	225.86
970.32	225.87
970.61	225.86
970.91	225.85
971.20	225.83
971.49	225.83
971.79	225.84
972.08	225.76
972.38	225.78
972.67	225.79
972.96	225.82
973.26	225.83
973.55	225.88
973.85	225.92
974.14	225.94
974.43	225.97
974.73	225.98
975.02	225.99
975.31	226.02
975.61	226.05
975.90	226.04
976.19	226.03
976.49	226.06
976.78	226.07
977.07	226.05
977.37	226.08
977.66	226.14
977.95	226.14
978.24	226.17
978.54	226.20
978.83	226.21
979.12	226.23
979.42	226.22
979.71	226.17
980.00	226.13
980.29	226.14
980.59	226.12
980.88	226.14
981.17	226.11
981.46	226.09
981.76	226.07
982.05	226.12
982.34	226.11
982.63	226.08
982.93	226.08
983.22	226.11
983.51	226.14
983.80	226.15
984.09	226.14
984.39	226.12
984.68	226.10
984.97	226.10
985.26	226.07
985.55	226.09
985.85	226.10
986.14	226.13
986.43	226.15
986.72	226.14
987.01	226.09
987.30	226.09
987.59	226.06
987.89	226.05
988.18	225.99
988.47	225.99
988.76	225.99
989.05	226.00
989.34	225.99
989.63	225.96
989.92	225.92
990.22	225.90
990.51	225.88
990.80	225.88
991.09	225.85
991.38	225.89
991.67	225.89
991.96	225.88
992.25	225.87
992.54	225.79
992.83	225.79
993.12	225.80
993.41	225.80
993.70	225.84
993.99	225.84
994.28	225.84
994.58	225.83
994.87	225.82
995.16	225.80
995.45	225.80
995.74	225.76
996.03	225.78
996.32	225.83
996.61	225.86
996.90	225.83
997.19	225.83
997.48	225.79
997.77	225.77
998.06	225.74
998.34	225.74
998.63	225.78
998.92	225.76
999.21	225.78
999.50	225.77
999.79	225.74
1000.08	225.71
1000.37	225.71
1000.66	225.69
1000.95	225.73
1001.24	225.75
1001.53	225.73
1001.82	225.75
1002.11	225.71
1002.40	225.70
1002.68	225.72
1002.97	225.78
1003.26	225.76
1003.55	225.73
1003.84	225.75
1004.13	225.83
1004.42	225.82
1004.71	225.82
1004.99	225.84
1005.28	225.87
1005.57	225.88
1005.86	225.85
1006.15	225.90
1006.44	225.88
1006.72	225.90
1007.01	225.86
1007.30	225.83
1007.59	225.83
1007.88	225.82
1008.17	225.86
1008.45	225.83
1008.74	225.76
1009.03	225.72
1009.32	225.73
1009.60	225.79
1009.89	225.76
1010.18	225.66
1010.47	225.64
1010.76	225.66
1011.04	225.68
1011.33	225.67
1011.62	225.68
1011.91	225.70
1012.19	225.68
1012.48	225.70
1012.77	225.71
1013.05	225.76
1013.34	225.78
1013.63	225.80
1013.92	225.81
1014.20	225.76
1014.49	225.78
1014.78	225.83
1015.06	225.81
1015.35	225.81
1015.64	225.83
1015.92	225.87
1016.21	225.90
1016.50	225.91
1016.78	225.88
1017.07	225.89
1017.36	225.88
1017.64	225.89
1017.93	225.89
1018.22	225.90
1018.50	225.91
1018.79	225.92
1019.08	225.88
1019.36	225.87
1019.65	225.86
1019.93	225.90
1020.22	225.99
1020.51	226.04
1020.79	226.04
1021.08	225.88
1021.36	225.74
1021.65	226.33
1021.94	225.95
1022.22	225.76
1022.51	225.55
1022.79	226.49
1023.08	226.67
1023.36	227.39
1023.65	226.20
>>>>>End Processed Spectral Data<<<<<
