SpectraSuite Data File
++++++++++++++++++++++++++++++++++++
Date: Fri Feb 01 15:03:52 EST 2013
User: group
Dark Spectrum Present: No
Reference Spectrum Present: No
Number of Sampled Component Spectra: 1
Spectrometers: USB2E7196
Integration Time (usec): 35000 (USB2E7196)
Spectra Averaged: 100 (USB2E7196)
Boxcar Smoothing: 10 (USB2E7196)
Correct for Electrical Dark: No (USB2E7196)
Strobe/Lamp Enabled: No (USB2E7196)
Correct for Detector Non-linearity: No (USB2E7196)
Correct for Stray Light: No (USB2E7196)
Number of Pixels in Processed Spectrum: 2048
>>>>>Begin Processed Spectral Data<<<<<
339.09	0.00
339.48	214.71
339.86	216.23
340.24	218.16
340.63	219.47
341.01	221.59
341.39	221.72
341.78	223.24
342.16	224.59
342.54	225.38
342.93	213.38
343.31	224.16
343.69	224.74
344.07	225.21
344.46	225.64
344.84	226.01
345.22	226.27
345.60	226.54
345.99	226.75
346.37	226.87
346.75	226.92
347.13	227.00
347.52	227.06
347.90	227.14
348.28	227.17
348.66	227.20
349.05	227.21
349.43	227.25
349.81	227.32
350.19	227.39
350.57	227.45
350.96	227.47
351.34	227.56
351.72	227.62
352.10	227.76
352.48	227.81
352.87	227.90
353.25	227.98
353.63	228.04
354.01	228.10
354.39	228.19
354.77	228.32
355.15	228.42
355.54	228.49
355.92	228.54
356.30	228.65
356.68	228.78
357.06	228.83
357.44	228.89
357.82	228.95
358.20	228.99
358.58	229.07
358.97	229.19
359.35	229.28
359.73	229.35
360.11	229.41
360.49	229.48
360.87	229.50
361.25	229.54
361.63	229.61
362.01	229.64
362.39	229.66
362.77	229.69
363.15	229.70
363.53	229.73
363.91	229.72
364.29	229.74
364.67	229.67
365.05	229.68
365.43	229.68
365.81	229.71
366.19	229.74
366.57	229.79
366.95	229.77
367.33	229.72
367.71	229.68
368.09	229.64
368.47	229.63
368.85	229.58
369.23	229.58
369.61	229.52
369.99	229.53
370.37	229.51
370.75	229.51
371.13	229.45
371.51	229.39
371.89	229.36
372.27	229.30
372.65	229.24
373.03	229.19
373.41	229.13
373.78	229.03
374.16	228.93
374.54	228.81
374.92	228.72
375.30	228.66
375.68	228.58
376.06	228.52
376.44	228.42
376.82	228.39
377.19	228.31
377.57	228.23
377.95	228.11
378.33	228.02
378.71	227.90
379.09	227.82
379.47	227.77
379.84	227.70
380.22	227.60
380.60	227.51
380.98	227.42
381.36	227.34
381.73	227.27
382.11	227.21
382.49	227.16
382.87	227.06
383.25	227.02
383.62	227.05
384.00	226.97
384.38	226.87
384.76	226.80
385.13	226.74
385.51	226.66
385.89	226.58
386.27	226.49
386.64	226.44
387.02	226.41
387.40	226.35
387.78	226.30
388.15	226.26
388.53	226.21
388.91	226.15
389.29	226.14
389.66	226.12
390.04	226.09
390.42	226.05
390.79	226.04
391.17	225.99
391.55	225.89
391.92	225.88
392.30	225.90
392.68	225.91
393.05	225.90
393.43	225.95
393.81	226.00
394.18	226.04
394.56	226.08
394.94	226.10
395.31	226.12
395.69	226.19
396.06	226.26
396.44	226.35
396.82	226.42
397.19	226.52
397.57	226.60
397.95	226.66
398.32	226.69
398.70	226.75
399.07	226.86
399.45	226.93
399.82	226.99
400.20	227.08
400.58	227.16
400.95	227.22
401.33	227.31
401.70	227.47
402.08	227.58
402.45	227.69
402.83	227.80
403.20	227.93
403.58	228.02
403.95	228.16
404.33	228.29
404.71	228.42
405.08	228.61
405.46	228.71
405.83	228.87
406.21	229.07
406.58	229.27
406.96	229.41
407.33	229.61
407.70	229.85
408.08	230.16
408.45	230.38
408.83	230.67
409.20	230.88
409.58	231.06
409.95	231.35
410.33	231.62
410.70	231.89
411.08	232.22
411.45	232.53
411.82	232.86
412.20	233.21
412.57	233.66
412.95	233.95
413.32	234.38
413.69	234.79
414.07	235.23
414.44	235.72
414.82	236.18
415.19	236.75
415.56	237.26
415.94	237.77
416.31	238.42
416.68	239.01
417.06	239.76
417.43	240.43
417.81	241.17
418.18	241.97
418.55	242.81
418.93	243.67
419.30	244.57
419.67	245.50
420.04	246.42
420.42	247.38
420.79	248.57
421.16	249.72
421.54	250.94
421.91	252.14
422.28	253.39
422.66	254.77
423.03	256.07
423.40	257.44
423.77	258.81
424.15	260.23
424.52	261.72
424.89	263.30
425.26	264.87
425.64	266.35
426.01	267.91
426.38	269.59
426.75	271.24
427.13	272.97
427.50	274.76
427.87	276.66
428.24	278.53
428.61	280.28
428.99	282.23
429.36	284.30
429.73	286.37
430.10	288.36
430.47	290.40
430.85	292.51
431.22	294.78
431.59	297.18
431.96	299.40
432.33	301.89
432.70	304.27
433.08	307.09
433.45	309.70
433.82	312.30
434.19	315.14
434.56	317.94
434.93	320.61
435.30	323.30
435.68	326.20
436.05	329.02
436.42	331.79
436.79	334.31
437.16	337.04
437.53	339.89
437.90	342.74
438.27	345.48
438.64	348.34
439.01	350.92
439.38	353.15
439.75	355.35
440.13	357.91
440.50	360.25
440.87	362.07
441.24	363.99
441.61	366.18
441.98	367.69
442.35	369.49
442.72	371.37
443.09	373.12
443.46	374.08
443.83	374.67
444.20	375.20
444.57	376.05
444.94	376.30
445.31	376.70
445.68	377.01
446.05	377.13
446.42	376.72
446.79	376.28
447.16	375.83
447.53	375.50
447.90	374.30
448.27	373.15
448.64	371.59
449.01	370.51
449.37	368.53
449.74	366.64
450.11	364.45
450.48	361.96
450.85	359.45
451.22	357.31
451.59	355.30
451.96	353.35
452.33	350.74
452.70	348.39
453.07	345.49
453.43	342.61
453.80	339.82
454.17	337.16
454.54	334.62
454.91	331.91
455.28	329.23
455.65	326.73
456.02	324.28
456.38	322.14
456.75	319.46
457.12	317.22
457.49	314.97
457.86	312.78
458.23	310.92
458.59	308.85
458.96	306.78
459.33	304.94
459.70	303.09
460.07	301.55
460.43	299.83
460.80	298.23
461.17	296.81
461.54	295.30
461.91	293.86
462.27	292.42
462.64	291.16
463.01	289.77
463.38	288.52
463.74	287.14
464.11	285.98
464.48	284.92
464.85	283.80
465.21	282.95
465.58	282.03
465.95	280.91
466.32	279.98
466.68	279.11
467.05	278.18
467.42	277.27
467.78	276.36
468.15	275.43
468.52	274.74
468.88	273.83
469.25	273.06
469.62	272.39
469.98	271.70
470.35	271.06
470.72	270.50
471.08	269.79
471.45	269.23
471.82	268.65
472.18	268.04
472.55	267.56
472.92	267.01
473.28	266.52
473.65	266.09
474.02	265.66
474.38	265.24
474.75	264.90
475.11	264.55
475.48	264.26
475.85	264.04
476.21	263.79
476.58	263.61
476.94	263.44
477.31	263.26
477.67	263.08
478.04	262.97
478.41	262.87
478.77	262.88
479.14	262.80
479.50	262.79
479.87	262.89
480.23	262.98
480.60	263.04
480.96	263.15
481.33	263.30
481.69	263.51
482.06	263.70
482.42	263.91
482.79	264.15
483.15	264.46
483.52	264.85
483.88	265.21
484.25	265.58
484.61	266.00
484.98	266.46
485.34	267.02
485.71	267.59
486.07	268.20
486.44	268.75
486.80	269.44
487.17	270.18
487.53	270.96
487.90	271.78
488.26	272.75
488.62	273.71
488.99	274.68
489.35	275.67
489.72	276.79
490.08	277.98
490.44	279.21
490.81	280.56
491.17	281.90
491.54	283.36
491.90	284.86
492.26	286.48
492.63	288.20
492.99	289.99
493.36	291.87
493.72	293.86
494.08	295.96
494.45	298.20
494.81	300.52
495.17	302.92
495.54	305.50
495.90	308.14
496.26	310.91
496.63	313.90
496.99	317.00
497.35	320.20
497.72	323.58
498.08	327.12
498.44	330.79
498.80	334.66
499.17	338.64
499.53	342.81
499.89	347.20
500.26	351.70
500.62	356.32
500.98	361.33
501.34	366.42
501.71	371.75
502.07	377.16
502.43	382.82
502.79	388.63
503.16	394.63
503.52	400.89
503.88	407.26
504.24	413.89
504.60	420.81
504.97	427.93
505.33	435.22
505.69	442.87
506.05	450.62
506.41	458.51
506.78	466.68
507.14	475.12
507.50	483.84
507.86	492.89
508.22	502.05
508.59	511.19
508.95	520.78
509.31	530.62
509.67	540.75
510.03	550.98
510.39	561.47
510.75	572.33
511.12	583.27
511.48	594.57
511.84	606.01
512.20	617.48
512.56	629.44
512.92	641.57
513.28	653.94
513.64	666.39
514.00	679.06
514.37	692.03
514.73	705.07
515.09	718.13
515.45	731.42
515.81	745.06
516.17	758.98
516.53	773.10
516.89	787.23
517.25	801.45
517.61	815.91
517.97	830.45
518.33	844.86
518.69	859.63
519.05	874.73
519.41	889.87
519.77	905.46
520.13	920.95
520.49	936.45
520.85	951.84
521.21	967.57
521.57	983.94
521.93	999.78
522.29	1016.29
522.65	1032.55
523.01	1048.80
523.37	1064.89
523.73	1081.19
524.09	1097.30
524.45	1113.69
524.81	1130.44
525.17	1147.38
525.53	1164.38
525.89	1181.35
526.25	1198.26
526.61	1214.59
526.97	1231.49
527.33	1247.98
527.68	1264.65
528.04	1281.15
528.40	1297.88
528.76	1315.07
529.12	1331.80
529.48	1348.68
529.84	1364.76
530.20	1381.50
530.56	1398.62
530.91	1416.13
531.27	1432.97
531.63	1449.43
531.99	1466.11
532.35	1482.13
532.71	1497.96
533.07	1514.18
533.42	1530.12
533.78	1546.18
534.14	1562.57
534.50	1577.86
534.86	1593.83
535.21	1609.01
535.57	1625.11
535.93	1640.74
536.29	1655.59
536.65	1670.69
537.00	1685.63
537.36	1701.02
537.72	1715.62
538.08	1730.04
538.44	1743.86
538.79	1757.79
539.15	1771.82
539.51	1785.62
539.87	1799.97
540.22	1813.87
540.58	1827.80
540.94	1841.35
541.29	1854.42
541.65	1867.22
542.01	1880.64
542.37	1893.03
542.72	1905.73
543.08	1917.60
543.44	1930.04
543.79	1941.33
544.15	1952.26
544.51	1963.81
544.87	1974.97
545.22	1985.78
545.58	1996.12
545.94	2006.00
546.29	2015.89
546.65	2025.67
547.01	2034.88
547.36	2043.71
547.72	2052.19
548.07	2060.13
548.43	2068.29
548.79	2076.38
549.14	2083.98
549.50	2091.28
549.86	2099.05
550.21	2106.21
550.57	2113.33
550.92	2119.91
551.28	2127.09
551.64	2134.27
551.99	2140.88
552.35	2146.89
552.70	2153.06
553.06	2159.00
553.41	2165.26
553.77	2171.34
554.13	2177.28
554.48	2183.37
554.84	2188.76
555.19	2194.05
555.55	2199.13
555.90	2203.53
556.26	2208.21
556.61	2212.85
556.97	2216.92
557.32	2221.01
557.68	2225.14
558.03	2229.41
558.39	2233.09
558.74	2237.59
559.10	2241.33
559.45	2244.92
559.81	2249.29
560.16	2252.98
560.52	2256.06
560.87	2259.50
561.23	2262.17
561.58	2265.22
561.94	2267.79
562.29	2270.19
562.64	2272.81
563.00	2275.40
563.35	2278.80
563.71	2282.04
564.06	2285.09
564.42	2288.02
564.77	2290.41
565.12	2292.55
565.48	2294.30
565.83	2295.90
566.19	2297.09
566.54	2297.99
566.89	2299.05
567.25	2299.39
567.60	2300.83
567.96	2302.40
568.31	2303.11
568.66	2304.09
569.02	2304.49
569.37	2304.85
569.72	2305.42
570.08	2305.48
570.43	2305.25
570.78	2304.42
571.14	2302.57
571.49	2301.31
571.84	2300.88
572.20	2299.61
572.55	2298.47
572.90	2296.83
573.26	2295.40
573.61	2293.56
573.96	2291.62
574.31	2288.46
574.67	2285.18
575.02	2281.33
575.37	2277.88
575.72	2273.89
576.08	2270.49
576.43	2267.07
576.78	2263.02
577.13	2259.79
577.49	2256.49
577.84	2252.96
578.19	2249.15
578.54	2245.46
578.90	2241.02
579.25	2235.35
579.60	2230.18
579.95	2225.05
580.30	2219.90
580.66	2214.58
581.01	2209.53
581.36	2204.38
581.71	2200.11
582.06	2195.56
582.42	2190.93
582.77	2185.60
583.12	2180.90
583.47	2175.78
583.82	2170.55
584.17	2165.35
584.53	2159.74
584.88	2153.94
585.23	2148.06
585.58	2142.56
585.93	2136.98
586.28	2132.13
586.63	2126.96
586.98	2121.81
587.34	2117.18
587.69	2112.26
588.04	2107.05
588.39	2101.32
588.74	2094.85
589.09	2088.46
589.44	2081.71
589.79	2075.64
590.14	2069.95
590.49	2063.20
590.84	2056.78
591.19	2050.72
591.54	2044.01
591.89	2036.53
592.25	2029.59
592.60	2022.22
592.95	2014.49
593.30	2007.02
593.65	1999.39
594.00	1992.17
594.35	1984.83
594.70	1976.55
595.05	1969.08
595.40	1961.61
595.75	1953.97
596.10	1947.68
596.45	1940.97
596.80	1934.79
597.15	1928.07
597.50	1920.80
597.85	1914.45
598.19	1907.75
598.54	1900.61
598.89	1894.03
599.24	1888.04
599.59	1881.33
599.94	1875.16
600.29	1868.76
600.64	1862.27
600.99	1854.58
601.34	1847.76
601.69	1840.82
602.04	1833.75
602.39	1826.43
602.74	1819.53
603.08	1812.85
603.43	1806.02
603.78	1798.62
604.13	1791.30
604.48	1783.90
604.83	1777.05
605.18	1769.99
605.53	1762.02
605.87	1753.94
606.22	1746.82
606.57	1738.90
606.92	1731.71
607.27	1724.50
607.62	1717.57
607.96	1710.24
608.31	1703.75
608.66	1696.13
609.01	1688.45
609.36	1681.04
609.70	1673.11
610.05	1665.12
610.40	1657.37
610.75	1649.08
611.10	1641.39
611.44	1633.02
611.79	1625.08
612.14	1616.39
612.49	1607.32
612.83	1598.95
613.18	1590.91
613.53	1582.71
613.88	1574.18
614.22	1565.79
614.57	1557.18
614.92	1549.13
615.27	1541.47
615.61	1533.08
615.96	1525.09
616.31	1517.48
616.65	1510.23
617.00	1502.67
617.35	1494.93
617.70	1486.44
618.04	1477.92
618.39	1469.79
618.74	1462.15
619.08	1454.01
619.43	1446.54
619.78	1439.70
620.12	1432.58
620.47	1425.07
620.82	1416.95
621.16	1409.54
621.51	1402.03
621.85	1394.50
622.20	1386.07
622.55	1377.93
622.89	1370.18
623.24	1362.65
623.59	1355.41
623.93	1347.81
624.28	1340.57
624.62	1333.06
624.97	1326.02
625.32	1319.42
625.66	1312.45
626.01	1305.37
626.35	1297.79
626.70	1290.13
627.04	1282.42
627.39	1274.67
627.73	1267.24
628.08	1260.27
628.43	1252.98
628.77	1245.74
629.12	1238.19
629.46	1231.10
629.81	1223.66
630.15	1216.45
630.50	1209.04
630.84	1200.86
631.19	1193.11
631.53	1185.54
631.88	1178.12
632.22	1170.48
632.57	1163.12
632.91	1155.64
633.26	1148.23
633.60	1140.91
633.95	1133.77
634.29	1126.60
634.64	1119.89
634.98	1112.61
635.32	1105.50
635.67	1099.01
636.01	1092.32
636.36	1085.53
636.70	1079.09
637.05	1072.56
637.39	1066.21
637.73	1059.75
638.08	1053.88
638.42	1047.85
638.77	1041.48
639.11	1034.93
639.45	1028.64
639.80	1022.05
640.14	1015.57
640.49	1009.08
640.83	1002.79
641.17	996.56
641.52	990.30
641.86	983.96
642.20	978.13
642.55	971.99
642.89	965.48
643.23	958.94
643.58	953.16
643.92	946.81
644.26	940.73
644.61	934.68
644.95	928.70
645.29	922.12
645.64	915.41
645.98	909.21
646.32	903.43
646.66	897.46
647.01	891.69
647.35	886.05
647.69	880.24
648.04	874.77
648.38	869.02
648.72	863.10
649.06	857.03
649.41	851.17
649.75	845.10
650.09	839.18
650.43	833.39
650.78	827.25
651.12	821.43
651.46	815.69
651.80	809.88
652.14	804.48
652.49	799.15
652.83	793.95
653.17	788.18
653.51	782.43
653.85	777.05
654.20	771.34
654.54	765.37
654.88	759.66
655.22	753.84
655.56	748.17
655.90	742.72
656.25	737.48
656.59	732.12
656.93	727.10
657.27	721.93
657.61	716.53
657.95	711.44
658.29	706.40
658.64	701.25
658.98	696.04
659.32	690.53
659.66	685.39
660.00	680.07
660.34	675.16
660.68	670.31
661.02	665.27
661.36	660.69
661.70	656.22
662.05	651.90
662.39	647.51
662.73	643.12
663.07	638.78
663.41	634.35
663.75	629.85
664.09	625.28
664.43	620.98
664.77	616.91
665.11	612.69
665.45	608.55
665.79	604.47
666.13	600.33
666.47	596.28
666.81	592.10
667.15	588.07
667.49	584.23
667.83	580.42
668.17	576.54
668.51	572.41
668.85	568.40
669.19	564.59
669.53	560.74
669.87	556.85
670.21	553.12
670.55	549.55
670.89	546.19
671.23	542.77
671.57	539.27
671.91	535.77
672.25	532.30
672.58	528.83
672.92	525.46
673.26	522.34
673.60	519.21
673.94	516.13
674.28	513.23
674.62	510.28
674.96	507.19
675.30	504.26
675.64	501.39
675.97	498.63
676.31	495.75
676.65	492.88
676.99	490.18
677.33	487.41
677.67	484.60
678.01	481.54
678.34	478.56
678.68	475.72
679.02	472.90
679.36	470.18
679.70	467.45
680.04	464.64
680.37	461.74
680.71	459.02
681.05	456.42
681.39	453.77
681.73	451.14
682.06	448.60
682.40	446.10
682.74	443.58
683.08	441.06
683.42	438.49
683.75	436.04
684.09	433.53
684.43	431.05
684.77	428.59
685.10	426.34
685.44	424.13
685.78	421.86
686.12	419.63
686.45	417.34
686.79	415.06
687.13	412.93
687.46	410.82
687.80	408.65
688.14	406.43
688.48	404.37
688.81	402.11
689.15	399.96
689.49	397.81
689.82	395.78
690.16	393.74
690.50	391.82
690.83	389.84
691.17	387.87
691.51	385.92
691.84	384.09
692.18	382.13
692.52	380.13
692.85	378.19
693.19	376.35
693.52	374.56
693.86	372.81
694.20	371.05
694.53	369.28
694.87	367.45
695.21	365.69
695.54	363.86
695.88	362.22
696.21	360.55
696.55	358.92
696.88	357.23
697.22	355.53
697.56	353.90
697.89	352.29
698.23	350.69
698.56	349.16
698.90	347.52
699.23	345.88
699.57	344.33
699.90	342.79
700.24	341.20
700.58	339.67
700.91	338.15
701.25	336.68
701.58	335.31
701.92	333.92
702.25	332.54
702.59	331.19
702.92	329.81
703.26	328.49
703.59	327.19
703.93	325.98
704.26	324.76
704.60	323.46
704.93	322.21
705.26	320.96
705.60	319.81
705.93	318.70
706.27	317.70
706.60	316.69
706.94	315.65
707.27	314.56
707.61	313.52
707.94	312.49
708.27	311.38
708.61	310.30
708.94	309.35
709.28	308.40
709.61	307.44
709.94	306.51
710.28	305.49
710.61	304.56
710.95	303.50
711.28	302.60
711.61	301.67
711.95	300.74
712.28	299.83
712.61	298.83
712.95	297.90
713.28	297.01
713.61	296.09
713.95	295.20
714.28	294.36
714.61	293.49
714.95	292.68
715.28	291.90
715.61	291.03
715.95	290.13
716.28	289.31
716.61	288.50
716.95	287.70
717.28	286.98
717.61	286.22
717.94	285.50
718.28	284.72
718.61	284.05
718.94	283.37
719.27	282.71
719.61	282.07
719.94	281.43
720.27	280.73
720.60	280.05
720.94	279.38
721.27	278.83
721.60	278.28
721.93	277.69
722.27	277.11
722.60	276.53
722.93	275.98
723.26	275.44
723.59	274.86
723.93	274.32
724.26	273.76
724.59	273.20
724.92	272.68
725.25	272.19
725.59	271.66
725.92	271.15
726.25	270.65
726.58	270.19
726.91	269.68
727.24	269.24
727.57	268.79
727.91	268.33
728.24	267.85
728.57	267.34
728.90	266.87
729.23	266.36
729.56	265.97
729.89	265.52
730.22	265.03
730.55	264.56
730.89	264.10
731.22	263.64
731.55	263.18
731.88	262.73
732.21	262.29
732.54	261.83
732.87	261.37
733.20	261.00
733.53	260.61
733.86	260.26
734.19	259.83
734.52	259.49
734.85	259.16
735.18	258.74
735.51	258.34
735.84	258.00
736.17	257.67
736.50	257.22
736.83	256.98
737.16	256.63
737.49	256.27
737.82	255.89
738.15	255.56
738.48	255.24
738.81	254.95
739.14	254.63
739.47	254.30
739.80	254.02
740.13	253.68
740.46	253.29
740.79	252.96
741.12	252.63
741.45	252.28
741.78	251.93
742.11	251.65
742.44	251.35
742.77	251.01
743.10	250.74
743.43	250.50
743.75	250.14
744.08	250.04
744.41	249.75
744.74	249.52
745.07	249.22
745.40	248.99
745.73	248.71
746.06	248.42
746.39	248.17
746.71	247.91
747.04	247.61
747.37	247.40
747.70	247.14
748.03	246.90
748.36	246.70
748.68	246.45
749.01	246.21
749.34	245.99
749.67	245.79
750.00	245.54
750.33	245.36
750.65	245.17
750.98	244.80
751.31	244.60
751.64	244.39
751.97	244.24
752.29	244.01
752.62	243.78
752.95	243.55
753.28	243.35
753.60	243.12
753.93	242.98
754.26	242.77
754.59	242.55
754.91	242.33
755.24	242.13
755.57	241.96
755.90	241.76
756.22	241.58
756.55	241.38
756.88	241.20
757.20	240.95
757.53	240.75
757.86	240.57
758.19	240.42
758.51	240.27
758.84	240.07
759.17	239.91
759.49	239.75
759.82	239.67
760.15	239.51
760.47	239.41
760.80	239.24
761.13	239.12
761.45	239.01
761.78	238.88
762.11	238.73
762.43	238.59
762.76	238.45
763.08	238.32
763.41	238.21
763.74	238.08
764.06	237.96
764.39	237.82
764.71	237.70
765.04	237.57
765.37	237.43
765.69	237.33
766.02	237.17
766.34	237.06
766.67	236.92
767.00	236.82
767.32	236.72
767.65	236.67
767.97	236.50
768.30	236.39
768.62	236.29
768.95	236.18
769.27	236.05
769.60	236.01
769.92	235.88
770.25	235.75
770.57	235.64
770.90	235.51
771.22	235.37
771.55	235.29
771.87	235.19
772.20	235.12
772.52	235.09
772.85	235.12
773.17	235.00
773.50	234.90
773.82	234.78
774.15	234.66
774.47	234.48
774.80	234.38
775.12	234.28
775.45	234.17
775.77	234.11
776.09	234.03
776.42	233.88
776.74	233.85
777.07	233.75
777.39	233.67
777.72	233.59
778.04	233.56
778.36	233.48
778.69	233.41
779.01	233.30
779.33	233.17
779.66	232.99
779.98	232.91
780.31	232.85
780.63	232.87
780.95	232.79
781.28	232.75
781.60	232.71
781.92	232.65
782.25	232.60
782.57	232.50
782.89	232.45
783.22	232.40
783.54	232.30
783.86	232.25
784.19	232.24
784.51	232.22
784.83	232.16
785.16	232.07
785.48	232.03
785.80	232.01
786.12	231.96
786.45	231.92
786.77	231.92
787.09	231.86
787.42	231.76
787.74	231.76
788.06	231.71
788.38	231.66
788.71	231.59
789.03	231.56
789.35	231.57
789.67	231.50
789.99	231.46
790.32	231.41
790.64	231.38
790.96	231.41
791.28	231.34
791.61	231.30
791.93	231.29
792.25	231.26
792.57	231.28
792.89	231.22
793.21	231.18
793.54	231.07
793.86	231.04
794.18	231.01
794.50	230.94
794.82	230.93
795.14	230.91
795.47	230.95
795.79	230.90
796.11	230.84
796.43	230.82
796.75	230.82
797.07	230.82
797.39	230.82
797.71	230.71
798.04	230.68
798.36	230.67
798.68	230.64
799.00	230.62
799.32	230.57
799.64	230.59
799.96	230.59
800.28	230.61
800.60	230.57
800.92	230.57
801.24	230.53
801.56	230.53
801.89	230.50
802.21	230.45
802.53	230.44
802.85	230.43
803.17	230.46
803.49	230.39
803.81	230.33
804.13	230.28
804.45	230.24
804.77	230.22
805.09	230.22
805.41	230.18
805.73	230.11
806.05	230.06
806.37	230.00
806.69	229.95
807.01	229.94
807.33	229.91
807.65	229.83
807.97	229.87
808.28	229.82
808.60	229.77
808.92	229.73
809.24	229.75
809.56	229.72
809.88	229.67
810.20	229.69
810.52	229.71
810.84	229.69
811.16	229.66
811.48	229.65
811.80	229.64
812.12	229.60
812.43	229.60
812.75	229.57
813.07	229.55
813.39	229.55
813.71	229.50
814.03	229.49
814.35	229.47
814.67	229.41
814.98	229.35
815.30	229.35
815.62	229.31
815.94	229.25
816.26	229.26
816.58	229.25
816.89	229.20
817.21	229.16
817.53	229.14
817.85	229.09
818.17	229.05
818.48	228.97
818.80	228.97
819.12	228.95
819.44	228.89
819.76	228.84
820.07	228.77
820.39	228.75
820.71	228.75
821.03	228.72
821.34	228.69
821.66	228.69
821.98	228.66
822.30	228.62
822.61	228.63
822.93	228.57
823.25	228.51
823.57	228.47
823.88	228.50
824.20	228.44
824.52	228.46
824.83	228.45
825.15	228.46
825.47	228.44
825.79	228.43
826.10	228.41
826.42	228.40
826.74	228.42
827.05	228.39
827.37	228.39
827.69	228.37
828.00	228.34
828.32	228.32
828.64	228.33
828.95	228.39
829.27	228.35
829.58	228.35
829.90	228.34
830.22	228.37
830.53	228.33
830.85	228.31
831.17	228.28
831.48	228.28
831.80	228.26
832.11	228.25
832.43	228.24
832.75	228.20
833.06	228.25
833.38	228.23
833.69	228.24
834.01	228.22
834.32	228.21
834.64	228.22
834.96	228.23
835.27	228.20
835.59	228.15
835.90	228.15
836.22	228.13
836.53	228.08
836.85	228.05
837.16	228.11
837.48	228.11
837.79	228.16
838.11	228.15
838.42	228.14
838.74	228.15
839.05	228.10
839.37	228.12
839.68	228.07
840.00	228.06
840.31	228.10
840.63	228.08
840.94	228.07
841.26	228.04
841.57	228.01
841.88	228.02
842.20	228.02
842.51	227.95
842.83	227.97
843.14	228.09
843.46	228.06
843.77	228.01
844.08	228.02
844.40	227.95
844.71	227.93
845.03	227.91
845.34	227.89
845.65	227.90
845.97	227.91
846.28	227.90
846.60	227.89
846.91	227.85
847.22	227.81
847.54	227.83
847.85	227.85
848.16	227.85
848.48	227.82
848.79	227.85
849.10	227.89
849.42	227.85
849.73	227.76
850.04	227.78
850.36	227.76
850.67	227.76
850.98	227.77
851.30	227.80
851.61	227.80
851.92	227.79
852.23	227.81
852.55	227.81
852.86	227.82
853.17	227.82
853.49	227.83
853.80	227.87
854.11	227.84
854.42	227.85
854.74	227.84
855.05	227.81
855.36	227.76
855.67	227.76
855.99	227.79
856.30	227.89
856.61	227.87
856.92	227.85
857.23	227.83
857.55	227.80
857.86	227.79
858.17	227.77
858.48	227.74
858.79	227.72
859.11	227.73
859.42	227.72
859.73	227.73
860.04	227.69
860.35	227.65
860.66	227.64
860.98	227.62
861.29	227.64
861.60	227.68
861.91	227.70
862.22	227.68
862.53	227.66
862.84	227.54
863.16	227.57
863.47	227.59
863.78	227.59
864.09	227.63
864.40	227.62
864.71	227.65
865.02	227.67
865.33	227.67
865.64	227.64
865.95	227.65
866.27	227.70
866.58	227.70
866.89	227.70
867.20	227.69
867.51	227.66
867.82	227.65
868.13	227.69
868.44	227.65
868.75	227.65
869.06	227.63
869.37	227.62
869.68	227.59
869.99	227.58
870.30	227.57
870.61	227.55
870.92	227.54
871.23	227.52
871.54	227.54
871.85	227.57
872.16	227.60
872.47	227.58
872.78	227.51
873.09	227.54
873.40	227.56
873.71	227.57
874.02	227.62
874.33	227.60
874.64	227.59
874.95	227.66
875.26	227.65
875.56	227.67
875.87	227.68
876.18	227.71
876.49	227.77
876.80	227.77
877.11	227.77
877.42	227.80
877.73	227.77
878.04	227.77
878.35	227.71
878.66	227.69
878.96	227.69
879.27	227.73
879.58	227.69
879.89	227.64
880.20	227.70
880.51	227.66
880.82	227.66
881.12	227.65
881.43	227.62
881.74	227.61
882.05	227.62
882.36	227.61
882.67	227.60
882.97	227.53
883.28	227.52
883.59	227.47
883.90	227.46
884.21	227.44
884.51	227.44
884.82	227.44
885.13	227.43
885.44	227.41
885.74	227.39
886.05	227.38
886.36	227.41
886.67	227.33
886.98	227.37
887.28	227.37
887.59	227.32
887.90	227.30
888.20	227.32
888.51	227.30
888.82	227.28
889.13	227.30
889.43	227.35
889.74	227.34
890.05	227.36
890.35	227.36
890.66	227.37
890.97	227.34
891.28	227.34
891.58	227.36
891.89	227.35
892.20	227.33
892.50	227.34
892.81	227.34
893.12	227.38
893.42	227.34
893.73	227.34
894.04	227.33
894.34	227.36
894.65	227.34
894.95	227.35
895.26	227.37
895.57	227.42
895.87	227.30
896.18	227.28
896.48	227.26
896.79	227.27
897.10	227.28
897.40	227.29
897.71	227.28
898.01	227.27
898.32	227.32
898.63	227.32
898.93	227.30
899.24	227.28
899.54	227.29
899.85	227.26
900.15	227.24
900.46	227.27
900.76	227.26
901.07	227.27
901.38	227.24
901.68	227.28
901.99	227.22
902.29	227.25
902.60	227.29
902.90	227.32
903.21	227.30
903.51	227.34
903.82	227.35
904.12	227.42
904.43	227.42
904.73	227.41
905.03	227.40
905.34	227.52
905.64	227.54
905.95	227.50
906.25	227.49
906.56	227.53
906.86	227.50
907.17	227.52
907.47	227.50
907.77	227.51
908.08	227.48
908.38	227.49
908.69	227.50
908.99	227.51
909.30	227.51
909.60	227.49
909.90	227.45
910.21	227.44
910.51	227.40
910.81	227.38
911.12	227.40
911.42	227.44
911.73	227.33
912.03	227.32
912.33	227.36
912.64	227.40
912.94	227.37
913.24	227.35
913.55	227.31
913.85	227.30
914.15	227.34
914.46	227.31
914.76	227.28
915.06	227.26
915.37	227.23
915.67	227.21
915.97	227.28
916.27	227.24
916.58	227.23
916.88	227.20
917.18	227.17
917.49	227.22
917.79	227.16
918.09	227.16
918.39	227.19
918.70	227.17
919.00	227.16
919.30	227.18
919.60	227.20
919.91	227.17
920.21	227.19
920.51	227.15
920.81	227.16
921.12	227.20
921.42	227.20
921.72	227.21
922.02	227.23
922.32	227.20
922.63	227.23
922.93	227.28
923.23	227.27
923.53	227.28
923.83	227.19
924.13	227.23
924.44	227.24
924.74	227.27
925.04	227.27
925.34	227.26
925.64	227.25
925.94	227.29
926.24	227.35
926.55	227.33
926.85	227.32
927.15	227.32
927.45	227.28
927.75	227.28
928.05	227.26
928.35	227.23
928.65	227.23
928.95	227.21
929.26	227.16
929.56	227.15
929.86	227.16
930.16	227.14
930.46	227.12
930.76	227.13
931.06	227.03
931.36	227.00
931.66	227.02
931.96	227.00
932.26	226.95
932.56	226.92
932.86	226.91
933.16	226.93
933.46	226.93
933.76	226.93
934.06	226.97
934.36	227.02
934.66	227.02
934.96	227.02
935.26	227.05
935.56	227.08
935.86	227.07
936.16	227.07
936.46	227.03
936.76	227.03
937.06	227.01
937.36	227.02
937.66	227.01
937.96	227.02
938.26	227.01
938.56	227.00
938.86	227.02
939.16	227.06
939.46	227.06
939.76	227.06
940.06	227.06
940.35	227.03
940.65	226.99
940.95	226.98
941.25	226.96
941.55	226.95
941.85	226.94
942.15	226.97
942.45	227.01
942.75	227.07
943.04	227.08
943.34	227.10
943.64	227.14
943.94	227.15
944.24	227.12
944.54	227.13
944.84	227.12
945.13	227.10
945.43	227.09
945.73	227.09
946.03	227.10
946.33	227.10
946.62	227.08
946.92	227.09
947.22	227.12
947.52	227.13
947.82	227.13
948.11	227.13
948.41	227.11
948.71	227.09
949.01	227.11
949.31	227.08
949.60	227.08
949.90	227.07
950.20	227.07
950.50	227.11
950.79	227.11
951.09	227.17
951.39	227.14
951.69	227.11
951.98	227.12
952.28	227.11
952.58	227.11
952.87	227.12
953.17	227.11
953.47	227.09
953.76	227.10
954.06	227.10
954.36	227.08
954.66	227.08
954.95	227.10
955.25	227.11
955.55	227.12
955.84	227.11
956.14	227.12
956.44	227.12
956.73	227.11
957.03	227.10
957.32	227.09
957.62	227.11
957.92	227.11
958.21	227.14
958.51	227.26
958.81	227.27
959.10	227.27
959.40	227.30
959.69	227.30
959.99	227.31
960.29	227.29
960.58	227.27
960.88	227.30
961.17	227.26
961.47	227.27
961.76	227.28
962.06	227.26
962.36	227.24
962.65	227.23
962.95	227.22
963.24	227.25
963.54	227.25
963.83	227.28
964.13	227.25
964.42	227.18
964.72	227.06
965.01	227.06
965.31	227.06
965.60	227.01
965.90	227.07
966.19	227.02
966.49	227.03
966.78	227.06
967.08	227.06
967.37	227.08
967.67	227.03
967.96	227.04
968.26	227.05
968.55	227.08
968.85	227.07
969.14	227.07
969.43	227.01
969.73	227.00
970.02	226.96
970.32	226.97
970.61	227.00
970.91	226.97
971.20	226.93
971.49	226.92
971.79	226.93
972.08	226.84
972.38	226.86
972.67	226.85
972.96	226.86
973.26	226.86
973.55	226.89
973.85	226.87
974.14	226.84
974.43	226.86
974.73	226.82
975.02	226.81
975.31	226.82
975.61	226.86
975.90	226.84
976.19	226.82
976.49	226.83
976.78	226.84
977.07	226.84
977.37	226.85
977.66	226.87
977.95	226.86
978.24	226.89
978.54	226.94
978.83	226.91
979.12	226.92
979.42	226.89
979.71	226.84
980.00	226.84
980.29	226.88
980.59	226.85
980.88	226.90
981.17	226.92
981.46	226.90
981.76	226.89
982.05	226.95
982.34	226.98
982.63	226.98
982.93	226.99
983.22	227.05
983.51	227.06
983.80	227.05
984.09	227.09
984.39	227.07
984.68	227.06
984.97	227.08
985.26	227.07
985.55	227.10
985.85	227.12
986.14	227.18
986.43	227.19
986.72	227.18
987.01	227.17
987.30	227.14
987.59	227.17
987.89	227.21
988.18	227.17
988.47	227.17
988.76	227.19
989.05	227.20
989.34	227.16
989.63	227.23
989.92	227.24
990.22	227.22
990.51	227.23
990.80	227.22
991.09	227.22
991.38	227.22
991.67	227.17
991.96	227.16
992.25	227.14
992.54	227.13
992.83	227.15
993.12	227.12
993.41	227.16
993.70	227.16
993.99	227.15
994.28	227.15
994.58	227.15
994.87	227.12
995.16	227.10
995.45	227.07
995.74	227.02
996.03	227.03
996.32	227.05
996.61	227.08
996.90	227.07
997.19	227.10
997.48	227.08
997.77	227.09
998.06	227.08
998.34	227.08
998.63	227.05
998.92	227.05
999.21	227.08
999.50	227.06
999.79	227.05
1000.08	227.02
1000.37	227.02
1000.66	227.02
1000.95	227.05
1001.24	227.03
1001.53	227.05
1001.82	227.02
1002.11	227.01
1002.40	226.98
1002.68	226.97
1002.97	227.00
1003.26	226.94
1003.55	226.94
1003.84	226.96
1004.13	226.98
1004.42	226.93
1004.71	226.94
1004.99	226.92
1005.28	226.92
1005.57	226.94
1005.86	226.91
1006.15	226.91
1006.44	226.88
1006.72	226.86
1007.01	226.83
1007.30	226.85
1007.59	226.82
1007.88	226.84
1008.17	226.80
1008.45	226.78
1008.74	226.75
1009.03	226.71
1009.32	226.72
1009.60	226.71
1009.89	226.67
1010.18	226.64
1010.47	226.67
1010.76	226.66
1011.04	226.66
1011.33	226.66
1011.62	226.63
1011.91	226.67
1012.19	226.65
1012.48	226.68
1012.77	226.69
1013.05	226.74
1013.34	226.74
1013.63	226.76
1013.92	226.75
1014.20	226.74
1014.49	226.74
1014.78	226.78
1015.06	226.78
1015.35	226.77
1015.64	226.78
1015.92	226.81
1016.21	226.81
1016.50	226.81
1016.78	226.82
1017.07	226.84
1017.36	226.80
1017.64	226.81
1017.93	226.82
1018.22	226.81
1018.50	226.80
1018.79	226.84
1019.08	226.78
1019.36	226.78
1019.65	226.74
1019.93	226.80
1020.22	226.87
1020.51	226.93
1020.79	226.88
1021.08	226.56
1021.36	226.80
1021.65	227.53
1021.94	226.54
1022.22	226.63
1022.51	226.47
1022.79	227.79
1023.08	227.30
1023.36	227.76
1023.65	226.35
>>>>>End Processed Spectral Data<<<<<
