SpectraSuite Data File
++++++++++++++++++++++++++++++++++++
Date: Fri Feb 01 15:42:32 EST 2013
User: group
Dark Spectrum Present: No
Reference Spectrum Present: No
Number of Sampled Component Spectra: 1
Spectrometers: USB2E7196
Integration Time (usec): 35000 (USB2E7196)
Spectra Averaged: 100 (USB2E7196)
Boxcar Smoothing: 10 (USB2E7196)
Correct for Electrical Dark: No (USB2E7196)
Strobe/Lamp Enabled: No (USB2E7196)
Correct for Detector Non-linearity: No (USB2E7196)
Correct for Stray Light: No (USB2E7196)
Number of Pixels in Processed Spectrum: 2048
>>>>>Begin Processed Spectral Data<<<<<
339.09	0.00
339.48	214.74
339.86	216.82
340.24	217.67
340.63	218.64
341.01	221.82
341.39	222.21
341.78	223.21
342.16	224.50
342.54	224.77
342.93	213.28
343.31	224.08
343.69	224.61
344.07	225.04
344.46	225.48
344.84	225.88
345.22	226.14
345.60	226.35
345.99	226.52
346.37	226.65
346.75	226.73
347.13	226.79
347.52	226.84
347.90	226.87
348.28	226.87
348.66	226.88
349.05	226.87
349.43	226.89
349.81	226.93
350.19	226.99
350.57	227.01
350.96	227.10
351.34	227.17
351.72	227.24
352.10	227.37
352.48	227.42
352.87	227.50
353.25	227.54
353.63	227.63
354.01	227.71
354.39	227.77
354.77	227.89
355.15	228.01
355.54	228.06
355.92	228.10
356.30	228.17
356.68	228.34
357.06	228.43
357.44	228.50
357.82	228.60
358.20	228.67
358.58	228.77
358.97	228.82
359.35	228.85
359.73	228.96
360.11	228.99
360.49	229.04
360.87	229.07
361.25	229.11
361.63	229.17
362.01	229.24
362.39	229.28
362.77	229.34
363.15	229.35
363.53	229.38
363.91	229.43
364.29	229.48
364.67	229.39
365.05	229.39
365.43	229.43
365.81	229.43
366.19	229.48
366.57	229.49
366.95	229.48
367.33	229.48
367.71	229.48
368.09	229.46
368.47	229.46
368.85	229.44
369.23	229.46
369.61	229.40
369.99	229.40
370.37	229.39
370.75	229.36
371.13	229.31
371.51	229.24
371.89	229.21
372.27	229.15
372.65	229.16
373.03	229.07
373.41	228.98
373.78	228.93
374.16	228.84
374.54	228.74
374.92	228.69
375.30	228.63
375.68	228.53
376.06	228.49
376.44	228.41
376.82	228.34
377.19	228.25
377.57	228.18
377.95	228.07
378.33	227.98
378.71	227.88
379.09	227.82
379.47	227.80
379.84	227.70
380.22	227.61
380.60	227.48
380.98	227.46
381.36	227.38
381.73	227.28
382.11	227.23
382.49	227.19
382.87	227.12
383.25	227.05
383.62	227.10
384.00	227.03
384.38	226.95
384.76	226.90
385.13	226.89
385.51	226.84
385.89	226.77
386.27	226.70
386.64	226.68
387.02	226.62
387.40	226.53
387.78	226.48
388.15	226.49
388.53	226.48
388.91	226.41
389.29	226.35
389.66	226.31
390.04	226.27
390.42	226.26
390.79	226.24
391.17	226.23
391.55	226.13
391.92	226.13
392.30	226.16
392.68	226.13
393.05	226.12
393.43	226.14
393.81	226.20
394.18	226.21
394.56	226.22
394.94	226.28
395.31	226.30
395.69	226.37
396.06	226.44
396.44	226.47
396.82	226.54
397.19	226.69
397.57	226.75
397.95	226.82
398.32	226.85
398.70	226.90
399.07	227.02
399.45	227.09
399.82	227.14
400.20	227.21
400.58	227.30
400.95	227.34
401.33	227.43
401.70	227.56
402.08	227.66
402.45	227.76
402.83	227.86
403.20	227.99
403.58	228.08
403.95	228.19
404.33	228.36
404.71	228.49
405.08	228.65
405.46	228.78
405.83	228.90
406.21	229.01
406.58	229.18
406.96	229.30
407.33	229.43
407.70	229.63
408.08	229.89
408.45	230.10
408.83	230.33
409.20	230.55
409.58	230.71
409.95	230.98
410.33	231.23
410.70	231.46
411.08	231.74
411.45	232.04
411.82	232.30
412.20	232.63
412.57	233.02
412.95	233.31
413.32	233.71
413.69	234.12
414.07	234.58
414.44	235.06
414.82	235.52
415.19	236.09
415.56	236.66
415.94	237.19
416.31	237.81
416.68	238.43
417.06	239.10
417.43	239.77
417.81	240.52
418.18	241.27
418.55	242.09
418.93	242.95
419.30	243.84
419.67	244.83
420.04	245.80
420.42	246.78
420.79	247.95
421.16	249.10
421.54	250.30
421.91	251.48
422.28	252.74
422.66	254.09
423.03	255.42
423.40	256.74
423.77	258.15
424.15	259.57
424.52	261.06
424.89	262.70
425.26	264.27
425.64	265.68
426.01	267.27
426.38	268.94
426.75	270.63
427.13	272.35
427.50	274.15
427.87	276.00
428.24	277.89
428.61	279.62
428.99	281.58
429.36	283.65
429.73	285.73
430.10	287.77
430.47	289.78
430.85	291.91
431.22	294.13
431.59	296.48
431.96	298.75
432.33	301.24
432.70	303.62
433.08	306.42
433.45	309.05
433.82	311.65
434.19	314.55
434.56	317.40
434.93	320.10
435.30	322.70
435.68	325.59
436.05	328.40
436.42	331.16
436.79	333.66
437.16	336.36
437.53	339.25
437.90	342.04
438.27	344.82
438.64	347.60
439.01	350.19
439.38	352.47
439.75	354.63
440.13	357.11
440.50	359.45
440.87	361.34
441.24	363.35
441.61	365.57
441.98	367.07
442.35	368.87
442.72	370.73
443.09	372.55
443.46	373.62
443.83	374.20
444.20	374.77
444.57	375.62
444.94	375.95
445.31	376.27
445.68	376.62
446.05	376.72
446.42	376.38
446.79	376.03
447.16	375.60
447.53	375.30
447.90	374.16
448.27	373.00
448.64	371.42
449.01	370.24
449.37	368.29
449.74	366.39
450.11	364.16
450.48	361.65
450.85	359.15
451.22	356.94
451.59	354.93
451.96	352.97
452.33	350.36
452.70	348.02
453.07	345.19
453.43	342.30
453.80	339.53
454.17	336.87
454.54	334.24
454.91	331.51
455.28	328.83
455.65	326.35
456.02	323.89
456.38	321.73
456.75	319.14
457.12	316.86
457.49	314.66
457.86	312.49
458.23	310.64
458.59	308.57
458.96	306.51
459.33	304.64
459.70	302.79
460.07	301.30
460.43	299.56
460.80	297.88
461.17	296.43
461.54	294.89
461.91	293.43
462.27	292.01
462.64	290.73
463.01	289.41
463.38	288.10
463.74	286.74
464.11	285.51
464.48	284.44
464.85	283.36
465.21	282.47
465.58	281.49
465.95	280.40
466.32	279.50
466.68	278.58
467.05	277.67
467.42	276.76
467.78	275.87
468.15	275.00
468.52	274.36
468.88	273.50
469.25	272.75
469.62	272.11
469.98	271.46
470.35	270.82
470.72	270.22
471.08	269.53
471.45	269.03
471.82	268.54
472.18	267.94
472.55	267.49
472.92	266.96
473.28	266.54
473.65	266.08
474.02	265.63
474.38	265.29
474.75	265.00
475.11	264.68
475.48	264.37
475.85	264.12
476.21	263.90
476.58	263.75
476.94	263.61
477.31	263.45
477.67	263.29
478.04	263.19
478.41	263.10
478.77	263.17
479.14	263.08
479.50	263.09
479.87	263.14
480.23	263.19
480.60	263.30
480.96	263.34
481.33	263.52
481.69	263.69
482.06	263.90
482.42	264.06
482.79	264.30
483.15	264.62
483.52	265.04
483.88	265.38
484.25	265.75
484.61	266.18
484.98	266.64
485.34	267.21
485.71	267.80
486.07	268.41
486.44	268.98
486.80	269.66
487.17	270.39
487.53	271.23
487.90	272.08
488.26	272.99
488.62	274.01
488.99	274.98
489.35	276.03
489.72	277.15
490.08	278.38
490.44	279.62
490.81	280.97
491.17	282.33
491.54	283.85
491.90	285.39
492.26	287.02
492.63	288.78
492.99	290.54
493.36	292.45
493.72	294.50
494.08	296.60
494.45	298.88
494.81	301.26
495.17	303.69
495.54	306.26
495.90	308.97
496.26	311.78
496.63	314.73
496.99	317.86
497.35	321.09
497.72	324.49
498.08	328.02
498.44	331.64
498.80	335.53
499.17	339.52
499.53	343.69
499.89	348.09
500.26	352.54
500.62	357.21
500.98	362.14
501.34	367.21
501.71	372.53
502.07	377.99
502.43	383.53
502.79	389.28
503.16	395.39
503.52	401.60
503.88	408.00
504.24	414.71
504.60	421.58
504.97	428.71
505.33	436.05
505.69	443.74
506.05	451.54
506.41	459.37
506.78	467.54
507.14	475.98
507.50	484.69
507.86	493.72
508.22	502.90
508.59	512.14
508.95	521.75
509.31	531.53
509.67	541.61
510.03	551.99
510.39	562.58
510.75	573.38
511.12	584.36
511.48	595.60
511.84	607.01
512.20	618.52
512.56	630.52
512.92	642.69
513.28	655.02
513.64	667.53
514.00	680.31
514.37	693.31
514.73	706.39
515.09	719.42
515.45	732.75
515.81	746.39
516.17	760.39
516.53	774.47
516.89	788.66
517.25	802.85
517.61	817.28
517.97	831.81
518.33	846.22
518.69	861.02
519.05	876.06
519.41	891.27
519.77	906.91
520.13	922.21
520.49	937.57
520.85	953.01
521.21	968.67
521.57	984.83
521.93	1000.56
522.29	1016.97
522.65	1033.22
523.01	1049.35
523.37	1065.30
523.73	1081.39
524.09	1097.50
524.45	1113.93
524.81	1130.64
525.17	1147.47
525.53	1164.37
525.89	1181.17
526.25	1197.88
526.61	1214.28
526.97	1231.05
527.33	1247.40
527.68	1264.16
528.04	1280.70
528.40	1297.34
528.76	1314.49
529.12	1331.08
529.48	1347.96
529.84	1363.95
530.20	1380.58
530.56	1397.63
530.91	1415.02
531.27	1431.82
531.63	1448.30
531.99	1464.80
532.35	1480.70
532.71	1496.53
533.07	1512.75
533.42	1528.70
533.78	1544.85
534.14	1561.06
534.50	1576.40
534.86	1592.30
535.21	1607.46
535.57	1623.49
535.93	1638.94
536.29	1653.66
536.65	1668.84
537.00	1683.46
537.36	1698.76
537.72	1713.35
538.08	1727.82
538.44	1741.66
538.79	1755.66
539.15	1769.44
539.51	1783.23
539.87	1797.55
540.22	1811.30
540.58	1825.15
540.94	1838.43
541.29	1851.38
541.65	1864.10
542.01	1877.26
542.37	1889.59
542.72	1902.03
543.08	1913.70
543.44	1926.00
543.79	1937.34
544.15	1948.40
544.51	1960.15
544.87	1971.11
545.22	1981.85
545.58	1992.00
545.94	2001.78
546.29	2011.51
546.65	2021.27
547.01	2030.52
547.36	2039.28
547.72	2047.69
548.07	2055.31
548.43	2063.61
548.79	2071.56
549.14	2079.14
549.50	2086.57
549.86	2094.24
550.21	2101.67
550.57	2108.89
550.92	2115.50
551.28	2122.54
551.64	2129.49
551.99	2136.03
552.35	2142.19
552.70	2148.33
553.06	2154.46
553.41	2160.86
553.77	2167.02
554.13	2173.06
554.48	2179.16
554.84	2184.56
555.19	2189.98
555.55	2195.37
555.90	2199.68
556.26	2204.50
556.61	2209.31
556.97	2213.45
557.32	2217.66
557.68	2221.57
558.03	2225.78
558.39	2229.49
558.74	2234.10
559.10	2238.06
559.45	2241.73
559.81	2246.15
560.16	2249.97
560.52	2253.04
560.87	2256.40
561.23	2258.99
561.58	2261.96
561.94	2264.40
562.29	2266.87
562.64	2269.46
563.00	2272.03
563.35	2275.65
563.71	2278.81
564.06	2281.99
564.42	2284.86
564.77	2287.27
565.12	2289.55
565.48	2291.38
565.83	2293.36
566.19	2294.52
566.54	2295.38
566.89	2296.45
567.25	2296.89
567.60	2298.21
567.96	2299.94
568.31	2300.82
568.66	2301.85
569.02	2302.33
569.37	2302.73
569.72	2303.46
570.08	2303.66
570.43	2303.61
570.78	2302.84
571.14	2301.23
571.49	2299.76
571.84	2299.53
572.20	2298.36
572.55	2297.35
572.90	2295.96
573.26	2294.45
573.61	2292.79
573.96	2290.93
574.31	2288.03
574.67	2284.95
575.02	2281.36
575.37	2277.79
575.72	2273.92
576.08	2270.70
576.43	2267.41
576.78	2263.63
577.13	2260.45
577.49	2257.41
577.84	2253.89
578.19	2250.36
578.54	2246.90
578.90	2242.64
579.25	2237.06
579.60	2232.16
579.95	2227.03
580.30	2221.91
580.66	2216.75
581.01	2211.88
581.36	2206.91
581.71	2202.57
582.06	2198.09
582.42	2193.44
582.77	2188.33
583.12	2183.70
583.47	2178.84
583.82	2173.81
584.17	2168.57
584.53	2163.01
584.88	2157.20
585.23	2151.38
585.58	2145.83
585.93	2140.28
586.28	2135.59
586.63	2130.37
586.98	2125.23
587.34	2120.66
587.69	2115.79
588.04	2110.48
588.39	2104.64
588.74	2098.30
589.09	2092.18
589.44	2085.38
589.79	2079.54
590.14	2073.98
590.49	2067.37
590.84	2061.10
591.19	2055.16
591.54	2048.76
591.89	2041.39
592.25	2034.56
592.60	2027.37
592.95	2019.73
593.30	2012.29
593.65	2004.68
594.00	1997.66
594.35	1990.40
594.70	1982.38
595.05	1974.99
595.40	1967.73
595.75	1960.30
596.10	1953.98
596.45	1947.10
596.80	1941.00
597.15	1934.30
597.50	1927.07
597.85	1920.61
598.19	1913.77
598.54	1906.45
598.89	1899.80
599.24	1894.01
599.59	1887.32
599.94	1881.08
600.29	1874.70
600.64	1868.20
600.99	1860.70
601.34	1853.91
601.69	1846.95
602.04	1839.88
602.39	1832.62
602.74	1825.72
603.08	1818.89
603.43	1812.22
603.78	1805.04
604.13	1797.74
604.48	1790.28
604.83	1783.52
605.18	1776.49
605.53	1768.54
605.87	1760.61
606.22	1753.27
606.57	1745.21
606.92	1737.96
607.27	1730.65
607.62	1723.84
607.96	1716.51
608.31	1709.92
608.66	1702.23
609.01	1694.67
609.36	1687.24
609.70	1679.22
610.05	1671.20
610.40	1663.59
610.75	1655.17
611.10	1647.46
611.44	1639.18
611.79	1631.33
612.14	1622.61
612.49	1613.54
612.83	1605.17
613.18	1597.10
613.53	1589.04
613.88	1580.45
614.22	1572.13
614.57	1563.68
614.92	1555.52
615.27	1547.96
615.61	1539.56
615.96	1531.60
616.31	1523.87
616.65	1516.45
617.00	1508.84
617.35	1501.16
617.70	1492.73
618.04	1484.27
618.39	1476.18
618.74	1468.52
619.08	1460.17
619.43	1452.57
619.78	1445.64
620.12	1438.47
620.47	1430.94
620.82	1422.72
621.16	1415.42
621.51	1407.76
621.85	1400.10
622.20	1391.47
622.55	1383.17
622.89	1375.20
623.24	1367.57
623.59	1360.24
623.93	1352.71
624.28	1345.47
624.62	1337.92
624.97	1330.78
625.32	1323.92
625.66	1316.78
626.01	1309.48
626.35	1302.07
626.70	1294.36
627.04	1286.70
627.39	1278.94
627.73	1271.57
628.08	1264.73
628.43	1257.36
628.77	1249.96
629.12	1242.45
629.46	1235.37
629.81	1227.96
630.15	1220.93
630.50	1213.54
630.84	1205.33
631.19	1197.44
631.53	1190.00
631.88	1182.54
632.22	1174.97
632.57	1167.68
632.91	1160.09
633.26	1152.71
633.60	1145.41
633.95	1138.37
634.29	1131.32
634.64	1124.58
634.98	1117.18
635.32	1109.98
635.67	1103.45
636.01	1096.85
636.36	1090.08
636.70	1083.65
637.05	1077.03
637.39	1070.46
637.73	1063.91
638.08	1058.02
638.42	1052.02
638.77	1045.50
639.11	1038.84
639.45	1032.46
639.80	1025.86
640.14	1019.47
640.49	1013.05
640.83	1006.65
641.17	1000.28
641.52	993.88
641.86	987.52
642.20	981.59
642.55	975.40
642.89	968.92
643.23	962.36
643.58	956.54
643.92	950.32
644.26	944.18
644.61	938.18
644.95	932.13
645.29	925.50
645.64	918.74
645.98	912.47
646.32	906.67
646.66	900.64
647.01	894.85
647.35	889.19
647.69	883.25
648.04	877.80
648.38	871.97
648.72	865.95
649.06	859.86
649.41	854.01
649.75	847.93
650.09	841.94
650.43	836.20
650.78	829.96
651.12	824.00
651.46	818.32
651.80	812.55
652.14	807.17
652.49	801.89
652.83	796.78
653.17	791.06
653.51	785.25
653.85	779.81
654.20	774.14
654.54	768.13
654.88	762.45
655.22	756.52
655.56	750.82
655.90	745.45
656.25	740.18
656.59	734.88
656.93	729.81
657.27	724.68
657.61	719.23
657.95	714.22
658.29	709.19
658.64	703.91
658.98	698.61
659.32	693.08
659.66	687.86
660.00	682.47
660.34	677.51
660.68	672.63
661.02	667.59
661.36	662.91
661.70	658.34
662.05	653.93
662.39	649.63
662.73	645.26
663.07	640.88
663.41	636.42
663.75	631.91
664.09	627.36
664.43	622.92
664.77	618.77
665.11	614.43
665.45	610.33
665.79	606.31
666.13	602.23
666.47	598.17
666.81	594.00
667.15	589.87
667.49	586.02
667.83	582.22
668.17	578.30
668.51	574.22
668.85	570.25
669.19	566.44
669.53	562.59
669.87	558.67
670.21	554.93
670.55	551.32
670.89	547.92
671.23	544.47
671.57	541.02
671.91	537.55
672.25	534.05
672.58	530.46
672.92	527.02
673.26	523.86
673.60	520.78
673.94	517.65
674.28	514.76
674.62	511.80
674.96	508.66
675.30	505.74
675.64	502.80
675.97	500.08
676.31	497.23
676.65	494.23
676.99	491.51
677.33	488.70
677.67	485.88
678.01	482.80
678.34	479.80
678.68	476.91
679.02	474.07
679.36	471.37
679.70	468.69
680.04	465.93
680.37	463.01
680.71	460.21
681.05	457.64
681.39	454.94
681.73	452.31
682.06	449.89
682.40	447.40
682.74	444.92
683.08	442.38
683.42	439.80
683.75	437.35
684.09	434.79
684.43	432.35
684.77	429.91
685.10	427.58
685.44	425.31
685.78	423.03
686.12	420.79
686.45	418.52
686.79	416.22
687.13	414.02
687.46	411.89
687.80	409.71
688.14	407.47
688.48	405.41
688.81	403.16
689.15	400.96
689.49	398.79
689.82	396.71
690.16	394.63
690.50	392.69
690.83	390.77
691.17	388.87
691.51	386.96
691.84	385.16
692.18	383.28
692.52	381.31
692.85	379.37
693.19	377.45
693.52	375.59
693.86	373.77
694.20	372.01
694.53	370.23
694.87	368.42
695.21	366.64
695.54	364.84
695.88	363.18
696.21	361.47
696.55	359.82
696.88	358.11
697.22	356.46
697.56	354.85
697.89	353.18
698.23	351.55
698.56	349.93
698.90	348.24
699.23	346.56
699.57	344.99
699.90	343.44
700.24	341.92
700.58	340.39
700.91	338.88
701.25	337.45
701.58	336.05
701.92	334.70
702.25	333.35
702.59	331.98
702.92	330.59
703.26	329.25
703.59	327.93
703.93	326.76
704.26	325.51
704.60	324.17
704.93	322.91
705.26	321.68
705.60	320.50
705.93	319.37
706.27	318.30
706.60	317.26
706.94	316.15
707.27	315.05
707.61	314.01
707.94	313.00
708.27	311.90
708.61	310.82
708.94	309.82
709.28	308.81
709.61	307.81
709.94	306.85
710.28	305.87
710.61	304.90
710.95	303.79
711.28	302.85
711.61	301.91
711.95	301.00
712.28	300.00
712.61	298.98
712.95	298.03
713.28	297.16
713.61	296.26
713.95	295.38
714.28	294.54
714.61	293.64
714.95	292.80
715.28	291.95
715.61	291.06
715.95	290.18
716.28	289.32
716.61	288.52
716.95	287.71
717.28	286.92
717.61	286.16
717.94	285.44
718.28	284.59
718.61	283.85
718.94	283.11
719.27	282.47
719.61	281.84
719.94	281.20
720.27	280.51
720.60	279.84
720.94	279.24
721.27	278.61
721.60	278.03
721.93	277.45
722.27	276.86
722.60	276.32
722.93	275.75
723.26	275.23
723.59	274.69
723.93	274.13
724.26	273.60
724.59	273.03
724.92	272.48
725.25	272.00
725.59	271.48
725.92	270.98
726.25	270.48
726.58	269.99
726.91	269.47
727.24	269.00
727.57	268.53
727.91	268.02
728.24	267.56
728.57	267.12
728.90	266.68
729.23	266.21
729.56	265.78
729.89	265.34
730.22	264.83
730.55	264.34
730.89	263.88
731.22	263.43
731.55	263.01
731.88	262.63
732.21	262.22
732.54	261.78
732.87	261.36
733.20	260.96
733.53	260.59
733.86	260.25
734.19	259.82
734.52	259.40
734.85	259.11
735.18	258.70
735.51	258.34
735.84	257.98
736.17	257.66
736.50	257.24
736.83	257.02
737.16	256.73
737.49	256.39
737.82	256.08
738.15	255.77
738.48	255.44
738.81	255.11
739.14	254.82
739.47	254.54
739.80	254.29
740.13	253.99
740.46	253.63
740.79	253.30
741.12	252.99
741.45	252.72
741.78	252.36
742.11	252.07
742.44	251.73
742.77	251.41
743.10	251.10
743.43	250.80
743.75	250.40
744.08	250.22
744.41	249.97
744.74	249.68
745.07	249.41
745.40	249.11
745.73	248.86
746.06	248.57
746.39	248.29
746.71	247.95
747.04	247.68
747.37	247.43
747.70	247.16
748.03	246.92
748.36	246.70
748.68	246.47
749.01	246.22
749.34	246.01
749.67	245.77
750.00	245.58
750.33	245.42
750.65	245.19
750.98	244.84
751.31	244.59
751.64	244.40
751.97	244.23
752.29	244.06
752.62	243.80
752.95	243.59
753.28	243.40
753.60	243.20
753.93	243.02
754.26	242.86
754.59	242.65
754.91	242.45
755.24	242.28
755.57	242.11
755.90	241.93
756.22	241.72
756.55	241.51
756.88	241.29
757.20	241.07
757.53	240.88
757.86	240.71
758.19	240.57
758.51	240.39
758.84	240.17
759.17	240.03
759.49	239.88
759.82	239.75
760.15	239.59
760.47	239.45
760.80	239.28
761.13	239.11
761.45	238.93
761.78	238.80
762.11	238.63
762.43	238.48
762.76	238.36
763.08	238.24
763.41	238.13
763.74	238.01
764.06	237.89
764.39	237.75
764.71	237.65
765.04	237.50
765.37	237.36
765.69	237.22
766.02	237.07
766.34	236.98
766.67	236.81
767.00	236.70
767.32	236.66
767.65	236.62
767.97	236.51
768.30	236.41
768.62	236.32
768.95	236.18
769.27	236.06
769.60	235.98
769.92	235.84
770.25	235.72
770.57	235.60
770.90	235.47
771.22	235.38
771.55	235.25
771.87	235.14
772.20	235.02
772.52	235.04
772.85	235.05
773.17	234.92
773.50	234.86
773.82	234.75
774.15	234.58
774.47	234.45
774.80	234.32
775.12	234.22
775.45	234.12
775.77	234.05
776.09	233.95
776.42	233.81
776.74	233.77
777.07	233.69
777.39	233.64
777.72	233.57
778.04	233.51
778.36	233.43
778.69	233.39
779.01	233.35
779.33	233.18
779.66	232.98
779.98	232.88
780.31	232.81
780.63	232.75
780.95	232.73
781.28	232.63
781.60	232.56
781.92	232.50
782.25	232.44
782.57	232.34
782.89	232.28
783.22	232.23
783.54	232.13
783.86	232.07
784.19	232.01
784.51	231.99
784.83	231.88
785.16	231.83
785.48	231.75
785.80	231.70
786.12	231.67
786.45	231.63
786.77	231.63
787.09	231.60
787.42	231.56
787.74	231.50
788.06	231.47
788.38	231.45
788.71	231.41
789.03	231.39
789.35	231.38
789.67	231.34
789.99	231.28
790.32	231.25
790.64	231.20
790.96	231.22
791.28	231.15
791.61	231.18
791.93	231.17
792.25	231.15
792.57	231.15
792.89	231.08
793.21	231.06
793.54	230.98
793.86	230.89
794.18	230.83
794.50	230.74
794.82	230.71
795.14	230.66
795.47	230.68
795.79	230.63
796.11	230.60
796.43	230.56
796.75	230.57
797.07	230.57
797.39	230.54
797.71	230.46
798.04	230.42
798.36	230.37
798.68	230.32
799.00	230.33
799.32	230.25
799.64	230.22
799.96	230.21
800.28	230.22
800.60	230.22
800.92	230.22
801.24	230.22
801.56	230.25
801.89	230.23
802.21	230.19
802.53	230.15
802.85	230.14
803.17	230.17
803.49	230.11
803.81	230.06
804.13	230.03
804.45	229.96
804.77	229.94
805.09	229.90
805.41	229.86
805.73	229.76
806.05	229.70
806.37	229.67
806.69	229.60
807.01	229.56
807.33	229.55
807.65	229.49
807.97	229.52
808.28	229.43
808.60	229.38
808.92	229.34
809.24	229.38
809.56	229.30
809.88	229.22
810.20	229.21
810.52	229.19
810.84	229.15
811.16	229.12
811.48	229.07
811.80	229.09
812.12	229.04
812.43	229.06
812.75	229.05
813.07	229.04
813.39	229.05
813.71	229.02
814.03	228.96
814.35	228.97
814.67	228.91
814.98	228.90
815.30	228.89
815.62	228.87
815.94	228.76
816.26	228.79
816.58	228.77
816.89	228.75
817.21	228.70
817.53	228.68
817.85	228.70
818.17	228.68
818.48	228.63
818.80	228.67
819.12	228.64
819.44	228.61
819.76	228.58
820.07	228.55
820.39	228.52
820.71	228.52
821.03	228.47
821.34	228.42
821.66	228.40
821.98	228.39
822.30	228.37
822.61	228.40
822.93	228.35
823.25	228.30
823.57	228.28
823.88	228.32
824.20	228.30
824.52	228.26
824.83	228.26
825.15	228.19
825.47	228.15
825.79	228.13
826.10	228.14
826.42	228.10
826.74	228.09
827.05	228.10
827.37	228.10
827.69	228.09
828.00	228.09
828.32	228.07
828.64	228.05
828.95	228.07
829.27	228.03
829.58	228.00
829.90	228.05
830.22	228.02
830.53	227.95
830.85	227.92
831.17	227.91
831.48	227.89
831.80	227.92
832.11	227.91
832.43	227.90
832.75	227.88
833.06	227.93
833.38	227.89
833.69	227.84
834.01	227.84
834.32	227.82
834.64	227.84
834.96	227.85
835.27	227.84
835.59	227.80
835.90	227.78
836.22	227.81
836.53	227.80
836.85	227.81
837.16	227.91
837.48	227.93
837.79	227.96
838.11	227.94
838.42	227.94
838.74	227.95
839.05	227.94
839.37	227.95
839.68	227.89
840.00	227.90
840.31	227.93
840.63	227.90
840.94	227.91
841.26	227.85
841.57	227.87
841.88	227.89
842.20	227.88
842.51	227.88
842.83	227.87
843.14	227.93
843.46	227.93
843.77	227.87
844.08	227.83
844.40	227.82
844.71	227.85
845.03	227.84
845.34	227.84
845.65	227.83
845.97	227.82
846.28	227.83
846.60	227.83
846.91	227.80
847.22	227.78
847.54	227.77
847.85	227.80
848.16	227.77
848.48	227.74
848.79	227.78
849.10	227.79
849.42	227.79
849.73	227.71
850.04	227.67
850.36	227.66
850.67	227.70
850.98	227.69
851.30	227.70
851.61	227.70
851.92	227.70
852.23	227.71
852.55	227.71
852.86	227.71
853.17	227.71
853.49	227.75
853.80	227.80
854.11	227.82
854.42	227.83
854.74	227.81
855.05	227.80
855.36	227.77
855.67	227.77
855.99	227.80
856.30	227.88
856.61	227.90
856.92	227.88
857.23	227.86
857.55	227.83
857.86	227.79
858.17	227.77
858.48	227.75
858.79	227.72
859.11	227.74
859.42	227.74
859.73	227.71
860.04	227.71
860.35	227.65
860.66	227.61
860.98	227.58
861.29	227.58
861.60	227.59
861.91	227.57
862.22	227.52
862.53	227.45
862.84	227.35
863.16	227.39
863.47	227.36
863.78	227.36
864.09	227.35
864.40	227.37
864.71	227.38
865.02	227.37
865.33	227.34
865.64	227.29
865.95	227.26
866.27	227.30
866.58	227.24
866.89	227.24
867.20	227.21
867.51	227.19
867.82	227.17
868.13	227.18
868.44	227.17
868.75	227.19
869.06	227.20
869.37	227.20
869.68	227.14
869.99	227.16
870.30	227.16
870.61	227.16
870.92	227.14
871.23	227.14
871.54	227.15
871.85	227.15
872.16	227.22
872.47	227.22
872.78	227.16
873.09	227.19
873.40	227.20
873.71	227.22
874.02	227.25
874.33	227.22
874.64	227.17
874.95	227.16
875.26	227.13
875.56	227.12
875.87	227.15
876.18	227.13
876.49	227.23
876.80	227.21
877.11	227.19
877.42	227.20
877.73	227.19
878.04	227.20
878.35	227.20
878.66	227.15
878.96	227.14
879.27	227.15
879.58	227.13
879.89	227.14
880.20	227.16
880.51	227.14
880.82	227.15
881.12	227.18
881.43	227.19
881.74	227.19
882.05	227.20
882.36	227.20
882.67	227.25
882.97	227.12
883.28	227.15
883.59	227.17
883.90	227.15
884.21	227.20
884.51	227.19
884.82	227.19
885.13	227.21
885.44	227.22
885.74	227.21
886.05	227.23
886.36	227.24
886.67	227.23
886.98	227.31
887.28	227.35
887.59	227.39
887.90	227.38
888.20	227.38
888.51	227.43
888.82	227.38
889.13	227.37
889.43	227.48
889.74	227.46
890.05	227.48
890.35	227.50
890.66	227.46
890.97	227.46
891.28	227.48
891.58	227.49
891.89	227.48
892.20	227.47
892.50	227.48
892.81	227.47
893.12	227.47
893.42	227.41
893.73	227.41
894.04	227.38
894.34	227.41
894.65	227.39
894.95	227.35
895.26	227.33
895.57	227.37
895.87	227.25
896.18	227.25
896.48	227.25
896.79	227.23
897.10	227.23
897.40	227.22
897.71	227.21
898.01	227.20
898.32	227.20
898.63	227.18
898.93	227.18
899.24	227.18
899.54	227.12
899.85	227.08
900.15	227.08
900.46	227.06
900.76	227.09
901.07	227.09
901.38	227.07
901.68	227.10
901.99	227.01
902.29	227.02
902.60	227.00
902.90	226.98
903.21	226.99
903.51	226.98
903.82	226.99
904.12	226.99
904.43	227.01
904.73	226.99
905.03	227.01
905.34	227.04
905.64	227.03
905.95	227.06
906.25	227.04
906.56	227.04
906.86	227.01
907.17	226.95
907.47	226.96
907.77	226.97
908.08	226.97
908.38	227.01
908.69	227.00
908.99	226.98
909.30	226.96
909.60	226.96
909.90	226.98
910.21	226.95
910.51	226.93
910.81	226.91
911.12	226.93
911.42	226.91
911.73	226.85
912.03	226.85
912.33	226.84
912.64	226.85
912.94	226.81
913.24	226.78
913.55	226.78
913.85	226.76
914.15	226.75
914.46	226.74
914.76	226.72
915.06	226.73
915.37	226.74
915.67	226.74
915.97	226.76
916.27	226.70
916.58	226.70
916.88	226.64
917.18	226.63
917.49	226.70
917.79	226.71
918.09	226.72
918.39	226.69
918.70	226.71
919.00	226.72
919.30	226.77
919.60	226.80
919.91	226.80
920.21	226.81
920.51	226.84
920.81	226.87
921.12	226.90
921.42	226.90
921.72	226.92
922.02	226.93
922.32	226.93
922.63	226.96
922.93	226.99
923.23	227.05
923.53	227.07
923.83	227.03
924.13	227.04
924.44	227.05
924.74	227.10
925.04	227.13
925.34	227.15
925.64	227.14
925.94	227.17
926.24	227.21
926.55	227.21
926.85	227.22
927.15	227.21
927.45	227.20
927.75	227.24
928.05	227.23
928.35	227.22
928.65	227.22
928.95	227.25
929.26	227.27
929.56	227.28
929.86	227.28
930.16	227.25
930.46	227.25
930.76	227.29
931.06	227.25
931.36	227.23
931.66	227.28
931.96	227.30
932.26	227.31
932.56	227.28
932.86	227.30
933.16	227.29
933.46	227.28
933.76	227.25
934.06	227.27
934.36	227.32
934.66	227.32
934.96	227.35
935.26	227.33
935.56	227.29
935.86	227.31
936.16	227.32
936.46	227.33
936.76	227.33
937.06	227.27
937.36	227.28
937.66	227.26
937.96	227.21
938.26	227.17
938.56	227.16
938.86	227.19
939.16	227.20
939.46	227.19
939.76	227.21
940.06	227.25
940.35	227.21
940.65	227.14
940.95	227.16
941.25	227.12
941.55	227.13
941.85	227.13
942.15	227.12
942.45	227.13
942.75	227.12
943.04	227.10
943.34	227.14
943.64	227.12
943.94	227.11
944.24	227.10
944.54	227.09
944.84	227.07
945.13	227.02
945.43	227.00
945.73	226.99
946.03	226.96
946.33	226.92
946.62	226.89
946.92	226.91
947.22	226.91
947.52	226.90
947.82	226.87
948.11	226.86
948.41	226.83
948.71	226.78
949.01	226.77
949.31	226.73
949.60	226.74
949.90	226.74
950.20	226.74
950.50	226.74
950.79	226.74
951.09	226.77
951.39	226.73
951.69	226.72
951.98	226.75
952.28	226.74
952.58	226.71
952.87	226.70
953.17	226.68
953.47	226.69
953.76	226.69
954.06	226.69
954.36	226.69
954.66	226.68
954.95	226.72
955.25	226.69
955.55	226.74
955.84	226.68
956.14	226.68
956.44	226.72
956.73	226.70
957.03	226.71
957.32	226.69
957.62	226.71
957.92	226.70
958.21	226.66
958.51	226.77
958.81	226.78
959.10	226.80
959.40	226.83
959.69	226.82
959.99	226.85
960.29	226.84
960.58	226.83
960.88	226.90
961.17	226.88
961.47	226.90
961.76	226.87
962.06	226.94
962.36	226.95
962.65	226.95
962.95	226.97
963.24	226.97
963.54	226.98
963.83	227.02
964.13	227.04
964.42	227.03
964.72	226.94
965.01	226.99
965.31	226.96
965.60	226.95
965.90	226.99
966.19	226.98
966.49	227.01
966.78	227.01
967.08	227.00
967.37	227.06
967.67	227.06
967.96	227.10
968.26	227.05
968.55	227.09
968.85	227.09
969.14	227.07
969.43	227.03
969.73	227.04
970.02	227.02
970.32	227.00
970.61	227.03
970.91	227.03
971.20	226.98
971.49	227.00
971.79	227.00
972.08	226.96
972.38	226.98
972.67	226.95
972.96	226.98
973.26	226.95
973.55	226.95
973.85	226.91
974.14	226.90
974.43	226.91
974.73	226.85
975.02	226.81
975.31	226.83
975.61	226.83
975.90	226.82
976.19	226.79
976.49	226.81
976.78	226.82
977.07	226.80
977.37	226.84
977.66	226.83
977.95	226.80
978.24	226.80
978.54	226.82
978.83	226.81
979.12	226.80
979.42	226.79
979.71	226.78
980.00	226.77
980.29	226.76
980.59	226.72
980.88	226.77
981.17	226.78
981.46	226.77
981.76	226.82
982.05	226.84
982.34	226.84
982.63	226.81
982.93	226.78
983.22	226.81
983.51	226.82
983.80	226.82
984.09	226.84
984.39	226.81
984.68	226.78
984.97	226.78
985.26	226.75
985.55	226.76
985.85	226.72
986.14	226.73
986.43	226.72
986.72	226.76
987.01	226.72
987.30	226.69
987.59	226.69
987.89	226.65
988.18	226.60
988.47	226.60
988.76	226.59
989.05	226.56
989.34	226.55
989.63	226.55
989.92	226.55
990.22	226.53
990.51	226.54
990.80	226.53
991.09	226.53
991.38	226.52
991.67	226.53
991.96	226.56
992.25	226.57
992.54	226.56
992.83	226.55
993.12	226.54
993.41	226.59
993.70	226.62
993.99	226.64
994.28	226.64
994.58	226.66
994.87	226.68
995.16	226.72
995.45	226.69
995.74	226.65
996.03	226.68
996.32	226.70
996.61	226.72
996.90	226.71
997.19	226.72
997.48	226.75
997.77	226.74
998.06	226.68
998.34	226.70
998.63	226.71
998.92	226.72
999.21	226.78
999.50	226.76
999.79	226.72
1000.08	226.74
1000.37	226.76
1000.66	226.75
1000.95	226.76
1001.24	226.79
1001.53	226.83
1001.82	226.83
1002.11	226.80
1002.40	226.80
1002.68	226.83
1002.97	226.94
1003.26	226.94
1003.55	226.91
1003.84	226.96
1004.13	227.02
1004.42	227.01
1004.71	227.00
1004.99	227.00
1005.28	226.98
1005.57	226.99
1005.86	226.97
1006.15	226.94
1006.44	226.92
1006.72	226.96
1007.01	226.94
1007.30	226.89
1007.59	226.88
1007.88	226.87
1008.17	226.89
1008.45	226.89
1008.74	226.86
1009.03	226.78
1009.32	226.77
1009.60	226.77
1009.89	226.72
1010.18	226.68
1010.47	226.68
1010.76	226.69
1011.04	226.69
1011.33	226.70
1011.62	226.74
1011.91	226.77
1012.19	226.78
1012.48	226.78
1012.77	226.75
1013.05	226.82
1013.34	226.83
1013.63	226.83
1013.92	226.83
1014.20	226.80
1014.49	226.81
1014.78	226.77
1015.06	226.74
1015.35	226.77
1015.64	226.78
1015.92	226.80
1016.21	226.81
1016.50	226.78
1016.78	226.82
1017.07	226.81
1017.36	226.77
1017.64	226.75
1017.93	226.75
1018.22	226.75
1018.50	226.74
1018.79	226.73
1019.08	226.67
1019.36	226.67
1019.65	226.65
1019.93	226.69
1020.22	226.72
1020.51	226.75
1020.79	226.75
1021.08	226.73
1021.36	226.50
1021.65	226.30
1021.94	226.76
1022.22	226.50
1022.51	226.33
1022.79	227.14
1023.08	227.24
1023.36	227.68
1023.65	226.36
>>>>>End Processed Spectral Data<<<<<
