SpectraSuite Data File
++++++++++++++++++++++++++++++++++++
Date: Fri Feb 01 16:24:31 EST 2013
User: group
Dark Spectrum Present: No
Reference Spectrum Present: No
Number of Sampled Component Spectra: 1
Spectrometers: USB2E7196
Integration Time (usec): 35000 (USB2E7196)
Spectra Averaged: 100 (USB2E7196)
Boxcar Smoothing: 10 (USB2E7196)
Correct for Electrical Dark: No (USB2E7196)
Strobe/Lamp Enabled: No (USB2E7196)
Correct for Detector Non-linearity: No (USB2E7196)
Correct for Stray Light: No (USB2E7196)
Number of Pixels in Processed Spectrum: 2048
>>>>>Begin Processed Spectral Data<<<<<
339.09	0.00
339.48	214.75
339.86	214.98
340.24	216.72
340.63	218.22
341.01	221.49
341.39	221.54
341.78	222.28
342.16	223.66
342.54	224.33
342.93	212.54
343.31	223.29
343.69	223.81
344.07	224.35
344.46	224.79
344.84	225.17
345.22	225.40
345.60	225.62
345.99	225.83
346.37	225.98
346.75	226.07
347.13	226.15
347.52	226.23
347.90	226.35
348.28	226.41
348.66	226.47
349.05	226.50
349.43	226.56
349.81	226.62
350.19	226.62
350.57	226.69
350.96	226.76
351.34	226.83
351.72	226.90
352.10	226.95
352.48	227.02
352.87	227.06
353.25	227.14
353.63	227.22
354.01	227.26
354.39	227.34
354.77	227.42
355.15	227.51
355.54	227.55
355.92	227.58
356.30	227.62
356.68	227.71
357.06	227.74
357.44	227.79
357.82	227.84
358.20	227.92
358.58	227.94
358.97	228.00
359.35	228.05
359.73	228.13
360.11	228.17
360.49	228.20
360.87	228.24
361.25	228.29
361.63	228.32
362.01	228.37
362.39	228.37
362.77	228.40
363.15	228.42
363.53	228.45
363.91	228.44
364.29	228.46
364.67	228.39
365.05	228.41
365.43	228.41
365.81	228.42
366.19	228.47
366.57	228.55
366.95	228.54
367.33	228.49
367.71	228.46
368.09	228.48
368.47	228.49
368.85	228.46
369.23	228.44
369.61	228.39
369.99	228.39
370.37	228.36
370.75	228.34
371.13	228.28
371.51	228.21
371.89	228.18
372.27	228.15
372.65	228.09
373.03	228.02
373.41	227.96
373.78	227.86
374.16	227.72
374.54	227.61
374.92	227.57
375.30	227.52
375.68	227.44
376.06	227.40
376.44	227.30
376.82	227.27
377.19	227.18
377.57	227.11
377.95	227.02
378.33	226.95
378.71	226.82
379.09	226.78
379.47	226.71
379.84	226.63
380.22	226.54
380.60	226.47
380.98	226.41
381.36	226.35
381.73	226.28
382.11	226.28
382.49	226.23
382.87	226.15
383.25	226.11
383.62	226.15
384.00	226.07
384.38	226.03
384.76	226.00
385.13	225.98
385.51	225.92
385.89	225.86
386.27	225.83
386.64	225.82
387.02	225.77
387.40	225.75
387.78	225.72
388.15	225.68
388.53	225.63
388.91	225.62
389.29	225.59
389.66	225.61
390.04	225.56
390.42	225.54
390.79	225.51
391.17	225.49
391.55	225.39
391.92	225.36
392.30	225.38
392.68	225.35
393.05	225.32
393.43	225.33
393.81	225.36
394.18	225.35
394.56	225.40
394.94	225.42
395.31	225.42
395.69	225.49
396.06	225.52
396.44	225.57
396.82	225.61
397.19	225.68
397.57	225.69
397.95	225.74
398.32	225.79
398.70	225.89
399.07	225.97
399.45	226.06
399.82	226.13
400.20	226.18
400.58	226.27
400.95	226.33
401.33	226.44
401.70	226.58
402.08	226.68
402.45	226.77
402.83	226.90
403.20	227.02
403.58	227.09
403.95	227.22
404.33	227.36
404.71	227.47
405.08	227.63
405.46	227.77
405.83	227.92
406.21	228.06
406.58	228.18
406.96	228.35
407.33	228.51
407.70	228.72
408.08	228.97
408.45	229.16
408.83	229.41
409.20	229.60
409.58	229.77
409.95	229.99
410.33	230.26
410.70	230.48
411.08	230.76
411.45	231.08
411.82	231.37
412.20	231.74
412.57	232.15
412.95	232.44
413.32	232.86
413.69	233.26
414.07	233.66
414.44	234.09
414.82	234.55
415.19	235.10
415.56	235.60
415.94	236.15
416.31	236.77
416.68	237.36
417.06	238.08
417.43	238.78
417.81	239.56
418.18	240.34
418.55	241.21
418.93	242.08
419.30	242.98
419.67	243.95
420.04	244.89
420.42	245.89
420.79	247.08
421.16	248.21
421.54	249.43
421.91	250.67
422.28	251.95
422.66	253.29
423.03	254.59
423.40	255.94
423.77	257.33
424.15	258.79
424.52	260.30
424.89	261.92
425.26	263.43
425.64	264.88
426.01	266.45
426.38	268.06
426.75	269.74
427.13	271.44
427.50	273.24
427.87	275.08
428.24	276.94
428.61	278.66
428.99	280.57
429.36	282.66
429.73	284.71
430.10	286.72
430.47	288.76
430.85	290.82
431.22	293.02
431.59	295.40
431.96	297.63
432.33	300.07
432.70	302.41
433.08	305.19
433.45	307.84
433.82	310.44
434.19	313.30
434.56	316.10
434.93	318.76
435.30	321.35
435.68	324.26
436.05	327.08
436.42	329.85
436.79	332.41
437.16	335.12
437.53	337.96
437.90	340.78
438.27	343.52
438.64	346.35
439.01	348.94
439.38	351.15
439.75	353.31
440.13	355.84
440.50	358.14
440.87	360.00
441.24	361.92
441.61	364.05
441.98	365.57
442.35	367.38
442.72	369.24
443.09	371.03
443.46	372.05
443.83	372.62
444.20	373.14
444.57	373.93
444.94	374.20
445.31	374.49
445.68	374.85
446.05	374.92
446.42	374.52
446.79	374.12
447.16	373.69
447.53	373.39
447.90	372.21
448.27	371.06
448.64	369.48
449.01	368.37
449.37	366.42
449.74	364.50
450.11	362.21
450.48	359.77
450.85	357.28
451.22	355.12
451.59	353.09
451.96	351.17
452.33	348.60
452.70	346.24
453.07	343.43
453.43	340.51
453.80	337.79
454.17	335.20
454.54	332.69
454.91	330.00
455.28	327.33
455.65	324.85
456.02	322.41
456.38	320.30
456.75	317.65
457.12	315.41
457.49	313.20
457.86	311.09
458.23	309.19
458.59	307.15
458.96	305.07
459.33	303.24
459.70	301.37
460.07	299.89
460.43	298.15
460.80	296.53
461.17	295.12
461.54	293.61
461.91	292.10
462.27	290.63
462.64	289.39
463.01	288.01
463.38	286.75
463.74	285.40
464.11	284.23
464.48	283.25
464.85	282.16
465.21	281.30
465.58	280.36
465.95	279.26
466.32	278.37
466.68	277.47
467.05	276.58
467.42	275.68
467.78	274.73
468.15	273.87
468.52	273.20
468.88	272.33
469.25	271.55
469.62	270.96
469.98	270.30
470.35	269.69
470.72	269.13
471.08	268.49
471.45	267.96
471.82	267.44
472.18	266.81
472.55	266.39
472.92	265.88
473.28	265.44
473.65	265.00
474.02	264.58
474.38	264.19
474.75	263.87
475.11	263.55
475.48	263.30
475.85	263.08
476.21	262.85
476.58	262.71
476.94	262.61
477.31	262.47
477.67	262.33
478.04	262.22
478.41	262.15
478.77	262.19
479.14	262.14
479.50	262.16
479.87	262.26
480.23	262.29
480.60	262.36
480.96	262.46
481.33	262.72
481.69	262.89
482.06	263.08
482.42	263.30
482.79	263.57
483.15	263.88
483.52	264.27
483.88	264.64
484.25	265.01
484.61	265.45
484.98	265.93
485.34	266.46
485.71	267.01
486.07	267.62
486.44	268.15
486.80	268.86
487.17	269.58
487.53	270.36
487.90	271.25
488.26	272.20
488.62	273.18
488.99	274.14
489.35	275.23
489.72	276.40
490.08	277.61
490.44	278.86
490.81	280.22
491.17	281.57
491.54	283.06
491.90	284.64
492.26	286.27
492.63	287.98
492.99	289.78
493.36	291.71
493.72	293.77
494.08	295.98
494.45	298.27
494.81	300.65
495.17	303.10
495.54	305.69
495.90	308.38
496.26	311.21
496.63	314.20
496.99	317.26
497.35	320.50
497.72	323.92
498.08	327.42
498.44	331.11
498.80	335.05
499.17	339.15
499.53	343.29
499.89	347.69
500.26	352.23
500.62	356.92
500.98	361.90
501.34	367.00
501.71	372.25
502.07	377.66
502.43	383.29
502.79	389.07
503.16	395.23
503.52	401.51
503.88	407.91
504.24	414.55
504.60	421.53
504.97	428.69
505.33	436.09
505.69	443.83
506.05	451.65
506.41	459.54
506.78	467.68
507.14	476.17
507.50	484.90
507.86	493.94
508.22	503.17
508.59	512.40
508.95	521.99
509.31	531.79
509.67	541.92
510.03	552.15
510.39	562.76
510.75	573.51
511.12	584.45
511.48	595.77
511.84	607.23
512.20	618.71
512.56	630.62
512.92	642.73
513.28	655.00
513.64	667.44
514.00	680.13
514.37	693.10
514.73	706.17
515.09	719.17
515.45	732.46
515.81	746.00
516.17	759.96
516.53	774.06
516.89	788.21
517.25	802.32
517.61	816.75
517.97	831.12
518.33	845.48
518.69	860.20
519.05	875.19
519.41	890.26
519.77	905.79
520.13	921.19
520.49	936.61
520.85	951.96
521.21	967.61
521.57	983.85
521.93	999.45
522.29	1015.78
522.65	1031.98
523.01	1048.02
523.37	1063.96
523.73	1080.02
524.09	1096.00
524.45	1112.31
524.81	1128.92
525.17	1145.61
525.53	1162.50
525.89	1179.36
526.25	1196.05
526.61	1212.24
526.97	1228.97
527.33	1245.30
527.68	1261.85
528.04	1278.20
528.40	1294.72
528.76	1311.66
529.12	1328.13
529.48	1344.92
529.84	1360.81
530.20	1377.39
530.56	1394.42
530.91	1411.84
531.27	1428.59
531.63	1444.94
531.99	1461.46
532.35	1477.21
532.71	1493.08
533.07	1509.19
533.42	1524.97
533.78	1540.98
534.14	1557.29
534.50	1572.47
534.86	1588.30
535.21	1603.45
535.57	1619.19
535.93	1634.58
536.29	1649.35
536.65	1664.27
537.00	1678.97
537.36	1694.22
537.72	1708.77
538.08	1723.06
538.44	1736.71
538.79	1750.54
539.15	1764.06
539.51	1777.66
539.87	1792.03
540.22	1805.69
540.58	1819.45
540.94	1832.72
541.29	1845.62
541.65	1858.16
542.01	1871.42
542.37	1883.70
542.72	1895.96
543.08	1907.80
543.44	1920.22
543.79	1931.38
544.15	1942.33
544.51	1953.97
544.87	1964.84
545.22	1975.54
545.58	1985.89
545.94	1995.64
546.29	2005.44
546.65	2015.43
547.01	2024.65
547.36	2033.40
547.72	2041.69
548.07	2049.37
548.43	2057.45
548.79	2065.45
549.14	2072.95
549.50	2080.20
549.86	2087.75
550.21	2095.03
550.57	2102.03
550.92	2108.59
551.28	2115.63
551.64	2122.74
551.99	2129.15
552.35	2135.26
552.70	2141.24
553.06	2147.13
553.41	2153.38
553.77	2159.25
554.13	2165.23
554.48	2171.47
554.84	2176.89
555.19	2182.16
555.55	2187.46
555.90	2191.84
556.26	2196.64
556.61	2201.41
556.97	2205.63
557.32	2209.79
557.68	2213.82
558.03	2218.19
558.39	2221.76
558.74	2226.44
559.10	2230.37
559.45	2234.01
559.81	2238.28
560.16	2242.21
560.52	2245.43
560.87	2248.87
561.23	2251.69
561.58	2254.63
561.94	2256.95
562.29	2259.24
562.64	2262.07
563.00	2264.58
563.35	2268.16
563.71	2271.28
564.06	2274.61
564.42	2277.54
564.77	2280.02
565.12	2282.44
565.48	2284.39
565.83	2286.23
566.19	2287.41
566.54	2288.23
566.89	2289.29
567.25	2289.96
567.60	2291.21
567.96	2292.87
568.31	2293.67
568.66	2294.63
569.02	2295.18
569.37	2295.66
569.72	2296.56
570.08	2296.66
570.43	2296.71
570.78	2296.22
571.14	2294.69
571.49	2293.14
571.84	2292.77
572.20	2291.70
572.55	2290.70
572.90	2289.09
573.26	2287.94
573.61	2286.40
573.96	2284.72
574.31	2281.92
574.67	2278.97
575.02	2275.38
575.37	2271.84
575.72	2268.08
576.08	2264.94
576.43	2261.79
576.78	2258.12
577.13	2254.95
577.49	2252.07
577.84	2248.64
578.19	2244.80
578.54	2241.46
578.90	2237.50
579.25	2232.08
579.60	2227.20
579.95	2222.37
580.30	2217.49
580.66	2212.34
581.01	2207.32
581.36	2202.57
581.71	2198.44
582.06	2194.10
582.42	2189.80
582.77	2184.81
583.12	2180.54
583.47	2175.84
583.82	2170.83
584.17	2165.64
584.53	2160.15
584.88	2154.44
585.23	2148.72
585.58	2143.43
585.93	2137.79
586.28	2132.97
586.63	2128.05
586.98	2123.12
587.34	2118.35
587.69	2113.47
588.04	2108.27
588.39	2102.83
588.74	2096.25
589.09	2090.17
589.44	2083.36
589.79	2077.33
590.14	2071.87
590.49	2065.29
590.84	2058.94
591.19	2053.08
591.54	2046.71
591.89	2039.54
592.25	2032.74
592.60	2025.73
592.95	2018.22
593.30	2010.90
593.65	2003.39
594.00	1996.30
594.35	1989.04
594.70	1981.10
595.05	1973.99
595.40	1966.73
595.75	1959.12
596.10	1952.99
596.45	1946.38
596.80	1940.31
597.15	1933.70
597.50	1926.57
597.85	1920.20
598.19	1913.60
598.54	1906.38
598.89	1899.62
599.24	1893.72
599.59	1887.16
599.94	1880.97
600.29	1874.58
600.64	1868.15
600.99	1860.57
601.34	1853.73
601.69	1846.84
602.04	1840.03
602.39	1832.72
602.74	1825.82
603.08	1819.21
603.43	1812.55
603.78	1805.14
604.13	1797.89
604.48	1790.69
604.83	1783.79
605.18	1776.77
605.53	1768.80
605.87	1760.89
606.22	1753.83
606.57	1745.92
606.92	1738.64
607.27	1731.51
607.62	1724.56
607.96	1717.38
608.31	1710.96
608.66	1703.45
609.01	1695.89
609.36	1688.27
609.70	1680.17
610.05	1672.24
610.40	1664.57
610.75	1656.14
611.10	1648.54
611.44	1640.09
611.79	1632.10
612.14	1623.40
612.49	1614.15
612.83	1605.76
613.18	1597.57
613.53	1589.42
613.88	1581.00
614.22	1572.63
614.57	1563.84
614.92	1555.89
615.27	1548.19
615.61	1539.82
615.96	1531.65
616.31	1524.01
616.65	1516.61
617.00	1509.02
617.35	1501.40
617.70	1492.98
618.04	1484.54
618.39	1476.26
618.74	1468.72
619.08	1460.44
619.43	1452.85
619.78	1445.99
620.12	1438.80
620.47	1431.36
620.82	1423.14
621.16	1415.68
621.51	1408.08
621.85	1400.51
622.20	1392.00
622.55	1383.63
622.89	1375.81
623.24	1368.30
623.59	1360.82
623.93	1353.39
624.28	1346.23
624.62	1338.59
624.97	1331.47
625.32	1324.69
625.66	1317.70
626.01	1310.51
626.35	1303.00
626.70	1295.20
627.04	1287.49
627.39	1279.70
627.73	1272.20
628.08	1265.42
628.43	1258.12
628.77	1250.79
629.12	1243.35
629.46	1236.20
629.81	1228.81
630.15	1221.57
630.50	1214.14
630.84	1205.96
631.19	1197.88
631.53	1190.45
631.88	1182.94
632.22	1175.36
632.57	1168.07
632.91	1160.56
633.26	1153.09
633.60	1145.76
633.95	1138.74
634.29	1131.63
634.64	1125.01
634.98	1117.76
635.32	1110.50
635.67	1103.86
636.01	1097.19
636.36	1090.40
636.70	1083.88
637.05	1077.32
637.39	1070.78
637.73	1064.23
638.08	1058.38
638.42	1052.48
638.77	1045.91
639.11	1039.34
639.45	1032.93
639.80	1026.28
640.14	1019.81
640.49	1013.37
640.83	1006.97
641.17	1000.70
641.52	994.37
641.86	987.86
642.20	981.93
642.55	975.60
642.89	969.10
643.23	962.58
643.58	956.77
643.92	950.55
644.26	944.38
644.61	938.50
644.95	932.53
645.29	925.90
645.64	919.15
645.98	912.81
646.32	907.02
646.66	900.93
647.01	895.15
647.35	889.41
647.69	883.53
648.04	878.04
648.38	872.32
648.72	866.36
649.06	860.35
649.41	854.46
649.75	848.49
650.09	842.62
650.43	836.75
650.78	830.56
651.12	824.66
651.46	819.04
651.80	813.17
652.14	807.81
652.49	802.50
652.83	797.32
653.17	791.65
653.51	785.82
653.85	780.40
654.20	774.72
654.54	768.79
654.88	763.11
655.22	757.20
655.56	751.42
655.90	745.97
656.25	740.71
656.59	735.39
656.93	730.27
657.27	725.13
657.61	719.75
657.95	714.64
658.29	709.51
658.64	704.21
658.98	698.92
659.32	693.36
659.66	688.08
660.00	682.73
660.34	677.80
660.68	672.91
661.02	667.92
661.36	663.19
661.70	658.60
662.05	654.22
662.39	649.91
662.73	645.46
663.07	641.09
663.41	636.62
663.75	632.08
664.09	627.52
664.43	623.06
664.77	618.90
665.11	614.69
665.45	610.53
665.79	606.41
666.13	602.26
666.47	598.16
666.81	594.04
667.15	589.91
667.49	586.05
667.83	582.26
668.17	578.29
668.51	574.20
668.85	570.15
669.19	566.29
669.53	562.46
669.87	558.58
670.21	554.87
670.55	551.24
670.89	547.87
671.23	544.50
671.57	540.99
671.91	537.49
672.25	533.92
672.58	530.43
672.92	527.09
673.26	523.94
673.60	520.86
673.94	517.81
674.28	514.91
674.62	511.94
674.96	508.84
675.30	505.93
675.64	503.05
675.97	500.31
676.31	497.45
676.65	494.46
676.99	491.76
677.33	488.96
677.67	486.14
678.01	483.06
678.34	480.08
678.68	477.16
679.02	474.34
679.36	471.63
679.70	468.92
680.04	466.13
680.37	463.27
680.71	460.41
681.05	457.74
681.39	455.02
681.73	452.34
682.06	449.78
682.40	447.26
682.74	444.78
683.08	442.28
683.42	439.70
683.75	437.21
684.09	434.66
684.43	432.10
684.77	429.62
685.10	427.24
685.44	424.93
685.78	422.66
686.12	420.42
686.45	418.12
686.79	415.79
687.13	413.59
687.46	411.36
687.80	409.22
688.14	407.05
688.48	405.05
688.81	402.76
689.15	400.60
689.49	398.44
689.82	396.27
690.16	394.16
690.50	392.18
690.83	390.23
691.17	388.26
691.51	386.35
691.84	384.52
692.18	382.61
692.52	380.59
692.85	378.69
693.19	376.81
693.52	374.94
693.86	373.12
694.20	371.32
694.53	369.56
694.87	367.72
695.21	365.88
695.54	363.99
695.88	362.28
696.21	360.59
696.55	358.88
696.88	357.23
697.22	355.54
697.56	353.88
697.89	352.23
698.23	350.60
698.56	349.01
698.90	347.35
699.23	345.67
699.57	344.12
699.90	342.54
700.24	340.99
700.58	339.49
700.91	338.01
701.25	336.54
701.58	335.12
701.92	333.73
702.25	332.35
702.59	330.99
702.92	329.65
703.26	328.32
703.59	326.98
703.93	325.75
704.26	324.50
704.60	323.19
704.93	321.90
705.26	320.67
705.60	319.48
705.93	318.33
706.27	317.33
706.60	316.29
706.94	315.23
707.27	314.08
707.61	312.99
707.94	311.97
708.27	310.90
708.61	309.82
708.94	308.82
709.28	307.85
709.61	306.87
709.94	305.92
710.28	304.90
710.61	303.95
710.95	302.94
711.28	302.03
711.61	301.11
711.95	300.21
712.28	299.27
712.61	298.29
712.95	297.36
713.28	296.49
713.61	295.58
713.95	294.67
714.28	293.81
714.61	292.97
714.95	292.07
715.28	291.22
715.61	290.39
715.95	289.53
716.28	288.64
716.61	287.78
716.95	286.96
717.28	286.23
717.61	285.52
717.94	284.72
718.28	283.91
718.61	283.18
718.94	282.45
719.27	281.79
719.61	281.15
719.94	280.51
720.27	279.77
720.60	279.15
720.94	278.56
721.27	277.99
721.60	277.41
721.93	276.85
722.27	276.33
722.60	275.75
722.93	275.18
723.26	274.69
723.59	274.13
723.93	273.61
724.26	273.04
724.59	272.44
724.92	271.95
725.25	271.49
725.59	270.99
725.92	270.51
726.25	269.95
726.58	269.50
726.91	268.99
727.24	268.50
727.57	268.01
727.91	267.50
728.24	267.01
728.57	266.52
728.90	266.05
729.23	265.56
729.56	265.14
729.89	264.70
730.22	264.17
730.55	263.74
730.89	263.30
731.22	262.87
731.55	262.46
731.88	262.03
732.21	261.56
732.54	261.14
732.87	260.75
733.20	260.36
733.53	259.93
733.86	259.57
734.19	259.18
734.52	258.79
734.85	258.46
735.18	258.05
735.51	257.68
735.84	257.31
736.17	256.93
736.50	256.53
736.83	256.29
737.16	255.95
737.49	255.61
737.82	255.25
738.15	254.91
738.48	254.58
738.81	254.24
739.14	253.89
739.47	253.57
739.80	253.24
740.13	252.97
740.46	252.62
740.79	252.27
741.12	251.94
741.45	251.61
741.78	251.26
742.11	250.99
742.44	250.67
742.77	250.41
743.10	250.08
743.43	249.74
743.75	249.36
744.08	249.20
744.41	248.93
744.74	248.71
745.07	248.42
745.40	248.15
745.73	247.92
746.06	247.67
746.39	247.39
746.71	247.12
747.04	246.86
747.37	246.63
747.70	246.40
748.03	246.17
748.36	245.94
748.68	245.72
749.01	245.47
749.34	245.26
749.67	245.02
750.00	244.79
750.33	244.66
750.65	244.42
750.98	244.08
751.31	243.88
751.64	243.61
751.97	243.43
752.29	243.21
752.62	242.95
752.95	242.74
753.28	242.54
753.60	242.33
753.93	242.12
754.26	241.92
754.59	241.67
754.91	241.49
755.24	241.29
755.57	241.09
755.90	240.89
756.22	240.68
756.55	240.47
756.88	240.29
757.20	240.06
757.53	239.90
757.86	239.72
758.19	239.55
758.51	239.40
758.84	239.21
759.17	239.06
759.49	238.92
759.82	238.81
760.15	238.65
760.47	238.49
760.80	238.33
761.13	238.20
761.45	238.05
761.78	237.91
762.11	237.77
762.43	237.60
762.76	237.45
763.08	237.35
763.41	237.23
763.74	237.09
764.06	236.95
764.39	236.82
764.71	236.71
765.04	236.55
765.37	236.43
765.69	236.29
766.02	236.16
766.34	236.04
766.67	235.87
767.00	235.77
767.32	235.72
767.65	235.68
767.97	235.56
768.30	235.46
768.62	235.36
768.95	235.26
769.27	235.18
769.60	235.13
769.92	235.00
770.25	234.88
770.57	234.79
770.90	234.67
771.22	234.55
771.55	234.46
771.87	234.43
772.20	234.31
772.52	234.32
772.85	234.38
773.17	234.30
773.50	234.23
773.82	234.12
774.15	233.99
774.47	233.84
774.80	233.73
775.12	233.63
775.45	233.53
775.77	233.45
776.09	233.36
776.42	233.24
776.74	233.20
777.07	233.10
777.39	233.03
777.72	233.00
778.04	232.97
778.36	232.87
778.69	232.75
779.01	232.71
779.33	232.53
779.66	232.33
779.98	232.24
780.31	232.14
780.63	232.14
780.95	232.09
781.28	231.98
781.60	231.93
781.92	231.87
782.25	231.83
782.57	231.77
782.89	231.70
783.22	231.62
783.54	231.50
783.86	231.44
784.19	231.39
784.51	231.34
784.83	231.25
785.16	231.20
785.48	231.16
785.80	231.10
786.12	231.07
786.45	230.99
786.77	230.91
787.09	230.86
787.42	230.76
787.74	230.69
788.06	230.63
788.38	230.56
788.71	230.48
789.03	230.41
789.35	230.37
789.67	230.32
789.99	230.33
790.32	230.30
790.64	230.28
790.96	230.31
791.28	230.20
791.61	230.15
791.93	230.11
792.25	230.04
792.57	230.06
792.89	230.01
793.21	230.00
793.54	230.00
793.86	229.94
794.18	229.89
794.50	229.85
794.82	229.86
795.14	229.86
795.47	229.86
795.79	229.84
796.11	229.77
796.43	229.73
796.75	229.66
797.07	229.62
797.39	229.57
797.71	229.45
798.04	229.41
798.36	229.41
798.68	229.38
799.00	229.35
799.32	229.24
799.64	229.21
799.96	229.17
800.28	229.13
800.60	229.09
800.92	229.05
801.24	229.00
801.56	228.96
801.89	228.90
802.21	228.90
802.53	228.83
802.85	228.80
803.17	228.80
803.49	228.76
803.81	228.69
804.13	228.65
804.45	228.63
804.77	228.66
805.09	228.62
805.41	228.59
805.73	228.54
806.05	228.49
806.37	228.48
806.69	228.45
807.01	228.43
807.33	228.42
807.65	228.39
807.97	228.46
808.28	228.43
808.60	228.39
808.92	228.33
809.24	228.39
809.56	228.36
809.88	228.34
810.20	228.35
810.52	228.35
810.84	228.34
811.16	228.31
811.48	228.27
811.80	228.26
812.12	228.24
812.43	228.26
812.75	228.27
813.07	228.23
813.39	228.22
813.71	228.19
814.03	228.20
814.35	228.15
814.67	228.05
814.98	228.04
815.30	228.03
815.62	228.00
815.94	227.94
816.26	227.95
816.58	227.92
816.89	227.88
817.21	227.86
817.53	227.87
817.85	227.83
818.17	227.85
818.48	227.82
818.80	227.82
819.12	227.77
819.44	227.75
819.76	227.77
820.07	227.76
820.39	227.73
820.71	227.72
821.03	227.75
821.34	227.75
821.66	227.78
821.98	227.77
822.30	227.74
822.61	227.80
822.93	227.75
823.25	227.73
823.57	227.75
823.88	227.74
824.20	227.73
824.52	227.75
824.83	227.71
825.15	227.69
825.47	227.68
825.79	227.70
826.10	227.68
826.42	227.64
826.74	227.63
827.05	227.60
827.37	227.59
827.69	227.58
828.00	227.56
828.32	227.54
828.64	227.53
828.95	227.58
829.27	227.49
829.58	227.50
829.90	227.50
830.22	227.48
830.53	227.46
830.85	227.45
831.17	227.40
831.48	227.37
831.80	227.38
832.11	227.35
832.43	227.28
832.75	227.26
833.06	227.30
833.38	227.24
833.69	227.25
834.01	227.24
834.32	227.21
834.64	227.18
834.96	227.13
835.27	227.13
835.59	227.10
835.90	227.10
836.22	227.10
836.53	227.06
836.85	227.02
837.16	227.11
837.48	227.08
837.79	227.12
838.11	227.12
838.42	227.08
838.74	227.06
839.05	227.06
839.37	227.03
839.68	226.95
840.00	226.94
840.31	226.94
840.63	226.90
840.94	226.89
841.26	226.90
841.57	226.92
841.88	226.89
842.20	226.87
842.51	226.82
842.83	226.80
843.14	226.88
843.46	226.89
843.77	226.82
844.08	226.82
844.40	226.76
844.71	226.73
845.03	226.73
845.34	226.73
845.65	226.74
845.97	226.77
846.28	226.77
846.60	226.77
846.91	226.77
847.22	226.78
847.54	226.77
847.85	226.76
848.16	226.72
848.48	226.72
848.79	226.76
849.10	226.79
849.42	226.78
849.73	226.70
850.04	226.71
850.36	226.68
850.67	226.70
850.98	226.71
851.30	226.74
851.61	226.73
851.92	226.72
852.23	226.73
852.55	226.74
852.86	226.75
853.17	226.76
853.49	226.79
853.80	226.81
854.11	226.84
854.42	226.87
854.74	226.87
855.05	226.88
855.36	226.84
855.67	226.85
855.99	226.86
856.30	226.96
856.61	226.94
856.92	226.95
857.23	226.95
857.55	226.94
857.86	226.94
858.17	226.95
858.48	226.95
858.79	226.95
859.11	226.95
859.42	226.97
859.73	226.95
860.04	226.94
860.35	226.91
860.66	226.88
860.98	226.87
861.29	226.90
861.60	226.88
861.91	226.86
862.22	226.86
862.53	226.87
862.84	226.78
863.16	226.79
863.47	226.75
863.78	226.71
864.09	226.71
864.40	226.71
864.71	226.70
865.02	226.74
865.33	226.72
865.64	226.69
865.95	226.66
866.27	226.73
866.58	226.69
866.89	226.70
867.20	226.71
867.51	226.68
867.82	226.65
868.13	226.67
868.44	226.65
868.75	226.66
869.06	226.61
869.37	226.63
869.68	226.61
869.99	226.64
870.30	226.66
870.61	226.68
870.92	226.66
871.23	226.64
871.54	226.64
871.85	226.70
872.16	226.69
872.47	226.71
872.78	226.66
873.09	226.67
873.40	226.63
873.71	226.63
874.02	226.63
874.33	226.66
874.64	226.66
874.95	226.72
875.26	226.67
875.56	226.67
875.87	226.65
876.18	226.68
876.49	226.76
876.80	226.75
877.11	226.70
877.42	226.70
877.73	226.74
878.04	226.72
878.35	226.67
878.66	226.66
878.96	226.63
879.27	226.60
879.58	226.61
879.89	226.60
880.20	226.62
880.51	226.63
880.82	226.60
881.12	226.58
881.43	226.52
881.74	226.51
882.05	226.49
882.36	226.48
882.67	226.45
882.97	226.34
883.28	226.34
883.59	226.37
883.90	226.36
884.21	226.36
884.51	226.36
884.82	226.34
885.13	226.35
885.44	226.35
885.74	226.38
886.05	226.37
886.36	226.37
886.67	226.33
886.98	226.37
887.28	226.40
887.59	226.43
887.90	226.45
888.20	226.47
888.51	226.51
888.82	226.50
889.13	226.50
889.43	226.57
889.74	226.57
890.05	226.55
890.35	226.53
890.66	226.50
890.97	226.48
891.28	226.47
891.58	226.47
891.89	226.49
892.20	226.48
892.50	226.44
892.81	226.46
893.12	226.46
893.42	226.39
893.73	226.39
894.04	226.34
894.34	226.36
894.65	226.33
894.95	226.33
895.26	226.34
895.57	226.37
895.87	226.27
896.18	226.28
896.48	226.29
896.79	226.32
897.10	226.33
897.40	226.33
897.71	226.33
898.01	226.33
898.32	226.31
898.63	226.30
898.93	226.31
899.24	226.31
899.54	226.31
899.85	226.33
900.15	226.31
900.46	226.33
900.76	226.34
901.07	226.35
901.38	226.34
901.68	226.36
901.99	226.30
902.29	226.31
902.60	226.29
902.90	226.24
903.21	226.24
903.51	226.22
903.82	226.23
904.12	226.24
904.43	226.25
904.73	226.23
905.03	226.24
905.34	226.35
905.64	226.37
905.95	226.37
906.25	226.35
906.56	226.34
906.86	226.32
907.17	226.28
907.47	226.29
907.77	226.29
908.08	226.26
908.38	226.29
908.69	226.30
908.99	226.30
909.30	226.29
909.60	226.29
909.90	226.30
910.21	226.28
910.51	226.25
910.81	226.24
911.12	226.25
911.42	226.25
911.73	226.10
912.03	226.06
912.33	226.10
912.64	226.08
912.94	226.09
913.24	226.06
913.55	226.05
913.85	226.04
914.15	226.03
914.46	226.03
914.76	226.03
915.06	226.01
915.37	226.01
915.67	226.05
915.97	226.06
916.27	226.03
916.58	226.02
916.88	226.00
917.18	225.98
917.49	226.06
917.79	226.03
918.09	226.08
918.39	226.15
918.70	226.12
919.00	226.15
919.30	226.18
919.60	226.20
919.91	226.21
920.21	226.21
920.51	226.19
920.81	226.18
921.12	226.18
921.42	226.18
921.72	226.17
922.02	226.16
922.32	226.14
922.63	226.16
922.93	226.21
923.23	226.25
923.53	226.27
923.83	226.21
924.13	226.21
924.44	226.22
924.74	226.20
925.04	226.22
925.34	226.16
925.64	226.10
925.94	226.07
926.24	226.11
926.55	226.12
926.85	226.13
927.15	226.13
927.45	226.13
927.75	226.15
928.05	226.15
928.35	226.13
928.65	226.14
928.95	226.17
929.26	226.16
929.56	226.16
929.86	226.17
930.16	226.16
930.46	226.20
930.76	226.19
931.06	226.13
931.36	226.13
931.66	226.16
931.96	226.22
932.26	226.24
932.56	226.20
932.86	226.21
933.16	226.21
933.46	226.20
933.76	226.17
934.06	226.19
934.36	226.25
934.66	226.25
934.96	226.25
935.26	226.21
935.56	226.20
935.86	226.19
936.16	226.18
936.46	226.17
936.76	226.14
937.06	226.13
937.36	226.15
937.66	226.14
937.96	226.14
938.26	226.08
938.56	226.09
938.86	226.12
939.16	226.11
939.46	226.12
939.76	226.13
940.06	226.16
940.35	226.14
940.65	226.09
940.95	226.14
941.25	226.15
941.55	226.14
941.85	226.13
942.15	226.11
942.45	226.13
942.75	226.11
943.04	226.09
943.34	226.10
943.64	226.10
943.94	226.08
944.24	226.11
944.54	226.13
944.84	226.12
945.13	226.06
945.43	226.07
945.73	226.03
946.03	226.04
946.33	226.04
946.62	226.02
946.92	226.00
947.22	225.94
947.52	225.91
947.82	225.93
948.11	225.95
948.41	225.95
948.71	225.94
949.01	225.97
949.31	225.99
949.60	225.97
949.90	225.99
950.20	226.00
950.50	225.97
950.79	226.00
951.09	225.99
951.39	226.01
951.69	226.02
951.98	226.09
952.28	226.07
952.58	226.05
952.87	226.03
953.17	226.03
953.47	226.01
953.76	226.03
954.06	226.00
954.36	225.97
954.66	225.98
954.95	225.99
955.25	225.98
955.55	225.98
955.84	225.99
956.14	225.99
956.44	226.00
956.73	225.97
957.03	225.91
957.32	225.91
957.62	225.95
957.92	225.95
958.21	225.92
958.51	226.03
958.81	226.06
959.10	226.11
959.40	226.14
959.69	226.17
959.99	226.20
960.29	226.21
960.58	226.21
960.88	226.23
961.17	226.20
961.47	226.20
961.76	226.22
962.06	226.20
962.36	226.20
962.65	226.18
962.95	226.20
963.24	226.22
963.54	226.26
963.83	226.26
964.13	226.23
964.42	226.20
964.72	226.13
965.01	226.12
965.31	226.12
965.60	226.11
965.90	226.20
966.19	226.17
966.49	226.21
966.78	226.24
967.08	226.24
967.37	226.25
967.67	226.23
967.96	226.23
968.26	226.23
968.55	226.24
968.85	226.25
969.14	226.27
969.43	226.28
969.73	226.26
970.02	226.24
970.32	226.25
970.61	226.28
970.91	226.25
971.20	226.22
971.49	226.21
971.79	226.20
972.08	226.09
972.38	226.09
972.67	226.03
972.96	226.03
973.26	226.04
973.55	226.06
973.85	226.07
974.14	226.06
974.43	226.09
974.73	226.07
975.02	226.05
975.31	226.03
975.61	226.03
975.90	226.00
976.19	226.00
976.49	226.01
976.78	225.98
977.07	225.97
977.37	226.00
977.66	225.96
977.95	225.95
978.24	226.00
978.54	226.02
978.83	226.03
979.12	226.02
979.42	225.98
979.71	225.97
980.00	225.95
980.29	225.95
980.59	225.90
980.88	225.93
981.17	225.92
981.46	225.95
981.76	225.93
982.05	225.97
982.34	225.96
982.63	225.97
982.93	225.93
983.22	225.97
983.51	225.95
983.80	226.00
984.09	226.05
984.39	226.00
984.68	226.01
984.97	225.99
985.26	225.98
985.55	225.99
985.85	225.97
986.14	226.00
986.43	226.00
986.72	226.01
987.01	225.98
987.30	226.00
987.59	225.97
987.89	225.99
988.18	225.97
988.47	225.97
988.76	225.94
989.05	225.96
989.34	225.94
989.63	226.00
989.92	225.97
990.22	225.94
990.51	225.97
990.80	225.95
991.09	225.96
991.38	226.01
991.67	226.01
991.96	226.01
992.25	226.03
992.54	226.02
992.83	226.03
993.12	226.03
993.41	226.01
993.70	226.06
993.99	226.11
994.28	226.10
994.58	226.12
994.87	226.14
995.16	226.15
995.45	226.16
995.74	226.11
996.03	226.14
996.32	226.22
996.61	226.26
996.90	226.28
997.19	226.26
997.48	226.27
997.77	226.29
998.06	226.28
998.34	226.27
998.63	226.25
998.92	226.27
999.21	226.32
999.50	226.32
999.79	226.30
1000.08	226.27
1000.37	226.28
1000.66	226.26
1000.95	226.30
1001.24	226.32
1001.53	226.30
1001.82	226.29
1002.11	226.24
1002.40	226.20
1002.68	226.18
1002.97	226.21
1003.26	226.20
1003.55	226.15
1003.84	226.12
1004.13	226.14
1004.42	226.11
1004.71	226.12
1004.99	226.08
1005.28	226.09
1005.57	226.06
1005.86	226.00
1006.15	226.02
1006.44	225.99
1006.72	226.01
1007.01	225.93
1007.30	225.93
1007.59	225.94
1007.88	225.95
1008.17	225.95
1008.45	225.92
1008.74	225.89
1009.03	225.85
1009.32	225.86
1009.60	225.86
1009.89	225.88
1010.18	225.84
1010.47	225.85
1010.76	225.84
1011.04	225.82
1011.33	225.81
1011.62	225.85
1011.91	225.91
1012.19	225.91
1012.48	225.93
1012.77	225.91
1013.05	226.00
1013.34	225.94
1013.63	225.95
1013.92	225.96
1014.20	225.95
1014.49	225.95
1014.78	225.92
1015.06	225.86
1015.35	225.88
1015.64	225.92
1015.92	225.92
1016.21	225.90
1016.50	225.90
1016.78	225.94
1017.07	225.94
1017.36	225.93
1017.64	225.90
1017.93	225.87
1018.22	225.82
1018.50	225.82
1018.79	225.81
1019.08	225.78
1019.36	225.80
1019.65	225.78
1019.93	225.78
1020.22	225.82
1020.51	225.87
1020.79	225.87
1021.08	225.44
1021.36	225.85
1021.65	225.70
1021.94	226.33
1022.22	225.81
1022.51	225.82
1022.79	226.12
1023.08	226.17
1023.36	227.13
1023.65	225.36
>>>>>End Processed Spectral Data<<<<<
