SpectraSuite Data File
++++++++++++++++++++++++++++++++++++
Date: Fri Feb 01 16:28:41 EST 2013
User: group
Dark Spectrum Present: No
Reference Spectrum Present: No
Number of Sampled Component Spectra: 1
Spectrometers: USB2E7196
Integration Time (usec): 35000 (USB2E7196)
Spectra Averaged: 100 (USB2E7196)
Boxcar Smoothing: 10 (USB2E7196)
Correct for Electrical Dark: No (USB2E7196)
Strobe/Lamp Enabled: No (USB2E7196)
Correct for Detector Non-linearity: No (USB2E7196)
Correct for Stray Light: No (USB2E7196)
Number of Pixels in Processed Spectrum: 2048
>>>>>Begin Processed Spectral Data<<<<<
339.09	0.00
339.48	213.70
339.86	215.92
340.24	216.73
340.63	218.35
341.01	221.05
341.39	220.95
341.78	222.15
342.16	223.36
342.54	224.40
342.93	212.37
343.31	223.10
343.69	223.66
344.07	224.10
344.46	224.53
344.84	224.91
345.22	225.15
345.60	225.38
345.99	225.59
346.37	225.73
346.75	225.80
347.13	225.89
347.52	225.95
347.90	226.00
348.28	226.05
348.66	226.12
349.05	226.13
349.43	226.18
349.81	226.25
350.19	226.29
350.57	226.30
350.96	226.36
351.34	226.45
351.72	226.53
352.10	226.59
352.48	226.68
352.87	226.71
353.25	226.74
353.63	226.82
354.01	226.87
354.39	226.91
354.77	227.00
355.15	227.09
355.54	227.15
355.92	227.20
356.30	227.24
356.68	227.38
357.06	227.44
357.44	227.52
357.82	227.56
358.20	227.62
358.58	227.70
358.97	227.77
359.35	227.86
359.73	227.94
360.11	228.03
360.49	228.05
360.87	228.10
361.25	228.20
361.63	228.28
362.01	228.34
362.39	228.41
362.77	228.42
363.15	228.44
363.53	228.47
363.91	228.50
364.29	228.56
364.67	228.50
365.05	228.53
365.43	228.55
365.81	228.59
366.19	228.63
366.57	228.65
366.95	228.66
367.33	228.62
367.71	228.61
368.09	228.62
368.47	228.63
368.85	228.60
369.23	228.57
369.61	228.52
369.99	228.53
370.37	228.48
370.75	228.51
371.13	228.44
371.51	228.41
371.89	228.37
372.27	228.32
372.65	228.26
373.03	228.21
373.41	228.14
373.78	228.07
374.16	227.98
374.54	227.90
374.92	227.84
375.30	227.79
375.68	227.68
376.06	227.61
376.44	227.53
376.82	227.50
377.19	227.45
377.57	227.36
377.95	227.23
378.33	227.17
378.71	227.04
379.09	227.02
379.47	226.99
379.84	226.92
380.22	226.86
380.60	226.79
380.98	226.73
381.36	226.70
381.73	226.60
382.11	226.54
382.49	226.48
382.87	226.36
383.25	226.29
383.62	226.40
384.00	226.32
384.38	226.28
384.76	226.24
385.13	226.20
385.51	226.19
385.89	226.13
386.27	226.11
386.64	226.05
387.02	226.00
387.40	225.92
387.78	225.86
388.15	225.83
388.53	225.79
388.91	225.74
389.29	225.68
389.66	225.69
390.04	225.66
390.42	225.63
390.79	225.65
391.17	225.63
391.55	225.47
391.92	225.46
392.30	225.48
392.68	225.45
393.05	225.43
393.43	225.41
393.81	225.44
394.18	225.42
394.56	225.46
394.94	225.46
395.31	225.44
395.69	225.51
396.06	225.51
396.44	225.54
396.82	225.58
397.19	225.66
397.57	225.67
397.95	225.72
398.32	225.74
398.70	225.80
399.07	225.88
399.45	225.93
399.82	225.99
400.20	226.03
400.58	226.11
400.95	226.17
401.33	226.25
401.70	226.35
402.08	226.43
402.45	226.51
402.83	226.63
403.20	226.76
403.58	226.85
403.95	226.96
404.33	227.10
404.71	227.20
405.08	227.36
405.46	227.50
405.83	227.63
406.21	227.81
406.58	227.95
406.96	228.11
407.33	228.32
407.70	228.49
408.08	228.77
408.45	228.96
408.83	229.20
409.20	229.41
409.58	229.58
409.95	229.87
410.33	230.12
410.70	230.36
411.08	230.65
411.45	230.95
411.82	231.26
412.20	231.60
412.57	232.02
412.95	232.30
413.32	232.68
413.69	233.11
414.07	233.55
414.44	234.02
414.82	234.52
415.19	235.07
415.56	235.63
415.94	236.17
416.31	236.82
416.68	237.44
417.06	238.17
417.43	238.87
417.81	239.63
418.18	240.48
418.55	241.30
418.93	242.18
419.30	243.07
419.67	244.02
420.04	244.96
420.42	245.96
420.79	247.21
421.16	248.39
421.54	249.56
421.91	250.78
422.28	252.05
422.66	253.37
423.03	254.68
423.40	255.97
423.77	257.37
424.15	258.80
424.52	260.26
424.89	261.85
425.26	263.45
425.64	264.87
426.01	266.43
426.38	268.10
426.75	269.79
427.13	271.49
427.50	273.24
427.87	275.13
428.24	276.98
428.61	278.67
428.99	280.61
429.36	282.67
429.73	284.72
430.10	286.71
430.47	288.70
430.85	290.80
431.22	293.04
431.59	295.43
431.96	297.64
432.33	300.15
432.70	302.53
433.08	305.29
433.45	307.91
433.82	310.51
434.19	313.39
434.56	316.17
434.93	318.84
435.30	321.50
435.68	324.34
436.05	327.13
436.42	329.93
436.79	332.38
437.16	335.06
437.53	337.89
437.90	340.69
438.27	343.44
438.64	346.23
439.01	348.87
439.38	351.06
439.75	353.22
440.13	355.66
440.50	357.95
440.87	359.79
441.24	361.73
441.61	363.86
441.98	365.33
442.35	367.14
442.72	368.99
443.09	370.75
443.46	371.78
443.83	372.38
444.20	372.89
444.57	373.81
444.94	374.12
445.31	374.43
445.68	374.78
446.05	374.86
446.42	374.44
446.79	374.00
447.16	373.56
447.53	373.26
447.90	372.11
448.27	370.95
448.64	369.39
449.01	368.26
449.37	366.29
449.74	364.38
450.11	362.16
450.48	359.64
450.85	357.16
451.22	355.01
451.59	353.03
451.96	351.10
452.33	348.45
452.70	346.09
453.07	343.25
453.43	340.35
453.80	337.60
454.17	334.97
454.54	332.40
454.91	329.68
455.28	327.02
455.65	324.56
456.02	322.17
456.38	320.02
456.75	317.35
457.12	315.09
457.49	312.90
457.86	310.70
458.23	308.94
458.59	306.90
458.96	304.83
459.33	302.96
459.70	301.10
460.07	299.64
460.43	297.90
460.80	296.34
461.17	294.94
461.54	293.44
461.91	292.03
462.27	290.59
462.64	289.36
463.01	288.00
463.38	286.69
463.74	285.31
464.11	284.18
464.48	283.16
464.85	282.11
465.21	281.23
465.58	280.29
465.95	279.14
466.32	278.24
466.68	277.34
467.05	276.45
467.42	275.57
467.78	274.60
468.15	273.79
468.52	273.12
468.88	272.26
469.25	271.51
469.62	270.85
469.98	270.20
470.35	269.60
470.72	269.03
471.08	268.41
471.45	267.91
471.82	267.37
472.18	266.78
472.55	266.37
472.92	265.89
473.28	265.45
473.65	265.02
474.02	264.59
474.38	264.26
474.75	263.91
475.11	263.57
475.48	263.36
475.85	263.13
476.21	262.93
476.58	262.75
476.94	262.62
477.31	262.47
477.67	262.33
478.04	262.19
478.41	262.12
478.77	262.16
479.14	262.08
479.50	262.08
479.87	262.20
480.23	262.25
480.60	262.28
480.96	262.37
481.33	262.63
481.69	262.85
482.06	263.03
482.42	263.24
482.79	263.52
483.15	263.82
483.52	264.18
483.88	264.56
484.25	264.96
484.61	265.40
484.98	265.91
485.34	266.49
485.71	267.08
486.07	267.70
486.44	268.29
486.80	269.00
487.17	269.76
487.53	270.58
487.90	271.43
488.26	272.43
488.62	273.43
488.99	274.36
489.35	275.41
489.72	276.59
490.08	277.84
490.44	279.06
490.81	280.40
491.17	281.79
491.54	283.23
491.90	284.75
492.26	286.41
492.63	288.17
492.99	289.96
493.36	291.89
493.72	293.94
494.08	296.04
494.45	298.29
494.81	300.68
495.17	303.09
495.54	305.72
495.90	308.35
496.26	311.20
496.63	314.22
496.99	317.37
497.35	320.58
497.72	323.95
498.08	327.48
498.44	331.20
498.80	335.12
499.17	339.15
499.53	343.33
499.89	347.73
500.26	352.21
500.62	356.87
500.98	361.78
501.34	366.85
501.71	372.15
502.07	377.59
502.43	383.23
502.79	389.02
503.16	395.12
503.52	401.43
503.88	407.82
504.24	414.42
504.60	421.27
504.97	428.45
505.33	435.76
505.69	443.49
506.05	451.23
506.41	459.11
506.78	467.30
507.14	475.77
507.50	484.46
507.86	493.48
508.22	502.67
508.59	511.96
508.95	521.56
509.31	531.44
509.67	541.57
510.03	551.81
510.39	562.44
510.75	573.17
511.12	584.10
511.48	595.41
511.84	606.81
512.20	618.35
512.56	630.23
512.92	642.48
513.28	654.79
513.64	667.27
514.00	679.99
514.37	692.90
514.73	706.00
515.09	718.97
515.45	732.24
515.81	745.78
516.17	759.72
516.53	773.78
516.89	787.86
517.25	802.02
517.61	816.33
517.97	830.72
518.33	845.15
518.69	859.92
519.05	874.82
519.41	889.98
519.77	905.41
520.13	920.76
520.49	936.00
520.85	951.35
521.21	967.06
521.57	983.23
521.93	998.84
522.29	1015.03
522.65	1031.29
523.01	1047.40
523.37	1063.41
523.73	1079.54
524.09	1095.61
524.45	1111.86
524.81	1128.39
525.17	1145.15
525.53	1162.02
525.89	1178.71
526.25	1195.48
526.61	1211.81
526.97	1228.49
527.33	1244.93
527.68	1261.60
528.04	1277.96
528.40	1294.44
528.76	1311.40
529.12	1327.91
529.48	1344.88
529.84	1360.91
530.20	1377.55
530.56	1394.47
530.91	1411.80
531.27	1428.35
531.63	1444.67
531.99	1461.13
532.35	1476.99
532.71	1492.75
533.07	1508.89
533.42	1524.76
533.78	1540.72
534.14	1556.94
534.50	1572.17
534.86	1587.93
535.21	1602.97
535.57	1618.95
535.93	1634.37
536.29	1649.09
536.65	1663.98
537.00	1678.57
537.36	1693.81
537.72	1708.13
538.08	1722.49
538.44	1736.21
538.79	1750.15
539.15	1763.82
539.51	1777.36
539.87	1791.58
540.22	1805.33
540.58	1818.98
540.94	1832.22
541.29	1844.94
541.65	1857.53
542.01	1870.62
542.37	1882.93
542.72	1895.30
543.08	1906.98
543.44	1919.30
543.79	1930.44
544.15	1941.42
544.51	1952.82
544.87	1963.68
545.22	1974.50
545.58	1984.65
545.94	1994.28
546.29	2003.94
546.65	2013.68
547.01	2023.02
547.36	2031.71
547.72	2040.15
548.07	2047.88
548.43	2055.99
548.79	2063.97
549.14	2071.36
549.50	2078.72
549.86	2086.26
550.21	2093.48
550.57	2100.61
550.92	2107.11
551.28	2114.11
551.64	2121.06
551.99	2127.62
552.35	2133.71
552.70	2139.89
553.06	2145.91
553.41	2152.29
553.77	2158.36
554.13	2164.33
554.48	2170.62
554.84	2176.12
555.19	2181.37
555.55	2186.63
555.90	2191.10
556.26	2195.94
556.61	2200.77
556.97	2204.92
557.32	2209.05
557.68	2213.26
558.03	2217.55
558.39	2221.34
558.74	2225.96
559.10	2229.90
559.45	2233.63
559.81	2237.90
560.16	2241.58
560.52	2244.75
560.87	2248.14
561.23	2250.74
561.58	2253.77
561.94	2256.10
562.29	2258.38
562.64	2261.06
563.00	2263.56
563.35	2267.01
563.71	2270.13
564.06	2273.32
564.42	2276.28
564.77	2278.76
565.12	2280.98
565.48	2282.94
565.83	2284.77
566.19	2286.02
566.54	2286.91
566.89	2287.90
567.25	2288.56
567.60	2289.84
567.96	2291.52
568.31	2292.39
568.66	2293.67
569.02	2294.20
569.37	2294.47
569.72	2295.49
570.08	2295.56
570.43	2295.70
570.78	2295.26
571.14	2293.82
571.49	2292.48
571.84	2292.31
572.20	2291.21
572.55	2290.11
572.90	2288.45
573.26	2287.16
573.61	2285.53
573.96	2283.95
574.31	2281.22
574.67	2278.44
575.02	2274.87
575.37	2271.69
575.72	2267.99
576.08	2264.62
576.43	2261.42
576.78	2257.85
577.13	2254.77
577.49	2251.82
577.84	2248.32
578.19	2244.66
578.54	2241.16
578.90	2237.09
579.25	2231.47
579.60	2226.59
579.95	2221.75
580.30	2216.98
580.66	2211.87
581.01	2207.06
581.36	2202.16
581.71	2197.88
582.06	2193.30
582.42	2188.94
582.77	2183.63
583.12	2179.12
583.47	2174.49
583.82	2169.65
584.17	2164.56
584.53	2158.90
584.88	2153.30
585.23	2147.73
585.58	2142.34
585.93	2136.98
586.28	2132.31
586.63	2127.35
586.98	2122.43
587.34	2117.75
587.69	2112.91
588.04	2107.75
588.39	2102.09
588.74	2095.58
589.09	2089.70
589.44	2083.08
589.79	2077.22
590.14	2071.80
590.49	2065.31
590.84	2059.03
591.19	2052.98
591.54	2046.52
591.89	2039.38
592.25	2032.64
592.60	2025.46
592.95	2017.85
593.30	2010.53
593.65	2002.93
594.00	1996.02
594.35	1988.94
594.70	1981.08
595.05	1973.85
595.40	1966.47
595.75	1959.13
596.10	1953.13
596.45	1946.42
596.80	1940.30
597.15	1933.70
597.50	1926.55
597.85	1920.12
598.19	1913.44
598.54	1906.29
598.89	1899.65
599.24	1893.83
599.59	1887.27
599.94	1881.08
600.29	1874.83
600.64	1868.16
600.99	1860.73
601.34	1853.81
601.69	1846.84
602.04	1839.94
602.39	1832.67
602.74	1826.00
603.08	1819.19
603.43	1812.40
603.78	1804.98
604.13	1797.78
604.48	1790.39
604.83	1783.55
605.18	1776.49
605.53	1768.43
605.87	1760.55
606.22	1753.53
606.57	1745.66
606.92	1738.33
607.27	1731.18
607.62	1724.30
607.96	1717.07
608.31	1710.58
608.66	1703.16
609.01	1695.63
609.36	1687.93
609.70	1679.85
610.05	1671.73
610.40	1664.04
610.75	1655.65
611.10	1648.14
611.44	1639.63
611.79	1631.76
612.14	1623.07
612.49	1614.14
612.83	1605.94
613.18	1597.91
613.53	1589.69
613.88	1581.06
614.22	1572.73
614.57	1564.12
614.92	1556.04
615.27	1548.40
615.61	1540.02
615.96	1531.81
616.31	1524.15
616.65	1516.91
617.00	1509.40
617.35	1501.76
617.70	1493.47
618.04	1484.98
618.39	1476.69
618.74	1469.08
619.08	1460.85
619.43	1453.24
619.78	1446.25
620.12	1439.11
620.47	1431.42
620.82	1423.27
621.16	1415.92
621.51	1408.39
621.85	1400.80
622.20	1392.28
622.55	1384.09
622.89	1376.23
623.24	1368.74
623.59	1361.28
623.93	1353.74
624.28	1346.47
624.62	1338.93
624.97	1331.72
625.32	1325.02
625.66	1318.01
626.01	1310.86
626.35	1303.29
626.70	1295.50
627.04	1287.68
627.39	1279.87
627.73	1272.53
628.08	1265.60
628.43	1258.18
628.77	1250.79
629.12	1243.21
629.46	1236.06
629.81	1228.60
630.15	1221.36
630.50	1213.92
630.84	1205.74
631.19	1197.82
631.53	1190.37
631.88	1182.87
632.22	1175.31
632.57	1167.93
632.91	1160.44
633.26	1153.10
633.60	1145.76
633.95	1138.68
634.29	1131.68
634.64	1124.93
634.98	1117.61
635.32	1110.43
635.67	1103.85
636.01	1097.15
636.36	1090.28
636.70	1083.72
637.05	1077.06
637.39	1070.61
637.73	1064.09
638.08	1058.14
638.42	1052.13
638.77	1045.68
639.11	1039.04
639.45	1032.66
639.80	1026.07
640.14	1019.61
640.49	1013.02
640.83	1006.72
641.17	1000.41
641.52	993.94
641.86	987.47
642.20	981.54
642.55	975.25
642.89	968.75
643.23	962.16
643.58	956.46
643.92	950.25
644.26	944.18
644.61	938.06
644.95	932.04
645.29	925.49
645.64	918.70
645.98	912.31
646.32	906.45
646.66	900.33
647.01	894.59
647.35	888.85
647.69	883.00
648.04	877.46
648.38	871.74
648.72	865.89
649.06	859.84
649.41	853.95
649.75	847.94
650.09	842.01
650.43	836.26
650.78	830.07
651.12	824.13
651.46	818.42
651.80	812.72
652.14	807.24
652.49	801.86
652.83	796.71
653.17	791.02
653.51	785.31
653.85	779.97
654.20	774.27
654.54	768.27
654.88	762.59
655.22	756.68
655.56	751.07
655.90	745.66
656.25	740.47
656.59	735.13
656.93	730.03
657.27	724.89
657.61	719.42
657.95	714.42
658.29	709.40
658.64	704.13
658.98	698.76
659.32	693.35
659.66	688.13
660.00	682.78
660.34	677.85
660.68	673.01
661.02	667.94
661.36	663.20
661.70	658.69
662.05	654.28
662.39	649.91
662.73	645.39
663.07	641.02
663.41	636.51
663.75	631.97
664.09	627.45
664.43	623.04
664.77	618.97
665.11	614.70
665.45	610.54
665.79	606.52
666.13	602.43
666.47	598.41
666.81	594.29
667.15	590.21
667.49	586.35
667.83	582.53
668.17	578.62
668.51	574.56
668.85	570.53
669.19	566.69
669.53	562.85
669.87	558.91
670.21	555.20
670.55	551.57
670.89	548.22
671.23	544.79
671.57	541.26
671.91	537.72
672.25	534.20
672.58	530.63
672.92	527.18
673.26	523.98
673.60	520.76
673.94	517.63
674.28	514.74
674.62	511.76
674.96	508.63
675.30	505.69
675.64	502.75
675.97	499.98
676.31	497.15
676.65	494.28
676.99	491.67
677.33	488.73
677.67	485.88
678.01	482.82
678.34	479.87
678.68	476.99
679.02	474.15
679.36	471.39
679.70	468.69
680.04	465.95
680.37	463.15
680.71	460.34
681.05	457.73
681.39	454.98
681.73	452.28
682.06	449.69
682.40	447.13
682.74	444.60
683.08	442.00
683.42	439.37
683.75	436.84
684.09	434.22
684.43	431.77
684.77	429.33
685.10	426.96
685.44	424.65
685.78	422.41
686.12	420.16
686.45	417.81
686.79	415.51
687.13	413.32
687.46	411.10
687.80	408.95
688.14	406.75
688.48	404.65
688.81	402.36
689.15	400.23
689.49	398.12
689.82	396.04
690.16	394.01
690.50	392.03
690.83	390.06
691.17	388.08
691.51	386.18
691.84	384.33
692.18	382.42
692.52	380.41
692.85	378.42
693.19	376.58
693.52	374.73
693.86	372.91
694.20	371.07
694.53	369.24
694.87	367.36
695.21	365.54
695.54	363.76
695.88	362.06
696.21	360.32
696.55	358.63
696.88	356.89
697.22	355.17
697.56	353.58
697.89	351.95
698.23	350.32
698.56	348.70
698.90	347.08
699.23	345.40
699.57	343.86
699.90	342.32
700.24	340.71
700.58	339.23
700.91	337.70
701.25	336.27
701.58	334.94
701.92	333.60
702.25	332.22
702.59	330.82
702.92	329.48
703.26	328.21
703.59	326.89
703.93	325.76
704.26	324.56
704.60	323.23
704.93	321.95
705.26	320.72
705.60	319.56
705.93	318.43
706.27	317.41
706.60	316.32
706.94	315.25
707.27	314.14
707.61	313.04
707.94	312.07
708.27	310.96
708.61	309.89
708.94	308.86
709.28	307.91
709.61	306.98
709.94	306.06
710.28	305.03
710.61	304.07
710.95	302.93
711.28	302.03
711.61	301.08
711.95	300.17
712.28	299.23
712.61	298.23
712.95	297.32
713.28	296.41
713.61	295.57
713.95	294.69
714.28	293.88
714.61	293.05
714.95	292.24
715.28	291.40
715.61	290.52
715.95	289.70
716.28	288.84
716.61	288.01
716.95	287.21
717.28	286.46
717.61	285.72
717.94	284.97
718.28	284.17
718.61	283.46
718.94	282.78
719.27	282.12
719.61	281.48
719.94	280.80
720.27	280.10
720.60	279.40
720.94	278.77
721.27	278.13
721.60	277.56
721.93	276.91
722.27	276.34
722.60	275.79
722.93	275.19
723.26	274.66
723.59	274.10
723.93	273.54
724.26	272.96
724.59	272.39
724.92	271.91
725.25	271.44
725.59	270.90
725.92	270.39
726.25	269.85
726.58	269.37
726.91	268.87
727.24	268.40
727.57	267.91
727.91	267.40
728.24	266.95
728.57	266.42
728.90	265.99
729.23	265.53
729.56	265.08
729.89	264.61
730.22	264.10
730.55	263.62
730.89	263.15
731.22	262.73
731.55	262.28
731.88	261.83
732.21	261.35
732.54	260.92
732.87	260.47
733.20	260.08
733.53	259.68
733.86	259.31
734.19	258.89
734.52	258.53
734.85	258.19
735.18	257.74
735.51	257.39
735.84	257.05
736.17	256.69
736.50	256.27
736.83	256.07
737.16	255.74
737.49	255.40
737.82	255.06
738.15	254.73
738.48	254.37
738.81	254.07
739.14	253.76
739.47	253.42
739.80	253.13
740.13	252.82
740.46	252.48
740.79	252.16
741.12	251.86
741.45	251.57
741.78	251.24
742.11	251.03
742.44	250.72
742.77	250.44
743.10	250.15
743.43	249.89
743.75	249.46
744.08	249.32
744.41	249.07
744.74	248.82
745.07	248.51
745.40	248.27
745.73	248.01
746.06	247.73
746.39	247.46
746.71	247.22
747.04	246.93
747.37	246.68
747.70	246.43
748.03	246.17
748.36	245.92
748.68	245.66
749.01	245.38
749.34	245.16
749.67	244.91
750.00	244.67
750.33	244.50
750.65	244.31
750.98	243.98
751.31	243.76
751.64	243.56
751.97	243.41
752.29	243.22
752.62	243.00
752.95	242.77
753.28	242.59
753.60	242.35
753.93	242.18
754.26	241.98
754.59	241.75
754.91	241.55
755.24	241.38
755.57	241.18
755.90	241.00
756.22	240.79
756.55	240.56
756.88	240.35
757.20	240.14
757.53	239.93
757.86	239.75
758.19	239.57
758.51	239.39
758.84	239.19
759.17	239.02
759.49	238.83
759.82	238.71
760.15	238.58
760.47	238.46
760.80	238.30
761.13	238.19
761.45	238.04
761.78	237.91
762.11	237.77
762.43	237.64
762.76	237.47
763.08	237.33
763.41	237.20
763.74	237.06
764.06	236.94
764.39	236.81
764.71	236.68
765.04	236.51
765.37	236.37
765.69	236.24
766.02	236.07
766.34	235.92
766.67	235.78
767.00	235.68
767.32	235.62
767.65	235.57
767.97	235.44
768.30	235.33
768.62	235.22
768.95	235.08
769.27	234.99
769.60	234.89
769.92	234.77
770.25	234.68
770.57	234.56
770.90	234.44
771.22	234.31
771.55	234.23
771.87	234.15
772.20	234.06
772.52	234.04
772.85	234.08
773.17	234.02
773.50	233.91
773.82	233.78
774.15	233.64
774.47	233.48
774.80	233.40
775.12	233.31
775.45	233.22
775.77	233.14
776.09	233.07
776.42	233.00
776.74	232.95
777.07	232.85
777.39	232.78
777.72	232.72
778.04	232.69
778.36	232.61
778.69	232.56
779.01	232.49
779.33	232.33
779.66	232.18
779.98	232.12
780.31	232.08
780.63	232.06
780.95	231.97
781.28	231.89
781.60	231.82
781.92	231.78
782.25	231.74
782.57	231.64
782.89	231.59
783.22	231.53
783.54	231.49
783.86	231.43
784.19	231.39
784.51	231.33
784.83	231.25
785.16	231.17
785.48	231.09
785.80	231.05
786.12	230.99
786.45	230.93
786.77	230.88
787.09	230.83
787.42	230.77
787.74	230.75
788.06	230.73
788.38	230.70
788.71	230.64
789.03	230.61
789.35	230.63
789.67	230.57
789.99	230.54
790.32	230.46
790.64	230.44
790.96	230.45
791.28	230.43
791.61	230.38
791.93	230.36
792.25	230.32
792.57	230.37
792.89	230.34
793.21	230.31
793.54	230.26
793.86	230.23
794.18	230.19
794.50	230.16
794.82	230.13
795.14	230.08
795.47	230.04
795.79	229.98
796.11	229.91
796.43	229.85
796.75	229.82
797.07	229.82
797.39	229.79
797.71	229.70
798.04	229.62
798.36	229.63
798.68	229.60
799.00	229.58
799.32	229.47
799.64	229.47
799.96	229.42
800.28	229.39
800.60	229.36
800.92	229.35
801.24	229.29
801.56	229.28
801.89	229.24
802.21	229.20
802.53	229.17
802.85	229.17
803.17	229.21
803.49	229.17
803.81	229.10
804.13	229.07
804.45	229.02
804.77	229.04
805.09	228.98
805.41	228.93
805.73	228.89
806.05	228.84
806.37	228.81
806.69	228.80
807.01	228.77
807.33	228.72
807.65	228.65
807.97	228.68
808.28	228.62
808.60	228.59
808.92	228.58
809.24	228.62
809.56	228.54
809.88	228.47
810.20	228.45
810.52	228.45
810.84	228.42
811.16	228.41
811.48	228.37
811.80	228.35
812.12	228.34
812.43	228.36
812.75	228.34
813.07	228.29
813.39	228.24
813.71	228.20
814.03	228.15
814.35	228.11
814.67	228.05
814.98	228.03
815.30	228.02
815.62	227.96
815.94	227.89
816.26	227.93
816.58	227.91
816.89	227.89
817.21	227.85
817.53	227.82
817.85	227.79
818.17	227.76
818.48	227.72
818.80	227.71
819.12	227.64
819.44	227.62
819.76	227.59
820.07	227.59
820.39	227.57
820.71	227.60
821.03	227.59
821.34	227.57
821.66	227.58
821.98	227.57
822.30	227.54
822.61	227.55
822.93	227.48
823.25	227.45
823.57	227.40
823.88	227.41
824.20	227.38
824.52	227.39
824.83	227.35
825.15	227.31
825.47	227.28
825.79	227.26
826.10	227.24
826.42	227.23
826.74	227.19
827.05	227.18
827.37	227.15
827.69	227.14
828.00	227.13
828.32	227.08
828.64	227.06
828.95	227.13
829.27	227.07
829.58	227.10
829.90	227.10
830.22	227.13
830.53	227.11
830.85	227.10
831.17	227.03
831.48	227.06
831.80	227.08
832.11	227.08
832.43	227.07
832.75	227.06
833.06	227.10
833.38	227.10
833.69	227.07
834.01	227.06
834.32	227.06
834.64	227.03
834.96	227.01
835.27	226.99
835.59	226.95
835.90	226.94
836.22	226.90
836.53	226.85
836.85	226.81
837.16	226.94
837.48	226.94
837.79	226.98
838.11	226.97
838.42	226.97
838.74	226.96
839.05	226.95
839.37	226.95
839.68	226.91
840.00	226.93
840.31	226.92
840.63	226.92
840.94	226.92
841.26	226.91
841.57	226.89
841.88	226.90
842.20	226.86
842.51	226.84
842.83	226.85
843.14	226.96
843.46	226.97
843.77	226.85
844.08	226.84
844.40	226.81
844.71	226.77
845.03	226.77
845.34	226.79
845.65	226.80
845.97	226.82
846.28	226.80
846.60	226.77
846.91	226.77
847.22	226.76
847.54	226.75
847.85	226.78
848.16	226.78
848.48	226.77
848.79	226.83
849.10	226.84
849.42	226.86
849.73	226.76
850.04	226.75
850.36	226.71
850.67	226.73
850.98	226.74
851.30	226.78
851.61	226.74
851.92	226.71
852.23	226.68
852.55	226.65
852.86	226.66
853.17	226.68
853.49	226.72
853.80	226.73
854.11	226.73
854.42	226.74
854.74	226.75
855.05	226.78
855.36	226.72
855.67	226.70
855.99	226.68
856.30	226.80
856.61	226.81
856.92	226.82
857.23	226.78
857.55	226.78
857.86	226.76
858.17	226.81
858.48	226.78
858.79	226.79
859.11	226.80
859.42	226.80
859.73	226.80
860.04	226.74
860.35	226.73
860.66	226.72
860.98	226.68
861.29	226.68
861.60	226.64
861.91	226.65
862.22	226.63
862.53	226.58
862.84	226.46
863.16	226.46
863.47	226.44
863.78	226.47
864.09	226.48
864.40	226.50
864.71	226.48
865.02	226.50
865.33	226.51
865.64	226.52
865.95	226.50
866.27	226.51
866.58	226.56
866.89	226.57
867.20	226.54
867.51	226.53
867.82	226.54
868.13	226.58
868.44	226.52
868.75	226.58
869.06	226.61
869.37	226.62
869.68	226.60
869.99	226.63
870.30	226.64
870.61	226.62
870.92	226.58
871.23	226.56
871.54	226.59
871.85	226.59
872.16	226.60
872.47	226.59
872.78	226.57
873.09	226.57
873.40	226.57
873.71	226.59
874.02	226.62
874.33	226.60
874.64	226.55
874.95	226.62
875.26	226.58
875.56	226.57
875.87	226.55
876.18	226.53
876.49	226.62
876.80	226.57
877.11	226.57
877.42	226.56
877.73	226.59
878.04	226.55
878.35	226.52
878.66	226.51
878.96	226.54
879.27	226.51
879.58	226.50
879.89	226.45
880.20	226.47
880.51	226.47
880.82	226.46
881.12	226.48
881.43	226.46
881.74	226.48
882.05	226.51
882.36	226.51
882.67	226.52
882.97	226.40
883.28	226.40
883.59	226.38
883.90	226.35
884.21	226.35
884.51	226.36
884.82	226.39
885.13	226.38
885.44	226.34
885.74	226.34
886.05	226.34
886.36	226.36
886.67	226.32
886.98	226.36
887.28	226.34
887.59	226.31
887.90	226.30
888.20	226.28
888.51	226.28
888.82	226.28
889.13	226.28
889.43	226.36
889.74	226.34
890.05	226.33
890.35	226.36
890.66	226.33
890.97	226.32
891.28	226.28
891.58	226.28
891.89	226.31
892.20	226.31
892.50	226.27
892.81	226.27
893.12	226.25
893.42	226.22
893.73	226.24
894.04	226.24
894.34	226.26
894.65	226.26
894.95	226.22
895.26	226.25
895.57	226.30
895.87	226.20
896.18	226.24
896.48	226.25
896.79	226.26
897.10	226.26
897.40	226.25
897.71	226.25
898.01	226.22
898.32	226.21
898.63	226.20
898.93	226.21
899.24	226.17
899.54	226.18
899.85	226.16
900.15	226.11
900.46	226.10
900.76	226.10
901.07	226.09
901.38	226.09
901.68	226.07
901.99	226.01
902.29	226.03
902.60	226.02
902.90	226.02
903.21	225.99
903.51	225.99
903.82	226.03
904.12	226.05
904.43	226.07
904.73	226.04
905.03	226.04
905.34	226.12
905.64	226.15
905.95	226.16
906.25	226.14
906.56	226.19
906.86	226.22
907.17	226.20
907.47	226.18
907.77	226.18
908.08	226.16
908.38	226.16
908.69	226.15
908.99	226.15
909.30	226.17
909.60	226.19
909.90	226.20
910.21	226.19
910.51	226.16
910.81	226.15
911.12	226.21
911.42	226.19
911.73	226.10
912.03	226.10
912.33	226.10
912.64	226.12
912.94	226.09
913.24	226.06
913.55	226.06
913.85	226.07
914.15	226.06
914.46	226.10
914.76	226.07
915.06	226.08
915.37	226.03
915.67	226.03
915.97	226.03
916.27	226.04
916.58	226.05
916.88	226.05
917.18	226.04
917.49	226.07
917.79	226.08
918.09	226.10
918.39	226.14
918.70	226.16
919.00	226.17
919.30	226.22
919.60	226.20
919.91	226.18
920.21	226.19
920.51	226.18
920.81	226.17
921.12	226.18
921.42	226.22
921.72	226.24
922.02	226.23
922.32	226.21
922.63	226.18
922.93	226.21
923.23	226.20
923.53	226.20
923.83	226.11
924.13	226.15
924.44	226.14
924.74	226.13
925.04	226.13
925.34	226.13
925.64	226.09
925.94	226.12
926.24	226.19
926.55	226.19
926.85	226.23
927.15	226.22
927.45	226.23
927.75	226.19
928.05	226.18
928.35	226.17
928.65	226.20
928.95	226.23
929.26	226.19
929.56	226.24
929.86	226.27
930.16	226.29
930.46	226.29
930.76	226.30
931.06	226.27
931.36	226.25
931.66	226.25
931.96	226.27
932.26	226.29
932.56	226.20
932.86	226.19
933.16	226.15
933.46	226.14
933.76	226.13
934.06	226.16
934.36	226.22
934.66	226.22
934.96	226.21
935.26	226.21
935.56	226.20
935.86	226.18
936.16	226.15
936.46	226.14
936.76	226.09
937.06	226.08
937.36	226.07
937.66	226.07
937.96	226.06
938.26	226.05
938.56	226.03
938.86	226.07
939.16	226.08
939.46	226.10
939.76	226.12
940.06	226.11
940.35	226.06
940.65	226.01
940.95	226.03
941.25	225.99
941.55	225.93
941.85	225.95
942.15	225.99
942.45	226.02
942.75	226.01
943.04	226.06
943.34	226.06
943.64	226.06
943.94	226.03
944.24	226.04
944.54	226.04
944.84	226.03
945.13	226.02
945.43	226.01
945.73	226.00
946.03	225.99
946.33	226.01
946.62	226.04
946.92	226.05
947.22	226.08
947.52	226.11
947.82	226.16
948.11	226.14
948.41	226.11
948.71	226.08
949.01	226.09
949.31	226.07
949.60	226.07
949.90	226.09
950.20	226.09
950.50	226.09
950.79	226.06
951.09	226.10
951.39	226.07
951.69	226.06
951.98	226.08
952.28	226.09
952.58	226.07
952.87	226.06
953.17	226.05
953.47	225.99
953.76	225.98
954.06	225.96
954.36	225.96
954.66	225.95
954.95	225.96
955.25	225.96
955.55	225.96
955.84	225.93
956.14	225.93
956.44	225.94
956.73	225.93
957.03	225.96
957.32	225.95
957.62	225.98
957.92	226.00
958.21	226.00
958.51	226.07
958.81	226.10
959.10	226.08
959.40	226.12
959.69	226.14
959.99	226.17
960.29	226.17
960.58	226.14
960.88	226.17
961.17	226.18
961.47	226.18
961.76	226.16
962.06	226.19
962.36	226.18
962.65	226.16
962.95	226.19
963.24	226.18
963.54	226.17
963.83	226.16
964.13	226.17
964.42	226.12
964.72	226.08
965.01	226.07
965.31	226.06
965.60	226.05
965.90	226.06
966.19	226.01
966.49	226.06
966.78	226.07
967.08	226.06
967.37	226.07
967.67	226.05
967.96	226.06
968.26	226.08
968.55	226.10
968.85	226.11
969.14	226.08
969.43	226.08
969.73	226.06
970.02	226.05
970.32	226.03
970.61	226.02
970.91	225.99
971.20	225.99
971.49	225.98
971.79	225.98
972.08	225.94
972.38	225.96
972.67	225.92
972.96	225.96
973.26	225.94
973.55	225.93
973.85	225.93
974.14	225.93
974.43	225.91
974.73	225.90
975.02	225.89
975.31	225.89
975.61	225.89
975.90	225.89
976.19	225.88
976.49	225.89
976.78	225.91
977.07	225.92
977.37	225.93
977.66	225.95
977.95	225.94
978.24	225.96
978.54	225.97
978.83	225.98
979.12	225.94
979.42	225.96
979.71	225.93
980.00	225.91
980.29	225.93
980.59	225.90
980.88	225.88
981.17	225.91
981.46	225.90
981.76	225.89
982.05	225.93
982.34	225.96
982.63	225.94
982.93	225.92
983.22	225.93
983.51	225.92
983.80	225.94
984.09	225.94
984.39	225.93
984.68	225.88
984.97	225.88
985.26	225.90
985.55	225.86
985.85	225.86
986.14	225.88
986.43	225.89
986.72	225.90
987.01	225.89
987.30	225.89
987.59	225.86
987.89	225.86
988.18	225.82
988.47	225.79
988.76	225.81
989.05	225.84
989.34	225.81
989.63	225.83
989.92	225.80
990.22	225.82
990.51	225.83
990.80	225.86
991.09	225.87
991.38	225.88
991.67	225.85
991.96	225.84
992.25	225.85
992.54	225.82
992.83	225.82
993.12	225.84
993.41	225.84
993.70	225.88
993.99	225.92
994.28	225.93
994.58	225.96
994.87	225.93
995.16	225.89
995.45	225.93
995.74	225.88
996.03	225.90
996.32	225.90
996.61	225.91
996.90	225.92
997.19	225.91
997.48	225.90
997.77	225.92
998.06	225.96
998.34	225.96
998.63	225.98
998.92	225.98
999.21	225.97
999.50	225.98
999.79	225.97
1000.08	225.94
1000.37	225.94
1000.66	225.91
1000.95	225.96
1001.24	225.98
1001.53	225.99
1001.82	226.02
1002.11	226.00
1002.40	226.03
1002.68	226.06
1002.97	226.12
1003.26	226.10
1003.55	226.13
1003.84	226.14
1004.13	226.14
1004.42	226.13
1004.71	226.11
1004.99	226.11
1005.28	226.14
1005.57	226.15
1005.86	226.12
1006.15	226.12
1006.44	226.12
1006.72	226.13
1007.01	226.12
1007.30	226.13
1007.59	226.10
1007.88	226.08
1008.17	226.08
1008.45	226.04
1008.74	225.97
1009.03	225.93
1009.32	225.92
1009.60	225.93
1009.89	225.91
1010.18	225.88
1010.47	225.87
1010.76	225.86
1011.04	225.85
1011.33	225.84
1011.62	225.84
1011.91	225.86
1012.19	225.88
1012.48	225.89
1012.77	225.88
1013.05	225.92
1013.34	225.88
1013.63	225.87
1013.92	225.87
1014.20	225.88
1014.49	225.87
1014.78	225.87
1015.06	225.82
1015.35	225.80
1015.64	225.78
1015.92	225.77
1016.21	225.77
1016.50	225.77
1016.78	225.80
1017.07	225.80
1017.36	225.80
1017.64	225.76
1017.93	225.77
1018.22	225.73
1018.50	225.74
1018.79	225.75
1019.08	225.68
1019.36	225.69
1019.65	225.68
1019.93	225.68
1020.22	225.72
1020.51	225.77
1020.79	225.79
1021.08	225.27
1021.36	226.18
1021.65	226.07
1021.94	225.33
1022.22	225.57
1022.51	225.50
1022.79	225.91
1023.08	226.53
1023.36	227.04
1023.65	225.64
>>>>>End Processed Spectral Data<<<<<
