SpectraSuite Data File
++++++++++++++++++++++++++++++++++++
Date: Fri Feb 01 17:08:33 EST 2013
User: group
Dark Spectrum Present: No
Reference Spectrum Present: No
Number of Sampled Component Spectra: 1
Spectrometers: USB2E7196
Integration Time (usec): 35000 (USB2E7196)
Spectra Averaged: 100 (USB2E7196)
Boxcar Smoothing: 10 (USB2E7196)
Correct for Electrical Dark: No (USB2E7196)
Strobe/Lamp Enabled: No (USB2E7196)
Correct for Detector Non-linearity: No (USB2E7196)
Correct for Stray Light: No (USB2E7196)
Number of Pixels in Processed Spectrum: 2048
>>>>>Begin Processed Spectral Data<<<<<
339.09	0.00
339.48	213.29
339.86	214.57
340.24	215.99
340.63	217.01
341.01	219.94
341.39	220.11
341.78	221.64
342.16	222.62
342.54	223.11
342.93	211.67
343.31	222.38
343.69	222.93
344.07	223.44
344.46	223.87
344.84	224.29
345.22	224.56
345.60	224.82
345.99	224.99
346.37	225.16
346.75	225.26
347.13	225.35
347.52	225.38
347.90	225.44
348.28	225.52
348.66	225.59
349.05	225.57
349.43	225.64
349.81	225.71
350.19	225.78
350.57	225.85
350.96	225.92
351.34	226.01
351.72	226.11
352.10	226.19
352.48	226.28
352.87	226.36
353.25	226.40
353.63	226.45
354.01	226.55
354.39	226.62
354.77	226.74
355.15	226.81
355.54	226.88
355.92	226.97
356.30	227.06
356.68	227.17
357.06	227.28
357.44	227.35
357.82	227.40
358.20	227.49
358.58	227.56
358.97	227.62
359.35	227.71
359.73	227.76
360.11	227.81
360.49	227.88
360.87	227.93
361.25	228.02
361.63	228.11
362.01	228.20
362.39	228.23
362.77	228.26
363.15	228.29
363.53	228.33
363.91	228.31
364.29	228.30
364.67	228.28
365.05	228.27
365.43	228.28
365.81	228.27
366.19	228.28
366.57	228.30
366.95	228.29
367.33	228.27
367.71	228.23
368.09	228.22
368.47	228.19
368.85	228.16
369.23	228.14
369.61	228.07
369.99	228.04
370.37	228.00
370.75	228.02
371.13	227.94
371.51	227.86
371.89	227.83
372.27	227.80
372.65	227.71
373.03	227.63
373.41	227.58
373.78	227.51
374.16	227.41
374.54	227.32
374.92	227.25
375.30	227.15
375.68	227.11
376.06	227.04
376.44	226.93
376.82	226.84
377.19	226.77
377.57	226.74
377.95	226.60
378.33	226.52
378.71	226.38
379.09	226.37
379.47	226.31
379.84	226.26
380.22	226.16
380.60	226.06
380.98	225.98
381.36	225.91
381.73	225.83
382.11	225.80
382.49	225.71
382.87	225.63
383.25	225.56
383.62	225.60
384.00	225.54
384.38	225.50
384.76	225.46
385.13	225.45
385.51	225.39
385.89	225.35
386.27	225.31
386.64	225.29
387.02	225.20
387.40	225.14
387.78	225.08
388.15	225.04
388.53	225.00
388.91	224.97
389.29	224.92
389.66	224.89
390.04	224.82
390.42	224.83
390.79	224.82
391.17	224.83
391.55	224.70
391.92	224.67
392.30	224.67
392.68	224.63
393.05	224.59
393.43	224.59
393.81	224.59
394.18	224.58
394.56	224.59
394.94	224.64
395.31	224.65
395.69	224.69
396.06	224.77
396.44	224.83
396.82	224.86
397.19	224.94
397.57	224.98
397.95	225.04
398.32	225.07
398.70	225.11
399.07	225.18
399.45	225.22
399.82	225.30
400.20	225.38
400.58	225.43
400.95	225.48
401.33	225.59
401.70	225.74
402.08	225.83
402.45	225.89
402.83	226.00
403.20	226.11
403.58	226.22
403.95	226.32
404.33	226.46
404.71	226.62
405.08	226.84
405.46	226.99
405.83	227.14
406.21	227.27
406.58	227.48
406.96	227.64
407.33	227.84
407.70	228.02
408.08	228.25
408.45	228.51
408.83	228.77
409.20	228.96
409.58	229.12
409.95	229.40
410.33	229.68
410.70	229.91
411.08	230.21
411.45	230.52
411.82	230.84
412.20	231.18
412.57	231.61
412.95	231.88
413.32	232.33
413.69	232.74
414.07	233.21
414.44	233.67
414.82	234.16
415.19	234.69
415.56	235.24
415.94	235.78
416.31	236.42
416.68	237.02
417.06	237.75
417.43	238.47
417.81	239.20
418.18	239.99
418.55	240.85
418.93	241.72
419.30	242.60
419.67	243.48
420.04	244.41
420.42	245.35
420.79	246.51
421.16	247.60
421.54	248.77
421.91	249.97
422.28	251.19
422.66	252.49
423.03	253.78
423.40	255.08
423.77	256.49
424.15	257.86
424.52	259.31
424.89	260.86
425.26	262.38
425.64	263.82
426.01	265.43
426.38	267.05
426.75	268.73
427.13	270.47
427.50	272.28
427.87	274.15
428.24	275.98
428.61	277.71
428.99	279.62
429.36	281.70
429.73	283.73
430.10	285.73
430.47	287.77
430.85	289.86
431.22	292.09
431.59	294.45
431.96	296.68
432.33	299.15
432.70	301.55
433.08	304.30
433.45	306.92
433.82	309.46
434.19	312.34
434.56	315.07
434.93	317.66
435.30	320.24
435.68	323.14
436.05	325.99
436.42	328.76
436.79	331.24
437.16	333.91
437.53	336.70
437.90	339.49
438.27	342.17
438.64	344.98
439.01	347.54
439.38	349.78
439.75	351.93
440.13	354.42
440.50	356.75
440.87	358.60
441.24	360.55
441.61	362.69
441.98	364.16
442.35	365.97
442.72	367.85
443.09	369.67
443.46	370.65
443.83	371.24
444.20	371.77
444.57	372.62
444.94	372.90
445.31	373.26
445.68	373.64
446.05	373.73
446.42	373.38
446.79	372.99
447.16	372.54
447.53	372.26
447.90	371.12
448.27	369.96
448.64	368.41
449.01	367.31
449.37	365.37
449.74	363.48
450.11	361.28
450.48	358.80
450.85	356.27
451.22	354.14
451.59	352.13
451.96	350.19
452.33	347.64
452.70	345.36
453.07	342.62
453.43	339.76
453.80	337.03
454.17	334.40
454.54	331.92
454.91	329.21
455.28	326.53
455.65	324.07
456.02	321.70
456.38	319.60
456.75	316.95
457.12	314.75
457.49	312.57
457.86	310.38
458.23	308.60
458.59	306.62
458.96	304.57
459.33	302.72
459.70	300.91
460.07	299.40
460.43	297.69
460.80	296.04
461.17	294.60
461.54	293.17
461.91	291.72
462.27	290.27
462.64	289.02
463.01	287.75
463.38	286.45
463.74	285.06
464.11	283.86
464.48	282.86
464.85	281.75
465.21	280.92
465.58	280.03
465.95	278.90
466.32	278.00
466.68	277.11
467.05	276.25
467.42	275.33
467.78	274.45
468.15	273.61
468.52	272.93
468.88	272.09
469.25	271.32
469.62	270.74
469.98	270.08
470.35	269.47
470.72	268.87
471.08	268.24
471.45	267.72
471.82	267.17
472.18	266.58
472.55	266.15
472.92	265.60
473.28	265.16
473.65	264.76
474.02	264.32
474.38	263.98
474.75	263.66
475.11	263.37
475.48	263.13
475.85	262.89
476.21	262.66
476.58	262.49
476.94	262.33
477.31	262.16
477.67	262.01
478.04	261.90
478.41	261.83
478.77	261.88
479.14	261.80
479.50	261.80
479.87	261.82
480.23	261.88
480.60	261.93
480.96	261.98
481.33	262.16
481.69	262.32
482.06	262.48
482.42	262.67
482.79	262.87
483.15	263.10
483.52	263.46
483.88	263.80
484.25	264.15
484.61	264.58
484.98	265.03
485.34	265.58
485.71	266.19
486.07	266.80
486.44	267.35
486.80	268.03
487.17	268.78
487.53	269.60
487.90	270.46
488.26	271.42
488.62	272.41
488.99	273.36
489.35	274.40
489.72	275.54
490.08	276.70
490.44	277.93
490.81	279.33
491.17	280.65
491.54	282.16
491.90	283.72
492.26	285.34
492.63	287.08
492.99	288.89
493.36	290.75
493.72	292.78
494.08	294.86
494.45	297.12
494.81	299.51
495.17	301.98
495.54	304.59
495.90	307.28
496.26	310.12
496.63	313.14
496.99	316.27
497.35	319.52
497.72	322.94
498.08	326.52
498.44	330.16
498.80	334.13
499.17	338.15
499.53	342.31
499.89	346.68
500.26	351.14
500.62	355.77
500.98	360.72
501.34	365.73
501.71	371.08
502.07	376.47
502.43	382.04
502.79	387.79
503.16	393.79
503.52	400.01
503.88	406.33
504.24	412.87
504.60	419.66
504.97	426.75
505.33	434.05
505.69	441.66
506.05	449.41
506.41	457.20
506.78	465.28
507.14	473.61
507.50	482.24
507.86	491.18
508.22	500.32
508.59	509.47
508.95	519.00
509.31	528.70
509.67	538.74
510.03	548.86
510.39	559.25
510.75	569.89
511.12	580.70
511.48	591.87
511.84	603.20
512.20	614.61
512.56	626.39
512.92	638.35
513.28	650.58
513.64	662.76
514.00	675.26
514.37	688.01
514.73	700.88
515.09	713.67
515.45	726.72
515.81	740.05
516.17	753.67
516.53	767.53
516.89	781.42
517.25	795.32
517.61	809.49
517.97	823.71
518.33	837.97
518.69	852.44
519.05	867.16
519.41	881.99
519.77	897.20
520.13	912.26
520.49	927.37
520.85	942.37
521.21	957.85
521.57	973.66
521.93	988.96
522.29	1004.96
522.65	1020.92
523.01	1036.81
523.37	1052.53
523.73	1068.36
524.09	1084.08
524.45	1099.93
524.81	1116.25
525.17	1132.61
525.53	1148.99
525.89	1165.35
526.25	1181.83
526.61	1197.70
526.97	1214.06
527.33	1230.11
527.68	1246.38
528.04	1262.39
528.40	1278.63
528.76	1295.28
529.12	1311.46
529.48	1327.99
529.84	1343.60
530.20	1359.76
530.56	1376.25
530.91	1393.14
531.27	1409.46
531.63	1425.45
531.99	1441.58
532.35	1457.03
532.71	1472.65
533.07	1488.64
533.42	1504.31
533.78	1519.87
534.14	1535.84
534.50	1550.84
534.86	1566.27
535.21	1581.05
535.57	1596.51
535.93	1611.42
536.29	1625.75
536.65	1640.44
537.00	1654.78
537.36	1669.71
537.72	1683.92
538.08	1697.98
538.44	1711.43
538.79	1725.02
539.15	1738.25
539.51	1751.75
539.87	1765.67
540.22	1778.93
540.58	1792.14
540.94	1804.87
541.29	1817.39
541.65	1829.69
542.01	1842.40
542.37	1854.44
542.72	1866.54
543.08	1878.17
543.44	1890.38
543.79	1901.40
544.15	1912.14
544.51	1923.60
544.87	1934.34
545.22	1944.96
545.58	1954.92
545.94	1964.59
546.29	1974.27
546.65	1984.11
547.01	1993.35
547.36	2002.00
547.72	2010.44
548.07	2018.34
548.43	2026.57
548.79	2034.57
549.14	2042.03
549.50	2049.37
549.86	2056.97
550.21	2064.30
550.57	2071.37
550.92	2077.98
551.28	2084.97
551.64	2092.04
551.99	2098.53
552.35	2104.81
552.70	2110.84
553.06	2116.98
553.41	2123.30
553.77	2129.33
554.13	2135.24
554.48	2141.20
554.84	2146.84
555.19	2152.05
555.55	2157.25
555.90	2161.66
556.26	2166.76
556.61	2171.52
556.97	2175.98
557.32	2180.21
557.68	2184.37
558.03	2188.68
558.39	2192.22
558.74	2196.92
559.10	2200.79
559.45	2204.34
559.81	2208.50
560.16	2212.32
560.52	2215.61
560.87	2218.90
561.23	2221.51
561.58	2224.55
561.94	2227.14
562.29	2229.47
562.64	2232.32
563.00	2234.96
563.35	2238.53
563.71	2241.42
564.06	2244.75
564.42	2247.70
564.77	2250.37
565.12	2252.87
565.48	2254.98
565.83	2257.24
566.19	2258.67
566.54	2259.72
566.89	2261.11
567.25	2261.93
567.60	2263.29
567.96	2265.18
568.31	2266.17
568.66	2267.58
569.02	2268.44
569.37	2268.76
569.72	2269.84
570.08	2270.30
570.43	2270.52
570.78	2270.22
571.14	2268.91
571.49	2267.63
571.84	2267.44
572.20	2266.46
572.55	2265.46
572.90	2263.92
573.26	2262.70
573.61	2261.20
573.96	2259.82
574.31	2257.08
574.67	2254.38
575.02	2251.14
575.37	2247.77
575.72	2244.43
576.08	2241.25
576.43	2237.90
576.78	2234.75
577.13	2231.69
577.49	2228.56
577.84	2225.33
578.19	2221.77
578.54	2218.46
578.90	2214.71
579.25	2209.42
579.60	2204.80
579.95	2200.07
580.30	2195.28
580.66	2190.20
581.01	2185.36
581.36	2180.53
581.71	2176.69
582.06	2172.45
582.42	2168.37
582.77	2163.52
583.12	2159.18
583.47	2154.75
583.82	2150.14
584.17	2145.19
584.53	2140.00
584.88	2134.67
585.23	2129.23
585.58	2123.94
585.93	2118.69
586.28	2114.00
586.63	2109.29
586.98	2104.39
587.34	2099.91
587.69	2095.31
588.04	2090.44
588.39	2085.15
588.74	2078.93
589.09	2072.94
589.44	2066.35
589.79	2060.41
590.14	2055.01
590.49	2048.52
590.84	2042.10
591.19	2036.32
591.54	2029.97
591.89	2022.86
592.25	2016.43
592.60	2009.34
592.95	2002.15
593.30	1995.00
593.65	1987.62
594.00	1980.59
594.35	1973.59
594.70	1965.69
595.05	1958.85
595.40	1951.71
595.75	1944.38
596.10	1938.40
596.45	1931.98
596.80	1926.06
597.15	1919.69
597.50	1912.81
597.85	1906.49
598.19	1900.17
598.54	1893.43
598.89	1886.93
599.24	1881.05
599.59	1874.49
599.94	1868.53
600.29	1862.37
600.64	1855.99
600.99	1848.68
601.34	1842.09
601.69	1835.09
602.04	1828.54
602.39	1821.32
602.74	1814.71
603.08	1808.21
603.43	1801.67
603.78	1794.36
604.13	1787.23
604.48	1779.97
604.83	1773.12
605.18	1766.51
605.53	1758.77
605.87	1750.78
606.22	1743.67
606.57	1735.92
606.92	1728.64
607.27	1721.47
607.62	1714.56
607.96	1707.44
608.31	1701.15
608.66	1693.60
609.01	1686.29
609.36	1678.70
609.70	1670.76
610.05	1662.61
610.40	1654.87
610.75	1646.47
611.10	1638.92
611.44	1630.49
611.79	1622.53
612.14	1614.12
612.49	1604.97
612.83	1596.67
613.18	1588.60
613.53	1580.54
613.88	1572.07
614.22	1563.85
614.57	1555.31
614.92	1547.45
615.27	1540.00
615.61	1531.70
615.96	1523.68
616.31	1516.06
616.65	1508.76
617.00	1501.22
617.35	1493.69
617.70	1485.46
618.04	1477.17
618.39	1468.90
618.74	1461.47
619.08	1453.27
619.43	1445.62
619.78	1438.75
620.12	1431.61
620.47	1424.17
620.82	1416.00
621.16	1408.58
621.51	1400.94
621.85	1393.39
622.20	1384.88
622.55	1376.52
622.89	1368.66
623.24	1361.09
623.59	1353.71
623.93	1346.30
624.28	1339.21
624.62	1331.78
624.97	1324.67
625.32	1317.89
625.66	1310.97
626.01	1303.72
626.35	1296.45
626.70	1288.68
627.04	1280.90
627.39	1273.07
627.73	1265.61
628.08	1258.83
628.43	1251.82
628.77	1244.60
629.12	1237.13
629.46	1230.03
629.81	1222.54
630.15	1215.40
630.50	1208.09
630.84	1199.99
631.19	1191.95
631.53	1184.34
631.88	1176.81
632.22	1169.27
632.57	1162.01
632.91	1154.46
633.26	1147.15
633.60	1139.78
633.95	1132.66
634.29	1125.71
634.64	1119.11
634.98	1111.93
635.32	1104.88
635.67	1098.10
636.01	1091.47
636.36	1084.77
636.70	1078.25
637.05	1071.70
637.39	1065.18
637.73	1058.75
638.08	1052.85
638.42	1046.92
638.77	1040.54
639.11	1034.08
639.45	1027.74
639.80	1021.06
640.14	1014.82
640.49	1008.47
640.83	1002.15
641.17	996.09
641.52	989.86
641.86	983.40
642.20	977.53
642.55	971.14
642.89	964.77
643.23	958.17
643.58	952.42
643.92	946.26
644.26	940.41
644.61	934.36
644.95	928.37
645.29	921.87
645.64	915.16
645.98	908.87
646.32	902.98
646.66	896.87
647.01	891.17
647.35	885.46
647.69	879.54
648.04	873.98
648.38	868.21
648.72	862.23
649.06	856.33
649.41	850.53
649.75	844.59
650.09	838.68
650.43	833.01
650.78	826.84
651.12	820.92
651.46	815.14
651.80	809.51
652.14	804.13
652.49	798.79
652.83	793.68
653.17	788.10
653.51	782.37
653.85	777.00
654.20	771.44
654.54	765.42
654.88	759.68
655.22	753.89
655.56	748.22
655.90	742.75
656.25	737.53
656.59	732.14
656.93	727.11
657.27	721.99
657.61	716.58
657.95	711.53
658.29	706.44
658.64	701.19
658.98	695.87
659.32	690.42
659.66	685.24
660.00	680.00
660.34	675.00
660.68	670.10
661.02	665.20
661.36	660.46
661.70	655.99
662.05	651.70
662.39	647.36
662.73	642.91
663.07	638.56
663.41	634.11
663.75	629.62
664.09	625.08
664.43	620.68
664.77	616.62
665.11	612.39
665.45	608.30
665.79	604.29
666.13	600.20
666.47	596.13
666.81	592.04
667.15	587.84
667.49	583.94
667.83	580.18
668.17	576.26
668.51	572.23
668.85	568.21
669.19	564.40
669.53	560.62
669.87	556.78
670.21	553.08
670.55	549.46
670.89	546.13
671.23	542.74
671.57	539.27
671.91	535.75
672.25	532.17
672.58	528.68
672.92	525.23
673.26	522.11
673.60	518.95
673.94	515.85
674.28	513.00
674.62	510.14
674.96	507.04
675.30	504.13
675.64	501.22
675.97	498.47
676.31	495.57
676.65	492.64
676.99	489.97
677.33	487.14
677.67	484.34
678.01	481.22
678.34	478.28
678.68	475.39
679.02	472.59
679.36	469.88
679.70	467.16
680.04	464.50
680.37	461.62
680.71	458.90
681.05	456.26
681.39	453.57
681.73	450.93
682.06	448.39
682.40	445.91
682.74	443.35
683.08	440.78
683.42	438.24
683.75	435.78
684.09	433.23
684.43	430.78
684.77	428.35
685.10	426.02
685.44	423.72
685.78	421.43
686.12	419.17
686.45	416.90
686.79	414.61
687.13	412.36
687.46	410.21
687.80	407.99
688.14	405.81
688.48	403.73
688.81	401.52
689.15	399.41
689.49	397.24
689.82	395.22
690.16	393.11
690.50	391.12
690.83	389.18
691.17	387.14
691.51	385.24
691.84	383.39
692.18	381.54
692.52	379.56
692.85	377.65
693.19	375.81
693.52	373.97
693.86	372.13
694.20	370.33
694.53	368.56
694.87	366.75
695.21	364.98
695.54	363.14
695.88	361.39
696.21	359.66
696.55	357.96
696.88	356.23
697.22	354.61
697.56	352.98
697.89	351.30
698.23	349.71
698.56	348.11
698.90	346.50
699.23	344.83
699.57	343.31
699.90	341.77
700.24	340.22
700.58	338.65
700.91	337.22
701.25	335.79
701.58	334.43
701.92	333.07
702.25	331.69
702.59	330.31
702.92	328.99
703.26	327.64
703.59	326.35
703.93	325.18
704.26	323.92
704.60	322.61
704.93	321.37
705.26	320.11
705.60	318.90
705.93	317.69
706.27	316.65
706.60	315.56
706.94	314.46
707.27	313.30
707.61	312.25
707.94	311.19
708.27	310.11
708.61	308.97
708.94	307.96
709.28	306.98
709.61	306.05
709.94	305.10
710.28	304.12
710.61	303.13
710.95	302.03
711.28	301.09
711.61	300.19
711.95	299.26
712.28	298.34
712.61	297.36
712.95	296.47
713.28	295.61
713.61	294.71
713.95	293.82
714.28	292.97
714.61	292.14
714.95	291.31
715.28	290.45
715.61	289.57
715.95	288.72
716.28	287.83
716.61	286.96
716.95	286.11
717.28	285.31
717.61	284.57
717.94	283.88
718.28	283.10
718.61	282.37
718.94	281.67
719.27	281.06
719.61	280.44
719.94	279.79
720.27	279.05
720.60	278.42
720.94	277.79
721.27	277.22
721.60	276.66
721.93	276.07
722.27	275.55
722.60	275.05
722.93	274.47
723.26	273.94
723.59	273.40
723.93	272.87
724.26	272.35
724.59	271.78
724.92	271.27
725.25	270.78
725.59	270.27
725.92	269.79
726.25	269.26
726.58	268.76
726.91	268.29
727.24	267.80
727.57	267.32
727.91	266.82
728.24	266.35
728.57	265.86
728.90	265.43
729.23	264.90
729.56	264.45
729.89	263.99
730.22	263.52
730.55	263.05
730.89	262.61
731.22	262.16
731.55	261.73
731.88	261.29
732.21	260.85
732.54	260.42
732.87	259.97
733.20	259.54
733.53	259.14
733.86	258.74
734.19	258.34
734.52	257.94
734.85	257.67
735.18	257.22
735.51	256.83
735.84	256.40
736.17	256.08
736.50	255.66
736.83	255.44
737.16	255.12
737.49	254.79
737.82	254.45
738.15	254.09
738.48	253.79
738.81	253.43
739.14	253.09
739.47	252.78
739.80	252.47
740.13	252.17
740.46	251.85
740.79	251.53
741.12	251.24
741.45	250.96
741.78	250.54
742.11	250.31
742.44	249.97
742.77	249.69
743.10	249.33
743.43	249.05
743.75	248.64
744.08	248.46
744.41	248.15
744.74	247.85
745.07	247.59
745.40	247.28
745.73	247.04
746.06	246.74
746.39	246.48
746.71	246.19
747.04	245.91
747.37	245.64
747.70	245.37
748.03	245.13
748.36	244.90
748.68	244.66
749.01	244.38
749.34	244.15
749.67	243.90
750.00	243.75
750.33	243.56
750.65	243.35
750.98	243.03
751.31	242.87
751.64	242.67
751.97	242.51
752.29	242.32
752.62	242.06
752.95	241.86
753.28	241.64
753.60	241.45
753.93	241.26
754.26	241.06
754.59	240.85
754.91	240.60
755.24	240.41
755.57	240.24
755.90	240.09
756.22	239.90
756.55	239.69
756.88	239.46
757.20	239.23
757.53	239.04
757.86	238.88
758.19	238.71
758.51	238.54
758.84	238.34
759.17	238.18
759.49	238.04
759.82	237.94
760.15	237.79
760.47	237.67
760.80	237.52
761.13	237.38
761.45	237.24
761.78	237.11
762.11	236.98
762.43	236.84
762.76	236.70
763.08	236.63
763.41	236.56
763.74	236.45
764.06	236.36
764.39	236.22
764.71	236.10
765.04	235.93
765.37	235.80
765.69	235.69
766.02	235.57
766.34	235.45
766.67	235.33
767.00	235.23
767.32	235.16
767.65	235.09
767.97	235.01
768.30	234.92
768.62	234.82
768.95	234.68
769.27	234.57
769.60	234.46
769.92	234.34
770.25	234.19
770.57	234.09
770.90	233.96
771.22	233.89
771.55	233.80
771.87	233.72
772.20	233.66
772.52	233.65
772.85	233.67
773.17	233.60
773.50	233.49
773.82	233.38
774.15	233.27
774.47	233.11
774.80	233.00
775.12	232.89
775.45	232.79
775.77	232.71
776.09	232.65
776.42	232.54
776.74	232.49
777.07	232.40
777.39	232.31
777.72	232.22
778.04	232.16
778.36	232.02
778.69	231.98
779.01	231.91
779.33	231.76
779.66	231.59
779.98	231.46
780.31	231.38
780.63	231.38
780.95	231.28
781.28	231.24
781.60	231.17
781.92	231.10
782.25	231.08
782.57	231.05
782.89	230.94
783.22	230.88
783.54	230.76
783.86	230.72
784.19	230.67
784.51	230.65
784.83	230.56
785.16	230.55
785.48	230.47
785.80	230.37
786.12	230.30
786.45	230.23
786.77	230.23
787.09	230.19
787.42	230.09
787.74	230.07
788.06	230.01
788.38	229.95
788.71	229.91
789.03	229.83
789.35	229.78
789.67	229.72
789.99	229.69
790.32	229.63
790.64	229.58
790.96	229.61
791.28	229.52
791.61	229.45
791.93	229.40
792.25	229.36
792.57	229.39
792.89	229.33
793.21	229.30
793.54	229.21
793.86	229.16
794.18	229.12
794.50	229.04
794.82	229.00
795.14	228.96
795.47	228.94
795.79	228.88
796.11	228.80
796.43	228.76
796.75	228.75
797.07	228.75
797.39	228.72
797.71	228.64
798.04	228.62
798.36	228.60
798.68	228.56
799.00	228.50
799.32	228.44
799.64	228.45
799.96	228.41
800.28	228.42
800.60	228.40
800.92	228.37
801.24	228.35
801.56	228.34
801.89	228.31
802.21	228.29
802.53	228.27
802.85	228.27
803.17	228.31
803.49	228.24
803.81	228.21
804.13	228.15
804.45	228.10
804.77	228.09
805.09	228.08
805.41	228.06
805.73	228.05
806.05	227.99
806.37	227.96
806.69	227.94
807.01	227.94
807.33	227.89
807.65	227.85
807.97	227.89
808.28	227.88
808.60	227.89
808.92	227.82
809.24	227.88
809.56	227.87
809.88	227.83
810.20	227.81
810.52	227.82
810.84	227.80
811.16	227.80
811.48	227.75
811.80	227.76
812.12	227.72
812.43	227.70
812.75	227.70
813.07	227.66
813.39	227.67
813.71	227.63
814.03	227.63
814.35	227.60
814.67	227.54
814.98	227.50
815.30	227.48
815.62	227.49
815.94	227.40
816.26	227.39
816.58	227.35
816.89	227.38
817.21	227.32
817.53	227.31
817.85	227.24
818.17	227.25
818.48	227.20
818.80	227.24
819.12	227.19
819.44	227.18
819.76	227.13
820.07	227.10
820.39	227.08
820.71	227.09
821.03	227.08
821.34	227.04
821.66	227.03
821.98	226.99
822.30	226.95
822.61	226.98
822.93	226.93
823.25	226.93
823.57	226.89
823.88	226.92
824.20	226.91
824.52	226.96
824.83	226.94
825.15	226.92
825.47	226.88
825.79	226.87
826.10	226.82
826.42	226.84
826.74	226.80
827.05	226.76
827.37	226.77
827.69	226.74
828.00	226.75
828.32	226.73
828.64	226.70
828.95	226.75
829.27	226.72
829.58	226.73
829.90	226.71
830.22	226.67
830.53	226.62
830.85	226.59
831.17	226.56
831.48	226.55
831.80	226.54
832.11	226.51
832.43	226.51
832.75	226.53
833.06	226.59
833.38	226.59
833.69	226.58
834.01	226.55
834.32	226.54
834.64	226.50
834.96	226.52
835.27	226.53
835.59	226.49
835.90	226.49
836.22	226.49
836.53	226.46
836.85	226.47
837.16	226.56
837.48	226.56
837.79	226.58
838.11	226.59
838.42	226.61
838.74	226.60
839.05	226.60
839.37	226.59
839.68	226.48
840.00	226.45
840.31	226.47
840.63	226.44
840.94	226.42
841.26	226.38
841.57	226.33
841.88	226.33
842.20	226.28
842.51	226.24
842.83	226.23
843.14	226.33
843.46	226.33
843.77	226.29
844.08	226.30
844.40	226.22
844.71	226.20
845.03	226.16
845.34	226.21
845.65	226.18
845.97	226.19
846.28	226.19
846.60	226.19
846.91	226.16
847.22	226.16
847.54	226.20
847.85	226.23
848.16	226.25
848.48	226.24
848.79	226.31
849.10	226.31
849.42	226.31
849.73	226.20
850.04	226.20
850.36	226.11
850.67	226.12
850.98	226.15
851.30	226.13
851.61	226.13
851.92	226.09
852.23	226.13
852.55	226.09
852.86	226.10
853.17	226.10
853.49	226.12
853.80	226.15
854.11	226.14
854.42	226.14
854.74	226.09
855.05	226.07
855.36	226.01
855.67	225.99
855.99	225.98
856.30	226.09
856.61	226.07
856.92	226.09
857.23	226.06
857.55	226.04
857.86	226.05
858.17	226.06
858.48	226.02
858.79	225.97
859.11	225.99
859.42	225.98
859.73	225.97
860.04	225.96
860.35	225.90
860.66	225.89
860.98	225.90
861.29	225.92
861.60	225.93
861.91	225.92
862.22	225.90
862.53	225.86
862.84	225.72
863.16	225.72
863.47	225.69
863.78	225.67
864.09	225.66
864.40	225.66
864.71	225.67
865.02	225.70
865.33	225.71
865.64	225.69
865.95	225.68
866.27	225.71
866.58	225.71
866.89	225.72
867.20	225.69
867.51	225.67
867.82	225.65
868.13	225.69
868.44	225.70
868.75	225.70
869.06	225.69
869.37	225.71
869.68	225.70
869.99	225.69
870.30	225.72
870.61	225.69
870.92	225.67
871.23	225.62
871.54	225.62
871.85	225.61
872.16	225.63
872.47	225.62
872.78	225.57
873.09	225.58
873.40	225.58
873.71	225.59
874.02	225.58
874.33	225.59
874.64	225.55
874.95	225.53
875.26	225.52
875.56	225.54
875.87	225.52
876.18	225.51
876.49	225.64
876.80	225.63
877.11	225.63
877.42	225.66
877.73	225.66
878.04	225.64
878.35	225.65
878.66	225.64
878.96	225.67
879.27	225.65
879.58	225.64
879.89	225.60
880.20	225.63
880.51	225.63
880.82	225.63
881.12	225.65
881.43	225.63
881.74	225.60
882.05	225.60
882.36	225.62
882.67	225.64
882.97	225.51
883.28	225.52
883.59	225.52
883.90	225.51
884.21	225.54
884.51	225.52
884.82	225.51
885.13	225.53
885.44	225.48
885.74	225.50
886.05	225.50
886.36	225.54
886.67	225.48
886.98	225.54
887.28	225.53
887.59	225.51
887.90	225.52
888.20	225.54
888.51	225.54
888.82	225.51
889.13	225.50
889.43	225.60
889.74	225.58
890.05	225.61
890.35	225.58
890.66	225.57
890.97	225.57
891.28	225.55
891.58	225.57
891.89	225.58
892.20	225.55
892.50	225.53
892.81	225.50
893.12	225.50
893.42	225.48
893.73	225.48
894.04	225.47
894.34	225.47
894.65	225.47
894.95	225.48
895.26	225.49
895.57	225.54
895.87	225.45
896.18	225.43
896.48	225.43
896.79	225.42
897.10	225.44
897.40	225.44
897.71	225.46
898.01	225.40
898.32	225.38
898.63	225.41
898.93	225.45
899.24	225.46
899.54	225.47
899.85	225.47
900.15	225.46
900.46	225.49
900.76	225.51
901.07	225.53
901.38	225.56
901.68	225.56
901.99	225.47
902.29	225.48
902.60	225.50
902.90	225.47
903.21	225.49
903.51	225.47
903.82	225.48
904.12	225.47
904.43	225.49
904.73	225.50
905.03	225.48
905.34	225.53
905.64	225.53
905.95	225.54
906.25	225.50
906.56	225.48
906.86	225.47
907.17	225.48
907.47	225.44
907.77	225.42
908.08	225.41
908.38	225.46
908.69	225.47
908.99	225.46
909.30	225.46
909.60	225.45
909.90	225.45
910.21	225.46
910.51	225.44
910.81	225.43
911.12	225.44
911.42	225.46
911.73	225.36
912.03	225.34
912.33	225.36
912.64	225.37
912.94	225.37
913.24	225.38
913.55	225.35
913.85	225.37
914.15	225.39
914.46	225.40
914.76	225.39
915.06	225.37
915.37	225.37
915.67	225.37
915.97	225.40
916.27	225.39
916.58	225.38
916.88	225.40
917.18	225.42
917.49	225.47
917.79	225.47
918.09	225.49
918.39	225.53
918.70	225.52
919.00	225.53
919.30	225.58
919.60	225.55
919.91	225.55
920.21	225.56
920.51	225.52
920.81	225.49
921.12	225.49
921.42	225.49
921.72	225.48
922.02	225.46
922.32	225.47
922.63	225.48
922.93	225.54
923.23	225.52
923.53	225.51
923.83	225.46
924.13	225.46
924.44	225.46
924.74	225.46
925.04	225.47
925.34	225.45
925.64	225.42
925.94	225.43
926.24	225.48
926.55	225.47
926.85	225.49
927.15	225.50
927.45	225.52
927.75	225.51
928.05	225.52
928.35	225.54
928.65	225.54
928.95	225.55
929.26	225.52
929.56	225.54
929.86	225.55
930.16	225.54
930.46	225.52
930.76	225.54
931.06	225.48
931.36	225.45
931.66	225.48
931.96	225.48
932.26	225.47
932.56	225.48
932.86	225.44
933.16	225.41
933.46	225.39
933.76	225.36
934.06	225.37
934.36	225.38
934.66	225.39
934.96	225.37
935.26	225.36
935.56	225.33
935.86	225.33
936.16	225.31
936.46	225.33
936.76	225.32
937.06	225.28
937.36	225.30
937.66	225.33
937.96	225.32
938.26	225.28
938.56	225.25
938.86	225.20
939.16	225.25
939.46	225.26
939.76	225.28
940.06	225.29
940.35	225.28
940.65	225.26
940.95	225.25
941.25	225.24
941.55	225.23
941.85	225.24
942.15	225.22
942.45	225.26
942.75	225.21
943.04	225.26
943.34	225.31
943.64	225.31
943.94	225.26
944.24	225.25
944.54	225.29
944.84	225.33
945.13	225.34
945.43	225.32
945.73	225.33
946.03	225.32
946.33	225.31
946.62	225.30
946.92	225.30
947.22	225.28
947.52	225.28
947.82	225.30
948.11	225.29
948.41	225.26
948.71	225.20
949.01	225.27
949.31	225.24
949.60	225.18
949.90	225.18
950.20	225.18
950.50	225.17
950.79	225.14
951.09	225.17
951.39	225.16
951.69	225.16
951.98	225.14
952.28	225.12
952.58	225.11
952.87	225.10
953.17	225.08
953.47	225.09
953.76	225.07
954.06	225.05
954.36	225.03
954.66	225.06
954.95	225.10
955.25	225.06
955.55	225.06
955.84	225.06
956.14	225.05
956.44	225.06
956.73	225.06
957.03	225.06
957.32	225.04
957.62	225.04
957.92	225.05
958.21	225.03
958.51	225.16
958.81	225.18
959.10	225.23
959.40	225.26
959.69	225.25
959.99	225.29
960.29	225.27
960.58	225.28
960.88	225.32
961.17	225.31
961.47	225.30
961.76	225.31
962.06	225.37
962.36	225.39
962.65	225.39
962.95	225.40
963.24	225.41
963.54	225.39
963.83	225.42
964.13	225.42
964.42	225.41
964.72	225.31
965.01	225.29
965.31	225.27
965.60	225.22
965.90	225.32
966.19	225.30
966.49	225.33
966.78	225.32
967.08	225.29
967.37	225.30
967.67	225.31
967.96	225.33
968.26	225.29
968.55	225.27
968.85	225.27
969.14	225.25
969.43	225.29
969.73	225.29
970.02	225.30
970.32	225.30
970.61	225.33
970.91	225.33
971.20	225.34
971.49	225.35
971.79	225.37
972.08	225.27
972.38	225.30
972.67	225.30
972.96	225.33
973.26	225.30
973.55	225.31
973.85	225.29
974.14	225.30
974.43	225.29
974.73	225.29
975.02	225.31
975.31	225.33
975.61	225.29
975.90	225.30
976.19	225.28
976.49	225.31
976.78	225.31
977.07	225.32
977.37	225.33
977.66	225.34
977.95	225.32
978.24	225.34
978.54	225.35
978.83	225.34
979.12	225.33
979.42	225.31
979.71	225.30
980.00	225.30
980.29	225.31
980.59	225.32
980.88	225.33
981.17	225.30
981.46	225.32
981.76	225.30
982.05	225.31
982.34	225.33
982.63	225.26
982.93	225.24
983.22	225.27
983.51	225.27
983.80	225.31
984.09	225.32
984.39	225.30
984.68	225.26
984.97	225.22
985.26	225.23
985.55	225.28
985.85	225.25
986.14	225.28
986.43	225.29
986.72	225.30
987.01	225.28
987.30	225.29
987.59	225.25
987.89	225.25
988.18	225.24
988.47	225.19
988.76	225.21
989.05	225.21
989.34	225.17
989.63	225.18
989.92	225.14
990.22	225.10
990.51	225.11
990.80	225.13
991.09	225.14
991.38	225.11
991.67	225.10
991.96	225.10
992.25	225.09
992.54	225.07
992.83	225.04
993.12	225.02
993.41	225.04
993.70	225.11
993.99	225.13
994.28	225.13
994.58	225.16
994.87	225.14
995.16	225.13
995.45	225.13
995.74	225.10
996.03	225.12
996.32	225.16
996.61	225.18
996.90	225.15
997.19	225.16
997.48	225.17
997.77	225.15
998.06	225.20
998.34	225.20
998.63	225.17
998.92	225.19
999.21	225.22
999.50	225.21
999.79	225.16
1000.08	225.15
1000.37	225.16
1000.66	225.15
1000.95	225.20
1001.24	225.20
1001.53	225.25
1001.82	225.27
1002.11	225.23
1002.40	225.26
1002.68	225.30
1002.97	225.37
1003.26	225.34
1003.55	225.35
1003.84	225.38
1004.13	225.36
1004.42	225.37
1004.71	225.38
1004.99	225.39
1005.28	225.41
1005.57	225.43
1005.86	225.45
1006.15	225.46
1006.44	225.46
1006.72	225.47
1007.01	225.44
1007.30	225.44
1007.59	225.43
1007.88	225.40
1008.17	225.41
1008.45	225.39
1008.74	225.36
1009.03	225.34
1009.32	225.32
1009.60	225.34
1009.89	225.33
1010.18	225.31
1010.47	225.29
1010.76	225.31
1011.04	225.30
1011.33	225.31
1011.62	225.32
1011.91	225.29
1012.19	225.28
1012.48	225.28
1012.77	225.31
1013.05	225.37
1013.34	225.37
1013.63	225.33
1013.92	225.36
1014.20	225.37
1014.49	225.34
1014.78	225.34
1015.06	225.30
1015.35	225.36
1015.64	225.34
1015.92	225.35
1016.21	225.34
1016.50	225.33
1016.78	225.32
1017.07	225.34
1017.36	225.30
1017.64	225.29
1017.93	225.33
1018.22	225.33
1018.50	225.30
1018.79	225.28
1019.08	225.21
1019.36	225.22
1019.65	225.21
1019.93	225.25
1020.22	225.25
1020.51	225.30
1020.79	225.28
1021.08	224.86
1021.36	224.88
1021.65	225.45
1021.94	225.19
1022.22	225.07
1022.51	224.78
1022.79	226.17
1023.08	225.35
1023.36	226.22
1023.65	224.86
>>>>>End Processed Spectral Data<<<<<
