SpectraSuite Data File
++++++++++++++++++++++++++++++++++++
Date: Fri Feb 01 15:10:36 EST 2013
User: group
Dark Spectrum Present: No
Reference Spectrum Present: No
Number of Sampled Component Spectra: 1
Spectrometers: USB2E7196
Integration Time (usec): 35000 (USB2E7196)
Spectra Averaged: 100 (USB2E7196)
Boxcar Smoothing: 10 (USB2E7196)
Correct for Electrical Dark: No (USB2E7196)
Strobe/Lamp Enabled: No (USB2E7196)
Correct for Detector Non-linearity: No (USB2E7196)
Correct for Stray Light: No (USB2E7196)
Number of Pixels in Processed Spectrum: 2048
>>>>>Begin Processed Spectral Data<<<<<
339.09	0.00
339.48	215.36
339.86	216.81
340.24	217.97
340.63	219.49
341.01	222.69
341.39	222.03
341.78	223.53
342.16	224.61
342.54	225.00
342.93	213.54
343.31	224.31
343.69	224.87
344.07	225.32
344.46	225.73
344.84	226.08
345.22	226.30
345.60	226.56
345.99	226.71
346.37	226.84
346.75	226.93
347.13	226.96
347.52	226.97
347.90	227.04
348.28	227.04
348.66	227.06
349.05	227.02
349.43	227.07
349.81	227.08
350.19	227.10
350.57	227.16
350.96	227.17
351.34	227.25
351.72	227.26
352.10	227.36
352.48	227.43
352.87	227.50
353.25	227.52
353.63	227.54
354.01	227.62
354.39	227.69
354.77	227.76
355.15	227.90
355.54	227.99
355.92	228.02
356.30	228.08
356.68	228.25
357.06	228.33
357.44	228.33
357.82	228.39
358.20	228.45
358.58	228.53
358.97	228.61
359.35	228.69
359.73	228.78
360.11	228.82
360.49	228.90
360.87	228.95
361.25	229.03
361.63	229.13
362.01	229.17
362.39	229.18
362.77	229.24
363.15	229.24
363.53	229.25
363.91	229.28
364.29	229.28
364.67	229.18
365.05	229.18
365.43	229.22
365.81	229.25
366.19	229.31
366.57	229.34
366.95	229.32
367.33	229.30
367.71	229.31
368.09	229.35
368.47	229.30
368.85	229.24
369.23	229.24
369.61	229.16
369.99	229.19
370.37	229.14
370.75	229.17
371.13	229.14
371.51	229.10
371.89	229.06
372.27	229.03
372.65	228.99
373.03	228.94
373.41	228.87
373.78	228.82
374.16	228.70
374.54	228.59
374.92	228.54
375.30	228.47
375.68	228.36
376.06	228.26
376.44	228.19
376.82	228.18
377.19	228.10
377.57	228.04
377.95	227.92
378.33	227.90
378.71	227.74
379.09	227.67
379.47	227.62
379.84	227.54
380.22	227.51
380.60	227.39
380.98	227.33
381.36	227.30
381.73	227.21
382.11	227.15
382.49	227.08
382.87	226.99
383.25	226.91
383.62	226.98
384.00	226.90
384.38	226.83
384.76	226.73
385.13	226.71
385.51	226.65
385.89	226.57
386.27	226.52
386.64	226.50
387.02	226.45
387.40	226.42
387.78	226.36
388.15	226.35
388.53	226.34
388.91	226.32
389.29	226.26
389.66	226.25
390.04	226.24
390.42	226.26
390.79	226.28
391.17	226.28
391.55	226.15
391.92	226.14
392.30	226.15
392.68	226.18
393.05	226.17
393.43	226.18
393.81	226.23
394.18	226.22
394.56	226.24
394.94	226.31
395.31	226.32
395.69	226.37
396.06	226.38
396.44	226.41
396.82	226.44
397.19	226.55
397.57	226.59
397.95	226.65
398.32	226.71
398.70	226.75
399.07	226.85
399.45	226.91
399.82	227.02
400.20	227.12
400.58	227.20
400.95	227.23
401.33	227.32
401.70	227.48
402.08	227.57
402.45	227.65
402.83	227.75
403.20	227.88
403.58	228.00
403.95	228.13
404.33	228.30
404.71	228.43
405.08	228.63
405.46	228.77
405.83	228.93
406.21	229.07
406.58	229.26
406.96	229.41
407.33	229.63
407.70	229.83
408.08	230.09
408.45	230.33
408.83	230.61
409.20	230.86
409.58	231.01
409.95	231.33
410.33	231.64
410.70	231.88
411.08	232.20
411.45	232.51
411.82	232.83
412.20	233.20
412.57	233.58
412.95	233.91
413.32	234.30
413.69	234.74
414.07	235.19
414.44	235.67
414.82	236.14
415.19	236.68
415.56	237.23
415.94	237.79
416.31	238.42
416.68	239.02
417.06	239.75
417.43	240.43
417.81	241.15
418.18	241.92
418.55	242.76
418.93	243.63
419.30	244.53
419.67	245.47
420.04	246.40
420.42	247.44
420.79	248.59
421.16	249.75
421.54	250.89
421.91	252.09
422.28	253.34
422.66	254.69
423.03	256.01
423.40	257.30
423.77	258.71
424.15	260.10
424.52	261.60
424.89	263.20
425.26	264.78
425.64	266.27
426.01	267.88
426.38	269.53
426.75	271.22
427.13	272.94
427.50	274.71
427.87	276.61
428.24	278.49
428.61	280.25
428.99	282.18
429.36	284.30
429.73	286.38
430.10	288.39
430.47	290.41
430.85	292.51
431.22	294.80
431.59	297.19
431.96	299.47
432.33	301.99
432.70	304.34
433.08	307.15
433.45	309.79
433.82	312.40
434.19	315.28
434.56	318.10
434.93	320.79
435.30	323.43
435.68	326.37
436.05	329.21
436.42	331.98
436.79	334.52
437.16	337.27
437.53	340.10
437.90	342.94
438.27	345.72
438.64	348.55
439.01	351.12
439.38	353.37
439.75	355.53
440.13	358.02
440.50	360.40
440.87	362.26
441.24	364.21
441.61	366.34
441.98	367.80
442.35	369.63
442.72	371.46
443.09	373.26
443.46	374.23
443.83	374.79
444.20	375.30
444.57	376.11
444.94	376.35
445.31	376.68
445.68	377.01
446.05	377.08
446.42	376.71
446.79	376.33
447.16	375.86
447.53	375.57
447.90	374.41
448.27	373.18
448.64	371.61
449.01	370.45
449.37	368.45
449.74	366.62
450.11	364.30
450.48	361.83
450.85	359.32
451.22	357.16
451.59	355.13
451.96	353.19
452.33	350.61
452.70	348.27
453.07	345.44
453.43	342.56
453.80	339.79
454.17	337.08
454.54	334.48
454.91	331.73
455.28	329.04
455.65	326.52
456.02	324.10
456.38	321.90
456.75	319.26
457.12	317.09
457.49	314.87
457.86	312.71
458.23	310.85
458.59	308.80
458.96	306.72
459.33	304.87
459.70	303.05
460.07	301.55
460.43	299.81
460.80	298.20
461.17	296.75
461.54	295.24
461.91	293.82
462.27	292.39
462.64	291.17
463.01	289.81
463.38	288.53
463.74	287.15
464.11	285.98
464.48	284.94
464.85	283.78
465.21	282.86
465.58	281.91
465.95	280.80
466.32	279.88
466.68	278.96
467.05	278.05
467.42	277.13
467.78	276.20
468.15	275.34
468.52	274.64
468.88	273.78
469.25	273.03
469.62	272.38
469.98	271.73
470.35	271.07
470.72	270.45
471.08	269.79
471.45	269.24
471.82	268.69
472.18	268.09
472.55	267.65
472.92	267.11
473.28	266.63
473.65	266.15
474.02	265.68
474.38	265.29
474.75	264.94
475.11	264.55
475.48	264.29
475.85	264.02
476.21	263.75
476.58	263.54
476.94	263.34
477.31	263.19
477.67	262.97
478.04	262.84
478.41	262.78
478.77	262.79
479.14	262.75
479.50	262.74
479.87	262.81
480.23	262.88
480.60	262.94
480.96	263.03
481.33	263.21
481.69	263.41
482.06	263.59
482.42	263.78
482.79	264.02
483.15	264.31
483.52	264.69
483.88	265.09
484.25	265.47
484.61	265.91
484.98	266.36
485.34	266.97
485.71	267.56
486.07	268.17
486.44	268.72
486.80	269.43
487.17	270.14
487.53	270.92
487.90	271.78
488.26	272.73
488.62	273.71
488.99	274.72
489.35	275.78
489.72	276.90
490.08	278.13
490.44	279.38
490.81	280.72
491.17	282.10
491.54	283.56
491.90	285.11
492.26	286.75
492.63	288.46
492.99	290.24
493.36	292.11
493.72	294.16
494.08	296.27
494.45	298.52
494.81	300.91
495.17	303.34
495.54	305.88
495.90	308.56
496.26	311.38
496.63	314.35
496.99	317.44
497.35	320.68
497.72	324.05
498.08	327.59
498.44	331.23
498.80	335.10
499.17	339.12
499.53	343.29
499.89	347.66
500.26	352.17
500.62	356.82
500.98	361.77
501.34	366.82
501.71	372.09
502.07	377.46
502.43	383.08
502.79	388.90
503.16	395.02
503.52	401.23
503.88	407.60
504.24	414.26
504.60	421.19
504.97	428.29
505.33	435.63
505.69	443.33
506.05	451.07
506.41	458.99
506.78	467.15
507.14	475.57
507.50	484.29
507.86	493.29
508.22	502.47
508.59	511.69
508.95	521.24
509.31	531.09
509.67	541.21
510.03	551.43
510.39	561.95
510.75	572.74
511.12	583.74
511.48	595.07
511.84	606.46
512.20	617.98
512.56	630.01
512.92	642.23
513.28	654.48
513.64	667.05
514.00	679.69
514.37	692.61
514.73	705.66
515.09	718.63
515.45	731.92
515.81	745.56
516.17	759.54
516.53	773.75
516.89	787.86
517.25	802.02
517.61	816.50
517.97	831.00
518.33	845.34
518.69	860.11
519.05	875.13
519.41	890.39
519.77	905.98
520.13	921.45
520.49	936.86
520.85	952.40
521.21	968.08
521.57	984.34
521.93	1000.13
522.29	1016.59
522.65	1032.98
523.01	1049.26
523.37	1065.30
523.73	1081.50
524.09	1097.61
524.45	1114.14
524.81	1130.85
525.17	1147.75
525.53	1164.72
525.89	1181.71
526.25	1198.66
526.61	1215.04
526.97	1231.74
527.33	1248.17
527.68	1264.80
528.04	1281.33
528.40	1297.91
528.76	1315.13
529.12	1331.81
529.48	1348.83
529.84	1364.87
530.20	1381.67
530.56	1398.72
530.91	1416.12
531.27	1432.99
531.63	1449.51
531.99	1466.02
532.35	1482.01
532.71	1497.88
533.07	1514.26
533.42	1530.25
533.78	1546.38
534.14	1562.68
534.50	1578.06
534.86	1594.05
535.21	1609.22
535.57	1625.20
535.93	1640.75
536.29	1655.46
536.65	1670.72
537.00	1685.68
537.36	1701.08
537.72	1715.61
538.08	1730.14
538.44	1744.13
538.79	1758.14
539.15	1772.00
539.51	1785.89
539.87	1800.31
540.22	1814.24
540.58	1828.07
540.94	1841.57
541.29	1854.45
541.65	1867.32
542.01	1880.72
542.37	1893.06
542.72	1905.63
543.08	1917.46
543.44	1929.94
543.79	1941.34
544.15	1952.29
544.51	1963.78
544.87	1974.83
545.22	1985.67
545.58	1995.93
545.94	2005.77
546.29	2015.72
546.65	2025.55
547.01	2034.81
547.36	2043.77
547.72	2052.35
548.07	2060.18
548.43	2068.28
548.79	2076.39
549.14	2083.89
549.50	2091.31
549.86	2099.14
550.21	2106.46
550.57	2113.72
550.92	2120.45
551.28	2127.53
551.64	2134.68
551.99	2141.24
552.35	2147.38
552.70	2153.47
553.06	2159.37
553.41	2165.74
553.77	2171.65
554.13	2177.78
554.48	2183.85
554.84	2189.05
555.19	2194.48
555.55	2199.64
555.90	2204.08
556.26	2208.88
556.61	2213.66
556.97	2217.73
557.32	2221.76
557.68	2225.89
558.03	2230.16
558.39	2233.86
558.74	2238.36
559.10	2242.22
559.45	2245.81
559.81	2250.11
560.16	2253.82
560.52	2257.15
560.87	2260.55
561.23	2263.11
561.58	2266.00
561.94	2268.59
562.29	2271.21
562.64	2273.57
563.00	2276.21
563.35	2279.77
563.71	2282.91
564.06	2286.06
564.42	2289.02
564.77	2291.46
565.12	2293.58
565.48	2295.35
565.83	2297.05
566.19	2298.25
566.54	2299.08
566.89	2300.18
567.25	2300.62
567.60	2301.98
567.96	2303.38
568.31	2303.98
568.66	2305.00
569.02	2305.50
569.37	2305.78
569.72	2306.41
570.08	2306.55
570.43	2306.41
570.78	2305.57
571.14	2303.95
571.49	2302.56
571.84	2302.07
572.20	2300.73
572.55	2299.67
572.90	2298.06
573.26	2296.58
573.61	2295.00
573.96	2293.08
574.31	2289.93
574.67	2286.91
575.02	2283.18
575.37	2279.80
575.72	2276.00
576.08	2272.71
576.43	2269.19
576.78	2265.30
577.13	2262.08
577.49	2258.86
577.84	2255.36
578.19	2251.58
578.54	2247.71
578.90	2243.27
579.25	2237.58
579.60	2232.67
579.95	2227.58
580.30	2222.53
580.66	2217.26
581.01	2212.11
581.36	2207.03
581.71	2202.83
582.06	2198.28
582.42	2193.70
582.77	2188.27
583.12	2183.54
583.47	2178.62
583.82	2173.46
584.17	2168.12
584.53	2162.47
584.88	2156.65
585.23	2150.55
585.58	2144.95
585.93	2139.53
586.28	2134.69
586.63	2129.55
586.98	2124.26
587.34	2119.59
587.69	2114.56
588.04	2109.15
588.39	2103.31
588.74	2096.91
589.09	2090.62
589.44	2083.62
589.79	2077.66
590.14	2072.03
590.49	2065.40
590.84	2058.85
591.19	2052.81
591.54	2046.21
591.89	2038.57
592.25	2031.64
592.60	2024.46
592.95	2016.86
593.30	2009.34
593.65	2001.81
594.00	1994.66
594.35	1987.45
594.70	1979.30
595.05	1971.94
595.40	1964.68
595.75	1957.10
596.10	1950.60
596.45	1943.75
596.80	1937.57
597.15	1930.69
597.50	1923.48
597.85	1916.96
598.19	1910.31
598.54	1903.05
598.89	1896.41
599.24	1890.54
599.59	1883.68
599.94	1877.45
600.29	1871.05
600.64	1864.58
600.99	1856.92
601.34	1850.01
601.69	1843.01
602.04	1835.90
602.39	1828.52
602.74	1821.51
603.08	1814.79
603.43	1808.10
603.78	1800.82
604.13	1793.61
604.48	1786.30
604.83	1779.50
605.18	1772.38
605.53	1764.17
605.87	1756.31
606.22	1749.09
606.57	1741.16
606.92	1734.17
607.27	1726.89
607.62	1719.96
607.96	1712.46
608.31	1705.82
608.66	1698.25
609.01	1690.60
609.36	1683.11
609.70	1675.10
610.05	1667.08
610.40	1659.41
610.75	1651.14
611.10	1643.36
611.44	1634.96
611.79	1626.98
612.14	1618.21
612.49	1609.31
612.83	1601.10
613.18	1592.97
613.53	1584.92
613.88	1576.47
614.22	1567.90
614.57	1559.24
614.92	1551.18
615.27	1543.59
615.61	1535.30
615.96	1527.36
616.31	1519.73
616.65	1512.40
617.00	1504.95
617.35	1497.28
617.70	1488.88
618.04	1480.35
618.39	1472.27
618.74	1464.67
619.08	1456.33
619.43	1448.88
619.78	1441.89
620.12	1434.70
620.47	1427.13
620.82	1418.97
621.16	1411.66
621.51	1404.22
621.85	1396.70
622.20	1388.27
622.55	1380.01
622.89	1372.17
623.24	1364.58
623.59	1357.34
623.93	1349.77
624.28	1342.51
624.62	1335.03
624.97	1327.89
625.32	1321.24
625.66	1314.20
626.01	1307.11
626.35	1299.72
626.70	1292.05
627.04	1284.27
627.39	1276.52
627.73	1269.15
628.08	1262.11
628.43	1254.69
628.77	1247.24
629.12	1239.65
629.46	1232.50
629.81	1225.14
630.15	1218.01
630.50	1210.59
630.84	1202.31
631.19	1194.40
631.53	1186.84
631.88	1179.27
632.22	1171.69
632.57	1164.31
632.91	1156.86
633.26	1149.34
633.60	1141.92
633.95	1134.83
634.29	1127.83
634.64	1121.24
634.98	1113.90
635.32	1106.87
635.67	1100.32
636.01	1093.82
636.36	1087.16
636.70	1080.66
637.05	1074.07
637.39	1067.55
637.73	1061.02
638.08	1055.21
638.42	1049.31
638.77	1042.84
639.11	1036.27
639.45	1029.81
639.80	1023.21
640.14	1016.75
640.49	1010.27
640.83	1004.11
641.17	997.83
641.52	991.54
641.86	985.22
642.20	979.40
642.55	973.12
642.89	966.61
643.23	960.10
643.58	954.32
643.92	948.14
644.26	942.09
644.61	936.07
644.95	930.07
645.29	923.39
645.64	916.64
645.98	910.41
646.32	904.68
646.66	898.82
647.01	893.02
647.35	887.34
647.69	881.50
648.04	876.00
648.38	870.14
648.72	864.05
649.06	857.91
649.41	852.02
649.75	846.05
650.09	840.10
650.43	834.32
650.78	828.08
651.12	822.08
651.46	816.37
651.80	810.68
652.14	805.31
652.49	799.97
652.83	794.78
653.17	789.07
653.51	783.31
653.85	777.94
654.20	772.26
654.54	766.29
654.88	760.59
655.22	754.65
655.56	749.04
655.90	743.68
656.25	738.43
656.59	733.09
656.93	728.05
657.27	722.93
657.61	717.48
657.95	712.44
658.29	707.41
658.64	702.19
658.98	696.95
659.32	691.46
659.66	686.38
660.00	681.09
660.34	676.17
660.68	671.26
661.02	666.14
661.36	661.43
661.70	656.88
662.05	652.56
662.39	648.33
662.73	643.88
663.07	639.53
663.41	635.11
663.75	630.59
664.09	626.06
664.43	621.75
664.77	617.66
665.11	613.42
665.45	609.28
665.79	605.22
666.13	601.05
666.47	596.99
666.81	592.79
667.15	588.67
667.49	584.85
667.83	581.07
668.17	577.18
668.51	573.13
668.85	569.17
669.19	565.28
669.53	561.39
669.87	557.53
670.21	553.83
670.55	550.20
670.89	546.82
671.23	543.35
671.57	539.87
671.91	536.30
672.25	532.88
672.58	529.41
672.92	526.11
673.26	523.01
673.60	519.87
673.94	516.76
674.28	513.90
674.62	510.92
674.96	507.81
675.30	504.95
675.64	502.10
675.97	499.31
676.31	496.47
676.65	493.61
676.99	490.97
677.33	488.12
677.67	485.31
678.01	482.27
678.34	479.27
678.68	476.33
679.02	473.55
679.36	470.85
679.70	468.13
680.04	465.34
680.37	462.37
680.71	459.63
681.05	457.07
681.39	454.35
681.73	451.71
682.06	449.25
682.40	446.67
682.74	444.11
683.08	441.61
683.42	439.09
683.75	436.64
684.09	434.12
684.43	431.70
684.77	429.26
685.10	427.04
685.44	424.81
685.78	422.61
686.12	420.40
686.45	418.13
686.79	415.87
687.13	413.71
687.46	411.60
687.80	409.48
688.14	407.27
688.48	405.27
688.81	403.05
689.15	400.91
689.49	398.84
689.82	396.83
690.16	394.74
690.50	392.78
690.83	390.83
691.17	388.81
691.51	386.93
691.84	385.09
692.18	383.10
692.52	381.12
692.85	379.21
693.19	377.35
693.52	375.45
693.86	373.68
694.20	371.88
694.53	370.09
694.87	368.22
695.21	366.44
695.54	364.58
695.88	362.86
696.21	361.11
696.55	359.36
696.88	357.65
697.22	356.01
697.56	354.37
697.89	352.65
698.23	351.05
698.56	349.40
698.90	347.78
699.23	346.10
699.57	344.53
699.90	342.92
700.24	341.34
700.58	339.78
700.91	338.23
701.25	336.76
701.58	335.40
701.92	333.97
702.25	332.60
702.59	331.26
702.92	329.95
703.26	328.65
703.59	327.40
703.93	326.21
704.26	324.98
704.60	323.69
704.93	322.43
705.26	321.16
705.60	320.01
705.93	318.90
706.27	317.90
706.60	316.85
706.94	315.80
707.27	314.66
707.61	313.63
707.94	312.61
708.27	311.55
708.61	310.46
708.94	309.49
709.28	308.50
709.61	307.55
709.94	306.65
710.28	305.64
710.61	304.67
710.95	303.56
711.28	302.62
711.61	301.66
711.95	300.76
712.28	299.81
712.61	298.83
712.95	297.86
713.28	296.99
713.61	296.05
713.95	295.20
714.28	294.38
714.61	293.53
714.95	292.71
715.28	291.86
715.61	291.00
715.95	290.16
716.28	289.29
716.61	288.47
716.95	287.64
717.28	286.97
717.61	286.21
717.94	285.47
718.28	284.70
718.61	283.99
718.94	283.34
719.27	282.74
719.61	282.09
719.94	281.43
720.27	280.72
720.60	280.06
720.94	279.43
721.27	278.85
721.60	278.26
721.93	277.63
722.27	277.11
722.60	276.61
722.93	276.06
723.26	275.57
723.59	275.02
723.93	274.44
724.26	273.86
724.59	273.35
724.92	272.87
725.25	272.38
725.59	271.87
725.92	271.36
726.25	270.84
726.58	270.35
726.91	269.89
727.24	269.43
727.57	268.99
727.91	268.47
728.24	267.99
728.57	267.53
728.90	267.11
729.23	266.59
729.56	266.17
729.89	265.69
730.22	265.19
730.55	264.70
730.89	264.26
731.22	263.79
731.55	263.34
731.88	262.92
732.21	262.50
732.54	262.06
732.87	261.65
733.20	261.26
733.53	260.87
733.86	260.51
734.19	260.10
734.52	259.71
734.85	259.41
735.18	258.99
735.51	258.62
735.84	258.23
736.17	257.86
736.50	257.41
736.83	257.18
737.16	256.87
737.49	256.55
737.82	256.19
738.15	255.91
738.48	255.55
738.81	255.20
739.14	254.86
739.47	254.57
739.80	254.24
740.13	253.92
740.46	253.57
740.79	253.18
741.12	252.89
741.45	252.58
741.78	252.22
742.11	251.91
742.44	251.59
742.77	251.31
743.10	251.01
743.43	250.72
743.75	250.32
744.08	250.13
744.41	249.82
744.74	249.52
745.07	249.17
745.40	248.93
745.73	248.71
746.06	248.42
746.39	248.12
746.71	247.87
747.04	247.60
747.37	247.36
747.70	247.12
748.03	246.85
748.36	246.61
748.68	246.36
749.01	246.12
749.34	245.90
749.67	245.65
750.00	245.43
750.33	245.26
750.65	245.05
750.98	244.72
751.31	244.53
751.64	244.33
751.97	244.21
752.29	244.01
752.62	243.75
752.95	243.56
753.28	243.35
753.60	243.12
753.93	242.96
754.26	242.76
754.59	242.58
754.91	242.38
755.24	242.20
755.57	242.03
755.90	241.87
756.22	241.70
756.55	241.49
756.88	241.32
757.20	241.10
757.53	240.89
757.86	240.72
758.19	240.58
758.51	240.44
758.84	240.21
759.17	240.00
759.49	239.85
759.82	239.78
760.15	239.63
760.47	239.52
760.80	239.34
761.13	239.23
761.45	239.09
761.78	238.94
762.11	238.80
762.43	238.67
762.76	238.54
763.08	238.41
763.41	238.32
763.74	238.22
764.06	238.10
764.39	237.99
764.71	237.85
765.04	237.75
765.37	237.65
765.69	237.56
766.02	237.46
766.34	237.35
766.67	237.18
767.00	237.09
767.32	237.03
767.65	236.98
767.97	236.85
768.30	236.75
768.62	236.66
768.95	236.56
769.27	236.44
769.60	236.35
769.92	236.25
770.25	236.14
770.57	236.01
770.90	235.91
771.22	235.78
771.55	235.74
771.87	235.62
772.20	235.49
772.52	235.48
772.85	235.49
773.17	235.41
773.50	235.29
773.82	235.18
774.15	235.05
774.47	234.90
774.80	234.84
775.12	234.73
775.45	234.65
775.77	234.56
776.09	234.48
776.42	234.40
776.74	234.33
777.07	234.23
777.39	234.13
777.72	234.05
778.04	234.03
778.36	233.92
778.69	233.83
779.01	233.79
779.33	233.59
779.66	233.42
779.98	233.33
780.31	233.27
780.63	233.25
780.95	233.17
781.28	233.09
781.60	232.97
781.92	232.91
782.25	232.84
782.57	232.76
782.89	232.68
783.22	232.60
783.54	232.52
783.86	232.47
784.19	232.40
784.51	232.33
784.83	232.23
785.16	232.16
785.48	232.08
785.80	232.00
786.12	231.94
786.45	231.85
786.77	231.79
787.09	231.75
787.42	231.65
787.74	231.60
788.06	231.57
788.38	231.55
788.71	231.47
789.03	231.40
789.35	231.36
789.67	231.30
789.99	231.24
790.32	231.17
790.64	231.09
790.96	231.11
791.28	231.08
791.61	231.04
791.93	231.01
792.25	230.98
792.57	231.00
792.89	230.97
793.21	230.99
793.54	230.93
793.86	230.85
794.18	230.83
794.50	230.75
794.82	230.73
795.14	230.69
795.47	230.68
795.79	230.66
796.11	230.58
796.43	230.59
796.75	230.57
797.07	230.57
797.39	230.59
797.71	230.51
798.04	230.46
798.36	230.44
798.68	230.41
799.00	230.40
799.32	230.34
799.64	230.31
799.96	230.25
800.28	230.23
800.60	230.23
800.92	230.21
801.24	230.23
801.56	230.20
801.89	230.20
802.21	230.20
802.53	230.18
802.85	230.19
803.17	230.19
803.49	230.17
803.81	230.12
804.13	230.07
804.45	230.06
804.77	230.11
805.09	230.06
805.41	230.05
805.73	230.00
806.05	229.96
806.37	229.94
806.69	229.92
807.01	229.89
807.33	229.88
807.65	229.84
807.97	229.86
808.28	229.84
808.60	229.78
808.92	229.72
809.24	229.75
809.56	229.73
809.88	229.69
810.20	229.69
810.52	229.68
810.84	229.66
811.16	229.61
811.48	229.56
811.80	229.56
812.12	229.52
812.43	229.53
812.75	229.51
813.07	229.48
813.39	229.43
813.71	229.42
814.03	229.36
814.35	229.31
814.67	229.21
814.98	229.18
815.30	229.13
815.62	229.11
815.94	229.02
816.26	229.01
816.58	228.96
816.89	228.92
817.21	228.90
817.53	228.86
817.85	228.86
818.17	228.83
818.48	228.81
818.80	228.84
819.12	228.79
819.44	228.72
819.76	228.68
820.07	228.71
820.39	228.70
820.71	228.70
821.03	228.67
821.34	228.63
821.66	228.59
821.98	228.60
822.30	228.58
822.61	228.63
822.93	228.57
823.25	228.54
823.57	228.51
823.88	228.52
824.20	228.51
824.52	228.48
824.83	228.48
825.15	228.43
825.47	228.38
825.79	228.36
826.10	228.39
826.42	228.39
826.74	228.35
827.05	228.33
827.37	228.30
827.69	228.30
828.00	228.28
828.32	228.27
828.64	228.24
828.95	228.29
829.27	228.22
829.58	228.18
829.90	228.16
830.22	228.14
830.53	228.04
830.85	228.01
831.17	227.97
831.48	227.91
831.80	227.93
832.11	227.92
832.43	227.88
832.75	227.84
833.06	227.86
833.38	227.82
833.69	227.82
834.01	227.82
834.32	227.84
834.64	227.86
834.96	227.85
835.27	227.87
835.59	227.83
835.90	227.80
836.22	227.82
836.53	227.84
836.85	227.81
837.16	227.91
837.48	227.92
837.79	227.96
838.11	228.01
838.42	228.01
838.74	228.01
839.05	228.05
839.37	228.07
839.68	228.03
840.00	228.04
840.31	228.05
840.63	228.05
840.94	228.02
841.26	228.01
841.57	228.02
841.88	228.05
842.20	228.06
842.51	228.08
842.83	228.08
843.14	228.17
843.46	228.17
843.77	228.15
844.08	228.13
844.40	228.13
844.71	228.13
845.03	228.09
845.34	228.13
845.65	228.08
845.97	228.10
846.28	228.12
846.60	228.16
846.91	228.12
847.22	228.16
847.54	228.20
847.85	228.21
848.16	228.21
848.48	228.18
848.79	228.20
849.10	228.21
849.42	228.23
849.73	228.16
850.04	228.17
850.36	228.16
850.67	228.19
850.98	228.17
851.30	228.15
851.61	228.15
851.92	228.13
852.23	228.19
852.55	228.19
852.86	228.17
853.17	228.18
853.49	228.22
853.80	228.18
854.11	228.18
854.42	228.18
854.74	228.16
855.05	228.16
855.36	228.11
855.67	228.12
855.99	228.10
856.30	228.19
856.61	228.16
856.92	228.14
857.23	228.13
857.55	228.12
857.86	228.11
858.17	228.13
858.48	228.10
858.79	228.05
859.11	228.04
859.42	228.05
859.73	228.00
860.04	227.97
860.35	227.95
860.66	227.89
860.98	227.86
861.29	227.83
861.60	227.83
861.91	227.85
862.22	227.79
862.53	227.78
862.84	227.66
863.16	227.69
863.47	227.68
863.78	227.66
864.09	227.65
864.40	227.62
864.71	227.60
865.02	227.57
865.33	227.57
865.64	227.55
865.95	227.51
866.27	227.56
866.58	227.53
866.89	227.54
867.20	227.52
867.51	227.50
867.82	227.50
868.13	227.49
868.44	227.46
868.75	227.51
869.06	227.47
869.37	227.45
869.68	227.46
869.99	227.44
870.30	227.47
870.61	227.46
870.92	227.47
871.23	227.45
871.54	227.50
871.85	227.47
872.16	227.47
872.47	227.44
872.78	227.38
873.09	227.37
873.40	227.35
873.71	227.36
874.02	227.35
874.33	227.34
874.64	227.32
874.95	227.30
875.26	227.28
875.56	227.30
875.87	227.31
876.18	227.27
876.49	227.35
876.80	227.33
877.11	227.30
877.42	227.28
877.73	227.30
878.04	227.28
878.35	227.32
878.66	227.35
878.96	227.40
879.27	227.39
879.58	227.45
879.89	227.45
880.20	227.53
880.51	227.55
880.82	227.59
881.12	227.58
881.43	227.57
881.74	227.56
882.05	227.56
882.36	227.59
882.67	227.63
882.97	227.57
883.28	227.58
883.59	227.61
883.90	227.67
884.21	227.69
884.51	227.67
884.82	227.65
885.13	227.65
885.44	227.64
885.74	227.66
886.05	227.64
886.36	227.63
886.67	227.57
886.98	227.59
887.28	227.56
887.59	227.59
887.90	227.62
888.20	227.64
888.51	227.64
888.82	227.62
889.13	227.60
889.43	227.66
889.74	227.62
890.05	227.63
890.35	227.61
890.66	227.59
890.97	227.61
891.28	227.61
891.58	227.59
891.89	227.58
892.20	227.55
892.50	227.52
892.81	227.52
893.12	227.53
893.42	227.51
893.73	227.53
894.04	227.53
894.34	227.50
894.65	227.47
894.95	227.45
895.26	227.45
895.57	227.47
895.87	227.37
896.18	227.40
896.48	227.40
896.79	227.40
897.10	227.41
897.40	227.39
897.71	227.38
898.01	227.40
898.32	227.40
898.63	227.43
898.93	227.43
899.24	227.45
899.54	227.44
899.85	227.44
900.15	227.45
900.46	227.43
900.76	227.45
901.07	227.45
901.38	227.49
901.68	227.46
901.99	227.43
902.29	227.45
902.60	227.42
902.90	227.40
903.21	227.39
903.51	227.37
903.82	227.38
904.12	227.39
904.43	227.39
904.73	227.40
905.03	227.37
905.34	227.44
905.64	227.42
905.95	227.42
906.25	227.41
906.56	227.39
906.86	227.39
907.17	227.37
907.47	227.36
907.77	227.32
908.08	227.31
908.38	227.26
908.69	227.26
908.99	227.28
909.30	227.29
909.60	227.27
909.90	227.27
910.21	227.24
910.51	227.20
910.81	227.18
911.12	227.17
911.42	227.15
911.73	227.06
912.03	227.06
912.33	227.07
912.64	227.05
912.94	227.02
913.24	227.01
913.55	227.01
913.85	227.03
914.15	227.06
914.46	227.07
914.76	227.10
915.06	227.09
915.37	227.06
915.67	227.02
915.97	227.06
916.27	227.05
916.58	227.06
916.88	227.08
917.18	227.06
917.49	227.14
917.79	227.17
918.09	227.21
918.39	227.22
918.70	227.22
919.00	227.25
919.30	227.30
919.60	227.32
919.91	227.35
920.21	227.34
920.51	227.33
920.81	227.31
921.12	227.34
921.42	227.35
921.72	227.38
922.02	227.38
922.32	227.40
922.63	227.42
922.93	227.47
923.23	227.49
923.53	227.50
923.83	227.43
924.13	227.45
924.44	227.42
924.74	227.45
925.04	227.49
925.34	227.48
925.64	227.46
925.94	227.47
926.24	227.51
926.55	227.48
926.85	227.47
927.15	227.51
927.45	227.50
927.75	227.49
928.05	227.49
928.35	227.49
928.65	227.50
928.95	227.51
929.26	227.47
929.56	227.47
929.86	227.48
930.16	227.46
930.46	227.45
930.76	227.45
931.06	227.38
931.36	227.35
931.66	227.38
931.96	227.38
932.26	227.37
932.56	227.34
932.86	227.35
933.16	227.37
933.46	227.34
933.76	227.31
934.06	227.35
934.36	227.34
934.66	227.34
934.96	227.30
935.26	227.29
935.56	227.26
935.86	227.22
936.16	227.18
936.46	227.17
936.76	227.15
937.06	227.15
937.36	227.19
937.66	227.20
937.96	227.18
938.26	227.17
938.56	227.15
938.86	227.15
939.16	227.18
939.46	227.15
939.76	227.15
940.06	227.17
940.35	227.14
940.65	227.09
940.95	227.08
941.25	227.03
941.55	227.00
941.85	227.00
942.15	227.05
942.45	227.09
942.75	227.12
943.04	227.10
943.34	227.10
943.64	227.05
943.94	227.02
944.24	227.03
944.54	227.02
944.84	227.01
945.13	226.98
945.43	226.97
945.73	226.98
946.03	226.99
946.33	227.00
946.62	226.97
946.92	226.97
947.22	226.99
947.52	227.02
947.82	227.03
948.11	227.03
948.41	226.98
948.71	226.93
949.01	226.93
949.31	226.92
949.60	226.92
949.90	226.93
950.20	226.91
950.50	226.87
950.79	226.87
951.09	226.88
951.39	226.86
951.69	226.86
951.98	226.89
952.28	226.86
952.58	226.80
952.87	226.79
953.17	226.82
953.47	226.82
953.76	226.82
954.06	226.82
954.36	226.79
954.66	226.80
954.95	226.85
955.25	226.82
955.55	226.84
955.84	226.84
956.14	226.86
956.44	226.88
956.73	226.90
957.03	226.90
957.32	226.93
957.62	226.96
957.92	226.96
958.21	226.97
958.51	227.07
958.81	227.14
959.10	227.16
959.40	227.19
959.69	227.21
959.99	227.21
960.29	227.18
960.58	227.21
960.88	227.26
961.17	227.22
961.47	227.26
961.76	227.27
962.06	227.29
962.36	227.27
962.65	227.27
962.95	227.27
963.24	227.27
963.54	227.26
963.83	227.23
964.13	227.24
964.42	227.20
964.72	227.14
965.01	227.12
965.31	227.15
965.60	227.11
965.90	227.14
966.19	227.13
966.49	227.18
966.78	227.17
967.08	227.15
967.37	227.14
967.67	227.12
967.96	227.12
968.26	227.10
968.55	227.13
968.85	227.13
969.14	227.12
969.43	227.08
969.73	227.07
970.02	227.08
970.32	227.07
970.61	227.06
970.91	227.01
971.20	227.03
971.49	226.99
971.79	227.01
972.08	226.93
972.38	226.96
972.67	226.94
972.96	226.98
973.26	226.95
973.55	226.98
973.85	226.96
974.14	226.99
974.43	227.01
974.73	226.99
975.02	226.95
975.31	226.93
975.61	226.94
975.90	226.94
976.19	226.91
976.49	226.90
976.78	226.89
977.07	226.91
977.37	226.88
977.66	226.88
977.95	226.85
978.24	226.88
978.54	226.87
978.83	226.85
979.12	226.83
979.42	226.85
979.71	226.84
980.00	226.86
980.29	226.80
980.59	226.75
980.88	226.77
981.17	226.78
981.46	226.76
981.76	226.81
982.05	226.83
982.34	226.84
982.63	226.83
982.93	226.85
983.22	226.88
983.51	226.90
983.80	226.91
984.09	226.93
984.39	226.91
984.68	226.90
984.97	226.90
985.26	226.86
985.55	226.88
985.85	226.89
986.14	226.91
986.43	226.97
986.72	226.97
987.01	226.93
987.30	226.93
987.59	226.95
987.89	226.91
988.18	226.85
988.47	226.86
988.76	226.87
989.05	226.82
989.34	226.80
989.63	226.81
989.92	226.79
990.22	226.78
990.51	226.79
990.80	226.79
991.09	226.75
991.38	226.76
991.67	226.73
991.96	226.69
992.25	226.72
992.54	226.67
992.83	226.69
993.12	226.70
993.41	226.73
993.70	226.78
993.99	226.81
994.28	226.87
994.58	226.88
994.87	226.86
995.16	226.92
995.45	226.88
995.74	226.86
996.03	226.85
996.32	226.91
996.61	226.93
996.90	226.92
997.19	226.94
997.48	226.95
997.77	226.93
998.06	226.94
998.34	226.90
998.63	226.91
998.92	226.88
999.21	226.87
999.50	226.90
999.79	226.88
1000.08	226.85
1000.37	226.84
1000.66	226.81
1000.95	226.87
1001.24	226.87
1001.53	226.90
1001.82	226.89
1002.11	226.88
1002.40	226.85
1002.68	226.87
1002.97	226.97
1003.26	227.00
1003.55	227.00
1003.84	227.06
1004.13	227.09
1004.42	227.08
1004.71	227.08
1004.99	227.09
1005.28	227.13
1005.57	227.09
1005.86	227.07
1006.15	227.07
1006.44	227.04
1006.72	227.02
1007.01	226.96
1007.30	226.94
1007.59	226.95
1007.88	226.99
1008.17	227.03
1008.45	227.00
1008.74	226.98
1009.03	226.91
1009.32	226.90
1009.60	226.87
1009.89	226.84
1010.18	226.79
1010.47	226.79
1010.76	226.78
1011.04	226.79
1011.33	226.83
1011.62	226.84
1011.91	226.82
1012.19	226.84
1012.48	226.87
1012.77	226.88
1013.05	226.94
1013.34	226.93
1013.63	226.91
1013.92	226.87
1014.20	226.85
1014.49	226.84
1014.78	226.83
1015.06	226.83
1015.35	226.84
1015.64	226.88
1015.92	226.87
1016.21	226.90
1016.50	226.90
1016.78	226.92
1017.07	226.91
1017.36	226.85
1017.64	226.83
1017.93	226.86
1018.22	226.83
1018.50	226.82
1018.79	226.82
1019.08	226.75
1019.36	226.76
1019.65	226.75
1019.93	226.79
1020.22	226.82
1020.51	226.88
1020.79	226.85
1021.08	226.39
1021.36	226.77
1021.65	226.42
1021.94	226.26
1022.22	226.70
1022.51	226.51
1022.79	227.34
1023.08	227.22
1023.36	227.97
1023.65	226.35
>>>>>End Processed Spectral Data<<<<<
