SpectraSuite Data File
++++++++++++++++++++++++++++++++++++
Date: Fri Feb 01 15:27:07 EST 2013
User: group
Dark Spectrum Present: No
Reference Spectrum Present: No
Number of Sampled Component Spectra: 1
Spectrometers: USB2E7196
Integration Time (usec): 35000 (USB2E7196)
Spectra Averaged: 100 (USB2E7196)
Boxcar Smoothing: 10 (USB2E7196)
Correct for Electrical Dark: No (USB2E7196)
Strobe/Lamp Enabled: No (USB2E7196)
Correct for Detector Non-linearity: No (USB2E7196)
Correct for Stray Light: No (USB2E7196)
Number of Pixels in Processed Spectrum: 2048
>>>>>Begin Processed Spectral Data<<<<<
339.09	0.00
339.48	214.93
339.86	216.51
340.24	217.82
340.63	219.45
341.01	221.79
341.39	221.60
341.78	222.90
342.16	225.10
342.54	225.27
342.93	213.44
343.31	224.23
343.69	224.77
344.07	225.26
344.46	225.66
344.84	226.02
345.22	226.29
345.60	226.54
345.99	226.77
346.37	226.88
346.75	227.00
347.13	227.07
347.52	227.11
347.90	227.18
348.28	227.22
348.66	227.28
349.05	227.28
349.43	227.32
349.81	227.37
350.19	227.42
350.57	227.50
350.96	227.58
351.34	227.65
351.72	227.77
352.10	227.85
352.48	227.97
352.87	228.06
353.25	228.13
353.63	228.25
354.01	228.31
354.39	228.39
354.77	228.46
355.15	228.57
355.54	228.64
355.92	228.68
356.30	228.75
356.68	228.85
357.06	228.92
357.44	228.95
357.82	229.00
358.20	229.06
358.58	229.12
358.97	229.14
359.35	229.24
359.73	229.29
360.11	229.35
360.49	229.39
360.87	229.42
361.25	229.46
361.63	229.49
362.01	229.52
362.39	229.53
362.77	229.51
363.15	229.51
363.53	229.50
363.91	229.51
364.29	229.53
364.67	229.44
365.05	229.48
365.43	229.48
365.81	229.53
366.19	229.54
366.57	229.54
366.95	229.55
367.33	229.50
367.71	229.48
368.09	229.44
368.47	229.40
368.85	229.38
369.23	229.35
369.61	229.29
369.99	229.28
370.37	229.25
370.75	229.29
371.13	229.23
371.51	229.21
371.89	229.17
372.27	229.09
372.65	229.05
373.03	228.95
373.41	228.91
373.78	228.81
374.16	228.71
374.54	228.61
374.92	228.53
375.30	228.48
375.68	228.38
376.06	228.31
376.44	228.24
376.82	228.17
377.19	228.09
377.57	228.02
377.95	227.91
378.33	227.82
378.71	227.69
379.09	227.61
379.47	227.55
379.84	227.45
380.22	227.39
380.60	227.29
380.98	227.25
381.36	227.17
381.73	227.08
382.11	227.07
382.49	227.03
382.87	226.98
383.25	226.91
383.62	226.95
384.00	226.89
384.38	226.85
384.76	226.82
385.13	226.80
385.51	226.75
385.89	226.70
386.27	226.66
386.64	226.65
387.02	226.64
387.40	226.59
387.78	226.60
388.15	226.56
388.53	226.57
388.91	226.54
389.29	226.50
389.66	226.49
390.04	226.46
390.42	226.45
390.79	226.45
391.17	226.46
391.55	226.40
391.92	226.38
392.30	226.36
392.68	226.34
393.05	226.35
393.43	226.39
393.81	226.39
394.18	226.41
394.56	226.40
394.94	226.43
395.31	226.45
395.69	226.48
396.06	226.53
396.44	226.55
396.82	226.60
397.19	226.72
397.57	226.78
397.95	226.84
398.32	226.86
398.70	226.94
399.07	227.02
399.45	227.06
399.82	227.14
400.20	227.22
400.58	227.33
400.95	227.36
401.33	227.46
401.70	227.67
402.08	227.78
402.45	227.88
402.83	228.03
403.20	228.17
403.58	228.29
403.95	228.45
404.33	228.57
404.71	228.73
405.08	228.91
405.46	229.07
405.83	229.21
406.21	229.41
406.58	229.59
406.96	229.76
407.33	229.94
407.70	230.18
408.08	230.43
408.45	230.68
408.83	230.95
409.20	231.12
409.58	231.31
409.95	231.60
410.33	231.90
410.70	232.12
411.08	232.39
411.45	232.68
411.82	232.98
412.20	233.37
412.57	233.78
412.95	234.10
413.32	234.45
413.69	234.87
414.07	235.30
414.44	235.76
414.82	236.26
415.19	236.84
415.56	237.37
415.94	237.96
416.31	238.57
416.68	239.19
417.06	239.94
417.43	240.61
417.81	241.35
418.18	242.11
418.55	242.96
418.93	243.86
419.30	244.77
419.67	245.73
420.04	246.66
420.42	247.63
420.79	248.79
421.16	249.95
421.54	251.11
421.91	252.31
422.28	253.53
422.66	254.83
423.03	256.11
423.40	257.44
423.77	258.80
424.15	260.21
424.52	261.73
424.89	263.34
425.26	264.86
425.64	266.30
426.01	267.89
426.38	269.54
426.75	271.18
427.13	272.90
427.50	274.69
427.87	276.56
428.24	278.44
428.61	280.19
428.99	282.13
429.36	284.26
429.73	286.32
430.10	288.34
430.47	290.36
430.85	292.48
431.22	294.68
431.59	297.07
431.96	299.33
432.33	301.76
432.70	304.12
433.08	306.97
433.45	309.60
433.82	312.18
434.19	315.06
434.56	317.90
434.93	320.54
435.30	323.19
435.68	326.05
436.05	328.88
436.42	331.69
436.79	334.20
437.16	336.89
437.53	339.73
437.90	342.57
438.27	345.38
438.64	348.21
439.01	350.87
439.38	353.14
439.75	355.28
440.13	357.76
440.50	360.10
440.87	361.96
441.24	363.93
441.61	366.12
441.98	367.63
442.35	369.39
442.72	371.24
443.09	373.06
443.46	374.09
443.83	374.68
444.20	375.21
444.57	376.11
444.94	376.37
445.31	376.71
445.68	377.07
446.05	377.11
446.42	376.71
446.79	376.25
447.16	375.78
447.53	375.51
447.90	374.36
448.27	373.20
448.64	371.57
449.01	370.41
449.37	368.44
449.74	366.51
450.11	364.30
450.48	361.86
450.85	359.29
451.22	357.11
451.59	355.06
451.96	353.09
452.33	350.41
452.70	348.06
453.07	345.24
453.43	342.32
453.80	339.59
454.17	336.95
454.54	334.42
454.91	331.67
455.28	328.95
455.65	326.46
456.02	324.02
456.38	321.84
456.75	319.18
457.12	316.93
457.49	314.72
457.86	312.54
458.23	310.67
458.59	308.64
458.96	306.56
459.33	304.72
459.70	302.84
460.07	301.35
460.43	299.63
460.80	297.99
461.17	296.57
461.54	295.01
461.91	293.55
462.27	292.10
462.64	290.86
463.01	289.49
463.38	288.22
463.74	286.86
464.11	285.72
464.48	284.71
464.85	283.59
465.21	282.71
465.58	281.76
465.95	280.64
466.32	279.68
466.68	278.77
467.05	277.84
467.42	276.93
467.78	275.98
468.15	275.10
468.52	274.42
468.88	273.52
469.25	272.77
469.62	272.16
469.98	271.47
470.35	270.84
470.72	270.22
471.08	269.53
471.45	268.97
471.82	268.45
472.18	267.84
472.55	267.41
472.92	266.86
473.28	266.41
473.65	266.00
474.02	265.57
474.38	265.20
474.75	264.90
475.11	264.52
475.48	264.27
475.85	264.09
476.21	263.86
476.58	263.67
476.94	263.50
477.31	263.33
477.67	263.17
478.04	263.04
478.41	263.03
478.77	263.10
479.14	263.02
479.50	262.97
479.87	263.04
480.23	263.11
480.60	263.19
480.96	263.24
481.33	263.42
481.69	263.66
482.06	263.86
482.42	264.07
482.79	264.36
483.15	264.68
483.52	265.04
483.88	265.40
484.25	265.79
484.61	266.23
484.98	266.65
485.34	267.18
485.71	267.72
486.07	268.31
486.44	268.85
486.80	269.55
487.17	270.30
487.53	271.11
487.90	271.96
488.26	272.94
488.62	273.97
488.99	274.99
489.35	275.98
489.72	277.12
490.08	278.33
490.44	279.58
490.81	280.86
491.17	282.19
491.54	283.67
491.90	285.22
492.26	286.87
492.63	288.64
492.99	290.45
493.36	292.43
493.72	294.50
494.08	296.62
494.45	298.90
494.81	301.30
495.17	303.73
495.54	306.27
495.90	308.93
496.26	311.72
496.63	314.66
496.99	317.78
497.35	320.97
497.72	324.33
498.08	327.82
498.44	331.54
498.80	335.45
499.17	339.48
499.53	343.60
499.89	347.96
500.26	352.50
500.62	357.16
500.98	362.05
501.34	367.11
501.71	372.42
502.07	377.85
502.43	383.44
502.79	389.22
503.16	395.33
503.52	401.60
503.88	408.02
504.24	414.61
504.60	421.47
504.97	428.62
505.33	435.99
505.69	443.71
506.05	451.45
506.41	459.38
506.78	467.58
507.14	476.08
507.50	484.85
507.86	493.83
508.22	503.02
508.59	512.24
508.95	521.83
509.31	531.65
509.67	541.73
510.03	552.04
510.39	562.54
510.75	573.31
511.12	584.26
511.48	595.62
511.84	607.13
512.20	618.74
512.56	630.72
512.92	642.86
513.28	655.14
513.64	667.70
514.00	680.39
514.37	693.33
514.73	706.34
515.09	719.40
515.45	732.68
515.81	746.28
516.17	760.30
516.53	774.41
516.89	788.63
517.25	802.86
517.61	817.26
517.97	831.77
518.33	846.23
518.69	860.99
519.05	875.96
519.41	891.14
519.77	906.69
520.13	922.21
520.49	937.59
520.85	953.05
521.21	968.71
521.57	984.94
521.93	1000.77
522.29	1017.29
522.65	1033.43
523.01	1049.78
523.37	1065.84
523.73	1082.12
524.09	1098.32
524.45	1114.61
524.81	1131.35
525.17	1148.30
525.53	1165.38
525.89	1182.29
526.25	1199.27
526.61	1215.66
526.97	1232.48
527.33	1249.06
527.68	1265.65
528.04	1282.34
528.40	1299.03
528.76	1316.23
529.12	1332.85
529.48	1349.69
529.84	1365.77
530.20	1382.53
530.56	1399.59
530.91	1417.04
531.27	1433.84
531.63	1450.36
531.99	1467.05
532.35	1483.07
532.71	1498.86
533.07	1515.06
533.42	1531.05
533.78	1547.04
534.14	1563.38
534.50	1578.70
534.86	1594.69
535.21	1609.92
535.57	1625.87
535.93	1641.48
536.29	1656.41
536.65	1671.72
537.00	1686.57
537.36	1702.06
537.72	1716.76
538.08	1731.26
538.44	1745.17
538.79	1759.02
539.15	1772.89
539.51	1786.81
539.87	1801.32
540.22	1815.28
540.58	1829.32
540.94	1842.78
541.29	1855.82
541.65	1868.55
542.01	1881.95
542.37	1894.16
542.72	1906.79
543.08	1918.56
543.44	1931.06
543.79	1942.08
544.15	1953.14
544.51	1964.78
544.87	1975.62
545.22	1986.41
545.58	1996.57
545.94	2006.41
546.29	2016.35
546.65	2025.91
547.01	2035.00
547.36	2043.59
547.72	2051.89
548.07	2059.67
548.43	2067.75
548.79	2075.73
549.14	2083.37
549.50	2090.73
549.86	2098.52
550.21	2105.64
550.57	2112.82
550.92	2119.33
551.28	2126.50
551.64	2133.61
551.99	2140.22
552.35	2146.38
552.70	2152.56
553.06	2158.59
553.41	2164.93
553.77	2171.06
554.13	2177.32
554.48	2183.50
554.84	2188.88
555.19	2194.32
555.55	2199.51
555.90	2204.00
556.26	2208.91
556.61	2213.56
556.97	2217.80
557.32	2221.96
557.68	2226.30
558.03	2230.69
558.39	2234.41
558.74	2239.20
559.10	2242.87
559.45	2246.44
559.81	2250.85
560.16	2254.64
560.52	2257.88
560.87	2261.36
561.23	2263.82
561.58	2266.74
561.94	2269.26
562.29	2271.73
562.64	2274.45
563.00	2277.04
563.35	2280.65
563.71	2283.71
564.06	2286.94
564.42	2289.68
564.77	2292.05
565.12	2294.09
565.48	2295.94
565.83	2297.75
566.19	2298.88
566.54	2299.79
566.89	2301.06
567.25	2301.52
567.60	2302.78
567.96	2304.40
568.31	2305.20
568.66	2306.40
569.02	2307.05
569.37	2307.34
569.72	2308.15
570.08	2308.12
570.43	2308.01
570.78	2307.30
571.14	2305.66
571.49	2304.37
571.84	2304.15
572.20	2302.89
572.55	2301.99
572.90	2300.27
573.26	2298.78
573.61	2297.05
573.96	2295.32
574.31	2292.13
574.67	2289.04
575.02	2285.53
575.37	2282.07
575.72	2278.09
576.08	2274.77
576.43	2271.35
576.78	2267.58
577.13	2264.38
577.49	2261.33
577.84	2257.85
578.19	2253.96
578.54	2250.23
578.90	2245.92
579.25	2240.29
579.60	2235.25
579.95	2230.09
580.30	2225.03
580.66	2219.78
581.01	2214.83
581.36	2209.71
581.71	2205.52
582.06	2201.02
582.42	2196.34
582.77	2191.10
583.12	2186.46
583.47	2181.55
583.82	2176.32
584.17	2171.04
584.53	2165.45
584.88	2159.66
585.23	2153.61
585.58	2148.15
585.93	2142.78
586.28	2137.93
586.63	2132.73
586.98	2127.78
587.34	2123.05
587.69	2118.12
588.04	2112.92
588.39	2107.16
588.74	2100.64
589.09	2094.36
589.44	2087.39
589.79	2081.35
590.14	2075.63
590.49	2069.06
590.84	2062.64
591.19	2056.67
591.54	2050.08
591.89	2042.45
592.25	2035.61
592.60	2028.43
592.95	2020.65
593.30	2013.21
593.65	2005.46
594.00	1998.40
594.35	1990.93
594.70	1982.78
595.05	1975.44
595.40	1968.07
595.75	1960.44
596.10	1954.12
596.45	1947.28
596.80	1941.23
597.15	1934.41
597.50	1927.11
597.85	1920.59
598.19	1913.81
598.54	1906.50
598.89	1899.91
599.24	1894.17
599.59	1887.46
599.94	1881.26
600.29	1875.04
600.64	1868.47
600.99	1860.96
601.34	1853.94
601.69	1847.04
602.04	1839.97
602.39	1832.64
602.74	1825.76
603.08	1819.09
603.43	1812.36
603.78	1805.02
604.13	1797.63
604.48	1790.34
604.83	1783.59
605.18	1776.56
605.53	1768.57
605.87	1760.46
606.22	1753.16
606.57	1744.99
606.92	1737.64
607.27	1730.36
607.62	1723.36
607.96	1716.00
608.31	1709.30
608.66	1701.68
609.01	1694.05
609.36	1686.54
609.70	1678.60
610.05	1670.40
610.40	1662.59
610.75	1654.28
611.10	1646.81
611.44	1638.51
611.79	1630.53
612.14	1621.75
612.49	1612.70
612.83	1604.29
613.18	1596.34
613.53	1588.17
613.88	1579.75
614.22	1571.43
614.57	1562.91
614.92	1554.81
615.27	1547.22
615.61	1538.88
615.96	1530.88
616.31	1523.35
616.65	1515.99
617.00	1508.38
617.35	1500.78
617.70	1492.44
618.04	1483.91
618.39	1475.48
618.74	1467.82
619.08	1459.47
619.43	1452.03
619.78	1445.05
620.12	1437.92
620.47	1430.34
620.82	1422.23
621.16	1414.81
621.51	1407.17
621.85	1399.51
622.20	1391.08
622.55	1382.69
622.89	1374.93
623.24	1367.44
623.59	1360.02
623.93	1352.53
624.28	1345.21
624.62	1337.70
624.97	1330.47
625.32	1323.76
625.66	1316.75
626.01	1309.46
626.35	1302.02
626.70	1294.17
627.04	1286.49
627.39	1278.71
627.73	1271.31
628.08	1264.32
628.43	1257.06
628.77	1249.73
629.12	1242.13
629.46	1234.88
629.81	1227.63
630.15	1220.36
630.50	1212.87
630.84	1204.67
631.19	1196.83
631.53	1189.33
631.88	1181.83
632.22	1174.29
632.57	1166.98
632.91	1159.53
633.26	1152.18
633.60	1144.86
633.95	1137.77
634.29	1130.68
634.64	1123.98
634.98	1116.62
635.32	1109.63
635.67	1103.06
636.01	1096.36
636.36	1089.57
636.70	1083.12
637.05	1076.36
637.39	1069.93
637.73	1063.45
638.08	1057.60
638.42	1051.56
638.77	1045.10
639.11	1038.41
639.45	1032.00
639.80	1025.32
640.14	1018.74
640.49	1012.26
640.83	1005.84
641.17	999.52
641.52	993.18
641.86	986.86
642.20	980.96
642.55	974.58
642.89	967.95
643.23	961.51
643.58	955.80
643.92	949.60
644.26	943.56
644.61	937.59
644.95	931.57
645.29	924.95
645.64	918.21
645.98	911.96
646.32	906.19
646.66	900.18
647.01	894.30
647.35	888.67
647.69	882.80
648.04	877.41
648.38	871.65
648.72	865.53
649.06	859.35
649.41	853.52
649.75	847.46
650.09	841.62
650.43	835.77
650.78	829.62
651.12	823.64
651.46	817.94
651.80	812.09
652.14	806.60
652.49	801.23
652.83	796.04
653.17	790.28
653.51	784.50
653.85	779.11
654.20	773.51
654.54	767.53
654.88	761.78
655.22	755.91
655.56	750.24
655.90	744.84
656.25	739.59
656.59	734.28
656.93	729.38
657.27	724.13
657.61	718.64
657.95	713.51
658.29	708.46
658.64	703.19
658.98	697.94
659.32	692.53
659.66	687.31
660.00	681.95
660.34	677.04
660.68	672.14
661.02	667.14
661.36	662.43
661.70	657.93
662.05	653.59
662.39	649.21
662.73	644.79
663.07	640.46
663.41	636.07
663.75	631.58
664.09	626.93
664.43	622.62
664.77	618.59
665.11	614.35
665.45	610.18
665.79	606.14
666.13	602.06
666.47	597.97
666.81	593.78
667.15	589.68
667.49	585.79
667.83	582.02
668.17	578.04
668.51	574.04
668.85	570.09
669.19	566.31
669.53	562.49
669.87	558.60
670.21	554.90
670.55	551.28
670.89	547.83
671.23	544.44
671.57	540.95
671.91	537.42
672.25	533.97
672.58	530.43
672.92	527.08
673.26	523.87
673.60	520.78
673.94	517.69
674.28	514.80
674.62	511.84
674.96	508.69
675.30	505.83
675.64	502.87
675.97	500.07
676.31	497.18
676.65	494.26
676.99	491.62
677.33	488.77
677.67	485.91
678.01	482.93
678.34	479.94
678.68	477.11
679.02	474.27
679.36	471.52
679.70	468.86
680.04	466.05
680.37	463.22
680.71	460.40
681.05	457.82
681.39	455.11
681.73	452.47
682.06	450.01
682.40	447.40
682.74	444.86
683.08	442.30
683.42	439.72
683.75	437.26
684.09	434.69
684.43	432.21
684.77	429.71
685.10	427.33
685.44	425.05
685.78	422.70
686.12	420.47
686.45	418.17
686.79	415.86
687.13	413.66
687.46	411.48
687.80	409.32
688.14	407.10
688.48	405.05
688.81	402.78
689.15	400.61
689.49	398.50
689.82	396.44
690.16	394.34
690.50	392.40
690.83	390.42
691.17	388.41
691.51	386.54
691.84	384.75
692.18	382.81
692.52	380.84
692.85	378.92
693.19	377.04
693.52	375.22
693.86	373.45
694.20	371.72
694.53	369.92
694.87	368.12
695.21	366.31
695.54	364.47
695.88	362.80
696.21	361.08
696.55	359.44
696.88	357.77
697.22	356.10
697.56	354.45
697.89	352.82
698.23	351.19
698.56	349.56
698.90	347.96
699.23	346.30
699.57	344.73
699.90	343.20
700.24	341.66
700.58	340.11
700.91	338.62
701.25	337.15
701.58	335.78
701.92	334.41
702.25	333.01
702.59	331.65
702.92	330.31
703.26	329.01
703.59	327.72
703.93	326.56
704.26	325.33
704.60	324.07
704.93	322.77
705.26	321.55
705.60	320.40
705.93	319.24
706.27	318.20
706.60	317.16
706.94	316.04
707.27	314.90
707.61	313.85
707.94	312.86
708.27	311.78
708.61	310.69
708.94	309.68
709.28	308.78
709.61	307.85
709.94	306.89
710.28	305.86
710.61	304.90
710.95	303.82
711.28	302.93
711.61	301.97
711.95	301.11
712.28	300.19
712.61	299.18
712.95	298.24
713.28	297.40
713.61	296.49
713.95	295.66
714.28	294.85
714.61	293.99
714.95	293.09
715.28	292.23
715.61	291.39
715.95	290.53
716.28	289.66
716.61	288.83
716.95	288.05
717.28	287.32
717.61	286.55
717.94	285.84
718.28	285.03
718.61	284.33
718.94	283.61
719.27	282.96
719.61	282.33
719.94	281.71
720.27	280.97
720.60	280.31
720.94	279.67
721.27	279.10
721.60	278.55
721.93	277.97
722.27	277.44
722.60	276.90
722.93	276.32
723.26	275.77
723.59	275.20
723.93	274.67
724.26	274.10
724.59	273.51
724.92	272.93
725.25	272.46
725.59	271.92
725.92	271.40
726.25	270.89
726.58	270.37
726.91	269.83
727.24	269.36
727.57	268.86
727.91	268.32
728.24	267.80
728.57	267.29
728.90	266.83
729.23	266.32
729.56	265.88
729.89	265.43
730.22	264.95
730.55	264.45
730.89	263.99
731.22	263.55
731.55	263.14
731.88	262.70
732.21	262.23
732.54	261.80
732.87	261.40
733.20	260.95
733.53	260.56
733.86	260.20
734.19	259.79
734.52	259.43
734.85	259.15
735.18	258.75
735.51	258.40
735.84	257.98
736.17	257.61
736.50	257.18
736.83	256.95
737.16	256.59
737.49	256.30
737.82	255.93
738.15	255.58
738.48	255.25
738.81	254.93
739.14	254.58
739.47	254.27
739.80	253.94
740.13	253.64
740.46	253.30
740.79	252.99
741.12	252.66
741.45	252.35
741.78	252.00
742.11	251.70
742.44	251.36
742.77	251.08
743.10	250.77
743.43	250.48
743.75	250.10
744.08	249.96
744.41	249.68
744.74	249.42
745.07	249.14
745.40	248.92
745.73	248.74
746.06	248.48
746.39	248.20
746.71	247.93
747.04	247.69
747.37	247.46
747.70	247.22
748.03	247.01
748.36	246.83
748.68	246.60
749.01	246.36
749.34	246.10
749.67	245.87
750.00	245.68
750.33	245.55
750.65	245.34
750.98	245.00
751.31	244.79
751.64	244.61
751.97	244.47
752.29	244.21
752.62	243.93
752.95	243.78
753.28	243.60
753.60	243.43
753.93	243.26
754.26	243.06
754.59	242.83
754.91	242.66
755.24	242.44
755.57	242.28
755.90	242.11
756.22	241.95
756.55	241.78
756.88	241.58
757.20	241.35
757.53	241.16
757.86	240.99
758.19	240.87
758.51	240.69
758.84	240.48
759.17	240.33
759.49	240.16
759.82	240.00
760.15	239.84
760.47	239.67
760.80	239.50
761.13	239.40
761.45	239.29
761.78	239.12
762.11	238.95
762.43	238.79
762.76	238.63
763.08	238.52
763.41	238.39
763.74	238.28
764.06	238.14
764.39	238.00
764.71	237.85
765.04	237.67
765.37	237.53
765.69	237.41
766.02	237.28
766.34	237.16
766.67	237.04
767.00	236.91
767.32	236.83
767.65	236.78
767.97	236.60
768.30	236.46
768.62	236.32
768.95	236.22
769.27	236.07
769.60	235.98
769.92	235.80
770.25	235.66
770.57	235.48
770.90	235.39
771.22	235.28
771.55	235.21
771.87	235.12
772.20	235.02
772.52	235.00
772.85	235.00
773.17	234.89
773.50	234.78
773.82	234.70
774.15	234.54
774.47	234.36
774.80	234.27
775.12	234.19
775.45	234.12
775.77	234.02
776.09	233.96
776.42	233.85
776.74	233.81
777.07	233.75
777.39	233.71
777.72	233.60
778.04	233.56
778.36	233.45
778.69	233.39
779.01	233.32
779.33	233.12
779.66	232.95
779.98	232.87
780.31	232.78
780.63	232.74
780.95	232.74
781.28	232.69
781.60	232.64
781.92	232.57
782.25	232.52
782.57	232.45
782.89	232.38
783.22	232.34
783.54	232.29
783.86	232.23
784.19	232.17
784.51	232.15
784.83	232.06
785.16	232.02
785.48	231.97
785.80	231.89
786.12	231.89
786.45	231.84
786.77	231.81
787.09	231.78
787.42	231.71
787.74	231.63
788.06	231.58
788.38	231.53
788.71	231.50
789.03	231.45
789.35	231.45
789.67	231.43
789.99	231.39
790.32	231.34
790.64	231.33
790.96	231.36
791.28	231.30
791.61	231.26
791.93	231.23
792.25	231.17
792.57	231.24
792.89	231.15
793.21	231.14
793.54	231.11
793.86	231.07
794.18	231.06
794.50	231.02
794.82	231.03
795.14	231.03
795.47	231.00
795.79	230.96
796.11	230.90
796.43	230.88
796.75	230.84
797.07	230.81
797.39	230.79
797.71	230.71
798.04	230.69
798.36	230.68
798.68	230.67
799.00	230.66
799.32	230.58
799.64	230.62
799.96	230.60
800.28	230.58
800.60	230.55
800.92	230.49
801.24	230.44
801.56	230.40
801.89	230.35
802.21	230.34
802.53	230.29
802.85	230.31
803.17	230.32
803.49	230.25
803.81	230.25
804.13	230.21
804.45	230.16
804.77	230.15
805.09	230.08
805.41	230.03
805.73	229.98
806.05	229.94
806.37	229.89
806.69	229.82
807.01	229.79
807.33	229.76
807.65	229.73
807.97	229.75
808.28	229.71
808.60	229.69
808.92	229.63
809.24	229.66
809.56	229.62
809.88	229.52
810.20	229.51
810.52	229.48
810.84	229.42
811.16	229.38
811.48	229.35
811.80	229.37
812.12	229.34
812.43	229.33
812.75	229.28
813.07	229.23
813.39	229.20
813.71	229.13
814.03	229.11
814.35	229.07
814.67	228.98
814.98	228.92
815.30	228.87
815.62	228.83
815.94	228.72
816.26	228.70
816.58	228.66
816.89	228.65
817.21	228.60
817.53	228.59
817.85	228.56
818.17	228.50
818.48	228.42
818.80	228.45
819.12	228.40
819.44	228.35
819.76	228.31
820.07	228.29
820.39	228.30
820.71	228.24
821.03	228.20
821.34	228.20
821.66	228.20
821.98	228.21
822.30	228.19
822.61	228.25
822.93	228.21
823.25	228.19
823.57	228.15
823.88	228.16
824.20	228.15
824.52	228.16
824.83	228.16
825.15	228.14
825.47	228.11
825.79	228.12
826.10	228.13
826.42	228.13
826.74	228.14
827.05	228.12
827.37	228.15
827.69	228.15
828.00	228.16
828.32	228.13
828.64	228.10
828.95	228.17
829.27	228.15
829.58	228.14
829.90	228.17
830.22	228.21
830.53	228.18
830.85	228.17
831.17	228.10
831.48	228.12
831.80	228.13
832.11	228.10
832.43	228.12
832.75	228.12
833.06	228.19
833.38	228.18
833.69	228.20
834.01	228.20
834.32	228.21
834.64	228.20
834.96	228.23
835.27	228.21
835.59	228.18
835.90	228.18
836.22	228.17
836.53	228.15
836.85	228.13
837.16	228.22
837.48	228.21
837.79	228.27
838.11	228.28
838.42	228.31
838.74	228.34
839.05	228.33
839.37	228.35
839.68	228.28
840.00	228.29
840.31	228.32
840.63	228.33
840.94	228.32
841.26	228.33
841.57	228.32
841.88	228.36
842.20	228.32
842.51	228.30
842.83	228.30
843.14	228.41
843.46	228.41
843.77	228.34
844.08	228.35
844.40	228.32
844.71	228.33
845.03	228.30
845.34	228.31
845.65	228.31
845.97	228.30
846.28	228.31
846.60	228.29
846.91	228.25
847.22	228.24
847.54	228.25
847.85	228.23
848.16	228.22
848.48	228.18
848.79	228.21
849.10	228.25
849.42	228.23
849.73	228.11
850.04	228.10
850.36	228.08
850.67	228.08
850.98	228.08
851.30	228.06
851.61	228.06
851.92	228.03
852.23	228.00
852.55	227.98
852.86	227.94
853.17	227.95
853.49	227.95
853.80	227.94
854.11	227.94
854.42	227.94
854.74	227.92
855.05	227.89
855.36	227.81
855.67	227.74
855.99	227.74
856.30	227.86
856.61	227.81
856.92	227.79
857.23	227.77
857.55	227.72
857.86	227.68
858.17	227.66
858.48	227.63
858.79	227.57
859.11	227.56
859.42	227.55
859.73	227.50
860.04	227.46
860.35	227.40
860.66	227.33
860.98	227.29
861.29	227.30
861.60	227.31
861.91	227.37
862.22	227.39
862.53	227.36
862.84	227.20
863.16	227.24
863.47	227.20
863.78	227.19
864.09	227.16
864.40	227.16
864.71	227.17
865.02	227.16
865.33	227.17
865.64	227.16
865.95	227.16
866.27	227.21
866.58	227.19
866.89	227.22
867.20	227.23
867.51	227.20
867.82	227.19
868.13	227.18
868.44	227.14
868.75	227.15
869.06	227.16
869.37	227.17
869.68	227.14
869.99	227.17
870.30	227.19
870.61	227.24
870.92	227.22
871.23	227.19
871.54	227.22
871.85	227.24
872.16	227.26
872.47	227.22
872.78	227.19
873.09	227.22
873.40	227.22
873.71	227.23
874.02	227.28
874.33	227.26
874.64	227.26
874.95	227.26
875.26	227.22
875.56	227.24
875.87	227.25
876.18	227.27
876.49	227.36
876.80	227.33
877.11	227.32
877.42	227.36
877.73	227.40
878.04	227.39
878.35	227.40
878.66	227.39
878.96	227.45
879.27	227.45
879.58	227.45
879.89	227.40
880.20	227.45
880.51	227.47
880.82	227.50
881.12	227.50
881.43	227.51
881.74	227.50
882.05	227.50
882.36	227.53
882.67	227.54
882.97	227.45
883.28	227.49
883.59	227.52
883.90	227.49
884.21	227.51
884.51	227.51
884.82	227.52
885.13	227.53
885.44	227.50
885.74	227.49
886.05	227.49
886.36	227.54
886.67	227.51
886.98	227.56
887.28	227.56
887.59	227.56
887.90	227.57
888.20	227.57
888.51	227.59
888.82	227.56
889.13	227.54
889.43	227.59
889.74	227.54
890.05	227.51
890.35	227.51
890.66	227.48
890.97	227.46
891.28	227.43
891.58	227.43
891.89	227.42
892.20	227.43
892.50	227.45
892.81	227.44
893.12	227.46
893.42	227.39
893.73	227.36
894.04	227.36
894.34	227.36
894.65	227.35
894.95	227.31
895.26	227.27
895.57	227.34
895.87	227.24
896.18	227.26
896.48	227.26
896.79	227.27
897.10	227.29
897.40	227.28
897.71	227.27
898.01	227.25
898.32	227.25
898.63	227.20
898.93	227.17
899.24	227.12
899.54	227.06
899.85	227.07
900.15	227.04
900.46	227.03
900.76	227.01
901.07	227.03
901.38	227.01
901.68	227.02
901.99	226.95
902.29	226.94
902.60	226.93
902.90	226.90
903.21	226.90
903.51	226.87
903.82	226.89
904.12	226.93
904.43	226.94
904.73	226.91
905.03	226.93
905.34	227.05
905.64	227.05
905.95	227.07
906.25	227.03
906.56	227.07
906.86	227.08
907.17	227.08
907.47	227.08
907.77	227.10
908.08	227.09
908.38	227.09
908.69	227.11
908.99	227.13
909.30	227.16
909.60	227.16
909.90	227.17
910.21	227.12
910.51	227.10
910.81	227.13
911.12	227.16
911.42	227.19
911.73	227.06
912.03	227.12
912.33	227.12
912.64	227.13
912.94	227.13
913.24	227.12
913.55	227.07
913.85	227.07
914.15	227.08
914.46	227.12
914.76	227.14
915.06	227.16
915.37	227.19
915.67	227.20
915.97	227.22
916.27	227.18
916.58	227.23
916.88	227.23
917.18	227.20
917.49	227.29
917.79	227.25
918.09	227.27
918.39	227.28
918.70	227.30
919.00	227.32
919.30	227.35
919.60	227.37
919.91	227.42
920.21	227.41
920.51	227.40
920.81	227.36
921.12	227.33
921.42	227.31
921.72	227.28
922.02	227.27
922.32	227.28
922.63	227.30
922.93	227.35
923.23	227.37
923.53	227.37
923.83	227.31
924.13	227.34
924.44	227.37
924.74	227.37
925.04	227.40
925.34	227.40
925.64	227.37
925.94	227.35
926.24	227.39
926.55	227.43
926.85	227.42
927.15	227.44
927.45	227.46
927.75	227.47
928.05	227.45
928.35	227.47
928.65	227.46
928.95	227.47
929.26	227.43
929.56	227.42
929.86	227.39
930.16	227.39
930.46	227.39
930.76	227.36
931.06	227.31
931.36	227.24
931.66	227.25
931.96	227.24
932.26	227.25
932.56	227.25
932.86	227.21
933.16	227.22
933.46	227.19
933.76	227.20
934.06	227.20
934.36	227.25
934.66	227.24
934.96	227.22
935.26	227.19
935.56	227.21
935.86	227.16
936.16	227.17
936.46	227.12
936.76	227.08
937.06	227.08
937.36	227.10
937.66	227.11
937.96	227.10
938.26	227.07
938.56	227.06
938.86	227.02
939.16	227.05
939.46	227.06
939.76	227.06
940.06	227.04
940.35	227.01
940.65	226.97
940.95	226.95
941.25	226.93
941.55	226.89
941.85	226.89
942.15	226.92
942.45	226.96
942.75	226.97
943.04	226.98
943.34	227.01
943.64	226.96
943.94	226.96
944.24	226.96
944.54	226.99
944.84	226.97
945.13	226.95
945.43	226.94
945.73	226.94
946.03	226.94
946.33	226.94
946.62	226.94
946.92	226.90
947.22	226.90
947.52	226.90
947.82	226.94
948.11	226.89
948.41	226.87
948.71	226.81
949.01	226.83
949.31	226.80
949.60	226.76
949.90	226.76
950.20	226.76
950.50	226.73
950.79	226.70
951.09	226.74
951.39	226.74
951.69	226.72
951.98	226.74
952.28	226.76
952.58	226.75
952.87	226.77
953.17	226.81
953.47	226.79
953.76	226.79
954.06	226.78
954.36	226.78
954.66	226.79
954.95	226.81
955.25	226.84
955.55	226.88
955.84	226.91
956.14	226.89
956.44	226.92
956.73	226.93
957.03	226.97
957.32	226.95
957.62	226.96
957.92	227.01
958.21	226.97
958.51	227.09
958.81	227.10
959.10	227.11
959.40	227.15
959.69	227.17
959.99	227.21
960.29	227.20
960.58	227.23
960.88	227.25
961.17	227.25
961.47	227.22
961.76	227.21
962.06	227.20
962.36	227.26
962.65	227.24
962.95	227.27
963.24	227.23
963.54	227.24
963.83	227.26
964.13	227.22
964.42	227.21
964.72	227.13
965.01	227.16
965.31	227.15
965.60	227.13
965.90	227.15
966.19	227.10
966.49	227.12
966.78	227.12
967.08	227.13
967.37	227.13
967.67	227.17
967.96	227.18
968.26	227.18
968.55	227.17
968.85	227.14
969.14	227.14
969.43	227.12
969.73	227.11
970.02	227.10
970.32	227.12
970.61	227.12
970.91	227.08
971.20	227.04
971.49	227.02
971.79	227.00
972.08	226.94
972.38	226.94
972.67	226.93
972.96	226.93
973.26	226.90
973.55	226.94
973.85	226.89
974.14	226.89
974.43	226.89
974.73	226.87
975.02	226.86
975.31	226.83
975.61	226.83
975.90	226.84
976.19	226.81
976.49	226.76
976.78	226.76
977.07	226.75
977.37	226.74
977.66	226.79
977.95	226.78
978.24	226.80
978.54	226.82
978.83	226.84
979.12	226.80
979.42	226.82
979.71	226.77
980.00	226.80
980.29	226.80
980.59	226.77
980.88	226.77
981.17	226.79
981.46	226.81
981.76	226.82
982.05	226.81
982.34	226.84
982.63	226.90
982.93	226.88
983.22	226.91
983.51	226.93
983.80	226.90
984.09	226.89
984.39	226.86
984.68	226.84
984.97	226.83
985.26	226.86
985.55	226.83
985.85	226.81
986.14	226.80
986.43	226.81
986.72	226.81
987.01	226.82
987.30	226.83
987.59	226.83
987.89	226.85
988.18	226.85
988.47	226.84
988.76	226.79
989.05	226.79
989.34	226.79
989.63	226.85
989.92	226.88
990.22	226.90
990.51	226.96
990.80	226.96
991.09	226.96
991.38	226.99
991.67	227.03
991.96	227.02
992.25	227.05
992.54	227.03
992.83	227.03
993.12	227.06
993.41	227.07
993.70	227.11
993.99	227.10
994.28	227.12
994.58	227.13
994.87	227.16
995.16	227.18
995.45	227.20
995.74	227.15
996.03	227.16
996.32	227.17
996.61	227.19
996.90	227.21
997.19	227.20
997.48	227.21
997.77	227.20
998.06	227.27
998.34	227.26
998.63	227.27
998.92	227.30
999.21	227.28
999.50	227.29
999.79	227.25
1000.08	227.28
1000.37	227.26
1000.66	227.31
1000.95	227.34
1001.24	227.36
1001.53	227.35
1001.82	227.31
1002.11	227.28
1002.40	227.31
1002.68	227.29
1002.97	227.39
1003.26	227.37
1003.55	227.33
1003.84	227.32
1004.13	227.34
1004.42	227.34
1004.71	227.36
1004.99	227.34
1005.28	227.36
1005.57	227.36
1005.86	227.36
1006.15	227.33
1006.44	227.33
1006.72	227.28
1007.01	227.25
1007.30	227.23
1007.59	227.22
1007.88	227.25
1008.17	227.26
1008.45	227.21
1008.74	227.18
1009.03	227.10
1009.32	227.14
1009.60	227.17
1009.89	227.16
1010.18	227.10
1010.47	227.09
1010.76	227.09
1011.04	227.07
1011.33	227.07
1011.62	227.08
1011.91	227.08
1012.19	227.07
1012.48	227.08
1012.77	227.10
1013.05	227.13
1013.34	227.10
1013.63	227.10
1013.92	227.09
1014.20	227.08
1014.49	227.09
1014.78	227.09
1015.06	227.07
1015.35	227.03
1015.64	227.02
1015.92	227.02
1016.21	227.02
1016.50	227.03
1016.78	227.01
1017.07	227.03
1017.36	227.01
1017.64	226.98
1017.93	226.97
1018.22	226.97
1018.50	226.95
1018.79	226.91
1019.08	226.84
1019.36	226.85
1019.65	226.82
1019.93	226.85
1020.22	226.87
1020.51	226.91
1020.79	226.89
1021.08	226.74
1021.36	226.72
1021.65	226.59
1021.94	226.21
1022.22	226.64
1022.51	226.39
1022.79	227.67
1023.08	226.94
1023.36	227.77
1023.65	226.79
>>>>>End Processed Spectral Data<<<<<
