SpectraSuite Data File
++++++++++++++++++++++++++++++++++++
Date: Fri Feb 01 17:20:56 EST 2013
User: group
Dark Spectrum Present: No
Reference Spectrum Present: No
Number of Sampled Component Spectra: 1
Spectrometers: USB2E7196
Integration Time (usec): 35000 (USB2E7196)
Spectra Averaged: 100 (USB2E7196)
Boxcar Smoothing: 10 (USB2E7196)
Correct for Electrical Dark: No (USB2E7196)
Strobe/Lamp Enabled: No (USB2E7196)
Correct for Detector Non-linearity: No (USB2E7196)
Correct for Stray Light: No (USB2E7196)
Number of Pixels in Processed Spectrum: 2048
>>>>>Begin Processed Spectral Data<<<<<
339.09	0.00
339.48	212.13
339.86	214.59
340.24	215.37
340.63	217.31
341.01	220.19
341.39	220.19
341.78	221.54
342.16	222.70
342.54	222.43
342.93	211.26
343.31	221.92
343.69	222.49
344.07	222.96
344.46	223.40
344.84	223.75
345.22	223.97
345.60	224.20
345.99	224.38
346.37	224.47
346.75	224.59
347.13	224.70
347.52	224.78
347.90	224.86
348.28	224.89
348.66	224.96
349.05	224.95
349.43	224.98
349.81	225.02
350.19	225.06
350.57	225.16
350.96	225.26
351.34	225.36
351.72	225.43
352.10	225.51
352.48	225.60
352.87	225.68
353.25	225.76
353.63	225.82
354.01	225.85
354.39	225.97
354.77	226.02
355.15	226.12
355.54	226.18
355.92	226.20
356.30	226.29
356.68	226.43
357.06	226.52
357.44	226.56
357.82	226.64
358.20	226.72
358.58	226.79
358.97	226.85
359.35	226.92
359.73	227.03
360.11	227.09
360.49	227.14
360.87	227.17
361.25	227.22
361.63	227.33
362.01	227.40
362.39	227.44
362.77	227.50
363.15	227.48
363.53	227.50
363.91	227.54
364.29	227.57
364.67	227.48
365.05	227.50
365.43	227.53
365.81	227.57
366.19	227.59
366.57	227.64
366.95	227.64
367.33	227.60
367.71	227.57
368.09	227.58
368.47	227.56
368.85	227.57
369.23	227.57
369.61	227.50
369.99	227.51
370.37	227.47
370.75	227.51
371.13	227.49
371.51	227.46
371.89	227.40
372.27	227.36
372.65	227.34
373.03	227.28
373.41	227.23
373.78	227.13
374.16	227.03
374.54	226.92
374.92	226.85
375.30	226.79
375.68	226.73
376.06	226.67
376.44	226.60
376.82	226.56
377.19	226.50
377.57	226.45
377.95	226.36
378.33	226.28
378.71	226.17
379.09	226.13
379.47	226.05
379.84	226.01
380.22	225.92
380.60	225.87
380.98	225.81
381.36	225.75
381.73	225.66
382.11	225.64
382.49	225.60
382.87	225.54
383.25	225.48
383.62	225.52
384.00	225.45
384.38	225.40
384.76	225.35
385.13	225.33
385.51	225.27
385.89	225.21
386.27	225.16
386.64	225.11
387.02	225.04
387.40	225.03
387.78	225.00
388.15	224.97
388.53	224.92
388.91	224.89
389.29	224.87
389.66	224.90
390.04	224.86
390.42	224.83
390.79	224.80
391.17	224.79
391.55	224.63
391.92	224.60
392.30	224.61
392.68	224.53
393.05	224.51
393.43	224.51
393.81	224.51
394.18	224.49
394.56	224.47
394.94	224.49
395.31	224.50
395.69	224.54
396.06	224.57
396.44	224.61
396.82	224.62
397.19	224.69
397.57	224.70
397.95	224.77
398.32	224.77
398.70	224.86
399.07	224.92
399.45	225.01
399.82	225.10
400.20	225.12
400.58	225.21
400.95	225.22
401.33	225.30
401.70	225.46
402.08	225.55
402.45	225.66
402.83	225.75
403.20	225.83
403.58	225.91
403.95	226.03
404.33	226.16
404.71	226.28
405.08	226.45
405.46	226.57
405.83	226.70
406.21	226.88
406.58	227.01
406.96	227.18
407.33	227.37
407.70	227.54
408.08	227.84
408.45	228.07
408.83	228.34
409.20	228.55
409.58	228.74
409.95	229.00
410.33	229.26
410.70	229.55
411.08	229.87
411.45	230.16
411.82	230.46
412.20	230.82
412.57	231.28
412.95	231.60
413.32	232.01
413.69	232.44
414.07	232.90
414.44	233.39
414.82	233.87
415.19	234.46
415.56	235.05
415.94	235.59
416.31	236.26
416.68	236.91
417.06	237.66
417.43	238.36
417.81	239.18
418.18	239.99
418.55	240.83
418.93	241.71
419.30	242.69
419.67	243.69
420.04	244.65
420.42	245.66
420.79	246.87
421.16	248.07
421.54	249.30
421.91	250.55
422.28	251.86
422.66	253.23
423.03	254.56
423.40	255.89
423.77	257.38
424.15	258.83
424.52	260.37
424.89	262.01
425.26	263.59
425.64	265.07
426.01	266.74
426.38	268.48
426.75	270.21
427.13	271.99
427.50	273.82
427.87	275.77
428.24	277.69
428.61	279.46
428.99	281.39
429.36	283.54
429.73	285.67
430.10	287.73
430.47	289.85
430.85	292.03
431.22	294.37
431.59	296.80
431.96	299.16
432.33	301.71
432.70	304.14
433.08	306.99
433.45	309.73
433.82	312.41
434.19	315.35
434.56	318.27
434.93	320.96
435.30	323.63
435.68	326.64
436.05	329.56
436.42	332.47
436.79	335.11
437.16	337.90
437.53	340.79
437.90	343.70
438.27	346.56
438.64	349.48
439.01	352.14
439.38	354.44
439.75	356.63
440.13	359.21
440.50	361.63
440.87	363.64
441.24	365.59
441.61	367.84
441.98	369.40
442.35	371.27
442.72	373.24
443.09	375.15
443.46	376.11
443.83	376.73
444.20	377.27
444.57	378.17
444.94	378.51
445.31	378.92
445.68	379.37
446.05	379.46
446.42	379.09
446.79	378.64
447.16	378.19
447.53	377.89
447.90	376.70
448.27	375.57
448.64	373.94
449.01	372.86
449.37	370.84
449.74	368.90
450.11	366.59
450.48	364.02
450.85	361.41
451.22	359.27
451.59	357.20
451.96	355.23
452.33	352.54
452.70	350.07
453.07	347.12
453.43	344.13
453.80	341.27
454.17	338.50
454.54	335.94
454.91	333.17
455.28	330.42
455.65	327.86
456.02	325.33
456.38	323.07
456.75	320.31
457.12	317.98
457.49	315.71
457.86	313.46
458.23	311.57
458.59	309.47
458.96	307.31
459.33	305.39
459.70	303.46
460.07	301.92
460.43	300.18
460.80	298.52
461.17	297.00
461.54	295.44
461.91	294.01
462.27	292.45
462.64	291.13
463.01	289.77
463.38	288.42
463.74	286.99
464.11	285.80
464.48	284.76
464.85	283.61
465.21	282.68
465.58	281.74
465.95	280.57
466.32	279.66
466.68	278.69
467.05	277.73
467.42	276.82
467.78	275.82
468.15	274.91
468.52	274.25
468.88	273.35
469.25	272.58
469.62	271.88
469.98	271.24
470.35	270.59
470.72	269.94
471.08	269.26
471.45	268.74
471.82	268.17
472.18	267.54
472.55	267.08
472.92	266.55
473.28	266.09
473.65	265.63
474.02	265.15
474.38	264.82
474.75	264.50
475.11	264.12
475.48	263.89
475.85	263.63
476.21	263.37
476.58	263.14
476.94	262.96
477.31	262.82
477.67	262.66
478.04	262.56
478.41	262.50
478.77	262.56
479.14	262.46
479.50	262.48
479.87	262.57
480.23	262.66
480.60	262.69
480.96	262.73
481.33	262.95
481.69	263.16
482.06	263.34
482.42	263.56
482.79	263.81
483.15	264.09
483.52	264.45
483.88	264.82
484.25	265.23
484.61	265.70
484.98	266.11
485.34	266.68
485.71	267.25
486.07	267.85
486.44	268.41
486.80	269.10
487.17	269.80
487.53	270.59
487.90	271.44
488.26	272.37
488.62	273.38
488.99	274.36
489.35	275.40
489.72	276.51
490.08	277.69
490.44	278.94
490.81	280.29
491.17	281.68
491.54	283.15
491.90	284.67
492.26	286.30
492.63	288.03
492.99	289.74
493.36	291.63
493.72	293.68
494.08	295.79
494.45	298.02
494.81	300.44
495.17	302.85
495.54	305.40
495.90	308.12
496.26	310.92
496.63	313.84
496.99	316.96
497.35	320.22
497.72	323.63
498.08	327.16
498.44	330.81
498.80	334.72
499.17	338.71
499.53	342.91
499.89	347.20
500.26	351.72
500.62	356.42
500.98	361.37
501.34	366.41
501.71	371.69
502.07	377.11
502.43	382.61
502.79	388.40
503.16	394.43
503.52	400.63
503.88	406.96
504.24	413.52
504.60	420.36
504.97	427.44
505.33	434.64
505.69	442.30
506.05	449.97
506.41	457.73
506.78	465.72
507.14	474.00
507.50	482.60
507.86	491.46
508.22	500.46
508.59	509.52
508.95	518.87
509.31	528.54
509.67	538.44
510.03	548.54
510.39	558.93
510.75	569.49
511.12	580.17
511.48	591.25
511.84	602.50
512.20	613.73
512.56	625.40
512.92	637.32
513.28	649.34
513.64	661.52
514.00	673.91
514.37	686.66
514.73	699.54
515.09	712.36
515.45	725.29
515.81	738.64
516.17	752.27
516.53	766.21
516.89	780.10
517.25	794.01
517.61	808.14
517.97	822.28
518.33	836.33
518.69	850.85
519.05	865.46
519.41	880.36
519.77	895.55
520.13	910.57
520.49	925.69
520.85	940.71
521.21	956.13
521.57	972.04
521.93	987.40
522.29	1003.31
522.65	1019.13
523.01	1034.89
523.37	1050.53
523.73	1066.34
524.09	1082.03
524.45	1097.81
524.81	1113.98
525.17	1130.26
525.53	1146.72
525.89	1163.31
526.25	1179.79
526.61	1195.76
526.97	1211.98
527.33	1228.12
527.68	1244.32
528.04	1260.41
528.40	1276.60
528.76	1293.25
529.12	1309.50
529.48	1326.01
529.84	1341.70
530.20	1357.98
530.56	1374.69
530.91	1391.75
531.27	1408.22
531.63	1424.25
531.99	1440.50
532.35	1456.22
532.71	1471.98
533.07	1487.80
533.42	1503.36
533.78	1518.93
534.14	1534.95
534.50	1550.16
534.86	1565.73
535.21	1580.75
535.57	1596.33
535.93	1611.57
536.29	1626.08
536.65	1640.85
537.00	1655.31
537.36	1670.42
537.72	1684.66
538.08	1698.93
538.44	1712.55
538.79	1726.19
539.15	1739.68
539.51	1753.21
539.87	1767.43
540.22	1780.96
540.58	1794.62
540.94	1807.67
541.29	1820.47
541.65	1833.11
542.01	1846.14
542.37	1858.38
542.72	1870.69
543.08	1882.42
543.44	1894.84
543.79	1906.09
544.15	1917.03
544.51	1928.77
544.87	1939.59
545.22	1950.56
545.58	1960.76
545.94	1970.51
546.29	1980.50
546.65	1990.43
547.01	1999.88
547.36	2008.60
547.72	2017.15
548.07	2025.22
548.43	2033.60
548.79	2041.71
549.14	2049.45
549.50	2056.80
549.86	2064.48
550.21	2071.98
550.57	2079.37
550.92	2086.08
551.28	2093.27
551.64	2100.51
551.99	2107.10
552.35	2113.53
552.70	2119.77
553.06	2126.04
553.41	2132.64
553.77	2138.74
554.13	2145.10
554.48	2151.42
554.84	2157.39
555.19	2162.69
555.55	2168.21
555.90	2172.96
556.26	2178.29
556.61	2183.19
556.97	2187.99
557.32	2192.62
557.68	2196.91
558.03	2201.35
558.39	2205.25
558.74	2210.22
559.10	2214.54
559.45	2218.50
559.81	2223.11
560.16	2227.27
560.52	2230.83
560.87	2234.42
561.23	2237.35
561.58	2240.49
561.94	2243.32
562.29	2245.61
562.64	2248.91
563.00	2251.63
563.35	2255.47
563.71	2258.86
564.06	2262.43
564.42	2265.60
564.77	2268.41
565.12	2271.27
565.48	2273.61
565.83	2276.04
566.19	2277.69
566.54	2278.78
566.89	2280.50
567.25	2281.55
567.60	2283.08
567.96	2285.12
568.31	2286.39
568.66	2288.02
569.02	2288.94
569.37	2289.58
569.72	2291.11
570.08	2291.54
570.43	2291.97
570.78	2291.85
571.14	2290.56
571.49	2289.48
571.84	2289.26
572.20	2288.55
572.55	2287.80
572.90	2286.69
573.26	2285.47
573.61	2283.93
573.96	2282.63
574.31	2279.88
574.67	2277.19
575.02	2273.93
575.37	2270.82
575.72	2267.45
576.08	2264.27
576.43	2261.18
576.78	2258.11
577.13	2254.97
577.49	2252.03
577.84	2248.94
578.19	2245.36
578.54	2242.31
578.90	2238.50
579.25	2233.41
579.60	2228.82
579.95	2224.24
580.30	2219.31
580.66	2214.47
581.01	2209.79
581.36	2205.13
581.71	2201.14
582.06	2197.14
582.42	2193.09
582.77	2188.19
583.12	2184.06
583.47	2179.96
583.82	2175.45
584.17	2170.42
584.53	2165.33
584.88	2160.06
585.23	2154.59
585.58	2149.35
585.93	2144.06
586.28	2139.37
586.63	2134.67
586.98	2129.64
587.34	2124.96
587.69	2120.31
588.04	2115.41
588.39	2110.15
588.74	2103.89
589.09	2098.02
589.44	2091.32
589.79	2085.20
590.14	2079.75
590.49	2073.17
590.84	2066.75
591.19	2060.83
591.54	2054.52
591.89	2047.48
592.25	2041.05
592.60	2033.92
592.95	2026.68
593.30	2019.38
593.65	2011.95
594.00	2004.86
594.35	1997.77
594.70	1989.76
595.05	1983.00
595.40	1975.82
595.75	1968.48
596.10	1962.52
596.45	1956.16
596.80	1950.10
597.15	1943.95
597.50	1937.19
597.85	1930.75
598.19	1924.22
598.54	1917.45
598.89	1911.00
599.24	1905.00
599.59	1898.48
599.94	1892.32
600.29	1885.94
600.64	1879.42
600.99	1872.28
601.34	1865.70
601.69	1858.78
602.04	1852.14
602.39	1844.72
602.74	1837.96
603.08	1831.29
603.43	1824.54
603.78	1817.00
604.13	1809.75
604.48	1802.39
604.83	1795.49
605.18	1788.95
605.53	1781.07
605.87	1772.96
606.22	1765.57
606.57	1757.56
606.92	1750.01
607.27	1742.92
607.62	1736.27
607.96	1729.12
608.31	1722.66
608.66	1715.12
609.01	1707.77
609.36	1700.23
609.70	1692.24
610.05	1684.23
610.40	1676.50
610.75	1668.26
611.10	1660.67
611.44	1652.16
611.79	1644.20
612.14	1635.35
612.49	1625.86
612.83	1617.30
613.18	1609.11
613.53	1601.06
613.88	1592.71
614.22	1584.50
614.57	1575.76
614.92	1567.51
615.27	1559.92
615.61	1551.39
615.96	1543.22
616.31	1535.29
616.65	1527.79
617.00	1520.09
617.35	1512.24
617.70	1503.88
618.04	1495.21
618.39	1486.83
618.74	1479.31
619.08	1470.89
619.43	1463.34
619.78	1456.23
620.12	1449.16
620.47	1441.65
620.82	1433.36
621.16	1425.62
621.51	1417.79
621.85	1410.09
622.20	1401.43
622.55	1392.87
622.89	1384.84
623.24	1377.01
623.59	1369.54
623.93	1361.93
624.28	1354.61
624.62	1347.05
624.97	1339.70
625.32	1332.77
625.66	1325.63
626.01	1318.37
626.35	1311.01
626.70	1303.04
627.04	1295.41
627.39	1287.44
627.73	1279.78
628.08	1272.75
628.43	1265.58
628.77	1258.28
629.12	1250.79
629.46	1243.66
629.81	1235.97
630.15	1228.66
630.50	1221.30
630.84	1213.17
631.19	1205.07
631.53	1197.42
631.88	1189.82
632.22	1182.16
632.57	1174.81
632.91	1167.28
633.26	1159.85
633.60	1152.25
633.95	1145.06
634.29	1137.82
634.64	1131.08
634.98	1123.78
635.32	1116.63
635.67	1109.85
636.01	1103.03
636.36	1096.12
636.70	1089.41
637.05	1082.97
637.39	1076.45
637.73	1069.92
638.08	1063.79
638.42	1057.80
638.77	1051.27
639.11	1044.65
639.45	1038.24
639.80	1031.53
640.14	1025.11
640.49	1018.49
640.83	1012.15
641.17	1005.92
641.52	999.66
641.86	993.11
642.20	987.14
642.55	980.63
642.89	974.16
643.23	967.52
643.58	961.75
643.92	955.56
644.26	949.53
644.61	943.41
644.95	937.33
645.29	930.88
645.64	924.18
645.98	917.87
646.32	911.85
646.66	905.82
647.01	899.94
647.35	894.17
647.69	888.27
648.04	882.69
648.38	876.98
648.72	870.94
649.06	864.90
649.41	858.90
649.75	852.95
650.09	846.98
650.43	841.25
650.78	834.95
651.12	828.94
651.46	823.20
651.80	817.50
652.14	812.01
652.49	806.59
652.83	801.35
653.17	795.77
653.51	790.15
653.85	784.68
654.20	779.11
654.54	773.09
654.88	767.23
655.22	761.21
655.56	755.37
655.90	749.81
656.25	744.54
656.59	739.17
656.93	734.07
657.27	728.89
657.61	723.40
657.95	718.28
658.29	713.19
658.64	707.88
658.98	702.52
659.32	696.99
659.66	691.70
660.00	686.39
660.34	681.37
660.68	676.39
661.02	671.30
661.36	666.54
661.70	662.00
662.05	657.70
662.39	653.46
662.73	649.01
663.07	644.65
663.41	640.18
663.75	635.77
664.09	631.12
664.43	626.72
664.77	622.61
665.11	618.38
665.45	614.19
665.79	610.06
666.13	605.89
666.47	601.81
666.81	597.64
667.15	593.48
667.49	589.51
667.83	585.60
668.17	581.64
668.51	577.58
668.85	573.52
669.19	569.58
669.53	565.71
669.87	561.81
670.21	558.08
670.55	554.31
670.89	550.79
671.23	547.40
671.57	543.81
671.91	540.25
672.25	536.66
672.58	533.15
672.92	529.69
673.26	526.45
673.60	523.30
673.94	520.15
674.28	517.14
674.62	514.15
674.96	511.06
675.30	508.17
675.64	505.13
675.97	502.31
676.31	499.39
676.65	496.43
676.99	493.71
677.33	490.86
677.67	488.10
678.01	485.08
678.34	482.08
678.68	479.21
679.02	476.39
679.36	473.64
679.70	470.84
680.04	468.09
680.37	465.27
680.71	462.43
681.05	459.81
681.39	457.12
681.73	454.45
682.06	451.89
682.40	449.31
682.74	446.80
683.08	444.21
683.42	441.59
683.75	439.04
684.09	436.36
684.43	433.80
684.77	431.31
685.10	428.92
685.44	426.61
685.78	424.27
686.12	421.93
686.45	419.61
686.79	417.36
687.13	415.12
687.46	412.92
687.80	410.73
688.14	408.44
688.48	406.35
688.81	404.14
689.15	401.91
689.49	399.72
689.82	397.59
690.16	395.47
690.50	393.50
690.83	391.55
691.17	389.59
691.51	387.73
691.84	385.86
692.18	383.94
692.52	381.97
692.85	379.99
693.19	378.09
693.52	376.22
693.86	374.34
694.20	372.56
694.53	370.76
694.87	368.83
695.21	367.01
695.54	365.19
695.88	363.40
696.21	361.71
696.55	359.98
696.88	358.26
697.22	356.55
697.56	354.87
697.89	353.23
698.23	351.60
698.56	349.93
698.90	348.31
699.23	346.67
699.57	345.07
699.90	343.56
700.24	342.02
700.58	340.54
700.91	339.02
701.25	337.54
701.58	336.12
701.92	334.78
702.25	333.44
702.59	332.03
702.92	330.68
703.26	329.34
703.59	328.03
703.93	326.83
704.26	325.61
704.60	324.30
704.93	323.00
705.26	321.77
705.60	320.59
705.93	319.40
706.27	318.28
706.60	317.23
706.94	316.10
707.27	314.94
707.61	313.80
707.94	312.79
708.27	311.64
708.61	310.59
708.94	309.53
709.28	308.51
709.61	307.51
709.94	306.53
710.28	305.48
710.61	304.50
710.95	303.40
711.28	302.43
711.61	301.49
711.95	300.55
712.28	299.60
712.61	298.59
712.95	297.64
713.28	296.78
713.61	295.85
713.95	294.94
714.28	294.10
714.61	293.22
714.95	292.34
715.28	291.46
715.61	290.51
715.95	289.65
716.28	288.76
716.61	287.90
716.95	287.08
717.28	286.32
717.61	285.54
717.94	284.81
718.28	284.01
718.61	283.25
718.94	282.53
719.27	281.84
719.61	281.16
719.94	280.46
720.27	279.73
720.60	279.03
720.94	278.40
721.27	277.78
721.60	277.19
721.93	276.59
722.27	276.09
722.60	275.53
722.93	274.94
723.26	274.41
723.59	273.85
723.93	273.27
724.26	272.71
724.59	272.10
724.92	271.53
725.25	271.02
725.59	270.52
725.92	270.02
726.25	269.47
726.58	268.98
726.91	268.46
727.24	267.96
727.57	267.50
727.91	266.97
728.24	266.50
728.57	265.97
728.90	265.49
729.23	264.97
729.56	264.56
729.89	264.08
730.22	263.60
730.55	263.11
730.89	262.69
731.22	262.25
731.55	261.82
731.88	261.37
732.21	260.94
732.54	260.52
732.87	260.06
733.20	259.69
733.53	259.30
733.86	258.96
734.19	258.57
734.52	258.20
734.85	257.88
735.18	257.43
735.51	257.07
735.84	256.69
736.17	256.33
736.50	255.86
736.83	255.65
737.16	255.32
737.49	254.99
737.82	254.63
738.15	254.32
738.48	254.01
738.81	253.68
739.14	253.33
739.47	253.00
739.80	252.69
740.13	252.38
740.46	252.04
740.79	251.69
741.12	251.39
741.45	251.03
741.78	250.71
742.11	250.47
742.44	250.18
742.77	249.90
743.10	249.58
743.43	249.35
743.75	248.98
744.08	248.81
744.41	248.53
744.74	248.26
745.07	247.95
745.40	247.70
745.73	247.48
746.06	247.22
746.39	246.92
746.71	246.63
747.04	246.31
747.37	246.06
747.70	245.83
748.03	245.54
748.36	245.29
748.68	245.02
749.01	244.73
749.34	244.51
749.67	244.27
750.00	244.04
750.33	243.83
750.65	243.58
750.98	243.23
751.31	243.03
751.64	242.79
751.97	242.60
752.29	242.35
752.62	242.08
752.95	241.84
753.28	241.68
753.60	241.52
753.93	241.34
754.26	241.14
754.59	240.85
754.91	240.65
755.24	240.47
755.57	240.28
755.90	240.11
756.22	239.89
756.55	239.69
756.88	239.50
757.20	239.28
757.53	239.08
757.86	238.92
758.19	238.75
758.51	238.59
758.84	238.37
759.17	238.22
759.49	238.06
759.82	237.93
760.15	237.75
760.47	237.57
760.80	237.38
761.13	237.22
761.45	237.11
761.78	236.95
762.11	236.82
762.43	236.68
762.76	236.53
763.08	236.37
763.41	236.23
763.74	236.12
764.06	235.97
764.39	235.84
764.71	235.67
765.04	235.51
765.37	235.40
765.69	235.24
766.02	235.12
766.34	234.99
766.67	234.83
767.00	234.72
767.32	234.66
767.65	234.62
767.97	234.52
768.30	234.38
768.62	234.30
768.95	234.17
769.27	234.06
769.60	233.97
769.92	233.86
770.25	233.75
770.57	233.63
770.90	233.51
771.22	233.39
771.55	233.29
771.87	233.22
772.20	233.13
772.52	233.14
772.85	233.15
773.17	233.05
773.50	233.00
773.82	232.90
774.15	232.75
774.47	232.63
774.80	232.51
775.12	232.43
775.45	232.35
775.77	232.27
776.09	232.16
776.42	232.10
776.74	232.06
777.07	232.00
777.39	231.91
777.72	231.82
778.04	231.78
778.36	231.73
778.69	231.68
779.01	231.59
779.33	231.43
779.66	231.27
779.98	231.23
780.31	231.13
780.63	231.10
780.95	231.09
781.28	231.03
781.60	231.00
781.92	230.93
782.25	230.84
782.57	230.79
782.89	230.71
783.22	230.62
783.54	230.51
783.86	230.45
784.19	230.38
784.51	230.35
784.83	230.26
785.16	230.16
785.48	230.08
785.80	230.01
786.12	229.97
786.45	229.90
786.77	229.83
787.09	229.79
787.42	229.69
787.74	229.63
788.06	229.55
788.38	229.49
788.71	229.44
789.03	229.43
789.35	229.39
789.67	229.34
789.99	229.31
790.32	229.27
790.64	229.23
790.96	229.29
791.28	229.24
791.61	229.17
791.93	229.14
792.25	229.09
792.57	229.13
792.89	229.08
793.21	229.04
793.54	228.97
793.86	228.91
794.18	228.89
794.50	228.81
794.82	228.78
795.14	228.76
795.47	228.72
795.79	228.70
796.11	228.65
796.43	228.60
796.75	228.56
797.07	228.54
797.39	228.50
797.71	228.38
798.04	228.33
798.36	228.34
798.68	228.33
799.00	228.31
799.32	228.22
799.64	228.18
799.96	228.14
800.28	228.13
800.60	228.09
800.92	228.09
801.24	228.07
801.56	228.04
801.89	227.98
802.21	227.91
802.53	227.84
802.85	227.83
803.17	227.86
803.49	227.79
803.81	227.71
804.13	227.70
804.45	227.66
804.77	227.65
805.09	227.60
805.41	227.54
805.73	227.49
806.05	227.43
806.37	227.42
806.69	227.41
807.01	227.37
807.33	227.38
807.65	227.28
807.97	227.29
808.28	227.29
808.60	227.29
808.92	227.31
809.24	227.40
809.56	227.33
809.88	227.29
810.20	227.31
810.52	227.34
810.84	227.28
811.16	227.25
811.48	227.22
811.80	227.25
812.12	227.22
812.43	227.22
812.75	227.23
813.07	227.18
813.39	227.15
813.71	227.13
814.03	227.09
814.35	227.07
814.67	227.00
814.98	226.95
815.30	226.91
815.62	226.87
815.94	226.73
816.26	226.77
816.58	226.70
816.89	226.68
817.21	226.64
817.53	226.61
817.85	226.60
818.17	226.56
818.48	226.52
818.80	226.56
819.12	226.50
819.44	226.46
819.76	226.45
820.07	226.43
820.39	226.41
820.71	226.40
821.03	226.40
821.34	226.41
821.66	226.42
821.98	226.39
822.30	226.34
822.61	226.41
822.93	226.33
823.25	226.35
823.57	226.33
823.88	226.33
824.20	226.31
824.52	226.33
824.83	226.34
825.15	226.25
825.47	226.19
825.79	226.19
826.10	226.19
826.42	226.15
826.74	226.17
827.05	226.16
827.37	226.14
827.69	226.14
828.00	226.13
828.32	226.07
828.64	226.08
828.95	226.14
829.27	226.10
829.58	226.05
829.90	226.04
830.22	226.02
830.53	225.99
830.85	225.98
831.17	225.92
831.48	225.90
831.80	225.93
832.11	225.94
832.43	225.92
832.75	225.90
833.06	225.93
833.38	225.89
833.69	225.87
834.01	225.86
834.32	225.82
834.64	225.81
834.96	225.80
835.27	225.81
835.59	225.76
835.90	225.74
836.22	225.77
836.53	225.74
836.85	225.71
837.16	225.79
837.48	225.81
837.79	225.84
838.11	225.85
838.42	225.84
838.74	225.83
839.05	225.82
839.37	225.82
839.68	225.78
840.00	225.76
840.31	225.77
840.63	225.77
840.94	225.78
841.26	225.74
841.57	225.75
841.88	225.71
842.20	225.69
842.51	225.65
842.83	225.68
843.14	225.72
843.46	225.71
843.77	225.66
844.08	225.60
844.40	225.57
844.71	225.54
845.03	225.53
845.34	225.52
845.65	225.53
845.97	225.53
846.28	225.51
846.60	225.51
846.91	225.50
847.22	225.47
847.54	225.50
847.85	225.51
848.16	225.48
848.48	225.44
848.79	225.47
849.10	225.49
849.42	225.47
849.73	225.41
850.04	225.43
850.36	225.39
850.67	225.41
850.98	225.43
851.30	225.46
851.61	225.48
851.92	225.45
852.23	225.52
852.55	225.50
852.86	225.52
853.17	225.54
853.49	225.59
853.80	225.62
854.11	225.61
854.42	225.62
854.74	225.64
855.05	225.64
855.36	225.59
855.67	225.60
855.99	225.60
856.30	225.76
856.61	225.74
856.92	225.73
857.23	225.76
857.55	225.73
857.86	225.72
858.17	225.72
858.48	225.70
858.79	225.67
859.11	225.69
859.42	225.68
859.73	225.68
860.04	225.64
860.35	225.63
860.66	225.62
860.98	225.60
861.29	225.60
861.60	225.61
861.91	225.67
862.22	225.64
862.53	225.59
862.84	225.47
863.16	225.51
863.47	225.52
863.78	225.51
864.09	225.52
864.40	225.55
864.71	225.55
865.02	225.55
865.33	225.54
865.64	225.51
865.95	225.54
866.27	225.58
866.58	225.60
866.89	225.60
867.20	225.57
867.51	225.59
867.82	225.60
868.13	225.64
868.44	225.63
868.75	225.65
869.06	225.68
869.37	225.67
869.68	225.66
869.99	225.64
870.30	225.64
870.61	225.66
870.92	225.60
871.23	225.58
871.54	225.64
871.85	225.63
872.16	225.62
872.47	225.59
872.78	225.52
873.09	225.52
873.40	225.51
873.71	225.51
874.02	225.50
874.33	225.49
874.64	225.44
874.95	225.47
875.26	225.44
875.56	225.46
875.87	225.47
876.18	225.45
876.49	225.59
876.80	225.57
877.11	225.55
877.42	225.56
877.73	225.56
878.04	225.51
878.35	225.52
878.66	225.53
878.96	225.54
879.27	225.51
879.58	225.50
879.89	225.48
880.20	225.53
880.51	225.51
880.82	225.49
881.12	225.49
881.43	225.47
881.74	225.44
882.05	225.42
882.36	225.43
882.67	225.42
882.97	225.28
883.28	225.29
883.59	225.25
883.90	225.24
884.21	225.23
884.51	225.24
884.82	225.22
885.13	225.21
885.44	225.20
885.74	225.22
886.05	225.20
886.36	225.20
886.67	225.14
886.98	225.21
887.28	225.22
887.59	225.20
887.90	225.17
888.20	225.18
888.51	225.17
888.82	225.12
889.13	225.12
889.43	225.20
889.74	225.15
890.05	225.17
890.35	225.17
890.66	225.18
890.97	225.14
891.28	225.11
891.58	225.13
891.89	225.13
892.20	225.11
892.50	225.09
892.81	225.07
893.12	225.10
893.42	225.06
893.73	225.06
894.04	225.09
894.34	225.10
894.65	225.09
894.95	225.10
895.26	225.13
895.57	225.16
895.87	225.07
896.18	225.11
896.48	225.12
896.79	225.12
897.10	225.12
897.40	225.14
897.71	225.14
898.01	225.10
898.32	225.14
898.63	225.16
898.93	225.18
899.24	225.20
899.54	225.17
899.85	225.14
900.15	225.14
900.46	225.13
900.76	225.13
901.07	225.12
901.38	225.15
901.68	225.14
901.99	225.07
902.29	225.08
902.60	225.05
902.90	225.03
903.21	225.03
903.51	224.98
903.82	225.00
904.12	225.03
904.43	225.03
904.73	225.01
905.03	224.99
905.34	225.08
905.64	225.04
905.95	225.04
906.25	225.06
906.56	225.03
906.86	225.02
907.17	225.01
907.47	225.03
907.77	224.98
908.08	224.93
908.38	224.97
908.69	225.01
908.99	225.05
909.30	225.04
909.60	225.02
909.90	225.03
910.21	225.01
910.51	224.97
910.81	225.00
911.12	224.98
911.42	225.02
911.73	224.92
912.03	224.96
912.33	224.99
912.64	224.97
912.94	224.93
913.24	224.93
913.55	224.92
913.85	224.94
914.15	224.97
914.46	225.01
914.76	224.99
915.06	224.93
915.37	224.90
915.67	224.92
915.97	224.94
916.27	224.94
916.58	224.92
916.88	224.92
917.18	224.89
917.49	224.96
917.79	224.89
918.09	224.88
918.39	224.86
918.70	224.85
919.00	224.84
919.30	224.89
919.60	224.86
919.91	224.84
920.21	224.82
920.51	224.76
920.81	224.72
921.12	224.73
921.42	224.72
921.72	224.72
922.02	224.73
922.32	224.71
922.63	224.73
922.93	224.81
923.23	224.84
923.53	224.83
923.83	224.76
924.13	224.80
924.44	224.82
924.74	224.87
925.04	224.90
925.34	224.91
925.64	224.86
925.94	224.89
926.24	224.95
926.55	224.94
926.85	224.97
927.15	224.99
927.45	225.00
927.75	225.03
928.05	225.04
928.35	225.02
928.65	225.06
928.95	225.06
929.26	224.97
929.56	224.95
929.86	224.96
930.16	224.97
930.46	224.97
930.76	224.95
931.06	224.89
931.36	224.85
931.66	224.87
931.96	224.90
932.26	224.91
932.56	224.89
932.86	224.88
933.16	224.88
933.46	224.86
933.76	224.89
934.06	224.89
934.36	224.95
934.66	224.93
934.96	224.90
935.26	224.92
935.56	224.95
935.86	224.97
936.16	224.97
936.46	224.94
936.76	224.91
937.06	224.91
937.36	224.91
937.66	224.92
937.96	224.94
938.26	224.91
938.56	224.89
938.86	224.88
939.16	224.94
939.46	224.97
939.76	225.00
940.06	224.95
940.35	224.95
940.65	224.88
940.95	224.93
941.25	224.93
941.55	224.92
941.85	224.95
942.15	225.00
942.45	225.00
942.75	225.02
943.04	225.01
943.34	225.05
943.64	225.09
943.94	225.09
944.24	225.09
944.54	225.11
944.84	225.12
945.13	225.14
945.43	225.07
945.73	225.06
946.03	225.05
946.33	225.06
946.62	225.02
946.92	225.06
947.22	225.01
947.52	224.99
947.82	225.00
948.11	224.98
948.41	224.94
948.71	224.93
949.01	224.89
949.31	224.91
949.60	224.86
949.90	224.87
950.20	224.84
950.50	224.83
950.79	224.81
951.09	224.85
951.39	224.85
951.69	224.88
951.98	224.89
952.28	224.88
952.58	224.85
952.87	224.87
953.17	224.85
953.47	224.87
953.76	224.87
954.06	224.83
954.36	224.82
954.66	224.79
954.95	224.81
955.25	224.83
955.55	224.82
955.84	224.83
956.14	224.83
956.44	224.86
956.73	224.86
957.03	224.90
957.32	224.87
957.62	224.83
957.92	224.83
958.21	224.82
958.51	224.93
958.81	224.97
959.10	224.97
959.40	224.99
959.69	224.96
959.99	224.99
960.29	225.00
960.58	224.96
960.88	225.01
961.17	225.02
961.47	225.05
961.76	225.04
962.06	225.07
962.36	225.05
962.65	225.02
962.95	225.01
963.24	224.99
963.54	225.00
963.83	224.99
964.13	224.99
964.42	224.96
964.72	224.87
965.01	224.87
965.31	224.88
965.60	224.85
965.90	224.91
966.19	224.90
966.49	224.91
966.78	224.94
967.08	224.91
967.37	224.91
967.67	224.89
967.96	224.89
968.26	224.89
968.55	224.91
968.85	224.91
969.14	224.93
969.43	224.91
969.73	224.89
970.02	224.89
970.32	224.87
970.61	224.87
970.91	224.83
971.20	224.84
971.49	224.80
971.79	224.83
972.08	224.79
972.38	224.79
972.67	224.80
972.96	224.86
973.26	224.86
973.55	224.86
973.85	224.85
974.14	224.88
974.43	224.88
974.73	224.86
975.02	224.86
975.31	224.86
975.61	224.88
975.90	224.88
976.19	224.89
976.49	224.88
976.78	224.90
977.07	224.90
977.37	224.88
977.66	224.92
977.95	224.88
978.24	224.90
978.54	224.91
978.83	224.90
979.12	224.87
979.42	224.90
979.71	224.87
980.00	224.87
980.29	224.86
980.59	224.85
980.88	224.87
981.17	224.88
981.46	224.86
981.76	224.88
982.05	224.91
982.34	224.90
982.63	224.91
982.93	224.91
983.22	224.97
983.51	224.97
983.80	224.98
984.09	225.04
984.39	225.01
984.68	225.00
984.97	224.99
985.26	224.96
985.55	224.95
985.85	224.95
986.14	224.97
986.43	224.98
986.72	224.97
987.01	224.93
987.30	224.92
987.59	224.92
987.89	224.90
988.18	224.88
988.47	224.88
988.76	224.87
989.05	224.86
989.34	224.84
989.63	224.87
989.92	224.88
990.22	224.84
990.51	224.85
990.80	224.85
991.09	224.88
991.38	224.87
991.67	224.83
991.96	224.81
992.25	224.83
992.54	224.83
992.83	224.83
993.12	224.83
993.41	224.85
993.70	224.87
993.99	224.87
994.28	224.85
994.58	224.88
994.87	224.89
995.16	224.86
995.45	224.84
995.74	224.80
996.03	224.80
996.32	224.82
996.61	224.83
996.90	224.81
997.19	224.79
997.48	224.80
997.77	224.77
998.06	224.77
998.34	224.76
998.63	224.73
998.92	224.75
999.21	224.78
999.50	224.74
999.79	224.72
1000.08	224.75
1000.37	224.76
1000.66	224.74
1000.95	224.73
1001.24	224.77
1001.53	224.77
1001.82	224.73
1002.11	224.68
1002.40	224.69
1002.68	224.74
1002.97	224.78
1003.26	224.78
1003.55	224.76
1003.84	224.80
1004.13	224.83
1004.42	224.81
1004.71	224.84
1004.99	224.80
1005.28	224.80
1005.57	224.81
1005.86	224.81
1006.15	224.79
1006.44	224.77
1006.72	224.80
1007.01	224.80
1007.30	224.79
1007.59	224.80
1007.88	224.82
1008.17	224.83
1008.45	224.83
1008.74	224.76
1009.03	224.75
1009.32	224.75
1009.60	224.74
1009.89	224.76
1010.18	224.72
1010.47	224.74
1010.76	224.73
1011.04	224.73
1011.33	224.76
1011.62	224.80
1011.91	224.79
1012.19	224.80
1012.48	224.80
1012.77	224.80
1013.05	224.86
1013.34	224.85
1013.63	224.83
1013.92	224.86
1014.20	224.86
1014.49	224.86
1014.78	224.86
1015.06	224.84
1015.35	224.82
1015.64	224.85
1015.92	224.84
1016.21	224.83
1016.50	224.83
1016.78	224.86
1017.07	224.86
1017.36	224.83
1017.64	224.79
1017.93	224.81
1018.22	224.78
1018.50	224.80
1018.79	224.80
1019.08	224.75
1019.36	224.75
1019.65	224.76
1019.93	224.79
1020.22	224.84
1020.51	224.87
1020.79	224.87
1021.08	224.18
1021.36	224.92
1021.65	224.88
1021.94	224.84
1022.22	224.78
1022.51	224.97
1022.79	225.39
1023.08	225.30
1023.36	225.98
1023.65	224.59
>>>>>End Processed Spectral Data<<<<<
