SpectraSuite Data File
++++++++++++++++++++++++++++++++++++
Date: Fri Feb 01 18:00:48 EST 2013
User: group
Dark Spectrum Present: No
Reference Spectrum Present: No
Number of Sampled Component Spectra: 1
Spectrometers: USB2E7196
Integration Time (usec): 35000 (USB2E7196)
Spectra Averaged: 100 (USB2E7196)
Boxcar Smoothing: 10 (USB2E7196)
Correct for Electrical Dark: No (USB2E7196)
Strobe/Lamp Enabled: No (USB2E7196)
Correct for Detector Non-linearity: No (USB2E7196)
Correct for Stray Light: No (USB2E7196)
Number of Pixels in Processed Spectrum: 2048
>>>>>Begin Processed Spectral Data<<<<<
339.09	0.00
339.48	213.24
339.86	214.14
340.24	215.76
340.63	217.06
341.01	219.99
341.39	219.96
341.78	221.56
342.16	222.95
342.54	223.10
342.93	211.41
343.31	222.09
343.69	222.61
344.07	223.10
344.46	223.53
344.84	223.90
345.22	224.14
345.60	224.38
345.99	224.54
346.37	224.66
346.75	224.75
347.13	224.83
347.52	224.87
347.90	224.95
348.28	224.96
348.66	225.03
349.05	225.01
349.43	225.00
349.81	225.07
350.19	225.07
350.57	225.14
350.96	225.18
351.34	225.24
351.72	225.32
352.10	225.38
352.48	225.43
352.87	225.48
353.25	225.52
353.63	225.58
354.01	225.64
354.39	225.69
354.77	225.75
355.15	225.85
355.54	225.93
355.92	225.96
356.30	226.03
356.68	226.15
357.06	226.22
357.44	226.26
357.82	226.32
358.20	226.41
358.58	226.45
358.97	226.50
359.35	226.62
359.73	226.69
360.11	226.76
360.49	226.84
360.87	226.90
361.25	226.96
361.63	227.06
362.01	227.08
362.39	227.15
362.77	227.23
363.15	227.24
363.53	227.28
363.91	227.29
364.29	227.33
364.67	227.28
365.05	227.28
365.43	227.32
365.81	227.34
366.19	227.39
366.57	227.44
366.95	227.41
367.33	227.39
367.71	227.41
368.09	227.40
368.47	227.38
368.85	227.35
369.23	227.38
369.61	227.29
369.99	227.34
370.37	227.29
370.75	227.30
371.13	227.27
371.51	227.24
371.89	227.22
372.27	227.22
372.65	227.17
373.03	227.13
373.41	227.09
373.78	227.06
374.16	226.97
374.54	226.90
374.92	226.87
375.30	226.84
375.68	226.76
376.06	226.75
376.44	226.68
376.82	226.66
377.19	226.60
377.57	226.54
377.95	226.45
378.33	226.38
378.71	226.29
379.09	226.24
379.47	226.19
379.84	226.13
380.22	226.03
380.60	225.98
380.98	225.94
381.36	225.89
381.73	225.81
382.11	225.78
382.49	225.75
382.87	225.69
383.25	225.63
383.62	225.68
384.00	225.62
384.38	225.59
384.76	225.54
385.13	225.54
385.51	225.50
385.89	225.47
386.27	225.43
386.64	225.40
387.02	225.37
387.40	225.31
387.78	225.28
388.15	225.29
388.53	225.23
388.91	225.22
389.29	225.14
389.66	225.13
390.04	225.11
390.42	225.09
390.79	225.09
391.17	225.06
391.55	224.93
391.92	224.89
392.30	224.89
392.68	224.84
393.05	224.82
393.43	224.81
393.81	224.79
394.18	224.78
394.56	224.77
394.94	224.82
395.31	224.81
395.69	224.84
396.06	224.83
396.44	224.86
396.82	224.88
397.19	224.98
397.57	225.00
397.95	225.03
398.32	225.02
398.70	225.08
399.07	225.14
399.45	225.22
399.82	225.27
400.20	225.29
400.58	225.38
400.95	225.39
401.33	225.48
401.70	225.66
402.08	225.74
402.45	225.84
402.83	225.92
403.20	226.08
403.58	226.16
403.95	226.32
404.33	226.43
404.71	226.58
405.08	226.76
405.46	226.93
405.83	227.09
406.21	227.28
406.58	227.45
406.96	227.65
407.33	227.82
407.70	228.06
408.08	228.41
408.45	228.68
408.83	229.01
409.20	229.25
409.58	229.49
409.95	229.84
410.33	230.17
410.70	230.47
411.08	230.82
411.45	231.22
411.82	231.59
412.20	232.08
412.57	232.59
412.95	233.00
413.32	233.51
413.69	234.02
414.07	234.59
414.44	235.19
414.82	235.80
415.19	236.53
415.56	237.22
415.94	237.92
416.31	238.76
416.68	239.55
417.06	240.52
417.43	241.40
417.81	242.40
418.18	243.41
418.55	244.56
418.93	245.73
419.30	246.93
419.67	248.18
420.04	249.47
420.42	250.78
420.79	252.32
421.16	253.86
421.54	255.49
421.91	257.13
422.28	258.84
422.66	260.63
423.03	262.37
423.40	264.20
423.77	266.16
424.15	268.10
424.52	270.12
424.89	272.30
425.26	274.38
425.64	276.33
426.01	278.50
426.38	280.75
426.75	283.02
427.13	285.36
427.50	287.84
427.87	290.38
428.24	292.94
428.61	295.35
428.99	297.98
429.36	300.82
429.73	303.62
430.10	306.35
430.47	309.17
430.85	312.07
431.22	315.10
431.59	318.31
431.96	321.31
432.33	324.63
432.70	327.82
433.08	331.63
433.45	335.26
433.82	338.79
434.19	342.72
434.56	346.51
434.93	350.07
435.30	353.62
435.68	357.48
436.05	361.31
436.42	365.10
436.79	368.52
437.16	372.21
437.53	376.06
437.90	379.81
438.27	383.52
438.64	387.34
439.01	390.89
439.38	393.97
439.75	396.92
440.13	400.41
440.50	403.59
440.87	406.12
441.24	408.71
441.61	411.67
441.98	413.65
442.35	416.17
442.72	418.74
443.09	421.16
443.46	422.55
443.83	423.34
444.20	424.00
444.57	425.21
444.94	425.60
445.31	426.03
445.68	426.52
446.05	426.67
446.42	426.20
446.79	425.57
447.16	424.96
447.53	424.54
447.90	422.89
448.27	421.33
448.64	419.20
449.01	417.70
449.37	415.00
449.74	412.45
450.11	409.32
450.48	406.02
450.85	402.65
451.22	399.76
451.59	397.06
451.96	394.50
452.33	390.88
452.70	387.68
453.07	383.87
453.43	380.01
453.80	376.24
454.17	372.64
454.54	369.22
454.91	365.53
455.28	361.91
455.65	358.59
456.02	355.22
456.38	352.32
456.75	348.68
457.12	345.64
457.49	342.64
457.86	339.74
458.23	337.18
458.59	334.36
458.96	331.50
459.33	328.96
459.70	326.41
460.07	324.40
460.43	322.07
460.80	319.86
461.17	317.88
461.54	315.84
461.91	313.89
462.27	311.92
462.64	310.20
463.01	308.34
463.38	306.55
463.74	304.73
464.11	303.13
464.48	301.75
464.85	300.22
465.21	299.04
465.58	297.75
465.95	296.23
466.32	295.00
466.68	293.82
467.05	292.56
467.42	291.32
467.78	290.06
468.15	288.82
468.52	287.88
468.88	286.68
469.25	285.63
469.62	284.75
469.98	283.82
470.35	282.94
470.72	282.15
471.08	281.26
471.45	280.53
471.82	279.75
472.18	278.91
472.55	278.34
472.92	277.57
473.28	276.91
473.65	276.33
474.02	275.70
474.38	275.17
474.75	274.69
475.11	274.19
475.48	273.78
475.85	273.42
476.21	273.09
476.58	272.84
476.94	272.57
477.31	272.26
477.67	271.98
478.04	271.73
478.41	271.54
478.77	271.50
479.14	271.33
479.50	271.29
479.87	271.28
480.23	271.29
480.60	271.32
480.96	271.35
481.33	271.48
481.69	271.62
482.06	271.74
482.42	271.91
482.79	272.12
483.15	272.40
483.52	272.79
483.88	273.10
484.25	273.40
484.61	273.81
484.98	274.24
485.34	274.78
485.71	275.37
486.07	276.00
486.44	276.55
486.80	277.26
487.17	277.95
487.53	278.80
487.90	279.65
488.26	280.61
488.62	281.63
488.99	282.63
489.35	283.76
489.72	284.91
490.08	286.18
490.44	287.47
490.81	288.87
491.17	290.27
491.54	291.84
491.90	293.46
492.26	295.18
492.63	297.00
492.99	298.89
493.36	300.88
493.72	303.01
494.08	305.26
494.45	307.64
494.81	310.16
495.17	312.69
495.54	315.40
495.90	318.21
496.26	321.19
496.63	324.33
496.99	327.60
497.35	331.11
497.72	334.69
498.08	338.43
498.44	342.28
498.80	346.39
499.17	350.70
499.53	355.16
499.89	359.76
500.26	364.56
500.62	369.55
500.98	374.81
501.34	380.18
501.71	385.82
502.07	391.59
502.43	397.53
502.79	403.69
503.16	410.18
503.52	416.87
503.88	423.70
504.24	430.74
504.60	438.05
504.97	445.61
505.33	453.43
505.69	461.66
506.05	469.95
506.41	478.38
506.78	487.06
507.14	496.03
507.50	505.34
507.86	514.97
508.22	524.77
508.59	534.62
508.95	544.91
509.31	555.40
509.67	566.20
510.03	577.29
510.39	588.61
510.75	600.12
511.12	611.80
511.48	623.85
511.84	636.05
512.20	648.40
512.56	661.21
512.92	674.23
513.28	687.52
513.64	700.96
514.00	714.62
514.37	728.52
514.73	742.64
515.09	756.71
515.45	770.97
515.81	785.58
516.17	800.64
516.53	815.95
516.89	831.29
517.25	846.64
517.61	862.15
517.97	877.81
518.33	893.51
518.69	909.58
519.05	925.72
519.41	942.22
519.77	959.13
520.13	975.86
520.49	992.65
520.85	1009.37
521.21	1026.42
521.57	1044.08
521.93	1061.33
522.29	1079.15
522.65	1096.94
523.01	1114.71
523.37	1132.37
523.73	1150.09
524.09	1167.63
524.45	1185.48
524.81	1203.68
525.17	1222.21
525.53	1240.87
525.89	1259.37
526.25	1278.01
526.61	1296.22
526.97	1314.87
527.33	1333.12
527.68	1351.49
528.04	1369.70
528.40	1388.07
528.76	1407.09
529.12	1425.64
529.48	1444.44
529.84	1462.30
530.20	1480.85
530.56	1499.80
530.91	1519.19
531.27	1538.05
531.63	1556.60
531.99	1575.30
532.35	1593.39
532.71	1611.28
533.07	1629.48
533.42	1647.48
533.78	1665.66
534.14	1684.10
534.50	1701.56
534.86	1719.40
535.21	1736.85
535.57	1755.07
535.93	1772.81
536.29	1789.68
536.65	1806.93
537.00	1823.79
537.36	1841.35
537.72	1857.92
538.08	1874.43
538.44	1890.34
538.79	1906.40
539.15	1922.12
539.51	1937.95
539.87	1954.52
540.22	1970.52
540.58	1986.63
540.94	2002.10
541.29	2016.93
541.65	2031.85
542.01	2047.18
542.37	2061.81
542.72	2076.33
543.08	2090.46
543.44	2105.17
543.79	2118.68
544.15	2131.80
544.51	2145.77
544.87	2158.91
545.22	2172.19
545.58	2184.80
545.94	2196.84
546.29	2208.85
546.65	2221.00
547.01	2232.61
547.36	2243.43
547.72	2253.96
548.07	2263.89
548.43	2274.20
548.79	2284.34
549.14	2293.92
549.50	2303.19
549.86	2312.89
550.21	2322.28
550.57	2331.33
550.92	2339.82
551.28	2348.82
551.64	2358.00
551.99	2366.40
552.35	2374.55
552.70	2382.65
553.06	2390.64
553.41	2398.94
553.77	2406.88
554.13	2414.85
554.48	2422.78
554.84	2430.34
555.19	2437.35
555.55	2444.42
555.90	2450.70
556.26	2457.57
556.61	2463.92
556.97	2470.05
557.32	2475.97
557.68	2481.72
558.03	2487.50
558.39	2492.73
558.74	2498.97
559.10	2504.38
559.45	2509.61
559.81	2515.41
560.16	2520.65
560.52	2525.23
560.87	2529.94
561.23	2533.87
561.58	2538.17
561.94	2542.11
562.29	2545.45
562.64	2549.64
563.00	2553.37
563.35	2558.22
563.71	2562.62
564.06	2567.27
564.42	2571.55
564.77	2575.31
565.12	2578.99
565.48	2582.28
565.83	2585.37
566.19	2588.05
566.54	2589.89
566.89	2592.12
567.25	2593.77
567.60	2596.05
567.96	2599.02
568.31	2600.84
568.66	2603.01
569.02	2604.38
569.37	2605.56
569.72	2607.53
570.08	2608.59
570.43	2609.38
570.78	2609.56
571.14	2608.60
571.49	2607.78
571.84	2607.98
572.20	2607.49
572.55	2607.03
572.90	2605.70
573.26	2604.80
573.61	2603.29
573.96	2602.06
574.31	2599.37
574.67	2596.73
575.02	2593.53
575.37	2590.11
575.72	2586.56
576.08	2583.18
576.43	2580.20
576.78	2576.59
577.13	2573.38
577.49	2570.17
577.84	2566.94
578.19	2563.14
578.54	2559.70
578.90	2555.55
579.25	2549.67
579.60	2544.46
579.95	2539.01
580.30	2533.76
580.66	2528.29
581.01	2523.04
581.36	2517.75
581.71	2513.39
582.06	2508.68
582.42	2503.75
582.77	2498.15
583.12	2493.14
583.47	2488.34
583.82	2482.92
584.17	2477.36
584.53	2471.36
584.88	2465.29
585.23	2458.92
585.58	2452.86
585.93	2446.76
586.28	2441.37
586.63	2436.06
586.98	2430.61
587.34	2425.47
587.69	2420.31
588.04	2414.70
588.39	2408.51
588.74	2401.44
589.09	2394.48
589.44	2386.92
589.79	2380.13
590.14	2373.86
590.49	2366.56
590.84	2359.32
591.19	2352.55
591.54	2345.12
591.89	2337.01
592.25	2329.46
592.60	2321.24
592.95	2312.80
593.30	2304.35
593.65	2295.80
594.00	2287.64
594.35	2279.24
594.70	2270.05
595.05	2261.97
595.40	2253.60
595.75	2244.99
596.10	2237.92
596.45	2230.25
596.80	2223.11
597.15	2215.58
597.50	2207.53
597.85	2200.00
598.19	2192.31
598.54	2184.23
598.89	2176.64
599.24	2169.83
599.59	2162.15
599.94	2154.94
600.29	2147.65
600.64	2140.03
600.99	2131.51
601.34	2123.78
601.69	2115.82
602.04	2108.01
602.39	2099.28
602.74	2091.28
603.08	2083.49
603.43	2075.50
603.78	2067.06
604.13	2058.72
604.48	2050.33
604.83	2042.36
605.18	2034.51
605.53	2025.44
605.87	2016.08
606.22	2007.56
606.57	1998.23
606.92	1989.48
607.27	1981.18
607.62	1973.03
607.96	1964.68
608.31	1957.01
608.66	1947.92
609.01	1939.06
609.36	1930.21
609.70	1920.92
610.05	1911.45
610.40	1902.54
610.75	1892.83
611.10	1883.87
611.44	1873.90
611.79	1864.51
612.14	1854.29
612.49	1843.38
612.83	1833.41
613.18	1823.78
613.53	1814.20
613.88	1804.22
614.22	1794.67
614.57	1784.49
614.92	1775.07
615.27	1766.25
615.61	1756.49
615.96	1747.16
616.31	1738.24
616.65	1729.56
617.00	1720.68
617.35	1711.65
617.70	1701.83
618.04	1691.91
618.39	1682.08
618.74	1673.22
619.08	1663.42
619.43	1654.45
619.78	1646.35
620.12	1637.98
620.47	1629.19
620.82	1619.63
621.16	1610.84
621.51	1601.63
621.85	1592.73
622.20	1582.67
622.55	1572.68
622.89	1563.31
623.24	1554.24
623.59	1545.31
623.93	1536.38
624.28	1527.79
624.62	1519.10
624.97	1510.60
625.32	1502.50
625.66	1494.29
626.01	1485.80
626.35	1477.09
626.70	1467.94
627.04	1458.82
627.39	1449.56
627.73	1440.75
628.08	1432.65
628.43	1424.06
628.77	1415.60
629.12	1406.82
629.46	1398.49
629.81	1389.70
630.15	1381.23
630.50	1372.58
630.84	1362.99
631.19	1353.72
631.53	1344.86
631.88	1335.78
632.22	1326.85
632.57	1318.37
632.91	1309.51
633.26	1300.87
633.60	1292.11
633.95	1283.69
634.29	1275.39
634.64	1267.59
634.98	1259.06
635.32	1250.64
635.67	1242.86
636.01	1235.01
636.36	1226.96
636.70	1219.12
637.05	1211.41
637.39	1203.73
637.73	1195.99
638.08	1189.13
638.42	1182.08
638.77	1174.51
639.11	1166.99
639.45	1159.47
639.80	1151.65
640.14	1144.17
640.49	1136.51
640.83	1129.24
641.17	1122.13
641.52	1114.71
641.86	1107.05
642.20	1100.18
642.55	1092.82
642.89	1085.29
643.23	1077.58
643.58	1070.83
643.92	1063.76
644.26	1056.81
644.61	1049.80
644.95	1042.94
645.29	1035.35
645.64	1027.39
645.98	1019.96
646.32	1013.00
646.66	1005.98
647.01	999.23
647.35	992.66
647.69	985.77
648.04	979.29
648.38	972.47
648.72	965.61
649.06	958.74
649.41	951.81
649.75	944.88
650.09	938.01
650.43	931.35
650.78	924.19
651.12	917.28
651.46	910.65
651.80	904.08
652.14	897.76
652.49	891.48
652.83	885.57
653.17	879.12
653.51	872.56
653.85	866.27
654.20	859.80
654.54	852.78
654.88	846.19
655.22	839.37
655.56	832.77
655.90	826.41
656.25	820.34
656.59	814.24
656.93	808.41
657.27	802.53
657.61	796.27
657.95	790.42
658.29	784.51
658.64	778.34
658.98	772.12
659.32	765.78
659.66	759.76
660.00	753.66
660.34	747.97
660.68	742.24
661.02	736.43
661.36	730.94
661.70	725.70
662.05	720.66
662.39	715.68
662.73	710.53
663.07	705.48
663.41	700.31
663.75	695.12
664.09	689.83
664.43	684.67
664.77	679.92
665.11	675.01
665.45	670.24
665.79	665.58
666.13	660.88
666.47	656.16
666.81	651.38
667.15	646.70
667.49	642.11
667.83	637.67
668.17	633.20
668.51	628.50
668.85	623.87
669.19	619.39
669.53	614.93
669.87	610.45
670.21	606.10
670.55	601.89
670.89	597.90
671.23	593.90
671.57	589.78
671.91	585.66
672.25	581.60
672.58	577.49
672.92	573.46
673.26	569.74
673.60	566.05
673.94	562.44
674.28	559.02
674.62	555.62
674.96	552.06
675.30	548.70
675.64	545.32
675.97	542.08
676.31	538.82
676.65	535.41
676.99	532.32
677.33	529.02
677.67	525.80
678.01	522.29
678.34	518.84
678.68	515.53
679.02	512.29
679.36	509.10
679.70	505.97
680.04	502.85
680.37	499.64
680.71	496.47
681.05	493.46
681.39	490.30
681.73	487.24
682.06	484.35
682.40	481.44
682.74	478.48
683.08	475.51
683.42	472.48
683.75	469.63
684.09	466.61
684.43	463.76
684.77	460.92
685.10	458.19
685.44	455.57
685.78	452.94
686.12	450.33
686.45	447.63
686.79	444.99
687.13	442.43
687.46	439.83
687.80	437.27
688.14	434.64
688.48	432.28
688.81	429.68
689.15	427.16
689.49	424.62
689.82	422.23
690.16	419.85
690.50	417.59
690.83	415.34
691.17	413.02
691.51	410.88
691.84	408.71
692.18	406.48
692.52	404.15
692.85	401.89
693.19	399.75
693.52	397.62
693.86	395.48
694.20	393.42
694.53	391.32
694.87	389.21
695.21	387.18
695.54	385.02
695.88	382.99
696.21	380.99
696.55	378.99
696.88	377.07
697.22	375.14
697.56	373.19
697.89	371.29
698.23	369.50
698.56	367.57
698.90	365.73
699.23	363.85
699.57	362.07
699.90	360.28
700.24	358.39
700.58	356.66
700.91	354.95
701.25	353.22
701.58	351.65
701.92	350.08
702.25	348.49
702.59	346.97
702.92	345.43
703.26	343.90
703.59	342.46
703.93	341.07
704.26	339.64
704.60	338.19
704.93	336.70
705.26	335.23
705.60	333.83
705.93	332.48
706.27	331.25
706.60	330.00
706.94	328.75
707.27	327.49
707.61	326.20
707.94	324.98
708.27	323.78
708.61	322.50
708.94	321.32
709.28	320.16
709.61	318.94
709.94	317.88
710.28	316.67
710.61	315.50
710.95	314.22
711.28	313.11
711.61	312.02
711.95	310.99
712.28	309.90
712.61	308.79
712.95	307.65
713.28	306.61
713.61	305.57
713.95	304.58
714.28	303.59
714.61	302.59
714.95	301.61
715.28	300.60
715.61	299.61
715.95	298.62
716.28	297.59
716.61	296.63
716.95	295.65
717.28	294.85
717.61	293.97
717.94	293.12
718.28	292.21
718.61	291.31
718.94	290.48
719.27	289.69
719.61	288.94
719.94	288.22
720.27	287.38
720.60	286.60
720.94	285.89
721.27	285.16
721.60	284.48
721.93	283.79
722.27	283.14
722.60	282.49
722.93	281.84
723.26	281.25
723.59	280.60
723.93	279.95
724.26	279.25
724.59	278.58
724.92	277.99
725.25	277.42
725.59	276.85
725.92	276.25
726.25	275.66
726.58	275.08
726.91	274.45
727.24	273.90
727.57	273.34
727.91	272.69
728.24	272.16
728.57	271.60
728.90	271.06
729.23	270.48
729.56	269.97
729.89	269.41
730.22	268.85
730.55	268.33
730.89	267.83
731.22	267.32
731.55	266.85
731.88	266.33
732.21	265.82
732.54	265.33
732.87	264.81
733.20	264.32
733.53	263.88
733.86	263.46
734.19	262.96
734.52	262.51
734.85	262.12
735.18	261.68
735.51	261.26
735.84	260.84
736.17	260.44
736.50	260.01
736.83	259.73
737.16	259.35
737.49	258.96
737.82	258.55
738.15	258.17
738.48	257.79
738.81	257.42
739.14	257.07
739.47	256.66
739.80	256.33
740.13	255.97
740.46	255.59
740.79	255.24
741.12	254.92
741.45	254.56
741.78	254.16
742.11	253.82
742.44	253.48
742.77	253.11
743.10	252.76
743.43	252.38
743.75	251.95
744.08	251.75
744.41	251.45
744.74	251.13
745.07	250.79
745.40	250.50
745.73	250.19
746.06	249.85
746.39	249.56
746.71	249.23
747.04	248.94
747.37	248.66
747.70	248.34
748.03	248.06
748.36	247.80
748.68	247.52
749.01	247.19
749.34	246.92
749.67	246.69
750.00	246.44
750.33	246.25
750.65	245.99
750.98	245.59
751.31	245.30
751.64	245.06
751.97	244.88
752.29	244.61
752.62	244.34
752.95	244.11
753.28	243.86
753.60	243.60
753.93	243.41
754.26	243.17
754.59	242.91
754.91	242.66
755.24	242.43
755.57	242.23
755.90	242.02
756.22	241.79
756.55	241.52
756.88	241.27
757.20	240.99
757.53	240.76
757.86	240.56
758.19	240.38
758.51	240.18
758.84	239.95
759.17	239.74
759.49	239.55
759.82	239.40
760.15	239.24
760.47	239.07
760.80	238.86
761.13	238.73
761.45	238.53
761.78	238.35
762.11	238.16
762.43	237.98
762.76	237.86
763.08	237.71
763.41	237.58
763.74	237.45
764.06	237.32
764.39	237.16
764.71	237.03
765.04	236.90
765.37	236.73
765.69	236.55
766.02	236.41
766.34	236.30
766.67	236.11
767.00	235.97
767.32	235.91
767.65	235.80
767.97	235.65
768.30	235.53
768.62	235.41
768.95	235.32
769.27	235.21
769.60	235.07
769.92	234.96
770.25	234.81
770.57	234.67
770.90	234.55
771.22	234.46
771.55	234.31
771.87	234.22
772.20	234.13
772.52	234.12
772.85	234.11
773.17	233.99
773.50	233.91
773.82	233.79
774.15	233.64
774.47	233.52
774.80	233.40
775.12	233.31
775.45	233.24
775.77	233.13
776.09	233.06
776.42	233.01
776.74	232.95
777.07	232.86
777.39	232.78
777.72	232.70
778.04	232.61
778.36	232.52
778.69	232.44
779.01	232.37
779.33	232.21
779.66	232.02
779.98	231.94
780.31	231.85
780.63	231.82
780.95	231.75
781.28	231.65
781.60	231.58
781.92	231.56
782.25	231.47
782.57	231.37
782.89	231.30
783.22	231.19
783.54	231.08
783.86	231.03
784.19	230.93
784.51	230.87
784.83	230.78
785.16	230.71
785.48	230.62
785.80	230.54
786.12	230.51
786.45	230.48
786.77	230.45
787.09	230.40
787.42	230.29
787.74	230.25
788.06	230.19
788.38	230.13
788.71	230.01
789.03	229.98
789.35	229.97
789.67	229.89
789.99	229.87
790.32	229.81
790.64	229.75
790.96	229.82
791.28	229.73
791.61	229.69
791.93	229.67
792.25	229.64
792.57	229.65
792.89	229.56
793.21	229.51
793.54	229.43
793.86	229.39
794.18	229.35
794.50	229.28
794.82	229.27
795.14	229.25
795.47	229.24
795.79	229.17
796.11	229.09
796.43	229.04
796.75	228.99
797.07	228.97
797.39	228.93
797.71	228.80
798.04	228.79
798.36	228.76
798.68	228.69
799.00	228.67
799.32	228.57
799.64	228.57
799.96	228.52
800.28	228.51
800.60	228.44
800.92	228.43
801.24	228.39
801.56	228.36
801.89	228.30
802.21	228.28
802.53	228.27
802.85	228.28
803.17	228.29
803.49	228.26
803.81	228.23
804.13	228.20
804.45	228.20
804.77	228.17
805.09	228.14
805.41	228.13
805.73	228.08
806.05	228.03
806.37	228.00
806.69	227.92
807.01	227.86
807.33	227.85
807.65	227.80
807.97	227.83
808.28	227.80
808.60	227.77
808.92	227.70
809.24	227.71
809.56	227.62
809.88	227.56
810.20	227.51
810.52	227.49
810.84	227.44
811.16	227.44
811.48	227.38
811.80	227.39
812.12	227.35
812.43	227.35
812.75	227.33
813.07	227.29
813.39	227.31
813.71	227.28
814.03	227.25
814.35	227.22
814.67	227.15
814.98	227.08
815.30	227.03
815.62	226.99
815.94	226.90
816.26	226.97
816.58	226.92
816.89	226.93
817.21	226.86
817.53	226.85
817.85	226.81
818.17	226.83
818.48	226.75
818.80	226.68
819.12	226.64
819.44	226.63
819.76	226.60
820.07	226.59
820.39	226.58
820.71	226.56
821.03	226.55
821.34	226.51
821.66	226.50
821.98	226.51
822.30	226.52
822.61	226.56
822.93	226.50
823.25	226.46
823.57	226.40
823.88	226.43
824.20	226.39
824.52	226.37
824.83	226.32
825.15	226.27
825.47	226.30
825.79	226.26
826.10	226.24
826.42	226.22
826.74	226.19
827.05	226.17
827.37	226.16
827.69	226.11
828.00	226.13
828.32	226.16
828.64	226.13
828.95	226.20
829.27	226.12
829.58	226.07
829.90	226.11
830.22	226.13
830.53	226.11
830.85	226.10
831.17	226.09
831.48	226.07
831.80	226.12
832.11	226.13
832.43	226.12
832.75	226.12
833.06	226.17
833.38	226.16
833.69	226.14
834.01	226.14
834.32	226.18
834.64	226.16
834.96	226.15
835.27	226.15
835.59	226.07
835.90	226.08
836.22	226.11
836.53	226.07
836.85	226.02
837.16	226.09
837.48	226.08
837.79	226.07
838.11	226.07
838.42	226.03
838.74	226.02
839.05	226.01
839.37	225.98
839.68	225.90
840.00	225.89
840.31	225.91
840.63	225.93
840.94	225.89
841.26	225.89
841.57	225.89
841.88	225.92
842.20	225.93
842.51	225.90
842.83	225.89
843.14	225.98
843.46	225.99
843.77	225.93
844.08	225.92
844.40	225.91
844.71	225.87
845.03	225.87
845.34	225.82
845.65	225.84
845.97	225.83
846.28	225.84
846.60	225.83
846.91	225.82
847.22	225.77
847.54	225.79
847.85	225.79
848.16	225.73
848.48	225.67
848.79	225.68
849.10	225.70
849.42	225.69
849.73	225.61
850.04	225.63
850.36	225.59
850.67	225.61
850.98	225.61
851.30	225.65
851.61	225.65
851.92	225.68
852.23	225.70
852.55	225.69
852.86	225.71
853.17	225.74
853.49	225.78
853.80	225.78
854.11	225.74
854.42	225.70
854.74	225.72
855.05	225.73
855.36	225.69
855.67	225.69
855.99	225.69
856.30	225.76
856.61	225.74
856.92	225.75
857.23	225.71
857.55	225.67
857.86	225.66
858.17	225.67
858.48	225.63
858.79	225.59
859.11	225.61
859.42	225.56
859.73	225.54
860.04	225.50
860.35	225.47
860.66	225.47
860.98	225.51
861.29	225.49
861.60	225.47
861.91	225.47
862.22	225.42
862.53	225.38
862.84	225.28
863.16	225.30
863.47	225.31
863.78	225.30
864.09	225.30
864.40	225.26
864.71	225.24
865.02	225.25
865.33	225.27
865.64	225.24
865.95	225.24
866.27	225.30
866.58	225.30
866.89	225.32
867.20	225.32
867.51	225.28
867.82	225.30
868.13	225.32
868.44	225.31
868.75	225.36
869.06	225.38
869.37	225.41
869.68	225.37
869.99	225.36
870.30	225.39
870.61	225.42
870.92	225.43
871.23	225.44
871.54	225.47
871.85	225.50
872.16	225.49
872.47	225.51
872.78	225.45
873.09	225.46
873.40	225.44
873.71	225.47
874.02	225.48
874.33	225.45
874.64	225.41
874.95	225.44
875.26	225.41
875.56	225.40
875.87	225.39
876.18	225.39
876.49	225.47
876.80	225.47
877.11	225.44
877.42	225.44
877.73	225.47
878.04	225.44
878.35	225.44
878.66	225.43
878.96	225.41
879.27	225.44
879.58	225.44
879.89	225.45
880.20	225.46
880.51	225.46
880.82	225.48
881.12	225.49
881.43	225.47
881.74	225.46
882.05	225.47
882.36	225.44
882.67	225.43
882.97	225.35
883.28	225.33
883.59	225.30
883.90	225.29
884.21	225.29
884.51	225.25
884.82	225.20
885.13	225.22
885.44	225.21
885.74	225.17
886.05	225.15
886.36	225.10
886.67	225.05
886.98	225.09
887.28	225.08
887.59	225.07
887.90	225.07
888.20	225.06
888.51	225.07
888.82	225.10
889.13	225.09
889.43	225.15
889.74	225.15
890.05	225.14
890.35	225.12
890.66	225.09
890.97	225.11
891.28	225.11
891.58	225.11
891.89	225.10
892.20	225.09
892.50	225.08
892.81	225.08
893.12	225.09
893.42	225.05
893.73	225.03
894.04	225.05
894.34	225.03
894.65	225.02
894.95	224.98
895.26	224.95
895.57	225.00
895.87	224.87
896.18	224.91
896.48	224.92
896.79	224.94
897.10	224.98
897.40	224.97
897.71	224.97
898.01	224.99
898.32	224.99
898.63	224.98
898.93	224.99
899.24	224.99
899.54	224.97
899.85	224.95
900.15	224.94
900.46	224.94
900.76	224.96
901.07	224.96
901.38	224.97
901.68	224.94
901.99	224.91
902.29	224.95
902.60	224.92
902.90	224.95
903.21	224.97
903.51	224.92
903.82	224.94
904.12	224.95
904.43	224.95
904.73	224.98
905.03	224.99
905.34	225.10
905.64	225.08
905.95	225.09
906.25	225.09
906.56	225.11
906.86	225.10
907.17	225.08
907.47	225.11
907.77	225.14
908.08	225.16
908.38	225.16
908.69	225.16
908.99	225.18
909.30	225.14
909.60	225.13
909.90	225.17
910.21	225.15
910.51	225.13
910.81	225.12
911.12	225.10
911.42	225.09
911.73	224.97
912.03	224.98
912.33	225.04
912.64	225.05
912.94	225.01
913.24	225.01
913.55	225.02
913.85	224.99
914.15	224.99
914.46	224.98
914.76	224.95
915.06	224.97
915.37	224.96
915.67	225.01
915.97	225.00
916.27	224.98
916.58	224.97
916.88	224.97
917.18	224.95
917.49	225.01
917.79	225.03
918.09	225.04
918.39	225.10
918.70	225.05
919.00	225.04
919.30	225.09
919.60	225.12
919.91	225.12
920.21	225.14
920.51	225.09
920.81	225.10
921.12	225.12
921.42	225.11
921.72	225.12
922.02	225.10
922.32	225.10
922.63	225.08
922.93	225.12
923.23	225.12
923.53	225.10
923.83	225.02
924.13	225.03
924.44	225.02
924.74	225.01
925.04	225.04
925.34	225.06
925.64	225.02
925.94	224.98
926.24	225.03
926.55	225.01
926.85	225.06
927.15	225.05
927.45	225.04
927.75	225.05
928.05	225.04
928.35	225.03
928.65	225.04
928.95	225.06
929.26	225.03
929.56	225.07
929.86	225.09
930.16	225.08
930.46	225.05
930.76	225.10
931.06	225.04
931.36	225.00
931.66	225.02
931.96	225.05
932.26	225.04
932.56	224.97
932.86	225.00
933.16	224.95
933.46	224.96
933.76	224.93
934.06	224.93
934.36	224.96
934.66	224.96
934.96	224.96
935.26	224.99
935.56	224.98
935.86	224.96
936.16	224.96
936.46	224.95
936.76	224.94
937.06	224.88
937.36	224.89
937.66	224.91
937.96	224.88
938.26	224.86
938.56	224.87
938.86	224.87
939.16	224.86
939.46	224.90
939.76	224.88
940.06	224.91
940.35	224.87
940.65	224.83
940.95	224.83
941.25	224.82
941.55	224.76
941.85	224.74
942.15	224.72
942.45	224.72
942.75	224.70
943.04	224.72
943.34	224.73
943.64	224.73
943.94	224.72
944.24	224.72
944.54	224.74
944.84	224.73
945.13	224.72
945.43	224.74
945.73	224.73
946.03	224.74
946.33	224.73
946.62	224.73
946.92	224.74
947.22	224.76
947.52	224.78
947.82	224.79
948.11	224.84
948.41	224.84
948.71	224.84
949.01	224.89
949.31	224.86
949.60	224.88
949.90	224.90
950.20	224.87
950.50	224.85
950.79	224.86
951.09	224.87
951.39	224.87
951.69	224.86
951.98	224.88
952.28	224.87
952.58	224.87
952.87	224.88
953.17	224.88
953.47	224.84
953.76	224.81
954.06	224.81
954.36	224.79
954.66	224.78
954.95	224.82
955.25	224.82
955.55	224.84
955.84	224.80
956.14	224.82
956.44	224.82
956.73	224.83
957.03	224.82
957.32	224.82
957.62	224.84
957.92	224.85
958.21	224.86
958.51	224.97
958.81	225.00
959.10	225.01
959.40	225.04
959.69	225.03
959.99	225.07
960.29	225.06
960.58	225.03
960.88	225.05
961.17	225.00
961.47	225.04
961.76	225.02
962.06	225.06
962.36	225.06
962.65	225.03
962.95	225.03
963.24	225.02
963.54	225.04
963.83	225.02
964.13	225.00
964.42	224.96
964.72	224.88
965.01	224.88
965.31	224.90
965.60	224.88
965.90	224.91
966.19	224.89
966.49	224.90
966.78	224.90
967.08	224.89
967.37	224.88
967.67	224.84
967.96	224.84
968.26	224.84
968.55	224.84
968.85	224.84
969.14	224.82
969.43	224.81
969.73	224.82
970.02	224.80
970.32	224.77
970.61	224.78
970.91	224.74
971.20	224.72
971.49	224.67
971.79	224.67
972.08	224.62
972.38	224.60
972.67	224.59
972.96	224.61
973.26	224.59
973.55	224.64
973.85	224.62
974.14	224.65
974.43	224.66
974.73	224.64
975.02	224.67
975.31	224.69
975.61	224.66
975.90	224.60
976.19	224.60
976.49	224.62
976.78	224.61
977.07	224.64
977.37	224.64
977.66	224.67
977.95	224.65
978.24	224.69
978.54	224.71
978.83	224.69
979.12	224.69
979.42	224.68
979.71	224.65
980.00	224.65
980.29	224.65
980.59	224.61
980.88	224.65
981.17	224.60
981.46	224.56
981.76	224.56
982.05	224.64
982.34	224.65
982.63	224.65
982.93	224.65
983.22	224.63
983.51	224.64
983.80	224.64
984.09	224.64
984.39	224.65
984.68	224.66
984.97	224.68
985.26	224.66
985.55	224.68
985.85	224.67
986.14	224.69
986.43	224.67
986.72	224.68
987.01	224.66
987.30	224.70
987.59	224.72
987.89	224.75
988.18	224.71
988.47	224.73
988.76	224.69
989.05	224.69
989.34	224.68
989.63	224.71
989.92	224.70
990.22	224.68
990.51	224.65
990.80	224.63
991.09	224.64
991.38	224.70
991.67	224.67
991.96	224.69
992.25	224.69
992.54	224.68
992.83	224.68
993.12	224.66
993.41	224.70
993.70	224.74
993.99	224.74
994.28	224.76
994.58	224.79
994.87	224.86
995.16	224.89
995.45	224.88
995.74	224.85
996.03	224.87
996.32	224.92
996.61	224.95
996.90	224.94
997.19	224.91
997.48	224.88
997.77	224.88
998.06	224.88
998.34	224.88
998.63	224.90
998.92	224.91
999.21	224.94
999.50	224.91
999.79	224.88
1000.08	224.89
1000.37	224.88
1000.66	224.84
1000.95	224.81
1001.24	224.79
1001.53	224.81
1001.82	224.79
1002.11	224.76
1002.40	224.76
1002.68	224.74
1002.97	224.81
1003.26	224.82
1003.55	224.83
1003.84	224.83
1004.13	224.83
1004.42	224.84
1004.71	224.82
1004.99	224.80
1005.28	224.82
1005.57	224.84
1005.86	224.84
1006.15	224.87
1006.44	224.85
1006.72	224.87
1007.01	224.85
1007.30	224.83
1007.59	224.80
1007.88	224.83
1008.17	224.83
1008.45	224.81
1008.74	224.78
1009.03	224.75
1009.32	224.73
1009.60	224.74
1009.89	224.75
1010.18	224.70
1010.47	224.69
1010.76	224.68
1011.04	224.65
1011.33	224.65
1011.62	224.61
1011.91	224.61
1012.19	224.61
1012.48	224.60
1012.77	224.61
1013.05	224.68
1013.34	224.68
1013.63	224.69
1013.92	224.69
1014.20	224.70
1014.49	224.70
1014.78	224.75
1015.06	224.71
1015.35	224.72
1015.64	224.72
1015.92	224.74
1016.21	224.74
1016.50	224.75
1016.78	224.75
1017.07	224.77
1017.36	224.77
1017.64	224.78
1017.93	224.77
1018.22	224.72
1018.50	224.70
1018.79	224.70
1019.08	224.65
1019.36	224.65
1019.65	224.62
1019.93	224.64
1020.22	224.65
1020.51	224.70
1020.79	224.68
1021.08	224.26
1021.36	224.04
1021.65	224.95
1021.94	224.77
1022.22	224.31
1022.51	224.04
1022.79	225.29
1023.08	224.89
1023.36	225.90
1023.65	224.63
>>>>>End Processed Spectral Data<<<<<
