SpectraSuite Data File
++++++++++++++++++++++++++++++++++++
Date: Fri Feb 01 17:36:50 EST 2013
User: group
Dark Spectrum Present: No
Reference Spectrum Present: No
Number of Sampled Component Spectra: 1
Spectrometers: USB2E7196
Integration Time (usec): 35000 (USB2E7196)
Spectra Averaged: 100 (USB2E7196)
Boxcar Smoothing: 10 (USB2E7196)
Correct for Electrical Dark: No (USB2E7196)
Strobe/Lamp Enabled: No (USB2E7196)
Correct for Detector Non-linearity: No (USB2E7196)
Correct for Stray Light: No (USB2E7196)
Number of Pixels in Processed Spectrum: 2048
>>>>>Begin Processed Spectral Data<<<<<
339.09	0.00
339.48	212.81
339.86	214.09
340.24	215.74
340.63	216.57
341.01	219.77
341.39	219.36
341.78	220.89
342.16	221.79
342.54	223.16
342.93	211.09
343.31	221.76
343.69	222.31
344.07	222.80
344.46	223.22
344.84	223.61
345.22	223.86
345.60	224.14
345.99	224.33
346.37	224.46
346.75	224.54
347.13	224.64
347.52	224.71
347.90	224.84
348.28	224.90
348.66	224.94
349.05	224.92
349.43	224.97
349.81	224.97
350.19	225.04
350.57	225.10
350.96	225.15
351.34	225.27
351.72	225.36
352.10	225.44
352.48	225.50
352.87	225.56
353.25	225.60
353.63	225.64
354.01	225.69
354.39	225.76
354.77	225.83
355.15	225.90
355.54	225.97
355.92	225.99
356.30	226.05
356.68	226.18
357.06	226.28
357.44	226.32
357.82	226.39
358.20	226.48
358.58	226.52
358.97	226.60
359.35	226.67
359.73	226.75
360.11	226.82
360.49	226.89
360.87	226.94
361.25	227.02
361.63	227.09
362.01	227.15
362.39	227.21
362.77	227.27
363.15	227.29
363.53	227.30
363.91	227.35
364.29	227.40
364.67	227.34
365.05	227.35
365.43	227.37
365.81	227.38
366.19	227.40
366.57	227.44
366.95	227.44
367.33	227.40
367.71	227.38
368.09	227.40
368.47	227.38
368.85	227.38
369.23	227.39
369.61	227.35
369.99	227.38
370.37	227.36
370.75	227.39
371.13	227.36
371.51	227.34
371.89	227.30
372.27	227.25
372.65	227.23
373.03	227.19
373.41	227.16
373.78	227.14
374.16	227.07
374.54	227.00
374.92	226.95
375.30	226.90
375.68	226.84
376.06	226.79
376.44	226.73
376.82	226.65
377.19	226.57
377.57	226.50
377.95	226.39
378.33	226.32
378.71	226.19
379.09	226.14
379.47	226.08
379.84	226.04
380.22	225.95
380.60	225.87
380.98	225.81
381.36	225.74
381.73	225.65
382.11	225.59
382.49	225.54
382.87	225.48
383.25	225.44
383.62	225.47
384.00	225.41
384.38	225.35
384.76	225.34
385.13	225.32
385.51	225.30
385.89	225.24
386.27	225.20
386.64	225.17
387.02	225.11
387.40	225.02
387.78	224.97
388.15	224.97
388.53	224.94
388.91	224.92
389.29	224.89
389.66	224.87
390.04	224.85
390.42	224.85
390.79	224.84
391.17	224.79
391.55	224.67
391.92	224.63
392.30	224.65
392.68	224.61
393.05	224.61
393.43	224.62
393.81	224.63
394.18	224.65
394.56	224.69
394.94	224.74
395.31	224.77
395.69	224.81
396.06	224.83
396.44	224.86
396.82	224.86
397.19	224.95
397.57	224.97
397.95	225.05
398.32	225.04
398.70	225.09
399.07	225.16
399.45	225.21
399.82	225.26
400.20	225.31
400.58	225.36
400.95	225.40
401.33	225.46
401.70	225.60
402.08	225.67
402.45	225.75
402.83	225.84
403.20	225.97
403.58	226.06
403.95	226.16
404.33	226.28
404.71	226.41
405.08	226.54
405.46	226.67
405.83	226.78
406.21	226.93
406.58	227.09
406.96	227.25
407.33	227.46
407.70	227.67
408.08	227.91
408.45	228.15
408.83	228.38
409.20	228.60
409.58	228.79
409.95	229.06
410.33	229.32
410.70	229.55
411.08	229.84
411.45	230.15
411.82	230.46
412.20	230.82
412.57	231.24
412.95	231.55
413.32	231.97
413.69	232.38
414.07	232.83
414.44	233.27
414.82	233.74
415.19	234.28
415.56	234.83
415.94	235.39
416.31	236.03
416.68	236.64
417.06	237.39
417.43	238.07
417.81	238.86
418.18	239.69
418.55	240.56
418.93	241.45
419.30	242.39
419.67	243.36
420.04	244.36
420.42	245.41
420.79	246.62
421.16	247.83
421.54	249.09
421.91	250.36
422.28	251.72
422.66	253.13
423.03	254.47
423.40	255.86
423.77	257.35
424.15	258.81
424.52	260.41
424.89	262.06
425.26	263.71
425.64	265.22
426.01	266.87
426.38	268.60
426.75	270.35
427.13	272.16
427.50	274.05
427.87	276.00
428.24	277.95
428.61	279.82
428.99	281.84
429.36	284.05
429.73	286.15
430.10	288.23
430.47	290.38
430.85	292.59
431.22	294.94
431.59	297.42
431.96	299.81
432.33	302.39
432.70	304.86
433.08	307.80
433.45	310.60
433.82	313.36
434.19	316.35
434.56	319.24
434.93	322.01
435.30	324.76
435.68	327.78
436.05	330.70
436.42	333.58
436.79	336.24
437.16	339.00
437.53	342.06
437.90	344.99
438.27	347.90
438.64	350.82
439.01	353.50
439.38	355.85
439.75	358.09
440.13	360.67
440.50	363.12
440.87	365.03
441.24	367.03
441.61	369.21
441.98	370.80
442.35	372.71
442.72	374.62
443.09	376.54
443.46	377.57
443.83	378.21
444.20	378.82
444.57	379.68
444.94	380.05
445.31	380.33
445.68	380.74
446.05	380.76
446.42	380.42
446.79	380.01
447.16	379.57
447.53	379.25
447.90	378.07
448.27	376.92
448.64	375.27
449.01	374.08
449.37	372.10
449.74	370.16
450.11	367.84
450.48	365.37
450.85	362.70
451.22	360.49
451.59	358.39
451.96	356.32
452.33	353.61
452.70	351.15
453.07	348.24
453.43	345.21
453.80	342.37
454.17	339.56
454.54	336.92
454.91	334.04
455.28	331.24
455.65	328.69
456.02	326.09
456.38	323.88
456.75	321.14
457.12	318.78
457.49	316.41
457.86	314.16
458.23	312.15
458.59	310.02
458.96	307.82
459.33	305.86
459.70	303.89
460.07	302.30
460.43	300.46
460.80	298.78
461.17	297.26
461.54	295.72
461.91	294.27
462.27	292.80
462.64	291.49
463.01	290.09
463.38	288.73
463.74	287.32
464.11	286.12
464.48	285.05
464.85	283.86
465.21	282.96
465.58	282.02
465.95	280.87
466.32	279.93
466.68	278.99
467.05	278.06
467.42	277.16
467.78	276.22
468.15	275.31
468.52	274.61
468.88	273.72
469.25	272.89
469.62	272.26
469.98	271.58
470.35	270.94
470.72	270.28
471.08	269.58
471.45	269.02
471.82	268.41
472.18	267.77
472.55	267.29
472.92	266.74
473.28	266.22
473.65	265.79
474.02	265.32
474.38	264.96
474.75	264.65
475.11	264.32
475.48	264.04
475.85	263.83
476.21	263.60
476.58	263.44
476.94	263.29
477.31	263.08
477.67	262.91
478.04	262.74
478.41	262.72
478.77	262.76
479.14	262.69
479.50	262.69
479.87	262.74
480.23	262.84
480.60	262.91
480.96	262.99
481.33	263.18
481.69	263.38
482.06	263.56
482.42	263.70
482.79	263.91
483.15	264.22
483.52	264.56
483.88	264.89
484.25	265.23
484.61	265.64
484.98	266.09
485.34	266.60
485.71	267.17
486.07	267.74
486.44	268.31
486.80	268.99
487.17	269.73
487.53	270.51
487.90	271.34
488.26	272.28
488.62	273.25
488.99	274.23
489.35	275.26
489.72	276.40
490.08	277.66
490.44	278.89
490.81	280.23
491.17	281.59
491.54	283.06
491.90	284.59
492.26	286.25
492.63	287.94
492.99	289.73
493.36	291.65
493.72	293.71
494.08	295.80
494.45	298.04
494.81	300.42
495.17	302.92
495.54	305.53
495.90	308.13
496.26	310.93
496.63	313.81
496.99	316.88
497.35	320.07
497.72	323.40
498.08	326.90
498.44	330.50
498.80	334.39
499.17	338.38
499.53	342.54
499.89	346.90
500.26	351.33
500.62	355.95
500.98	360.83
501.34	365.82
501.71	371.05
502.07	376.45
502.43	381.95
502.79	387.65
503.16	393.61
503.52	399.82
503.88	406.13
504.24	412.68
504.60	419.43
504.97	426.41
505.33	433.65
505.69	441.21
506.05	448.88
506.41	456.58
506.78	464.60
507.14	472.87
507.50	481.31
507.86	490.27
508.22	499.27
508.59	508.27
508.95	517.60
509.31	527.17
509.67	537.04
510.03	547.09
510.39	557.40
510.75	567.91
511.12	578.68
511.48	589.68
511.84	600.83
512.20	612.10
512.56	623.79
512.92	635.54
513.28	647.58
513.64	659.60
514.00	672.03
514.37	684.60
514.73	697.31
515.09	709.97
515.45	722.76
515.81	735.92
516.17	749.48
516.53	763.20
516.89	776.98
517.25	790.70
517.61	804.67
517.97	818.72
518.33	832.67
518.69	846.91
519.05	861.43
519.41	876.14
519.77	891.17
520.13	906.12
520.49	921.10
520.85	935.96
521.21	951.17
521.57	966.79
521.93	982.03
522.29	997.75
522.65	1013.46
523.01	1029.14
523.37	1044.74
523.73	1060.43
524.09	1075.98
524.45	1091.65
524.81	1107.71
525.17	1123.91
525.53	1140.15
525.89	1156.46
526.25	1172.79
526.61	1188.70
526.97	1204.84
527.33	1220.88
527.68	1236.88
528.04	1252.83
528.40	1268.80
528.76	1285.42
529.12	1301.60
529.48	1317.99
529.84	1333.56
530.20	1349.72
530.56	1366.09
530.91	1382.85
531.27	1399.09
531.63	1415.08
531.99	1431.26
532.35	1446.84
532.71	1462.37
533.07	1478.16
533.42	1493.76
533.78	1509.28
534.14	1525.09
534.50	1540.06
534.86	1555.33
535.21	1570.21
535.57	1585.64
535.93	1600.74
536.29	1615.05
536.65	1629.67
537.00	1643.97
537.36	1658.99
537.72	1673.21
538.08	1687.31
538.44	1700.86
538.79	1714.43
539.15	1727.73
539.51	1741.08
539.87	1755.18
540.22	1768.47
540.58	1782.02
540.94	1794.91
541.29	1807.53
541.65	1819.83
542.01	1832.86
542.37	1845.16
542.72	1857.24
543.08	1869.03
543.44	1881.38
543.79	1892.72
544.15	1903.64
544.51	1915.23
544.87	1926.12
545.22	1936.96
545.58	1947.31
545.94	1957.15
546.29	1967.09
546.65	1977.13
547.01	1986.67
547.36	1995.37
547.72	2003.92
548.07	2012.04
548.43	2020.36
548.79	2028.30
549.14	2036.25
549.50	2043.61
549.86	2051.30
550.21	2058.91
550.57	2066.25
550.92	2072.98
551.28	2080.15
551.64	2087.55
551.99	2094.40
552.35	2100.79
552.70	2107.09
553.06	2113.38
553.41	2119.95
553.77	2126.17
554.13	2132.30
554.48	2138.62
554.84	2144.64
555.19	2150.29
555.55	2155.72
555.90	2160.59
556.26	2166.28
556.61	2171.29
556.97	2176.26
557.32	2180.85
557.68	2185.42
558.03	2189.99
558.39	2194.03
558.74	2198.97
559.10	2203.09
559.45	2206.91
559.81	2211.53
560.16	2215.68
560.52	2219.39
560.87	2223.09
561.23	2226.14
561.58	2229.50
561.94	2232.42
562.29	2234.87
562.64	2238.16
563.00	2241.04
563.35	2244.95
563.71	2248.34
564.06	2251.79
564.42	2254.85
564.77	2257.87
565.12	2260.70
565.48	2263.13
565.83	2265.50
566.19	2267.39
566.54	2268.56
566.89	2270.42
567.25	2271.56
567.60	2273.25
567.96	2275.44
568.31	2276.73
568.66	2278.50
569.02	2279.62
569.37	2280.44
569.72	2281.89
570.08	2282.44
570.43	2282.87
570.78	2282.88
571.14	2281.62
571.49	2280.73
571.84	2280.89
572.20	2280.26
572.55	2279.53
572.90	2278.20
573.26	2277.35
573.61	2275.92
573.96	2274.82
574.31	2272.06
574.67	2269.61
575.02	2266.46
575.37	2263.35
575.72	2260.11
576.08	2256.95
576.43	2253.94
576.78	2250.80
577.13	2247.84
577.49	2244.90
577.84	2242.09
578.19	2238.58
578.54	2235.54
578.90	2231.86
579.25	2226.70
579.60	2222.05
579.95	2217.56
580.30	2212.97
580.66	2208.12
581.01	2203.41
581.36	2198.70
581.71	2194.99
582.06	2190.88
582.42	2186.88
582.77	2182.03
583.12	2177.77
583.47	2173.53
583.82	2169.07
584.17	2164.11
584.53	2159.10
584.88	2153.99
585.23	2148.45
585.58	2143.19
585.93	2137.96
586.28	2133.31
586.63	2128.66
586.98	2123.75
587.34	2119.16
587.69	2114.61
588.04	2109.72
588.39	2104.51
588.74	2098.40
589.09	2092.51
589.44	2085.96
589.79	2079.97
590.14	2074.57
590.49	2068.31
590.84	2061.98
591.19	2056.14
591.54	2049.89
591.89	2042.85
592.25	2036.35
592.60	2029.44
592.95	2022.28
593.30	2015.17
593.65	2007.89
594.00	2001.00
594.35	1994.13
594.70	1986.14
595.05	1979.32
595.40	1972.20
595.75	1964.93
596.10	1959.02
596.45	1952.63
596.80	1946.67
597.15	1940.39
597.50	1933.70
597.85	1927.22
598.19	1920.84
598.54	1914.13
598.89	1907.59
599.24	1901.75
599.59	1895.38
599.94	1889.16
600.29	1882.90
600.64	1876.53
600.99	1869.28
601.34	1862.58
601.69	1855.57
602.04	1849.08
602.39	1841.65
602.74	1834.96
603.08	1828.33
603.43	1821.53
603.78	1814.10
604.13	1806.95
604.48	1799.93
604.83	1793.17
605.18	1786.56
605.53	1778.69
605.87	1770.72
606.22	1763.51
606.57	1755.60
606.92	1747.97
607.27	1741.02
607.62	1734.25
607.96	1726.98
608.31	1720.44
608.66	1712.97
609.01	1705.58
609.36	1698.15
609.70	1690.24
610.05	1682.21
610.40	1674.53
610.75	1666.31
611.10	1658.72
611.44	1650.29
611.79	1642.07
612.14	1633.17
612.49	1623.87
612.83	1615.39
613.18	1607.06
613.53	1598.87
613.88	1590.27
614.22	1582.04
614.57	1573.18
614.92	1564.98
615.27	1557.54
615.61	1549.23
615.96	1541.05
616.31	1533.22
616.65	1525.60
617.00	1518.01
617.35	1510.21
617.70	1501.88
618.04	1493.46
618.39	1485.13
618.74	1477.37
619.08	1468.97
619.43	1461.35
619.78	1454.30
620.12	1447.14
620.47	1439.62
620.82	1431.37
621.16	1423.82
621.51	1416.10
621.85	1408.37
622.20	1399.83
622.55	1391.22
622.89	1383.13
623.24	1375.32
623.59	1367.76
623.93	1360.12
624.28	1352.79
624.62	1345.22
624.97	1338.00
625.32	1331.10
625.66	1324.01
626.01	1316.93
626.35	1309.56
626.70	1301.69
627.04	1294.01
627.39	1286.10
627.73	1278.59
628.08	1271.61
628.43	1264.45
628.77	1257.14
629.12	1249.63
629.46	1242.35
629.81	1234.76
630.15	1227.56
630.50	1220.23
630.84	1212.14
631.19	1204.09
631.53	1196.39
631.88	1188.76
632.22	1180.92
632.57	1173.38
632.91	1165.62
633.26	1158.11
633.60	1150.58
633.95	1143.27
634.29	1136.07
634.64	1129.30
634.98	1121.85
635.32	1114.70
635.67	1107.94
636.01	1101.12
636.36	1094.26
636.70	1087.68
637.05	1081.13
637.39	1074.52
637.73	1067.86
638.08	1061.79
638.42	1055.77
638.77	1049.38
639.11	1042.87
639.45	1036.53
639.80	1029.84
640.14	1023.55
640.49	1016.96
640.83	1010.59
641.17	1004.46
641.52	998.08
641.86	991.60
642.20	985.69
642.55	979.22
642.89	972.75
643.23	966.11
643.58	960.35
643.92	954.25
644.26	948.19
644.61	942.04
644.95	936.11
645.29	929.67
645.64	922.94
645.98	916.55
646.32	910.45
646.66	904.31
647.01	898.53
647.35	892.85
647.69	886.92
648.04	881.35
648.38	875.54
648.72	869.65
649.06	863.58
649.41	857.61
649.75	851.78
650.09	845.79
650.43	840.11
650.78	833.90
651.12	827.79
651.46	822.03
651.80	816.40
652.14	810.83
652.49	805.42
652.83	800.25
653.17	794.63
653.51	789.05
653.85	783.65
654.20	778.09
654.54	772.03
654.88	766.28
655.22	760.36
655.56	754.53
655.90	748.96
656.25	743.74
656.59	738.45
656.93	733.30
657.27	728.21
657.61	722.69
657.95	717.54
658.29	712.54
658.64	707.24
658.98	701.87
659.32	696.45
659.66	691.22
660.00	685.92
660.34	680.90
660.68	675.93
661.02	670.94
661.36	666.17
661.70	661.64
662.05	657.26
662.39	653.00
662.73	648.60
663.07	644.20
663.41	639.71
663.75	635.21
664.09	630.58
664.43	626.02
664.77	621.93
665.11	617.71
665.45	613.49
665.79	609.41
666.13	605.34
666.47	601.22
666.81	597.06
667.15	592.85
667.49	588.87
667.83	584.98
668.17	580.99
668.51	576.90
668.85	572.81
669.19	568.89
669.53	565.04
669.87	561.18
670.21	557.44
670.55	553.79
670.89	550.28
671.23	546.88
671.57	543.39
671.91	539.87
672.25	536.29
672.58	532.81
672.92	529.29
673.26	526.14
673.60	522.96
673.94	519.85
674.28	516.99
674.62	514.06
674.96	510.95
675.30	508.04
675.64	505.11
675.97	502.31
676.31	499.45
676.65	496.53
676.99	493.77
677.33	490.85
677.67	487.99
678.01	484.97
678.34	482.06
678.68	479.17
679.02	476.35
679.36	473.58
679.70	470.78
680.04	468.04
680.37	465.10
680.71	462.29
681.05	459.57
681.39	456.82
681.73	454.13
682.06	451.61
682.40	449.05
682.74	446.46
683.08	443.91
683.42	441.28
683.75	438.72
684.09	436.13
684.43	433.65
684.77	431.12
685.10	428.80
685.44	426.42
685.78	424.18
686.12	421.88
686.45	419.55
686.79	417.23
687.13	415.07
687.46	412.90
687.80	410.69
688.14	408.47
688.48	406.41
688.81	404.21
689.15	402.00
689.49	399.81
689.82	397.72
690.16	395.55
690.50	393.56
690.83	391.62
691.17	389.57
691.51	387.70
691.84	385.89
692.18	383.95
692.52	382.02
692.85	379.94
693.19	378.09
693.52	376.27
693.86	374.47
694.20	372.62
694.53	370.81
694.87	368.93
695.21	367.15
695.54	365.28
695.88	363.48
696.21	361.79
696.55	360.08
696.88	358.37
697.22	356.72
697.56	355.08
697.89	353.39
698.23	351.86
698.56	350.23
698.90	348.64
699.23	347.00
699.57	345.40
699.90	343.88
700.24	342.28
700.58	340.71
700.91	339.23
701.25	337.78
701.58	336.38
701.92	335.05
702.25	333.64
702.59	332.28
702.92	330.95
703.26	329.58
703.59	328.32
703.93	327.15
704.26	325.96
704.60	324.63
704.93	323.36
705.26	322.07
705.60	320.81
705.93	319.63
706.27	318.52
706.60	317.42
706.94	316.33
707.27	315.14
707.61	314.04
707.94	312.97
708.27	311.84
708.61	310.75
708.94	309.71
709.28	308.72
709.61	307.72
709.94	306.71
710.28	305.67
710.61	304.62
710.95	303.46
711.28	302.45
711.61	301.51
711.95	300.57
712.28	299.60
712.61	298.65
712.95	297.66
713.28	296.78
713.61	295.84
713.95	294.96
714.28	294.10
714.61	293.20
714.95	292.34
715.28	291.50
715.61	290.59
715.95	289.69
716.28	288.81
716.61	287.98
716.95	287.16
717.28	286.37
717.61	285.60
717.94	284.85
718.28	283.98
718.61	283.23
718.94	282.49
719.27	281.80
719.61	281.11
719.94	280.43
720.27	279.71
720.60	279.06
720.94	278.41
721.27	277.82
721.60	277.24
721.93	276.61
722.27	276.00
722.60	275.44
722.93	274.87
723.26	274.30
723.59	273.73
723.93	273.16
724.26	272.63
724.59	272.06
724.92	271.54
725.25	271.07
725.59	270.54
725.92	270.03
726.25	269.51
726.58	269.03
726.91	268.55
727.24	268.05
727.57	267.56
727.91	267.02
728.24	266.53
728.57	266.05
728.90	265.60
729.23	265.12
729.56	264.71
729.89	264.25
730.22	263.72
730.55	263.24
730.89	262.80
731.22	262.37
731.55	261.94
731.88	261.52
732.21	261.11
732.54	260.69
732.87	260.29
733.20	259.87
733.53	259.48
733.86	259.11
734.19	258.70
734.52	258.33
734.85	258.04
735.18	257.64
735.51	257.27
735.84	256.88
736.17	256.53
736.50	256.09
736.83	255.88
737.16	255.60
737.49	255.30
737.82	254.98
738.15	254.62
738.48	254.28
738.81	253.95
739.14	253.57
739.47	253.28
739.80	252.93
740.13	252.67
740.46	252.33
740.79	252.01
741.12	251.67
741.45	251.34
741.78	250.99
742.11	250.75
742.44	250.44
742.77	250.14
743.10	249.82
743.43	249.56
743.75	249.16
744.08	248.98
744.41	248.63
744.74	248.33
745.07	248.04
745.40	247.79
745.73	247.53
746.06	247.29
746.39	247.01
746.71	246.77
747.04	246.49
747.37	246.22
747.70	245.95
748.03	245.72
748.36	245.51
748.68	245.25
749.01	244.99
749.34	244.74
749.67	244.53
750.00	244.32
750.33	244.13
750.65	243.90
750.98	243.54
751.31	243.32
751.64	243.11
751.97	242.96
752.29	242.72
752.62	242.47
752.95	242.26
753.28	242.04
753.60	241.80
753.93	241.58
754.26	241.37
754.59	241.11
754.91	240.88
755.24	240.67
755.57	240.49
755.90	240.24
756.22	240.03
756.55	239.80
756.88	239.61
757.20	239.38
757.53	239.19
757.86	239.06
758.19	238.94
758.51	238.77
758.84	238.56
759.17	238.40
759.49	238.22
759.82	238.07
760.15	237.90
760.47	237.75
760.80	237.59
761.13	237.50
761.45	237.37
761.78	237.22
762.11	237.06
762.43	236.90
762.76	236.77
763.08	236.65
763.41	236.52
763.74	236.37
764.06	236.17
764.39	236.01
764.71	235.85
765.04	235.67
765.37	235.51
765.69	235.35
766.02	235.17
766.34	235.06
766.67	234.93
767.00	234.80
767.32	234.75
767.65	234.64
767.97	234.48
768.30	234.36
768.62	234.29
768.95	234.17
769.27	234.04
769.60	233.93
769.92	233.81
770.25	233.68
770.57	233.58
770.90	233.51
771.22	233.40
771.55	233.32
771.87	233.22
772.20	233.14
772.52	233.15
772.85	233.24
773.17	233.15
773.50	233.05
773.82	232.96
774.15	232.81
774.47	232.70
774.80	232.60
775.12	232.52
775.45	232.39
775.77	232.31
776.09	232.25
776.42	232.19
776.74	232.14
777.07	232.08
777.39	231.99
777.72	231.91
778.04	231.87
778.36	231.76
778.69	231.70
779.01	231.63
779.33	231.43
779.66	231.21
779.98	231.15
780.31	231.10
780.63	231.08
780.95	231.05
781.28	230.97
781.60	230.91
781.92	230.89
782.25	230.85
782.57	230.78
782.89	230.71
783.22	230.64
783.54	230.54
783.86	230.47
784.19	230.40
784.51	230.38
784.83	230.31
785.16	230.25
785.48	230.19
785.80	230.14
786.12	230.09
786.45	230.06
786.77	229.98
787.09	229.91
787.42	229.84
787.74	229.79
788.06	229.77
788.38	229.70
788.71	229.62
789.03	229.56
789.35	229.55
789.67	229.49
789.99	229.47
790.32	229.40
790.64	229.38
790.96	229.41
791.28	229.33
791.61	229.28
791.93	229.24
792.25	229.22
792.57	229.23
792.89	229.18
793.21	229.13
793.54	229.10
793.86	229.07
794.18	229.03
794.50	228.97
794.82	228.90
795.14	228.86
795.47	228.81
795.79	228.75
796.11	228.68
796.43	228.63
796.75	228.60
797.07	228.57
797.39	228.51
797.71	228.43
798.04	228.36
798.36	228.32
798.68	228.27
799.00	228.23
799.32	228.14
799.64	228.13
799.96	228.11
800.28	228.10
800.60	228.07
800.92	228.02
801.24	227.96
801.56	227.99
801.89	227.96
802.21	227.94
802.53	227.91
802.85	227.89
803.17	227.87
803.49	227.80
803.81	227.78
804.13	227.76
804.45	227.72
804.77	227.74
805.09	227.71
805.41	227.70
805.73	227.64
806.05	227.60
806.37	227.58
806.69	227.53
807.01	227.52
807.33	227.47
807.65	227.40
807.97	227.41
808.28	227.36
808.60	227.35
808.92	227.33
809.24	227.39
809.56	227.38
809.88	227.35
810.20	227.36
810.52	227.36
810.84	227.32
811.16	227.29
811.48	227.25
811.80	227.27
812.12	227.21
812.43	227.24
812.75	227.19
813.07	227.16
813.39	227.13
813.71	227.07
814.03	227.03
814.35	227.05
814.67	227.00
814.98	226.95
815.30	226.93
815.62	226.88
815.94	226.74
816.26	226.74
816.58	226.69
816.89	226.67
817.21	226.60
817.53	226.60
817.85	226.58
818.17	226.57
818.48	226.50
818.80	226.52
819.12	226.47
819.44	226.46
819.76	226.44
820.07	226.45
820.39	226.42
820.71	226.45
821.03	226.42
821.34	226.40
821.66	226.42
821.98	226.38
822.30	226.37
822.61	226.44
822.93	226.41
823.25	226.40
823.57	226.36
823.88	226.35
824.20	226.33
824.52	226.32
824.83	226.29
825.15	226.31
825.47	226.29
825.79	226.29
826.10	226.27
826.42	226.25
826.74	226.21
827.05	226.22
827.37	226.24
827.69	226.19
828.00	226.18
828.32	226.15
828.64	226.17
828.95	226.24
829.27	226.20
829.58	226.18
829.90	226.22
830.22	226.24
830.53	226.24
830.85	226.22
831.17	226.20
831.48	226.20
831.80	226.17
832.11	226.14
832.43	226.08
832.75	226.07
833.06	226.14
833.38	226.11
833.69	226.06
834.01	226.04
834.32	226.05
834.64	226.05
834.96	226.05
835.27	225.99
835.59	225.92
835.90	225.88
836.22	225.83
836.53	225.79
836.85	225.74
837.16	225.84
837.48	225.84
837.79	225.85
838.11	225.88
838.42	225.88
838.74	225.90
839.05	225.93
839.37	225.91
839.68	225.82
840.00	225.83
840.31	225.82
840.63	225.79
840.94	225.76
841.26	225.72
841.57	225.71
841.88	225.77
842.20	225.75
842.51	225.74
842.83	225.76
843.14	225.82
843.46	225.81
843.77	225.74
844.08	225.75
844.40	225.69
844.71	225.66
845.03	225.62
845.34	225.58
845.65	225.56
845.97	225.56
846.28	225.58
846.60	225.58
846.91	225.60
847.22	225.59
847.54	225.61
847.85	225.62
848.16	225.61
848.48	225.57
848.79	225.60
849.10	225.62
849.42	225.63
849.73	225.55
850.04	225.54
850.36	225.49
850.67	225.49
850.98	225.49
851.30	225.49
851.61	225.50
851.92	225.50
852.23	225.55
852.55	225.54
852.86	225.53
853.17	225.56
853.49	225.56
853.80	225.59
854.11	225.58
854.42	225.59
854.74	225.57
855.05	225.56
855.36	225.53
855.67	225.52
855.99	225.52
856.30	225.63
856.61	225.65
856.92	225.66
857.23	225.68
857.55	225.67
857.86	225.67
858.17	225.67
858.48	225.63
858.79	225.60
859.11	225.62
859.42	225.61
859.73	225.58
860.04	225.53
860.35	225.50
860.66	225.49
860.98	225.46
861.29	225.45
861.60	225.45
861.91	225.43
862.22	225.41
862.53	225.38
862.84	225.26
863.16	225.25
863.47	225.21
863.78	225.16
864.09	225.19
864.40	225.21
864.71	225.20
865.02	225.23
865.33	225.22
865.64	225.17
865.95	225.17
866.27	225.24
866.58	225.25
866.89	225.28
867.20	225.28
867.51	225.29
867.82	225.32
868.13	225.34
868.44	225.35
868.75	225.37
869.06	225.35
869.37	225.34
869.68	225.34
869.99	225.36
870.30	225.38
870.61	225.38
870.92	225.33
871.23	225.28
871.54	225.31
871.85	225.33
872.16	225.35
872.47	225.34
872.78	225.26
873.09	225.30
873.40	225.28
873.71	225.32
874.02	225.32
874.33	225.27
874.64	225.29
874.95	225.29
875.26	225.27
875.56	225.31
875.87	225.32
876.18	225.30
876.49	225.42
876.80	225.43
877.11	225.41
877.42	225.43
877.73	225.46
878.04	225.43
878.35	225.42
878.66	225.45
878.96	225.45
879.27	225.46
879.58	225.42
879.89	225.39
880.20	225.40
880.51	225.40
880.82	225.41
881.12	225.34
881.43	225.27
881.74	225.30
882.05	225.29
882.36	225.32
882.67	225.35
882.97	225.20
883.28	225.16
883.59	225.16
883.90	225.15
884.21	225.19
884.51	225.18
884.82	225.19
885.13	225.19
885.44	225.19
885.74	225.20
886.05	225.22
886.36	225.23
886.67	225.15
886.98	225.20
887.28	225.25
887.59	225.23
887.90	225.26
888.20	225.24
888.51	225.25
888.82	225.22
889.13	225.22
889.43	225.30
889.74	225.28
890.05	225.29
890.35	225.28
890.66	225.25
890.97	225.24
891.28	225.20
891.58	225.18
891.89	225.17
892.20	225.16
892.50	225.14
892.81	225.15
893.12	225.16
893.42	225.11
893.73	225.10
894.04	225.15
894.34	225.17
894.65	225.13
894.95	225.15
895.26	225.14
895.57	225.18
895.87	225.11
896.18	225.12
896.48	225.11
896.79	225.12
897.10	225.11
897.40	225.14
897.71	225.18
898.01	225.16
898.32	225.16
898.63	225.12
898.93	225.12
899.24	225.12
899.54	225.12
899.85	225.14
900.15	225.13
900.46	225.13
900.76	225.14
901.07	225.12
901.38	225.09
901.68	225.11
901.99	225.05
902.29	225.07
902.60	225.08
902.90	225.03
903.21	225.03
903.51	225.05
903.82	225.06
904.12	225.02
904.43	225.04
904.73	225.05
905.03	225.05
905.34	225.15
905.64	225.15
905.95	225.14
906.25	225.11
906.56	225.09
906.86	225.10
907.17	225.10
907.47	225.12
907.77	225.14
908.08	225.11
908.38	225.12
908.69	225.13
908.99	225.15
909.30	225.19
909.60	225.17
909.90	225.16
910.21	225.13
910.51	225.10
910.81	225.10
911.12	225.09
911.42	225.12
911.73	224.99
912.03	225.00
912.33	225.02
912.64	225.04
912.94	225.03
913.24	225.03
913.55	225.01
913.85	224.98
914.15	224.96
914.46	224.96
914.76	224.95
915.06	224.93
915.37	224.93
915.67	224.94
915.97	224.94
916.27	224.90
916.58	224.91
916.88	224.94
917.18	224.90
917.49	224.96
917.79	224.96
918.09	224.99
918.39	225.00
918.70	225.00
919.00	224.98
919.30	225.02
919.60	224.99
919.91	225.02
920.21	225.00
920.51	225.00
920.81	225.02
921.12	225.01
921.42	225.02
921.72	225.00
922.02	224.99
922.32	225.02
922.63	225.03
922.93	225.09
923.23	225.11
923.53	225.14
923.83	225.05
924.13	225.07
924.44	225.07
924.74	225.12
925.04	225.11
925.34	225.11
925.64	225.10
925.94	225.08
926.24	225.11
926.55	225.12
926.85	225.14
927.15	225.13
927.45	225.12
927.75	225.09
928.05	225.11
928.35	225.11
928.65	225.10
928.95	225.12
929.26	225.07
929.56	225.09
929.86	225.09
930.16	225.08
930.46	225.07
930.76	225.07
931.06	225.01
931.36	224.99
931.66	225.03
931.96	224.97
932.26	224.97
932.56	224.95
932.86	224.95
933.16	224.93
933.46	224.92
933.76	224.91
934.06	224.92
934.36	224.97
934.66	224.95
934.96	224.93
935.26	224.95
935.56	224.95
935.86	224.94
936.16	224.88
936.46	224.89
936.76	224.83
937.06	224.78
937.36	224.78
937.66	224.80
937.96	224.81
938.26	224.80
938.56	224.84
938.86	224.80
939.16	224.83
939.46	224.84
939.76	224.82
940.06	224.80
940.35	224.78
940.65	224.69
940.95	224.68
941.25	224.67
941.55	224.61
941.85	224.59
942.15	224.56
942.45	224.59
942.75	224.57
943.04	224.60
943.34	224.65
943.64	224.63
943.94	224.60
944.24	224.57
944.54	224.61
944.84	224.55
945.13	224.54
945.43	224.56
945.73	224.54
946.03	224.52
946.33	224.51
946.62	224.52
946.92	224.54
947.22	224.55
947.52	224.52
947.82	224.54
948.11	224.54
948.41	224.51
948.71	224.51
949.01	224.55
949.31	224.53
949.60	224.52
949.90	224.56
950.20	224.55
950.50	224.54
950.79	224.54
951.09	224.57
951.39	224.58
951.69	224.55
951.98	224.58
952.28	224.58
952.58	224.60
952.87	224.61
953.17	224.67
953.47	224.66
953.76	224.69
954.06	224.68
954.36	224.67
954.66	224.70
954.95	224.77
955.25	224.76
955.55	224.77
955.84	224.76
956.14	224.75
956.44	224.75
956.73	224.74
957.03	224.74
957.32	224.75
957.62	224.76
957.92	224.79
958.21	224.77
958.51	224.91
958.81	224.94
959.10	224.93
959.40	224.93
959.69	224.97
959.99	224.99
960.29	225.01
960.58	225.03
960.88	225.08
961.17	225.01
961.47	225.05
961.76	225.06
962.06	225.08
962.36	225.08
962.65	225.10
962.95	225.13
963.24	225.11
963.54	225.15
963.83	225.15
964.13	225.17
964.42	225.17
964.72	225.09
965.01	225.07
965.31	225.07
965.60	225.03
965.90	225.09
966.19	225.06
966.49	225.06
966.78	225.08
967.08	225.04
967.37	225.04
967.67	225.02
967.96	225.06
968.26	225.05
968.55	225.05
968.85	225.09
969.14	225.10
969.43	225.11
969.73	225.07
970.02	225.06
970.32	225.05
970.61	225.05
970.91	225.02
971.20	225.04
971.49	225.04
971.79	225.07
972.08	224.97
972.38	225.01
972.67	225.03
972.96	225.04
973.26	225.03
973.55	225.08
973.85	225.05
974.14	225.04
974.43	225.06
974.73	225.07
975.02	225.03
975.31	225.00
975.61	224.99
975.90	225.00
976.19	225.00
976.49	224.99
976.78	224.99
977.07	225.00
977.37	224.99
977.66	224.99
977.95	224.95
978.24	224.96
978.54	224.98
978.83	224.97
979.12	224.96
979.42	224.97
979.71	224.94
980.00	224.97
980.29	224.98
980.59	224.91
980.88	224.93
981.17	224.92
981.46	224.92
981.76	224.93
982.05	224.95
982.34	224.95
982.63	224.94
982.93	224.94
983.22	224.93
983.51	224.94
983.80	224.96
984.09	225.00
984.39	225.02
984.68	224.98
984.97	224.97
985.26	224.97
985.55	224.99
985.85	224.94
986.14	224.93
986.43	224.93
986.72	224.93
987.01	224.89
987.30	224.88
987.59	224.90
987.89	224.92
988.18	224.86
988.47	224.85
988.76	224.84
989.05	224.81
989.34	224.81
989.63	224.83
989.92	224.80
990.22	224.76
990.51	224.71
990.80	224.69
991.09	224.68
991.38	224.67
991.67	224.62
991.96	224.63
992.25	224.63
992.54	224.61
992.83	224.64
993.12	224.65
993.41	224.66
993.70	224.69
993.99	224.69
994.28	224.74
994.58	224.77
994.87	224.76
995.16	224.77
995.45	224.77
995.74	224.75
996.03	224.78
996.32	224.81
996.61	224.86
996.90	224.87
997.19	224.89
997.48	224.88
997.77	224.90
998.06	224.92
998.34	224.93
998.63	224.95
998.92	224.93
999.21	224.95
999.50	224.94
999.79	224.88
1000.08	224.85
1000.37	224.85
1000.66	224.84
1000.95	224.85
1001.24	224.88
1001.53	224.88
1001.82	224.86
1002.11	224.85
1002.40	224.85
1002.68	224.84
1002.97	224.89
1003.26	224.88
1003.55	224.86
1003.84	224.83
1004.13	224.83
1004.42	224.83
1004.71	224.81
1004.99	224.82
1005.28	224.83
1005.57	224.84
1005.86	224.85
1006.15	224.85
1006.44	224.81
1006.72	224.82
1007.01	224.82
1007.30	224.82
1007.59	224.82
1007.88	224.81
1008.17	224.80
1008.45	224.77
1008.74	224.75
1009.03	224.74
1009.32	224.70
1009.60	224.73
1009.89	224.75
1010.18	224.73
1010.47	224.70
1010.76	224.74
1011.04	224.73
1011.33	224.73
1011.62	224.72
1011.91	224.74
1012.19	224.76
1012.48	224.76
1012.77	224.76
1013.05	224.81
1013.34	224.81
1013.63	224.82
1013.92	224.84
1014.20	224.84
1014.49	224.85
1014.78	224.85
1015.06	224.79
1015.35	224.81
1015.64	224.82
1015.92	224.83
1016.21	224.81
1016.50	224.85
1016.78	224.83
1017.07	224.86
1017.36	224.85
1017.64	224.86
1017.93	224.84
1018.22	224.80
1018.50	224.82
1018.79	224.80
1019.08	224.75
1019.36	224.71
1019.65	224.68
1019.93	224.70
1020.22	224.69
1020.51	224.78
1020.79	224.79
1021.08	224.07
1021.36	224.75
1021.65	224.65
1021.94	224.54
1022.22	224.38
1022.51	224.36
1022.79	225.23
1023.08	224.44
1023.36	226.57
1023.65	224.68
>>>>>End Processed Spectral Data<<<<<
