SpectraSuite Data File
++++++++++++++++++++++++++++++++++++
Date: Fri Feb 01 16:19:50 EST 2013
User: group
Dark Spectrum Present: No
Reference Spectrum Present: No
Number of Sampled Component Spectra: 1
Spectrometers: USB2E7196
Integration Time (usec): 35000 (USB2E7196)
Spectra Averaged: 100 (USB2E7196)
Boxcar Smoothing: 10 (USB2E7196)
Correct for Electrical Dark: No (USB2E7196)
Strobe/Lamp Enabled: No (USB2E7196)
Correct for Detector Non-linearity: No (USB2E7196)
Correct for Stray Light: No (USB2E7196)
Number of Pixels in Processed Spectrum: 2048
>>>>>Begin Processed Spectral Data<<<<<
339.09	0.00
339.48	214.11
339.86	215.96
340.24	216.97
340.63	218.66
341.01	221.40
341.39	221.38
341.78	222.06
342.16	223.71
342.54	224.72
342.93	212.53
343.31	223.27
343.69	223.81
344.07	224.26
344.46	224.68
344.84	225.07
345.22	225.28
345.60	225.51
345.99	225.69
346.37	225.83
346.75	225.91
347.13	225.96
347.52	226.01
347.90	226.09
348.28	226.11
348.66	226.15
349.05	226.14
349.43	226.12
349.81	226.17
350.19	226.22
350.57	226.28
350.96	226.35
351.34	226.42
351.72	226.46
352.10	226.55
352.48	226.62
352.87	226.62
353.25	226.68
353.63	226.74
354.01	226.79
354.39	226.86
354.77	226.90
355.15	227.00
355.54	227.04
355.92	227.07
356.30	227.14
356.68	227.29
357.06	227.38
357.44	227.44
357.82	227.51
358.20	227.58
358.58	227.62
358.97	227.71
359.35	227.78
359.73	227.90
360.11	227.96
360.49	228.00
360.87	228.04
361.25	228.10
361.63	228.19
362.01	228.27
362.39	228.29
362.77	228.35
363.15	228.36
363.53	228.40
363.91	228.41
364.29	228.44
364.67	228.34
365.05	228.36
365.43	228.41
365.81	228.40
366.19	228.47
366.57	228.55
366.95	228.55
367.33	228.50
367.71	228.50
368.09	228.46
368.47	228.48
368.85	228.50
369.23	228.48
369.61	228.41
369.99	228.39
370.37	228.37
370.75	228.38
371.13	228.31
371.51	228.26
371.89	228.24
372.27	228.19
372.65	228.17
373.03	228.13
373.41	228.10
373.78	228.05
374.16	227.93
374.54	227.84
374.92	227.77
375.30	227.75
375.68	227.64
376.06	227.65
376.44	227.54
376.82	227.48
377.19	227.43
377.57	227.36
377.95	227.29
378.33	227.21
378.71	227.09
379.09	227.06
379.47	227.03
379.84	226.95
380.22	226.91
380.60	226.84
380.98	226.76
381.36	226.65
381.73	226.60
382.11	226.56
382.49	226.46
382.87	226.37
383.25	226.32
383.62	226.39
384.00	226.27
384.38	226.23
384.76	226.19
385.13	226.19
385.51	226.14
385.89	226.08
386.27	226.02
386.64	225.97
387.02	225.95
387.40	225.88
387.78	225.83
388.15	225.79
388.53	225.75
388.91	225.74
389.29	225.73
389.66	225.72
390.04	225.68
390.42	225.72
390.79	225.69
391.17	225.67
391.55	225.50
391.92	225.50
392.30	225.51
392.68	225.48
393.05	225.43
393.43	225.43
393.81	225.43
394.18	225.45
394.56	225.48
394.94	225.47
395.31	225.47
395.69	225.54
396.06	225.57
396.44	225.60
396.82	225.60
397.19	225.69
397.57	225.69
397.95	225.74
398.32	225.73
398.70	225.78
399.07	225.85
399.45	225.93
399.82	225.97
400.20	226.03
400.58	226.09
400.95	226.14
401.33	226.25
401.70	226.42
402.08	226.50
402.45	226.57
402.83	226.69
403.20	226.83
403.58	226.92
403.95	227.04
404.33	227.18
404.71	227.31
405.08	227.46
405.46	227.59
405.83	227.74
406.21	227.89
406.58	228.10
406.96	228.26
407.33	228.42
407.70	228.62
408.08	228.90
408.45	229.12
408.83	229.36
409.20	229.53
409.58	229.69
409.95	229.94
410.33	230.20
410.70	230.46
411.08	230.71
411.45	230.97
411.82	231.28
412.20	231.64
412.57	232.04
412.95	232.32
413.32	232.76
413.69	233.16
414.07	233.63
414.44	234.06
414.82	234.53
415.19	235.08
415.56	235.64
415.94	236.16
416.31	236.81
416.68	237.43
417.06	238.15
417.43	238.81
417.81	239.59
418.18	240.34
418.55	241.16
418.93	242.03
419.30	242.96
419.67	243.87
420.04	244.79
420.42	245.78
420.79	246.95
421.16	248.12
421.54	249.29
421.91	250.49
422.28	251.78
422.66	253.10
423.03	254.41
423.40	255.76
423.77	257.19
424.15	258.57
424.52	260.08
424.89	261.71
425.26	263.30
425.64	264.75
426.01	266.38
426.38	268.04
426.75	269.75
427.13	271.48
427.50	273.29
427.87	275.20
428.24	277.09
428.61	278.84
428.99	280.80
429.36	282.93
429.73	285.00
430.10	287.01
430.47	289.08
430.85	291.20
431.22	293.42
431.59	295.81
431.96	298.08
432.33	300.54
432.70	302.90
433.08	305.68
433.45	308.32
433.82	310.93
434.19	313.82
434.56	316.65
434.93	319.30
435.30	321.94
435.68	324.82
436.05	327.62
436.42	330.42
436.79	332.90
437.16	335.65
437.53	338.48
437.90	341.30
438.27	344.05
438.64	346.86
439.01	349.43
439.38	351.67
439.75	353.81
440.13	356.29
440.50	358.60
440.87	360.46
441.24	362.37
441.61	364.48
441.98	365.94
442.35	367.69
442.72	369.53
443.09	371.31
443.46	372.26
443.83	372.86
444.20	373.33
444.57	374.16
444.94	374.39
445.31	374.71
445.68	375.03
446.05	375.09
446.42	374.73
446.79	374.36
447.16	373.92
447.53	373.61
447.90	372.45
448.27	371.28
448.64	369.69
449.01	368.55
449.37	366.64
449.74	364.79
450.11	362.55
450.48	360.11
450.85	357.59
451.22	355.48
451.59	353.46
451.96	351.49
452.33	348.86
452.70	346.50
453.07	343.60
453.43	340.70
453.80	337.91
454.17	335.24
454.54	332.66
454.91	329.92
455.28	327.27
455.65	324.82
456.02	322.40
456.38	320.24
456.75	317.59
457.12	315.32
457.49	313.09
457.86	310.92
458.23	309.03
458.59	306.97
458.96	304.87
459.33	303.03
459.70	301.21
460.07	299.73
460.43	298.01
460.80	296.44
461.17	295.01
461.54	293.53
461.91	292.10
462.27	290.69
462.64	289.41
463.01	288.06
463.38	286.78
463.74	285.47
464.11	284.34
464.48	283.33
464.85	282.23
465.21	281.36
465.58	280.42
465.95	279.35
466.32	278.47
466.68	277.59
467.05	276.65
467.42	275.78
467.78	274.87
468.15	273.98
468.52	273.35
468.88	272.47
469.25	271.71
469.62	271.12
469.98	270.41
470.35	269.80
470.72	269.21
471.08	268.56
471.45	268.00
471.82	267.44
472.18	266.85
472.55	266.42
472.92	265.88
473.28	265.49
473.65	265.04
474.02	264.56
474.38	264.18
474.75	263.89
475.11	263.53
475.48	263.26
475.85	263.03
476.21	262.80
476.58	262.66
476.94	262.54
477.31	262.32
477.67	262.20
478.04	262.11
478.41	262.05
478.77	262.04
479.14	261.98
479.50	262.02
479.87	262.10
480.23	262.17
480.60	262.28
480.96	262.35
481.33	262.62
481.69	262.86
482.06	263.08
482.42	263.31
482.79	263.60
483.15	263.89
483.52	264.30
483.88	264.66
484.25	265.05
484.61	265.43
484.98	265.92
485.34	266.48
485.71	267.07
486.07	267.63
486.44	268.28
486.80	269.00
487.17	269.75
487.53	270.55
487.90	271.40
488.26	272.28
488.62	273.28
488.99	274.23
489.35	275.28
489.72	276.43
490.08	277.60
490.44	278.83
490.81	280.21
491.17	281.56
491.54	283.04
491.90	284.58
492.26	286.23
492.63	288.00
492.99	289.81
493.36	291.70
493.72	293.79
494.08	295.88
494.45	298.11
494.81	300.45
495.17	302.89
495.54	305.46
495.90	308.21
496.26	311.01
496.63	313.99
496.99	317.12
497.35	320.35
497.72	323.80
498.08	327.30
498.44	330.99
498.80	334.91
499.17	338.98
499.53	343.19
499.89	347.60
500.26	352.11
500.62	356.79
500.98	361.76
501.34	366.84
501.71	372.20
502.07	377.65
502.43	383.27
502.79	389.14
503.16	395.26
503.52	401.51
503.88	407.93
504.24	414.56
504.60	421.48
504.97	428.61
505.33	435.97
505.69	443.65
506.05	451.42
506.41	459.32
506.78	467.50
507.14	475.91
507.50	484.71
507.86	493.72
508.22	502.93
508.59	512.18
508.95	521.80
509.31	531.57
509.67	541.73
510.03	552.03
510.39	562.62
510.75	573.43
511.12	584.35
511.48	595.70
511.84	607.14
512.20	618.67
512.56	630.67
512.92	642.84
513.28	655.29
513.64	667.76
514.00	680.54
514.37	693.47
514.73	706.60
515.09	719.55
515.45	732.77
515.81	746.32
516.17	760.23
516.53	774.32
516.89	788.50
517.25	802.67
517.61	817.11
517.97	831.51
518.33	845.90
518.69	860.71
519.05	875.58
519.41	890.78
519.77	906.33
520.13	921.75
520.49	937.12
520.85	952.41
521.21	968.06
521.57	984.20
521.93	999.94
522.29	1016.28
522.65	1032.49
523.01	1048.78
523.37	1064.79
523.73	1081.01
524.09	1096.94
524.45	1113.10
524.81	1129.61
525.17	1146.36
525.53	1163.17
525.89	1180.09
526.25	1197.00
526.61	1213.48
526.97	1230.15
527.33	1246.53
527.68	1263.07
528.04	1279.55
528.40	1296.10
528.76	1313.12
529.12	1329.74
529.48	1346.55
529.84	1362.49
530.20	1379.01
530.56	1395.97
530.91	1413.38
531.27	1430.03
531.63	1446.50
531.99	1463.15
532.35	1479.12
532.71	1494.85
533.07	1511.13
533.42	1526.89
533.78	1542.74
534.14	1558.82
534.50	1574.14
534.86	1589.97
535.21	1605.07
535.57	1620.84
535.93	1636.35
536.29	1651.07
536.65	1665.91
537.00	1680.60
537.36	1695.81
537.72	1710.34
538.08	1724.65
538.44	1738.26
538.79	1752.08
539.15	1765.77
539.51	1779.40
539.87	1793.69
540.22	1807.46
540.58	1821.21
540.94	1834.34
541.29	1847.13
541.65	1859.88
542.01	1873.04
542.37	1885.21
542.72	1897.56
543.08	1909.29
543.44	1921.52
543.79	1932.77
544.15	1943.68
544.51	1955.28
544.87	1966.21
545.22	1976.80
545.58	1987.02
545.94	1996.77
546.29	2006.72
546.65	2016.47
547.01	2025.72
547.36	2034.27
547.72	2042.63
548.07	2050.31
548.43	2058.48
548.79	2066.43
549.14	2073.89
549.50	2081.23
549.86	2088.96
550.21	2096.24
550.57	2103.34
550.92	2109.97
551.28	2116.96
551.64	2123.96
551.99	2130.40
552.35	2136.49
552.70	2142.86
553.06	2148.78
553.41	2155.15
553.77	2160.92
554.13	2166.90
554.48	2173.14
554.84	2178.58
555.19	2183.93
555.55	2189.08
555.90	2193.57
556.26	2198.48
556.61	2203.30
556.97	2207.45
557.32	2211.51
557.68	2215.65
558.03	2219.99
558.39	2223.61
558.74	2228.22
559.10	2232.15
559.45	2235.75
559.81	2240.11
560.16	2243.83
560.52	2247.08
560.87	2250.50
561.23	2253.26
561.58	2256.29
561.94	2258.73
562.29	2261.16
562.64	2263.80
563.00	2266.35
563.35	2269.81
563.71	2272.85
564.06	2276.00
564.42	2278.90
564.77	2281.48
565.12	2283.83
565.48	2285.73
565.83	2287.68
566.19	2288.93
566.54	2289.99
566.89	2291.20
567.25	2291.73
567.60	2293.11
567.96	2294.90
568.31	2295.73
568.66	2296.98
569.02	2297.62
569.37	2297.94
569.72	2298.85
570.08	2299.07
570.43	2299.18
570.78	2298.88
571.14	2297.50
571.49	2296.01
571.84	2295.76
572.20	2294.69
572.55	2293.67
572.90	2292.10
573.26	2290.88
573.61	2289.39
573.96	2287.67
574.31	2284.70
574.67	2281.78
575.02	2278.20
575.37	2274.71
575.72	2270.87
576.08	2267.51
576.43	2264.19
576.78	2260.55
577.13	2257.34
577.49	2254.22
577.84	2250.75
578.19	2247.04
578.54	2243.35
578.90	2239.20
579.25	2233.67
579.60	2228.77
579.95	2223.77
580.30	2218.98
580.66	2213.72
581.01	2208.68
581.36	2203.76
581.71	2199.66
582.06	2195.29
582.42	2190.88
582.77	2185.80
583.12	2181.40
583.47	2176.73
583.82	2171.81
584.17	2166.68
584.53	2161.33
584.88	2155.71
585.23	2150.03
585.58	2144.42
585.93	2139.12
586.28	2134.50
586.63	2129.40
586.98	2124.45
587.34	2119.68
587.69	2114.66
588.04	2109.41
588.39	2103.74
588.74	2097.33
589.09	2091.20
589.44	2084.49
589.79	2078.60
590.14	2072.98
590.49	2066.39
590.84	2059.98
591.19	2053.96
591.54	2047.54
591.89	2040.19
592.25	2033.44
592.60	2026.24
592.95	2018.79
593.30	2011.48
593.65	2003.99
594.00	1997.06
594.35	1989.76
594.70	1981.91
595.05	1974.83
595.40	1967.65
595.75	1960.44
596.10	1954.19
596.45	1947.47
596.80	1941.35
597.15	1934.63
597.50	1927.69
597.85	1921.31
598.19	1914.87
598.54	1907.86
598.89	1901.20
599.24	1895.25
599.59	1888.56
599.94	1882.38
600.29	1875.96
600.64	1869.41
600.99	1861.92
601.34	1855.23
601.69	1848.26
602.04	1841.45
602.39	1834.08
602.74	1827.35
603.08	1820.49
603.43	1813.86
603.78	1806.65
604.13	1799.38
604.48	1792.15
604.83	1785.19
605.18	1778.22
605.53	1770.13
605.87	1762.06
606.22	1754.85
606.57	1746.95
606.92	1739.71
607.27	1732.62
607.62	1725.76
607.96	1718.53
608.31	1711.97
608.66	1704.21
609.01	1696.64
609.36	1689.01
609.70	1681.07
610.05	1672.86
610.40	1665.22
610.75	1656.88
611.10	1649.19
611.44	1640.76
611.79	1632.83
612.14	1624.18
612.49	1615.09
612.83	1606.65
613.18	1598.51
613.53	1590.48
613.88	1581.98
614.22	1573.70
614.57	1565.15
614.92	1557.23
615.27	1549.62
615.61	1541.29
615.96	1533.30
616.31	1525.64
616.65	1518.30
617.00	1510.67
617.35	1503.14
617.70	1494.78
618.04	1486.26
618.39	1477.95
618.74	1470.36
619.08	1462.03
619.43	1454.44
619.78	1447.50
620.12	1440.31
620.47	1432.80
620.82	1424.55
621.16	1417.15
621.51	1409.64
621.85	1401.84
622.20	1393.26
622.55	1384.85
622.89	1376.85
623.24	1369.25
623.59	1361.87
623.93	1354.21
624.28	1347.01
624.62	1339.50
624.97	1332.31
625.32	1325.52
625.66	1318.54
626.01	1311.42
626.35	1303.99
626.70	1296.28
627.04	1288.58
627.39	1280.85
627.73	1273.47
628.08	1266.63
628.43	1259.31
628.77	1251.87
629.12	1244.42
629.46	1237.27
629.81	1229.86
630.15	1222.76
630.50	1215.30
630.84	1207.15
631.19	1199.28
631.53	1191.74
631.88	1184.10
632.22	1176.50
632.57	1169.19
632.91	1161.59
633.26	1154.18
633.60	1146.64
633.95	1139.46
634.29	1132.34
634.64	1125.62
634.98	1118.23
635.32	1111.11
635.67	1104.48
636.01	1097.86
636.36	1091.00
636.70	1084.44
637.05	1077.87
637.39	1071.45
637.73	1064.91
638.08	1058.93
638.42	1052.91
638.77	1046.52
639.11	1039.82
639.45	1033.38
639.80	1026.73
640.14	1020.40
640.49	1013.82
640.83	1007.54
641.17	1001.26
641.52	994.92
641.86	988.43
642.20	982.57
642.55	976.10
642.89	969.67
643.23	963.02
643.58	957.32
643.92	951.12
644.26	945.06
644.61	938.99
644.95	933.02
645.29	926.46
645.64	919.76
645.98	913.44
646.32	907.69
646.66	901.59
647.01	895.78
647.35	890.06
647.69	884.20
648.04	878.74
648.38	872.95
648.72	866.95
649.06	860.90
649.41	855.05
649.75	849.14
650.09	843.18
650.43	837.53
650.78	831.35
651.12	825.34
651.46	819.62
651.80	813.86
652.14	808.49
652.49	803.14
652.83	797.96
653.17	792.15
653.51	786.41
653.85	781.06
654.20	775.39
654.54	769.36
654.88	763.59
655.22	757.69
655.56	751.97
655.90	746.51
656.25	741.34
656.59	735.92
656.93	730.85
657.27	725.63
657.61	720.09
657.95	714.92
658.29	709.85
658.64	704.60
658.98	699.26
659.32	693.77
659.66	688.61
660.00	683.29
660.34	678.30
660.68	673.37
661.02	668.35
661.36	663.62
661.70	659.07
662.05	654.71
662.39	650.30
662.73	645.91
663.07	641.57
663.41	637.03
663.75	632.47
664.09	627.86
664.43	623.46
664.77	619.37
665.11	615.17
665.45	611.05
665.79	606.92
666.13	602.77
666.47	598.65
666.81	594.41
667.15	590.27
667.49	586.41
667.83	582.58
668.17	578.61
668.51	574.51
668.85	570.52
669.19	566.72
669.53	562.82
669.87	558.90
670.21	555.14
670.55	551.51
670.89	548.11
671.23	544.65
671.57	541.14
671.91	537.53
672.25	533.93
672.58	530.41
672.92	527.02
673.26	523.84
673.60	520.67
673.94	517.55
674.28	514.58
674.62	511.60
674.96	508.48
675.30	505.51
675.64	502.62
675.97	499.83
676.31	496.87
676.65	493.96
676.99	491.20
677.33	488.36
677.67	485.57
678.01	482.55
678.34	479.57
678.68	476.77
679.02	473.94
679.36	471.22
679.70	468.49
680.04	465.71
680.37	462.79
680.71	459.97
681.05	457.37
681.39	454.64
681.73	451.99
682.06	449.37
682.40	446.87
682.74	444.34
683.08	441.76
683.42	439.21
683.75	436.74
684.09	434.17
684.43	431.70
684.77	429.23
685.10	426.87
685.44	424.60
685.78	422.27
686.12	420.05
686.45	417.74
686.79	415.43
687.13	413.23
687.46	411.15
687.80	408.99
688.14	406.73
688.48	404.69
688.81	402.43
689.15	400.39
689.49	398.25
689.82	396.21
690.16	394.20
690.50	392.28
690.83	390.33
691.17	388.38
691.51	386.46
691.84	384.62
692.18	382.70
692.52	380.66
692.85	378.70
693.19	376.85
693.52	375.03
693.86	373.25
694.20	371.41
694.53	369.58
694.87	367.76
695.21	365.99
695.54	364.19
695.88	362.46
696.21	360.70
696.55	359.00
696.88	357.27
697.22	355.55
697.56	353.91
697.89	352.27
698.23	350.66
698.56	349.06
698.90	347.43
699.23	345.78
699.57	344.28
699.90	342.74
700.24	341.18
700.58	339.66
700.91	338.15
701.25	336.75
701.58	335.36
701.92	334.01
702.25	332.64
702.59	331.25
702.92	329.94
703.26	328.67
703.59	327.37
703.93	326.19
704.26	324.96
704.60	323.62
704.93	322.30
705.26	321.04
705.60	319.83
705.93	318.65
706.27	317.64
706.60	316.50
706.94	315.43
707.27	314.26
707.61	313.19
707.94	312.13
708.27	311.03
708.61	309.97
708.94	308.94
709.28	307.96
709.61	306.97
709.94	306.02
710.28	304.97
710.61	303.98
710.95	302.88
711.28	301.94
711.61	301.02
711.95	300.14
712.28	299.20
712.61	298.18
712.95	297.26
713.28	296.33
713.61	295.49
713.95	294.60
714.28	293.77
714.61	292.89
714.95	292.06
715.28	291.21
715.61	290.32
715.95	289.44
716.28	288.61
716.61	287.79
716.95	286.92
717.28	286.23
717.61	285.47
717.94	284.73
718.28	283.93
718.61	283.20
718.94	282.50
719.27	281.86
719.61	281.23
719.94	280.58
720.27	279.88
720.60	279.21
720.94	278.59
721.27	277.98
721.60	277.40
721.93	276.77
722.27	276.20
722.60	275.65
722.93	275.10
723.26	274.53
723.59	273.99
723.93	273.46
724.26	272.90
724.59	272.33
724.92	271.84
725.25	271.33
725.59	270.78
725.92	270.27
726.25	269.74
726.58	269.25
726.91	268.76
727.24	268.29
727.57	267.83
727.91	267.30
728.24	266.88
728.57	266.41
728.90	266.00
729.23	265.49
729.56	265.05
729.89	264.58
730.22	264.08
730.55	263.63
730.89	263.20
731.22	262.73
731.55	262.33
731.88	261.90
732.21	261.51
732.54	261.11
732.87	260.68
733.20	260.27
733.53	259.88
733.86	259.53
734.19	259.10
734.52	258.73
734.85	258.46
735.18	258.04
735.51	257.70
735.84	257.35
736.17	257.00
736.50	256.62
736.83	256.41
737.16	256.13
737.49	255.80
737.82	255.46
738.15	255.13
738.48	254.77
738.81	254.45
739.14	254.09
739.47	253.76
739.80	253.43
740.13	253.16
740.46	252.83
740.79	252.50
741.12	252.22
741.45	251.93
741.78	251.59
742.11	251.31
742.44	250.96
742.77	250.65
743.10	250.36
743.43	250.03
743.75	249.63
744.08	249.48
744.41	249.18
744.74	248.90
745.07	248.61
745.40	248.34
745.73	248.08
746.06	247.83
746.39	247.56
746.71	247.34
747.04	247.07
747.37	246.80
747.70	246.52
748.03	246.23
748.36	245.97
748.68	245.70
749.01	245.42
749.34	245.18
749.67	244.94
750.00	244.69
750.33	244.54
750.65	244.30
750.98	243.93
751.31	243.70
751.64	243.50
751.97	243.29
752.29	243.10
752.62	242.86
752.95	242.64
753.28	242.41
753.60	242.20
753.93	242.02
754.26	241.81
754.59	241.60
754.91	241.41
755.24	241.18
755.57	241.03
755.90	240.86
756.22	240.69
756.55	240.50
756.88	240.32
757.20	240.10
757.53	239.91
757.86	239.73
758.19	239.62
758.51	239.45
758.84	239.30
759.17	239.12
759.49	238.97
759.82	238.87
760.15	238.71
760.47	238.55
760.80	238.39
761.13	238.24
761.45	238.07
761.78	237.94
762.11	237.82
762.43	237.65
762.76	237.49
763.08	237.34
763.41	237.20
763.74	237.07
764.06	236.95
764.39	236.82
764.71	236.70
765.04	236.54
765.37	236.34
765.69	236.20
766.02	236.06
766.34	235.92
766.67	235.75
767.00	235.66
767.32	235.57
767.65	235.53
767.97	235.46
768.30	235.35
768.62	235.22
768.95	235.12
769.27	234.99
769.60	234.91
769.92	234.79
770.25	234.71
770.57	234.60
770.90	234.52
771.22	234.43
771.55	234.29
771.87	234.23
772.20	234.15
772.52	234.14
772.85	234.20
773.17	234.12
773.50	234.02
773.82	233.94
774.15	233.83
774.47	233.65
774.80	233.54
775.12	233.44
775.45	233.38
775.77	233.27
776.09	233.21
776.42	233.14
776.74	233.06
777.07	232.94
777.39	232.85
777.72	232.75
778.04	232.67
778.36	232.62
778.69	232.54
779.01	232.51
779.33	232.35
779.66	232.15
779.98	232.08
780.31	232.02
780.63	231.99
780.95	231.96
781.28	231.92
781.60	231.83
781.92	231.79
782.25	231.71
782.57	231.67
782.89	231.60
783.22	231.53
783.54	231.49
783.86	231.44
784.19	231.41
784.51	231.35
784.83	231.28
785.16	231.23
785.48	231.18
785.80	231.11
786.12	231.10
786.45	231.04
786.77	230.98
787.09	230.91
787.42	230.80
787.74	230.72
788.06	230.66
788.38	230.60
788.71	230.57
789.03	230.54
789.35	230.50
789.67	230.46
789.99	230.42
790.32	230.37
790.64	230.34
790.96	230.38
791.28	230.32
791.61	230.28
791.93	230.25
792.25	230.18
792.57	230.20
792.89	230.12
793.21	230.07
793.54	230.02
793.86	230.00
794.18	230.00
794.50	229.92
794.82	229.91
795.14	229.90
795.47	229.87
795.79	229.82
796.11	229.77
796.43	229.75
796.75	229.71
797.07	229.67
797.39	229.65
797.71	229.55
798.04	229.52
798.36	229.46
798.68	229.46
799.00	229.47
799.32	229.39
799.64	229.41
799.96	229.40
800.28	229.42
800.60	229.38
800.92	229.34
801.24	229.33
801.56	229.33
801.89	229.29
802.21	229.29
802.53	229.26
802.85	229.26
803.17	229.24
803.49	229.22
803.81	229.18
804.13	229.12
804.45	229.07
804.77	229.06
805.09	229.06
805.41	228.99
805.73	228.92
806.05	228.87
806.37	228.81
806.69	228.77
807.01	228.74
807.33	228.72
807.65	228.71
807.97	228.75
808.28	228.71
808.60	228.65
808.92	228.58
809.24	228.59
809.56	228.54
809.88	228.46
810.20	228.44
810.52	228.45
810.84	228.44
811.16	228.38
811.48	228.34
811.80	228.33
812.12	228.30
812.43	228.28
812.75	228.30
813.07	228.29
813.39	228.27
813.71	228.21
814.03	228.16
814.35	228.12
814.67	228.05
814.98	228.01
815.30	228.03
815.62	228.03
815.94	227.96
816.26	227.96
816.58	227.97
816.89	227.93
817.21	227.89
817.53	227.86
817.85	227.89
818.17	227.85
818.48	227.82
818.80	227.80
819.12	227.78
819.44	227.69
819.76	227.65
820.07	227.62
820.39	227.61
820.71	227.58
821.03	227.57
821.34	227.53
821.66	227.50
821.98	227.49
822.30	227.44
822.61	227.48
822.93	227.44
823.25	227.39
823.57	227.36
823.88	227.37
824.20	227.34
824.52	227.33
824.83	227.33
825.15	227.31
825.47	227.32
825.79	227.32
826.10	227.31
826.42	227.28
826.74	227.26
827.05	227.29
827.37	227.32
827.69	227.30
828.00	227.30
828.32	227.29
828.64	227.28
828.95	227.32
829.27	227.30
829.58	227.28
829.90	227.29
830.22	227.26
830.53	227.22
830.85	227.20
831.17	227.15
831.48	227.12
831.80	227.09
832.11	227.04
832.43	227.01
832.75	227.02
833.06	227.08
833.38	227.07
833.69	227.03
834.01	227.00
834.32	226.97
834.64	226.98
834.96	226.98
835.27	226.93
835.59	226.88
835.90	226.83
836.22	226.80
836.53	226.79
836.85	226.77
837.16	226.88
837.48	226.90
837.79	226.97
838.11	227.00
838.42	227.01
838.74	227.05
839.05	227.04
839.37	227.04
839.68	227.00
840.00	227.00
840.31	227.00
840.63	226.99
840.94	226.99
841.26	226.95
841.57	226.96
841.88	226.96
842.20	226.95
842.51	226.98
842.83	226.98
843.14	227.10
843.46	227.14
843.77	227.08
844.08	227.10
844.40	227.06
844.71	227.04
845.03	227.05
845.34	227.03
845.65	227.05
845.97	227.06
846.28	227.05
846.60	227.03
846.91	227.03
847.22	227.06
847.54	227.09
847.85	227.13
848.16	227.10
848.48	227.10
848.79	227.15
849.10	227.12
849.42	227.12
849.73	226.99
850.04	226.95
850.36	226.89
850.67	226.87
850.98	226.86
851.30	226.85
851.61	226.83
851.92	226.82
852.23	226.85
852.55	226.81
852.86	226.81
853.17	226.85
853.49	226.87
853.80	226.86
854.11	226.84
854.42	226.87
854.74	226.88
855.05	226.88
855.36	226.82
855.67	226.84
855.99	226.86
856.30	227.00
856.61	227.01
856.92	227.01
857.23	227.00
857.55	226.97
857.86	226.97
858.17	227.00
858.48	226.97
858.79	226.94
859.11	226.96
859.42	226.95
859.73	226.92
860.04	226.89
860.35	226.82
860.66	226.77
860.98	226.70
861.29	226.67
861.60	226.65
861.91	226.70
862.22	226.66
862.53	226.65
862.84	226.51
863.16	226.56
863.47	226.51
863.78	226.50
864.09	226.49
864.40	226.49
864.71	226.49
865.02	226.52
865.33	226.47
865.64	226.43
865.95	226.42
866.27	226.47
866.58	226.45
866.89	226.48
867.20	226.50
867.51	226.51
867.82	226.52
868.13	226.55
868.44	226.48
868.75	226.52
869.06	226.48
869.37	226.49
869.68	226.42
869.99	226.46
870.30	226.47
870.61	226.48
870.92	226.45
871.23	226.42
871.54	226.38
871.85	226.40
872.16	226.42
872.47	226.40
872.78	226.34
873.09	226.34
873.40	226.33
873.71	226.32
874.02	226.31
874.33	226.30
874.64	226.27
874.95	226.27
875.26	226.24
875.56	226.24
875.87	226.22
876.18	226.23
876.49	226.30
876.80	226.30
877.11	226.27
877.42	226.27
877.73	226.27
878.04	226.28
878.35	226.30
878.66	226.29
878.96	226.29
879.27	226.27
879.58	226.28
879.89	226.27
880.20	226.30
880.51	226.28
880.82	226.24
881.12	226.26
881.43	226.27
881.74	226.25
882.05	226.26
882.36	226.28
882.67	226.29
882.97	226.21
883.28	226.20
883.59	226.22
883.90	226.26
884.21	226.26
884.51	226.26
884.82	226.25
885.13	226.26
885.44	226.25
885.74	226.26
886.05	226.23
886.36	226.25
886.67	226.20
886.98	226.27
887.28	226.29
887.59	226.26
887.90	226.24
888.20	226.25
888.51	226.26
888.82	226.23
889.13	226.20
889.43	226.28
889.74	226.27
890.05	226.27
890.35	226.23
890.66	226.20
890.97	226.19
891.28	226.15
891.58	226.17
891.89	226.18
892.20	226.14
892.50	226.12
892.81	226.10
893.12	226.13
893.42	226.08
893.73	226.12
894.04	226.14
894.34	226.15
894.65	226.13
894.95	226.14
895.26	226.15
895.57	226.21
895.87	226.10
896.18	226.11
896.48	226.10
896.79	226.10
897.10	226.13
897.40	226.13
897.71	226.15
898.01	226.14
898.32	226.16
898.63	226.18
898.93	226.25
899.24	226.25
899.54	226.23
899.85	226.20
900.15	226.21
900.46	226.23
900.76	226.22
901.07	226.25
901.38	226.24
901.68	226.27
901.99	226.24
902.29	226.24
902.60	226.25
902.90	226.27
903.21	226.30
903.51	226.29
903.82	226.32
904.12	226.33
904.43	226.38
904.73	226.35
905.03	226.37
905.34	226.46
905.64	226.47
905.95	226.48
906.25	226.52
906.56	226.49
906.86	226.46
907.17	226.47
907.47	226.46
907.77	226.48
908.08	226.46
908.38	226.45
908.69	226.48
908.99	226.48
909.30	226.49
909.60	226.51
909.90	226.52
910.21	226.51
910.51	226.50
910.81	226.47
911.12	226.48
911.42	226.52
911.73	226.40
912.03	226.42
912.33	226.46
912.64	226.45
912.94	226.44
913.24	226.45
913.55	226.46
913.85	226.47
914.15	226.45
914.46	226.44
914.76	226.44
915.06	226.42
915.37	226.42
915.67	226.40
915.97	226.38
916.27	226.37
916.58	226.36
916.88	226.37
917.18	226.36
917.49	226.44
917.79	226.42
918.09	226.43
918.39	226.43
918.70	226.44
919.00	226.44
919.30	226.46
919.60	226.46
919.91	226.45
920.21	226.46
920.51	226.45
920.81	226.47
921.12	226.48
921.42	226.48
921.72	226.49
922.02	226.48
922.32	226.50
922.63	226.46
922.93	226.50
923.23	226.46
923.53	226.46
923.83	226.39
924.13	226.38
924.44	226.38
924.74	226.34
925.04	226.37
925.34	226.33
925.64	226.32
925.94	226.31
926.24	226.34
926.55	226.30
926.85	226.33
927.15	226.30
927.45	226.30
927.75	226.28
928.05	226.26
928.35	226.26
928.65	226.26
928.95	226.32
929.26	226.27
929.56	226.31
929.86	226.26
930.16	226.26
930.46	226.28
930.76	226.27
931.06	226.25
931.36	226.20
931.66	226.21
931.96	226.21
932.26	226.21
932.56	226.15
932.86	226.20
933.16	226.17
933.46	226.17
933.76	226.16
934.06	226.20
934.36	226.23
934.66	226.23
934.96	226.21
935.26	226.19
935.56	226.22
935.86	226.17
936.16	226.18
936.46	226.18
936.76	226.15
937.06	226.14
937.36	226.17
937.66	226.19
937.96	226.18
938.26	226.15
938.56	226.17
938.86	226.19
939.16	226.19
939.46	226.22
939.76	226.21
940.06	226.21
940.35	226.20
940.65	226.12
940.95	226.13
941.25	226.10
941.55	226.09
941.85	226.09
942.15	226.12
942.45	226.16
942.75	226.15
943.04	226.17
943.34	226.19
943.64	226.18
943.94	226.15
944.24	226.14
944.54	226.14
944.84	226.13
945.13	226.16
945.43	226.11
945.73	226.09
946.03	226.11
946.33	226.08
946.62	226.04
946.92	226.07
947.22	226.09
947.52	226.12
947.82	226.12
948.11	226.10
948.41	226.11
948.71	226.07
949.01	226.08
949.31	226.04
949.60	226.03
949.90	226.03
950.20	226.02
950.50	226.06
950.79	226.07
951.09	226.09
951.39	226.05
951.69	226.09
951.98	226.10
952.28	226.08
952.58	226.08
952.87	226.07
953.17	226.10
953.47	226.05
953.76	226.05
954.06	226.03
954.36	226.01
954.66	226.02
954.95	226.08
955.25	226.05
955.55	226.06
955.84	226.06
956.14	226.05
956.44	226.07
956.73	226.03
957.03	226.02
957.32	225.99
957.62	225.99
957.92	225.97
958.21	225.94
958.51	226.07
958.81	226.11
959.10	226.15
959.40	226.15
959.69	226.15
959.99	226.13
960.29	226.16
960.58	226.16
960.88	226.17
961.17	226.13
961.47	226.15
961.76	226.15
962.06	226.16
962.36	226.16
962.65	226.13
962.95	226.11
963.24	226.13
963.54	226.17
963.83	226.13
964.13	226.15
964.42	226.14
964.72	226.06
965.01	226.05
965.31	226.03
965.60	226.01
965.90	226.11
966.19	226.10
966.49	226.07
966.78	226.04
967.08	226.01
967.37	226.01
967.67	226.00
967.96	226.03
968.26	226.01
968.55	226.01
968.85	226.00
969.14	226.01
969.43	225.99
969.73	225.93
970.02	225.96
970.32	225.94
970.61	225.93
970.91	225.91
971.20	225.90
971.49	225.91
971.79	225.91
972.08	225.83
972.38	225.85
972.67	225.87
972.96	225.92
973.26	225.94
973.55	225.97
973.85	225.98
974.14	225.95
974.43	225.97
974.73	225.95
975.02	225.98
975.31	225.99
975.61	226.01
975.90	226.03
976.19	226.04
976.49	226.04
976.78	226.06
977.07	226.04
977.37	226.04
977.66	226.05
977.95	226.06
978.24	226.07
978.54	226.11
978.83	226.10
979.12	226.10
979.42	226.12
979.71	226.10
980.00	226.09
980.29	226.08
980.59	226.04
980.88	226.11
981.17	226.07
981.46	226.07
981.76	226.08
982.05	226.11
982.34	226.12
982.63	226.13
982.93	226.16
983.22	226.18
983.51	226.19
983.80	226.18
984.09	226.18
984.39	226.17
984.68	226.09
984.97	226.05
985.26	225.99
985.55	225.95
985.85	225.93
986.14	225.91
986.43	225.95
986.72	225.96
987.01	225.88
987.30	225.91
987.59	225.89
987.89	225.87
988.18	225.83
988.47	225.78
988.76	225.75
989.05	225.73
989.34	225.70
989.63	225.69
989.92	225.69
990.22	225.66
990.51	225.65
990.80	225.68
991.09	225.72
991.38	225.81
991.67	225.76
991.96	225.73
992.25	225.74
992.54	225.69
992.83	225.71
993.12	225.71
993.41	225.72
993.70	225.76
993.99	225.77
994.28	225.78
994.58	225.82
994.87	225.83
995.16	225.79
995.45	225.78
995.74	225.75
996.03	225.73
996.32	225.76
996.61	225.79
996.90	225.75
997.19	225.71
997.48	225.63
997.77	225.62
998.06	225.63
998.34	225.63
998.63	225.64
998.92	225.64
999.21	225.65
999.50	225.64
999.79	225.62
1000.08	225.64
1000.37	225.64
1000.66	225.64
1000.95	225.66
1001.24	225.70
1001.53	225.74
1001.82	225.76
1002.11	225.76
1002.40	225.79
1002.68	225.81
1002.97	225.88
1003.26	225.92
1003.55	225.97
1003.84	226.00
1004.13	226.05
1004.42	226.01
1004.71	226.02
1004.99	226.00
1005.28	226.01
1005.57	226.03
1005.86	226.00
1006.15	225.96
1006.44	225.96
1006.72	225.96
1007.01	225.94
1007.30	225.94
1007.59	225.95
1007.88	225.95
1008.17	225.96
1008.45	225.91
1008.74	225.90
1009.03	225.90
1009.32	225.88
1009.60	225.87
1009.89	225.86
1010.18	225.82
1010.47	225.84
1010.76	225.86
1011.04	225.87
1011.33	225.93
1011.62	225.92
1011.91	225.95
1012.19	225.96
1012.48	225.97
1012.77	225.97
1013.05	226.03
1013.34	226.05
1013.63	226.03
1013.92	226.05
1014.20	226.03
1014.49	226.02
1014.78	226.01
1015.06	225.98
1015.35	225.98
1015.64	226.02
1015.92	226.06
1016.21	226.06
1016.50	226.08
1016.78	226.07
1017.07	226.05
1017.36	226.03
1017.64	226.01
1017.93	226.01
1018.22	226.01
1018.50	226.00
1018.79	225.97
1019.08	225.88
1019.36	225.85
1019.65	225.83
1019.93	225.83
1020.22	225.85
1020.51	225.92
1020.79	225.89
1021.08	226.09
1021.36	225.71
1021.65	225.39
1021.94	225.22
1022.22	225.60
1022.51	225.75
1022.79	226.11
1023.08	225.98
1023.36	227.08
1023.65	225.49
>>>>>End Processed Spectral Data<<<<<
