SpectraSuite Data File
++++++++++++++++++++++++++++++++++++
Date: Fri Feb 01 15:19:43 EST 2013
User: group
Dark Spectrum Present: No
Reference Spectrum Present: No
Number of Sampled Component Spectra: 1
Spectrometers: USB2E7196
Integration Time (usec): 35000 (USB2E7196)
Spectra Averaged: 100 (USB2E7196)
Boxcar Smoothing: 10 (USB2E7196)
Correct for Electrical Dark: No (USB2E7196)
Strobe/Lamp Enabled: No (USB2E7196)
Correct for Detector Non-linearity: No (USB2E7196)
Correct for Stray Light: No (USB2E7196)
Number of Pixels in Processed Spectrum: 2048
>>>>>Begin Processed Spectral Data<<<<<
339.09	0.00
339.48	215.55
339.86	216.34
340.24	217.60
340.63	219.43
341.01	222.21
341.39	221.80
341.78	223.11
342.16	224.79
342.54	225.14
342.93	213.51
343.31	224.30
343.69	224.83
344.07	225.33
344.46	225.78
344.84	226.14
345.22	226.38
345.60	226.66
345.99	226.88
346.37	226.99
346.75	227.07
347.13	227.12
347.52	227.21
347.90	227.27
348.28	227.28
348.66	227.33
349.05	227.36
349.43	227.39
349.81	227.45
350.19	227.46
350.57	227.54
350.96	227.65
351.34	227.71
351.72	227.79
352.10	227.85
352.48	227.92
352.87	227.99
353.25	228.07
353.63	228.11
354.01	228.16
354.39	228.23
354.77	228.35
355.15	228.46
355.54	228.49
355.92	228.56
356.30	228.62
356.68	228.75
357.06	228.80
357.44	228.87
357.82	228.89
358.20	228.98
358.58	229.05
358.97	229.10
359.35	229.14
359.73	229.21
360.11	229.27
360.49	229.32
360.87	229.37
361.25	229.42
361.63	229.48
362.01	229.55
362.39	229.59
362.77	229.60
363.15	229.60
363.53	229.65
363.91	229.63
364.29	229.67
364.67	229.58
365.05	229.56
365.43	229.55
365.81	229.60
366.19	229.65
366.57	229.68
366.95	229.66
367.33	229.67
367.71	229.65
368.09	229.62
368.47	229.59
368.85	229.56
369.23	229.56
369.61	229.48
369.99	229.45
370.37	229.41
370.75	229.43
371.13	229.38
371.51	229.28
371.89	229.24
372.27	229.17
372.65	229.12
373.03	229.07
373.41	229.01
373.78	228.93
374.16	228.79
374.54	228.68
374.92	228.59
375.30	228.54
375.68	228.44
376.06	228.38
376.44	228.33
376.82	228.27
377.19	228.17
377.57	228.12
377.95	228.02
378.33	227.94
378.71	227.80
379.09	227.74
379.47	227.68
379.84	227.63
380.22	227.56
380.60	227.44
380.98	227.35
381.36	227.28
381.73	227.21
382.11	227.20
382.49	227.13
382.87	227.06
383.25	226.98
383.62	227.01
384.00	226.95
384.38	226.88
384.76	226.81
385.13	226.80
385.51	226.75
385.89	226.68
386.27	226.64
386.64	226.61
387.02	226.55
387.40	226.52
387.78	226.46
388.15	226.43
388.53	226.43
388.91	226.42
389.29	226.40
389.66	226.35
390.04	226.24
390.42	226.24
390.79	226.25
391.17	226.24
391.55	226.14
391.92	226.14
392.30	226.14
392.68	226.13
393.05	226.09
393.43	226.08
393.81	226.09
394.18	226.09
394.56	226.11
394.94	226.15
395.31	226.16
395.69	226.24
396.06	226.25
396.44	226.29
396.82	226.32
397.19	226.40
397.57	226.47
397.95	226.58
398.32	226.61
398.70	226.65
399.07	226.73
399.45	226.81
399.82	226.89
400.20	226.92
400.58	227.01
400.95	227.09
401.33	227.22
401.70	227.38
402.08	227.47
402.45	227.60
402.83	227.76
403.20	227.87
403.58	227.93
403.95	228.12
404.33	228.22
404.71	228.36
405.08	228.57
405.46	228.70
405.83	228.85
406.21	229.01
406.58	229.20
406.96	229.38
407.33	229.59
407.70	229.77
408.08	230.11
408.45	230.31
408.83	230.54
409.20	230.75
409.58	230.96
409.95	231.25
410.33	231.52
410.70	231.74
411.08	232.06
411.45	232.40
411.82	232.70
412.20	233.10
412.57	233.51
412.95	233.83
413.32	234.26
413.69	234.68
414.07	235.12
414.44	235.59
414.82	236.10
415.19	236.63
415.56	237.22
415.94	237.73
416.31	238.39
416.68	239.02
417.06	239.74
417.43	240.42
417.81	241.21
418.18	241.96
418.55	242.79
418.93	243.69
419.30	244.57
419.67	245.52
420.04	246.46
420.42	247.45
420.79	248.60
421.16	249.77
421.54	250.96
421.91	252.17
422.28	253.41
422.66	254.71
423.03	256.03
423.40	257.34
423.77	258.77
424.15	260.20
424.52	261.69
424.89	263.30
425.26	264.83
425.64	266.25
426.01	267.85
426.38	269.51
426.75	271.17
427.13	272.89
427.50	274.67
427.87	276.59
428.24	278.48
428.61	280.24
428.99	282.15
429.36	284.26
429.73	286.33
430.10	288.39
430.47	290.44
430.85	292.58
431.22	294.87
431.59	297.24
431.96	299.50
432.33	302.02
432.70	304.42
433.08	307.23
433.45	309.89
433.82	312.53
434.19	315.46
434.56	318.25
434.93	320.90
435.30	323.55
435.68	326.45
436.05	329.30
436.42	332.09
436.79	334.60
437.16	337.31
437.53	340.14
437.90	342.96
438.27	345.69
438.64	348.49
439.01	351.07
439.38	353.35
439.75	355.47
440.13	357.98
440.50	360.35
440.87	362.22
441.24	364.12
441.61	366.25
441.98	367.73
442.35	369.56
442.72	371.44
443.09	373.21
443.46	374.19
443.83	374.74
444.20	375.26
444.57	376.12
444.94	376.38
445.31	376.71
445.68	377.00
446.05	377.09
446.42	376.67
446.79	376.21
447.16	375.71
447.53	375.39
447.90	374.19
448.27	372.99
448.64	371.39
449.01	370.27
449.37	368.33
449.74	366.45
450.11	364.21
450.48	361.69
450.85	359.19
451.22	357.00
451.59	354.99
451.96	353.06
452.33	350.42
452.70	348.08
453.07	345.30
453.43	342.43
453.80	339.65
454.17	337.01
454.54	334.47
454.91	331.74
455.28	329.10
455.65	326.62
456.02	324.16
456.38	322.04
456.75	319.37
457.12	317.08
457.49	314.81
457.86	312.65
458.23	310.86
458.59	308.79
458.96	306.76
459.33	304.92
459.70	303.01
460.07	301.52
460.43	299.81
460.80	298.16
461.17	296.71
461.54	295.22
461.91	293.80
462.27	292.37
462.64	291.10
463.01	289.74
463.38	288.44
463.74	287.07
464.11	285.94
464.48	284.93
464.85	283.84
465.21	282.99
465.58	282.03
465.95	280.91
466.32	280.00
466.68	279.05
467.05	278.13
467.42	277.24
467.78	276.30
468.15	275.42
468.52	274.73
468.88	273.86
469.25	273.08
469.62	272.44
469.98	271.77
470.35	271.15
470.72	270.55
471.08	269.85
471.45	269.29
471.82	268.67
472.18	268.05
472.55	267.61
472.92	267.04
473.28	266.59
473.65	266.14
474.02	265.70
474.38	265.35
474.75	265.02
475.11	264.68
475.48	264.41
475.85	264.16
476.21	263.93
476.58	263.76
476.94	263.62
477.31	263.47
477.67	263.29
478.04	263.17
478.41	263.09
478.77	263.14
479.14	263.05
479.50	263.10
479.87	263.15
480.23	263.23
480.60	263.31
480.96	263.38
481.33	263.57
481.69	263.74
482.06	263.91
482.42	264.09
482.79	264.32
483.15	264.64
483.52	264.98
483.88	265.32
484.25	265.70
484.61	266.11
484.98	266.53
485.34	267.06
485.71	267.65
486.07	268.24
486.44	268.81
486.80	269.54
487.17	270.26
487.53	271.09
487.90	271.90
488.26	272.82
488.62	273.82
488.99	274.78
489.35	275.83
489.72	276.95
490.08	278.16
490.44	279.39
490.81	280.69
491.17	282.05
491.54	283.51
491.90	285.04
492.26	286.67
492.63	288.36
492.99	290.17
493.36	292.07
493.72	294.12
494.08	296.26
494.45	298.48
494.81	300.81
495.17	303.23
495.54	305.82
495.90	308.48
496.26	311.25
496.63	314.20
496.99	317.28
497.35	320.53
497.72	323.90
498.08	327.40
498.44	331.11
498.80	334.99
499.17	339.00
499.53	343.17
499.89	347.52
500.26	352.06
500.62	356.71
500.98	361.67
501.34	366.76
501.71	372.08
502.07	377.52
502.43	383.19
502.79	389.01
503.16	395.08
503.52	401.33
503.88	407.75
504.24	414.40
504.60	421.35
504.97	428.55
505.33	435.88
505.69	443.57
506.05	451.33
506.41	459.26
506.78	467.50
507.14	475.93
507.50	484.70
507.86	493.77
508.22	502.95
508.59	512.16
508.95	521.73
509.31	531.49
509.67	541.60
510.03	551.82
510.39	562.34
510.75	573.13
511.12	584.15
511.48	595.46
511.84	606.86
512.20	618.39
512.56	630.33
512.92	642.48
513.28	654.80
513.64	667.31
514.00	679.99
514.37	692.91
514.73	706.09
515.09	719.13
515.45	732.45
515.81	746.09
516.17	760.14
516.53	774.19
516.89	788.41
517.25	802.60
517.61	817.14
517.97	831.69
518.33	846.19
518.69	860.99
519.05	876.06
519.41	891.38
519.77	906.95
520.13	922.42
520.49	937.93
520.85	953.46
521.21	969.17
521.57	985.52
521.93	1001.31
522.29	1017.71
522.65	1034.04
523.01	1050.31
523.37	1066.43
523.73	1082.64
524.09	1098.87
524.45	1115.32
524.81	1132.05
525.17	1148.91
525.53	1165.84
525.89	1182.77
526.25	1199.72
526.61	1216.11
526.97	1232.88
527.33	1249.41
527.68	1266.09
528.04	1282.66
528.40	1299.41
528.76	1316.65
529.12	1333.25
529.48	1350.25
529.84	1366.36
530.20	1383.08
530.56	1400.10
530.91	1417.52
531.27	1434.29
531.63	1450.88
531.99	1467.58
532.35	1483.63
532.71	1499.62
533.07	1515.95
533.42	1531.90
533.78	1547.90
534.14	1564.21
534.50	1579.63
534.86	1595.64
535.21	1610.86
535.57	1626.81
535.93	1642.30
536.29	1657.14
536.65	1672.38
537.00	1687.29
537.36	1702.62
537.72	1717.21
538.08	1731.76
538.44	1745.62
538.79	1759.57
539.15	1773.33
539.51	1787.01
539.87	1801.45
540.22	1815.21
540.58	1829.21
540.94	1842.62
541.29	1855.78
541.65	1868.56
542.01	1881.85
542.37	1894.15
542.72	1906.64
543.08	1918.48
543.44	1930.98
543.79	1942.28
544.15	1953.18
544.51	1964.66
544.87	1975.81
545.22	1986.66
545.58	1996.90
545.94	2006.74
546.29	2016.68
546.65	2026.52
547.01	2035.77
547.36	2044.57
547.72	2053.01
548.07	2060.82
548.43	2069.17
548.79	2077.11
549.14	2084.69
549.50	2092.11
549.86	2099.86
550.21	2107.20
550.57	2114.51
550.92	2121.17
551.28	2128.35
551.64	2135.49
551.99	2142.06
552.35	2148.19
552.70	2154.41
553.06	2160.40
553.41	2166.83
553.77	2172.87
554.13	2179.00
554.48	2185.27
554.84	2190.53
555.19	2195.96
555.55	2201.01
555.90	2205.27
556.26	2210.06
556.61	2214.83
556.97	2218.99
557.32	2223.22
557.68	2227.33
558.03	2231.51
558.39	2235.20
558.74	2239.86
559.10	2243.78
559.45	2247.44
559.81	2251.70
560.16	2255.48
560.52	2258.69
560.87	2262.09
561.23	2264.72
561.58	2267.70
561.94	2270.17
562.29	2272.78
562.64	2275.42
563.00	2278.13
563.35	2281.83
563.71	2285.08
564.06	2288.25
564.42	2291.01
564.77	2293.38
565.12	2295.62
565.48	2297.46
565.83	2299.09
566.19	2300.18
566.54	2301.05
566.89	2302.28
567.25	2302.77
567.60	2304.04
567.96	2305.65
568.31	2306.45
568.66	2307.47
569.02	2308.01
569.37	2308.23
569.72	2308.83
570.08	2308.83
570.43	2308.64
570.78	2307.76
571.14	2306.17
571.49	2304.71
571.84	2304.53
572.20	2303.28
572.55	2302.22
572.90	2300.64
573.26	2299.28
573.61	2297.45
573.96	2295.64
574.31	2292.47
574.67	2289.26
575.02	2285.57
575.37	2282.21
575.72	2278.14
576.08	2274.85
576.43	2271.36
576.78	2267.61
577.13	2264.46
577.49	2261.34
577.84	2257.95
578.19	2254.16
578.54	2250.18
578.90	2245.78
579.25	2240.11
579.60	2235.10
579.95	2229.91
580.30	2224.88
580.66	2219.61
581.01	2214.62
581.36	2209.52
581.71	2205.26
582.06	2200.76
582.42	2196.16
582.77	2190.72
583.12	2186.10
583.47	2181.17
583.82	2176.00
584.17	2170.73
584.53	2165.05
584.88	2159.28
585.23	2153.15
585.58	2147.64
585.93	2142.23
586.28	2137.50
586.63	2132.29
586.98	2127.10
587.34	2122.46
587.69	2117.36
588.04	2112.14
588.39	2106.40
588.74	2099.91
589.09	2093.59
589.44	2086.79
589.79	2080.70
590.14	2075.11
590.49	2068.60
590.84	2062.13
591.19	2056.00
591.54	2049.54
591.89	2042.09
592.25	2035.19
592.60	2028.08
592.95	2020.40
593.30	2013.00
593.65	2005.43
594.00	1998.40
594.35	1991.16
594.70	1983.08
595.05	1975.71
595.40	1968.21
595.75	1960.73
596.10	1954.34
596.45	1947.55
596.80	1941.33
597.15	1934.52
597.50	1927.21
597.85	1920.68
598.19	1913.92
598.54	1906.82
598.89	1900.04
599.24	1894.15
599.59	1887.45
599.94	1881.25
600.29	1875.03
600.64	1868.46
600.99	1860.80
601.34	1853.84
601.69	1846.84
602.04	1839.66
602.39	1832.38
602.74	1825.68
603.08	1818.75
603.43	1812.03
603.78	1804.69
604.13	1797.46
604.48	1790.12
604.83	1783.29
605.18	1776.20
605.53	1768.27
605.87	1760.34
606.22	1753.06
606.57	1745.08
606.92	1737.79
607.27	1730.37
607.62	1723.24
607.96	1715.83
608.31	1709.22
608.66	1701.63
609.01	1694.00
609.36	1686.58
609.70	1678.53
610.05	1670.18
610.40	1662.46
610.75	1654.18
611.10	1646.53
611.44	1638.11
611.79	1630.29
612.14	1621.57
612.49	1612.44
612.83	1604.10
613.18	1595.90
613.53	1587.78
613.88	1579.25
614.22	1570.84
614.57	1562.32
614.92	1554.37
615.27	1546.78
615.61	1538.44
615.96	1530.32
616.31	1522.57
616.65	1515.22
617.00	1507.60
617.35	1500.11
617.70	1491.75
618.04	1483.23
618.39	1475.07
618.74	1467.41
619.08	1458.98
619.43	1451.43
619.78	1444.49
620.12	1437.22
620.47	1429.66
620.82	1421.58
621.16	1414.12
621.51	1406.53
621.85	1398.85
622.20	1390.19
622.55	1381.95
622.89	1374.11
623.24	1366.55
623.59	1359.36
623.93	1351.77
624.28	1344.54
624.62	1336.92
624.97	1329.83
625.32	1323.01
625.66	1315.82
626.01	1308.53
626.35	1301.09
626.70	1293.27
627.04	1285.56
627.39	1277.79
627.73	1270.37
628.08	1263.37
628.43	1256.07
628.77	1248.67
629.12	1241.06
629.46	1233.93
629.81	1226.47
630.15	1219.22
630.50	1211.79
630.84	1203.52
631.19	1195.71
631.53	1188.27
631.88	1180.85
632.22	1173.21
632.57	1165.85
632.91	1158.44
633.26	1151.16
633.60	1143.90
633.95	1136.97
634.29	1129.93
634.64	1123.28
634.98	1115.85
635.32	1108.69
635.67	1102.25
636.01	1095.68
636.36	1089.08
636.70	1082.60
637.05	1076.08
637.39	1069.64
637.73	1063.15
638.08	1057.22
638.42	1051.12
638.77	1044.62
639.11	1037.95
639.45	1031.58
639.80	1025.00
640.14	1018.58
640.49	1012.08
640.83	1005.71
641.17	999.41
641.52	993.10
641.86	986.71
642.20	980.93
642.55	974.72
642.89	968.15
643.23	961.61
643.58	955.84
643.92	949.63
644.26	943.40
644.61	937.41
644.95	931.37
645.29	924.76
645.64	918.08
645.98	911.77
646.32	905.92
646.66	899.81
647.01	894.02
647.35	888.36
647.69	882.47
648.04	876.93
648.38	871.13
648.72	865.13
649.06	859.03
649.41	853.19
649.75	847.09
650.09	841.17
650.43	835.34
650.78	829.14
651.12	823.27
651.46	817.65
651.80	811.83
652.14	806.38
652.49	801.08
652.83	795.94
653.17	790.21
653.51	784.50
653.85	779.22
654.20	773.61
654.54	767.59
654.88	761.91
655.22	756.12
655.56	750.44
655.90	745.02
656.25	739.76
656.59	734.42
656.93	729.35
657.27	724.15
657.61	718.69
657.95	713.53
658.29	708.38
658.64	703.14
658.98	697.90
659.32	692.43
659.66	687.14
660.00	681.82
660.34	676.95
660.68	672.04
661.02	666.98
661.36	662.21
661.70	657.68
662.05	653.29
662.39	648.87
662.73	644.44
663.07	640.08
663.41	635.64
663.75	631.07
664.09	626.57
664.43	622.14
664.77	618.04
665.11	613.83
665.45	609.71
665.79	605.67
666.13	601.58
666.47	597.60
666.81	593.42
667.15	589.28
667.49	585.35
667.83	581.61
668.17	577.70
668.51	573.64
668.85	569.61
669.19	565.80
669.53	561.96
669.87	558.03
670.21	554.27
670.55	550.64
670.89	547.27
671.23	543.85
671.57	540.35
671.91	536.84
672.25	533.38
672.58	529.82
672.92	526.44
673.26	523.32
673.60	520.17
673.94	517.16
674.28	514.24
674.62	511.35
674.96	508.17
675.30	505.19
675.64	502.25
675.97	499.58
676.31	496.73
676.65	493.84
676.99	491.13
677.33	488.33
677.67	485.52
678.01	482.46
678.34	479.48
678.68	476.65
679.02	473.83
679.36	471.05
679.70	468.40
680.04	465.61
680.37	462.65
680.71	459.85
681.05	457.22
681.39	454.58
681.73	451.90
682.06	449.43
682.40	446.92
682.74	444.49
683.08	441.91
683.42	439.32
683.75	436.87
684.09	434.35
684.43	431.85
684.77	429.38
685.10	427.06
685.44	424.80
685.78	422.58
686.12	420.34
686.45	418.14
686.79	415.84
687.13	413.68
687.46	411.57
687.80	409.43
688.14	407.24
688.48	405.15
688.81	402.89
689.15	400.73
689.49	398.61
689.82	396.48
690.16	394.38
690.50	392.39
690.83	390.39
691.17	388.45
691.51	386.55
691.84	384.71
692.18	382.79
692.52	380.77
692.85	378.80
693.19	376.93
693.52	375.04
693.86	373.28
694.20	371.46
694.53	369.65
694.87	367.82
695.21	366.05
695.54	364.22
695.88	362.54
696.21	360.86
696.55	359.16
696.88	357.47
697.22	355.80
697.56	354.22
697.89	352.56
698.23	350.94
698.56	349.28
698.90	347.67
699.23	346.02
699.57	344.48
699.90	342.95
700.24	341.38
700.58	339.84
700.91	338.31
701.25	336.88
701.58	335.52
701.92	334.13
702.25	332.68
702.59	331.30
702.92	329.92
703.26	328.62
703.59	327.37
703.93	326.19
704.26	324.93
704.60	323.59
704.93	322.35
705.26	321.13
705.60	320.03
705.93	318.89
706.27	317.82
706.60	316.75
706.94	315.61
707.27	314.52
707.61	313.50
707.94	312.48
708.27	311.36
708.61	310.26
708.94	309.25
709.28	308.36
709.61	307.44
709.94	306.50
710.28	305.44
710.61	304.47
710.95	303.44
711.28	302.56
711.61	301.65
711.95	300.72
712.28	299.74
712.61	298.75
712.95	297.83
713.28	297.01
713.61	296.13
713.95	295.31
714.28	294.45
714.61	293.60
714.95	292.76
715.28	291.90
715.61	291.07
715.95	290.22
716.28	289.34
716.61	288.58
716.95	287.78
717.28	287.07
717.61	286.27
717.94	285.54
718.28	284.74
718.61	283.99
718.94	283.32
719.27	282.69
719.61	282.04
719.94	281.37
720.27	280.63
720.60	279.99
720.94	279.33
721.27	278.77
721.60	278.17
721.93	277.62
722.27	277.15
722.60	276.60
722.93	276.05
723.26	275.56
723.59	274.95
723.93	274.40
724.26	273.85
724.59	273.36
724.92	272.84
725.25	272.35
725.59	271.87
725.92	271.39
726.25	270.90
726.58	270.42
726.91	269.91
727.24	269.48
727.57	269.00
727.91	268.56
728.24	268.10
728.57	267.64
728.90	267.18
729.23	266.67
729.56	266.25
729.89	265.81
730.22	265.32
730.55	264.85
730.89	264.44
731.22	263.99
731.55	263.54
731.88	263.11
732.21	262.68
732.54	262.22
732.87	261.80
733.20	261.38
733.53	260.99
733.86	260.62
734.19	260.21
734.52	259.81
734.85	259.48
735.18	259.04
735.51	258.67
735.84	258.27
736.17	257.90
736.50	257.49
736.83	257.21
737.16	256.89
737.49	256.55
737.82	256.20
738.15	255.85
738.48	255.52
738.81	255.20
739.14	254.87
739.47	254.55
739.80	254.21
740.13	253.92
740.46	253.60
740.79	253.32
741.12	253.00
741.45	252.69
741.78	252.34
742.11	252.05
742.44	251.72
742.77	251.46
743.10	251.16
743.43	250.85
743.75	250.48
744.08	250.27
744.41	250.01
744.74	249.71
745.07	249.45
745.40	249.18
745.73	248.93
746.06	248.62
746.39	248.38
746.71	248.10
747.04	247.83
747.37	247.54
747.70	247.25
748.03	247.03
748.36	246.82
748.68	246.58
749.01	246.33
749.34	246.07
749.67	245.77
750.00	245.52
750.33	245.38
750.65	245.17
750.98	244.84
751.31	244.62
751.64	244.41
751.97	244.26
752.29	244.04
752.62	243.79
752.95	243.60
753.28	243.36
753.60	243.15
753.93	242.95
754.26	242.76
754.59	242.55
754.91	242.31
755.24	242.14
755.57	241.90
755.90	241.72
756.22	241.53
756.55	241.37
756.88	241.20
757.20	240.96
757.53	240.77
757.86	240.60
758.19	240.44
758.51	240.28
758.84	240.07
759.17	239.91
759.49	239.77
759.82	239.68
760.15	239.59
760.47	239.48
760.80	239.35
761.13	239.24
761.45	239.07
761.78	238.97
762.11	238.83
762.43	238.71
762.76	238.59
763.08	238.53
763.41	238.44
763.74	238.32
764.06	238.20
764.39	238.06
764.71	237.92
765.04	237.79
765.37	237.67
765.69	237.55
766.02	237.42
766.34	237.31
766.67	237.14
767.00	237.01
767.32	236.94
767.65	236.88
767.97	236.76
768.30	236.69
768.62	236.59
768.95	236.47
769.27	236.37
769.60	236.29
769.92	236.14
770.25	235.99
770.57	235.85
770.90	235.74
771.22	235.66
771.55	235.58
771.87	235.48
772.20	235.33
772.52	235.29
772.85	235.31
773.17	235.23
773.50	235.13
773.82	235.02
774.15	234.88
774.47	234.74
774.80	234.63
775.12	234.56
775.45	234.44
775.77	234.35
776.09	234.26
776.42	234.17
776.74	234.11
777.07	234.01
777.39	233.95
777.72	233.86
778.04	233.81
778.36	233.77
778.69	233.74
779.01	233.72
779.33	233.57
779.66	233.39
779.98	233.31
780.31	233.23
780.63	233.21
780.95	233.14
781.28	233.02
781.60	232.95
781.92	232.88
782.25	232.83
782.57	232.78
782.89	232.72
783.22	232.64
783.54	232.56
783.86	232.55
784.19	232.51
784.51	232.47
784.83	232.38
785.16	232.28
785.48	232.21
785.80	232.15
786.12	232.11
786.45	232.06
786.77	232.01
787.09	231.95
787.42	231.89
787.74	231.83
788.06	231.82
788.38	231.78
788.71	231.68
789.03	231.62
789.35	231.57
789.67	231.51
789.99	231.52
790.32	231.46
790.64	231.39
790.96	231.40
791.28	231.33
791.61	231.28
791.93	231.23
792.25	231.15
792.57	231.17
792.89	231.12
793.21	231.08
793.54	230.99
793.86	230.96
794.18	230.91
794.50	230.86
794.82	230.81
795.14	230.77
795.47	230.78
795.79	230.77
796.11	230.73
796.43	230.71
796.75	230.66
797.07	230.66
797.39	230.65
797.71	230.57
798.04	230.56
798.36	230.56
798.68	230.50
799.00	230.47
799.32	230.41
799.64	230.37
799.96	230.33
800.28	230.34
800.60	230.32
800.92	230.30
801.24	230.27
801.56	230.28
801.89	230.23
802.21	230.19
802.53	230.14
802.85	230.14
803.17	230.16
803.49	230.08
803.81	230.03
804.13	229.96
804.45	229.93
804.77	229.90
805.09	229.86
805.41	229.88
805.73	229.86
806.05	229.79
806.37	229.79
806.69	229.75
807.01	229.73
807.33	229.69
807.65	229.62
807.97	229.61
808.28	229.56
808.60	229.56
808.92	229.54
809.24	229.60
809.56	229.54
809.88	229.48
810.20	229.46
810.52	229.49
810.84	229.45
811.16	229.41
811.48	229.38
811.80	229.39
812.12	229.34
812.43	229.32
812.75	229.33
813.07	229.29
813.39	229.31
813.71	229.28
814.03	229.27
814.35	229.29
814.67	229.27
814.98	229.26
815.30	229.22
815.62	229.17
815.94	229.04
816.26	229.06
816.58	229.01
816.89	229.01
817.21	228.94
817.53	228.94
817.85	228.93
818.17	228.93
818.48	228.87
818.80	228.89
819.12	228.88
819.44	228.87
819.76	228.82
820.07	228.77
820.39	228.77
820.71	228.74
821.03	228.69
821.34	228.66
821.66	228.65
821.98	228.66
822.30	228.64
822.61	228.70
822.93	228.64
823.25	228.60
823.57	228.60
823.88	228.60
824.20	228.57
824.52	228.57
824.83	228.52
825.15	228.49
825.47	228.46
825.79	228.43
826.10	228.40
826.42	228.41
826.74	228.44
827.05	228.40
827.37	228.39
827.69	228.39
828.00	228.38
828.32	228.35
828.64	228.30
828.95	228.35
829.27	228.32
829.58	228.33
829.90	228.34
830.22	228.34
830.53	228.30
830.85	228.31
831.17	228.27
831.48	228.28
831.80	228.26
832.11	228.23
832.43	228.22
832.75	228.19
833.06	228.22
833.38	228.17
833.69	228.13
834.01	228.13
834.32	228.10
834.64	228.08
834.96	228.08
835.27	228.07
835.59	228.01
835.90	227.97
836.22	227.93
836.53	227.90
836.85	227.87
837.16	227.97
837.48	227.94
837.79	227.98
838.11	227.98
838.42	227.96
838.74	227.97
839.05	227.94
839.37	227.96
839.68	227.87
840.00	227.85
840.31	227.89
840.63	227.88
840.94	227.87
841.26	227.85
841.57	227.84
841.88	227.87
842.20	227.88
842.51	227.85
842.83	227.86
843.14	227.96
843.46	227.94
843.77	227.87
844.08	227.86
844.40	227.83
844.71	227.81
845.03	227.85
845.34	227.83
845.65	227.82
845.97	227.84
846.28	227.86
846.60	227.86
846.91	227.84
847.22	227.82
847.54	227.87
847.85	227.87
848.16	227.87
848.48	227.84
848.79	227.87
849.10	227.88
849.42	227.91
849.73	227.83
850.04	227.81
850.36	227.77
850.67	227.81
850.98	227.76
851.30	227.75
851.61	227.72
851.92	227.75
852.23	227.80
852.55	227.78
852.86	227.76
853.17	227.76
853.49	227.77
853.80	227.81
854.11	227.76
854.42	227.77
854.74	227.75
855.05	227.77
855.36	227.71
855.67	227.71
855.99	227.70
856.30	227.80
856.61	227.83
856.92	227.84
857.23	227.82
857.55	227.85
857.86	227.85
858.17	227.87
858.48	227.88
858.79	227.86
859.11	227.87
859.42	227.90
859.73	227.90
860.04	227.91
860.35	227.88
860.66	227.85
860.98	227.86
861.29	227.88
861.60	227.85
861.91	227.86
862.22	227.86
862.53	227.85
862.84	227.74
863.16	227.76
863.47	227.74
863.78	227.73
864.09	227.73
864.40	227.74
864.71	227.77
865.02	227.75
865.33	227.75
865.64	227.73
865.95	227.71
866.27	227.79
866.58	227.74
866.89	227.74
867.20	227.76
867.51	227.73
867.82	227.75
868.13	227.79
868.44	227.74
868.75	227.76
869.06	227.76
869.37	227.76
869.68	227.72
869.99	227.72
870.30	227.73
870.61	227.71
870.92	227.69
871.23	227.63
871.54	227.64
871.85	227.66
872.16	227.67
872.47	227.65
872.78	227.57
873.09	227.58
873.40	227.62
873.71	227.64
874.02	227.62
874.33	227.58
874.64	227.53
874.95	227.53
875.26	227.50
875.56	227.47
875.87	227.44
876.18	227.45
876.49	227.51
876.80	227.50
877.11	227.50
877.42	227.46
877.73	227.45
878.04	227.43
878.35	227.40
878.66	227.35
878.96	227.33
879.27	227.33
879.58	227.31
879.89	227.24
880.20	227.23
880.51	227.24
880.82	227.26
881.12	227.27
881.43	227.29
881.74	227.25
882.05	227.25
882.36	227.27
882.67	227.27
882.97	227.16
883.28	227.15
883.59	227.13
883.90	227.19
884.21	227.20
884.51	227.18
884.82	227.16
885.13	227.17
885.44	227.19
885.74	227.20
886.05	227.20
886.36	227.22
886.67	227.20
886.98	227.26
887.28	227.26
887.59	227.26
887.90	227.26
888.20	227.28
888.51	227.30
888.82	227.29
889.13	227.27
889.43	227.37
889.74	227.39
890.05	227.39
890.35	227.37
890.66	227.39
890.97	227.40
891.28	227.40
891.58	227.42
891.89	227.38
892.20	227.38
892.50	227.40
892.81	227.39
893.12	227.43
893.42	227.38
893.73	227.38
894.04	227.38
894.34	227.36
894.65	227.38
894.95	227.41
895.26	227.39
895.57	227.46
895.87	227.36
896.18	227.37
896.48	227.39
896.79	227.38
897.10	227.38
897.40	227.40
897.71	227.41
898.01	227.39
898.32	227.47
898.63	227.46
898.93	227.44
899.24	227.45
899.54	227.42
899.85	227.44
900.15	227.44
900.46	227.44
900.76	227.48
901.07	227.43
901.38	227.40
901.68	227.41
901.99	227.38
902.29	227.42
902.60	227.38
902.90	227.38
903.21	227.39
903.51	227.38
903.82	227.36
904.12	227.37
904.43	227.38
904.73	227.33
905.03	227.34
905.34	227.45
905.64	227.48
905.95	227.46
906.25	227.45
906.56	227.44
906.86	227.43
907.17	227.41
907.47	227.45
907.77	227.41
908.08	227.42
908.38	227.40
908.69	227.38
908.99	227.39
909.30	227.38
909.60	227.38
909.90	227.40
910.21	227.41
910.51	227.37
910.81	227.37
911.12	227.36
911.42	227.37
911.73	227.25
912.03	227.23
912.33	227.26
912.64	227.24
912.94	227.22
913.24	227.19
913.55	227.19
913.85	227.18
914.15	227.21
914.46	227.21
914.76	227.21
915.06	227.18
915.37	227.19
915.67	227.19
915.97	227.22
916.27	227.16
916.58	227.13
916.88	227.14
917.18	227.13
917.49	227.19
917.79	227.17
918.09	227.19
918.39	227.23
918.70	227.20
919.00	227.17
919.30	227.23
919.60	227.23
919.91	227.23
920.21	227.21
920.51	227.20
920.81	227.19
921.12	227.20
921.42	227.24
921.72	227.26
922.02	227.24
922.32	227.21
922.63	227.24
922.93	227.29
923.23	227.27
923.53	227.22
923.83	227.21
924.13	227.20
924.44	227.19
924.74	227.19
925.04	227.21
925.34	227.24
925.64	227.20
925.94	227.18
926.24	227.23
926.55	227.22
926.85	227.26
927.15	227.25
927.45	227.22
927.75	227.22
928.05	227.22
928.35	227.23
928.65	227.26
928.95	227.26
929.26	227.22
929.56	227.28
929.86	227.32
930.16	227.29
930.46	227.31
930.76	227.34
931.06	227.31
931.36	227.30
931.66	227.33
931.96	227.35
932.26	227.36
932.56	227.31
932.86	227.31
933.16	227.30
933.46	227.29
933.76	227.28
934.06	227.31
934.36	227.32
934.66	227.31
934.96	227.29
935.26	227.31
935.56	227.32
935.86	227.27
936.16	227.26
936.46	227.25
936.76	227.26
937.06	227.23
937.36	227.22
937.66	227.22
937.96	227.18
938.26	227.16
938.56	227.20
938.86	227.16
939.16	227.21
939.46	227.21
939.76	227.21
940.06	227.20
940.35	227.18
940.65	227.13
940.95	227.12
941.25	227.10
941.55	227.05
941.85	227.04
942.15	227.04
942.45	227.09
942.75	227.08
943.04	227.05
943.34	227.06
943.64	227.04
943.94	227.03
944.24	227.02
944.54	227.00
944.84	226.95
945.13	226.99
945.43	226.95
945.73	226.95
946.03	226.95
946.33	226.94
946.62	226.90
946.92	226.93
947.22	226.93
947.52	226.93
947.82	226.96
948.11	226.97
948.41	226.97
948.71	226.91
949.01	226.91
949.31	226.93
949.60	226.89
949.90	226.94
950.20	226.93
950.50	226.95
950.79	226.95
951.09	227.00
951.39	226.98
951.69	226.97
951.98	226.97
952.28	226.98
952.58	226.98
952.87	226.98
953.17	226.96
953.47	226.94
953.76	226.92
954.06	226.88
954.36	226.86
954.66	226.82
954.95	226.86
955.25	226.84
955.55	226.82
955.84	226.82
956.14	226.77
956.44	226.77
956.73	226.76
957.03	226.75
957.32	226.70
957.62	226.73
957.92	226.77
958.21	226.76
958.51	226.87
958.81	226.88
959.10	226.89
959.40	226.92
959.69	226.95
959.99	226.98
960.29	227.01
960.58	227.01
960.88	227.07
961.17	227.06
961.47	227.07
961.76	227.08
962.06	227.11
962.36	227.14
962.65	227.16
962.95	227.18
963.24	227.20
963.54	227.28
963.83	227.27
964.13	227.26
964.42	227.24
964.72	227.14
965.01	227.17
965.31	227.20
965.60	227.16
965.90	227.22
966.19	227.23
966.49	227.22
966.78	227.21
967.08	227.21
967.37	227.25
967.67	227.26
967.96	227.29
968.26	227.30
968.55	227.28
968.85	227.29
969.14	227.29
969.43	227.27
969.73	227.24
970.02	227.25
970.32	227.25
970.61	227.26
970.91	227.28
971.20	227.25
971.49	227.21
971.79	227.26
972.08	227.20
972.38	227.20
972.67	227.21
972.96	227.24
973.26	227.21
973.55	227.21
973.85	227.20
974.14	227.20
974.43	227.21
974.73	227.24
975.02	227.23
975.31	227.21
975.61	227.22
975.90	227.19
976.19	227.19
976.49	227.19
976.78	227.20
977.07	227.17
977.37	227.17
977.66	227.19
977.95	227.17
978.24	227.15
978.54	227.16
978.83	227.15
979.12	227.15
979.42	227.18
979.71	227.13
980.00	227.12
980.29	227.13
980.59	227.08
980.88	227.06
981.17	227.01
981.46	226.99
981.76	226.99
982.05	227.05
982.34	227.02
982.63	227.01
982.93	226.99
983.22	226.98
983.51	226.96
983.80	226.96
984.09	226.94
984.39	226.97
984.68	226.95
984.97	226.92
985.26	226.90
985.55	226.88
985.85	226.84
986.14	226.85
986.43	226.86
986.72	226.85
987.01	226.81
987.30	226.82
987.59	226.83
987.89	226.83
988.18	226.76
988.47	226.76
988.76	226.73
989.05	226.70
989.34	226.71
989.63	226.71
989.92	226.69
990.22	226.66
990.51	226.59
990.80	226.56
991.09	226.56
991.38	226.56
991.67	226.52
991.96	226.52
992.25	226.52
992.54	226.45
992.83	226.45
993.12	226.45
993.41	226.49
993.70	226.52
993.99	226.51
994.28	226.53
994.58	226.51
994.87	226.54
995.16	226.55
995.45	226.56
995.74	226.54
996.03	226.54
996.32	226.55
996.61	226.63
996.90	226.63
997.19	226.64
997.48	226.63
997.77	226.63
998.06	226.65
998.34	226.65
998.63	226.68
998.92	226.71
999.21	226.71
999.50	226.70
999.79	226.68
1000.08	226.70
1000.37	226.72
1000.66	226.75
1000.95	226.75
1001.24	226.77
1001.53	226.78
1001.82	226.83
1002.11	226.86
1002.40	226.89
1002.68	226.91
1002.97	227.01
1003.26	227.01
1003.55	227.01
1003.84	227.04
1004.13	227.08
1004.42	227.10
1004.71	227.11
1004.99	227.12
1005.28	227.18
1005.57	227.19
1005.86	227.21
1006.15	227.17
1006.44	227.18
1006.72	227.23
1007.01	227.25
1007.30	227.26
1007.59	227.27
1007.88	227.23
1008.17	227.24
1008.45	227.24
1008.74	227.19
1009.03	227.13
1009.32	227.13
1009.60	227.13
1009.89	227.14
1010.18	227.12
1010.47	227.14
1010.76	227.15
1011.04	227.16
1011.33	227.27
1011.62	227.25
1011.91	227.26
1012.19	227.30
1012.48	227.31
1012.77	227.28
1013.05	227.31
1013.34	227.29
1013.63	227.31
1013.92	227.33
1014.20	227.29
1014.49	227.30
1014.78	227.33
1015.06	227.31
1015.35	227.32
1015.64	227.33
1015.92	227.34
1016.21	227.32
1016.50	227.27
1016.78	227.26
1017.07	227.26
1017.36	227.10
1017.64	227.09
1017.93	227.06
1018.22	227.03
1018.50	226.99
1018.79	226.97
1019.08	226.89
1019.36	226.91
1019.65	226.87
1019.93	226.89
1020.22	226.91
1020.51	226.95
1020.79	226.93
1021.08	226.68
1021.36	226.66
1021.65	226.92
1021.94	226.37
1022.22	227.15
1022.51	226.87
1022.79	227.27
1023.08	227.22
1023.36	228.07
1023.65	226.80
>>>>>End Processed Spectral Data<<<<<
