SpectraSuite Data File
++++++++++++++++++++++++++++++++++++
Date: Fri Feb 01 17:51:23 EST 2013
User: group
Dark Spectrum Present: No
Reference Spectrum Present: No
Number of Sampled Component Spectra: 1
Spectrometers: USB2E7196
Integration Time (usec): 35000 (USB2E7196)
Spectra Averaged: 100 (USB2E7196)
Boxcar Smoothing: 10 (USB2E7196)
Correct for Electrical Dark: No (USB2E7196)
Strobe/Lamp Enabled: No (USB2E7196)
Correct for Detector Non-linearity: No (USB2E7196)
Correct for Stray Light: No (USB2E7196)
Number of Pixels in Processed Spectrum: 2048
>>>>>Begin Processed Spectral Data<<<<<
339.09	0.00
339.48	213.25
339.86	214.40
340.24	215.46
340.63	216.80
341.01	220.39
341.39	219.64
341.78	221.83
342.16	222.69
342.54	222.67
342.93	211.38
343.31	222.07
343.69	222.59
344.07	223.05
344.46	223.47
344.84	223.85
345.22	224.08
345.60	224.34
345.99	224.48
346.37	224.60
346.75	224.74
347.13	224.78
347.52	224.85
347.90	224.91
348.28	224.91
348.66	224.97
349.05	224.93
349.43	224.99
349.81	225.03
350.19	225.07
350.57	225.13
350.96	225.21
351.34	225.28
351.72	225.36
352.10	225.44
352.48	225.52
352.87	225.57
353.25	225.62
353.63	225.67
354.01	225.74
354.39	225.81
354.77	225.87
355.15	225.97
355.54	226.00
355.92	226.06
356.30	226.10
356.68	226.22
357.06	226.29
357.44	226.33
357.82	226.42
358.20	226.47
358.58	226.52
358.97	226.53
359.35	226.59
359.73	226.64
360.11	226.69
360.49	226.75
360.87	226.80
361.25	226.84
361.63	226.89
362.01	226.94
362.39	226.95
362.77	226.98
363.15	227.01
363.53	227.03
363.91	227.06
364.29	227.09
364.67	227.01
365.05	227.05
365.43	227.05
365.81	227.08
366.19	227.14
366.57	227.19
366.95	227.23
367.33	227.22
367.71	227.24
368.09	227.27
368.47	227.25
368.85	227.22
369.23	227.24
369.61	227.19
369.99	227.19
370.37	227.20
370.75	227.22
371.13	227.18
371.51	227.11
371.89	227.09
372.27	227.06
372.65	227.02
373.03	226.97
373.41	226.95
373.78	226.84
374.16	226.77
374.54	226.68
374.92	226.61
375.30	226.58
375.68	226.47
376.06	226.42
376.44	226.38
376.82	226.36
377.19	226.28
377.57	226.22
377.95	226.13
378.33	226.05
378.71	225.92
379.09	225.86
379.47	225.86
379.84	225.75
380.22	225.69
380.60	225.63
380.98	225.59
381.36	225.50
381.73	225.48
382.11	225.42
382.49	225.39
382.87	225.31
383.25	225.24
383.62	225.34
384.00	225.24
384.38	225.19
384.76	225.15
385.13	225.16
385.51	225.17
385.89	225.10
386.27	225.06
386.64	225.03
387.02	224.96
387.40	224.91
387.78	224.90
388.15	224.88
388.53	224.82
388.91	224.76
389.29	224.75
389.66	224.72
390.04	224.68
390.42	224.67
390.79	224.69
391.17	224.68
391.55	224.54
391.92	224.53
392.30	224.51
392.68	224.47
393.05	224.44
393.43	224.41
393.81	224.44
394.18	224.43
394.56	224.44
394.94	224.50
395.31	224.51
395.69	224.56
396.06	224.58
396.44	224.64
396.82	224.64
397.19	224.72
397.57	224.72
397.95	224.77
398.32	224.80
398.70	224.84
399.07	224.90
399.45	224.95
399.82	225.03
400.20	225.07
400.58	225.15
400.95	225.20
401.33	225.29
401.70	225.42
402.08	225.52
402.45	225.60
402.83	225.71
403.20	225.82
403.58	225.90
403.95	226.01
404.33	226.14
404.71	226.30
405.08	226.46
405.46	226.63
405.83	226.77
406.21	226.93
406.58	227.11
406.96	227.29
407.33	227.49
407.70	227.70
408.08	228.03
408.45	228.29
408.83	228.57
409.20	228.85
409.58	229.10
409.95	229.42
410.33	229.79
410.70	230.10
411.08	230.51
411.45	230.89
411.82	231.30
412.20	231.75
412.57	232.25
412.95	232.68
413.32	233.18
413.69	233.71
414.07	234.22
414.44	234.81
414.82	235.40
415.19	236.16
415.56	236.88
415.94	237.61
416.31	238.44
416.68	239.24
417.06	240.18
417.43	241.05
417.81	242.04
418.18	243.05
418.55	244.14
418.93	245.24
419.30	246.39
419.67	247.58
420.04	248.85
420.42	250.19
420.79	251.70
421.16	253.21
421.54	254.80
421.91	256.42
422.28	258.09
422.66	259.88
423.03	261.52
423.40	263.25
423.77	265.08
424.15	266.94
424.52	268.88
424.89	270.93
425.26	272.98
425.64	274.89
426.01	276.98
426.38	279.17
426.75	281.37
427.13	283.62
427.50	286.04
427.87	288.53
428.24	290.95
428.61	293.27
428.99	295.82
429.36	298.61
429.73	301.33
430.10	303.99
430.47	306.67
430.85	309.50
431.22	312.45
431.59	315.55
431.96	318.48
432.33	321.76
432.70	324.95
433.08	328.62
433.45	332.08
433.82	335.49
434.19	339.30
434.56	342.97
434.93	346.48
435.30	349.88
435.68	353.65
436.05	357.40
436.42	361.08
436.79	364.37
437.16	367.85
437.53	371.57
437.90	375.28
438.27	378.85
438.64	382.59
439.01	385.99
439.38	388.96
439.75	391.84
440.13	395.12
440.50	398.16
440.87	400.63
441.24	403.25
441.61	406.11
441.98	408.07
442.35	410.51
442.72	413.02
443.09	415.46
443.46	416.77
443.83	417.54
444.20	418.24
444.57	419.35
444.94	419.81
445.31	420.29
445.68	420.75
446.05	420.89
446.42	420.41
446.79	419.91
447.16	419.35
447.53	418.94
447.90	417.48
448.27	415.99
448.64	413.90
449.01	412.39
449.37	409.78
449.74	407.30
450.11	404.28
450.48	401.02
450.85	397.70
451.22	394.86
451.59	392.23
451.96	389.64
452.33	386.29
452.70	383.18
453.07	379.46
453.43	375.67
453.80	372.06
454.17	368.50
454.54	365.14
454.91	361.61
455.28	358.09
455.65	354.81
456.02	351.53
456.38	348.73
456.75	345.17
457.12	342.24
457.49	339.33
457.86	336.50
458.23	334.00
458.59	331.26
458.96	328.52
459.33	326.09
459.70	323.65
460.07	321.60
460.43	319.32
460.80	317.15
461.17	315.21
461.54	313.19
461.91	311.29
462.27	309.35
462.64	307.65
463.01	305.87
463.38	304.11
463.74	302.36
464.11	300.79
464.48	299.46
464.85	297.93
465.21	296.70
465.58	295.48
465.95	294.08
466.32	292.89
466.68	291.71
467.05	290.50
467.42	289.30
467.78	288.08
468.15	286.93
468.52	286.06
468.88	284.92
469.25	283.91
469.62	283.09
469.98	282.20
470.35	281.36
470.72	280.55
471.08	279.69
471.45	278.96
471.82	278.22
472.18	277.40
472.55	276.84
472.92	276.15
473.28	275.51
473.65	274.91
474.02	274.35
474.38	273.84
474.75	273.35
475.11	272.88
475.48	272.48
475.85	272.14
476.21	271.78
476.58	271.53
476.94	271.30
477.31	271.03
477.67	270.76
478.04	270.56
478.41	270.41
478.77	270.34
479.14	270.19
479.50	270.14
479.87	270.15
480.23	270.17
480.60	270.19
480.96	270.20
481.33	270.33
481.69	270.43
482.06	270.59
482.42	270.76
482.79	270.96
483.15	271.24
483.52	271.56
483.88	271.89
484.25	272.23
484.61	272.59
484.98	273.00
485.34	273.59
485.71	274.16
486.07	274.75
486.44	275.34
486.80	276.05
487.17	276.81
487.53	277.63
487.90	278.55
488.26	279.55
488.62	280.58
488.99	281.58
489.35	282.66
489.72	283.79
490.08	285.02
490.44	286.32
490.81	287.70
491.17	289.13
491.54	290.67
491.90	292.29
492.26	294.08
492.63	295.94
492.99	297.78
493.36	299.79
493.72	301.92
494.08	304.11
494.45	306.46
494.81	308.90
495.17	311.44
495.54	314.10
495.90	316.86
496.26	319.79
496.63	322.88
496.99	326.14
497.35	329.56
497.72	333.13
498.08	336.84
498.44	340.74
498.80	344.89
499.17	349.13
499.53	353.57
499.89	358.16
500.26	362.88
500.62	367.78
500.98	372.98
501.34	378.36
501.71	383.96
502.07	389.70
502.43	395.65
502.79	401.83
503.16	408.21
503.52	414.88
503.88	421.63
504.24	428.66
504.60	435.97
504.97	443.52
505.33	451.29
505.69	459.38
506.05	467.54
506.41	475.79
506.78	484.43
507.14	493.27
507.50	502.43
507.86	511.96
508.22	521.66
508.59	531.44
508.95	541.56
509.31	551.99
509.67	562.71
510.03	573.58
510.39	584.78
510.75	596.28
511.12	607.89
511.48	619.97
511.84	632.17
512.20	644.36
512.56	657.03
512.92	669.96
513.28	683.14
513.64	696.44
514.00	710.05
514.37	723.84
514.73	737.80
515.09	751.71
515.45	765.95
515.81	780.53
516.17	795.46
516.53	810.65
516.89	825.81
517.25	840.90
517.61	856.31
517.97	871.83
518.33	887.24
518.69	903.11
519.05	919.08
519.41	935.32
519.77	952.01
520.13	968.72
520.49	985.25
520.85	1001.83
521.21	1018.77
521.57	1036.34
521.93	1053.41
522.29	1071.19
522.65	1088.92
523.01	1106.46
523.37	1123.89
523.73	1141.41
524.09	1158.94
524.45	1176.55
524.81	1194.77
525.17	1213.05
525.53	1231.45
525.89	1249.93
526.25	1268.32
526.61	1286.40
526.97	1304.76
527.33	1322.87
527.68	1340.97
528.04	1359.20
528.40	1377.50
528.76	1396.27
529.12	1414.52
529.48	1433.26
529.84	1450.81
530.20	1469.11
530.56	1487.77
530.91	1507.03
531.27	1525.68
531.63	1543.86
531.99	1562.31
532.35	1580.09
532.71	1597.92
533.07	1615.97
533.42	1633.75
533.78	1651.67
534.14	1669.70
534.50	1686.87
534.86	1704.58
535.21	1721.69
535.57	1739.44
535.93	1756.74
536.29	1773.30
536.65	1790.31
537.00	1806.73
537.36	1824.21
537.72	1840.56
538.08	1857.06
538.44	1872.73
538.79	1888.56
539.15	1904.06
539.51	1919.83
539.87	1936.14
540.22	1951.57
540.58	1967.34
540.94	1982.59
541.29	1997.29
541.65	2012.01
542.01	2027.31
542.37	2041.79
542.72	2056.19
543.08	2070.00
543.44	2084.66
543.79	2098.23
544.15	2111.00
544.51	2124.71
544.87	2137.50
545.22	2150.45
545.58	2162.78
545.94	2174.55
546.29	2186.36
546.65	2198.38
547.01	2209.61
547.36	2220.12
547.72	2230.78
548.07	2240.56
548.43	2250.60
548.79	2260.47
549.14	2269.94
549.50	2279.05
549.86	2288.35
550.21	2297.65
550.57	2306.68
550.92	2314.96
551.28	2323.75
551.64	2332.73
551.99	2341.01
552.35	2349.08
552.70	2356.90
553.06	2364.50
553.41	2372.49
553.77	2380.12
554.13	2387.76
554.48	2395.68
554.84	2403.22
555.19	2409.91
555.55	2416.70
555.90	2422.89
556.26	2429.62
556.61	2435.72
556.97	2441.62
557.32	2447.32
557.68	2452.87
558.03	2458.59
558.39	2463.67
558.74	2469.67
559.10	2475.12
559.45	2480.28
559.81	2485.92
560.16	2491.25
560.52	2495.94
560.87	2500.75
561.23	2504.73
561.58	2508.98
561.94	2512.55
562.29	2515.80
562.64	2520.07
563.00	2523.85
563.35	2528.67
563.71	2533.01
564.06	2537.42
564.42	2541.64
564.77	2545.60
565.12	2549.20
565.48	2552.20
565.83	2555.21
566.19	2557.85
566.54	2559.53
566.89	2561.71
567.25	2563.21
567.60	2565.24
567.96	2567.95
568.31	2569.77
568.66	2571.97
569.02	2573.49
569.37	2574.64
569.72	2576.60
570.08	2577.40
570.43	2578.19
570.78	2578.27
571.14	2577.37
571.49	2576.70
571.84	2576.81
572.20	2576.14
572.55	2575.59
572.90	2574.40
573.26	2573.45
573.61	2571.85
573.96	2570.78
574.31	2568.02
574.67	2565.37
575.02	2562.00
575.37	2558.62
575.72	2554.95
576.08	2551.55
576.43	2548.26
576.78	2544.91
577.13	2541.60
577.49	2538.55
577.84	2535.11
578.19	2531.26
578.54	2527.71
578.90	2523.51
579.25	2517.74
579.60	2512.59
579.95	2507.22
580.30	2502.07
580.66	2496.77
581.01	2491.59
581.36	2486.28
581.71	2481.87
582.06	2477.10
582.42	2472.54
582.77	2466.98
583.12	2462.14
583.47	2457.30
583.82	2452.10
584.17	2446.38
584.53	2440.53
584.88	2434.39
585.23	2428.27
585.58	2422.27
585.93	2416.15
586.28	2410.89
586.63	2405.58
586.98	2399.96
587.34	2394.79
587.69	2389.40
588.04	2383.64
588.39	2377.57
588.74	2370.40
589.09	2363.77
589.44	2356.48
589.79	2349.72
590.14	2343.51
590.49	2336.22
590.84	2329.11
591.19	2322.41
591.54	2315.32
591.89	2307.30
592.25	2299.93
592.60	2291.87
592.95	2283.52
593.30	2275.21
593.65	2266.63
594.00	2258.61
594.35	2250.55
594.70	2241.44
595.05	2233.54
595.40	2225.37
595.75	2216.79
596.10	2209.88
596.45	2202.31
596.80	2195.31
597.15	2187.94
597.50	2180.22
597.85	2172.68
598.19	2165.00
598.54	2157.06
598.89	2149.49
599.24	2142.69
599.59	2135.21
599.94	2128.14
600.29	2121.04
600.64	2113.80
600.99	2105.45
601.34	2097.78
601.69	2089.77
602.04	2082.05
602.39	2073.62
602.74	2065.73
603.08	2058.02
603.43	2050.24
603.78	2041.73
604.13	2033.59
604.48	2025.30
604.83	2017.27
605.18	2009.70
605.53	2000.69
605.87	1991.50
606.22	1983.07
606.57	1973.77
606.92	1965.08
607.27	1956.79
607.62	1948.78
607.96	1940.47
608.31	1932.99
608.66	1924.16
609.01	1915.55
609.36	1906.86
609.70	1897.63
610.05	1888.46
610.40	1879.62
610.75	1870.08
611.10	1861.29
611.44	1851.22
611.79	1841.85
612.14	1831.91
612.49	1821.22
612.83	1811.51
613.18	1802.06
613.53	1792.78
613.88	1783.03
614.22	1773.49
614.57	1763.53
614.92	1754.16
615.27	1745.32
615.61	1735.70
615.96	1726.34
616.31	1717.46
616.65	1708.93
617.00	1700.27
617.35	1691.27
617.70	1681.69
618.04	1671.88
618.39	1662.27
618.74	1653.73
619.08	1644.19
619.43	1635.15
619.78	1626.93
620.12	1618.56
620.47	1609.77
620.82	1600.20
621.16	1591.48
621.51	1582.64
621.85	1573.75
622.20	1563.93
622.55	1554.15
622.89	1544.94
623.24	1536.02
623.59	1527.28
623.93	1518.57
624.28	1510.04
624.62	1501.34
624.97	1493.00
625.32	1485.03
625.66	1476.90
626.01	1468.44
626.35	1459.86
626.70	1450.97
627.04	1442.12
627.39	1433.00
627.73	1424.36
628.08	1416.38
628.43	1408.07
628.77	1399.59
629.12	1390.72
629.46	1382.36
629.81	1373.57
630.15	1365.23
630.50	1356.73
630.84	1347.39
631.19	1338.08
631.53	1329.39
631.88	1320.63
632.22	1311.72
632.57	1303.24
632.91	1294.43
633.26	1285.85
633.60	1277.16
633.95	1268.90
634.29	1260.67
634.64	1253.05
634.98	1244.64
635.32	1236.32
635.67	1228.57
636.01	1220.88
636.36	1213.20
636.70	1205.46
637.05	1198.01
637.39	1190.35
637.73	1182.78
638.08	1175.93
638.42	1169.06
638.77	1161.54
639.11	1154.02
639.45	1146.76
639.80	1139.04
640.14	1131.79
640.49	1124.22
640.83	1116.93
641.17	1109.71
641.52	1102.50
641.86	1094.97
642.20	1088.22
642.55	1080.88
642.89	1073.46
643.23	1065.83
643.58	1059.13
643.92	1052.14
644.26	1045.34
644.61	1038.42
644.95	1031.50
645.29	1023.97
645.64	1016.23
645.98	1008.95
646.32	1002.06
646.66	995.09
647.01	988.54
647.35	981.92
647.69	975.18
648.04	968.89
648.38	962.40
648.72	955.57
649.06	948.80
649.41	941.95
649.75	935.25
650.09	928.58
650.43	922.02
650.78	914.89
651.12	908.12
651.46	901.53
651.80	895.07
652.14	888.87
652.49	882.67
652.83	876.75
653.17	870.42
653.51	863.96
653.85	857.73
654.20	851.34
654.54	844.49
654.88	837.99
655.22	831.22
655.56	824.66
655.90	818.37
656.25	812.33
656.59	806.25
656.93	800.44
657.27	794.48
657.61	788.28
657.95	782.59
658.29	776.78
658.64	770.69
658.98	764.58
659.32	758.41
659.66	752.52
660.00	746.55
660.34	740.87
660.68	735.26
661.02	729.50
661.36	724.09
661.70	718.93
662.05	714.03
662.39	709.18
662.73	703.96
663.07	699.01
663.41	693.86
663.75	688.73
664.09	683.40
664.43	678.37
664.77	673.74
665.11	668.89
665.45	664.16
665.79	659.55
666.13	654.90
666.47	650.23
666.81	645.53
667.15	640.80
667.49	636.32
667.83	631.90
668.17	627.46
668.51	622.83
668.85	618.16
669.19	613.69
669.53	609.26
669.87	604.93
670.21	600.63
670.55	596.41
670.89	592.52
671.23	588.68
671.57	584.66
671.91	580.54
672.25	576.51
672.58	572.49
672.92	568.61
673.26	564.97
673.60	561.37
673.94	557.83
674.28	554.47
674.62	551.10
674.96	547.61
675.30	544.28
675.64	540.92
675.97	537.80
676.31	534.54
676.65	531.20
676.99	528.14
677.33	524.87
677.67	521.74
678.01	518.25
678.34	514.87
678.68	511.61
679.02	508.44
679.36	505.30
679.70	502.17
680.04	499.01
680.37	495.77
680.71	492.60
681.05	489.56
681.39	486.50
681.73	483.44
682.06	480.62
682.40	477.75
682.74	474.89
683.08	472.04
683.42	469.11
683.75	466.26
684.09	463.31
684.43	460.49
684.77	457.71
685.10	455.04
685.44	452.40
685.78	449.79
686.12	447.18
686.45	444.55
686.79	441.98
687.13	439.46
687.46	436.92
687.80	434.39
688.14	431.85
688.48	429.48
688.81	426.96
689.15	424.40
689.49	421.92
689.82	419.45
690.16	417.02
690.50	414.76
690.83	412.57
691.17	410.27
691.51	408.08
691.84	405.94
692.18	403.76
692.52	401.53
692.85	399.32
693.19	397.18
693.52	395.05
693.86	392.92
694.20	390.87
694.53	388.88
694.87	386.80
695.21	384.76
695.54	382.63
695.88	380.69
696.21	378.69
696.55	376.79
696.88	374.93
697.22	373.01
697.56	371.11
697.89	369.21
698.23	367.42
698.56	365.60
698.90	363.77
699.23	361.89
699.57	360.09
699.90	358.30
700.24	356.53
700.58	354.83
700.91	353.17
701.25	351.55
701.58	349.96
701.92	348.38
702.25	346.86
702.59	345.35
702.92	343.80
703.26	342.35
703.59	340.89
703.93	339.53
704.26	338.17
704.60	336.66
704.93	335.21
705.26	333.75
705.60	332.35
705.93	331.02
706.27	329.82
706.60	328.62
706.94	327.42
707.27	326.12
707.61	324.86
707.94	323.66
708.27	322.35
708.61	321.06
708.94	319.91
709.28	318.74
709.61	317.61
709.94	316.50
710.28	315.35
710.61	314.19
710.95	312.93
711.28	311.82
711.61	310.79
711.95	309.75
712.28	308.70
712.61	307.59
712.95	306.50
713.28	305.46
713.61	304.43
713.95	303.41
714.28	302.45
714.61	301.47
714.95	300.50
715.28	299.54
715.61	298.57
715.95	297.57
716.28	296.54
716.61	295.56
716.95	294.60
717.28	293.72
717.61	292.80
717.94	291.95
718.28	291.05
718.61	290.16
718.94	289.34
719.27	288.54
719.61	287.78
719.94	287.04
720.27	286.21
720.60	285.41
720.94	284.65
721.27	283.95
721.60	283.25
721.93	282.55
722.27	281.89
722.60	281.23
722.93	280.57
723.26	279.99
723.59	279.32
723.93	278.75
724.26	278.08
724.59	277.49
724.92	276.87
725.25	276.32
725.59	275.76
725.92	275.17
726.25	274.61
726.58	274.06
726.91	273.48
727.24	272.92
727.57	272.39
727.91	271.82
728.24	271.25
728.57	270.70
728.90	270.21
729.23	269.67
729.56	269.17
729.89	268.62
730.22	268.04
730.55	267.52
730.89	266.97
731.22	266.54
731.55	266.03
731.88	265.58
732.21	265.05
732.54	264.58
732.87	264.07
733.20	263.56
733.53	263.11
733.86	262.67
734.19	262.24
734.52	261.83
734.85	261.48
735.18	261.03
735.51	260.64
735.84	260.20
736.17	259.76
736.50	259.32
736.83	259.08
737.16	258.72
737.49	258.37
737.82	257.96
738.15	257.53
738.48	257.14
738.81	256.71
739.14	256.39
739.47	256.01
739.80	255.66
740.13	255.34
740.46	255.00
740.79	254.64
741.12	254.29
741.45	253.91
741.78	253.49
742.11	253.20
742.44	252.80
742.77	252.44
743.10	252.13
743.43	251.76
743.75	251.31
744.08	251.11
744.41	250.79
744.74	250.49
745.07	250.19
745.40	249.89
745.73	249.61
746.06	249.24
746.39	248.93
746.71	248.58
747.04	248.26
747.37	247.93
747.70	247.63
748.03	247.34
748.36	247.08
748.68	246.81
749.01	246.49
749.34	246.22
749.67	245.96
750.00	245.67
750.33	245.52
750.65	245.27
750.98	244.88
751.31	244.60
751.64	244.36
751.97	244.14
752.29	243.89
752.62	243.62
752.95	243.37
753.28	243.13
753.60	242.94
753.93	242.72
754.26	242.48
754.59	242.26
754.91	242.02
755.24	241.77
755.57	241.55
755.90	241.35
756.22	241.14
756.55	240.95
756.88	240.74
757.20	240.46
757.53	240.26
757.86	240.10
758.19	239.94
758.51	239.75
758.84	239.53
759.17	239.34
759.49	239.17
759.82	239.03
760.15	238.84
760.47	238.67
760.80	238.48
761.13	238.34
761.45	238.13
761.78	237.96
762.11	237.81
762.43	237.66
762.76	237.48
763.08	237.32
763.41	237.16
763.74	237.02
764.06	236.90
764.39	236.72
764.71	236.55
765.04	236.39
765.37	236.24
765.69	236.13
766.02	236.04
766.34	235.89
766.67	235.72
767.00	235.64
767.32	235.57
767.65	235.55
767.97	235.44
768.30	235.37
768.62	235.24
768.95	235.11
769.27	234.97
769.60	234.86
769.92	234.73
770.25	234.58
770.57	234.42
770.90	234.31
771.22	234.20
771.55	234.11
771.87	234.04
772.20	233.94
772.52	233.89
772.85	233.86
773.17	233.78
773.50	233.65
773.82	233.50
774.15	233.35
774.47	233.17
774.80	233.03
775.12	232.90
775.45	232.80
775.77	232.72
776.09	232.63
776.42	232.55
776.74	232.54
777.07	232.45
777.39	232.39
777.72	232.32
778.04	232.24
778.36	232.14
778.69	232.02
779.01	231.93
779.33	231.74
779.66	231.56
779.98	231.45
780.31	231.40
780.63	231.41
780.95	231.33
781.28	231.27
781.60	231.20
781.92	231.15
782.25	231.09
782.57	231.01
782.89	230.96
783.22	230.91
783.54	230.77
783.86	230.75
784.19	230.67
784.51	230.63
784.83	230.55
785.16	230.49
785.48	230.46
785.80	230.44
786.12	230.40
786.45	230.35
786.77	230.32
787.09	230.29
787.42	230.17
787.74	230.14
788.06	230.11
788.38	230.07
788.71	230.01
789.03	229.98
789.35	229.95
789.67	229.87
789.99	229.82
790.32	229.76
790.64	229.69
790.96	229.72
791.28	229.62
791.61	229.59
791.93	229.52
792.25	229.44
792.57	229.43
792.89	229.39
793.21	229.38
793.54	229.30
793.86	229.25
794.18	229.23
794.50	229.16
794.82	229.09
795.14	229.02
795.47	228.99
795.79	228.91
796.11	228.85
796.43	228.82
796.75	228.75
797.07	228.74
797.39	228.70
797.71	228.60
798.04	228.60
798.36	228.54
798.68	228.53
799.00	228.52
799.32	228.44
799.64	228.38
799.96	228.33
800.28	228.30
800.60	228.26
800.92	228.21
801.24	228.14
801.56	228.12
801.89	228.06
802.21	228.06
802.53	228.04
802.85	228.01
803.17	228.03
803.49	227.97
803.81	227.92
804.13	227.91
804.45	227.88
804.77	227.83
805.09	227.81
805.41	227.72
805.73	227.69
806.05	227.61
806.37	227.57
806.69	227.52
807.01	227.50
807.33	227.48
807.65	227.39
807.97	227.44
808.28	227.38
808.60	227.34
808.92	227.24
809.24	227.28
809.56	227.25
809.88	227.16
810.20	227.16
810.52	227.14
810.84	227.08
811.16	227.04
811.48	226.98
811.80	227.03
812.12	227.02
812.43	226.99
812.75	227.00
813.07	226.98
813.39	226.94
813.71	226.90
814.03	226.85
814.35	226.86
814.67	226.78
814.98	226.76
815.30	226.77
815.62	226.74
815.94	226.63
816.26	226.67
816.58	226.63
816.89	226.62
817.21	226.56
817.53	226.52
817.85	226.50
818.17	226.48
818.48	226.38
818.80	226.38
819.12	226.35
819.44	226.29
819.76	226.22
820.07	226.24
820.39	226.22
820.71	226.23
821.03	226.23
821.34	226.24
821.66	226.26
821.98	226.27
822.30	226.31
822.61	226.35
822.93	226.25
823.25	226.26
823.57	226.23
823.88	226.27
824.20	226.32
824.52	226.35
824.83	226.33
825.15	226.33
825.47	226.31
825.79	226.32
826.10	226.30
826.42	226.32
826.74	226.26
827.05	226.27
827.37	226.23
827.69	226.20
828.00	226.15
828.32	226.15
828.64	226.10
828.95	226.12
829.27	226.08
829.58	226.10
829.90	226.12
830.22	226.13
830.53	226.07
830.85	226.01
831.17	225.95
831.48	225.94
831.80	225.93
832.11	225.89
832.43	225.85
832.75	225.85
833.06	225.90
833.38	225.84
833.69	225.81
834.01	225.79
834.32	225.77
834.64	225.76
834.96	225.73
835.27	225.72
835.59	225.68
835.90	225.63
836.22	225.59
836.53	225.55
836.85	225.50
837.16	225.59
837.48	225.57
837.79	225.59
838.11	225.60
838.42	225.60
838.74	225.60
839.05	225.56
839.37	225.56
839.68	225.52
840.00	225.55
840.31	225.53
840.63	225.52
840.94	225.49
841.26	225.44
841.57	225.41
841.88	225.40
842.20	225.35
842.51	225.32
842.83	225.32
843.14	225.39
843.46	225.39
843.77	225.31
844.08	225.32
844.40	225.27
844.71	225.24
845.03	225.22
845.34	225.19
845.65	225.19
845.97	225.14
846.28	225.13
846.60	225.14
846.91	225.15
847.22	225.15
847.54	225.17
847.85	225.16
848.16	225.16
848.48	225.13
848.79	225.17
849.10	225.20
849.42	225.18
849.73	225.05
850.04	225.04
850.36	225.02
850.67	225.03
850.98	225.02
851.30	225.04
851.61	225.02
851.92	225.01
852.23	225.02
852.55	225.05
852.86	225.05
853.17	225.07
853.49	225.07
853.80	225.09
854.11	225.10
854.42	225.13
854.74	225.13
855.05	225.15
855.36	225.10
855.67	225.08
855.99	225.10
856.30	225.24
856.61	225.24
856.92	225.22
857.23	225.20
857.55	225.17
857.86	225.15
858.17	225.16
858.48	225.17
858.79	225.18
859.11	225.19
859.42	225.19
859.73	225.18
860.04	225.20
860.35	225.18
860.66	225.17
860.98	225.18
861.29	225.22
861.60	225.20
861.91	225.21
862.22	225.21
862.53	225.21
862.84	225.10
863.16	225.14
863.47	225.13
863.78	225.14
864.09	225.20
864.40	225.20
864.71	225.20
865.02	225.24
865.33	225.24
865.64	225.21
865.95	225.20
866.27	225.25
866.58	225.22
866.89	225.25
867.20	225.23
867.51	225.20
867.82	225.18
868.13	225.23
868.44	225.24
868.75	225.26
869.06	225.26
869.37	225.28
869.68	225.25
869.99	225.27
870.30	225.26
870.61	225.20
870.92	225.19
871.23	225.21
871.54	225.21
871.85	225.20
872.16	225.22
872.47	225.23
872.78	225.16
873.09	225.16
873.40	225.12
873.71	225.12
874.02	225.13
874.33	225.12
874.64	225.06
874.95	225.09
875.26	225.05
875.56	225.05
875.87	225.05
876.18	225.05
876.49	225.16
876.80	225.16
877.11	225.19
877.42	225.22
877.73	225.20
878.04	225.17
878.35	225.18
878.66	225.16
878.96	225.17
879.27	225.14
879.58	225.08
879.89	225.11
880.20	225.11
880.51	225.10
880.82	225.10
881.12	225.13
881.43	225.09
881.74	225.08
882.05	225.06
882.36	225.03
882.67	225.03
882.97	224.91
883.28	224.88
883.59	224.87
883.90	224.85
884.21	224.88
884.51	224.90
884.82	224.87
885.13	224.86
885.44	224.85
885.74	224.86
886.05	224.89
886.36	224.90
886.67	224.90
886.98	224.97
887.28	224.97
887.59	224.96
887.90	224.98
888.20	225.00
888.51	225.03
888.82	225.02
889.13	225.03
889.43	225.14
889.74	225.16
890.05	225.15
890.35	225.15
890.66	225.13
890.97	225.12
891.28	225.12
891.58	225.15
891.89	225.14
892.20	225.16
892.50	225.17
892.81	225.17
893.12	225.17
893.42	225.09
893.73	225.13
894.04	225.15
894.34	225.14
894.65	225.14
894.95	225.08
895.26	225.12
895.57	225.15
895.87	225.05
896.18	225.07
896.48	225.07
896.79	225.07
897.10	225.10
897.40	225.09
897.71	225.08
898.01	225.08
898.32	225.09
898.63	225.09
898.93	225.11
899.24	225.11
899.54	225.07
899.85	225.09
900.15	225.06
900.46	225.04
900.76	225.03
901.07	225.00
901.38	225.04
901.68	225.03
901.99	224.99
902.29	224.97
902.60	224.96
902.90	224.97
903.21	224.98
903.51	224.94
903.82	224.96
904.12	224.96
904.43	224.92
904.73	224.90
905.03	224.90
905.34	224.97
905.64	224.92
905.95	224.94
906.25	224.91
906.56	224.89
906.86	224.87
907.17	224.88
907.47	224.87
907.77	224.84
908.08	224.80
908.38	224.77
908.69	224.77
908.99	224.75
909.30	224.76
909.60	224.73
909.90	224.72
910.21	224.67
910.51	224.67
910.81	224.64
911.12	224.67
911.42	224.64
911.73	224.52
912.03	224.52
912.33	224.52
912.64	224.52
912.94	224.51
913.24	224.52
913.55	224.50
913.85	224.49
914.15	224.54
914.46	224.58
914.76	224.58
915.06	224.56
915.37	224.55
915.67	224.52
915.97	224.52
916.27	224.52
916.58	224.52
916.88	224.50
917.18	224.51
917.49	224.55
917.79	224.57
918.09	224.62
918.39	224.67
918.70	224.66
919.00	224.68
919.30	224.73
919.60	224.73
919.91	224.73
920.21	224.74
920.51	224.69
920.81	224.69
921.12	224.70
921.42	224.72
921.72	224.72
922.02	224.72
922.32	224.74
922.63	224.75
922.93	224.80
923.23	224.84
923.53	224.83
923.83	224.77
924.13	224.76
924.44	224.74
924.74	224.79
925.04	224.81
925.34	224.81
925.64	224.78
925.94	224.80
926.24	224.87
926.55	224.88
926.85	224.90
927.15	224.88
927.45	224.92
927.75	224.92
928.05	224.94
928.35	224.96
928.65	224.99
928.95	225.00
929.26	224.96
929.56	224.98
929.86	225.01
930.16	225.01
930.46	225.03
930.76	225.04
931.06	224.97
931.36	224.93
931.66	224.93
931.96	224.94
932.26	224.92
932.56	224.87
932.86	224.89
933.16	224.89
933.46	224.88
933.76	224.84
934.06	224.86
934.36	224.88
934.66	224.85
934.96	224.83
935.26	224.84
935.56	224.86
935.86	224.85
936.16	224.83
936.46	224.83
936.76	224.81
937.06	224.78
937.36	224.79
937.66	224.77
937.96	224.77
938.26	224.76
938.56	224.77
938.86	224.75
939.16	224.76
939.46	224.78
939.76	224.80
940.06	224.78
940.35	224.76
940.65	224.74
940.95	224.76
941.25	224.72
941.55	224.68
941.85	224.68
942.15	224.66
942.45	224.71
942.75	224.69
943.04	224.69
943.34	224.72
943.64	224.69
943.94	224.73
944.24	224.75
944.54	224.73
944.84	224.70
945.13	224.71
945.43	224.69
945.73	224.68
946.03	224.67
946.33	224.67
946.62	224.64
946.92	224.62
947.22	224.63
947.52	224.64
947.82	224.69
948.11	224.65
948.41	224.64
948.71	224.58
949.01	224.60
949.31	224.58
949.60	224.53
949.90	224.54
950.20	224.52
950.50	224.52
950.79	224.53
951.09	224.51
951.39	224.48
951.69	224.50
951.98	224.51
952.28	224.49
952.58	224.51
952.87	224.51
953.17	224.52
953.47	224.49
953.76	224.49
954.06	224.45
954.36	224.46
954.66	224.47
954.95	224.52
955.25	224.50
955.55	224.48
955.84	224.51
956.14	224.52
956.44	224.53
956.73	224.50
957.03	224.50
957.32	224.56
957.62	224.56
957.92	224.54
958.21	224.53
958.51	224.67
958.81	224.66
959.10	224.65
959.40	224.70
959.69	224.73
959.99	224.74
960.29	224.75
960.58	224.74
960.88	224.76
961.17	224.74
961.47	224.76
961.76	224.80
962.06	224.79
962.36	224.78
962.65	224.77
962.95	224.80
963.24	224.77
963.54	224.76
963.83	224.77
964.13	224.78
964.42	224.76
964.72	224.65
965.01	224.64
965.31	224.65
965.60	224.58
965.90	224.62
966.19	224.60
966.49	224.62
966.78	224.62
967.08	224.62
967.37	224.59
967.67	224.55
967.96	224.58
968.26	224.62
968.55	224.62
968.85	224.62
969.14	224.60
969.43	224.64
969.73	224.62
970.02	224.66
970.32	224.64
970.61	224.62
970.91	224.61
971.20	224.61
971.49	224.61
971.79	224.65
972.08	224.59
972.38	224.59
972.67	224.59
972.96	224.61
973.26	224.60
973.55	224.66
973.85	224.65
974.14	224.60
974.43	224.59
974.73	224.58
975.02	224.59
975.31	224.58
975.61	224.56
975.90	224.56
976.19	224.54
976.49	224.56
976.78	224.55
977.07	224.55
977.37	224.58
977.66	224.57
977.95	224.54
978.24	224.57
978.54	224.59
978.83	224.55
979.12	224.53
979.42	224.53
979.71	224.52
980.00	224.55
980.29	224.54
980.59	224.51
980.88	224.54
981.17	224.52
981.46	224.49
981.76	224.47
982.05	224.47
982.34	224.45
982.63	224.48
982.93	224.51
983.22	224.52
983.51	224.51
983.80	224.50
984.09	224.54
984.39	224.51
984.68	224.52
984.97	224.55
985.26	224.56
985.55	224.56
985.85	224.53
986.14	224.52
986.43	224.57
986.72	224.57
987.01	224.53
987.30	224.57
987.59	224.59
987.89	224.60
988.18	224.58
988.47	224.58
988.76	224.53
989.05	224.54
989.34	224.54
989.63	224.57
989.92	224.59
990.22	224.56
990.51	224.55
990.80	224.56
991.09	224.55
991.38	224.54
991.67	224.51
991.96	224.51
992.25	224.54
992.54	224.53
992.83	224.54
993.12	224.55
993.41	224.55
993.70	224.60
993.99	224.60
994.28	224.61
994.58	224.63
994.87	224.61
995.16	224.58
995.45	224.57
995.74	224.54
996.03	224.56
996.32	224.55
996.61	224.58
996.90	224.55
997.19	224.54
997.48	224.54
997.77	224.51
998.06	224.50
998.34	224.49
998.63	224.46
998.92	224.46
999.21	224.47
999.50	224.44
999.79	224.42
1000.08	224.43
1000.37	224.46
1000.66	224.44
1000.95	224.48
1001.24	224.51
1001.53	224.51
1001.82	224.49
1002.11	224.44
1002.40	224.50
1002.68	224.51
1002.97	224.60
1003.26	224.57
1003.55	224.52
1003.84	224.56
1004.13	224.59
1004.42	224.57
1004.71	224.57
1004.99	224.53
1005.28	224.55
1005.57	224.55
1005.86	224.50
1006.15	224.48
1006.44	224.45
1006.72	224.47
1007.01	224.46
1007.30	224.43
1007.59	224.44
1007.88	224.43
1008.17	224.44
1008.45	224.39
1008.74	224.34
1009.03	224.28
1009.32	224.33
1009.60	224.37
1009.89	224.39
1010.18	224.35
1010.47	224.33
1010.76	224.34
1011.04	224.35
1011.33	224.34
1011.62	224.34
1011.91	224.37
1012.19	224.38
1012.48	224.37
1012.77	224.34
1013.05	224.38
1013.34	224.40
1013.63	224.39
1013.92	224.43
1014.20	224.43
1014.49	224.43
1014.78	224.45
1015.06	224.40
1015.35	224.36
1015.64	224.36
1015.92	224.36
1016.21	224.35
1016.50	224.37
1016.78	224.38
1017.07	224.38
1017.36	224.36
1017.64	224.33
1017.93	224.36
1018.22	224.34
1018.50	224.33
1018.79	224.35
1019.08	224.29
1019.36	224.30
1019.65	224.30
1019.93	224.31
1020.22	224.35
1020.51	224.42
1020.79	224.42
1021.08	224.38
1021.36	223.84
1021.65	224.31
1021.94	224.20
1022.22	224.70
1022.51	224.22
1022.79	225.07
1023.08	225.02
1023.36	225.89
1023.65	224.42
>>>>>End Processed Spectral Data<<<<<
