SpectraSuite Data File
++++++++++++++++++++++++++++++++++++
Date: Fri Feb 01 14:55:20 EST 2013
User: group
Dark Spectrum Present: No
Reference Spectrum Present: No
Number of Sampled Component Spectra: 1
Spectrometers: USB2E7196
Integration Time (usec): 35000 (USB2E7196)
Spectra Averaged: 100 (USB2E7196)
Boxcar Smoothing: 10 (USB2E7196)
Correct for Electrical Dark: No (USB2E7196)
Strobe/Lamp Enabled: No (USB2E7196)
Correct for Detector Non-linearity: No (USB2E7196)
Correct for Stray Light: No (USB2E7196)
Number of Pixels in Processed Spectrum: 2048
>>>>>Begin Processed Spectral Data<<<<<
339.09	0.00
339.48	215.36
339.86	216.31
340.24	218.05
340.63	219.70
341.01	223.23
341.39	221.93
341.78	224.06
342.16	224.75
342.54	225.01
342.93	213.58
343.31	224.38
343.69	224.93
344.07	225.44
344.46	225.88
344.84	226.29
345.22	226.50
345.60	226.75
345.99	226.93
346.37	227.07
346.75	227.21
347.13	227.31
347.52	227.35
347.90	227.43
348.28	227.47
348.66	227.53
349.05	227.55
349.43	227.59
349.81	227.65
350.19	227.73
350.57	227.80
350.96	227.90
351.34	228.00
351.72	228.13
352.10	228.20
352.48	228.26
352.87	228.30
353.25	228.36
353.63	228.47
354.01	228.52
354.39	228.57
354.77	228.61
355.15	228.69
355.54	228.76
355.92	228.76
356.30	228.87
356.68	229.01
357.06	229.08
357.44	229.12
357.82	229.19
358.20	229.26
358.58	229.32
358.97	229.33
359.35	229.41
359.73	229.45
360.11	229.47
360.49	229.54
360.87	229.57
361.25	229.64
361.63	229.70
362.01	229.73
362.39	229.76
362.77	229.82
363.15	229.84
363.53	229.87
363.91	229.92
364.29	229.92
364.67	229.81
365.05	229.81
365.43	229.84
365.81	229.84
366.19	229.85
366.57	229.84
366.95	229.84
367.33	229.76
367.71	229.69
368.09	229.70
368.47	229.64
368.85	229.56
369.23	229.50
369.61	229.40
369.99	229.39
370.37	229.37
370.75	229.36
371.13	229.29
371.51	229.22
371.89	229.18
372.27	229.13
372.65	229.06
373.03	229.03
373.41	228.93
373.78	228.87
374.16	228.77
374.54	228.69
374.92	228.63
375.30	228.56
375.68	228.49
376.06	228.43
376.44	228.37
376.82	228.34
377.19	228.30
377.57	228.23
377.95	228.14
378.33	228.03
378.71	227.88
379.09	227.84
379.47	227.76
379.84	227.66
380.22	227.58
380.60	227.49
380.98	227.39
381.36	227.32
381.73	227.27
382.11	227.20
382.49	227.13
382.87	227.06
383.25	226.99
383.62	227.00
384.00	226.92
384.38	226.87
384.76	226.80
385.13	226.76
385.51	226.71
385.89	226.65
386.27	226.64
386.64	226.60
387.02	226.53
387.40	226.49
387.78	226.46
388.15	226.41
388.53	226.38
388.91	226.38
389.29	226.39
389.66	226.37
390.04	226.36
390.42	226.38
390.79	226.37
391.17	226.39
391.55	226.33
391.92	226.35
392.30	226.37
392.68	226.40
393.05	226.43
393.43	226.44
393.81	226.49
394.18	226.47
394.56	226.55
394.94	226.62
395.31	226.64
395.69	226.73
396.06	226.77
396.44	226.84
396.82	226.86
397.19	226.94
397.57	226.91
397.95	226.99
398.32	227.02
398.70	227.11
399.07	227.18
399.45	227.25
399.82	227.35
400.20	227.43
400.58	227.50
400.95	227.52
401.33	227.65
401.70	227.80
402.08	227.93
402.45	228.01
402.83	228.11
403.20	228.26
403.58	228.34
403.95	228.52
404.33	228.65
404.71	228.81
405.08	229.03
405.46	229.23
405.83	229.40
406.21	229.57
406.58	229.72
406.96	229.90
407.33	230.11
407.70	230.27
408.08	230.56
408.45	230.78
408.83	231.06
409.20	231.26
409.58	231.44
409.95	231.74
410.33	232.01
410.70	232.29
411.08	232.57
411.45	232.91
411.82	233.20
412.20	233.56
412.57	233.96
412.95	234.25
413.32	234.65
413.69	235.05
414.07	235.49
414.44	235.98
414.82	236.50
415.19	237.03
415.56	237.58
415.94	238.10
416.31	238.74
416.68	239.37
417.06	240.11
417.43	240.77
417.81	241.51
418.18	242.29
418.55	243.11
418.93	244.02
419.30	244.92
419.67	245.82
420.04	246.77
420.42	247.73
420.79	248.90
421.16	250.03
421.54	251.22
421.91	252.39
422.28	253.64
422.66	254.91
423.03	256.20
423.40	257.51
423.77	258.89
424.15	260.31
424.52	261.76
424.89	263.35
425.26	264.93
425.64	266.33
426.01	267.92
426.38	269.58
426.75	271.23
427.13	272.92
427.50	274.76
427.87	276.61
428.24	278.50
428.61	280.21
428.99	282.14
429.36	284.25
429.73	286.32
430.10	288.33
430.47	290.42
430.85	292.55
431.22	294.82
431.59	297.17
431.96	299.41
432.33	301.92
432.70	304.33
433.08	307.12
433.45	309.81
433.82	312.40
434.19	315.35
434.56	318.19
434.93	320.85
435.30	323.49
435.68	326.37
436.05	329.21
436.42	332.04
436.79	334.54
437.16	337.23
437.53	340.10
437.90	342.93
438.27	345.69
438.64	348.50
439.01	351.09
439.38	353.36
439.75	355.58
440.13	358.10
440.50	360.45
440.87	362.33
441.24	364.31
441.61	366.47
441.98	367.91
442.35	369.67
442.72	371.51
443.09	373.33
443.46	374.38
443.83	374.96
444.20	375.50
444.57	376.39
444.94	376.69
445.31	377.01
445.68	377.37
446.05	377.46
446.42	377.10
446.79	376.66
447.16	376.25
447.53	375.91
447.90	374.69
448.27	373.52
448.64	371.91
449.01	370.72
449.37	368.78
449.74	366.85
450.11	364.62
450.48	362.20
450.85	359.66
451.22	357.48
451.59	355.49
451.96	353.54
452.33	350.93
452.70	348.56
453.07	345.76
453.43	342.87
453.80	340.07
454.17	337.36
454.54	334.83
454.91	332.09
455.28	329.38
455.65	326.88
456.02	324.41
456.38	322.26
456.75	319.57
457.12	317.28
457.49	315.07
457.86	312.90
458.23	311.02
458.59	308.96
458.96	306.89
459.33	305.00
459.70	303.11
460.07	301.58
460.43	299.85
460.80	298.22
461.17	296.76
461.54	295.28
461.91	293.86
462.27	292.44
462.64	291.22
463.01	289.88
463.38	288.60
463.74	287.19
464.11	286.05
464.48	285.04
464.85	283.92
465.21	283.06
465.58	282.14
465.95	281.03
466.32	280.10
466.68	279.19
467.05	278.29
467.42	277.39
467.78	276.44
468.15	275.58
468.52	274.88
468.88	273.97
469.25	273.18
469.62	272.57
469.98	271.83
470.35	271.14
470.72	270.52
471.08	269.85
471.45	269.32
471.82	268.73
472.18	268.12
472.55	267.69
472.92	267.12
473.28	266.59
473.65	266.13
474.02	265.67
474.38	265.25
474.75	264.87
475.11	264.51
475.48	264.25
475.85	263.97
476.21	263.73
476.58	263.52
476.94	263.35
477.31	263.13
477.67	262.96
478.04	262.85
478.41	262.79
478.77	262.79
479.14	262.73
479.50	262.75
479.87	262.80
480.23	262.84
480.60	262.88
480.96	263.02
481.33	263.24
481.69	263.43
482.06	263.62
482.42	263.84
482.79	264.06
483.15	264.40
483.52	264.77
483.88	265.16
484.25	265.56
484.61	265.93
484.98	266.41
485.34	266.98
485.71	267.57
486.07	268.18
486.44	268.74
486.80	269.47
487.17	270.16
487.53	270.98
487.90	271.86
488.26	272.85
488.62	273.81
488.99	274.72
489.35	275.80
489.72	276.93
490.08	278.15
490.44	279.39
490.81	280.73
491.17	282.05
491.54	283.48
491.90	284.96
492.26	286.64
492.63	288.37
492.99	290.16
493.36	292.05
493.72	294.05
494.08	296.18
494.45	298.37
494.81	300.75
495.17	303.18
495.54	305.68
495.90	308.32
496.26	311.06
496.63	314.03
496.99	317.02
497.35	320.24
497.72	323.62
498.08	327.16
498.44	330.74
498.80	334.62
499.17	338.63
499.53	342.86
499.89	347.17
500.26	351.66
500.62	356.26
500.98	361.18
501.34	366.23
501.71	371.48
502.07	376.86
502.43	382.45
502.79	388.24
503.16	394.33
503.52	400.58
503.88	407.03
504.24	413.69
504.60	420.63
504.97	427.72
505.33	434.98
505.69	442.63
506.05	450.39
506.41	458.26
506.78	466.42
507.14	474.79
507.50	483.50
507.86	492.48
508.22	501.66
508.59	510.84
508.95	520.39
509.31	530.19
509.67	540.27
510.03	550.54
510.39	560.98
510.75	571.72
511.12	582.56
511.48	593.83
511.84	605.20
512.20	616.66
512.56	628.66
512.92	640.84
513.28	653.16
513.64	665.68
514.00	678.34
514.37	691.22
514.73	704.31
515.09	717.35
515.45	730.55
515.81	744.17
516.17	758.11
516.53	772.18
516.89	786.44
517.25	800.68
517.61	815.08
517.97	829.59
518.33	844.08
518.69	858.95
519.05	873.98
519.41	889.27
519.77	904.79
520.13	920.26
520.49	935.68
520.85	951.13
521.21	966.85
521.57	983.23
521.93	999.03
522.29	1015.44
522.65	1031.77
523.01	1048.11
523.37	1064.22
523.73	1080.57
524.09	1096.80
524.45	1113.14
524.81	1129.85
525.17	1146.75
525.53	1163.72
525.89	1180.58
526.25	1197.53
526.61	1213.80
526.97	1230.54
527.33	1247.11
527.68	1263.81
528.04	1280.31
528.40	1297.13
528.76	1314.35
529.12	1330.90
529.48	1347.91
529.84	1364.03
530.20	1380.81
530.56	1397.99
530.91	1415.46
531.27	1432.14
531.63	1448.77
531.99	1465.43
532.35	1481.43
532.71	1497.51
533.07	1513.81
533.42	1529.80
533.78	1545.91
534.14	1562.42
534.50	1577.78
534.86	1593.84
535.21	1608.97
535.57	1625.16
535.93	1640.55
536.29	1655.25
536.65	1670.52
537.00	1685.39
537.36	1700.83
537.72	1715.35
538.08	1729.79
538.44	1743.77
538.79	1757.91
539.15	1771.51
539.51	1785.28
539.87	1799.79
540.22	1813.46
540.58	1827.43
540.94	1841.03
541.29	1854.10
541.65	1866.84
542.01	1880.15
542.37	1892.47
542.72	1905.18
543.08	1916.84
543.44	1929.46
543.79	1940.88
544.15	1951.99
544.51	1963.52
544.87	1974.67
545.22	1985.53
545.58	1995.76
545.94	2005.50
546.29	2015.29
546.65	2025.16
547.01	2034.53
547.36	2043.33
547.72	2051.81
548.07	2059.50
548.43	2067.55
548.79	2075.41
549.14	2083.02
549.50	2090.51
549.86	2098.47
550.21	2105.55
550.57	2112.85
550.92	2119.35
551.28	2126.41
551.64	2133.33
551.99	2139.88
552.35	2145.89
552.70	2151.97
553.06	2157.86
553.41	2164.18
553.77	2170.30
554.13	2176.52
554.48	2182.57
554.84	2187.76
555.19	2193.08
555.55	2198.29
555.90	2202.76
556.26	2207.56
556.61	2212.17
556.97	2216.21
557.32	2220.18
557.68	2224.37
558.03	2228.48
558.39	2232.17
558.74	2236.66
559.10	2240.39
559.45	2244.00
559.81	2248.25
560.16	2251.96
560.52	2255.09
560.87	2258.42
561.23	2260.96
561.58	2263.68
561.94	2266.03
562.29	2268.49
562.64	2271.05
563.00	2273.63
563.35	2277.06
563.71	2280.11
564.06	2283.15
564.42	2286.01
564.77	2288.19
565.12	2290.22
565.48	2291.98
565.83	2293.51
566.19	2294.65
566.54	2295.66
566.89	2296.55
567.25	2296.85
567.60	2298.13
567.96	2299.66
568.31	2300.38
568.66	2301.24
569.02	2301.62
569.37	2301.87
569.72	2302.57
570.08	2302.44
570.43	2302.29
570.78	2301.33
571.14	2299.60
571.49	2298.13
571.84	2297.54
572.20	2296.29
572.55	2295.11
572.90	2293.49
573.26	2291.94
573.61	2290.24
573.96	2288.17
574.31	2285.04
574.67	2281.94
575.02	2278.09
575.37	2274.56
575.72	2270.47
576.08	2266.98
576.43	2263.62
576.78	2259.68
577.13	2256.37
577.49	2253.26
577.84	2249.60
578.19	2245.82
578.54	2241.88
578.90	2237.31
579.25	2231.63
579.60	2226.44
579.95	2221.37
580.30	2216.21
580.66	2210.99
581.01	2205.80
581.36	2200.67
581.71	2196.28
582.06	2191.58
582.42	2187.08
582.77	2181.75
583.12	2177.05
583.47	2172.11
583.82	2166.85
584.17	2161.51
584.53	2155.90
584.88	2150.06
585.23	2144.01
585.58	2138.39
585.93	2132.99
586.28	2128.24
586.63	2123.03
586.98	2117.79
587.34	2113.02
587.69	2107.88
588.04	2102.39
588.39	2096.60
588.74	2090.12
589.09	2083.89
589.44	2077.00
589.79	2070.83
590.14	2064.98
590.49	2058.38
590.84	2051.86
591.19	2045.73
591.54	2039.14
591.89	2031.42
592.25	2024.52
592.60	2017.25
592.95	2009.63
593.30	2002.04
593.65	1994.48
594.00	1987.49
594.35	1980.30
594.70	1972.12
595.05	1964.80
595.40	1957.55
595.75	1949.87
596.10	1943.37
596.45	1936.49
596.80	1930.23
597.15	1923.37
597.50	1916.24
597.85	1909.70
598.19	1903.04
598.54	1895.90
598.89	1889.23
599.24	1883.28
599.59	1876.48
599.94	1870.23
600.29	1863.81
600.64	1857.40
600.99	1849.84
601.34	1842.87
601.69	1835.85
602.04	1828.89
602.39	1821.48
602.74	1814.63
603.08	1807.94
603.43	1801.21
603.78	1794.07
604.13	1786.84
604.48	1779.58
604.83	1772.81
605.18	1765.67
605.53	1757.73
605.87	1749.69
606.22	1742.43
606.57	1734.58
606.92	1727.18
607.27	1719.88
607.62	1712.92
607.96	1705.49
608.31	1698.82
608.66	1691.17
609.01	1683.54
609.36	1675.88
609.70	1667.91
610.05	1659.70
610.40	1652.03
610.75	1643.76
611.10	1636.07
611.44	1627.85
611.79	1619.96
612.14	1611.13
612.49	1602.14
612.83	1593.81
613.18	1585.62
613.53	1577.65
613.88	1569.22
614.22	1561.23
614.57	1552.87
614.92	1544.94
615.27	1537.40
615.61	1529.20
615.96	1521.18
616.31	1513.55
616.65	1506.29
617.00	1498.89
617.35	1491.38
617.70	1483.05
618.04	1474.55
618.39	1466.34
618.74	1458.65
619.08	1450.31
619.43	1442.83
619.78	1435.95
620.12	1428.64
620.47	1421.24
620.82	1413.11
621.16	1405.67
621.51	1398.03
621.85	1390.39
622.20	1381.95
622.55	1373.74
622.89	1366.03
623.24	1358.62
623.59	1351.33
623.93	1343.88
624.28	1336.66
624.62	1329.16
624.97	1322.05
625.32	1315.48
625.66	1308.63
626.01	1301.55
626.35	1294.13
626.70	1286.49
627.04	1278.83
627.39	1271.20
627.73	1263.94
628.08	1257.19
628.43	1249.97
628.77	1242.49
629.12	1235.09
629.46	1227.90
629.81	1220.56
630.15	1213.29
630.50	1205.96
630.84	1197.91
631.19	1190.03
631.53	1182.72
631.88	1175.37
632.22	1167.80
632.57	1160.47
632.91	1152.88
633.26	1145.54
633.60	1138.31
633.95	1131.32
634.29	1124.35
634.64	1117.74
634.98	1110.42
635.32	1103.21
635.67	1096.72
636.01	1090.25
636.36	1083.38
636.70	1077.01
637.05	1070.50
637.39	1064.04
637.73	1057.54
638.08	1051.75
638.42	1045.83
638.77	1039.39
639.11	1032.71
639.45	1026.48
639.80	1019.97
640.14	1013.62
640.49	1007.18
640.83	1000.97
641.17	994.74
641.52	988.50
641.86	982.20
642.20	976.46
642.55	970.25
642.89	963.74
643.23	957.29
643.58	951.59
643.92	945.39
644.26	939.31
644.61	933.39
644.95	927.34
645.29	920.73
645.64	914.00
645.98	907.67
646.32	901.93
646.66	895.93
647.01	890.07
647.35	884.43
647.69	878.54
648.04	872.99
648.38	867.25
648.72	861.16
649.06	855.08
649.41	849.17
649.75	843.12
650.09	837.13
650.43	831.25
650.78	825.16
651.12	819.21
651.46	813.58
651.80	807.77
652.14	802.35
652.49	797.01
652.83	791.86
653.17	786.14
653.51	780.46
653.85	775.02
654.20	769.43
654.54	763.47
654.88	757.80
655.22	751.98
655.56	746.39
655.90	741.01
656.25	735.79
656.59	730.46
656.93	725.44
657.27	720.33
657.61	715.03
657.95	709.98
658.29	704.94
658.64	699.74
658.98	694.52
659.32	689.11
659.66	683.90
660.00	678.58
660.34	673.71
660.68	668.82
661.02	663.92
661.36	659.28
661.70	654.85
662.05	650.46
662.39	646.18
662.73	641.70
663.07	637.38
663.41	632.99
663.75	628.54
664.09	624.05
664.43	619.77
664.77	615.61
665.11	611.34
665.45	607.29
665.79	603.17
666.13	599.10
666.47	595.12
666.81	590.99
667.15	586.97
667.49	583.10
667.83	579.42
668.17	575.52
668.51	571.50
668.85	567.47
669.19	563.76
669.53	559.91
669.87	556.11
670.21	552.53
670.55	548.90
670.89	545.52
671.23	542.18
671.57	538.76
671.91	535.33
672.25	531.90
672.58	528.46
672.92	525.16
673.26	522.08
673.60	518.98
673.94	515.96
674.28	513.12
674.62	510.23
674.96	507.06
675.30	504.13
675.64	501.29
675.97	498.59
676.31	495.74
676.65	492.88
676.99	490.17
677.33	487.31
677.67	484.54
678.01	481.53
678.34	478.52
678.68	475.70
679.02	472.87
679.36	470.17
679.70	467.43
680.04	464.68
680.37	461.78
680.71	459.04
681.05	456.47
681.39	453.76
681.73	451.17
682.06	448.72
682.40	446.20
682.74	443.68
683.08	441.17
683.42	438.59
683.75	436.17
684.09	433.71
684.43	431.24
684.77	428.79
685.10	426.44
685.44	424.18
685.78	421.86
686.12	419.69
686.45	417.41
686.79	415.15
687.13	412.96
687.46	410.82
687.80	408.66
688.14	406.46
688.48	404.42
688.81	402.15
689.15	399.99
689.49	397.82
689.82	395.75
690.16	393.67
690.50	391.73
690.83	389.72
691.17	387.74
691.51	385.84
691.84	384.02
692.18	382.07
692.52	380.11
692.85	378.21
693.19	376.32
693.52	374.50
693.86	372.65
694.20	370.86
694.53	369.08
694.87	367.25
695.21	365.51
695.54	363.72
695.88	361.99
696.21	360.26
696.55	358.55
696.88	356.84
697.22	355.19
697.56	353.57
697.89	351.95
698.23	350.35
698.56	348.72
698.90	347.12
699.23	345.48
699.57	343.90
699.90	342.35
700.24	340.80
700.58	339.30
700.91	337.85
701.25	336.43
701.58	335.04
701.92	333.67
702.25	332.25
702.59	330.90
702.92	329.59
703.26	328.27
703.59	327.06
703.93	325.92
704.26	324.69
704.60	323.40
704.93	322.16
705.26	320.90
705.60	319.78
705.93	318.62
706.27	317.66
706.60	316.66
706.94	315.59
707.27	314.46
707.61	313.40
707.94	312.41
708.27	311.35
708.61	310.32
708.94	309.29
709.28	308.38
709.61	307.43
709.94	306.51
710.28	305.54
710.61	304.60
710.95	303.55
711.28	302.66
711.61	301.74
711.95	300.83
712.28	299.90
712.61	298.96
712.95	298.06
713.28	297.20
713.61	296.32
713.95	295.46
714.28	294.66
714.61	293.82
714.95	292.99
715.28	292.15
715.61	291.28
715.95	290.50
716.28	289.62
716.61	288.82
716.95	288.06
717.28	287.34
717.61	286.57
717.94	285.83
718.28	285.05
718.61	284.34
718.94	283.66
719.27	283.01
719.61	282.39
719.94	281.73
720.27	280.99
720.60	280.34
720.94	279.72
721.27	279.14
721.60	278.61
721.93	278.03
722.27	277.48
722.60	276.96
722.93	276.37
723.26	275.87
723.59	275.32
723.93	274.77
724.26	274.21
724.59	273.65
724.92	273.15
725.25	272.68
725.59	272.16
725.92	271.65
726.25	271.17
726.58	270.66
726.91	270.22
727.24	269.77
727.57	269.32
727.91	268.81
728.24	268.36
728.57	267.83
728.90	267.38
729.23	266.86
729.56	266.41
729.89	265.95
730.22	265.48
730.55	264.94
730.89	264.48
731.22	264.05
731.55	263.64
731.88	263.21
732.21	262.74
732.54	262.28
732.87	261.84
733.20	261.44
733.53	261.03
733.86	260.60
734.19	260.20
734.52	259.80
734.85	259.50
735.18	259.09
735.51	258.72
735.84	258.34
736.17	257.97
736.50	257.58
736.83	257.35
737.16	257.01
737.49	256.69
737.82	256.31
738.15	255.93
738.48	255.56
738.81	255.18
739.14	254.84
739.47	254.54
739.80	254.25
740.13	253.91
740.46	253.55
740.79	253.24
741.12	252.92
741.45	252.57
741.78	252.20
742.11	251.89
742.44	251.54
742.77	251.22
743.10	250.95
743.43	250.62
743.75	250.19
744.08	250.02
744.41	249.77
744.74	249.48
745.07	249.21
745.40	248.96
745.73	248.75
746.06	248.48
746.39	248.23
746.71	247.96
747.04	247.63
747.37	247.40
747.70	247.14
748.03	246.90
748.36	246.67
748.68	246.46
749.01	246.19
749.34	246.01
749.67	245.77
750.00	245.56
750.33	245.45
750.65	245.29
750.98	244.92
751.31	244.67
751.64	244.48
751.97	244.31
752.29	244.10
752.62	243.85
752.95	243.66
753.28	243.45
753.60	243.25
753.93	243.13
754.26	242.91
754.59	242.69
754.91	242.49
755.24	242.31
755.57	242.10
755.90	241.96
756.22	241.74
756.55	241.55
756.88	241.35
757.20	241.11
757.53	240.91
757.86	240.79
758.19	240.68
758.51	240.56
758.84	240.38
759.17	240.17
759.49	240.04
759.82	239.92
760.15	239.80
760.47	239.63
760.80	239.50
761.13	239.43
761.45	239.31
761.78	239.16
762.11	239.04
762.43	238.92
762.76	238.79
763.08	238.70
763.41	238.59
763.74	238.49
764.06	238.36
764.39	238.24
764.71	238.10
765.04	237.95
765.37	237.78
765.69	237.65
766.02	237.57
766.34	237.47
766.67	237.34
767.00	237.23
767.32	237.17
767.65	237.10
767.97	236.95
768.30	236.82
768.62	236.72
768.95	236.60
769.27	236.47
769.60	236.37
769.92	236.29
770.25	236.19
770.57	236.05
770.90	235.96
771.22	235.84
771.55	235.75
771.87	235.68
772.20	235.61
772.52	235.62
772.85	235.62
773.17	235.49
773.50	235.38
773.82	235.25
774.15	235.13
774.47	234.98
774.80	234.89
775.12	234.82
775.45	234.72
775.77	234.63
776.09	234.57
776.42	234.50
776.74	234.39
777.07	234.31
777.39	234.24
777.72	234.17
778.04	234.15
778.36	234.06
778.69	233.98
779.01	233.90
779.33	233.73
779.66	233.55
779.98	233.49
780.31	233.42
780.63	233.46
780.95	233.37
781.28	233.30
781.60	233.23
781.92	233.15
782.25	233.09
782.57	233.06
782.89	232.97
783.22	232.88
783.54	232.80
783.86	232.71
784.19	232.65
784.51	232.59
784.83	232.46
785.16	232.40
785.48	232.32
785.80	232.28
786.12	232.23
786.45	232.18
786.77	232.13
787.09	232.07
787.42	231.93
787.74	231.90
788.06	231.86
788.38	231.80
788.71	231.74
789.03	231.69
789.35	231.65
789.67	231.60
789.99	231.58
790.32	231.54
790.64	231.50
790.96	231.53
791.28	231.43
791.61	231.44
791.93	231.41
792.25	231.40
792.57	231.41
792.89	231.35
793.21	231.33
793.54	231.27
793.86	231.24
794.18	231.23
794.50	231.19
794.82	231.12
795.14	231.10
795.47	231.10
795.79	231.09
796.11	231.02
796.43	230.98
796.75	230.97
797.07	230.96
797.39	230.97
797.71	230.87
798.04	230.85
798.36	230.83
798.68	230.78
799.00	230.74
799.32	230.66
799.64	230.66
799.96	230.59
800.28	230.61
800.60	230.56
800.92	230.55
801.24	230.51
801.56	230.55
801.89	230.53
802.21	230.50
802.53	230.46
802.85	230.47
803.17	230.49
803.49	230.43
803.81	230.41
804.13	230.38
804.45	230.37
804.77	230.37
805.09	230.33
805.41	230.34
805.73	230.29
806.05	230.25
806.37	230.25
806.69	230.28
807.01	230.26
807.33	230.27
807.65	230.21
807.97	230.23
808.28	230.19
808.60	230.18
808.92	230.16
809.24	230.21
809.56	230.13
809.88	230.08
810.20	230.11
810.52	230.06
810.84	230.02
811.16	229.95
811.48	229.94
811.80	229.94
812.12	229.91
812.43	229.92
812.75	229.89
813.07	229.83
813.39	229.79
813.71	229.72
814.03	229.68
814.35	229.66
814.67	229.59
814.98	229.54
815.30	229.53
815.62	229.51
815.94	229.39
816.26	229.43
816.58	229.39
816.89	229.33
817.21	229.30
817.53	229.25
817.85	229.22
818.17	229.18
818.48	229.15
818.80	229.15
819.12	229.10
819.44	229.10
819.76	229.06
820.07	229.03
820.39	229.04
820.71	228.97
821.03	228.97
821.34	228.92
821.66	228.90
821.98	228.85
822.30	228.80
822.61	228.83
822.93	228.77
823.25	228.77
823.57	228.74
823.88	228.74
824.20	228.76
824.52	228.75
824.83	228.71
825.15	228.63
825.47	228.60
825.79	228.62
826.10	228.56
826.42	228.55
826.74	228.51
827.05	228.48
827.37	228.51
827.69	228.49
828.00	228.50
828.32	228.49
828.64	228.49
828.95	228.56
829.27	228.54
829.58	228.51
829.90	228.51
830.22	228.50
830.53	228.48
830.85	228.44
831.17	228.41
831.48	228.40
831.80	228.41
832.11	228.39
832.43	228.33
832.75	228.34
833.06	228.40
833.38	228.40
833.69	228.38
834.01	228.35
834.32	228.33
834.64	228.32
834.96	228.34
835.27	228.31
835.59	228.27
835.90	228.25
836.22	228.24
836.53	228.21
836.85	228.20
837.16	228.30
837.48	228.32
837.79	228.37
838.11	228.37
838.42	228.36
838.74	228.41
839.05	228.43
839.37	228.39
839.68	228.33
840.00	228.32
840.31	228.32
840.63	228.35
840.94	228.35
841.26	228.33
841.57	228.34
841.88	228.36
842.20	228.36
842.51	228.35
842.83	228.38
843.14	228.47
843.46	228.46
843.77	228.43
844.08	228.43
844.40	228.42
844.71	228.46
845.03	228.47
845.34	228.41
845.65	228.41
845.97	228.41
846.28	228.46
846.60	228.48
846.91	228.50
847.22	228.50
847.54	228.53
847.85	228.53
848.16	228.51
848.48	228.48
848.79	228.50
849.10	228.49
849.42	228.49
849.73	228.40
850.04	228.40
850.36	228.34
850.67	228.34
850.98	228.32
851.30	228.30
851.61	228.27
851.92	228.28
852.23	228.31
852.55	228.32
852.86	228.25
853.17	228.25
853.49	228.22
853.80	228.24
854.11	228.26
854.42	228.29
854.74	228.24
855.05	228.25
855.36	228.19
855.67	228.18
855.99	228.14
856.30	228.24
856.61	228.23
856.92	228.22
857.23	228.20
857.55	228.18
857.86	228.14
858.17	228.17
858.48	228.16
858.79	228.12
859.11	228.12
859.42	228.10
859.73	228.07
860.04	228.03
860.35	227.98
860.66	227.93
860.98	227.88
861.29	227.91
861.60	227.85
861.91	227.84
862.22	227.84
862.53	227.86
862.84	227.71
863.16	227.71
863.47	227.71
863.78	227.69
864.09	227.68
864.40	227.68
864.71	227.66
865.02	227.67
865.33	227.66
865.64	227.62
865.95	227.61
866.27	227.69
866.58	227.69
866.89	227.68
867.20	227.67
867.51	227.66
867.82	227.63
868.13	227.67
868.44	227.65
868.75	227.65
869.06	227.63
869.37	227.64
869.68	227.57
869.99	227.57
870.30	227.58
870.61	227.60
870.92	227.60
871.23	227.59
871.54	227.61
871.85	227.63
872.16	227.66
872.47	227.69
872.78	227.59
873.09	227.63
873.40	227.62
873.71	227.63
874.02	227.64
874.33	227.67
874.64	227.67
874.95	227.70
875.26	227.69
875.56	227.71
875.87	227.71
876.18	227.74
876.49	227.85
876.80	227.83
877.11	227.83
877.42	227.85
877.73	227.87
878.04	227.85
878.35	227.84
878.66	227.85
878.96	227.85
879.27	227.86
879.58	227.87
879.89	227.87
880.20	227.89
880.51	227.87
880.82	227.84
881.12	227.86
881.43	227.83
881.74	227.81
882.05	227.79
882.36	227.80
882.67	227.82
882.97	227.71
883.28	227.71
883.59	227.71
883.90	227.72
884.21	227.68
884.51	227.67
884.82	227.65
885.13	227.66
885.44	227.67
885.74	227.67
886.05	227.62
886.36	227.65
886.67	227.63
886.98	227.68
887.28	227.68
887.59	227.66
887.90	227.69
888.20	227.71
888.51	227.73
888.82	227.70
889.13	227.72
889.43	227.79
889.74	227.76
890.05	227.74
890.35	227.71
890.66	227.72
890.97	227.69
891.28	227.70
891.58	227.69
891.89	227.69
892.20	227.71
892.50	227.74
892.81	227.71
893.12	227.71
893.42	227.67
893.73	227.70
894.04	227.71
894.34	227.68
894.65	227.66
894.95	227.64
895.26	227.63
895.57	227.66
895.87	227.59
896.18	227.60
896.48	227.62
896.79	227.63
897.10	227.63
897.40	227.63
897.71	227.61
898.01	227.54
898.32	227.54
898.63	227.49
898.93	227.45
899.24	227.47
899.54	227.45
899.85	227.41
900.15	227.38
900.46	227.34
900.76	227.36
901.07	227.35
901.38	227.34
901.68	227.35
901.99	227.28
902.29	227.25
902.60	227.24
902.90	227.24
903.21	227.21
903.51	227.16
903.82	227.16
904.12	227.18
904.43	227.21
904.73	227.21
905.03	227.23
905.34	227.33
905.64	227.32
905.95	227.30
906.25	227.28
906.56	227.27
906.86	227.29
907.17	227.25
907.47	227.24
907.77	227.25
908.08	227.25
908.38	227.31
908.69	227.34
908.99	227.33
909.30	227.33
909.60	227.36
909.90	227.41
910.21	227.40
910.51	227.39
910.81	227.40
911.12	227.43
911.42	227.43
911.73	227.33
912.03	227.30
912.33	227.36
912.64	227.41
912.94	227.45
913.24	227.44
913.55	227.47
913.85	227.53
914.15	227.53
914.46	227.51
914.76	227.47
915.06	227.46
915.37	227.47
915.67	227.46
915.97	227.49
916.27	227.45
916.58	227.49
916.88	227.51
917.18	227.51
917.49	227.53
917.79	227.55
918.09	227.58
918.39	227.62
918.70	227.61
919.00	227.62
919.30	227.67
919.60	227.67
919.91	227.68
920.21	227.64
920.51	227.62
920.81	227.62
921.12	227.65
921.42	227.65
921.72	227.66
922.02	227.65
922.32	227.63
922.63	227.65
922.93	227.67
923.23	227.69
923.53	227.67
923.83	227.63
924.13	227.65
924.44	227.63
924.74	227.65
925.04	227.68
925.34	227.65
925.64	227.60
925.94	227.61
926.24	227.64
926.55	227.64
926.85	227.67
927.15	227.69
927.45	227.69
927.75	227.69
928.05	227.71
928.35	227.70
928.65	227.75
928.95	227.76
929.26	227.71
929.56	227.68
929.86	227.69
930.16	227.67
930.46	227.63
930.76	227.66
931.06	227.59
931.36	227.53
931.66	227.56
931.96	227.55
932.26	227.55
932.56	227.50
932.86	227.52
933.16	227.51
933.46	227.47
933.76	227.45
934.06	227.48
934.36	227.53
934.66	227.53
934.96	227.48
935.26	227.49
935.56	227.52
935.86	227.52
936.16	227.52
936.46	227.53
936.76	227.52
937.06	227.47
937.36	227.48
937.66	227.50
937.96	227.51
938.26	227.50
938.56	227.45
938.86	227.45
939.16	227.47
939.46	227.48
939.76	227.51
940.06	227.52
940.35	227.47
940.65	227.40
940.95	227.41
941.25	227.38
941.55	227.36
941.85	227.34
942.15	227.36
942.45	227.36
942.75	227.36
943.04	227.35
943.34	227.39
943.64	227.39
943.94	227.36
944.24	227.33
944.54	227.33
944.84	227.37
945.13	227.34
945.43	227.29
945.73	227.26
946.03	227.21
946.33	227.21
946.62	227.21
946.92	227.23
947.22	227.21
947.52	227.20
947.82	227.20
948.11	227.19
948.41	227.16
948.71	227.13
949.01	227.14
949.31	227.14
949.60	227.10
949.90	227.13
950.20	227.12
950.50	227.12
950.79	227.08
951.09	227.07
951.39	227.09
951.69	227.09
951.98	227.15
952.28	227.18
952.58	227.16
952.87	227.19
953.17	227.18
953.47	227.18
953.76	227.19
954.06	227.17
954.36	227.16
954.66	227.18
954.95	227.21
955.25	227.21
955.55	227.22
955.84	227.25
956.14	227.26
956.44	227.31
956.73	227.31
957.03	227.35
957.32	227.37
957.62	227.37
957.92	227.40
958.21	227.35
958.51	227.45
958.81	227.50
959.10	227.49
959.40	227.55
959.69	227.53
959.99	227.54
960.29	227.53
960.58	227.54
960.88	227.56
961.17	227.55
961.47	227.60
961.76	227.60
962.06	227.62
962.36	227.61
962.65	227.62
962.95	227.62
963.24	227.64
963.54	227.64
963.83	227.65
964.13	227.67
964.42	227.66
964.72	227.63
965.01	227.60
965.31	227.61
965.60	227.56
965.90	227.63
966.19	227.63
966.49	227.66
966.78	227.68
967.08	227.66
967.37	227.65
967.67	227.59
967.96	227.60
968.26	227.58
968.55	227.59
968.85	227.54
969.14	227.56
969.43	227.53
969.73	227.54
970.02	227.54
970.32	227.50
970.61	227.50
970.91	227.45
971.20	227.42
971.49	227.41
971.79	227.45
972.08	227.39
972.38	227.38
972.67	227.36
972.96	227.37
973.26	227.37
973.55	227.41
973.85	227.40
974.14	227.41
974.43	227.41
974.73	227.37
975.02	227.36
975.31	227.36
975.61	227.32
975.90	227.27
976.19	227.25
976.49	227.23
976.78	227.25
977.07	227.24
977.37	227.27
977.66	227.22
977.95	227.17
978.24	227.17
978.54	227.17
978.83	227.19
979.12	227.17
979.42	227.16
979.71	227.15
980.00	227.12
980.29	227.11
980.59	227.10
980.88	227.11
981.17	227.11
981.46	227.12
981.76	227.13
982.05	227.16
982.34	227.16
982.63	227.18
982.93	227.15
983.22	227.19
983.51	227.17
983.80	227.23
984.09	227.24
984.39	227.22
984.68	227.22
984.97	227.23
985.26	227.22
985.55	227.24
985.85	227.19
986.14	227.21
986.43	227.24
986.72	227.23
987.01	227.20
987.30	227.18
987.59	227.17
987.89	227.21
988.18	227.19
988.47	227.20
988.76	227.18
989.05	227.19
989.34	227.17
989.63	227.22
989.92	227.21
990.22	227.18
990.51	227.16
990.80	227.14
991.09	227.11
991.38	227.14
991.67	227.15
991.96	227.16
992.25	227.17
992.54	227.13
992.83	227.13
993.12	227.14
993.41	227.19
993.70	227.24
993.99	227.28
994.28	227.28
994.58	227.32
994.87	227.32
995.16	227.35
995.45	227.34
995.74	227.30
996.03	227.30
996.32	227.36
996.61	227.43
996.90	227.49
997.19	227.48
997.48	227.46
997.77	227.46
998.06	227.47
998.34	227.49
998.63	227.51
998.92	227.53
999.21	227.56
999.50	227.59
999.79	227.56
1000.08	227.52
1000.37	227.53
1000.66	227.50
1000.95	227.53
1001.24	227.53
1001.53	227.56
1001.82	227.56
1002.11	227.52
1002.40	227.50
1002.68	227.49
1002.97	227.53
1003.26	227.55
1003.55	227.54
1003.84	227.53
1004.13	227.57
1004.42	227.53
1004.71	227.52
1004.99	227.48
1005.28	227.45
1005.57	227.39
1005.86	227.37
1006.15	227.35
1006.44	227.32
1006.72	227.33
1007.01	227.31
1007.30	227.27
1007.59	227.25
1007.88	227.21
1008.17	227.24
1008.45	227.20
1008.74	227.18
1009.03	227.10
1009.32	227.06
1009.60	227.06
1009.89	227.06
1010.18	227.00
1010.47	227.01
1010.76	227.00
1011.04	227.02
1011.33	227.04
1011.62	227.04
1011.91	227.07
1012.19	227.06
1012.48	227.08
1012.77	227.05
1013.05	227.10
1013.34	227.12
1013.63	227.11
1013.92	227.14
1014.20	227.14
1014.49	227.17
1014.78	227.16
1015.06	227.15
1015.35	227.18
1015.64	227.19
1015.92	227.15
1016.21	227.14
1016.50	227.14
1016.78	227.19
1017.07	227.23
1017.36	227.20
1017.64	227.23
1017.93	227.23
1018.22	227.21
1018.50	227.18
1018.79	227.22
1019.08	227.17
1019.36	227.16
1019.65	227.16
1019.93	227.22
1020.22	227.21
1020.51	227.25
1020.79	227.26
1021.08	226.52
1021.36	226.72
1021.65	227.46
1021.94	227.12
1022.22	227.13
1022.51	227.34
1022.79	228.12
1023.08	227.25
1023.36	228.14
1023.65	226.99
>>>>>End Processed Spectral Data<<<<<
