SpectraSuite Data File
++++++++++++++++++++++++++++++++++++
Date: Fri Feb 01 17:05:53 EST 2013
User: group
Dark Spectrum Present: No
Reference Spectrum Present: No
Number of Sampled Component Spectra: 1
Spectrometers: USB2E7196
Integration Time (usec): 35000 (USB2E7196)
Spectra Averaged: 100 (USB2E7196)
Boxcar Smoothing: 10 (USB2E7196)
Correct for Electrical Dark: No (USB2E7196)
Strobe/Lamp Enabled: No (USB2E7196)
Correct for Detector Non-linearity: No (USB2E7196)
Correct for Stray Light: No (USB2E7196)
Number of Pixels in Processed Spectrum: 2048
>>>>>Begin Processed Spectral Data<<<<<
339.09	0.00
339.48	214.00
339.86	215.08
340.24	216.39
340.63	218.32
341.01	220.94
341.39	220.53
341.78	222.15
342.16	223.36
342.54	223.50
342.93	212.08
343.31	222.77
343.69	223.33
344.07	223.78
344.46	224.21
344.84	224.55
345.22	224.79
345.60	225.03
345.99	225.22
346.37	225.34
346.75	225.44
347.13	225.49
347.52	225.57
347.90	225.63
348.28	225.67
348.66	225.68
349.05	225.68
349.43	225.73
349.81	225.76
350.19	225.78
350.57	225.82
350.96	225.85
351.34	225.94
351.72	225.96
352.10	226.05
352.48	226.11
352.87	226.16
353.25	226.22
353.63	226.30
354.01	226.34
354.39	226.39
354.77	226.46
355.15	226.57
355.54	226.61
355.92	226.62
356.30	226.68
356.68	226.85
357.06	226.95
357.44	226.96
357.82	227.01
358.20	227.05
358.58	227.11
358.97	227.17
359.35	227.25
359.73	227.33
360.11	227.40
360.49	227.42
360.87	227.47
361.25	227.47
361.63	227.49
362.01	227.53
362.39	227.55
362.77	227.56
363.15	227.59
363.53	227.62
363.91	227.68
364.29	227.69
364.67	227.57
365.05	227.56
365.43	227.58
365.81	227.58
366.19	227.64
366.57	227.65
366.95	227.64
367.33	227.60
367.71	227.59
368.09	227.56
368.47	227.54
368.85	227.50
369.23	227.48
369.61	227.45
369.99	227.45
370.37	227.44
370.75	227.48
371.13	227.38
371.51	227.30
371.89	227.26
372.27	227.24
372.65	227.19
373.03	227.14
373.41	227.09
373.78	227.06
374.16	226.98
374.54	226.94
374.92	226.90
375.30	226.87
375.68	226.79
376.06	226.74
376.44	226.67
376.82	226.66
377.19	226.62
377.57	226.56
377.95	226.47
378.33	226.41
378.71	226.29
379.09	226.26
379.47	226.26
379.84	226.18
380.22	226.04
380.60	226.00
380.98	225.96
381.36	225.88
381.73	225.81
382.11	225.76
382.49	225.71
382.87	225.65
383.25	225.59
383.62	225.66
384.00	225.59
384.38	225.58
384.76	225.56
385.13	225.55
385.51	225.49
385.89	225.42
386.27	225.37
386.64	225.34
387.02	225.28
387.40	225.19
387.78	225.20
388.15	225.22
388.53	225.19
388.91	225.13
389.29	225.14
389.66	225.12
390.04	225.08
390.42	225.09
390.79	225.11
391.17	225.07
391.55	224.98
391.92	224.96
392.30	224.95
392.68	224.90
393.05	224.93
393.43	224.92
393.81	224.94
394.18	224.97
394.56	224.99
394.94	225.02
395.31	225.05
395.69	225.10
396.06	225.12
396.44	225.13
396.82	225.16
397.19	225.21
397.57	225.23
397.95	225.29
398.32	225.25
398.70	225.28
399.07	225.34
399.45	225.36
399.82	225.42
400.20	225.45
400.58	225.49
400.95	225.49
401.33	225.60
401.70	225.75
402.08	225.80
402.45	225.85
402.83	225.96
403.20	226.04
403.58	226.10
403.95	226.22
404.33	226.38
404.71	226.52
405.08	226.68
405.46	226.79
405.83	226.93
406.21	227.08
406.58	227.20
406.96	227.34
407.33	227.51
407.70	227.74
408.08	227.99
408.45	228.19
408.83	228.44
409.20	228.63
409.58	228.78
409.95	229.03
410.33	229.32
410.70	229.58
411.08	229.86
411.45	230.14
411.82	230.44
412.20	230.74
412.57	231.13
412.95	231.40
413.32	231.81
413.69	232.15
414.07	232.59
414.44	233.07
414.82	233.50
415.19	234.06
415.56	234.57
415.94	235.13
416.31	235.72
416.68	236.30
417.06	237.03
417.43	237.67
417.81	238.44
418.18	239.15
418.55	239.96
418.93	240.81
419.30	241.70
419.67	242.60
420.04	243.55
420.42	244.55
420.79	245.73
421.16	246.88
421.54	248.12
421.91	249.33
422.28	250.60
422.66	251.98
423.03	253.26
423.40	254.57
423.77	255.96
424.15	257.41
424.52	258.88
424.89	260.44
425.26	262.03
425.64	263.44
426.01	265.05
426.38	266.68
426.75	268.41
427.13	270.11
427.50	271.92
427.87	273.77
428.24	275.58
428.61	277.29
428.99	279.19
429.36	281.30
429.73	283.33
430.10	285.33
430.47	287.34
430.85	289.44
431.22	291.65
431.59	293.99
431.96	296.27
432.33	298.73
432.70	301.12
433.08	303.89
433.45	306.58
433.82	309.19
434.19	312.11
434.56	314.84
434.93	317.53
435.30	320.14
435.68	323.07
436.05	325.95
436.42	328.73
436.79	331.28
437.16	333.93
437.53	336.78
437.90	339.54
438.27	342.29
438.64	345.14
439.01	347.76
439.38	350.02
439.75	352.14
440.13	354.67
440.50	357.03
440.87	358.89
441.24	360.79
441.61	363.01
441.98	364.49
442.35	366.30
442.72	368.13
443.09	369.93
443.46	370.89
443.83	371.47
444.20	372.02
444.57	372.90
444.94	373.24
445.31	373.55
445.68	373.95
446.05	374.10
446.42	373.70
446.79	373.29
447.16	372.85
447.53	372.53
447.90	371.39
448.27	370.24
448.64	368.66
449.01	367.60
449.37	365.62
449.74	363.77
450.11	361.60
450.48	359.18
450.85	356.71
451.22	354.61
451.59	352.61
451.96	350.68
452.33	348.07
452.70	345.71
453.07	342.94
453.43	340.04
453.80	337.24
454.17	334.63
454.54	332.11
454.91	329.41
455.28	326.76
455.65	324.28
456.02	321.86
456.38	319.73
456.75	317.04
457.12	314.79
457.49	312.54
457.86	310.35
458.23	308.49
458.59	306.38
458.96	304.27
459.33	302.38
459.70	300.51
460.07	299.00
460.43	297.28
460.80	295.64
461.17	294.23
461.54	292.74
461.91	291.29
462.27	289.87
462.64	288.66
463.01	287.33
463.38	286.04
463.74	284.64
464.11	283.52
464.48	282.49
464.85	281.38
465.21	280.55
465.58	279.66
465.95	278.59
466.32	277.75
466.68	276.90
467.05	276.02
467.42	275.14
467.78	274.20
468.15	273.34
468.52	272.69
468.88	271.82
469.25	271.09
469.62	270.48
469.98	269.80
470.35	269.15
470.72	268.57
471.08	267.92
471.45	267.40
471.82	266.84
472.18	266.28
472.55	265.82
472.92	265.30
473.28	264.83
473.65	264.37
474.02	263.91
474.38	263.56
474.75	263.25
475.11	262.91
475.48	262.67
475.85	262.48
476.21	262.28
476.58	262.10
476.94	261.95
477.31	261.78
477.67	261.66
478.04	261.55
478.41	261.47
478.77	261.54
479.14	261.51
479.50	261.55
479.87	261.63
480.23	261.75
480.60	261.85
480.96	261.97
481.33	262.21
481.69	262.45
482.06	262.64
482.42	262.86
482.79	263.14
483.15	263.47
483.52	263.81
483.88	264.15
484.25	264.57
484.61	265.00
484.98	265.46
485.34	266.03
485.71	266.63
486.07	267.24
486.44	267.82
486.80	268.53
487.17	269.20
487.53	270.01
487.90	270.88
488.26	271.77
488.62	272.77
488.99	273.73
489.35	274.75
489.72	275.86
490.08	277.07
490.44	278.34
490.81	279.69
491.17	281.05
491.54	282.52
491.90	284.08
492.26	285.71
492.63	287.46
492.99	289.28
493.36	291.19
493.72	293.22
494.08	295.30
494.45	297.54
494.81	299.93
495.17	302.31
495.54	304.84
495.90	307.53
496.26	310.29
496.63	313.26
496.99	316.37
497.35	319.66
497.72	323.04
498.08	326.50
498.44	330.13
498.80	334.00
499.17	338.02
499.53	342.10
499.89	346.49
500.26	350.97
500.62	355.55
500.98	360.48
501.34	365.55
501.71	370.85
502.07	376.27
502.43	381.82
502.79	387.65
503.16	393.65
503.52	399.85
503.88	406.22
504.24	412.74
504.60	419.57
504.97	426.63
505.33	433.89
505.69	441.52
506.05	449.23
506.41	457.01
506.78	465.03
507.14	473.45
507.50	482.01
507.86	490.86
508.22	499.87
508.59	509.00
508.95	518.44
509.31	528.12
509.67	538.07
510.03	548.27
510.39	558.72
510.75	569.38
511.12	580.17
511.48	591.34
511.84	602.63
512.20	613.91
512.56	625.66
512.92	637.68
513.28	649.82
513.64	662.04
514.00	674.55
514.37	687.30
514.73	700.09
515.09	712.93
515.45	725.96
515.81	739.34
516.17	753.11
516.53	767.03
516.89	780.88
517.25	794.88
517.61	809.04
517.97	823.12
518.33	837.30
518.69	851.82
519.05	866.43
519.41	881.29
519.77	896.51
520.13	911.63
520.49	926.69
520.85	941.81
521.21	957.25
521.57	973.07
521.93	988.56
522.29	1004.58
522.65	1020.55
523.01	1036.44
523.37	1052.13
523.73	1067.78
524.09	1083.49
524.45	1099.48
524.81	1115.65
525.17	1131.93
525.53	1148.44
525.89	1164.95
526.25	1181.41
526.61	1197.49
526.97	1213.88
527.33	1230.08
527.68	1246.29
528.04	1262.29
528.40	1278.43
528.76	1295.09
529.12	1311.37
529.48	1327.90
529.84	1343.62
530.20	1359.80
530.56	1376.39
530.91	1393.49
531.27	1409.86
531.63	1425.92
531.99	1442.09
532.35	1457.74
532.71	1473.31
533.07	1489.24
533.42	1504.77
533.78	1520.43
534.14	1536.25
534.50	1551.16
534.86	1566.74
535.21	1581.54
535.57	1597.18
535.93	1612.37
536.29	1626.82
536.65	1641.51
537.00	1655.84
537.36	1670.70
537.72	1684.81
538.08	1698.93
538.44	1712.22
538.79	1725.82
539.15	1739.05
539.51	1752.40
539.87	1766.33
540.22	1779.69
540.58	1793.14
540.94	1806.04
541.29	1818.55
541.65	1830.91
542.01	1843.75
542.37	1855.52
542.72	1867.65
543.08	1879.15
543.44	1891.24
543.79	1902.25
544.15	1912.99
544.51	1924.35
544.87	1935.14
545.22	1945.74
545.58	1955.71
545.94	1965.28
546.29	1974.96
546.65	1984.81
547.01	1994.01
547.36	2002.55
547.72	2010.85
548.07	2018.49
548.43	2026.49
548.79	2034.27
549.14	2041.77
549.50	2049.04
549.86	2056.67
550.21	2063.84
550.57	2070.92
550.92	2077.44
551.28	2084.45
551.64	2091.51
551.99	2097.92
552.35	2104.10
552.70	2110.15
553.06	2116.16
553.41	2122.59
553.77	2128.51
554.13	2134.46
554.48	2140.59
554.84	2146.06
555.19	2151.37
555.55	2156.61
555.90	2161.18
556.26	2166.20
556.61	2170.87
556.97	2175.38
557.32	2179.56
557.68	2183.84
558.03	2188.10
558.39	2191.66
558.74	2196.21
559.10	2200.20
559.45	2203.90
559.81	2208.04
560.16	2211.90
560.52	2215.28
560.87	2218.70
561.23	2221.49
561.58	2224.49
561.94	2227.02
562.29	2229.38
562.64	2232.36
563.00	2235.02
563.35	2238.64
563.71	2241.88
564.06	2245.11
564.42	2248.01
564.77	2250.71
565.12	2253.18
565.48	2255.32
565.83	2257.41
566.19	2258.99
566.54	2259.88
566.89	2261.19
567.25	2262.11
567.60	2263.71
567.96	2265.57
568.31	2266.47
568.66	2267.81
569.02	2268.49
569.37	2269.06
569.72	2270.35
570.08	2270.66
570.43	2270.82
570.78	2270.50
571.14	2269.18
571.49	2268.07
571.84	2267.90
572.20	2267.05
572.55	2266.20
572.90	2264.65
573.26	2263.45
573.61	2261.83
573.96	2260.39
574.31	2257.76
574.67	2255.02
575.02	2251.62
575.37	2248.36
575.72	2245.12
576.08	2241.78
576.43	2238.57
576.78	2235.11
577.13	2231.93
577.49	2228.86
577.84	2225.61
578.19	2222.05
578.54	2218.79
578.90	2214.85
579.25	2209.46
579.60	2204.82
579.95	2200.04
580.30	2195.27
580.66	2190.23
581.01	2185.61
581.36	2180.91
581.71	2177.05
582.06	2172.89
582.42	2168.64
582.77	2163.73
583.12	2159.24
583.47	2154.88
583.82	2150.42
584.17	2145.47
584.53	2140.30
584.88	2134.78
585.23	2129.28
585.58	2123.91
585.93	2118.54
586.28	2113.91
586.63	2109.27
586.98	2104.18
587.34	2099.60
587.69	2095.05
588.04	2090.36
588.39	2085.04
588.74	2078.74
589.09	2072.69
589.44	2066.02
589.79	2060.11
590.14	2054.68
590.49	2048.19
590.84	2042.03
591.19	2036.11
591.54	2029.81
591.89	2022.82
592.25	2016.59
592.60	2009.74
592.95	2002.59
593.30	1995.51
593.65	1988.15
594.00	1981.19
594.35	1974.15
594.70	1966.36
595.05	1959.42
595.40	1952.11
595.75	1944.65
596.10	1938.68
596.45	1932.21
596.80	1926.23
597.15	1919.96
597.50	1913.16
597.85	1906.95
598.19	1900.49
598.54	1893.56
598.89	1887.00
599.24	1881.20
599.59	1874.71
599.94	1868.52
600.29	1862.30
600.64	1855.79
600.99	1848.61
601.34	1841.92
601.69	1835.14
602.04	1828.37
602.39	1821.00
602.74	1814.51
603.08	1807.97
603.43	1801.33
603.78	1794.06
604.13	1786.92
604.48	1779.74
604.83	1772.88
605.18	1766.26
605.53	1758.48
605.87	1750.64
606.22	1743.58
606.57	1735.68
606.92	1728.20
607.27	1721.32
607.62	1714.49
607.96	1707.38
608.31	1700.97
608.66	1693.49
609.01	1686.05
609.36	1678.71
609.70	1670.96
610.05	1662.90
610.40	1655.27
610.75	1647.03
611.10	1639.47
611.44	1631.15
611.79	1623.25
612.14	1614.64
612.49	1605.29
612.83	1596.95
613.18	1588.81
613.53	1580.93
613.88	1572.47
614.22	1564.27
614.57	1555.59
614.92	1547.52
615.27	1540.08
615.61	1531.69
615.96	1523.81
616.31	1516.14
616.65	1508.68
617.00	1501.20
617.35	1493.63
617.70	1485.46
618.04	1477.11
618.39	1468.87
618.74	1461.30
619.08	1452.90
619.43	1445.31
619.78	1438.47
620.12	1431.43
620.47	1424.04
620.82	1415.76
621.16	1408.22
621.51	1400.81
621.85	1393.28
622.20	1384.95
622.55	1376.56
622.89	1368.80
623.24	1361.08
623.59	1353.80
623.93	1346.37
624.28	1339.15
624.62	1331.60
624.97	1324.33
625.32	1317.53
625.66	1310.45
626.01	1303.44
626.35	1296.11
626.70	1288.54
627.04	1280.97
627.39	1273.05
627.73	1265.73
628.08	1258.91
628.43	1251.95
628.77	1244.53
629.12	1236.96
629.46	1229.79
629.81	1222.32
630.15	1215.13
630.50	1207.85
630.84	1199.74
631.19	1191.74
631.53	1184.26
631.88	1176.86
632.22	1169.27
632.57	1161.91
632.91	1154.57
633.26	1147.18
633.60	1139.87
633.95	1132.66
634.29	1125.55
634.64	1119.02
634.98	1111.59
635.32	1104.43
635.67	1097.73
636.01	1091.07
636.36	1084.33
636.70	1077.85
637.05	1071.50
637.39	1064.99
637.73	1058.48
638.08	1052.62
638.42	1046.73
638.77	1040.31
639.11	1033.78
639.45	1027.55
639.80	1021.03
640.14	1014.59
640.49	1008.10
640.83	1001.83
641.17	995.70
641.52	989.43
641.86	982.91
642.20	977.10
642.55	970.80
642.89	964.38
643.23	957.91
643.58	952.19
643.92	946.01
644.26	939.93
644.61	933.99
644.95	928.11
645.29	921.56
645.64	914.88
645.98	908.62
646.32	902.65
646.66	896.56
647.01	890.87
647.35	885.16
647.69	879.30
648.04	873.79
648.38	868.07
648.72	862.17
649.06	856.26
649.41	850.43
649.75	844.52
650.09	838.58
650.43	832.86
650.78	826.79
651.12	820.87
651.46	815.16
651.80	809.49
652.14	804.06
652.49	798.71
652.83	793.64
653.17	788.02
653.51	782.43
653.85	777.11
654.20	771.49
654.54	765.52
654.88	759.82
655.22	753.97
655.56	748.18
655.90	742.68
656.25	737.50
656.59	732.15
656.93	727.16
657.27	722.10
657.61	716.68
657.95	711.63
658.29	706.60
658.64	701.28
658.98	695.95
659.32	690.57
659.66	685.41
660.00	680.16
660.34	675.23
660.68	670.34
661.02	665.31
661.36	660.64
661.70	656.23
662.05	651.92
662.39	647.67
662.73	643.29
663.07	639.01
663.41	634.53
663.75	630.09
664.09	625.50
664.43	621.09
664.77	617.02
665.11	612.73
665.45	608.60
665.79	604.63
666.13	600.51
666.47	596.41
666.81	592.35
667.15	588.16
667.49	584.26
667.83	580.36
668.17	576.50
668.51	572.40
668.85	568.36
669.19	564.52
669.53	560.66
669.87	556.82
670.21	553.07
670.55	549.40
670.89	546.00
671.23	542.58
671.57	539.05
671.91	535.55
672.25	532.04
672.58	528.54
672.92	525.12
673.26	522.01
673.60	518.84
673.94	515.70
674.28	512.80
674.62	509.83
674.96	506.79
675.30	503.88
675.64	500.95
675.97	498.20
676.31	495.34
676.65	492.37
676.99	489.71
677.33	486.94
677.67	484.19
678.01	481.16
678.34	478.26
678.68	475.42
679.02	472.59
679.36	469.85
679.70	467.12
680.04	464.39
680.37	461.56
680.71	458.77
681.05	456.14
681.39	453.43
681.73	450.72
682.06	448.24
682.40	445.63
682.74	443.13
683.08	440.61
683.42	438.02
683.75	435.59
684.09	432.99
684.43	430.51
684.77	428.03
685.10	425.73
685.44	423.42
685.78	421.16
686.12	418.90
686.45	416.64
686.79	414.37
687.13	412.12
687.46	409.95
687.80	407.77
688.14	405.57
688.48	403.51
688.81	401.39
689.15	399.18
689.49	397.07
689.82	394.99
690.16	392.88
690.50	390.96
690.83	389.02
691.17	387.06
691.51	385.17
691.84	383.34
692.18	381.40
692.52	379.40
692.85	377.44
693.19	375.61
693.52	373.76
693.86	371.91
694.20	370.14
694.53	368.33
694.87	366.54
695.21	364.76
695.54	362.95
695.88	361.17
696.21	359.46
696.55	357.78
696.88	356.06
697.22	354.40
697.56	352.73
697.89	351.08
698.23	349.53
698.56	347.91
698.90	346.34
699.23	344.73
699.57	343.21
699.90	341.65
700.24	340.06
700.58	338.52
700.91	337.10
701.25	335.70
701.58	334.37
701.92	333.01
702.25	331.62
702.59	330.26
702.92	328.94
703.26	327.68
703.59	326.38
703.93	325.23
704.26	324.01
704.60	322.74
704.93	321.48
705.26	320.18
705.60	318.98
705.93	317.78
706.27	316.68
706.60	315.64
706.94	314.61
707.27	313.49
707.61	312.44
707.94	311.39
708.27	310.26
708.61	309.13
708.94	308.09
709.28	307.07
709.61	306.12
709.94	305.15
710.28	304.13
710.61	303.13
710.95	302.02
711.28	301.12
711.61	300.17
711.95	299.26
712.28	298.31
712.61	297.35
712.95	296.47
713.28	295.64
713.61	294.70
713.95	293.82
714.28	292.99
714.61	292.14
714.95	291.28
715.28	290.45
715.61	289.61
715.95	288.76
716.28	287.92
716.61	287.07
716.95	286.26
717.28	285.50
717.61	284.76
717.94	284.05
718.28	283.23
718.61	282.53
718.94	281.83
719.27	281.21
719.61	280.54
719.94	279.84
720.27	279.06
720.60	278.39
720.94	277.76
721.27	277.14
721.60	276.59
721.93	275.99
722.27	275.43
722.60	274.87
722.93	274.30
723.26	273.75
723.59	273.22
723.93	272.65
724.26	272.12
724.59	271.57
724.92	271.04
725.25	270.54
725.59	270.00
725.92	269.49
726.25	268.97
726.58	268.51
726.91	268.04
727.24	267.61
727.57	267.18
727.91	266.65
728.24	266.18
728.57	265.65
728.90	265.18
729.23	264.67
729.56	264.26
729.89	263.82
730.22	263.37
730.55	262.90
730.89	262.45
731.22	262.00
731.55	261.60
731.88	261.19
732.21	260.79
732.54	260.35
732.87	259.94
733.20	259.56
733.53	259.18
733.86	258.82
734.19	258.42
734.52	258.02
734.85	257.74
735.18	257.31
735.51	256.97
735.84	256.62
736.17	256.30
736.50	255.88
736.83	255.65
737.16	255.31
737.49	254.98
737.82	254.67
738.15	254.34
738.48	253.99
738.81	253.66
739.14	253.32
739.47	253.06
739.80	252.76
740.13	252.42
740.46	252.09
740.79	251.76
741.12	251.45
741.45	251.15
741.78	250.82
742.11	250.63
742.44	250.31
742.77	250.02
743.10	249.71
743.43	249.44
743.75	249.05
744.08	248.90
744.41	248.65
744.74	248.34
745.07	248.03
745.40	247.75
745.73	247.52
746.06	247.23
746.39	246.94
746.71	246.63
747.04	246.35
747.37	246.07
747.70	245.76
748.03	245.52
748.36	245.28
748.68	245.01
749.01	244.69
749.34	244.43
749.67	244.17
750.00	243.96
750.33	243.81
750.65	243.57
750.98	243.20
751.31	242.97
751.64	242.80
751.97	242.67
752.29	242.47
752.62	242.23
752.95	242.02
753.28	241.81
753.60	241.60
753.93	241.41
754.26	241.21
754.59	241.02
754.91	240.82
755.24	240.63
755.57	240.44
755.90	240.29
756.22	240.11
756.55	239.94
756.88	239.73
757.20	239.44
757.53	239.22
757.86	239.11
758.19	238.93
758.51	238.72
758.84	238.47
759.17	238.26
759.49	238.09
759.82	237.96
760.15	237.80
760.47	237.65
760.80	237.47
761.13	237.36
761.45	237.21
761.78	237.04
762.11	236.87
762.43	236.71
762.76	236.55
763.08	236.41
763.41	236.25
763.74	236.13
764.06	236.02
764.39	235.90
764.71	235.70
765.04	235.57
765.37	235.43
765.69	235.30
766.02	235.21
766.34	235.10
766.67	234.96
767.00	234.89
767.32	234.82
767.65	234.78
767.97	234.64
768.30	234.52
768.62	234.39
768.95	234.28
769.27	234.15
769.60	234.02
769.92	233.94
770.25	233.82
770.57	233.70
770.90	233.58
771.22	233.47
771.55	233.41
771.87	233.35
772.20	233.26
772.52	233.26
772.85	233.29
773.17	233.17
773.50	233.10
773.82	232.95
774.15	232.82
774.47	232.67
774.80	232.61
775.12	232.56
775.45	232.50
775.77	232.44
776.09	232.39
776.42	232.33
776.74	232.27
777.07	232.20
777.39	232.15
777.72	232.12
778.04	232.08
778.36	231.99
778.69	231.87
779.01	231.82
779.33	231.69
779.66	231.50
779.98	231.42
780.31	231.33
780.63	231.32
780.95	231.28
781.28	231.24
781.60	231.16
781.92	231.07
782.25	231.01
782.57	230.98
782.89	230.88
783.22	230.84
783.54	230.74
783.86	230.69
784.19	230.62
784.51	230.53
784.83	230.44
785.16	230.37
785.48	230.34
785.80	230.31
786.12	230.26
786.45	230.20
786.77	230.19
787.09	230.15
787.42	230.08
787.74	230.02
788.06	229.98
788.38	229.93
788.71	229.91
789.03	229.91
789.35	229.85
789.67	229.83
789.99	229.80
790.32	229.75
790.64	229.73
790.96	229.76
791.28	229.70
791.61	229.66
791.93	229.64
792.25	229.62
792.57	229.61
792.89	229.55
793.21	229.51
793.54	229.47
793.86	229.43
794.18	229.40
794.50	229.39
794.82	229.31
795.14	229.30
795.47	229.27
795.79	229.20
796.11	229.11
796.43	229.07
796.75	229.02
797.07	228.99
797.39	228.93
797.71	228.85
798.04	228.82
798.36	228.83
798.68	228.81
799.00	228.79
799.32	228.72
799.64	228.70
799.96	228.68
800.28	228.64
800.60	228.58
800.92	228.53
801.24	228.45
801.56	228.42
801.89	228.34
802.21	228.33
802.53	228.31
802.85	228.31
803.17	228.33
803.49	228.29
803.81	228.22
804.13	228.16
804.45	228.11
804.77	228.08
805.09	228.04
805.41	228.00
805.73	227.94
806.05	227.90
806.37	227.86
806.69	227.81
807.01	227.81
807.33	227.80
807.65	227.74
807.97	227.76
808.28	227.76
808.60	227.73
808.92	227.66
809.24	227.64
809.56	227.59
809.88	227.53
810.20	227.50
810.52	227.57
810.84	227.58
811.16	227.58
811.48	227.55
811.80	227.55
812.12	227.51
812.43	227.49
812.75	227.46
813.07	227.44
813.39	227.42
813.71	227.36
814.03	227.29
814.35	227.34
814.67	227.27
814.98	227.26
815.30	227.26
815.62	227.21
815.94	227.14
816.26	227.19
816.58	227.14
816.89	227.13
817.21	227.05
817.53	227.01
817.85	226.98
818.17	226.95
818.48	226.90
818.80	226.87
819.12	226.86
819.44	226.83
819.76	226.80
820.07	226.80
820.39	226.79
820.71	226.82
821.03	226.79
821.34	226.79
821.66	226.78
821.98	226.78
822.30	226.77
822.61	226.82
822.93	226.78
823.25	226.73
823.57	226.72
823.88	226.74
824.20	226.72
824.52	226.72
824.83	226.74
825.15	226.71
825.47	226.70
825.79	226.69
826.10	226.66
826.42	226.68
826.74	226.66
827.05	226.65
827.37	226.66
827.69	226.64
828.00	226.63
828.32	226.59
828.64	226.58
828.95	226.62
829.27	226.60
829.58	226.54
829.90	226.61
830.22	226.61
830.53	226.57
830.85	226.58
831.17	226.55
831.48	226.54
831.80	226.53
832.11	226.56
832.43	226.56
832.75	226.56
833.06	226.61
833.38	226.61
833.69	226.58
834.01	226.54
834.32	226.52
834.64	226.50
834.96	226.50
835.27	226.48
835.59	226.44
835.90	226.42
836.22	226.42
836.53	226.38
836.85	226.37
837.16	226.49
837.48	226.45
837.79	226.48
838.11	226.45
838.42	226.45
838.74	226.45
839.05	226.43
839.37	226.41
839.68	226.35
840.00	226.30
840.31	226.30
840.63	226.29
840.94	226.30
841.26	226.30
841.57	226.28
841.88	226.30
842.20	226.28
842.51	226.25
842.83	226.26
843.14	226.37
843.46	226.35
843.77	226.26
844.08	226.29
844.40	226.25
844.71	226.29
845.03	226.29
845.34	226.27
845.65	226.27
845.97	226.25
846.28	226.24
846.60	226.27
846.91	226.27
847.22	226.27
847.54	226.24
847.85	226.21
848.16	226.21
848.48	226.17
848.79	226.22
849.10	226.24
849.42	226.26
849.73	226.15
850.04	226.14
850.36	226.11
850.67	226.09
850.98	226.09
851.30	226.05
851.61	226.03
851.92	226.02
852.23	226.02
852.55	226.03
852.86	226.04
853.17	226.03
853.49	226.06
853.80	226.05
854.11	226.07
854.42	226.08
854.74	226.06
855.05	226.05
855.36	225.96
855.67	225.95
855.99	225.93
856.30	226.07
856.61	226.05
856.92	226.02
857.23	225.99
857.55	225.95
857.86	225.97
858.17	226.00
858.48	225.98
858.79	225.97
859.11	225.97
859.42	225.96
859.73	225.95
860.04	225.92
860.35	225.91
860.66	225.83
860.98	225.86
861.29	225.84
861.60	225.86
861.91	225.91
862.22	225.87
862.53	225.84
862.84	225.69
863.16	225.69
863.47	225.70
863.78	225.71
864.09	225.70
864.40	225.70
864.71	225.69
865.02	225.68
865.33	225.67
865.64	225.62
865.95	225.62
866.27	225.67
866.58	225.67
866.89	225.67
867.20	225.68
867.51	225.66
867.82	225.67
868.13	225.70
868.44	225.66
868.75	225.67
869.06	225.69
869.37	225.68
869.68	225.67
869.99	225.69
870.30	225.71
870.61	225.77
870.92	225.72
871.23	225.72
871.54	225.73
871.85	225.74
872.16	225.78
872.47	225.74
872.78	225.68
873.09	225.66
873.40	225.68
873.71	225.69
874.02	225.67
874.33	225.68
874.64	225.62
874.95	225.64
875.26	225.65
875.56	225.63
875.87	225.64
876.18	225.65
876.49	225.77
876.80	225.75
877.11	225.70
877.42	225.71
877.73	225.67
878.04	225.67
878.35	225.70
878.66	225.70
878.96	225.71
879.27	225.69
879.58	225.73
879.89	225.71
880.20	225.77
880.51	225.79
880.82	225.81
881.12	225.84
881.43	225.82
881.74	225.83
882.05	225.83
882.36	225.85
882.67	225.87
882.97	225.76
883.28	225.75
883.59	225.76
883.90	225.77
884.21	225.81
884.51	225.82
884.82	225.78
885.13	225.79
885.44	225.82
885.74	225.82
886.05	225.77
886.36	225.77
886.67	225.70
886.98	225.74
887.28	225.74
887.59	225.76
887.90	225.76
888.20	225.73
888.51	225.75
888.82	225.73
889.13	225.72
889.43	225.79
889.74	225.82
890.05	225.81
890.35	225.81
890.66	225.79
890.97	225.76
891.28	225.76
891.58	225.75
891.89	225.73
892.20	225.69
892.50	225.68
892.81	225.69
893.12	225.68
893.42	225.62
893.73	225.60
894.04	225.58
894.34	225.58
894.65	225.58
894.95	225.55
895.26	225.52
895.57	225.55
895.87	225.47
896.18	225.49
896.48	225.49
896.79	225.48
897.10	225.48
897.40	225.48
897.71	225.48
898.01	225.47
898.32	225.48
898.63	225.52
898.93	225.52
899.24	225.53
899.54	225.52
899.85	225.50
900.15	225.51
900.46	225.49
900.76	225.51
901.07	225.50
901.38	225.49
901.68	225.50
901.99	225.44
902.29	225.45
902.60	225.41
902.90	225.37
903.21	225.37
903.51	225.36
903.82	225.36
904.12	225.37
904.43	225.34
904.73	225.33
905.03	225.30
905.34	225.40
905.64	225.37
905.95	225.37
906.25	225.40
906.56	225.37
906.86	225.38
907.17	225.37
907.47	225.39
907.77	225.39
908.08	225.38
908.38	225.39
908.69	225.37
908.99	225.35
909.30	225.37
909.60	225.34
909.90	225.38
910.21	225.37
910.51	225.37
910.81	225.41
911.12	225.42
911.42	225.41
911.73	225.30
912.03	225.32
912.33	225.37
912.64	225.38
912.94	225.40
913.24	225.39
913.55	225.37
913.85	225.37
914.15	225.40
914.46	225.41
914.76	225.43
915.06	225.44
915.37	225.48
915.67	225.50
915.97	225.54
916.27	225.51
916.58	225.53
916.88	225.51
917.18	225.48
917.49	225.55
917.79	225.57
918.09	225.60
918.39	225.66
918.70	225.63
919.00	225.59
919.30	225.63
919.60	225.66
919.91	225.65
920.21	225.64
920.51	225.63
920.81	225.66
921.12	225.68
921.42	225.69
921.72	225.70
922.02	225.74
922.32	225.75
922.63	225.74
922.93	225.79
923.23	225.81
923.53	225.80
923.83	225.74
924.13	225.75
924.44	225.76
924.74	225.75
925.04	225.77
925.34	225.79
925.64	225.75
925.94	225.70
926.24	225.78
926.55	225.81
926.85	225.79
927.15	225.79
927.45	225.74
927.75	225.73
928.05	225.72
928.35	225.65
928.65	225.66
928.95	225.63
929.26	225.58
929.56	225.57
929.86	225.60
930.16	225.57
930.46	225.56
930.76	225.53
931.06	225.48
931.36	225.43
931.66	225.44
931.96	225.44
932.26	225.45
932.56	225.37
932.86	225.35
933.16	225.34
933.46	225.31
933.76	225.28
934.06	225.28
934.36	225.28
934.66	225.28
934.96	225.22
935.26	225.26
935.56	225.26
935.86	225.26
936.16	225.21
936.46	225.20
936.76	225.23
937.06	225.21
937.36	225.21
937.66	225.22
937.96	225.21
938.26	225.17
938.56	225.15
938.86	225.14
939.16	225.14
939.46	225.14
939.76	225.15
940.06	225.14
940.35	225.11
940.65	225.06
940.95	225.06
941.25	225.05
941.55	225.04
941.85	225.04
942.15	225.06
942.45	225.12
942.75	225.09
943.04	225.08
943.34	225.08
943.64	225.07
943.94	225.02
944.24	225.06
944.54	225.07
944.84	225.08
945.13	225.07
945.43	225.08
945.73	225.10
946.03	225.07
946.33	225.08
946.62	225.08
946.92	225.08
947.22	225.11
947.52	225.12
947.82	225.11
948.11	225.10
948.41	225.06
948.71	225.03
949.01	225.04
949.31	225.02
949.60	225.05
949.90	225.09
950.20	225.14
950.50	225.13
950.79	225.14
951.09	225.17
951.39	225.21
951.69	225.18
951.98	225.23
952.28	225.28
952.58	225.28
952.87	225.31
953.17	225.35
953.47	225.34
953.76	225.32
954.06	225.33
954.36	225.33
954.66	225.35
954.95	225.37
955.25	225.40
955.55	225.42
955.84	225.39
956.14	225.39
956.44	225.41
956.73	225.40
957.03	225.39
957.32	225.37
957.62	225.38
957.92	225.38
958.21	225.38
958.51	225.45
958.81	225.48
959.10	225.48
959.40	225.51
959.69	225.50
959.99	225.53
960.29	225.52
960.58	225.52
960.88	225.56
961.17	225.57
961.47	225.56
961.76	225.57
962.06	225.59
962.36	225.56
962.65	225.53
962.95	225.53
963.24	225.56
963.54	225.58
963.83	225.58
964.13	225.60
964.42	225.55
964.72	225.49
965.01	225.48
965.31	225.47
965.60	225.43
965.90	225.51
966.19	225.51
966.49	225.51
966.78	225.50
967.08	225.48
967.37	225.47
967.67	225.48
967.96	225.47
968.26	225.49
968.55	225.50
968.85	225.49
969.14	225.48
969.43	225.44
969.73	225.39
970.02	225.36
970.32	225.33
970.61	225.31
970.91	225.26
971.20	225.24
971.49	225.22
971.79	225.19
972.08	225.09
972.38	225.07
972.67	225.04
972.96	225.05
973.26	225.00
973.55	225.01
973.85	224.99
974.14	224.96
974.43	224.95
974.73	224.90
975.02	224.90
975.31	224.89
975.61	224.90
975.90	224.90
976.19	224.92
976.49	224.91
976.78	224.96
977.07	224.98
977.37	224.97
977.66	224.98
977.95	225.00
978.24	225.01
978.54	225.06
978.83	225.08
979.12	225.08
979.42	225.08
979.71	225.09
980.00	225.07
980.29	225.09
980.59	225.10
980.88	225.15
981.17	225.17
981.46	225.17
981.76	225.18
982.05	225.24
982.34	225.25
982.63	225.24
982.93	225.23
983.22	225.27
983.51	225.28
983.80	225.32
984.09	225.37
984.39	225.38
984.68	225.34
984.97	225.37
985.26	225.37
985.55	225.38
985.85	225.35
986.14	225.41
986.43	225.41
986.72	225.37
987.01	225.40
987.30	225.40
987.59	225.40
987.89	225.41
988.18	225.38
988.47	225.36
988.76	225.40
989.05	225.37
989.34	225.35
989.63	225.38
989.92	225.34
990.22	225.30
990.51	225.31
990.80	225.31
991.09	225.32
991.38	225.30
991.67	225.31
991.96	225.31
992.25	225.30
992.54	225.29
992.83	225.29
993.12	225.25
993.41	225.24
993.70	225.28
993.99	225.29
994.28	225.31
994.58	225.34
994.87	225.34
995.16	225.30
995.45	225.28
995.74	225.24
996.03	225.26
996.32	225.28
996.61	225.29
996.90	225.30
997.19	225.29
997.48	225.32
997.77	225.31
998.06	225.34
998.34	225.32
998.63	225.33
998.92	225.38
999.21	225.40
999.50	225.41
999.79	225.38
1000.08	225.39
1000.37	225.37
1000.66	225.35
1000.95	225.33
1001.24	225.37
1001.53	225.38
1001.82	225.39
1002.11	225.37
1002.40	225.36
1002.68	225.39
1002.97	225.42
1003.26	225.42
1003.55	225.40
1003.84	225.39
1004.13	225.40
1004.42	225.39
1004.71	225.36
1004.99	225.33
1005.28	225.35
1005.57	225.32
1005.86	225.31
1006.15	225.28
1006.44	225.25
1006.72	225.28
1007.01	225.30
1007.30	225.29
1007.59	225.31
1007.88	225.31
1008.17	225.30
1008.45	225.29
1008.74	225.25
1009.03	225.21
1009.32	225.19
1009.60	225.19
1009.89	225.18
1010.18	225.14
1010.47	225.14
1010.76	225.14
1011.04	225.10
1011.33	225.11
1011.62	225.12
1011.91	225.12
1012.19	225.14
1012.48	225.14
1012.77	225.11
1013.05	225.11
1013.34	225.13
1013.63	225.14
1013.92	225.13
1014.20	225.16
1014.49	225.16
1014.78	225.17
1015.06	225.16
1015.35	225.19
1015.64	225.17
1015.92	225.19
1016.21	225.21
1016.50	225.19
1016.78	225.20
1017.07	225.24
1017.36	225.22
1017.64	225.23
1017.93	225.25
1018.22	225.21
1018.50	225.20
1018.79	225.22
1019.08	225.23
1019.36	225.21
1019.65	225.18
1019.93	225.22
1020.22	225.21
1020.51	225.23
1020.79	225.22
1021.08	224.74
1021.36	224.68
1021.65	225.12
1021.94	225.55
1022.22	225.27
1022.51	225.06
1022.79	226.06
1023.08	225.06
1023.36	225.94
1023.65	225.16
>>>>>End Processed Spectral Data<<<<<
