SpectraSuite Data File
++++++++++++++++++++++++++++++++++++
Date: Fri Feb 01 16:51:32 EST 2013
User: group
Dark Spectrum Present: No
Reference Spectrum Present: No
Number of Sampled Component Spectra: 1
Spectrometers: USB2E7196
Integration Time (usec): 35000 (USB2E7196)
Spectra Averaged: 100 (USB2E7196)
Boxcar Smoothing: 10 (USB2E7196)
Correct for Electrical Dark: No (USB2E7196)
Strobe/Lamp Enabled: No (USB2E7196)
Correct for Detector Non-linearity: No (USB2E7196)
Correct for Stray Light: No (USB2E7196)
Number of Pixels in Processed Spectrum: 2048
>>>>>Begin Processed Spectral Data<<<<<
339.09	0.00
339.48	213.21
339.86	214.46
340.24	216.54
340.63	217.60
341.01	220.09
341.39	220.72
341.78	221.51
342.16	222.60
342.54	223.29
342.93	211.77
343.31	222.45
343.69	222.98
344.07	223.47
344.46	223.87
344.84	224.26
345.22	224.52
345.60	224.77
345.99	224.95
346.37	225.08
346.75	225.18
347.13	225.24
347.52	225.31
347.90	225.39
348.28	225.42
348.66	225.46
349.05	225.44
349.43	225.44
349.81	225.49
350.19	225.50
350.57	225.55
350.96	225.63
351.34	225.72
351.72	225.83
352.10	225.93
352.48	226.02
352.87	226.07
353.25	226.13
353.63	226.15
354.01	226.24
354.39	226.34
354.77	226.39
355.15	226.49
355.54	226.54
355.92	226.58
356.30	226.67
356.68	226.82
357.06	226.87
357.44	226.94
357.82	226.97
358.20	227.04
358.58	227.07
358.97	227.13
359.35	227.23
359.73	227.27
360.11	227.32
360.49	227.37
360.87	227.37
361.25	227.40
361.63	227.48
362.01	227.51
362.39	227.53
362.77	227.59
363.15	227.59
363.53	227.64
363.91	227.64
364.29	227.65
364.67	227.51
365.05	227.55
365.43	227.54
365.81	227.56
366.19	227.59
366.57	227.63
366.95	227.63
367.33	227.58
367.71	227.61
368.09	227.57
368.47	227.53
368.85	227.54
369.23	227.56
369.61	227.50
369.99	227.49
370.37	227.45
370.75	227.48
371.13	227.42
371.51	227.38
371.89	227.35
372.27	227.33
372.65	227.32
373.03	227.28
373.41	227.25
373.78	227.19
374.16	227.07
374.54	227.02
374.92	226.93
375.30	226.88
375.68	226.78
376.06	226.75
376.44	226.73
376.82	226.66
377.19	226.61
377.57	226.52
377.95	226.45
378.33	226.38
378.71	226.26
379.09	226.20
379.47	226.14
379.84	226.06
380.22	225.98
380.60	225.90
380.98	225.84
381.36	225.79
381.73	225.73
382.11	225.74
382.49	225.67
382.87	225.64
383.25	225.55
383.62	225.63
384.00	225.57
384.38	225.52
384.76	225.52
385.13	225.45
385.51	225.46
385.89	225.39
386.27	225.34
386.64	225.30
387.02	225.26
387.40	225.21
387.78	225.16
388.15	225.13
388.53	225.13
388.91	225.13
389.29	225.09
389.66	225.05
390.04	225.02
390.42	225.00
390.79	224.98
391.17	225.00
391.55	224.84
391.92	224.79
392.30	224.78
392.68	224.74
393.05	224.74
393.43	224.72
393.81	224.73
394.18	224.71
394.56	224.72
394.94	224.78
395.31	224.79
395.69	224.89
396.06	224.90
396.44	224.93
396.82	224.90
397.19	224.96
397.57	225.00
397.95	225.02
398.32	225.03
398.70	225.08
399.07	225.15
399.45	225.22
399.82	225.29
400.20	225.31
400.58	225.37
400.95	225.39
401.33	225.45
401.70	225.59
402.08	225.70
402.45	225.80
402.83	225.88
403.20	225.97
403.58	226.06
403.95	226.20
404.33	226.31
404.71	226.42
405.08	226.60
405.46	226.74
405.83	226.91
406.21	227.06
406.58	227.17
406.96	227.28
407.33	227.47
407.70	227.65
408.08	227.96
408.45	228.16
408.83	228.40
409.20	228.63
409.58	228.81
409.95	229.05
410.33	229.32
410.70	229.53
411.08	229.82
411.45	230.09
411.82	230.36
412.20	230.68
412.57	231.13
412.95	231.42
413.32	231.85
413.69	232.22
414.07	232.66
414.44	233.14
414.82	233.63
415.19	234.16
415.56	234.72
415.94	235.19
416.31	235.84
416.68	236.44
417.06	237.19
417.43	237.86
417.81	238.64
418.18	239.42
418.55	240.28
418.93	241.19
419.30	242.10
419.67	243.04
420.04	244.01
420.42	245.00
420.79	246.18
421.16	247.31
421.54	248.49
421.91	249.72
422.28	250.98
422.66	252.34
423.03	253.65
423.40	254.93
423.77	256.37
424.15	257.75
424.52	259.26
424.89	260.80
425.26	262.36
425.64	263.80
426.01	265.36
426.38	266.99
426.75	268.66
427.13	270.37
427.50	272.16
427.87	274.05
428.24	275.89
428.61	277.62
428.99	279.53
429.36	281.66
429.73	283.67
430.10	285.68
430.47	287.71
430.85	289.79
431.22	292.05
431.59	294.43
431.96	296.67
432.33	299.12
432.70	301.48
433.08	304.24
433.45	306.85
433.82	309.45
434.19	312.32
434.56	315.12
434.93	317.77
435.30	320.40
435.68	323.25
436.05	326.06
436.42	328.81
436.79	331.33
437.16	333.99
437.53	336.82
437.90	339.61
438.27	342.30
438.64	345.14
439.01	347.76
439.38	350.02
439.75	352.18
440.13	354.67
440.50	356.99
440.87	358.85
441.24	360.79
441.61	362.94
441.98	364.40
442.35	366.17
442.72	367.98
443.09	369.71
443.46	370.69
443.83	371.23
444.20	371.77
444.57	372.59
444.94	372.89
445.31	373.21
445.68	373.57
446.05	373.65
446.42	373.26
446.79	372.81
447.16	372.33
447.53	372.01
447.90	370.83
448.27	369.69
448.64	368.14
449.01	366.99
449.37	365.03
449.74	363.15
450.11	360.90
450.48	358.46
450.85	355.95
451.22	353.84
451.59	351.84
451.96	349.90
452.33	347.32
452.70	344.98
453.07	342.15
453.43	339.26
453.80	336.55
454.17	333.87
454.54	331.36
454.91	328.64
455.28	325.98
455.65	323.56
456.02	321.13
456.38	318.99
456.75	316.37
457.12	314.14
457.49	311.96
457.86	309.82
458.23	308.03
458.59	306.02
458.96	303.96
459.33	302.13
459.70	300.29
460.07	298.78
460.43	297.09
460.80	295.51
461.17	294.14
461.54	292.68
461.91	291.30
462.27	289.85
462.64	288.64
463.01	287.30
463.38	286.01
463.74	284.64
464.11	283.48
464.48	282.49
464.85	281.39
465.21	280.54
465.58	279.66
465.95	278.49
466.32	277.62
466.68	276.72
467.05	275.85
467.42	274.95
467.78	274.07
468.15	273.21
468.52	272.56
468.88	271.68
469.25	270.89
469.62	270.24
469.98	269.59
470.35	268.96
470.72	268.38
471.08	267.74
471.45	267.21
471.82	266.68
472.18	266.08
472.55	265.68
472.92	265.15
473.28	264.69
473.65	264.28
474.02	263.87
474.38	263.55
474.75	263.25
475.11	262.93
475.48	262.70
475.85	262.49
476.21	262.27
476.58	262.08
476.94	261.94
477.31	261.79
477.67	261.64
478.04	261.55
478.41	261.54
478.77	261.58
479.14	261.56
479.50	261.60
479.87	261.67
480.23	261.75
480.60	261.84
480.96	261.90
481.33	262.13
481.69	262.32
482.06	262.50
482.42	262.71
482.79	262.99
483.15	263.30
483.52	263.63
483.88	263.95
484.25	264.33
484.61	264.75
484.98	265.24
485.34	265.81
485.71	266.40
486.07	266.95
486.44	267.51
486.80	268.21
487.17	268.92
487.53	269.72
487.90	270.56
488.26	271.53
488.62	272.54
488.99	273.51
489.35	274.54
489.72	275.64
490.08	276.81
490.44	278.06
490.81	279.35
491.17	280.72
491.54	282.23
491.90	283.78
492.26	285.42
492.63	287.13
492.99	288.86
493.36	290.77
493.72	292.84
494.08	294.92
494.45	297.16
494.81	299.49
495.17	301.94
495.54	304.50
495.90	307.13
496.26	309.90
496.63	312.84
496.99	315.91
497.35	319.16
497.72	322.55
498.08	326.01
498.44	329.68
498.80	333.59
499.17	337.65
499.53	341.80
499.89	346.21
500.26	350.68
500.62	355.38
500.98	360.30
501.34	365.37
501.71	370.67
502.07	376.12
502.43	381.73
502.79	387.53
503.16	393.57
503.52	399.83
503.88	406.19
504.24	412.85
504.60	419.74
504.97	426.82
505.33	434.12
505.69	441.81
506.05	449.54
506.41	457.40
506.78	465.44
507.14	473.80
507.50	482.43
507.86	491.41
508.22	500.47
508.59	509.64
508.95	519.17
509.31	528.96
509.67	538.95
510.03	549.15
510.39	559.57
510.75	570.31
511.12	581.13
511.48	592.37
511.84	603.70
512.20	615.10
512.56	626.96
512.92	639.00
513.28	651.21
513.64	663.63
514.00	676.24
514.37	689.11
514.73	702.07
515.09	715.02
515.45	728.24
515.81	741.74
516.17	755.55
516.53	769.54
516.89	783.54
517.25	797.63
517.61	811.95
517.97	826.31
518.33	840.59
518.69	855.24
519.05	870.04
519.41	884.98
519.77	900.24
520.13	915.53
520.49	930.77
520.85	946.04
521.21	961.53
521.57	977.53
521.93	993.14
522.29	1009.39
522.65	1025.38
523.01	1041.30
523.37	1057.15
523.73	1073.14
524.09	1089.05
524.45	1105.23
524.81	1121.56
525.17	1138.13
525.53	1154.72
525.89	1171.27
526.25	1187.85
526.61	1204.03
526.97	1220.67
527.33	1237.02
527.68	1253.32
528.04	1269.55
528.40	1285.84
528.76	1302.66
529.12	1318.99
529.48	1335.58
529.84	1351.27
530.20	1367.80
530.56	1384.52
530.91	1401.70
531.27	1418.26
531.63	1434.55
531.99	1450.81
532.35	1466.66
532.71	1482.33
533.07	1498.36
533.42	1514.20
533.78	1530.06
534.14	1546.16
534.50	1561.18
534.86	1576.81
535.21	1591.84
535.57	1607.53
535.93	1622.92
536.29	1637.58
536.65	1652.35
537.00	1666.92
537.36	1682.00
537.72	1696.10
538.08	1710.47
538.44	1724.08
538.79	1737.73
539.15	1751.00
539.51	1764.59
539.87	1778.68
540.22	1792.12
540.58	1805.63
540.94	1818.63
541.29	1831.33
541.65	1843.66
542.01	1856.65
542.37	1868.78
542.72	1880.92
543.08	1892.61
543.44	1904.86
543.79	1915.75
544.15	1926.59
544.51	1938.05
544.87	1948.77
545.22	1959.54
545.58	1969.54
545.94	1979.09
546.29	1988.88
546.65	1998.71
547.01	2007.80
547.36	2016.35
547.72	2024.83
548.07	2032.71
548.43	2040.74
548.79	2048.53
549.14	2056.06
549.50	2063.19
549.86	2070.70
550.21	2078.01
550.57	2084.96
550.92	2091.37
551.28	2098.25
551.64	2105.32
551.99	2111.78
552.35	2117.95
552.70	2124.01
553.06	2129.93
553.41	2136.26
553.77	2142.15
554.13	2148.20
554.48	2154.30
554.84	2159.86
555.19	2164.98
555.55	2170.04
555.90	2174.57
556.26	2179.56
556.61	2184.32
556.97	2188.79
557.32	2193.05
557.68	2197.16
558.03	2201.53
558.39	2205.19
558.74	2210.10
559.10	2213.97
559.45	2217.64
559.81	2221.93
560.16	2225.78
560.52	2229.10
560.87	2232.50
561.23	2235.17
561.58	2238.08
561.94	2240.63
562.29	2242.94
562.64	2245.88
563.00	2248.67
563.35	2252.26
563.71	2255.33
564.06	2258.48
564.42	2261.37
564.77	2264.04
565.12	2266.41
565.48	2268.41
565.83	2270.50
566.19	2271.85
566.54	2272.73
566.89	2273.97
567.25	2274.77
567.60	2276.17
567.96	2278.01
568.31	2279.05
568.66	2280.42
569.02	2281.16
569.37	2281.54
569.72	2282.67
570.08	2282.81
570.43	2282.91
570.78	2282.56
571.14	2281.28
571.49	2280.12
571.84	2279.97
572.20	2278.97
572.55	2278.09
572.90	2276.61
573.26	2275.35
573.61	2273.77
573.96	2272.42
574.31	2269.65
574.67	2266.86
575.02	2263.36
575.37	2260.06
575.72	2256.45
576.08	2253.16
576.43	2249.99
576.78	2246.53
577.13	2243.26
577.49	2240.31
577.84	2237.02
578.19	2233.31
578.54	2229.87
578.90	2225.94
579.25	2220.61
579.60	2215.78
579.95	2210.94
580.30	2206.09
580.66	2200.97
581.01	2196.15
581.36	2191.29
581.71	2187.16
582.06	2182.92
582.42	2178.71
582.77	2173.66
583.12	2169.15
583.47	2164.75
583.82	2160.02
584.17	2155.11
584.53	2149.84
584.88	2144.37
585.23	2138.73
585.58	2133.46
585.93	2128.08
586.28	2123.25
586.63	2118.32
586.98	2113.39
587.34	2108.99
587.69	2104.25
588.04	2099.27
588.39	2093.82
588.74	2087.49
589.09	2081.49
589.44	2074.80
589.79	2068.72
590.14	2063.25
590.49	2056.81
590.84	2050.30
591.19	2044.30
591.54	2038.00
591.89	2030.93
592.25	2024.31
592.60	2017.20
592.95	2009.79
593.30	2002.53
593.65	1995.23
594.00	1988.27
594.35	1981.06
594.70	1973.04
595.05	1966.08
595.40	1958.80
595.75	1951.32
596.10	1945.36
596.45	1938.89
596.80	1932.78
597.15	1926.42
597.50	1919.53
597.85	1913.18
598.19	1906.76
598.54	1899.79
598.89	1893.12
599.24	1887.18
599.59	1880.72
599.94	1874.56
600.29	1868.33
600.64	1861.94
600.99	1854.54
601.34	1847.88
601.69	1841.10
602.04	1834.33
602.39	1827.01
602.74	1820.31
603.08	1813.73
603.43	1806.96
603.78	1799.51
604.13	1792.50
604.48	1785.39
604.83	1778.52
605.18	1771.85
605.53	1763.96
605.87	1756.08
606.22	1748.93
606.57	1741.11
606.92	1733.70
607.27	1726.77
607.62	1719.86
607.96	1712.65
608.31	1706.27
608.66	1698.76
609.01	1691.31
609.36	1683.82
609.70	1675.87
610.05	1668.02
610.40	1660.34
610.75	1652.00
611.10	1644.69
611.44	1636.13
611.79	1628.23
612.14	1619.64
612.49	1610.37
612.83	1602.09
613.18	1593.94
613.53	1585.87
613.88	1577.29
614.22	1569.02
614.57	1560.35
614.92	1552.45
615.27	1545.08
615.61	1536.66
615.96	1528.54
616.31	1520.88
616.65	1513.53
617.00	1506.06
617.35	1498.35
617.70	1490.09
618.04	1481.66
618.39	1473.42
618.74	1466.07
619.08	1457.70
619.43	1450.14
619.78	1443.23
620.12	1436.10
620.47	1428.66
620.82	1420.41
621.16	1413.04
621.51	1405.58
621.85	1398.05
622.20	1389.55
622.55	1381.08
622.89	1373.31
623.24	1365.66
623.59	1358.29
623.93	1350.78
624.28	1343.58
624.62	1336.05
624.97	1328.82
625.32	1322.05
625.66	1314.90
626.01	1307.59
626.35	1300.15
626.70	1292.33
627.04	1284.67
627.39	1276.86
627.73	1269.49
628.08	1262.71
628.43	1255.55
628.77	1248.18
629.12	1240.59
629.46	1233.44
629.81	1225.94
630.15	1218.72
630.50	1211.43
630.84	1203.30
631.19	1195.41
631.53	1187.78
631.88	1180.20
632.22	1172.71
632.57	1165.48
632.91	1158.03
633.26	1150.71
633.60	1143.34
633.95	1136.19
634.29	1129.13
634.64	1122.31
634.98	1114.90
635.32	1107.70
635.67	1101.08
636.01	1094.40
636.36	1087.63
636.70	1081.09
637.05	1074.56
637.39	1068.13
637.73	1061.65
638.08	1055.67
638.42	1049.59
638.77	1043.17
639.11	1036.73
639.45	1030.30
639.80	1023.67
640.14	1017.31
640.49	1010.77
640.83	1004.55
641.17	998.46
641.52	992.13
641.86	985.76
642.20	979.96
642.55	973.64
642.89	967.23
643.23	960.60
643.58	954.80
643.92	948.62
644.26	942.63
644.61	936.55
644.95	930.55
645.29	923.98
645.64	917.35
645.98	911.10
646.32	905.10
646.66	899.08
647.01	893.29
647.35	887.52
647.69	881.69
648.04	876.08
648.38	870.21
648.72	864.28
649.06	858.28
649.41	852.35
649.75	846.43
650.09	840.42
650.43	834.76
650.78	828.59
651.12	822.59
651.46	816.86
651.80	811.14
652.14	805.81
652.49	800.58
652.83	795.44
653.17	789.80
653.51	784.15
653.85	778.76
654.20	773.20
654.54	767.17
654.88	761.40
655.22	755.53
655.56	749.85
655.90	744.38
656.25	739.18
656.59	733.83
656.93	728.80
657.27	723.68
657.61	718.19
657.95	713.22
658.29	708.21
658.64	702.93
658.98	697.62
659.32	692.18
659.66	686.93
660.00	681.57
660.34	676.59
660.68	671.69
661.02	666.73
661.36	661.95
661.70	657.55
662.05	653.29
662.39	649.05
662.73	644.63
663.07	640.26
663.41	635.81
663.75	631.40
664.09	626.85
664.43	622.49
664.77	618.46
665.11	614.17
665.45	609.97
665.79	605.96
666.13	601.85
666.47	597.66
666.81	593.49
667.15	589.32
667.49	585.45
667.83	581.61
668.17	577.70
668.51	573.65
668.85	569.57
669.19	565.70
669.53	561.82
669.87	557.94
670.21	554.21
670.55	550.56
670.89	547.13
671.23	543.69
671.57	540.14
671.91	536.61
672.25	533.06
672.58	529.53
672.92	526.07
673.26	522.81
673.60	519.72
673.94	516.60
674.28	513.69
674.62	510.72
674.96	507.62
675.30	504.67
675.64	501.73
675.97	498.90
676.31	495.97
676.65	493.07
676.99	490.40
677.33	487.53
677.67	484.70
678.01	481.66
678.34	478.64
678.68	475.74
679.02	472.86
679.36	470.14
679.70	467.45
680.04	464.73
680.37	461.94
680.71	459.07
681.05	456.46
681.39	453.77
681.73	451.08
682.06	448.59
682.40	446.08
682.74	443.54
683.08	441.06
683.42	438.49
683.75	435.98
684.09	433.36
684.43	430.89
684.77	428.35
685.10	425.99
685.44	423.65
685.78	421.38
686.12	419.12
686.45	416.78
686.79	414.47
687.13	412.25
687.46	410.06
687.80	407.94
688.14	405.68
688.48	403.63
688.81	401.40
689.15	399.22
689.49	396.98
689.82	394.94
690.16	392.83
690.50	390.90
690.83	388.93
691.17	386.96
691.51	385.07
691.84	383.28
692.18	381.33
692.52	379.39
692.85	377.45
693.19	375.60
693.52	373.79
693.86	371.96
694.20	370.17
694.53	368.37
694.87	366.52
695.21	364.76
695.54	362.91
695.88	361.18
696.21	359.47
696.55	357.84
696.88	356.10
697.22	354.42
697.56	352.75
697.89	351.12
698.23	349.60
698.56	348.01
698.90	346.44
699.23	344.87
699.57	343.35
699.90	341.82
700.24	340.26
700.58	338.74
700.91	337.24
701.25	335.85
701.58	334.48
701.92	333.10
702.25	331.73
702.59	330.39
702.92	329.09
703.26	327.78
703.59	326.50
703.93	325.37
704.26	324.16
704.60	322.87
704.93	321.59
705.26	320.28
705.60	319.07
705.93	317.89
706.27	316.81
706.60	315.70
706.94	314.63
707.27	313.50
707.61	312.43
707.94	311.46
708.27	310.34
708.61	309.28
708.94	308.34
709.28	307.35
709.61	306.40
709.94	305.42
710.28	304.42
710.61	303.41
710.95	302.30
711.28	301.37
711.61	300.44
711.95	299.57
712.28	298.66
712.61	297.70
712.95	296.79
713.28	295.87
713.61	294.98
713.95	294.06
714.28	293.22
714.61	292.34
714.95	291.45
715.28	290.59
715.61	289.70
715.95	288.82
716.28	288.00
716.61	287.11
716.95	286.28
717.28	285.50
717.61	284.75
717.94	284.04
718.28	283.23
718.61	282.46
718.94	281.72
719.27	280.99
719.61	280.31
719.94	279.63
720.27	278.95
720.60	278.27
720.94	277.63
721.27	277.06
721.60	276.50
721.93	275.89
722.27	275.35
722.60	274.76
722.93	274.20
723.26	273.66
723.59	273.13
723.93	272.55
724.26	272.00
724.59	271.39
724.92	270.85
725.25	270.32
725.59	269.86
725.92	269.35
726.25	268.85
726.58	268.33
726.91	267.84
727.24	267.35
727.57	266.85
727.91	266.36
728.24	265.88
728.57	265.37
728.90	264.93
729.23	264.43
729.56	264.01
729.89	263.50
730.22	262.97
730.55	262.49
730.89	262.09
731.22	261.63
731.55	261.25
731.88	260.81
732.21	260.41
732.54	259.95
732.87	259.54
733.20	259.13
733.53	258.78
733.86	258.39
734.19	257.99
734.52	257.66
734.85	257.35
735.18	256.93
735.51	256.59
735.84	256.22
736.17	255.91
736.50	255.53
736.83	255.36
737.16	255.08
737.49	254.77
737.82	254.41
738.15	254.11
738.48	253.77
738.81	253.50
739.14	253.18
739.47	252.89
739.80	252.59
740.13	252.32
740.46	252.00
740.79	251.71
741.12	251.41
741.45	251.13
741.78	250.78
742.11	250.55
742.44	250.23
742.77	249.93
743.10	249.62
743.43	249.30
743.75	248.90
744.08	248.75
744.41	248.48
744.74	248.24
745.07	247.98
745.40	247.77
745.73	247.52
746.06	247.24
746.39	246.98
746.71	246.69
747.04	246.41
747.37	246.18
747.70	245.90
748.03	245.69
748.36	245.46
748.68	245.23
749.01	244.98
749.34	244.73
749.67	244.53
750.00	244.32
750.33	244.22
750.65	243.97
750.98	243.59
751.31	243.39
751.64	243.17
751.97	242.98
752.29	242.72
752.62	242.42
752.95	242.22
753.28	242.00
753.60	241.78
753.93	241.61
754.26	241.39
754.59	241.18
754.91	240.90
755.24	240.68
755.57	240.46
755.90	240.24
756.22	240.06
756.55	239.82
756.88	239.61
757.20	239.31
757.53	239.10
757.86	238.94
758.19	238.77
758.51	238.57
758.84	238.34
759.17	238.15
759.49	238.00
759.82	237.86
760.15	237.70
760.47	237.56
760.80	237.38
761.13	237.26
761.45	237.07
761.78	236.92
762.11	236.76
762.43	236.60
762.76	236.45
763.08	236.33
763.41	236.23
763.74	236.06
764.06	235.91
764.39	235.80
764.71	235.66
765.04	235.48
765.37	235.33
765.69	235.20
766.02	235.10
766.34	234.98
766.67	234.83
767.00	234.72
767.32	234.63
767.65	234.58
767.97	234.47
768.30	234.40
768.62	234.29
768.95	234.19
769.27	234.07
769.60	234.02
769.92	233.87
770.25	233.73
770.57	233.63
770.90	233.56
771.22	233.45
771.55	233.34
771.87	233.27
772.20	233.18
772.52	233.17
772.85	233.17
773.17	233.08
773.50	232.96
773.82	232.85
774.15	232.72
774.47	232.58
774.80	232.47
775.12	232.38
775.45	232.32
775.77	232.27
776.09	232.20
776.42	232.09
776.74	232.02
777.07	231.93
777.39	231.86
777.72	231.79
778.04	231.74
778.36	231.68
778.69	231.60
779.01	231.53
779.33	231.38
779.66	231.19
779.98	231.15
780.31	231.09
780.63	231.08
780.95	231.04
781.28	230.94
781.60	230.88
781.92	230.80
782.25	230.72
782.57	230.65
782.89	230.56
783.22	230.48
783.54	230.42
783.86	230.40
784.19	230.34
784.51	230.33
784.83	230.24
785.16	230.18
785.48	230.13
785.80	230.08
786.12	230.05
786.45	230.00
786.77	229.89
787.09	229.84
787.42	229.76
787.74	229.74
788.06	229.70
788.38	229.64
788.71	229.60
789.03	229.58
789.35	229.52
789.67	229.47
789.99	229.45
790.32	229.41
790.64	229.33
790.96	229.37
791.28	229.29
791.61	229.24
791.93	229.23
792.25	229.19
792.57	229.22
792.89	229.15
793.21	229.14
793.54	229.13
793.86	229.07
794.18	229.04
794.50	228.93
794.82	228.87
795.14	228.85
795.47	228.85
795.79	228.82
796.11	228.75
796.43	228.74
796.75	228.70
797.07	228.64
797.39	228.64
797.71	228.53
798.04	228.51
798.36	228.47
798.68	228.45
799.00	228.46
799.32	228.40
799.64	228.41
799.96	228.37
800.28	228.37
800.60	228.35
800.92	228.31
801.24	228.33
801.56	228.35
801.89	228.31
802.21	228.28
802.53	228.23
802.85	228.25
803.17	228.29
803.49	228.24
803.81	228.24
804.13	228.21
804.45	228.15
804.77	228.12
805.09	228.11
805.41	228.05
805.73	227.97
806.05	227.90
806.37	227.85
806.69	227.82
807.01	227.77
807.33	227.74
807.65	227.67
807.97	227.68
808.28	227.61
808.60	227.57
808.92	227.49
809.24	227.51
809.56	227.45
809.88	227.39
810.20	227.36
810.52	227.32
810.84	227.30
811.16	227.29
811.48	227.26
811.80	227.24
812.12	227.22
812.43	227.20
812.75	227.16
813.07	227.14
813.39	227.14
813.71	227.11
814.03	227.08
814.35	227.10
814.67	227.04
814.98	227.00
815.30	227.00
815.62	226.97
815.94	226.87
816.26	226.90
816.58	226.84
816.89	226.85
817.21	226.83
817.53	226.80
817.85	226.79
818.17	226.77
818.48	226.75
818.80	226.72
819.12	226.69
819.44	226.67
819.76	226.65
820.07	226.60
820.39	226.58
820.71	226.59
821.03	226.54
821.34	226.50
821.66	226.52
821.98	226.49
822.30	226.50
822.61	226.57
822.93	226.52
823.25	226.50
823.57	226.44
823.88	226.46
824.20	226.45
824.52	226.44
824.83	226.40
825.15	226.36
825.47	226.38
825.79	226.39
826.10	226.38
826.42	226.37
826.74	226.36
827.05	226.36
827.37	226.30
827.69	226.33
828.00	226.34
828.32	226.32
828.64	226.32
828.95	226.37
829.27	226.31
829.58	226.29
829.90	226.30
830.22	226.33
830.53	226.29
830.85	226.28
831.17	226.26
831.48	226.25
831.80	226.27
832.11	226.24
832.43	226.22
832.75	226.24
833.06	226.28
833.38	226.23
833.69	226.20
834.01	226.21
834.32	226.18
834.64	226.17
834.96	226.13
835.27	226.11
835.59	226.04
835.90	226.06
836.22	226.06
836.53	226.05
836.85	226.01
837.16	226.10
837.48	226.07
837.79	226.08
838.11	226.11
838.42	226.09
838.74	226.10
839.05	226.09
839.37	226.04
839.68	225.99
840.00	226.00
840.31	226.02
840.63	225.98
840.94	225.97
841.26	225.93
841.57	225.96
841.88	225.97
842.20	225.98
842.51	225.94
842.83	225.92
843.14	226.00
843.46	225.97
843.77	225.91
844.08	225.92
844.40	225.88
844.71	225.85
845.03	225.82
845.34	225.80
845.65	225.76
845.97	225.78
846.28	225.76
846.60	225.77
846.91	225.75
847.22	225.76
847.54	225.76
847.85	225.76
848.16	225.76
848.48	225.72
848.79	225.72
849.10	225.71
849.42	225.69
849.73	225.59
850.04	225.61
850.36	225.56
850.67	225.54
850.98	225.54
851.30	225.52
851.61	225.53
851.92	225.51
852.23	225.56
852.55	225.55
852.86	225.55
853.17	225.55
853.49	225.54
853.80	225.56
854.11	225.58
854.42	225.61
854.74	225.59
855.05	225.60
855.36	225.55
855.67	225.56
855.99	225.56
856.30	225.67
856.61	225.67
856.92	225.67
857.23	225.69
857.55	225.68
857.86	225.67
858.17	225.70
858.48	225.69
858.79	225.67
859.11	225.65
859.42	225.64
859.73	225.61
860.04	225.63
860.35	225.60
860.66	225.55
860.98	225.57
861.29	225.57
861.60	225.55
861.91	225.58
862.22	225.56
862.53	225.56
862.84	225.47
863.16	225.50
863.47	225.48
863.78	225.45
864.09	225.45
864.40	225.46
864.71	225.44
865.02	225.45
865.33	225.43
865.64	225.43
865.95	225.44
866.27	225.50
866.58	225.48
866.89	225.51
867.20	225.52
867.51	225.48
867.82	225.47
868.13	225.52
868.44	225.51
868.75	225.53
869.06	225.54
869.37	225.54
869.68	225.49
869.99	225.49
870.30	225.50
870.61	225.52
870.92	225.51
871.23	225.51
871.54	225.53
871.85	225.56
872.16	225.58
872.47	225.58
872.78	225.56
873.09	225.57
873.40	225.60
873.71	225.64
874.02	225.63
874.33	225.65
874.64	225.62
874.95	225.64
875.26	225.62
875.56	225.63
875.87	225.62
876.18	225.65
876.49	225.74
876.80	225.74
877.11	225.73
877.42	225.72
877.73	225.74
878.04	225.73
878.35	225.74
878.66	225.72
878.96	225.69
879.27	225.64
879.58	225.64
879.89	225.58
880.20	225.58
880.51	225.57
880.82	225.58
881.12	225.55
881.43	225.53
881.74	225.52
882.05	225.51
882.36	225.45
882.67	225.44
882.97	225.34
883.28	225.33
883.59	225.29
883.90	225.32
884.21	225.31
884.51	225.30
884.82	225.26
885.13	225.27
885.44	225.27
885.74	225.27
886.05	225.25
886.36	225.25
886.67	225.22
886.98	225.24
887.28	225.19
887.59	225.22
887.90	225.18
888.20	225.20
888.51	225.21
888.82	225.23
889.13	225.22
889.43	225.30
889.74	225.31
890.05	225.36
890.35	225.34
890.66	225.33
890.97	225.30
891.28	225.28
891.58	225.28
891.89	225.28
892.20	225.27
892.50	225.31
892.81	225.32
893.12	225.30
893.42	225.27
893.73	225.29
894.04	225.29
894.34	225.32
894.65	225.28
894.95	225.25
895.26	225.28
895.57	225.34
895.87	225.24
896.18	225.26
896.48	225.25
896.79	225.26
897.10	225.26
897.40	225.28
897.71	225.34
898.01	225.32
898.32	225.35
898.63	225.38
898.93	225.38
899.24	225.34
899.54	225.35
899.85	225.37
900.15	225.36
900.46	225.35
900.76	225.36
901.07	225.38
901.38	225.39
901.68	225.40
901.99	225.35
902.29	225.35
902.60	225.35
902.90	225.33
903.21	225.34
903.51	225.35
903.82	225.33
904.12	225.32
904.43	225.34
904.73	225.31
905.03	225.29
905.34	225.36
905.64	225.40
905.95	225.39
906.25	225.38
906.56	225.40
906.86	225.40
907.17	225.41
907.47	225.40
907.77	225.42
908.08	225.40
908.38	225.39
908.69	225.42
908.99	225.43
909.30	225.47
909.60	225.42
909.90	225.42
910.21	225.43
910.51	225.40
910.81	225.41
911.12	225.42
911.42	225.42
911.73	225.31
912.03	225.30
912.33	225.34
912.64	225.35
912.94	225.34
913.24	225.31
913.55	225.29
913.85	225.29
914.15	225.29
914.46	225.31
914.76	225.34
915.06	225.33
915.37	225.31
915.67	225.27
915.97	225.30
916.27	225.28
916.58	225.29
916.88	225.27
917.18	225.26
917.49	225.34
917.79	225.32
918.09	225.36
918.39	225.41
918.70	225.39
919.00	225.39
919.30	225.42
919.60	225.43
919.91	225.43
920.21	225.44
920.51	225.44
920.81	225.41
921.12	225.43
921.42	225.41
921.72	225.44
922.02	225.46
922.32	225.48
922.63	225.51
922.93	225.52
923.23	225.55
923.53	225.55
923.83	225.48
924.13	225.52
924.44	225.54
924.74	225.54
925.04	225.57
925.34	225.56
925.64	225.54
925.94	225.56
926.24	225.64
926.55	225.62
926.85	225.62
927.15	225.65
927.45	225.61
927.75	225.60
928.05	225.59
928.35	225.60
928.65	225.60
928.95	225.62
929.26	225.59
929.56	225.61
929.86	225.62
930.16	225.63
930.46	225.61
930.76	225.58
931.06	225.54
931.36	225.51
931.66	225.51
931.96	225.53
932.26	225.53
932.56	225.46
932.86	225.47
933.16	225.48
933.46	225.46
933.76	225.47
934.06	225.49
934.36	225.50
934.66	225.48
934.96	225.48
935.26	225.48
935.56	225.52
935.86	225.49
936.16	225.49
936.46	225.48
936.76	225.48
937.06	225.44
937.36	225.45
937.66	225.46
937.96	225.46
938.26	225.42
938.56	225.41
938.86	225.44
939.16	225.47
939.46	225.50
939.76	225.50
940.06	225.49
940.35	225.50
940.65	225.48
940.95	225.47
941.25	225.45
941.55	225.45
941.85	225.42
942.15	225.45
942.45	225.46
942.75	225.44
943.04	225.42
943.34	225.45
943.64	225.44
943.94	225.43
944.24	225.42
944.54	225.43
944.84	225.43
945.13	225.39
945.43	225.34
945.73	225.30
946.03	225.27
946.33	225.25
946.62	225.21
946.92	225.20
947.22	225.21
947.52	225.22
947.82	225.18
948.11	225.16
948.41	225.13
948.71	225.09
949.01	225.08
949.31	225.10
949.60	225.08
949.90	225.09
950.20	225.07
950.50	225.06
950.79	225.04
951.09	225.03
951.39	225.04
951.69	225.06
951.98	225.08
952.28	225.11
952.58	225.08
952.87	225.10
953.17	225.09
953.47	225.09
953.76	225.08
954.06	225.06
954.36	225.06
954.66	225.04
954.95	225.06
955.25	225.05
955.55	225.05
955.84	225.04
956.14	225.07
956.44	225.08
956.73	225.09
957.03	225.14
957.32	225.10
957.62	225.07
957.92	225.07
958.21	225.06
958.51	225.14
958.81	225.18
959.10	225.18
959.40	225.20
959.69	225.21
959.99	225.23
960.29	225.24
960.58	225.25
960.88	225.30
961.17	225.33
961.47	225.36
961.76	225.34
962.06	225.36
962.36	225.33
962.65	225.33
962.95	225.32
963.24	225.29
963.54	225.34
963.83	225.35
964.13	225.35
964.42	225.35
964.72	225.31
965.01	225.31
965.31	225.34
965.60	225.33
965.90	225.38
966.19	225.34
966.49	225.34
966.78	225.33
967.08	225.31
967.37	225.29
967.67	225.27
967.96	225.30
968.26	225.29
968.55	225.29
968.85	225.28
969.14	225.26
969.43	225.24
969.73	225.23
970.02	225.24
970.32	225.25
970.61	225.24
970.91	225.17
971.20	225.19
971.49	225.14
971.79	225.13
972.08	225.07
972.38	225.09
972.67	225.08
972.96	225.11
973.26	225.09
973.55	225.10
973.85	225.11
974.14	225.08
974.43	225.07
974.73	225.05
975.02	225.05
975.31	225.07
975.61	225.08
975.90	225.07
976.19	225.07
976.49	225.07
976.78	225.04
977.07	225.06
977.37	225.04
977.66	225.07
977.95	225.05
978.24	225.04
978.54	225.08
978.83	225.04
979.12	225.02
979.42	225.03
979.71	225.02
980.00	225.00
980.29	225.02
980.59	225.03
980.88	225.03
981.17	225.04
981.46	225.01
981.76	224.99
982.05	224.99
982.34	224.99
982.63	224.97
982.93	224.99
983.22	224.99
983.51	224.98
983.80	224.94
984.09	224.94
984.39	224.94
984.68	224.89
984.97	224.92
985.26	224.91
985.55	224.91
985.85	224.88
986.14	224.90
986.43	224.88
986.72	224.87
987.01	224.89
987.30	224.86
987.59	224.86
987.89	224.84
988.18	224.83
988.47	224.82
988.76	224.81
989.05	224.80
989.34	224.79
989.63	224.82
989.92	224.82
990.22	224.84
990.51	224.82
990.80	224.83
991.09	224.86
991.38	224.89
991.67	224.84
991.96	224.85
992.25	224.84
992.54	224.85
992.83	224.84
993.12	224.81
993.41	224.85
993.70	224.90
993.99	224.97
994.28	224.98
994.58	224.99
994.87	225.00
995.16	224.98
995.45	224.95
995.74	224.95
996.03	225.00
996.32	224.99
996.61	225.02
996.90	225.02
997.19	225.01
997.48	225.01
997.77	225.06
998.06	225.07
998.34	225.08
998.63	225.10
998.92	225.13
999.21	225.17
999.50	225.16
999.79	225.18
1000.08	225.16
1000.37	225.17
1000.66	225.18
1000.95	225.25
1001.24	225.28
1001.53	225.32
1001.82	225.29
1002.11	225.24
1002.40	225.28
1002.68	225.28
1002.97	225.32
1003.26	225.32
1003.55	225.29
1003.84	225.29
1004.13	225.32
1004.42	225.34
1004.71	225.32
1004.99	225.29
1005.28	225.31
1005.57	225.28
1005.86	225.27
1006.15	225.26
1006.44	225.23
1006.72	225.23
1007.01	225.21
1007.30	225.20
1007.59	225.18
1007.88	225.18
1008.17	225.21
1008.45	225.19
1008.74	225.17
1009.03	225.15
1009.32	225.13
1009.60	225.13
1009.89	225.09
1010.18	225.06
1010.47	225.03
1010.76	225.03
1011.04	225.02
1011.33	225.00
1011.62	225.02
1011.91	225.00
1012.19	224.99
1012.48	225.01
1012.77	224.99
1013.05	225.01
1013.34	225.02
1013.63	225.03
1013.92	225.07
1014.20	225.06
1014.49	225.06
1014.78	225.07
1015.06	225.02
1015.35	225.04
1015.64	225.01
1015.92	225.07
1016.21	225.06
1016.50	225.05
1016.78	225.07
1017.07	225.10
1017.36	225.10
1017.64	225.07
1017.93	225.07
1018.22	225.05
1018.50	225.07
1018.79	225.10
1019.08	225.05
1019.36	225.04
1019.65	225.03
1019.93	225.03
1020.22	225.06
1020.51	225.11
1020.79	225.08
1021.08	224.32
1021.36	225.57
1021.65	225.58
1021.94	224.90
1022.22	225.22
1022.51	225.00
1022.79	225.22
1023.08	225.44
1023.36	226.58
1023.65	224.69
>>>>>End Processed Spectral Data<<<<<
