SpectraSuite Data File
++++++++++++++++++++++++++++++++++++
Date: Fri Feb 01 15:39:30 EST 2013
User: group
Dark Spectrum Present: No
Reference Spectrum Present: No
Number of Sampled Component Spectra: 1
Spectrometers: USB2E7196
Integration Time (usec): 35000 (USB2E7196)
Spectra Averaged: 100 (USB2E7196)
Boxcar Smoothing: 10 (USB2E7196)
Correct for Electrical Dark: No (USB2E7196)
Strobe/Lamp Enabled: No (USB2E7196)
Correct for Detector Non-linearity: No (USB2E7196)
Correct for Stray Light: No (USB2E7196)
Number of Pixels in Processed Spectrum: 2048
>>>>>Begin Processed Spectral Data<<<<<
339.09	0.00
339.48	215.18
339.86	216.48
340.24	217.85
340.63	218.80
341.01	221.96
341.39	221.94
341.78	222.72
342.16	224.16
342.54	224.46
342.93	213.09
343.31	223.88
343.69	224.41
344.07	224.86
344.46	225.26
344.84	225.65
345.22	225.86
345.60	226.10
345.99	226.29
346.37	226.42
346.75	226.51
347.13	226.61
347.52	226.66
347.90	226.72
348.28	226.71
348.66	226.73
349.05	226.72
349.43	226.76
349.81	226.85
350.19	226.90
350.57	226.94
350.96	226.99
351.34	227.03
351.72	227.11
352.10	227.22
352.48	227.31
352.87	227.33
353.25	227.43
353.63	227.48
354.01	227.54
354.39	227.61
354.77	227.70
355.15	227.79
355.54	227.86
355.92	227.91
356.30	228.01
356.68	228.15
357.06	228.21
357.44	228.26
357.82	228.30
358.20	228.36
358.58	228.44
358.97	228.50
359.35	228.60
359.73	228.67
360.11	228.69
360.49	228.72
360.87	228.78
361.25	228.84
361.63	228.92
362.01	229.00
362.39	229.02
362.77	229.02
363.15	229.03
363.53	229.05
363.91	229.09
364.29	229.10
364.67	229.06
365.05	229.07
365.43	229.11
365.81	229.11
366.19	229.16
366.57	229.21
366.95	229.20
367.33	229.18
367.71	229.17
368.09	229.20
368.47	229.18
368.85	229.17
369.23	229.16
369.61	229.12
369.99	229.10
370.37	229.07
370.75	229.11
371.13	229.09
371.51	229.07
371.89	229.02
372.27	228.98
372.65	228.90
373.03	228.87
373.41	228.82
373.78	228.76
374.16	228.66
374.54	228.55
374.92	228.51
375.30	228.46
375.68	228.37
376.06	228.31
376.44	228.25
376.82	228.19
377.19	228.11
377.57	228.03
377.95	227.96
378.33	227.92
378.71	227.83
379.09	227.77
379.47	227.71
379.84	227.64
380.22	227.55
380.60	227.49
380.98	227.41
381.36	227.35
381.73	227.30
382.11	227.28
382.49	227.24
382.87	227.16
383.25	227.08
383.62	227.14
384.00	227.05
384.38	227.02
384.76	226.98
385.13	226.95
385.51	226.92
385.89	226.85
386.27	226.81
386.64	226.76
387.02	226.67
387.40	226.61
387.78	226.58
388.15	226.54
388.53	226.49
388.91	226.44
389.29	226.38
389.66	226.35
390.04	226.33
390.42	226.33
390.79	226.29
391.17	226.26
391.55	226.15
391.92	226.12
392.30	226.09
392.68	226.07
393.05	226.07
393.43	226.06
393.81	226.07
394.18	226.04
394.56	226.05
394.94	226.11
395.31	226.14
395.69	226.17
396.06	226.20
396.44	226.25
396.82	226.32
397.19	226.41
397.57	226.44
397.95	226.46
398.32	226.45
398.70	226.55
399.07	226.64
399.45	226.70
399.82	226.77
400.20	226.83
400.58	226.90
400.95	226.94
401.33	227.03
401.70	227.15
402.08	227.25
402.45	227.31
402.83	227.41
403.20	227.50
403.58	227.59
403.95	227.73
404.33	227.89
404.71	228.01
405.08	228.17
405.46	228.33
405.83	228.47
406.21	228.62
406.58	228.76
406.96	228.90
407.33	229.08
407.70	229.31
408.08	229.59
408.45	229.78
408.83	230.01
409.20	230.20
409.58	230.38
409.95	230.65
410.33	230.96
410.70	231.24
411.08	231.54
411.45	231.88
411.82	232.18
412.20	232.51
412.57	232.94
412.95	233.26
413.32	233.68
413.69	234.10
414.07	234.57
414.44	235.06
414.82	235.55
415.19	236.10
415.56	236.64
415.94	237.20
416.31	237.89
416.68	238.50
417.06	239.26
417.43	240.00
417.81	240.74
418.18	241.54
418.55	242.37
418.93	243.26
419.30	244.16
419.67	245.10
420.04	246.06
420.42	247.05
420.79	248.22
421.16	249.35
421.54	250.59
421.91	251.80
422.28	253.03
422.66	254.38
423.03	255.69
423.40	257.04
423.77	258.45
424.15	259.88
424.52	261.40
424.89	263.01
425.26	264.54
425.64	266.02
426.01	267.63
426.38	269.29
426.75	270.98
427.13	272.70
427.50	274.50
427.87	276.41
428.24	278.31
428.61	280.06
428.99	282.02
429.36	284.11
429.73	286.21
430.10	288.25
430.47	290.31
430.85	292.42
431.22	294.66
431.59	297.06
431.96	299.26
432.33	301.76
432.70	304.16
433.08	306.96
433.45	309.60
433.82	312.22
434.19	315.13
434.56	317.98
434.93	320.67
435.30	323.34
435.68	326.22
436.05	328.98
436.42	331.77
436.79	334.27
437.16	336.94
437.53	339.74
437.90	342.60
438.27	345.32
438.64	348.14
439.01	350.73
439.38	352.97
439.75	355.14
440.13	357.62
440.50	359.94
440.87	361.77
441.24	363.69
441.61	365.77
441.98	367.22
442.35	368.96
442.72	370.73
443.09	372.53
443.46	373.50
443.83	374.16
444.20	374.69
444.57	375.54
444.94	375.86
445.31	376.24
445.68	376.52
446.05	376.61
446.42	376.24
446.79	375.78
447.16	375.31
447.53	375.02
447.90	373.83
448.27	372.67
448.64	371.08
449.01	369.95
449.37	368.02
449.74	366.15
450.11	363.88
450.48	361.42
450.85	358.87
451.22	356.71
451.59	354.67
451.96	352.66
452.33	350.05
452.70	347.66
453.07	344.75
453.43	341.88
453.80	339.15
454.17	336.50
454.54	333.94
454.91	331.20
455.28	328.50
455.65	326.03
456.02	323.57
456.38	321.44
456.75	318.79
457.12	316.54
457.49	314.33
457.86	312.17
458.23	310.34
458.59	308.30
458.96	306.23
459.33	304.37
459.70	302.54
460.07	301.03
460.43	299.35
460.80	297.78
461.17	296.36
461.54	294.86
461.91	293.42
462.27	292.00
462.64	290.78
463.01	289.45
463.38	288.13
463.74	286.77
464.11	285.62
464.48	284.61
464.85	283.53
465.21	282.70
465.58	281.76
465.95	280.68
466.32	279.77
466.68	278.89
467.05	277.99
467.42	277.11
467.78	276.18
468.15	275.30
468.52	274.65
468.88	273.78
469.25	272.98
469.62	272.33
469.98	271.65
470.35	271.03
470.72	270.42
471.08	269.82
471.45	269.29
471.82	268.76
472.18	268.18
472.55	267.75
472.92	267.18
473.28	266.75
473.65	266.28
474.02	265.83
474.38	265.43
474.75	265.11
475.11	264.77
475.48	264.51
475.85	264.27
476.21	264.05
476.58	263.89
476.94	263.75
477.31	263.62
477.67	263.48
478.04	263.37
478.41	263.30
478.77	263.34
479.14	263.25
479.50	263.23
479.87	263.27
480.23	263.33
480.60	263.41
480.96	263.48
481.33	263.69
481.69	263.94
482.06	264.12
482.42	264.32
482.79	264.55
483.15	264.86
483.52	265.25
483.88	265.57
484.25	265.93
484.61	266.38
484.98	266.83
485.34	267.37
485.71	267.98
486.07	268.61
486.44	269.16
486.80	269.88
487.17	270.60
487.53	271.41
487.90	272.26
488.26	273.18
488.62	274.15
488.99	275.14
489.35	276.10
489.72	277.25
490.08	278.46
490.44	279.73
490.81	281.06
491.17	282.38
491.54	283.91
491.90	285.47
492.26	287.09
492.63	288.78
492.99	290.55
493.36	292.40
493.72	294.44
494.08	296.54
494.45	298.80
494.81	301.17
495.17	303.62
495.54	306.16
495.90	308.86
496.26	311.69
496.63	314.64
496.99	317.75
497.35	321.00
497.72	324.38
498.08	327.87
498.44	331.51
498.80	335.43
499.17	339.40
499.53	343.53
499.89	347.89
500.26	352.40
500.62	357.08
500.98	362.04
501.34	367.09
501.71	372.42
502.07	377.88
502.43	383.50
502.79	389.28
503.16	395.34
503.52	401.57
503.88	407.98
504.24	414.64
504.60	421.58
504.97	428.68
505.33	435.99
505.69	443.72
506.05	451.51
506.41	459.43
506.78	467.60
507.14	476.08
507.50	484.77
507.86	493.84
508.22	503.01
508.59	512.24
508.95	521.78
509.31	531.64
509.67	541.69
510.03	551.93
510.39	562.50
510.75	573.33
511.12	584.24
511.48	595.48
511.84	606.91
512.20	618.40
512.56	630.36
512.92	642.56
513.28	654.89
513.64	667.44
514.00	680.17
514.37	693.06
514.73	706.13
515.09	719.23
515.45	732.38
515.81	746.00
516.17	760.04
516.53	774.19
516.89	788.22
517.25	802.44
517.61	816.86
517.97	831.40
518.33	845.85
518.69	860.77
519.05	875.85
519.41	890.97
519.77	906.59
520.13	922.16
520.49	937.55
520.85	952.97
521.21	968.71
521.57	984.99
521.93	1000.86
522.29	1017.34
522.65	1033.58
523.01	1049.94
523.37	1066.02
523.73	1082.15
524.09	1098.33
524.45	1114.82
524.81	1131.46
525.17	1148.36
525.53	1165.27
525.89	1182.22
526.25	1199.08
526.61	1215.48
526.97	1232.24
527.33	1248.62
527.68	1265.16
528.04	1281.64
528.40	1298.33
528.76	1315.35
529.12	1331.98
529.48	1348.84
529.84	1364.76
530.20	1381.38
530.56	1398.46
530.91	1415.88
531.27	1432.55
531.63	1449.01
531.99	1465.48
532.35	1481.39
532.71	1497.25
533.07	1513.53
533.42	1529.46
533.78	1545.46
534.14	1561.80
534.50	1577.21
534.86	1593.21
535.21	1608.46
535.57	1624.49
535.93	1640.06
536.29	1654.85
536.65	1669.83
537.00	1684.69
537.36	1700.05
537.72	1714.68
538.08	1729.02
538.44	1742.79
538.79	1756.85
539.15	1770.58
539.51	1784.53
539.87	1798.98
540.22	1812.72
540.58	1826.45
540.94	1839.67
541.29	1852.44
541.65	1865.05
542.01	1878.34
542.37	1890.62
542.72	1903.09
543.08	1914.83
543.44	1927.19
543.79	1938.47
544.15	1949.43
544.51	1960.97
544.87	1971.90
545.22	1982.74
545.58	1993.00
545.94	2002.74
546.29	2012.53
546.65	2022.27
547.01	2031.43
547.36	2040.12
547.72	2048.67
548.07	2056.47
548.43	2064.60
548.79	2072.84
549.14	2080.30
549.50	2087.63
549.86	2095.29
550.21	2102.47
550.57	2109.57
550.92	2116.01
551.28	2123.00
551.64	2130.12
551.99	2136.65
552.35	2142.87
552.70	2148.93
553.06	2154.84
553.41	2161.20
553.77	2167.38
554.13	2173.65
554.48	2179.80
554.84	2185.16
555.19	2190.33
555.55	2195.56
555.90	2200.06
556.26	2204.84
556.61	2209.71
556.97	2213.86
557.32	2218.02
557.68	2222.23
558.03	2226.63
558.39	2230.47
558.74	2235.01
559.10	2238.81
559.45	2242.57
559.81	2246.92
560.16	2250.70
560.52	2254.03
560.87	2257.56
561.23	2260.04
561.58	2262.82
561.94	2265.22
562.29	2267.85
562.64	2270.63
563.00	2273.24
563.35	2276.86
563.71	2280.01
564.06	2283.22
564.42	2286.21
564.77	2288.60
565.12	2290.86
565.48	2292.67
565.83	2294.40
566.19	2295.70
566.54	2296.74
566.89	2297.71
567.25	2298.07
567.60	2299.40
567.96	2300.96
568.31	2301.73
568.66	2302.84
569.02	2303.35
569.37	2303.71
569.72	2304.36
570.08	2304.44
570.43	2304.52
570.78	2303.80
571.14	2302.24
571.49	2300.73
571.84	2300.42
572.20	2299.31
572.55	2298.24
572.90	2296.77
573.26	2295.44
573.61	2293.86
573.96	2291.94
574.31	2289.03
574.67	2286.04
575.02	2282.35
575.37	2279.01
575.72	2275.27
576.08	2272.00
576.43	2268.71
576.78	2265.06
577.13	2261.87
577.49	2258.89
577.84	2255.18
578.19	2251.43
578.54	2247.74
578.90	2243.49
579.25	2237.87
579.60	2232.89
579.95	2227.82
580.30	2222.76
580.66	2217.61
581.01	2212.71
581.36	2207.85
581.71	2203.57
582.06	2199.04
582.42	2194.72
582.77	2189.38
583.12	2184.55
583.47	2179.68
583.82	2174.64
584.17	2169.47
584.53	2164.02
584.88	2158.26
585.23	2152.54
585.58	2147.07
585.93	2141.60
586.28	2136.88
586.63	2131.57
586.98	2126.29
587.34	2121.49
587.69	2116.56
588.04	2111.17
588.39	2105.37
588.74	2098.76
589.09	2092.61
589.44	2085.87
589.79	2079.85
590.14	2074.17
590.49	2067.64
590.84	2061.38
591.19	2055.40
591.54	2048.84
591.89	2041.33
592.25	2034.52
592.60	2027.20
592.95	2019.50
593.30	2012.11
593.65	2004.47
594.00	1997.41
594.35	1990.22
594.70	1982.28
595.05	1974.82
595.40	1967.49
595.75	1959.93
596.10	1953.79
596.45	1946.97
596.80	1940.87
597.15	1934.10
597.50	1926.88
597.85	1920.45
598.19	1913.61
598.54	1906.40
598.89	1899.68
599.24	1893.72
599.59	1886.92
599.94	1880.69
600.29	1874.52
600.64	1868.02
600.99	1860.60
601.34	1853.77
601.69	1846.93
602.04	1839.99
602.39	1832.76
602.74	1825.92
603.08	1819.11
603.43	1812.31
603.78	1804.99
604.13	1797.64
604.48	1790.26
604.83	1783.52
605.18	1776.38
605.53	1768.51
605.87	1760.46
606.22	1753.18
606.57	1745.29
606.92	1738.08
607.27	1730.94
607.62	1723.98
607.96	1716.56
608.31	1709.87
608.66	1702.31
609.01	1694.70
609.36	1687.08
609.70	1679.01
610.05	1671.04
610.40	1663.33
610.75	1655.04
611.10	1647.27
611.44	1638.81
611.79	1630.88
612.14	1622.18
612.49	1613.14
612.83	1604.77
613.18	1596.69
613.53	1588.58
613.88	1580.03
614.22	1571.66
614.57	1563.14
614.92	1555.03
615.27	1547.45
615.61	1539.13
615.96	1531.16
616.31	1523.53
616.65	1516.25
617.00	1508.73
617.35	1501.03
617.70	1492.59
618.04	1484.08
618.39	1475.95
618.74	1468.48
619.08	1460.12
619.43	1452.66
619.78	1445.68
620.12	1438.43
620.47	1430.94
620.82	1422.91
621.16	1415.55
621.51	1408.04
621.85	1400.33
622.20	1391.81
622.55	1383.49
622.89	1375.59
623.24	1367.94
623.59	1360.62
623.93	1353.01
624.28	1345.71
624.62	1338.19
624.97	1331.27
625.32	1324.48
625.66	1317.47
626.01	1310.28
626.35	1302.85
626.70	1295.02
627.04	1287.38
627.39	1279.53
627.73	1271.95
628.08	1264.97
628.43	1257.52
628.77	1250.07
629.12	1242.49
629.46	1235.34
629.81	1227.93
630.15	1220.72
630.50	1213.32
630.84	1205.01
631.19	1197.12
631.53	1189.73
631.88	1182.13
632.22	1174.39
632.57	1167.13
632.91	1159.58
633.26	1152.07
633.60	1144.80
633.95	1137.75
634.29	1130.67
634.64	1124.02
634.98	1116.69
635.32	1109.53
635.67	1103.02
636.01	1096.35
636.36	1089.62
636.70	1083.01
637.05	1076.40
637.39	1070.00
637.73	1063.52
638.08	1057.64
638.42	1051.65
638.77	1045.14
639.11	1038.49
639.45	1032.25
639.80	1025.52
640.14	1019.11
640.49	1012.60
640.83	1006.21
641.17	999.94
641.52	993.53
641.86	987.13
642.20	981.32
642.55	974.97
642.89	968.42
643.23	961.87
643.58	955.99
643.92	949.77
644.26	943.62
644.61	937.55
644.95	931.45
645.29	924.86
645.64	918.09
645.98	911.82
646.32	906.07
646.66	899.95
647.01	894.18
647.35	888.43
647.69	882.70
648.04	877.28
648.38	871.44
648.72	865.38
649.06	859.37
649.41	853.49
649.75	847.58
650.09	841.73
650.43	835.92
650.78	829.79
651.12	823.95
651.46	818.30
651.80	812.56
652.14	807.28
652.49	801.92
652.83	796.80
653.17	791.02
653.51	785.34
653.85	779.98
654.20	774.31
654.54	768.32
654.88	762.54
655.22	756.61
655.56	751.01
655.90	745.70
656.25	740.41
656.59	735.07
656.93	729.95
657.27	724.81
657.61	719.40
657.95	714.32
658.29	709.26
658.64	703.99
658.98	698.73
659.32	693.23
659.66	688.06
660.00	682.73
660.34	677.81
660.68	672.81
661.02	667.76
661.36	663.08
661.70	658.59
662.05	654.20
662.39	649.83
662.73	645.38
663.07	640.99
663.41	636.61
663.75	632.11
664.09	627.54
664.43	623.19
664.77	619.11
665.11	614.96
665.45	610.86
665.79	606.83
666.13	602.67
666.47	598.53
666.81	594.36
667.15	590.24
667.49	586.38
667.83	582.60
668.17	578.62
668.51	574.45
668.85	570.49
669.19	566.69
669.53	562.83
669.87	558.91
670.21	555.25
670.55	551.54
670.89	548.09
671.23	544.68
671.57	541.08
671.91	537.50
672.25	533.89
672.58	530.30
672.92	526.88
673.26	523.73
673.60	520.62
673.94	517.53
674.28	514.59
674.62	511.62
674.96	508.49
675.30	505.54
675.64	502.70
675.97	499.88
676.31	496.96
676.65	494.03
676.99	491.38
677.33	488.46
677.67	485.64
678.01	482.61
678.34	479.64
678.68	476.72
679.02	473.92
679.36	471.15
679.70	468.50
680.04	465.71
680.37	462.78
680.71	460.00
681.05	457.36
681.39	454.68
681.73	452.04
682.06	449.57
682.40	447.08
682.74	444.56
683.08	442.08
683.42	439.54
683.75	437.07
684.09	434.51
684.43	432.02
684.77	429.55
685.10	427.25
685.44	424.94
685.78	422.71
686.12	420.42
686.45	418.16
686.79	415.87
687.13	413.74
687.46	411.63
687.80	409.46
688.14	407.24
688.48	405.16
688.81	402.89
689.15	400.72
689.49	398.61
689.82	396.53
690.16	394.42
690.50	392.39
690.83	390.43
691.17	388.48
691.51	386.65
691.84	384.88
692.18	382.94
692.52	380.97
692.85	379.08
693.19	377.18
693.52	375.38
693.86	373.54
694.20	371.76
694.53	369.96
694.87	368.19
695.21	366.44
695.54	364.63
695.88	362.98
696.21	361.26
696.55	359.56
696.88	357.86
697.22	356.24
697.56	354.64
697.89	353.02
698.23	351.41
698.56	349.81
698.90	348.17
699.23	346.55
699.57	345.00
699.90	343.44
700.24	341.96
700.58	340.44
700.91	338.94
701.25	337.47
701.58	336.15
701.92	334.77
702.25	333.35
702.59	331.97
702.92	330.59
703.26	329.27
703.59	327.99
703.93	326.82
704.26	325.57
704.60	324.31
704.93	323.00
705.26	321.72
705.60	320.54
705.93	319.39
706.27	318.34
706.60	317.30
706.94	316.25
707.27	315.11
707.61	314.07
707.94	313.10
708.27	312.01
708.61	310.90
708.94	309.83
709.28	308.87
709.61	307.91
709.94	306.97
710.28	305.93
710.61	304.92
710.95	303.84
711.28	302.88
711.61	301.92
711.95	301.02
712.28	300.05
712.61	299.07
712.95	298.12
713.28	297.20
713.61	296.25
713.95	295.35
714.28	294.52
714.61	293.64
714.95	292.75
715.28	291.90
715.61	291.03
715.95	290.21
716.28	289.31
716.61	288.50
716.95	287.69
717.28	286.96
717.61	286.19
717.94	285.42
718.28	284.61
718.61	283.88
718.94	283.19
719.27	282.56
719.61	281.90
719.94	281.25
720.27	280.52
720.60	279.88
720.94	279.24
721.27	278.64
721.60	278.03
721.93	277.41
722.27	276.83
722.60	276.28
722.93	275.70
723.26	275.18
723.59	274.64
723.93	274.08
724.26	273.53
724.59	273.00
724.92	272.50
725.25	272.02
725.59	271.48
725.92	270.93
726.25	270.39
726.58	269.85
726.91	269.38
727.24	268.96
727.57	268.46
727.91	267.98
728.24	267.47
728.57	266.99
728.90	266.52
729.23	266.04
729.56	265.59
729.89	265.15
730.22	264.66
730.55	264.20
730.89	263.78
731.22	263.37
731.55	262.94
731.88	262.53
732.21	262.12
732.54	261.71
732.87	261.33
733.20	260.96
733.53	260.58
733.86	260.20
734.19	259.80
734.52	259.47
734.85	259.17
735.18	258.82
735.51	258.50
735.84	258.19
736.17	257.87
736.50	257.46
736.83	257.24
737.16	256.94
737.49	256.60
737.82	256.26
738.15	255.94
738.48	255.60
738.81	255.29
739.14	254.99
739.47	254.68
739.80	254.43
740.13	254.14
740.46	253.88
740.79	253.54
741.12	253.24
741.45	252.91
741.78	252.57
742.11	252.28
742.44	251.95
742.77	251.64
743.10	251.30
743.43	251.02
743.75	250.61
744.08	250.45
744.41	250.18
744.74	249.87
745.07	249.58
745.40	249.34
745.73	249.12
746.06	248.84
746.39	248.59
746.71	248.29
747.04	248.01
747.37	247.76
747.70	247.51
748.03	247.27
748.36	247.06
748.68	246.79
749.01	246.56
749.34	246.34
749.67	246.11
750.00	245.89
750.33	245.75
750.65	245.54
750.98	245.20
751.31	244.96
751.64	244.78
751.97	244.60
752.29	244.38
752.62	244.07
752.95	243.83
753.28	243.61
753.60	243.40
753.93	243.20
754.26	242.96
754.59	242.74
754.91	242.51
755.24	242.27
755.57	242.09
755.90	241.85
756.22	241.66
756.55	241.45
756.88	241.28
757.20	241.02
757.53	240.80
757.86	240.63
758.19	240.44
758.51	240.25
758.84	240.00
759.17	239.80
759.49	239.64
759.82	239.55
760.15	239.38
760.47	239.20
760.80	239.02
761.13	238.88
761.45	238.72
761.78	238.58
762.11	238.45
762.43	238.25
762.76	238.09
763.08	237.96
763.41	237.80
763.74	237.62
764.06	237.47
764.39	237.34
764.71	237.19
765.04	237.04
765.37	236.91
765.69	236.77
766.02	236.66
766.34	236.56
766.67	236.35
767.00	236.26
767.32	236.14
767.65	236.09
767.97	235.94
768.30	235.81
768.62	235.67
768.95	235.55
769.27	235.46
769.60	235.38
769.92	235.26
770.25	235.17
770.57	235.08
770.90	235.01
771.22	234.93
771.55	234.85
771.87	234.78
772.20	234.69
772.52	234.73
772.85	234.76
773.17	234.66
773.50	234.57
773.82	234.47
774.15	234.36
774.47	234.26
774.80	234.18
775.12	234.11
775.45	234.05
775.77	234.02
776.09	233.94
776.42	233.87
776.74	233.80
777.07	233.74
777.39	233.70
777.72	233.63
778.04	233.57
778.36	233.49
778.69	233.46
779.01	233.43
779.33	233.29
779.66	233.14
779.98	233.10
780.31	233.09
780.63	233.08
780.95	233.06
781.28	232.98
781.60	232.95
781.92	232.92
782.25	232.89
782.57	232.82
782.89	232.82
783.22	232.78
783.54	232.75
783.86	232.72
784.19	232.64
784.51	232.63
784.83	232.58
785.16	232.54
785.48	232.52
785.80	232.47
786.12	232.41
786.45	232.37
786.77	232.35
787.09	232.26
787.42	232.19
787.74	232.15
788.06	232.14
788.38	232.08
788.71	232.02
789.03	231.97
789.35	231.93
789.67	231.86
789.99	231.84
790.32	231.76
790.64	231.71
790.96	231.76
791.28	231.67
791.61	231.61
791.93	231.57
792.25	231.49
792.57	231.51
792.89	231.44
793.21	231.38
793.54	231.30
793.86	231.24
794.18	231.20
794.50	231.12
794.82	231.05
795.14	230.99
795.47	230.98
795.79	230.91
796.11	230.82
796.43	230.75
796.75	230.67
797.07	230.62
797.39	230.60
797.71	230.46
798.04	230.45
798.36	230.41
798.68	230.36
799.00	230.31
799.32	230.20
799.64	230.18
799.96	230.12
800.28	230.10
800.60	230.05
800.92	230.01
801.24	229.96
801.56	229.93
801.89	229.90
802.21	229.85
802.53	229.81
802.85	229.82
803.17	229.82
803.49	229.76
803.81	229.73
804.13	229.67
804.45	229.63
804.77	229.57
805.09	229.53
805.41	229.49
805.73	229.44
806.05	229.39
806.37	229.35
806.69	229.34
807.01	229.29
807.33	229.29
807.65	229.20
807.97	229.20
808.28	229.14
808.60	229.12
808.92	229.08
809.24	229.08
809.56	229.04
809.88	229.01
810.20	228.99
810.52	229.00
810.84	228.97
811.16	228.93
811.48	228.89
811.80	228.91
812.12	228.89
812.43	228.89
812.75	228.88
813.07	228.84
813.39	228.83
813.71	228.82
814.03	228.79
814.35	228.78
814.67	228.73
814.98	228.73
815.30	228.70
815.62	228.66
815.94	228.64
816.26	228.67
816.58	228.63
816.89	228.65
817.21	228.62
817.53	228.61
817.85	228.61
818.17	228.61
818.48	228.58
818.80	228.59
819.12	228.58
819.44	228.55
819.76	228.53
820.07	228.53
820.39	228.50
820.71	228.53
821.03	228.51
821.34	228.51
821.66	228.51
821.98	228.49
822.30	228.48
822.61	228.49
822.93	228.41
823.25	228.43
823.57	228.41
823.88	228.42
824.20	228.40
824.52	228.42
824.83	228.42
825.15	228.39
825.47	228.38
825.79	228.36
826.10	228.38
826.42	228.38
826.74	228.36
827.05	228.38
827.37	228.37
827.69	228.37
828.00	228.37
828.32	228.35
828.64	228.36
828.95	228.41
829.27	228.39
829.58	228.41
829.90	228.37
830.22	228.34
830.53	228.31
830.85	228.31
831.17	228.26
831.48	228.26
831.80	228.24
832.11	228.20
832.43	228.18
832.75	228.17
833.06	228.23
833.38	228.17
833.69	228.16
834.01	228.15
834.32	228.17
834.64	228.13
834.96	228.12
835.27	228.09
835.59	228.06
835.90	228.03
836.22	228.01
836.53	228.00
836.85	228.00
837.16	228.07
837.48	228.05
837.79	228.08
838.11	228.02
838.42	228.01
838.74	228.04
839.05	228.04
839.37	228.00
839.68	227.91
840.00	227.90
840.31	227.89
840.63	227.86
840.94	227.81
841.26	227.83
841.57	227.82
841.88	227.82
842.20	227.77
842.51	227.76
842.83	227.75
843.14	227.82
843.46	227.84
843.77	227.77
844.08	227.75
844.40	227.71
844.71	227.70
845.03	227.68
845.34	227.64
845.65	227.61
845.97	227.63
846.28	227.63
846.60	227.64
846.91	227.62
847.22	227.63
847.54	227.68
847.85	227.68
848.16	227.69
848.48	227.67
848.79	227.74
849.10	227.74
849.42	227.75
849.73	227.68
850.04	227.63
850.36	227.63
850.67	227.67
850.98	227.68
851.30	227.70
851.61	227.72
851.92	227.73
852.23	227.77
852.55	227.72
852.86	227.72
853.17	227.72
853.49	227.73
853.80	227.71
854.11	227.69
854.42	227.68
854.74	227.65
855.05	227.66
855.36	227.58
855.67	227.59
855.99	227.62
856.30	227.75
856.61	227.75
856.92	227.71
857.23	227.68
857.55	227.65
857.86	227.66
858.17	227.66
858.48	227.65
858.79	227.64
859.11	227.68
859.42	227.67
859.73	227.63
860.04	227.65
860.35	227.66
860.66	227.63
860.98	227.63
861.29	227.64
861.60	227.64
861.91	227.68
862.22	227.60
862.53	227.54
862.84	227.41
863.16	227.47
863.47	227.47
863.78	227.48
864.09	227.51
864.40	227.51
864.71	227.51
865.02	227.51
865.33	227.51
865.64	227.51
865.95	227.51
866.27	227.59
866.58	227.56
866.89	227.54
867.20	227.54
867.51	227.53
867.82	227.52
868.13	227.53
868.44	227.48
868.75	227.53
869.06	227.54
869.37	227.53
869.68	227.46
869.99	227.47
870.30	227.45
870.61	227.46
870.92	227.44
871.23	227.42
871.54	227.45
871.85	227.45
872.16	227.44
872.47	227.46
872.78	227.39
873.09	227.42
873.40	227.43
873.71	227.44
874.02	227.46
874.33	227.45
874.64	227.40
874.95	227.44
875.26	227.40
875.56	227.40
875.87	227.40
876.18	227.38
876.49	227.46
876.80	227.44
877.11	227.42
877.42	227.43
877.73	227.45
878.04	227.42
878.35	227.40
878.66	227.41
878.96	227.41
879.27	227.42
879.58	227.40
879.89	227.37
880.20	227.40
880.51	227.38
880.82	227.39
881.12	227.42
881.43	227.41
881.74	227.40
882.05	227.42
882.36	227.43
882.67	227.44
882.97	227.37
883.28	227.38
883.59	227.36
883.90	227.37
884.21	227.34
884.51	227.33
884.82	227.32
885.13	227.32
885.44	227.28
885.74	227.23
886.05	227.21
886.36	227.24
886.67	227.20
886.98	227.22
887.28	227.22
887.59	227.23
887.90	227.23
888.20	227.21
888.51	227.21
888.82	227.22
889.13	227.22
889.43	227.28
889.74	227.26
890.05	227.25
890.35	227.22
890.66	227.22
890.97	227.20
891.28	227.18
891.58	227.15
891.89	227.15
892.20	227.17
892.50	227.14
892.81	227.14
893.12	227.12
893.42	227.06
893.73	227.04
894.04	227.03
894.34	227.04
894.65	227.05
894.95	227.06
895.26	227.02
895.57	227.04
895.87	226.96
896.18	226.97
896.48	226.99
896.79	226.99
897.10	227.01
897.40	227.01
897.71	227.00
898.01	227.02
898.32	227.00
898.63	226.99
898.93	227.00
899.24	226.94
899.54	226.92
899.85	226.94
900.15	226.94
900.46	226.95
900.76	226.96
901.07	226.94
901.38	226.91
901.68	226.94
901.99	226.90
902.29	226.89
902.60	226.91
902.90	226.88
903.21	226.87
903.51	226.87
903.82	226.90
904.12	226.91
904.43	226.92
904.73	226.95
905.03	226.93
905.34	227.04
905.64	227.06
905.95	227.06
906.25	227.04
906.56	227.02
906.86	226.99
907.17	226.95
907.47	226.96
907.77	226.94
908.08	226.88
908.38	226.91
908.69	226.93
908.99	226.93
909.30	226.93
909.60	226.92
909.90	226.91
910.21	226.88
910.51	226.88
910.81	226.88
911.12	226.85
911.42	226.86
911.73	226.78
912.03	226.77
912.33	226.80
912.64	226.78
912.94	226.79
913.24	226.80
913.55	226.82
913.85	226.83
914.15	226.85
914.46	226.88
914.76	226.87
915.06	226.86
915.37	226.83
915.67	226.82
915.97	226.84
916.27	226.80
916.58	226.80
916.88	226.80
917.18	226.77
917.49	226.85
917.79	226.86
918.09	226.88
918.39	226.96
918.70	226.96
919.00	226.97
919.30	227.02
919.60	226.99
919.91	226.98
920.21	226.96
920.51	226.94
920.81	226.90
921.12	226.90
921.42	226.89
921.72	226.92
922.02	226.96
922.32	226.95
922.63	226.97
922.93	227.03
923.23	227.03
923.53	227.05
923.83	226.98
924.13	226.98
924.44	226.96
924.74	226.96
925.04	227.01
925.34	227.03
925.64	226.99
925.94	226.99
926.24	227.06
926.55	227.11
926.85	227.15
927.15	227.21
927.45	227.18
927.75	227.21
928.05	227.21
928.35	227.19
928.65	227.18
928.95	227.20
929.26	227.15
929.56	227.14
929.86	227.15
930.16	227.19
930.46	227.21
930.76	227.24
931.06	227.19
931.36	227.15
931.66	227.19
931.96	227.19
932.26	227.20
932.56	227.15
932.86	227.14
933.16	227.16
933.46	227.16
933.76	227.19
934.06	227.20
934.36	227.23
934.66	227.25
934.96	227.29
935.26	227.28
935.56	227.32
935.86	227.31
936.16	227.29
936.46	227.27
936.76	227.23
937.06	227.22
937.36	227.22
937.66	227.27
937.96	227.26
938.26	227.24
938.56	227.25
938.86	227.26
939.16	227.24
939.46	227.24
939.76	227.22
940.06	227.19
940.35	227.15
940.65	227.07
940.95	227.05
941.25	227.01
941.55	227.03
941.85	227.02
942.15	227.04
942.45	227.07
942.75	227.03
943.04	227.04
943.34	227.04
943.64	227.00
943.94	226.96
944.24	226.94
944.54	226.93
944.84	226.92
945.13	226.90
945.43	226.92
945.73	226.86
946.03	226.84
946.33	226.83
946.62	226.85
946.92	226.89
947.22	226.91
947.52	226.90
947.82	226.88
948.11	226.85
948.41	226.83
948.71	226.79
949.01	226.79
949.31	226.79
949.60	226.78
949.90	226.79
950.20	226.76
950.50	226.74
950.79	226.76
951.09	226.75
951.39	226.76
951.69	226.76
951.98	226.79
952.28	226.79
952.58	226.77
952.87	226.76
953.17	226.76
953.47	226.75
953.76	226.78
954.06	226.76
954.36	226.76
954.66	226.76
954.95	226.81
955.25	226.85
955.55	226.86
955.84	226.85
956.14	226.89
956.44	226.92
956.73	226.93
957.03	226.96
957.32	226.97
957.62	226.94
957.92	226.95
958.21	226.93
958.51	227.06
958.81	227.11
959.10	227.10
959.40	227.12
959.69	227.15
959.99	227.15
960.29	227.15
960.58	227.13
960.88	227.16
961.17	227.15
961.47	227.16
961.76	227.13
962.06	227.16
962.36	227.14
962.65	227.15
962.95	227.14
963.24	227.13
963.54	227.13
963.83	227.12
964.13	227.12
964.42	227.09
964.72	227.00
965.01	226.96
965.31	226.96
965.60	226.96
965.90	226.98
966.19	226.97
966.49	226.96
966.78	226.99
967.08	226.97
967.37	226.97
967.67	226.93
967.96	226.94
968.26	226.92
968.55	226.90
968.85	226.86
969.14	226.85
969.43	226.83
969.73	226.82
970.02	226.82
970.32	226.81
970.61	226.80
970.91	226.79
971.20	226.77
971.49	226.75
971.79	226.77
972.08	226.69
972.38	226.69
972.67	226.69
972.96	226.71
973.26	226.70
973.55	226.73
973.85	226.76
974.14	226.79
974.43	226.77
974.73	226.80
975.02	226.80
975.31	226.80
975.61	226.81
975.90	226.82
976.19	226.81
976.49	226.83
976.78	226.86
977.07	226.86
977.37	226.87
977.66	226.89
977.95	226.86
978.24	226.85
978.54	226.86
978.83	226.87
979.12	226.84
979.42	226.81
979.71	226.78
980.00	226.74
980.29	226.74
980.59	226.75
980.88	226.78
981.17	226.77
981.46	226.76
981.76	226.73
982.05	226.73
982.34	226.77
982.63	226.75
982.93	226.74
983.22	226.74
983.51	226.76
983.80	226.78
984.09	226.78
984.39	226.78
984.68	226.77
984.97	226.80
985.26	226.77
985.55	226.78
985.85	226.80
986.14	226.83
986.43	226.85
986.72	226.82
987.01	226.78
987.30	226.80
987.59	226.82
987.89	226.87
988.18	226.88
988.47	226.85
988.76	226.85
989.05	226.84
989.34	226.83
989.63	226.86
989.92	226.86
990.22	226.88
990.51	226.88
990.80	226.87
991.09	226.88
991.38	226.90
991.67	226.87
991.96	226.83
992.25	226.86
992.54	226.81
992.83	226.84
993.12	226.83
993.41	226.84
993.70	226.86
993.99	226.86
994.28	226.87
994.58	226.90
994.87	226.89
995.16	226.89
995.45	226.88
995.74	226.85
996.03	226.83
996.32	226.84
996.61	226.91
996.90	226.92
997.19	226.89
997.48	226.91
997.77	226.90
998.06	226.91
998.34	226.89
998.63	226.90
998.92	226.88
999.21	226.90
999.50	226.88
999.79	226.85
1000.08	226.84
1000.37	226.83
1000.66	226.81
1000.95	226.84
1001.24	226.85
1001.53	226.89
1001.82	226.89
1002.11	226.90
1002.40	226.90
1002.68	226.88
1002.97	226.95
1003.26	226.95
1003.55	226.94
1003.84	226.96
1004.13	227.00
1004.42	226.98
1004.71	227.01
1004.99	227.04
1005.28	227.05
1005.57	227.04
1005.86	227.05
1006.15	227.04
1006.44	226.99
1006.72	226.99
1007.01	226.99
1007.30	227.01
1007.59	226.99
1007.88	226.98
1008.17	226.98
1008.45	226.96
1008.74	226.94
1009.03	226.90
1009.32	226.91
1009.60	226.88
1009.89	226.90
1010.18	226.84
1010.47	226.85
1010.76	226.83
1011.04	226.81
1011.33	226.83
1011.62	226.86
1011.91	226.83
1012.19	226.82
1012.48	226.86
1012.77	226.85
1013.05	226.87
1013.34	226.86
1013.63	226.85
1013.92	226.85
1014.20	226.83
1014.49	226.80
1014.78	226.81
1015.06	226.79
1015.35	226.79
1015.64	226.78
1015.92	226.78
1016.21	226.78
1016.50	226.80
1016.78	226.80
1017.07	226.81
1017.36	226.78
1017.64	226.79
1017.93	226.81
1018.22	226.83
1018.50	226.85
1018.79	226.85
1019.08	226.82
1019.36	226.83
1019.65	226.81
1019.93	226.85
1020.22	226.86
1020.51	226.92
1020.79	226.87
1021.08	226.99
1021.36	227.24
1021.65	226.72
1021.94	226.78
1022.22	226.99
1022.51	226.37
1022.79	227.35
1023.08	226.59
1023.36	227.81
1023.65	226.26
>>>>>End Processed Spectral Data<<<<<
