SpectraSuite Data File
++++++++++++++++++++++++++++++++++++
Date: Fri Feb 01 17:08:40 EST 2013
User: group
Dark Spectrum Present: No
Reference Spectrum Present: No
Number of Sampled Component Spectra: 1
Spectrometers: USB2E7196
Integration Time (usec): 35000 (USB2E7196)
Spectra Averaged: 100 (USB2E7196)
Boxcar Smoothing: 10 (USB2E7196)
Correct for Electrical Dark: No (USB2E7196)
Strobe/Lamp Enabled: No (USB2E7196)
Correct for Detector Non-linearity: No (USB2E7196)
Correct for Stray Light: No (USB2E7196)
Number of Pixels in Processed Spectrum: 2048
>>>>>Begin Processed Spectral Data<<<<<
339.09	0.00
339.48	213.44
339.86	214.56
340.24	216.82
340.63	217.51
341.01	220.54
341.39	220.12
341.78	222.06
342.16	222.87
342.54	222.95
342.93	211.79
343.31	222.50
343.69	223.07
344.07	223.55
344.46	223.97
344.84	224.34
345.22	224.56
345.60	224.81
345.99	224.95
346.37	225.06
346.75	225.20
347.13	225.24
347.52	225.30
347.90	225.32
348.28	225.32
348.66	225.37
349.05	225.37
349.43	225.41
349.81	225.46
350.19	225.49
350.57	225.53
350.96	225.62
351.34	225.70
351.72	225.74
352.10	225.81
352.48	225.84
352.87	225.87
353.25	225.90
353.63	225.96
354.01	226.02
354.39	226.10
354.77	226.14
355.15	226.23
355.54	226.28
355.92	226.31
356.30	226.41
356.68	226.55
357.06	226.60
357.44	226.64
357.82	226.69
358.20	226.80
358.58	226.85
358.97	226.89
359.35	226.96
359.73	227.06
360.11	227.10
360.49	227.14
360.87	227.22
361.25	227.31
361.63	227.39
362.01	227.46
362.39	227.51
362.77	227.57
363.15	227.62
363.53	227.64
363.91	227.66
364.29	227.67
364.67	227.61
365.05	227.65
365.43	227.66
365.81	227.70
366.19	227.72
366.57	227.76
366.95	227.77
367.33	227.73
367.71	227.71
368.09	227.73
368.47	227.75
368.85	227.75
369.23	227.75
369.61	227.70
369.99	227.70
370.37	227.65
370.75	227.68
371.13	227.59
371.51	227.57
371.89	227.58
372.27	227.60
372.65	227.54
373.03	227.50
373.41	227.48
373.78	227.45
374.16	227.34
374.54	227.27
374.92	227.20
375.30	227.16
375.68	227.09
376.06	227.02
376.44	226.96
376.82	226.92
377.19	226.86
377.57	226.79
377.95	226.70
378.33	226.64
378.71	226.52
379.09	226.48
379.47	226.43
379.84	226.35
380.22	226.24
380.60	226.15
380.98	226.04
381.36	225.98
381.73	225.88
382.11	225.85
382.49	225.81
382.87	225.74
383.25	225.70
383.62	225.76
384.00	225.72
384.38	225.65
384.76	225.57
385.13	225.55
385.51	225.51
385.89	225.43
386.27	225.37
386.64	225.33
387.02	225.30
387.40	225.27
387.78	225.21
388.15	225.15
388.53	225.16
388.91	225.13
389.29	225.09
389.66	225.08
390.04	225.03
390.42	225.03
390.79	224.97
391.17	224.92
391.55	224.79
391.92	224.78
392.30	224.77
392.68	224.77
393.05	224.78
393.43	224.78
393.81	224.79
394.18	224.79
394.56	224.79
394.94	224.84
395.31	224.82
395.69	224.86
396.06	224.89
396.44	224.89
396.82	224.94
397.19	224.99
397.57	225.03
397.95	225.09
398.32	225.07
398.70	225.15
399.07	225.25
399.45	225.27
399.82	225.28
400.20	225.35
400.58	225.40
400.95	225.40
401.33	225.47
401.70	225.64
402.08	225.73
402.45	225.83
402.83	225.92
403.20	226.04
403.58	226.14
403.95	226.30
404.33	226.45
404.71	226.58
405.08	226.74
405.46	226.86
405.83	227.02
406.21	227.20
406.58	227.37
406.96	227.52
407.33	227.73
407.70	227.94
408.08	228.20
408.45	228.39
408.83	228.64
409.20	228.87
409.58	229.00
409.95	229.25
410.33	229.51
410.70	229.73
411.08	230.03
411.45	230.32
411.82	230.61
412.20	230.96
412.57	231.35
412.95	231.68
413.32	232.12
413.69	232.50
414.07	232.92
414.44	233.36
414.82	233.85
415.19	234.43
415.56	234.97
415.94	235.48
416.31	236.14
416.68	236.74
417.06	237.44
417.43	238.14
417.81	238.90
418.18	239.67
418.55	240.51
418.93	241.33
419.30	242.24
419.67	243.18
420.04	244.11
420.42	245.09
420.79	246.25
421.16	247.35
421.54	248.55
421.91	249.77
422.28	250.99
422.66	252.29
423.03	253.54
423.40	254.86
423.77	256.28
424.15	257.70
424.52	259.19
424.89	260.82
425.26	262.36
425.64	263.81
426.01	265.40
426.38	267.04
426.75	268.70
427.13	270.40
427.50	272.16
427.87	274.03
428.24	275.90
428.61	277.62
428.99	279.58
429.36	281.69
429.73	283.71
430.10	285.73
430.47	287.79
430.85	289.90
431.22	292.13
431.59	294.47
431.96	296.70
432.33	299.15
432.70	301.50
433.08	304.31
433.45	306.92
433.82	309.46
434.19	312.31
434.56	315.15
434.93	317.79
435.30	320.45
435.68	323.34
436.05	326.14
436.42	328.90
436.79	331.38
437.16	334.03
437.53	336.83
437.90	339.63
438.27	342.34
438.64	345.12
439.01	347.72
439.38	349.95
439.75	352.07
440.13	354.58
440.50	356.89
440.87	358.72
441.24	360.65
441.61	362.79
441.98	364.27
442.35	366.02
442.72	367.89
443.09	369.66
443.46	370.63
443.83	371.19
444.20	371.73
444.57	372.57
444.94	372.84
445.31	373.19
445.68	373.52
446.05	373.59
446.42	373.24
446.79	372.78
447.16	372.34
447.53	372.03
447.90	370.85
448.27	369.70
448.64	368.10
449.01	367.04
449.37	365.11
449.74	363.27
450.11	361.08
450.48	358.60
450.85	356.07
451.22	353.94
451.59	351.93
451.96	349.98
452.33	347.38
452.70	345.03
453.07	342.25
453.43	339.43
453.80	336.71
454.17	334.05
454.54	331.52
454.91	328.85
455.28	326.22
455.65	323.76
456.02	321.33
456.38	319.18
456.75	316.50
457.12	314.28
457.49	312.07
457.86	309.92
458.23	308.14
458.59	306.15
458.96	304.06
459.33	302.25
459.70	300.44
460.07	298.97
460.43	297.29
460.80	295.70
461.17	294.25
461.54	292.77
461.91	291.35
462.27	289.94
462.64	288.68
463.01	287.36
463.38	286.11
463.74	284.77
464.11	283.66
464.48	282.67
464.85	281.62
465.21	280.75
465.58	279.82
465.95	278.72
466.32	277.78
466.68	276.91
467.05	275.99
467.42	275.16
467.78	274.26
468.15	273.39
468.52	272.74
468.88	271.88
469.25	271.15
469.62	270.52
469.98	269.89
470.35	269.28
470.72	268.71
471.08	268.08
471.45	267.53
471.82	267.01
472.18	266.37
472.55	265.91
472.92	265.41
473.28	264.94
473.65	264.50
474.02	264.10
474.38	263.72
474.75	263.44
475.11	263.11
475.48	262.83
475.85	262.61
476.21	262.36
476.58	262.21
476.94	262.04
477.31	261.88
477.67	261.74
478.04	261.67
478.41	261.59
478.77	261.63
479.14	261.59
479.50	261.58
479.87	261.70
480.23	261.76
480.60	261.82
480.96	261.98
481.33	262.17
481.69	262.37
482.06	262.57
482.42	262.77
482.79	262.99
483.15	263.32
483.52	263.68
483.88	264.04
484.25	264.44
484.61	264.84
484.98	265.29
485.34	265.87
485.71	266.44
486.07	267.03
486.44	267.60
486.80	268.31
487.17	269.05
487.53	269.81
487.90	270.68
488.26	271.60
488.62	272.54
488.99	273.51
489.35	274.55
489.72	275.66
490.08	276.84
490.44	278.02
490.81	279.34
491.17	280.69
491.54	282.17
491.90	283.67
492.26	285.35
492.63	287.06
492.99	288.78
493.36	290.64
493.72	292.66
494.08	294.78
494.45	297.02
494.81	299.38
495.17	301.86
495.54	304.42
495.90	307.11
496.26	309.93
496.63	312.90
496.99	316.00
497.35	319.23
497.72	322.64
498.08	326.18
498.44	329.84
498.80	333.74
499.17	337.78
499.53	341.96
499.89	346.31
500.26	350.83
500.62	355.50
500.98	360.46
501.34	365.51
501.71	370.82
502.07	376.17
502.43	381.77
502.79	387.51
503.16	393.54
503.52	399.78
503.88	406.13
504.24	412.72
504.60	419.54
504.97	426.67
505.33	433.95
505.69	441.60
506.05	449.29
506.41	457.05
506.78	465.08
507.14	473.41
507.50	482.01
507.86	490.91
508.22	500.03
508.59	509.14
508.95	518.61
509.31	528.24
509.67	538.27
510.03	548.44
510.39	558.88
510.75	569.51
511.12	580.26
511.48	591.40
511.84	602.71
512.20	613.98
512.56	625.74
512.92	637.62
513.28	649.77
513.64	662.08
514.00	674.61
514.37	687.36
514.73	700.23
515.09	713.02
515.45	726.04
515.81	739.42
516.17	753.14
516.53	766.94
516.89	780.86
517.25	794.72
517.61	808.88
517.97	823.13
518.33	837.26
518.69	851.76
519.05	866.36
519.41	881.24
519.77	896.49
520.13	911.60
520.49	926.73
520.85	941.82
521.21	957.14
521.57	973.09
521.93	988.46
522.29	1004.49
522.65	1020.39
523.01	1036.28
523.37	1051.89
523.73	1067.71
524.09	1083.46
524.45	1099.44
524.81	1115.72
525.17	1132.13
525.53	1148.50
525.89	1164.91
526.25	1181.37
526.61	1197.41
526.97	1213.72
527.33	1229.82
527.68	1246.05
528.04	1262.02
528.40	1278.13
528.76	1294.82
529.12	1311.01
529.48	1327.48
529.84	1343.01
530.20	1359.24
530.56	1375.79
530.91	1392.78
531.27	1409.11
531.63	1425.24
531.99	1441.40
532.35	1456.99
532.71	1472.58
533.07	1488.38
533.42	1504.05
533.78	1519.71
534.14	1535.55
534.50	1550.50
534.86	1566.09
535.21	1580.82
535.57	1596.42
535.93	1611.58
536.29	1626.01
536.65	1640.67
537.00	1655.22
537.36	1670.30
537.72	1684.49
538.08	1698.62
538.44	1711.98
538.79	1725.44
539.15	1738.67
539.51	1752.05
539.87	1766.02
540.22	1779.31
540.58	1792.77
540.94	1805.59
541.29	1818.02
541.65	1830.42
542.01	1843.17
542.37	1855.26
542.72	1867.37
543.08	1878.88
543.44	1890.98
543.79	1901.93
544.15	1912.58
544.51	1923.81
544.87	1934.38
545.22	1944.92
545.58	1955.00
545.94	1964.73
546.29	1974.46
546.65	1984.15
547.01	1993.16
547.36	2001.77
547.72	2010.04
548.07	2017.92
548.43	2026.02
548.79	2033.84
549.14	2041.32
549.50	2048.62
549.86	2056.04
550.21	2063.30
550.57	2070.49
550.92	2077.11
551.28	2084.07
551.64	2091.15
551.99	2097.57
552.35	2103.70
552.70	2109.86
553.06	2115.80
553.41	2121.95
553.77	2127.86
554.13	2133.96
554.48	2140.07
554.84	2145.63
555.19	2150.90
555.55	2156.09
555.90	2160.62
556.26	2165.79
556.61	2170.48
556.97	2175.06
557.32	2179.20
557.68	2183.39
558.03	2187.59
558.39	2191.22
558.74	2195.90
559.10	2199.84
559.45	2203.53
559.81	2207.75
560.16	2211.70
560.52	2215.03
560.87	2218.45
561.23	2221.25
561.58	2224.20
561.94	2226.90
562.29	2229.14
562.64	2232.09
563.00	2234.67
563.35	2238.30
563.71	2241.44
564.06	2244.70
564.42	2247.48
564.77	2250.30
565.12	2252.89
565.48	2255.01
565.83	2257.09
566.19	2258.62
566.54	2259.59
566.89	2260.91
567.25	2261.89
567.60	2263.27
567.96	2265.16
568.31	2266.31
568.66	2267.60
569.02	2268.38
569.37	2268.84
569.72	2270.09
570.08	2270.31
570.43	2270.38
570.78	2270.06
571.14	2268.71
571.49	2267.43
571.84	2267.29
572.20	2266.23
572.55	2265.10
572.90	2263.59
573.26	2262.40
573.61	2260.72
573.96	2259.24
574.31	2256.59
574.67	2253.82
575.02	2250.36
575.37	2246.96
575.72	2243.56
576.08	2240.46
576.43	2237.32
576.78	2234.00
577.13	2230.85
577.49	2227.86
577.84	2224.79
578.19	2221.23
578.54	2217.89
578.90	2214.14
579.25	2208.87
579.60	2204.22
579.95	2199.50
580.30	2194.93
580.66	2190.04
581.01	2185.43
581.36	2180.71
581.71	2176.83
582.06	2172.62
582.42	2168.54
582.77	2163.64
583.12	2159.15
583.47	2154.82
583.82	2150.23
584.17	2145.23
584.53	2140.06
584.88	2134.76
585.23	2129.25
585.58	2124.06
585.93	2118.84
586.28	2114.13
586.63	2109.27
586.98	2104.54
587.34	2100.00
587.69	2095.30
588.04	2090.40
588.39	2084.93
588.74	2078.66
589.09	2072.62
589.44	2066.08
589.79	2060.03
590.14	2054.58
590.49	2048.22
590.84	2041.82
591.19	2035.91
591.54	2029.59
591.89	2022.47
592.25	2015.89
592.60	2008.95
592.95	2001.59
593.30	1994.43
593.65	1987.27
594.00	1980.35
594.35	1973.13
594.70	1965.30
595.05	1958.41
595.40	1951.10
595.75	1943.77
596.10	1937.86
596.45	1931.43
596.80	1925.50
597.15	1919.26
597.50	1912.43
597.85	1906.05
598.19	1899.69
598.54	1892.90
598.89	1886.46
599.24	1880.66
599.59	1874.25
599.94	1868.10
600.29	1861.94
600.64	1855.41
600.99	1848.28
601.34	1841.75
601.69	1834.97
602.04	1828.34
602.39	1820.97
602.74	1814.33
603.08	1807.87
603.43	1801.21
603.78	1794.02
604.13	1786.90
604.48	1779.89
604.83	1773.07
605.18	1766.53
605.53	1758.76
605.87	1750.78
606.22	1743.56
606.57	1735.67
606.92	1728.37
607.27	1721.31
607.62	1714.46
607.96	1707.45
608.31	1700.86
608.66	1693.32
609.01	1685.97
609.36	1678.60
609.70	1670.75
610.05	1662.87
610.40	1655.31
610.75	1647.07
611.10	1639.43
611.44	1631.05
611.79	1622.95
612.14	1614.50
612.49	1605.13
612.83	1596.68
613.18	1588.66
613.53	1580.72
613.88	1572.38
614.22	1564.09
614.57	1555.57
614.92	1547.60
615.27	1540.10
615.61	1531.80
615.96	1523.82
616.31	1516.10
616.65	1508.85
617.00	1501.43
617.35	1493.81
617.70	1485.56
618.04	1477.21
618.39	1469.02
618.74	1461.51
619.08	1453.27
619.43	1445.62
619.78	1438.81
620.12	1431.77
620.47	1424.16
620.82	1415.97
621.16	1408.52
621.51	1401.00
621.85	1393.36
622.20	1384.86
622.55	1376.50
622.89	1368.65
623.24	1361.07
623.59	1353.64
623.93	1346.03
624.28	1338.68
624.62	1331.19
624.97	1324.04
625.32	1317.18
625.66	1310.13
626.01	1302.99
626.35	1295.66
626.70	1287.99
627.04	1280.43
627.39	1272.64
627.73	1265.39
628.08	1258.48
628.43	1251.34
628.77	1244.08
629.12	1236.65
629.46	1229.63
629.81	1222.27
630.15	1215.09
630.50	1207.78
630.84	1199.78
631.19	1191.88
631.53	1184.42
631.88	1176.86
632.22	1169.25
632.57	1162.05
632.91	1154.59
633.26	1147.25
633.60	1139.83
633.95	1132.71
634.29	1125.70
634.64	1119.01
634.98	1111.77
635.32	1104.71
635.67	1098.04
636.01	1091.47
636.36	1084.65
636.70	1078.04
637.05	1071.47
637.39	1065.05
637.73	1058.64
638.08	1052.73
638.42	1046.69
638.77	1040.35
639.11	1033.87
639.45	1027.60
639.80	1020.92
640.14	1014.68
640.49	1008.24
640.83	1002.05
641.17	995.97
641.52	989.64
641.86	983.19
642.20	977.23
642.55	970.96
642.89	964.70
643.23	958.12
643.58	952.47
643.92	946.42
644.26	940.51
644.61	934.38
644.95	928.30
645.29	921.75
645.64	915.14
645.98	908.86
646.32	902.97
646.66	896.90
647.01	891.25
647.35	885.47
647.69	879.57
648.04	874.02
648.38	868.28
648.72	862.36
649.06	856.42
649.41	850.59
649.75	844.77
650.09	838.83
650.43	833.11
650.78	826.94
651.12	820.98
651.46	815.23
651.80	809.64
652.14	804.31
652.49	798.99
652.83	793.87
653.17	788.31
653.51	782.70
653.85	777.31
654.20	771.70
654.54	765.78
654.88	760.03
655.22	754.20
655.56	748.43
655.90	742.95
656.25	737.75
656.59	732.43
656.93	727.32
657.27	722.13
657.61	716.68
657.95	711.63
658.29	706.57
658.64	701.24
658.98	695.96
659.32	690.52
659.66	685.37
660.00	680.03
660.34	675.00
660.68	670.06
661.02	665.10
661.36	660.38
661.70	655.90
662.05	651.67
662.39	647.33
662.73	642.91
663.07	638.66
663.41	634.26
663.75	629.75
664.09	625.18
664.43	620.75
664.77	616.74
665.11	612.52
665.45	608.35
665.79	604.40
666.13	600.26
666.47	596.14
666.81	592.02
667.15	587.96
667.49	584.07
667.83	580.22
668.17	576.25
668.51	572.18
668.85	568.16
669.19	564.24
669.53	560.48
669.87	556.70
670.21	552.89
670.55	549.25
670.89	545.93
671.23	542.54
671.57	539.10
671.91	535.54
672.25	531.99
672.58	528.53
672.92	525.09
673.26	521.87
673.60	518.74
673.94	515.68
674.28	512.77
674.62	509.91
674.96	506.87
675.30	504.01
675.64	501.06
675.97	498.26
676.31	495.45
676.65	492.52
676.99	489.78
677.33	486.99
677.67	484.17
678.01	481.19
678.34	478.19
678.68	475.34
679.02	472.56
679.36	469.83
679.70	467.09
680.04	464.39
680.37	461.63
680.71	458.84
681.05	456.18
681.39	453.46
681.73	450.76
682.06	448.31
682.40	445.81
682.74	443.39
683.08	440.82
683.42	438.25
683.75	435.79
684.09	433.22
684.43	430.79
684.77	428.34
685.10	425.94
685.44	423.65
685.78	421.38
686.12	419.11
686.45	416.85
686.79	414.56
687.13	412.39
687.46	410.23
687.80	408.08
688.14	405.84
688.48	403.77
688.81	401.58
689.15	399.41
689.49	397.19
689.82	395.08
690.16	393.06
690.50	391.11
690.83	389.19
691.17	387.24
691.51	385.31
691.84	383.48
692.18	381.61
692.52	379.63
692.85	377.65
693.19	375.77
693.52	373.93
693.86	372.16
694.20	370.33
694.53	368.54
694.87	366.67
695.21	364.90
695.54	363.12
695.88	361.36
696.21	359.59
696.55	357.96
696.88	356.24
697.22	354.52
697.56	352.89
697.89	351.21
698.23	349.62
698.56	348.01
698.90	346.43
699.23	344.77
699.57	343.24
699.90	341.73
700.24	340.16
700.58	338.66
700.91	337.19
701.25	335.72
701.58	334.33
701.92	332.98
702.25	331.62
702.59	330.24
702.92	328.93
703.26	327.63
703.59	326.34
703.93	325.16
704.26	323.95
704.60	322.64
704.93	321.33
705.26	320.06
705.60	318.82
705.93	317.65
706.27	316.58
706.60	315.52
706.94	314.47
707.27	313.40
707.61	312.32
707.94	311.25
708.27	310.14
708.61	309.04
708.94	308.02
709.28	307.08
709.61	306.12
709.94	305.20
710.28	304.20
710.61	303.19
710.95	302.13
711.28	301.19
711.61	300.24
711.95	299.35
712.28	298.40
712.61	297.47
712.95	296.54
713.28	295.67
713.61	294.75
713.95	293.86
714.28	293.00
714.61	292.17
714.95	291.32
715.28	290.51
715.61	289.66
715.95	288.81
716.28	287.92
716.61	287.09
716.95	286.20
717.28	285.44
717.61	284.68
717.94	283.94
718.28	283.17
718.61	282.47
718.94	281.75
719.27	281.10
719.61	280.48
719.94	279.80
720.27	279.07
720.60	278.42
720.94	277.77
721.27	277.17
721.60	276.59
721.93	275.99
722.27	275.44
722.60	274.92
722.93	274.39
723.26	273.88
723.59	273.33
723.93	272.85
724.26	272.29
724.59	271.73
724.92	271.19
725.25	270.68
725.59	270.14
725.92	269.67
726.25	269.14
726.58	268.64
726.91	268.19
727.24	267.74
727.57	267.26
727.91	266.76
728.24	266.30
728.57	265.79
728.90	265.33
729.23	264.82
729.56	264.36
729.89	263.85
730.22	263.33
730.55	262.86
730.89	262.38
731.22	261.94
731.55	261.53
731.88	261.08
732.21	260.62
732.54	260.22
732.87	259.75
733.20	259.34
733.53	258.97
733.86	258.56
734.19	258.15
734.52	257.80
734.85	257.50
735.18	257.03
735.51	256.68
735.84	256.32
736.17	256.01
736.50	255.61
736.83	255.39
737.16	255.04
737.49	254.70
737.82	254.35
738.15	254.03
738.48	253.69
738.81	253.41
739.14	253.12
739.47	252.78
739.80	252.50
740.13	252.20
740.46	251.82
740.79	251.49
741.12	251.19
741.45	250.86
741.78	250.51
742.11	250.28
742.44	249.96
742.77	249.67
743.10	249.36
743.43	249.05
743.75	248.68
744.08	248.56
744.41	248.29
744.74	248.04
745.07	247.75
745.40	247.51
745.73	247.28
746.06	247.00
746.39	246.79
746.71	246.52
747.04	246.28
747.37	246.07
747.70	245.82
748.03	245.58
748.36	245.36
748.68	245.10
749.01	244.82
749.34	244.57
749.67	244.33
750.00	244.09
750.33	243.96
750.65	243.73
750.98	243.37
751.31	243.14
751.64	242.91
751.97	242.75
752.29	242.53
752.62	242.23
752.95	242.01
753.28	241.76
753.60	241.52
753.93	241.33
754.26	241.13
754.59	240.90
754.91	240.69
755.24	240.48
755.57	240.29
755.90	240.12
756.22	239.93
756.55	239.77
756.88	239.56
757.20	239.33
757.53	239.18
757.86	239.03
758.19	238.86
758.51	238.68
758.84	238.49
759.17	238.32
759.49	238.20
759.82	238.11
760.15	237.93
760.47	237.80
760.80	237.65
761.13	237.49
761.45	237.36
761.78	237.21
762.11	237.08
762.43	236.91
762.76	236.77
763.08	236.63
763.41	236.50
763.74	236.36
764.06	236.23
764.39	236.05
764.71	235.89
765.04	235.77
765.37	235.64
765.69	235.49
766.02	235.37
766.34	235.24
766.67	235.08
767.00	235.03
767.32	235.00
767.65	234.90
767.97	234.78
768.30	234.66
768.62	234.55
768.95	234.40
769.27	234.32
769.60	234.23
769.92	234.15
770.25	234.00
770.57	233.89
770.90	233.78
771.22	233.68
771.55	233.60
771.87	233.51
772.20	233.42
772.52	233.46
772.85	233.47
773.17	233.35
773.50	233.24
773.82	233.10
774.15	232.94
774.47	232.80
774.80	232.72
775.12	232.65
775.45	232.57
775.77	232.54
776.09	232.42
776.42	232.31
776.74	232.27
777.07	232.20
777.39	232.17
777.72	232.09
778.04	232.04
778.36	231.98
778.69	231.90
779.01	231.82
779.33	231.65
779.66	231.48
779.98	231.42
780.31	231.36
780.63	231.35
780.95	231.32
781.28	231.27
781.60	231.19
781.92	231.10
782.25	231.05
782.57	230.94
782.89	230.90
783.22	230.84
783.54	230.70
783.86	230.67
784.19	230.56
784.51	230.54
784.83	230.45
785.16	230.35
785.48	230.27
785.80	230.23
786.12	230.17
786.45	230.12
786.77	230.12
787.09	230.07
787.42	229.99
787.74	229.91
788.06	229.86
788.38	229.80
788.71	229.77
789.03	229.69
789.35	229.69
789.67	229.66
789.99	229.64
790.32	229.61
790.64	229.55
790.96	229.58
791.28	229.53
791.61	229.48
791.93	229.47
792.25	229.43
792.57	229.45
792.89	229.39
793.21	229.33
793.54	229.23
793.86	229.16
794.18	229.13
794.50	229.07
794.82	229.02
795.14	229.00
795.47	228.99
795.79	228.95
796.11	228.89
796.43	228.82
796.75	228.76
797.07	228.75
797.39	228.75
797.71	228.67
798.04	228.61
798.36	228.61
798.68	228.56
799.00	228.54
799.32	228.46
799.64	228.46
799.96	228.41
800.28	228.40
800.60	228.39
800.92	228.34
801.24	228.32
801.56	228.29
801.89	228.27
802.21	228.23
802.53	228.20
802.85	228.20
803.17	228.22
803.49	228.21
803.81	228.20
804.13	228.15
804.45	228.12
804.77	228.14
805.09	228.11
805.41	228.08
805.73	228.06
806.05	228.05
806.37	227.99
806.69	227.99
807.01	227.96
807.33	227.95
807.65	227.92
807.97	227.94
808.28	227.91
808.60	227.88
808.92	227.86
809.24	227.89
809.56	227.82
809.88	227.79
810.20	227.78
810.52	227.75
810.84	227.73
811.16	227.69
811.48	227.64
811.80	227.64
812.12	227.59
812.43	227.57
812.75	227.53
813.07	227.53
813.39	227.52
813.71	227.49
814.03	227.46
814.35	227.44
814.67	227.39
814.98	227.37
815.30	227.34
815.62	227.29
815.94	227.24
816.26	227.29
816.58	227.26
816.89	227.22
817.21	227.19
817.53	227.19
817.85	227.22
818.17	227.22
818.48	227.21
818.80	227.27
819.12	227.26
819.44	227.23
819.76	227.21
820.07	227.22
820.39	227.21
820.71	227.19
821.03	227.17
821.34	227.17
821.66	227.19
821.98	227.20
822.30	227.18
822.61	227.24
822.93	227.17
823.25	227.15
823.57	227.14
823.88	227.15
824.20	227.10
824.52	227.08
824.83	227.06
825.15	227.02
825.47	227.00
825.79	226.98
826.10	226.94
826.42	226.93
826.74	226.94
827.05	226.94
827.37	226.96
827.69	226.93
828.00	226.89
828.32	226.87
828.64	226.82
828.95	226.87
829.27	226.78
829.58	226.76
829.90	226.77
830.22	226.73
830.53	226.68
830.85	226.63
831.17	226.57
831.48	226.56
831.80	226.51
832.11	226.50
832.43	226.47
832.75	226.48
833.06	226.50
833.38	226.43
833.69	226.42
834.01	226.40
834.32	226.40
834.64	226.41
834.96	226.38
835.27	226.34
835.59	226.31
835.90	226.29
836.22	226.26
836.53	226.22
836.85	226.21
837.16	226.29
837.48	226.32
837.79	226.34
838.11	226.31
838.42	226.35
838.74	226.30
839.05	226.26
839.37	226.24
839.68	226.18
840.00	226.17
840.31	226.14
840.63	226.09
840.94	226.09
841.26	226.04
841.57	226.04
841.88	226.09
842.20	226.06
842.51	226.05
842.83	226.02
843.14	226.09
843.46	226.07
843.77	226.03
844.08	226.01
844.40	225.97
844.71	225.99
845.03	225.97
845.34	225.96
845.65	225.98
845.97	225.96
846.28	225.93
846.60	225.94
846.91	225.93
847.22	225.94
847.54	225.92
847.85	225.92
848.16	225.91
848.48	225.88
848.79	225.91
849.10	225.93
849.42	225.99
849.73	225.92
850.04	225.92
850.36	225.85
850.67	225.90
850.98	225.92
851.30	225.91
851.61	225.91
851.92	225.94
852.23	225.98
852.55	226.00
852.86	226.03
853.17	226.01
853.49	226.05
853.80	226.09
854.11	226.14
854.42	226.13
854.74	226.12
855.05	226.14
855.36	226.11
855.67	226.10
855.99	226.09
856.30	226.19
856.61	226.20
856.92	226.22
857.23	226.18
857.55	226.14
857.86	226.15
858.17	226.15
858.48	226.13
858.79	226.09
859.11	226.10
859.42	226.07
859.73	226.08
860.04	226.07
860.35	226.02
860.66	225.95
860.98	225.94
861.29	225.96
861.60	225.94
861.91	225.95
862.22	225.92
862.53	225.94
862.84	225.85
863.16	225.84
863.47	225.85
863.78	225.87
864.09	225.89
864.40	225.89
864.71	225.89
865.02	225.90
865.33	225.91
865.64	225.90
865.95	225.91
866.27	225.99
866.58	225.98
866.89	226.02
867.20	226.04
867.51	226.05
867.82	226.04
868.13	226.07
868.44	226.04
868.75	226.04
869.06	226.03
869.37	226.01
869.68	226.00
869.99	226.00
870.30	226.01
870.61	226.02
870.92	226.02
871.23	226.01
871.54	226.01
871.85	226.04
872.16	226.02
872.47	226.02
872.78	225.93
873.09	225.91
873.40	225.86
873.71	225.86
874.02	225.87
874.33	225.85
874.64	225.82
874.95	225.83
875.26	225.82
875.56	225.78
875.87	225.77
876.18	225.74
876.49	225.81
876.80	225.81
877.11	225.73
877.42	225.66
877.73	225.61
878.04	225.57
878.35	225.50
878.66	225.50
878.96	225.48
879.27	225.43
879.58	225.41
879.89	225.41
880.20	225.42
880.51	225.39
880.82	225.39
881.12	225.41
881.43	225.41
881.74	225.41
882.05	225.41
882.36	225.41
882.67	225.43
882.97	225.31
883.28	225.28
883.59	225.28
883.90	225.32
884.21	225.38
884.51	225.39
884.82	225.41
885.13	225.40
885.44	225.40
885.74	225.45
886.05	225.46
886.36	225.42
886.67	225.43
886.98	225.48
887.28	225.50
887.59	225.49
887.90	225.49
888.20	225.45
888.51	225.45
888.82	225.44
889.13	225.44
889.43	225.52
889.74	225.52
890.05	225.54
890.35	225.54
890.66	225.53
890.97	225.51
891.28	225.50
891.58	225.51
891.89	225.53
892.20	225.51
892.50	225.54
892.81	225.58
893.12	225.57
893.42	225.54
893.73	225.52
894.04	225.53
894.34	225.54
894.65	225.57
894.95	225.60
895.26	225.63
895.57	225.67
895.87	225.61
896.18	225.62
896.48	225.66
896.79	225.68
897.10	225.70
897.40	225.70
897.71	225.71
898.01	225.74
898.32	225.75
898.63	225.77
898.93	225.77
899.24	225.75
899.54	225.74
899.85	225.74
900.15	225.74
900.46	225.71
900.76	225.72
901.07	225.72
901.38	225.71
901.68	225.73
901.99	225.68
902.29	225.72
902.60	225.71
902.90	225.67
903.21	225.65
903.51	225.64
903.82	225.68
904.12	225.70
904.43	225.67
904.73	225.65
905.03	225.63
905.34	225.71
905.64	225.73
905.95	225.74
906.25	225.71
906.56	225.72
906.86	225.71
907.17	225.67
907.47	225.68
907.77	225.64
908.08	225.63
908.38	225.63
908.69	225.58
908.99	225.61
909.30	225.67
909.60	225.70
909.90	225.68
910.21	225.63
910.51	225.63
910.81	225.62
911.12	225.63
911.42	225.65
911.73	225.56
912.03	225.53
912.33	225.56
912.64	225.59
912.94	225.56
913.24	225.57
913.55	225.58
913.85	225.52
914.15	225.57
914.46	225.55
914.76	225.56
915.06	225.56
915.37	225.53
915.67	225.45
915.97	225.37
916.27	225.37
916.58	225.36
916.88	225.31
917.18	225.31
917.49	225.38
917.79	225.40
918.09	225.39
918.39	225.41
918.70	225.32
919.00	225.31
919.30	225.35
919.60	225.31
919.91	225.28
920.21	225.34
920.51	225.26
920.81	225.24
921.12	225.21
921.42	225.18
921.72	225.17
922.02	225.21
922.32	225.24
922.63	225.22
922.93	225.26
923.23	225.29
923.53	225.28
923.83	225.20
924.13	225.15
924.44	225.14
924.74	225.19
925.04	225.26
925.34	225.23
925.64	225.21
925.94	225.23
926.24	225.27
926.55	225.21
926.85	225.27
927.15	225.28
927.45	225.33
927.75	225.33
928.05	225.37
928.35	225.38
928.65	225.43
928.95	225.46
929.26	225.45
929.56	225.47
929.86	225.52
930.16	225.50
930.46	225.53
930.76	225.55
931.06	225.47
931.36	225.46
931.66	225.50
931.96	225.48
932.26	225.50
932.56	225.50
932.86	225.55
933.16	225.54
933.46	225.53
933.76	225.51
934.06	225.58
934.36	225.60
934.66	225.59
934.96	225.57
935.26	225.56
935.56	225.61
935.86	225.59
936.16	225.53
936.46	225.54
936.76	225.51
937.06	225.52
937.36	225.57
937.66	225.57
937.96	225.59
938.26	225.62
938.56	225.60
938.86	225.61
939.16	225.66
939.46	225.70
939.76	225.71
940.06	225.71
940.35	225.68
940.65	225.64
940.95	225.66
941.25	225.63
941.55	225.63
941.85	225.60
942.15	225.59
942.45	225.64
942.75	225.64
943.04	225.65
943.34	225.65
943.64	225.60
943.94	225.56
944.24	225.53
944.54	225.51
944.84	225.50
945.13	225.50
945.43	225.46
945.73	225.43
946.03	225.39
946.33	225.39
946.62	225.38
946.92	225.37
947.22	225.36
947.52	225.35
947.82	225.35
948.11	225.30
948.41	225.27
948.71	225.24
949.01	225.24
949.31	225.25
949.60	225.22
949.90	225.23
950.20	225.23
950.50	225.22
950.79	225.22
951.09	225.21
951.39	225.16
951.69	225.11
951.98	225.09
952.28	225.10
952.58	225.06
952.87	225.05
953.17	225.04
953.47	225.00
953.76	224.99
954.06	224.97
954.36	224.96
954.66	224.96
954.95	224.97
955.25	224.99
955.55	225.00
955.84	224.99
956.14	225.01
956.44	225.01
956.73	224.99
957.03	224.98
957.32	224.99
957.62	224.99
957.92	225.02
958.21	225.03
958.51	225.14
958.81	225.17
959.10	225.17
959.40	225.21
959.69	225.24
959.99	225.24
960.29	225.24
960.58	225.25
960.88	225.31
961.17	225.30
961.47	225.29
961.76	225.27
962.06	225.32
962.36	225.32
962.65	225.34
962.95	225.32
963.24	225.32
963.54	225.34
963.83	225.36
964.13	225.37
964.42	225.34
964.72	225.27
965.01	225.28
965.31	225.31
965.60	225.25
965.90	225.28
966.19	225.28
966.49	225.28
966.78	225.28
967.08	225.29
967.37	225.31
967.67	225.31
967.96	225.31
968.26	225.29
968.55	225.32
968.85	225.31
969.14	225.32
969.43	225.34
969.73	225.37
970.02	225.38
970.32	225.36
970.61	225.38
970.91	225.38
971.20	225.40
971.49	225.38
971.79	225.42
972.08	225.39
972.38	225.41
972.67	225.41
972.96	225.45
973.26	225.41
973.55	225.45
973.85	225.46
974.14	225.46
974.43	225.47
974.73	225.43
975.02	225.46
975.31	225.48
975.61	225.48
975.90	225.47
976.19	225.46
976.49	225.50
976.78	225.55
977.07	225.53
977.37	225.51
977.66	225.53
977.95	225.51
978.24	225.50
978.54	225.53
978.83	225.51
979.12	225.49
979.42	225.51
979.71	225.48
980.00	225.48
980.29	225.48
980.59	225.47
980.88	225.50
981.17	225.49
981.46	225.51
981.76	225.52
982.05	225.52
982.34	225.50
982.63	225.48
982.93	225.45
983.22	225.44
983.51	225.44
983.80	225.43
984.09	225.48
984.39	225.46
984.68	225.41
984.97	225.42
985.26	225.39
985.55	225.36
985.85	225.37
986.14	225.36
986.43	225.33
986.72	225.32
987.01	225.26
987.30	225.25
987.59	225.21
987.89	225.18
988.18	225.15
988.47	225.14
988.76	225.10
989.05	225.09
989.34	225.07
989.63	225.08
989.92	225.04
990.22	224.95
990.51	224.93
990.80	224.96
991.09	224.97
991.38	225.00
991.67	224.98
991.96	224.93
992.25	224.93
992.54	224.93
992.83	224.89
993.12	224.86
993.41	224.83
993.70	224.87
993.99	224.89
994.28	224.91
994.58	224.90
994.87	224.90
995.16	224.88
995.45	224.91
995.74	224.90
996.03	224.94
996.32	225.00
996.61	225.02
996.90	225.01
997.19	225.01
997.48	224.99
997.77	225.02
998.06	225.04
998.34	225.07
998.63	225.05
998.92	225.05
999.21	225.12
999.50	225.13
999.79	225.09
1000.08	225.10
1000.37	225.11
1000.66	225.13
1000.95	225.16
1001.24	225.20
1001.53	225.21
1001.82	225.17
1002.11	225.15
1002.40	225.15
1002.68	225.17
1002.97	225.21
1003.26	225.18
1003.55	225.20
1003.84	225.17
1004.13	225.22
1004.42	225.20
1004.71	225.22
1004.99	225.25
1005.28	225.27
1005.57	225.28
1005.86	225.27
1006.15	225.25
1006.44	225.25
1006.72	225.27
1007.01	225.27
1007.30	225.26
1007.59	225.23
1007.88	225.28
1008.17	225.27
1008.45	225.27
1008.74	225.21
1009.03	225.22
1009.32	225.26
1009.60	225.25
1009.89	225.28
1010.18	225.22
1010.47	225.22
1010.76	225.23
1011.04	225.23
1011.33	225.22
1011.62	225.23
1011.91	225.26
1012.19	225.28
1012.48	225.27
1012.77	225.25
1013.05	225.31
1013.34	225.29
1013.63	225.29
1013.92	225.26
1014.20	225.25
1014.49	225.23
1014.78	225.26
1015.06	225.19
1015.35	225.15
1015.64	225.17
1015.92	225.20
1016.21	225.20
1016.50	225.20
1016.78	225.20
1017.07	225.18
1017.36	225.15
1017.64	225.15
1017.93	225.16
1018.22	225.14
1018.50	225.12
1018.79	225.10
1019.08	225.03
1019.36	225.06
1019.65	225.05
1019.93	225.07
1020.22	225.09
1020.51	225.13
1020.79	225.12
1021.08	225.01
1021.36	224.67
1021.65	224.86
1021.94	225.10
1022.22	225.17
1022.51	224.86
1022.79	225.29
1023.08	225.32
1023.36	225.66
1023.65	224.89
>>>>>End Processed Spectral Data<<<<<
