SpectraSuite Data File
++++++++++++++++++++++++++++++++++++
Date: Fri Feb 01 15:09:05 EST 2013
User: group
Dark Spectrum Present: No
Reference Spectrum Present: No
Number of Sampled Component Spectra: 1
Spectrometers: USB2E7196
Integration Time (usec): 35000 (USB2E7196)
Spectra Averaged: 100 (USB2E7196)
Boxcar Smoothing: 10 (USB2E7196)
Correct for Electrical Dark: No (USB2E7196)
Strobe/Lamp Enabled: No (USB2E7196)
Correct for Detector Non-linearity: No (USB2E7196)
Correct for Stray Light: No (USB2E7196)
Number of Pixels in Processed Spectrum: 2048
>>>>>Begin Processed Spectral Data<<<<<
339.09	0.00
339.48	214.76
339.86	216.86
340.24	218.14
340.63	219.03
341.01	222.27
341.39	221.98
341.78	223.48
342.16	224.14
342.54	225.00
342.93	213.62
343.31	224.41
343.69	224.96
344.07	225.41
344.46	225.86
344.84	226.25
345.22	226.50
345.60	226.77
345.99	226.96
346.37	227.13
346.75	227.26
347.13	227.32
347.52	227.37
347.90	227.43
348.28	227.44
348.66	227.46
349.05	227.49
349.43	227.52
349.81	227.57
350.19	227.56
350.57	227.63
350.96	227.70
351.34	227.79
351.72	227.89
352.10	228.00
352.48	228.02
352.87	228.09
353.25	228.14
353.63	228.18
354.01	228.27
354.39	228.35
354.77	228.40
355.15	228.53
355.54	228.58
355.92	228.62
356.30	228.69
356.68	228.84
357.06	228.91
357.44	228.96
357.82	229.00
358.20	229.10
358.58	229.13
358.97	229.18
359.35	229.28
359.73	229.32
360.11	229.38
360.49	229.46
360.87	229.50
361.25	229.56
361.63	229.65
362.01	229.68
362.39	229.70
362.77	229.73
363.15	229.72
363.53	229.73
363.91	229.78
364.29	229.79
364.67	229.73
365.05	229.73
365.43	229.75
365.81	229.74
366.19	229.75
366.57	229.77
366.95	229.72
367.33	229.65
367.71	229.65
368.09	229.63
368.47	229.60
368.85	229.56
369.23	229.55
369.61	229.48
369.99	229.45
370.37	229.42
370.75	229.43
371.13	229.36
371.51	229.32
371.89	229.25
372.27	229.22
372.65	229.17
373.03	229.12
373.41	229.05
373.78	229.01
374.16	228.92
374.54	228.87
374.92	228.83
375.30	228.77
375.68	228.68
376.06	228.63
376.44	228.55
376.82	228.48
377.19	228.38
377.57	228.29
377.95	228.18
378.33	228.07
378.71	227.94
379.09	227.89
379.47	227.80
379.84	227.71
380.22	227.65
380.60	227.53
380.98	227.46
381.36	227.38
381.73	227.28
382.11	227.23
382.49	227.14
382.87	227.06
383.25	226.99
383.62	227.04
384.00	226.95
384.38	226.87
384.76	226.84
385.13	226.82
385.51	226.77
385.89	226.73
386.27	226.72
386.64	226.67
387.02	226.61
387.40	226.56
387.78	226.51
388.15	226.44
388.53	226.42
388.91	226.37
389.29	226.35
389.66	226.35
390.04	226.32
390.42	226.29
390.79	226.30
391.17	226.29
391.55	226.18
391.92	226.18
392.30	226.23
392.68	226.22
393.05	226.28
393.43	226.29
393.81	226.30
394.18	226.31
394.56	226.36
394.94	226.42
395.31	226.48
395.69	226.54
396.06	226.60
396.44	226.64
396.82	226.67
397.19	226.78
397.57	226.83
397.95	226.90
398.32	226.96
398.70	227.02
399.07	227.10
399.45	227.17
399.82	227.26
400.20	227.31
400.58	227.39
400.95	227.41
401.33	227.53
401.70	227.72
402.08	227.80
402.45	227.91
402.83	228.03
403.20	228.14
403.58	228.28
403.95	228.41
404.33	228.54
404.71	228.69
405.08	228.86
405.46	229.01
405.83	229.16
406.21	229.31
406.58	229.49
406.96	229.65
407.33	229.84
407.70	230.02
408.08	230.31
408.45	230.53
408.83	230.79
409.20	230.99
409.58	231.17
409.95	231.44
410.33	231.71
410.70	232.00
411.08	232.31
411.45	232.60
411.82	232.88
412.20	233.25
412.57	233.66
412.95	233.96
413.32	234.37
413.69	234.79
414.07	235.23
414.44	235.68
414.82	236.19
415.19	236.73
415.56	237.29
415.94	237.82
416.31	238.44
416.68	239.04
417.06	239.77
417.43	240.44
417.81	241.23
418.18	241.95
418.55	242.76
418.93	243.63
419.30	244.55
419.67	245.51
420.04	246.46
420.42	247.43
420.79	248.55
421.16	249.68
421.54	250.87
421.91	252.08
422.28	253.37
422.66	254.70
423.03	256.00
423.40	257.33
423.77	258.74
424.15	260.18
424.52	261.71
424.89	263.28
425.26	264.85
425.64	266.27
426.01	267.92
426.38	269.56
426.75	271.20
427.13	272.89
427.50	274.72
427.87	276.61
428.24	278.47
428.61	280.22
428.99	282.16
429.36	284.22
429.73	286.29
430.10	288.29
430.47	290.38
430.85	292.49
431.22	294.72
431.59	297.07
431.96	299.31
432.33	301.78
432.70	304.18
433.08	306.99
433.45	309.65
433.82	312.26
434.19	315.18
434.56	318.04
434.93	320.71
435.30	323.27
435.68	326.17
436.05	329.03
436.42	331.91
436.79	334.46
437.16	337.15
437.53	340.01
437.90	342.83
438.27	345.54
438.64	348.39
439.01	351.00
439.38	353.25
439.75	355.41
440.13	357.82
440.50	360.14
440.87	361.99
441.24	363.90
441.61	366.08
441.98	367.55
442.35	369.34
442.72	371.23
443.09	373.08
443.46	374.09
443.83	374.67
444.20	375.15
444.57	375.94
444.94	376.26
445.31	376.60
445.68	376.93
446.05	376.97
446.42	376.60
446.79	376.15
447.16	375.73
447.53	375.45
447.90	374.37
448.27	373.23
448.64	371.68
449.01	370.51
449.37	368.52
449.74	366.61
450.11	364.34
450.48	361.81
450.85	359.24
451.22	357.08
451.59	355.06
451.96	353.13
452.33	350.55
452.70	348.22
453.07	345.37
453.43	342.48
453.80	339.73
454.17	337.03
454.54	334.50
454.91	331.75
455.28	329.04
455.65	326.52
456.02	324.03
456.38	321.84
456.75	319.20
457.12	316.93
457.49	314.75
457.86	312.57
458.23	310.72
458.59	308.71
458.96	306.61
459.33	304.76
459.70	302.88
460.07	301.37
460.43	299.62
460.80	297.99
461.17	296.54
461.54	295.06
461.91	293.63
462.27	292.17
462.64	290.95
463.01	289.56
463.38	288.27
463.74	286.91
464.11	285.74
464.48	284.73
464.85	283.61
465.21	282.72
465.58	281.75
465.95	280.66
466.32	279.73
466.68	278.84
467.05	277.93
467.42	277.03
467.78	276.08
468.15	275.15
468.52	274.49
468.88	273.63
469.25	272.86
469.62	272.22
469.98	271.53
470.35	270.86
470.72	270.30
471.08	269.67
471.45	269.10
471.82	268.55
472.18	267.90
472.55	267.46
472.92	266.92
473.28	266.52
473.65	266.06
474.02	265.61
474.38	265.22
474.75	264.90
475.11	264.53
475.48	264.26
475.85	264.02
476.21	263.77
476.58	263.61
476.94	263.47
477.31	263.29
477.67	263.14
478.04	262.99
478.41	262.90
478.77	262.92
479.14	262.87
479.50	262.91
479.87	262.99
480.23	263.08
480.60	263.16
480.96	263.21
481.33	263.41
481.69	263.62
482.06	263.82
482.42	264.04
482.79	264.30
483.15	264.63
483.52	265.01
483.88	265.38
484.25	265.74
484.61	266.15
484.98	266.60
485.34	267.14
485.71	267.76
486.07	268.37
486.44	268.94
486.80	269.63
487.17	270.32
487.53	271.14
487.90	271.97
488.26	272.85
488.62	273.88
488.99	274.82
489.35	275.85
489.72	276.99
490.08	278.14
490.44	279.37
490.81	280.69
491.17	282.07
491.54	283.53
491.90	285.05
492.26	286.66
492.63	288.41
492.99	290.21
493.36	292.11
493.72	294.13
494.08	296.21
494.45	298.43
494.81	300.79
495.17	303.21
495.54	305.79
495.90	308.49
496.26	311.21
496.63	314.13
496.99	317.24
497.35	320.45
497.72	323.89
498.08	327.31
498.44	331.00
498.80	334.94
499.17	338.95
499.53	343.10
499.89	347.48
500.26	351.90
500.62	356.55
500.98	361.47
501.34	366.52
501.71	371.83
502.07	377.29
502.43	382.91
502.79	388.70
503.16	394.73
503.52	401.00
503.88	407.44
504.24	414.08
504.60	420.96
504.97	428.03
505.33	435.29
505.69	442.96
506.05	450.70
506.41	458.50
506.78	466.64
507.14	475.05
507.50	483.74
507.86	492.80
508.22	501.98
508.59	511.15
508.95	520.70
509.31	530.47
509.67	540.50
510.03	550.75
510.39	561.32
510.75	572.09
511.12	583.02
511.48	594.43
511.84	605.91
512.20	617.37
512.56	629.35
512.92	641.54
513.28	653.94
513.64	666.47
514.00	679.18
514.37	692.11
514.73	705.23
515.09	718.29
515.45	731.61
515.81	745.21
516.17	759.22
516.53	773.39
516.89	787.61
517.25	801.78
517.61	816.21
517.97	830.67
518.33	845.26
518.69	860.01
519.05	874.87
519.41	890.03
519.77	905.68
520.13	921.06
520.49	936.44
520.85	951.92
521.21	967.60
521.57	983.92
521.93	999.80
522.29	1016.24
522.65	1032.54
523.01	1048.83
523.37	1064.94
523.73	1081.13
524.09	1097.26
524.45	1113.66
524.81	1130.44
525.17	1147.39
525.53	1164.40
525.89	1181.15
526.25	1198.00
526.61	1214.52
526.97	1231.40
527.33	1247.87
527.68	1264.69
528.04	1281.25
528.40	1298.01
528.76	1315.16
529.12	1331.87
529.48	1348.75
529.84	1364.77
530.20	1381.41
530.56	1398.53
530.91	1416.00
531.27	1432.91
531.63	1449.56
531.99	1466.25
532.35	1482.18
532.71	1498.04
533.07	1514.25
533.42	1530.21
533.78	1546.38
534.14	1562.72
534.50	1578.05
534.86	1593.95
535.21	1609.12
535.57	1625.19
535.93	1640.78
536.29	1655.63
536.65	1670.70
537.00	1685.70
537.36	1701.14
537.72	1715.75
538.08	1730.09
538.44	1744.02
538.79	1757.89
539.15	1771.65
539.51	1785.37
539.87	1799.87
540.22	1813.77
540.58	1827.72
540.94	1841.27
541.29	1854.25
541.65	1866.99
542.01	1880.48
542.37	1893.00
542.72	1905.54
543.08	1917.46
543.44	1929.91
543.79	1941.23
544.15	1952.20
544.51	1963.56
544.87	1974.64
545.22	1985.48
545.58	1995.88
545.94	2005.65
546.29	2015.64
546.65	2025.47
547.01	2034.69
547.36	2043.54
547.72	2052.06
548.07	2059.85
548.43	2068.16
548.79	2076.30
549.14	2083.85
549.50	2091.18
549.86	2098.97
550.21	2106.38
550.57	2113.45
550.92	2119.93
551.28	2127.09
551.64	2134.38
551.99	2141.10
552.35	2147.24
552.70	2153.60
553.06	2159.49
553.41	2165.73
553.77	2171.78
554.13	2177.84
554.48	2183.98
554.84	2189.25
555.19	2194.49
555.55	2199.68
555.90	2204.00
556.26	2208.75
556.61	2213.48
556.97	2217.62
557.32	2221.54
557.68	2225.62
558.03	2230.00
558.39	2233.83
558.74	2238.40
559.10	2242.10
559.45	2245.55
559.81	2249.81
560.16	2253.36
560.52	2256.54
560.87	2260.00
561.23	2262.65
561.58	2265.65
561.94	2268.20
562.29	2270.67
562.64	2273.27
563.00	2275.90
563.35	2279.39
563.71	2282.61
564.06	2285.71
564.42	2288.45
564.77	2290.93
565.12	2293.07
565.48	2294.86
565.83	2296.56
566.19	2297.66
566.54	2298.58
566.89	2299.70
567.25	2300.11
567.60	2301.54
567.96	2303.28
568.31	2304.03
568.66	2304.90
569.02	2305.36
569.37	2305.64
569.72	2306.29
570.08	2306.39
570.43	2306.21
570.78	2305.51
571.14	2303.79
571.49	2302.39
571.84	2302.01
572.20	2300.61
572.55	2299.40
572.90	2297.58
573.26	2296.12
573.61	2294.52
573.96	2292.53
574.31	2289.47
574.67	2286.47
575.02	2282.68
575.37	2279.11
575.72	2275.09
576.08	2271.83
576.43	2268.33
576.78	2264.63
577.13	2261.43
577.49	2258.23
577.84	2254.69
578.19	2250.80
578.54	2246.92
578.90	2242.65
579.25	2236.93
579.60	2232.04
579.95	2226.96
580.30	2221.95
580.66	2216.63
581.01	2211.51
581.36	2206.50
581.71	2202.25
582.06	2197.62
582.42	2193.03
582.77	2187.76
583.12	2183.08
583.47	2178.16
583.82	2172.97
584.17	2167.47
584.53	2161.77
584.88	2155.97
585.23	2149.99
585.58	2144.43
585.93	2139.07
586.28	2134.17
586.63	2129.09
586.98	2123.87
587.34	2119.11
587.69	2114.25
588.04	2108.85
588.39	2103.09
588.74	2096.58
589.09	2090.38
589.44	2083.61
589.79	2077.46
590.14	2071.68
590.49	2065.08
590.84	2058.45
591.19	2052.40
591.54	2045.84
591.89	2038.31
592.25	2031.33
592.60	2024.03
592.95	2016.34
593.30	2008.73
593.65	2001.00
594.00	1993.99
594.35	1986.66
594.70	1978.56
595.05	1971.03
595.40	1963.60
595.75	1956.00
596.10	1949.58
596.45	1942.66
596.80	1936.23
597.15	1929.47
597.50	1922.26
597.85	1915.88
598.19	1909.33
598.54	1902.12
598.89	1895.54
599.24	1889.71
599.59	1883.09
599.94	1876.84
600.29	1870.47
600.64	1864.02
600.99	1856.42
601.34	1849.41
601.69	1842.41
602.04	1835.41
602.39	1828.15
602.74	1821.34
603.08	1814.59
603.43	1807.90
603.78	1800.60
604.13	1793.36
604.48	1786.07
604.83	1779.12
605.18	1771.90
605.53	1763.75
605.87	1755.85
606.22	1748.57
606.57	1740.69
606.92	1733.36
607.27	1726.20
607.62	1719.23
607.96	1711.79
608.31	1705.23
608.66	1697.57
609.01	1690.06
609.36	1682.58
609.70	1674.54
610.05	1666.44
610.40	1658.67
610.75	1650.37
611.10	1642.73
611.44	1634.49
611.79	1626.55
612.14	1618.00
612.49	1609.04
612.83	1600.77
613.18	1592.56
613.53	1584.51
613.88	1576.00
614.22	1567.77
614.57	1559.23
614.92	1551.22
615.27	1543.60
615.61	1535.34
615.96	1527.35
616.31	1519.69
616.65	1512.33
617.00	1504.77
617.35	1497.14
617.70	1488.78
618.04	1480.22
618.39	1471.99
618.74	1464.33
619.08	1456.07
619.43	1448.46
619.78	1441.50
620.12	1434.29
620.47	1426.84
620.82	1418.73
621.16	1411.25
621.51	1403.63
621.85	1396.07
622.20	1387.60
622.55	1379.29
622.89	1371.47
623.24	1363.89
623.59	1356.53
623.93	1348.97
624.28	1341.73
624.62	1334.18
624.97	1327.08
625.32	1320.40
625.66	1313.47
626.01	1306.30
626.35	1298.81
626.70	1291.11
627.04	1283.44
627.39	1275.71
627.73	1268.26
628.08	1261.17
628.43	1253.88
628.77	1246.49
629.12	1238.90
629.46	1231.82
629.81	1224.50
630.15	1217.22
630.50	1209.86
630.84	1201.70
631.19	1193.78
631.53	1186.38
631.88	1179.02
632.22	1171.52
632.57	1164.25
632.91	1156.72
633.26	1149.33
633.60	1142.07
633.95	1135.02
634.29	1128.03
634.64	1121.51
634.98	1114.18
635.32	1107.19
635.67	1100.65
636.01	1094.06
636.36	1087.32
636.70	1080.81
637.05	1074.31
637.39	1068.01
637.73	1061.49
638.08	1055.66
638.42	1049.69
638.77	1043.24
639.11	1036.61
639.45	1030.21
639.80	1023.52
640.14	1017.04
640.49	1010.51
640.83	1004.19
641.17	997.92
641.52	991.56
641.86	985.17
642.20	979.43
642.55	973.15
642.89	966.60
643.23	960.06
643.58	954.25
643.92	947.96
644.26	941.86
644.61	935.81
644.95	929.83
645.29	923.28
645.64	916.55
645.98	910.20
646.32	904.37
646.66	898.35
647.01	892.59
647.35	886.95
647.69	881.20
648.04	875.73
648.38	869.97
648.72	863.92
649.06	857.76
649.41	851.87
649.75	845.85
650.09	839.93
650.43	834.19
650.78	828.06
651.12	822.23
651.46	816.55
651.80	810.80
652.14	805.40
652.49	800.00
652.83	794.87
653.17	789.18
653.51	783.40
653.85	778.00
654.20	772.37
654.54	766.34
654.88	760.60
655.22	754.65
655.56	748.97
655.90	743.58
656.25	738.32
656.59	732.89
656.93	727.81
657.27	722.69
657.61	717.22
657.95	712.08
658.29	706.91
658.64	701.63
658.98	696.30
659.32	690.82
659.66	685.66
660.00	680.32
660.34	675.46
660.68	670.60
661.02	665.58
661.36	660.88
661.70	656.40
662.05	652.07
662.39	647.80
662.73	643.36
663.07	638.99
663.41	634.52
663.75	630.08
664.09	625.58
664.43	621.21
664.77	617.14
665.11	612.99
665.45	608.98
665.79	605.00
666.13	600.93
666.47	596.91
666.81	592.79
667.15	588.81
667.49	584.92
667.83	581.19
668.17	577.29
668.51	573.24
668.85	569.29
669.19	565.45
669.53	561.58
669.87	557.72
670.21	554.10
670.55	550.49
670.89	547.05
671.23	543.62
671.57	540.12
671.91	536.64
672.25	533.14
672.58	529.60
672.92	526.21
673.26	523.08
673.60	519.92
673.94	516.76
674.28	513.81
674.62	510.80
674.96	507.70
675.30	504.76
675.64	501.88
675.97	499.16
676.31	496.29
676.65	493.37
676.99	490.66
677.33	487.78
677.67	485.05
678.01	482.03
678.34	479.06
678.68	476.25
679.02	473.43
679.36	470.65
679.70	467.93
680.04	465.19
680.37	462.31
680.71	459.58
681.05	457.05
681.39	454.36
681.73	451.82
682.06	449.33
682.40	446.80
682.74	444.32
683.08	441.72
683.42	439.17
683.75	436.77
684.09	434.32
684.43	431.88
684.77	429.43
685.10	427.15
685.44	424.86
685.78	422.59
686.12	420.37
686.45	418.12
686.79	415.85
687.13	413.62
687.46	411.47
687.80	409.29
688.14	407.08
688.48	405.09
688.81	402.81
689.15	400.64
689.49	398.51
689.82	396.40
690.16	394.35
690.50	392.43
690.83	390.46
691.17	388.49
691.51	386.57
691.84	384.73
692.18	382.79
692.52	380.78
692.85	378.83
693.19	376.97
693.52	375.18
693.86	373.37
694.20	371.65
694.53	369.87
694.87	368.03
695.21	366.22
695.54	364.33
695.88	362.62
696.21	360.88
696.55	359.19
696.88	357.50
697.22	355.85
697.56	354.20
697.89	352.51
698.23	350.86
698.56	349.25
698.90	347.63
699.23	345.98
699.57	344.46
699.90	342.92
700.24	341.37
700.58	339.80
700.91	338.31
701.25	336.81
701.58	335.40
701.92	334.07
702.25	332.64
702.59	331.23
702.92	329.94
703.26	328.63
703.59	327.34
703.93	326.19
704.26	324.98
704.60	323.65
704.93	322.39
705.26	321.17
705.60	319.99
705.93	318.83
706.27	317.80
706.60	316.75
706.94	315.69
707.27	314.56
707.61	313.51
707.94	312.49
708.27	311.40
708.61	310.41
708.94	309.40
709.28	308.48
709.61	307.60
709.94	306.65
710.28	305.62
710.61	304.67
710.95	303.60
711.28	302.66
711.61	301.71
711.95	300.85
712.28	299.91
712.61	298.94
712.95	298.05
713.28	297.22
713.61	296.33
713.95	295.46
714.28	294.63
714.61	293.79
714.95	292.94
715.28	292.13
715.61	291.24
715.95	290.37
716.28	289.51
716.61	288.66
716.95	287.81
717.28	287.12
717.61	286.37
717.94	285.64
718.28	284.89
718.61	284.21
718.94	283.49
719.27	282.82
719.61	282.16
719.94	281.48
720.27	280.74
720.60	280.05
720.94	279.41
721.27	278.84
721.60	278.25
721.93	277.68
722.27	277.13
722.60	276.54
722.93	275.98
723.26	275.47
723.59	274.91
723.93	274.39
724.26	273.84
724.59	273.27
724.92	272.76
725.25	272.24
725.59	271.71
725.92	271.21
726.25	270.73
726.58	270.26
726.91	269.75
727.24	269.30
727.57	268.84
727.91	268.33
728.24	267.88
728.57	267.38
728.90	266.90
729.23	266.41
729.56	266.03
729.89	265.58
730.22	265.06
730.55	264.60
730.89	264.16
731.22	263.72
731.55	263.28
731.88	262.82
732.21	262.38
732.54	261.95
732.87	261.53
733.20	261.12
733.53	260.75
733.86	260.39
734.19	259.98
734.52	259.60
734.85	259.27
735.18	258.83
735.51	258.48
735.84	258.09
736.17	257.76
736.50	257.37
736.83	257.10
737.16	256.79
737.49	256.50
737.82	256.10
738.15	255.76
738.48	255.45
738.81	255.14
739.14	254.80
739.47	254.49
739.80	254.17
740.13	253.88
740.46	253.53
740.79	253.22
741.12	252.89
741.45	252.59
741.78	252.27
742.11	252.03
742.44	251.71
742.77	251.42
743.10	251.13
743.43	250.81
743.75	250.43
744.08	250.27
744.41	249.95
744.74	249.72
745.07	249.43
745.40	249.19
745.73	248.94
746.06	248.64
746.39	248.35
746.71	248.08
747.04	247.78
747.37	247.53
747.70	247.24
748.03	247.02
748.36	246.79
748.68	246.56
749.01	246.26
749.34	246.01
749.67	245.82
750.00	245.58
750.33	245.42
750.65	245.21
750.98	244.88
751.31	244.65
751.64	244.46
751.97	244.30
752.29	244.07
752.62	243.83
752.95	243.64
753.28	243.47
753.60	243.23
753.93	243.09
754.26	242.92
754.59	242.70
754.91	242.50
755.24	242.29
755.57	242.09
755.90	241.93
756.22	241.75
756.55	241.57
756.88	241.36
757.20	241.13
757.53	240.95
757.86	240.77
758.19	240.62
758.51	240.46
758.84	240.26
759.17	240.09
759.49	239.95
759.82	239.86
760.15	239.73
760.47	239.64
760.80	239.45
761.13	239.30
761.45	239.18
761.78	239.03
762.11	238.92
762.43	238.80
762.76	238.65
763.08	238.53
763.41	238.41
763.74	238.33
764.06	238.19
764.39	238.07
764.71	237.96
765.04	237.84
765.37	237.70
765.69	237.56
766.02	237.44
766.34	237.32
766.67	237.17
767.00	237.06
767.32	236.98
767.65	236.92
767.97	236.80
768.30	236.70
768.62	236.56
768.95	236.42
769.27	236.29
769.60	236.23
769.92	236.12
770.25	235.99
770.57	235.82
770.90	235.74
771.22	235.63
771.55	235.52
771.87	235.43
772.20	235.33
772.52	235.30
772.85	235.30
773.17	235.20
773.50	235.09
773.82	234.96
774.15	234.83
774.47	234.67
774.80	234.59
775.12	234.44
775.45	234.39
775.77	234.28
776.09	234.21
776.42	234.10
776.74	234.03
777.07	233.91
777.39	233.85
777.72	233.74
778.04	233.67
778.36	233.59
778.69	233.52
779.01	233.44
779.33	233.29
779.66	233.13
779.98	233.04
780.31	232.98
780.63	232.96
780.95	232.89
781.28	232.85
781.60	232.76
781.92	232.75
782.25	232.70
782.57	232.66
782.89	232.58
783.22	232.50
783.54	232.46
783.86	232.43
784.19	232.36
784.51	232.32
784.83	232.26
785.16	232.17
785.48	232.11
785.80	232.07
786.12	232.02
786.45	231.96
786.77	231.93
787.09	231.89
787.42	231.80
787.74	231.76
788.06	231.74
788.38	231.70
788.71	231.64
789.03	231.60
789.35	231.57
789.67	231.54
789.99	231.51
790.32	231.45
790.64	231.44
790.96	231.47
791.28	231.40
791.61	231.37
791.93	231.36
792.25	231.33
792.57	231.37
792.89	231.35
793.21	231.35
793.54	231.33
793.86	231.28
794.18	231.29
794.50	231.23
794.82	231.19
795.14	231.18
795.47	231.17
795.79	231.12
796.11	231.10
796.43	231.06
796.75	231.06
797.07	231.05
797.39	230.98
797.71	230.90
798.04	230.89
798.36	230.88
798.68	230.86
799.00	230.84
799.32	230.74
799.64	230.73
799.96	230.70
800.28	230.67
800.60	230.62
800.92	230.56
801.24	230.58
801.56	230.53
801.89	230.48
802.21	230.45
802.53	230.39
802.85	230.35
803.17	230.37
803.49	230.28
803.81	230.24
804.13	230.22
804.45	230.19
804.77	230.18
805.09	230.15
805.41	230.12
805.73	230.05
806.05	230.02
806.37	229.97
806.69	229.89
807.01	229.85
807.33	229.86
807.65	229.80
807.97	229.75
808.28	229.70
808.60	229.68
808.92	229.63
809.24	229.67
809.56	229.64
809.88	229.57
810.20	229.58
810.52	229.55
810.84	229.50
811.16	229.46
811.48	229.38
811.80	229.36
812.12	229.34
812.43	229.32
812.75	229.29
813.07	229.25
813.39	229.24
813.71	229.21
814.03	229.14
814.35	229.15
814.67	229.11
814.98	229.08
815.30	229.03
815.62	228.98
815.94	228.91
816.26	228.92
816.58	228.90
816.89	228.86
817.21	228.84
817.53	228.82
817.85	228.81
818.17	228.80
818.48	228.73
818.80	228.70
819.12	228.66
819.44	228.63
819.76	228.60
820.07	228.59
820.39	228.56
820.71	228.57
821.03	228.52
821.34	228.50
821.66	228.50
821.98	228.52
822.30	228.50
822.61	228.53
822.93	228.46
823.25	228.41
823.57	228.40
823.88	228.39
824.20	228.39
824.52	228.41
824.83	228.43
825.15	228.43
825.47	228.42
825.79	228.42
826.10	228.37
826.42	228.37
826.74	228.36
827.05	228.37
827.37	228.37
827.69	228.36
828.00	228.35
828.32	228.34
828.64	228.34
828.95	228.41
829.27	228.39
829.58	228.38
829.90	228.40
830.22	228.38
830.53	228.32
830.85	228.32
831.17	228.24
831.48	228.21
831.80	228.21
832.11	228.18
832.43	228.19
832.75	228.23
833.06	228.30
833.38	228.26
833.69	228.23
834.01	228.20
834.32	228.26
834.64	228.25
834.96	228.27
835.27	228.24
835.59	228.18
835.90	228.16
836.22	228.19
836.53	228.19
836.85	228.23
837.16	228.37
837.48	228.36
837.79	228.43
838.11	228.43
838.42	228.42
838.74	228.48
839.05	228.44
839.37	228.41
839.68	228.32
840.00	228.32
840.31	228.35
840.63	228.35
840.94	228.30
841.26	228.29
841.57	228.28
841.88	228.31
842.20	228.30
842.51	228.32
842.83	228.27
843.14	228.36
843.46	228.31
843.77	228.21
844.08	228.18
844.40	228.12
844.71	228.13
845.03	228.10
845.34	228.05
845.65	228.02
845.97	228.01
846.28	228.01
846.60	228.03
846.91	227.99
847.22	227.98
847.54	227.99
847.85	227.99
848.16	227.96
848.48	227.91
848.79	227.92
849.10	227.91
849.42	227.90
849.73	227.79
850.04	227.78
850.36	227.75
850.67	227.78
850.98	227.77
851.30	227.73
851.61	227.73
851.92	227.73
852.23	227.77
852.55	227.80
852.86	227.79
853.17	227.78
853.49	227.78
853.80	227.78
854.11	227.78
854.42	227.75
854.74	227.74
855.05	227.70
855.36	227.66
855.67	227.64
855.99	227.63
856.30	227.72
856.61	227.70
856.92	227.69
857.23	227.65
857.55	227.63
857.86	227.66
858.17	227.68
858.48	227.63
858.79	227.56
859.11	227.53
859.42	227.52
859.73	227.50
860.04	227.49
860.35	227.47
860.66	227.45
860.98	227.46
861.29	227.48
861.60	227.45
861.91	227.47
862.22	227.44
862.53	227.47
862.84	227.37
863.16	227.37
863.47	227.35
863.78	227.37
864.09	227.35
864.40	227.32
864.71	227.31
865.02	227.37
865.33	227.37
865.64	227.35
865.95	227.36
866.27	227.43
866.58	227.39
866.89	227.43
867.20	227.41
867.51	227.37
867.82	227.33
868.13	227.39
868.44	227.37
868.75	227.41
869.06	227.39
869.37	227.39
869.68	227.41
869.99	227.43
870.30	227.46
870.61	227.49
870.92	227.45
871.23	227.48
871.54	227.49
871.85	227.52
872.16	227.55
872.47	227.52
872.78	227.48
873.09	227.50
873.40	227.47
873.71	227.49
874.02	227.51
874.33	227.54
874.64	227.54
874.95	227.55
875.26	227.54
875.56	227.51
875.87	227.51
876.18	227.51
876.49	227.63
876.80	227.60
877.11	227.60
877.42	227.64
877.73	227.63
878.04	227.61
878.35	227.62
878.66	227.62
878.96	227.62
879.27	227.61
879.58	227.62
879.89	227.60
880.20	227.61
880.51	227.62
880.82	227.60
881.12	227.59
881.43	227.55
881.74	227.52
882.05	227.53
882.36	227.54
882.67	227.50
882.97	227.38
883.28	227.35
883.59	227.35
883.90	227.36
884.21	227.36
884.51	227.35
884.82	227.30
885.13	227.31
885.44	227.30
885.74	227.28
886.05	227.26
886.36	227.27
886.67	227.23
886.98	227.27
887.28	227.27
887.59	227.28
887.90	227.26
888.20	227.24
888.51	227.29
888.82	227.26
889.13	227.26
889.43	227.33
889.74	227.33
890.05	227.29
890.35	227.27
890.66	227.24
890.97	227.22
891.28	227.23
891.58	227.20
891.89	227.22
892.20	227.20
892.50	227.22
892.81	227.19
893.12	227.17
893.42	227.12
893.73	227.10
894.04	227.09
894.34	227.12
894.65	227.14
894.95	227.08
895.26	227.08
895.57	227.11
895.87	227.01
896.18	227.02
896.48	227.04
896.79	227.02
897.10	227.04
897.40	227.03
897.71	227.03
898.01	227.04
898.32	227.04
898.63	227.03
898.93	227.04
899.24	227.08
899.54	227.09
899.85	227.09
900.15	227.13
900.46	227.12
900.76	227.13
901.07	227.12
901.38	227.16
901.68	227.18
901.99	227.16
902.29	227.15
902.60	227.14
902.90	227.15
903.21	227.19
903.51	227.21
903.82	227.23
904.12	227.25
904.43	227.23
904.73	227.27
905.03	227.29
905.34	227.34
905.64	227.30
905.95	227.30
906.25	227.31
906.56	227.29
906.86	227.32
907.17	227.32
907.47	227.35
907.77	227.34
908.08	227.30
908.38	227.31
908.69	227.34
908.99	227.36
909.30	227.38
909.60	227.34
909.90	227.33
910.21	227.33
910.51	227.32
910.81	227.32
911.12	227.31
911.42	227.33
911.73	227.23
912.03	227.25
912.33	227.29
912.64	227.30
912.94	227.30
913.24	227.25
913.55	227.23
913.85	227.20
914.15	227.23
914.46	227.27
914.76	227.27
915.06	227.26
915.37	227.23
915.67	227.17
915.97	227.20
916.27	227.19
916.58	227.17
916.88	227.15
917.18	227.15
917.49	227.22
917.79	227.20
918.09	227.26
918.39	227.26
918.70	227.27
919.00	227.27
919.30	227.31
919.60	227.32
919.91	227.32
920.21	227.34
920.51	227.33
920.81	227.33
921.12	227.35
921.42	227.32
921.72	227.33
922.02	227.38
922.32	227.37
922.63	227.36
922.93	227.43
923.23	227.46
923.53	227.49
923.83	227.42
924.13	227.42
924.44	227.40
924.74	227.45
925.04	227.47
925.34	227.42
925.64	227.40
925.94	227.42
926.24	227.48
926.55	227.47
926.85	227.46
927.15	227.44
927.45	227.42
927.75	227.45
928.05	227.47
928.35	227.47
928.65	227.46
928.95	227.48
929.26	227.42
929.56	227.42
929.86	227.43
930.16	227.42
930.46	227.43
930.76	227.42
931.06	227.37
931.36	227.28
931.66	227.31
931.96	227.32
932.26	227.33
932.56	227.29
932.86	227.26
933.16	227.28
933.46	227.26
933.76	227.26
934.06	227.29
934.36	227.28
934.66	227.26
934.96	227.30
935.26	227.28
935.56	227.29
935.86	227.26
936.16	227.21
936.46	227.18
936.76	227.16
937.06	227.15
937.36	227.15
937.66	227.22
937.96	227.23
938.26	227.16
938.56	227.12
938.86	227.12
939.16	227.18
939.46	227.15
939.76	227.16
940.06	227.19
940.35	227.16
940.65	227.17
940.95	227.20
941.25	227.13
941.55	227.09
941.85	227.06
942.15	227.10
942.45	227.13
942.75	227.15
943.04	227.15
943.34	227.16
943.64	227.14
943.94	227.12
944.24	227.12
944.54	227.13
944.84	227.14
945.13	227.13
945.43	227.08
945.73	227.08
946.03	227.07
946.33	227.04
946.62	227.01
946.92	227.01
947.22	227.00
947.52	227.05
947.82	227.12
948.11	227.15
948.41	227.13
948.71	227.11
949.01	227.13
949.31	227.11
949.60	227.10
949.90	227.12
950.20	227.09
950.50	227.06
950.79	227.08
951.09	227.08
951.39	227.10
951.69	227.08
951.98	227.11
952.28	227.10
952.58	227.11
952.87	227.10
953.17	227.07
953.47	227.04
953.76	227.01
954.06	226.97
954.36	226.96
954.66	226.95
954.95	226.98
955.25	226.96
955.55	226.98
955.84	227.00
956.14	226.99
956.44	227.01
956.73	226.99
957.03	226.98
957.32	226.99
957.62	226.97
957.92	227.03
958.21	227.01
958.51	227.14
958.81	227.15
959.10	227.18
959.40	227.19
959.69	227.21
959.99	227.27
960.29	227.25
960.58	227.24
960.88	227.26
961.17	227.26
961.47	227.27
961.76	227.25
962.06	227.23
962.36	227.22
962.65	227.21
962.95	227.24
963.24	227.24
963.54	227.26
963.83	227.24
964.13	227.20
964.42	227.18
964.72	227.08
965.01	227.09
965.31	227.08
965.60	227.09
965.90	227.16
966.19	227.06
966.49	227.05
966.78	227.04
967.08	227.03
967.37	227.02
967.67	227.04
967.96	227.07
968.26	227.07
968.55	227.09
968.85	227.09
969.14	227.07
969.43	227.06
969.73	227.04
970.02	227.06
970.32	227.03
970.61	227.01
970.91	226.97
971.20	226.93
971.49	226.92
971.79	226.92
972.08	226.85
972.38	226.91
972.67	226.91
972.96	226.92
973.26	226.93
973.55	226.96
973.85	226.92
974.14	226.89
974.43	226.94
974.73	226.93
975.02	226.95
975.31	226.97
975.61	226.98
975.90	226.96
976.19	226.96
976.49	227.00
976.78	227.03
977.07	227.04
977.37	227.06
977.66	227.05
977.95	227.06
978.24	227.06
978.54	227.08
978.83	227.07
979.12	227.04
979.42	227.05
979.71	227.03
980.00	227.00
980.29	227.02
980.59	226.97
980.88	226.99
981.17	226.97
981.46	226.98
981.76	226.96
982.05	227.02
982.34	227.05
982.63	227.02
982.93	227.01
983.22	227.02
983.51	227.04
983.80	227.06
984.09	227.04
984.39	227.04
984.68	227.02
984.97	227.04
985.26	227.05
985.55	227.05
985.85	227.04
986.14	227.06
986.43	227.07
986.72	227.09
987.01	227.05
987.30	227.06
987.59	227.06
987.89	227.07
988.18	227.01
988.47	226.99
988.76	227.00
989.05	226.99
989.34	226.96
989.63	226.99
989.92	226.95
990.22	226.98
990.51	226.97
990.80	226.97
991.09	227.02
991.38	227.03
991.67	227.03
991.96	227.01
992.25	227.04
992.54	227.01
992.83	226.95
993.12	226.96
993.41	226.96
993.70	226.97
993.99	227.00
994.28	227.00
994.58	227.02
994.87	226.99
995.16	226.99
995.45	227.00
995.74	226.95
996.03	226.97
996.32	226.97
996.61	226.98
996.90	226.96
997.19	226.91
997.48	226.90
997.77	226.91
998.06	226.94
998.34	226.91
998.63	226.89
998.92	226.95
999.21	226.93
999.50	226.94
999.79	226.90
1000.08	226.87
1000.37	226.88
1000.66	226.85
1000.95	226.89
1001.24	226.91
1001.53	226.93
1001.82	226.94
1002.11	226.93
1002.40	226.96
1002.68	226.99
1002.97	227.04
1003.26	227.04
1003.55	227.02
1003.84	227.00
1004.13	227.04
1004.42	227.06
1004.71	227.09
1004.99	227.06
1005.28	227.10
1005.57	227.10
1005.86	227.11
1006.15	227.12
1006.44	227.12
1006.72	227.14
1007.01	227.13
1007.30	227.12
1007.59	227.08
1007.88	227.08
1008.17	227.09
1008.45	227.05
1008.74	227.00
1009.03	226.98
1009.32	227.00
1009.60	226.98
1009.89	226.98
1010.18	226.93
1010.47	226.92
1010.76	226.90
1011.04	226.94
1011.33	226.93
1011.62	226.95
1011.91	226.95
1012.19	226.98
1012.48	227.00
1012.77	226.98
1013.05	226.98
1013.34	227.02
1013.63	227.03
1013.92	227.04
1014.20	227.05
1014.49	227.04
1014.78	227.04
1015.06	227.04
1015.35	227.05
1015.64	227.09
1015.92	227.09
1016.21	227.10
1016.50	227.11
1016.78	227.12
1017.07	227.09
1017.36	227.06
1017.64	227.00
1017.93	227.00
1018.22	226.97
1018.50	226.96
1018.79	226.96
1019.08	226.91
1019.36	226.89
1019.65	226.87
1019.93	226.88
1020.22	226.92
1020.51	226.95
1020.79	226.96
1021.08	226.75
1021.36	227.14
1021.65	226.63
1021.94	226.15
1022.22	226.80
1022.51	226.53
1022.79	227.39
1023.08	227.65
1023.36	227.65
1023.65	226.95
>>>>>End Processed Spectral Data<<<<<
