SpectraSuite Data File
++++++++++++++++++++++++++++++++++++
Date: Fri Feb 01 15:15:53 EST 2013
User: group
Dark Spectrum Present: No
Reference Spectrum Present: No
Number of Sampled Component Spectra: 1
Spectrometers: USB2E7196
Integration Time (usec): 35000 (USB2E7196)
Spectra Averaged: 100 (USB2E7196)
Boxcar Smoothing: 10 (USB2E7196)
Correct for Electrical Dark: No (USB2E7196)
Strobe/Lamp Enabled: No (USB2E7196)
Correct for Detector Non-linearity: No (USB2E7196)
Correct for Stray Light: No (USB2E7196)
Number of Pixels in Processed Spectrum: 2048
>>>>>Begin Processed Spectral Data<<<<<
339.09	0.00
339.48	215.08
339.86	216.80
340.24	218.55
340.63	219.09
341.01	222.32
341.39	221.81
341.78	223.86
342.16	224.63
342.54	224.94
342.93	213.54
343.31	224.34
343.69	224.90
344.07	225.35
344.46	225.74
344.84	226.15
345.22	226.37
345.60	226.62
345.99	226.78
346.37	226.91
346.75	227.01
347.13	227.08
347.52	227.15
347.90	227.21
348.28	227.20
348.66	227.25
349.05	227.26
349.43	227.31
349.81	227.35
350.19	227.37
350.57	227.43
350.96	227.48
351.34	227.56
351.72	227.62
352.10	227.70
352.48	227.78
352.87	227.84
353.25	227.93
353.63	227.98
354.01	228.03
354.39	228.12
354.77	228.20
355.15	228.30
355.54	228.33
355.92	228.37
356.30	228.49
356.68	228.59
357.06	228.65
357.44	228.66
357.82	228.69
358.20	228.79
358.58	228.87
358.97	228.99
359.35	229.07
359.73	229.15
360.11	229.23
360.49	229.27
360.87	229.32
361.25	229.37
361.63	229.47
362.01	229.53
362.39	229.53
362.77	229.58
363.15	229.62
363.53	229.66
363.91	229.71
364.29	229.69
364.67	229.58
365.05	229.58
365.43	229.60
365.81	229.64
366.19	229.68
366.57	229.72
366.95	229.70
367.33	229.66
367.71	229.63
368.09	229.63
368.47	229.64
368.85	229.59
369.23	229.57
369.61	229.50
369.99	229.48
370.37	229.48
370.75	229.49
371.13	229.40
371.51	229.34
371.89	229.32
372.27	229.27
372.65	229.24
373.03	229.20
373.41	229.14
373.78	229.08
374.16	228.94
374.54	228.88
374.92	228.80
375.30	228.74
375.68	228.67
376.06	228.63
376.44	228.53
376.82	228.44
377.19	228.37
377.57	228.28
377.95	228.19
378.33	228.09
378.71	227.97
379.09	227.89
379.47	227.82
379.84	227.68
380.22	227.61
380.60	227.54
380.98	227.44
381.36	227.37
381.73	227.26
382.11	227.24
382.49	227.12
382.87	227.01
383.25	226.90
383.62	226.94
384.00	226.82
384.38	226.73
384.76	226.72
385.13	226.70
385.51	226.65
385.89	226.57
386.27	226.52
386.64	226.46
387.02	226.42
387.40	226.39
387.78	226.31
388.15	226.29
388.53	226.23
388.91	226.20
389.29	226.15
389.66	226.18
390.04	226.12
390.42	226.12
390.79	226.14
391.17	226.15
391.55	226.02
391.92	226.01
392.30	226.05
392.68	226.00
393.05	225.98
393.43	226.00
393.81	226.02
394.18	226.03
394.56	226.03
394.94	226.07
395.31	226.09
395.69	226.21
396.06	226.24
396.44	226.28
396.82	226.33
397.19	226.42
397.57	226.43
397.95	226.50
398.32	226.55
398.70	226.60
399.07	226.71
399.45	226.79
399.82	226.85
400.20	226.93
400.58	227.04
400.95	227.07
401.33	227.18
401.70	227.35
402.08	227.47
402.45	227.58
402.83	227.73
403.20	227.80
403.58	227.91
403.95	228.05
404.33	228.21
404.71	228.35
405.08	228.60
405.46	228.73
405.83	228.92
406.21	229.08
406.58	229.26
406.96	229.43
407.33	229.61
407.70	229.86
408.08	230.13
408.45	230.37
408.83	230.65
409.20	230.90
409.58	231.09
409.95	231.36
410.33	231.67
410.70	231.92
411.08	232.26
411.45	232.58
411.82	232.91
412.20	233.28
412.57	233.72
412.95	233.98
413.32	234.42
413.69	234.86
414.07	235.29
414.44	235.79
414.82	236.27
415.19	236.82
415.56	237.35
415.94	237.91
416.31	238.54
416.68	239.16
417.06	239.86
417.43	240.56
417.81	241.33
418.18	242.08
418.55	242.92
418.93	243.79
419.30	244.68
419.67	245.62
420.04	246.60
420.42	247.59
420.79	248.79
421.16	249.94
421.54	251.11
421.91	252.36
422.28	253.58
422.66	254.91
423.03	256.20
423.40	257.57
423.77	258.95
424.15	260.37
424.52	261.83
424.89	263.42
425.26	264.96
425.64	266.43
426.01	268.05
426.38	269.70
426.75	271.38
427.13	273.07
427.50	274.87
427.87	276.69
428.24	278.51
428.61	280.21
428.99	282.12
429.36	284.21
429.73	286.23
430.10	288.24
430.47	290.29
430.85	292.45
431.22	294.63
431.59	297.02
431.96	299.28
432.33	301.80
432.70	304.19
433.08	306.97
433.45	309.58
433.82	312.17
434.19	315.03
434.56	317.86
434.93	320.54
435.30	323.14
435.68	326.05
436.05	328.91
436.42	331.75
436.79	334.26
437.16	336.96
437.53	339.79
437.90	342.64
438.27	345.36
438.64	348.22
439.01	350.83
439.38	353.07
439.75	355.19
440.13	357.68
440.50	360.03
440.87	361.89
441.24	363.82
441.61	365.97
441.98	367.48
442.35	369.23
442.72	371.09
443.09	372.92
443.46	373.89
443.83	374.46
444.20	374.96
444.57	375.79
444.94	376.08
445.31	376.43
445.68	376.73
446.05	376.80
446.42	376.38
446.79	375.95
447.16	375.53
447.53	375.28
447.90	374.09
448.27	372.90
448.64	371.33
449.01	370.21
449.37	368.26
449.74	366.33
450.11	364.14
450.48	361.66
450.85	359.14
451.22	357.04
451.59	355.03
451.96	353.08
452.33	350.52
452.70	348.15
453.07	345.32
453.43	342.47
453.80	339.71
454.17	336.96
454.54	334.43
454.91	331.71
455.28	328.99
455.65	326.50
456.02	324.02
456.38	321.87
456.75	319.21
457.12	316.91
457.49	314.71
457.86	312.52
458.23	310.66
458.59	308.59
458.96	306.47
459.33	304.63
459.70	302.73
460.07	301.20
460.43	299.47
460.80	297.87
461.17	296.39
461.54	294.87
461.91	293.50
462.27	292.03
462.64	290.79
463.01	289.45
463.38	288.16
463.74	286.81
464.11	285.65
464.48	284.60
464.85	283.55
465.21	282.71
465.58	281.77
465.95	280.66
466.32	279.73
466.68	278.83
467.05	277.90
467.42	277.01
467.78	276.08
468.15	275.21
468.52	274.53
468.88	273.71
469.25	272.95
469.62	272.31
469.98	271.65
470.35	270.95
470.72	270.33
471.08	269.65
471.45	269.11
471.82	268.52
472.18	267.93
472.55	267.45
472.92	266.87
473.28	266.41
473.65	265.96
474.02	265.54
474.38	265.16
474.75	264.86
475.11	264.54
475.48	264.24
475.85	264.01
476.21	263.78
476.58	263.57
476.94	263.41
477.31	263.25
477.67	263.06
478.04	262.96
478.41	262.88
478.77	262.91
479.14	262.81
479.50	262.81
479.87	262.85
480.23	262.92
480.60	262.98
480.96	263.08
481.33	263.26
481.69	263.44
482.06	263.60
482.42	263.79
482.79	264.02
483.15	264.33
483.52	264.70
483.88	264.99
484.25	265.39
484.61	265.81
484.98	266.21
485.34	266.78
485.71	267.36
486.07	267.99
486.44	268.57
486.80	269.27
487.17	269.98
487.53	270.80
487.90	271.63
488.26	272.58
488.62	273.56
488.99	274.57
489.35	275.61
489.72	276.75
490.08	277.95
490.44	279.18
490.81	280.52
491.17	281.85
491.54	283.42
491.90	284.93
492.26	286.58
492.63	288.32
492.99	290.09
493.36	291.97
493.72	293.98
494.08	296.06
494.45	298.33
494.81	300.72
495.17	303.13
495.54	305.73
495.90	308.41
496.26	311.22
496.63	314.19
496.99	317.28
497.35	320.53
497.72	323.94
498.08	327.49
498.44	331.18
498.80	335.13
499.17	339.10
499.53	343.30
499.89	347.65
500.26	352.20
500.62	356.85
500.98	361.83
501.34	366.91
501.71	372.25
502.07	377.72
502.43	383.34
502.79	389.22
503.16	395.32
503.52	401.56
503.88	407.96
504.24	414.60
504.60	421.55
504.97	428.65
505.33	435.92
505.69	443.58
506.05	451.30
506.41	459.13
506.78	467.31
507.14	475.68
507.50	484.44
507.86	493.44
508.22	502.64
508.59	511.85
508.95	521.46
509.31	531.29
509.67	541.29
510.03	551.63
510.39	562.20
510.75	572.93
511.12	583.87
511.48	595.11
511.84	606.54
512.20	618.03
512.56	630.02
512.92	642.28
513.28	654.57
513.64	667.06
514.00	679.78
514.37	692.71
514.73	705.84
515.09	718.86
515.45	732.22
515.81	745.74
516.17	759.69
516.53	773.76
516.89	787.94
517.25	802.20
517.61	816.66
517.97	831.14
518.33	845.61
518.69	860.40
519.05	875.49
519.41	890.76
519.77	906.42
520.13	921.87
520.49	937.25
520.85	952.80
521.21	968.53
521.57	984.80
521.93	1000.63
522.29	1017.07
522.65	1033.39
523.01	1049.63
523.37	1065.83
523.73	1082.15
524.09	1098.26
524.45	1114.58
524.81	1131.24
525.17	1148.00
525.53	1164.90
525.89	1181.82
526.25	1198.80
526.61	1215.21
526.97	1231.92
527.33	1248.29
527.68	1265.01
528.04	1281.44
528.40	1298.00
528.76	1315.19
529.12	1331.80
529.48	1348.72
529.84	1364.86
530.20	1381.60
530.56	1398.70
530.91	1416.14
531.27	1432.96
531.63	1449.58
531.99	1466.28
532.35	1482.28
532.71	1498.27
533.07	1514.60
533.42	1530.59
533.78	1546.60
534.14	1562.91
534.50	1578.34
534.86	1594.53
535.21	1609.53
535.57	1625.55
535.93	1641.11
536.29	1655.96
536.65	1671.23
537.00	1686.18
537.36	1701.49
537.72	1716.13
538.08	1730.45
538.44	1744.29
538.79	1758.18
539.15	1772.02
539.51	1785.95
539.87	1800.51
540.22	1814.30
540.58	1828.21
540.94	1841.64
541.29	1854.70
541.65	1867.46
542.01	1880.80
542.37	1893.04
542.72	1905.88
543.08	1917.82
543.44	1930.38
543.79	1941.72
544.15	1952.86
544.51	1964.46
544.87	1975.63
545.22	1986.48
545.58	1996.84
545.94	2006.75
546.29	2016.59
546.65	2026.41
547.01	2035.44
547.36	2044.18
547.72	2052.67
548.07	2060.45
548.43	2068.68
548.79	2076.78
549.14	2084.39
549.50	2091.69
549.86	2099.41
550.21	2106.67
550.57	2113.87
550.92	2120.49
551.28	2127.53
551.64	2134.63
551.99	2141.09
552.35	2147.11
552.70	2153.12
553.06	2159.04
553.41	2165.43
553.77	2171.60
554.13	2177.77
554.48	2183.95
554.84	2189.25
555.19	2194.64
555.55	2199.78
555.90	2204.29
556.26	2209.18
556.61	2213.94
556.97	2218.15
557.32	2222.27
557.68	2226.29
558.03	2230.60
558.39	2234.39
558.74	2239.14
559.10	2242.84
559.45	2246.50
559.81	2250.92
560.16	2254.86
560.52	2258.21
560.87	2261.51
561.23	2264.14
561.58	2267.06
561.94	2269.63
562.29	2272.14
562.64	2274.77
563.00	2277.52
563.35	2280.96
563.71	2283.92
564.06	2286.97
564.42	2289.95
564.77	2292.45
565.12	2294.54
565.48	2296.40
565.83	2298.13
566.19	2299.18
566.54	2300.04
566.89	2301.27
567.25	2301.63
567.60	2302.96
567.96	2304.56
568.31	2305.39
568.66	2306.39
569.02	2306.75
569.37	2306.94
569.72	2307.58
570.08	2307.64
570.43	2307.52
570.78	2306.66
571.14	2305.14
571.49	2303.78
571.84	2303.17
572.20	2301.79
572.55	2300.75
572.90	2299.07
573.26	2297.54
573.61	2295.84
573.96	2293.93
574.31	2290.62
574.67	2287.51
575.02	2283.58
575.37	2280.01
575.72	2275.97
576.08	2272.59
576.43	2269.32
576.78	2265.51
577.13	2262.34
577.49	2259.21
577.84	2255.64
578.19	2251.99
578.54	2248.13
578.90	2243.67
579.25	2238.10
579.60	2232.88
579.95	2227.92
580.30	2222.82
580.66	2217.57
581.01	2212.50
581.36	2207.51
581.71	2203.33
582.06	2198.83
582.42	2194.35
582.77	2189.16
583.12	2184.59
583.47	2179.74
583.82	2174.45
584.17	2169.09
584.53	2163.52
584.88	2157.83
585.23	2151.89
585.58	2146.29
585.93	2140.87
586.28	2136.17
586.63	2131.06
586.98	2126.14
587.34	2121.32
587.69	2116.24
588.04	2110.78
588.39	2104.86
588.74	2098.33
589.09	2092.14
589.44	2085.24
589.79	2079.23
590.14	2073.45
590.49	2066.75
590.84	2060.36
591.19	2054.20
591.54	2047.88
591.89	2040.20
592.25	2033.21
592.60	2025.95
592.95	2018.30
593.30	2010.73
593.65	2003.10
594.00	1995.97
594.35	1988.74
594.70	1980.63
595.05	1973.36
595.40	1966.18
595.75	1958.82
596.10	1952.55
596.45	1945.69
596.80	1939.57
597.15	1932.77
597.50	1925.61
597.85	1919.17
598.19	1912.30
598.54	1905.32
598.89	1898.59
599.24	1892.77
599.59	1885.96
599.94	1879.74
600.29	1873.39
600.64	1866.81
600.99	1859.25
601.34	1852.38
601.69	1845.32
602.04	1838.32
602.39	1830.89
602.74	1824.01
603.08	1817.19
603.43	1810.41
603.78	1803.12
604.13	1795.70
604.48	1788.46
604.83	1781.49
605.18	1774.42
605.53	1766.43
605.87	1758.34
606.22	1751.07
606.57	1743.17
606.92	1735.92
607.27	1728.51
607.62	1721.58
607.96	1714.35
608.31	1707.70
608.66	1700.06
609.01	1692.56
609.36	1685.02
609.70	1677.08
610.05	1668.93
610.40	1661.23
610.75	1652.78
611.10	1645.04
611.44	1636.73
611.79	1628.67
612.14	1620.01
612.49	1611.02
612.83	1602.76
613.18	1594.71
613.53	1586.50
613.88	1577.93
614.22	1569.72
614.57	1561.23
614.92	1553.09
615.27	1545.44
615.61	1537.12
615.96	1529.15
616.31	1521.45
616.65	1514.18
617.00	1506.56
617.35	1498.93
617.70	1490.50
618.04	1482.11
618.39	1473.90
618.74	1466.31
619.08	1458.02
619.43	1450.49
619.78	1443.42
620.12	1436.12
620.47	1428.47
620.82	1420.42
621.16	1413.16
621.51	1405.46
621.85	1397.94
622.20	1389.43
622.55	1381.06
622.89	1373.18
623.24	1365.55
623.59	1358.20
623.93	1350.58
624.28	1343.33
624.62	1335.68
624.97	1328.55
625.32	1321.84
625.66	1314.86
626.01	1307.58
626.35	1300.05
626.70	1292.32
627.04	1284.57
627.39	1276.84
627.73	1269.42
628.08	1262.34
628.43	1254.83
628.77	1247.46
629.12	1239.73
629.46	1232.56
629.81	1225.26
630.15	1218.11
630.50	1210.66
630.84	1202.48
631.19	1194.59
631.53	1187.17
631.88	1179.72
632.22	1172.15
632.57	1164.89
632.91	1157.43
633.26	1150.02
633.60	1142.78
633.95	1135.69
634.29	1128.75
634.64	1122.09
634.98	1114.78
635.32	1107.77
635.67	1101.35
636.01	1094.67
636.36	1088.00
636.70	1081.52
637.05	1074.88
637.39	1068.40
637.73	1061.95
638.08	1056.11
638.42	1050.01
638.77	1043.57
639.11	1036.88
639.45	1030.57
639.80	1023.83
640.14	1017.31
640.49	1010.86
640.83	1004.56
641.17	998.31
641.52	991.92
641.86	985.59
642.20	979.88
642.55	973.64
642.89	967.06
643.23	960.62
643.58	954.80
643.92	948.67
644.26	942.64
644.61	936.66
644.95	930.58
645.29	923.94
645.64	917.36
645.98	911.00
646.32	905.29
646.66	899.29
647.01	893.43
647.35	887.80
647.69	881.88
648.04	876.39
648.38	870.55
648.72	864.54
649.06	858.44
649.41	852.48
649.75	846.46
650.09	840.54
650.43	834.69
650.78	828.61
651.12	822.63
651.46	816.99
651.80	811.22
652.14	805.87
652.49	800.51
652.83	795.33
653.17	789.70
653.51	784.00
653.85	778.60
654.20	773.02
654.54	767.06
654.88	761.41
655.22	755.54
655.56	749.92
655.90	744.54
656.25	739.24
656.59	733.92
656.93	728.79
657.27	723.68
657.61	718.30
657.95	713.21
658.29	708.23
658.64	702.95
658.98	697.64
659.32	692.22
659.66	687.03
660.00	681.65
660.34	676.70
660.68	671.86
661.02	666.82
661.36	662.08
661.70	657.59
662.05	653.22
662.39	648.85
662.73	644.46
663.07	640.12
663.41	635.70
663.75	631.22
664.09	626.73
664.43	622.41
664.77	618.29
665.11	614.03
665.45	609.86
665.79	605.80
666.13	601.67
666.47	597.55
666.81	593.35
667.15	589.27
667.49	585.42
667.83	581.58
668.17	577.67
668.51	573.69
668.85	569.67
669.19	565.83
669.53	561.96
669.87	558.00
670.21	554.27
670.55	550.63
670.89	547.16
671.23	543.76
671.57	540.16
671.91	536.70
672.25	533.27
672.58	529.72
672.92	526.34
673.26	523.17
673.60	520.07
673.94	516.96
674.28	514.08
674.62	511.09
674.96	507.95
675.30	505.00
675.64	502.02
675.97	499.24
676.31	496.36
676.65	493.45
676.99	490.82
677.33	487.97
677.67	485.17
678.01	482.14
678.34	479.14
678.68	476.28
679.02	473.45
679.36	470.69
679.70	468.03
680.04	465.30
680.37	462.43
680.71	459.66
681.05	457.09
681.39	454.40
681.73	451.77
682.06	449.27
682.40	446.73
682.74	444.22
683.08	441.70
683.42	439.12
683.75	436.66
684.09	434.12
684.43	431.69
684.77	429.25
685.10	426.95
685.44	424.66
685.78	422.39
686.12	420.14
686.45	417.83
686.79	415.49
687.13	413.28
687.46	411.11
687.80	408.96
688.14	406.79
688.48	404.74
688.81	402.46
689.15	400.33
689.49	398.23
689.82	396.22
690.16	394.12
690.50	392.20
690.83	390.24
691.17	388.30
691.51	386.41
691.84	384.60
692.18	382.67
692.52	380.72
692.85	378.84
693.19	376.93
693.52	375.14
693.86	373.40
694.20	371.64
694.53	369.90
694.87	368.09
695.21	366.31
695.54	364.50
695.88	362.84
696.21	361.13
696.55	359.42
696.88	357.68
697.22	356.04
697.56	354.45
697.89	352.84
698.23	351.21
698.56	349.59
698.90	347.98
699.23	346.34
699.57	344.75
699.90	343.23
700.24	341.73
700.58	340.20
700.91	338.65
701.25	337.18
701.58	335.80
701.92	334.42
702.25	333.00
702.59	331.62
702.92	330.33
703.26	329.03
703.59	327.75
703.93	326.58
704.26	325.37
704.60	324.10
704.93	322.81
705.26	321.56
705.60	320.38
705.93	319.22
706.27	318.19
706.60	317.12
706.94	316.02
707.27	314.84
707.61	313.76
707.94	312.73
708.27	311.63
708.61	310.52
708.94	309.50
709.28	308.55
709.61	307.59
709.94	306.58
710.28	305.55
710.61	304.59
710.95	303.52
711.28	302.60
711.61	301.63
711.95	300.68
712.28	299.72
712.61	298.77
712.95	297.81
713.28	296.93
713.61	296.06
713.95	295.14
714.28	294.35
714.61	293.49
714.95	292.64
715.28	291.81
715.61	290.97
715.95	290.13
716.28	289.25
716.61	288.47
716.95	287.68
717.28	286.94
717.61	286.18
717.94	285.41
718.28	284.54
718.61	283.81
718.94	283.13
719.27	282.50
719.61	281.85
719.94	281.24
720.27	280.50
720.60	279.83
720.94	279.19
721.27	278.58
721.60	277.98
721.93	277.39
722.27	276.82
722.60	276.30
722.93	275.72
723.26	275.19
723.59	274.60
723.93	274.05
724.26	273.47
724.59	272.90
724.92	272.44
725.25	271.99
725.59	271.47
725.92	270.98
726.25	270.46
726.58	269.96
726.91	269.43
727.24	268.99
727.57	268.55
727.91	268.07
728.24	267.61
728.57	267.15
728.90	266.72
729.23	266.20
729.56	265.77
729.89	265.28
730.22	264.81
730.55	264.33
730.89	263.90
731.22	263.46
731.55	263.05
731.88	262.65
732.21	262.19
732.54	261.74
732.87	261.28
733.20	260.95
733.53	260.59
733.86	260.23
734.19	259.83
734.52	259.44
734.85	259.19
735.18	258.77
735.51	258.45
735.84	258.09
736.17	257.78
736.50	257.36
736.83	257.16
737.16	256.87
737.49	256.56
737.82	256.23
738.15	255.94
738.48	255.64
738.81	255.30
739.14	254.99
739.47	254.72
739.80	254.43
740.13	254.09
740.46	253.72
740.79	253.38
741.12	253.09
741.45	252.75
741.78	252.38
742.11	252.09
742.44	251.75
742.77	251.47
743.10	251.15
743.43	250.86
743.75	250.48
744.08	250.29
744.41	250.02
744.74	249.71
745.07	249.44
745.40	249.16
745.73	248.91
746.06	248.65
746.39	248.39
746.71	248.12
747.04	247.84
747.37	247.59
747.70	247.36
748.03	247.09
748.36	246.91
748.68	246.65
749.01	246.41
749.34	246.17
749.67	245.90
750.00	245.69
750.33	245.54
750.65	245.32
750.98	244.99
751.31	244.75
751.64	244.55
751.97	244.33
752.29	244.10
752.62	243.82
752.95	243.64
753.28	243.43
753.60	243.24
753.93	243.07
754.26	242.87
754.59	242.64
754.91	242.43
755.24	242.19
755.57	242.01
755.90	241.84
756.22	241.62
756.55	241.44
756.88	241.24
757.20	241.01
757.53	240.79
757.86	240.62
758.19	240.44
758.51	240.29
758.84	240.09
759.17	239.95
759.49	239.79
759.82	239.63
760.15	239.47
760.47	239.31
760.80	239.10
761.13	238.95
761.45	238.80
761.78	238.65
762.11	238.49
762.43	238.32
762.76	238.15
763.08	238.05
763.41	237.92
763.74	237.82
764.06	237.69
764.39	237.59
764.71	237.47
765.04	237.35
765.37	237.23
765.69	237.11
766.02	236.95
766.34	236.86
766.67	236.71
767.00	236.60
767.32	236.53
767.65	236.51
767.97	236.42
768.30	236.33
768.62	236.26
768.95	236.15
769.27	236.06
769.60	235.98
769.92	235.84
770.25	235.72
770.57	235.58
770.90	235.46
771.22	235.34
771.55	235.22
771.87	235.13
772.20	235.03
772.52	235.03
772.85	235.04
773.17	234.96
773.50	234.85
773.82	234.76
774.15	234.62
774.47	234.46
774.80	234.37
775.12	234.29
775.45	234.18
775.77	234.14
776.09	234.05
776.42	233.96
776.74	233.94
777.07	233.86
777.39	233.80
777.72	233.73
778.04	233.69
778.36	233.62
778.69	233.54
779.01	233.48
779.33	233.32
779.66	233.16
779.98	233.09
780.31	233.03
780.63	233.00
780.95	232.96
781.28	232.92
781.60	232.85
781.92	232.77
782.25	232.75
782.57	232.67
782.89	232.61
783.22	232.56
783.54	232.46
783.86	232.44
784.19	232.36
784.51	232.35
784.83	232.31
785.16	232.25
785.48	232.20
785.80	232.16
786.12	232.13
786.45	232.08
786.77	232.00
787.09	231.96
787.42	231.86
787.74	231.83
788.06	231.79
788.38	231.72
788.71	231.65
789.03	231.59
789.35	231.53
789.67	231.47
789.99	231.44
790.32	231.43
790.64	231.37
790.96	231.43
791.28	231.35
791.61	231.27
791.93	231.28
792.25	231.24
792.57	231.26
792.89	231.19
793.21	231.16
793.54	231.11
793.86	231.08
794.18	231.08
794.50	231.02
794.82	230.97
795.14	230.96
795.47	230.94
795.79	230.88
796.11	230.86
796.43	230.82
796.75	230.76
797.07	230.69
797.39	230.65
797.71	230.53
798.04	230.50
798.36	230.48
798.68	230.41
799.00	230.39
799.32	230.30
799.64	230.26
799.96	230.21
800.28	230.19
800.60	230.11
800.92	230.09
801.24	230.03
801.56	229.98
801.89	229.94
802.21	229.93
802.53	229.87
802.85	229.86
803.17	229.87
803.49	229.82
803.81	229.77
804.13	229.74
804.45	229.70
804.77	229.70
805.09	229.65
805.41	229.59
805.73	229.54
806.05	229.50
806.37	229.49
806.69	229.47
807.01	229.48
807.33	229.46
807.65	229.40
807.97	229.47
808.28	229.44
808.60	229.43
808.92	229.37
809.24	229.45
809.56	229.40
809.88	229.36
810.20	229.36
810.52	229.39
810.84	229.38
811.16	229.35
811.48	229.29
811.80	229.32
812.12	229.29
812.43	229.29
812.75	229.28
813.07	229.24
813.39	229.23
813.71	229.15
814.03	229.15
814.35	229.15
814.67	229.07
814.98	229.07
815.30	229.07
815.62	229.04
815.94	228.96
816.26	228.98
816.58	228.96
816.89	228.95
817.21	228.92
817.53	228.88
817.85	228.89
818.17	228.89
818.48	228.85
818.80	228.88
819.12	228.86
819.44	228.84
819.76	228.84
820.07	228.83
820.39	228.85
820.71	228.83
821.03	228.78
821.34	228.77
821.66	228.78
821.98	228.76
822.30	228.77
822.61	228.80
822.93	228.77
823.25	228.78
823.57	228.75
823.88	228.75
824.20	228.74
824.52	228.73
824.83	228.71
825.15	228.64
825.47	228.64
825.79	228.60
826.10	228.56
826.42	228.53
826.74	228.55
827.05	228.50
827.37	228.53
827.69	228.52
828.00	228.51
828.32	228.49
828.64	228.47
828.95	228.50
829.27	228.47
829.58	228.45
829.90	228.42
830.22	228.44
830.53	228.41
830.85	228.36
831.17	228.33
831.48	228.34
831.80	228.32
832.11	228.27
832.43	228.25
832.75	228.24
833.06	228.29
833.38	228.24
833.69	228.23
834.01	228.18
834.32	228.14
834.64	228.10
834.96	228.05
835.27	228.03
835.59	227.96
835.90	227.95
836.22	227.94
836.53	227.89
836.85	227.86
837.16	227.94
837.48	227.95
837.79	227.95
838.11	227.91
838.42	227.91
838.74	227.95
839.05	227.95
839.37	227.95
839.68	227.84
840.00	227.81
840.31	227.79
840.63	227.78
840.94	227.76
841.26	227.73
841.57	227.71
841.88	227.73
842.20	227.69
842.51	227.63
842.83	227.61
843.14	227.70
843.46	227.69
843.77	227.60
844.08	227.57
844.40	227.55
844.71	227.52
845.03	227.50
845.34	227.46
845.65	227.43
845.97	227.39
846.28	227.41
846.60	227.42
846.91	227.42
847.22	227.40
847.54	227.44
847.85	227.44
848.16	227.44
848.48	227.39
848.79	227.45
849.10	227.47
849.42	227.45
849.73	227.35
850.04	227.34
850.36	227.32
850.67	227.34
850.98	227.35
851.30	227.38
851.61	227.38
851.92	227.38
852.23	227.42
852.55	227.47
852.86	227.47
853.17	227.49
853.49	227.53
853.80	227.57
854.11	227.57
854.42	227.59
854.74	227.59
855.05	227.61
855.36	227.56
855.67	227.59
855.99	227.61
856.30	227.74
856.61	227.76
856.92	227.77
857.23	227.79
857.55	227.79
857.86	227.80
858.17	227.83
858.48	227.83
858.79	227.82
859.11	227.83
859.42	227.85
859.73	227.83
860.04	227.82
860.35	227.80
860.66	227.78
860.98	227.77
861.29	227.80
861.60	227.82
861.91	227.84
862.22	227.86
862.53	227.84
862.84	227.77
863.16	227.79
863.47	227.77
863.78	227.77
864.09	227.78
864.40	227.78
864.71	227.78
865.02	227.81
865.33	227.82
865.64	227.80
865.95	227.78
866.27	227.83
866.58	227.82
866.89	227.85
867.20	227.87
867.51	227.88
867.82	227.87
868.13	227.89
868.44	227.89
868.75	227.86
869.06	227.85
869.37	227.83
869.68	227.79
869.99	227.77
870.30	227.78
870.61	227.73
870.92	227.71
871.23	227.71
871.54	227.69
871.85	227.66
872.16	227.65
872.47	227.62
872.78	227.54
873.09	227.53
873.40	227.50
873.71	227.48
874.02	227.46
874.33	227.41
874.64	227.35
874.95	227.34
875.26	227.31
875.56	227.29
875.87	227.25
876.18	227.22
876.49	227.31
876.80	227.25
877.11	227.23
877.42	227.19
877.73	227.18
878.04	227.14
878.35	227.13
878.66	227.13
878.96	227.12
879.27	227.11
879.58	227.10
879.89	227.07
880.20	227.06
880.51	227.05
880.82	227.05
881.12	227.05
881.43	227.00
881.74	227.00
882.05	226.98
882.36	227.00
882.67	226.98
882.97	226.87
883.28	226.87
883.59	226.87
883.90	226.89
884.21	226.89
884.51	226.89
884.82	226.89
885.13	226.88
885.44	226.88
885.74	226.86
886.05	226.87
886.36	226.88
886.67	226.85
886.98	226.91
887.28	226.91
887.59	226.91
887.90	226.91
888.20	226.89
888.51	226.93
888.82	226.89
889.13	226.91
889.43	227.01
889.74	227.02
890.05	227.05
890.35	227.03
890.66	227.00
890.97	227.00
891.28	226.98
891.58	227.00
891.89	227.03
892.20	227.03
892.50	227.03
892.81	227.02
893.12	227.05
893.42	226.98
893.73	226.98
894.04	227.01
894.34	227.04
894.65	227.03
894.95	227.00
895.26	227.04
895.57	227.09
895.87	227.01
896.18	227.06
896.48	227.07
896.79	227.08
897.10	227.12
897.40	227.16
897.71	227.20
898.01	227.19
898.32	227.20
898.63	227.23
898.93	227.24
899.24	227.28
899.54	227.31
899.85	227.34
900.15	227.37
900.46	227.38
900.76	227.42
901.07	227.46
901.38	227.49
901.68	227.50
901.99	227.47
902.29	227.49
902.60	227.48
902.90	227.48
903.21	227.50
903.51	227.49
903.82	227.53
904.12	227.55
904.43	227.57
904.73	227.57
905.03	227.61
905.34	227.68
905.64	227.68
905.95	227.70
906.25	227.70
906.56	227.70
906.86	227.71
907.17	227.68
907.47	227.70
907.77	227.73
908.08	227.71
908.38	227.72
908.69	227.70
908.99	227.69
909.30	227.67
909.60	227.69
909.90	227.69
910.21	227.62
910.51	227.58
910.81	227.56
911.12	227.57
911.42	227.53
911.73	227.44
912.03	227.45
912.33	227.43
912.64	227.42
912.94	227.38
913.24	227.36
913.55	227.34
913.85	227.29
914.15	227.27
914.46	227.28
914.76	227.27
915.06	227.25
915.37	227.23
915.67	227.19
915.97	227.13
916.27	227.13
916.58	227.12
916.88	227.11
917.18	227.11
917.49	227.13
917.79	227.12
918.09	227.12
918.39	227.10
918.70	227.08
919.00	227.05
919.30	227.10
919.60	227.09
919.91	227.06
920.21	227.05
920.51	227.01
920.81	227.01
921.12	227.01
921.42	227.03
921.72	227.03
922.02	227.08
922.32	227.12
922.63	227.09
922.93	227.11
923.23	227.12
923.53	227.08
923.83	227.03
924.13	227.01
924.44	227.00
924.74	227.00
925.04	227.01
925.34	226.99
925.64	226.94
925.94	226.96
926.24	227.02
926.55	227.01
926.85	227.03
927.15	227.02
927.45	226.97
927.75	226.92
928.05	226.93
928.35	226.92
928.65	226.95
928.95	226.95
929.26	226.94
929.56	226.97
929.86	227.00
930.16	227.00
930.46	227.02
930.76	227.03
931.06	226.99
931.36	226.96
931.66	227.01
931.96	227.03
932.26	226.98
932.56	226.97
932.86	226.98
933.16	226.98
933.46	226.96
933.76	226.99
934.06	227.04
934.36	227.08
934.66	227.03
934.96	227.03
935.26	227.08
935.56	227.08
935.86	227.04
936.16	227.03
936.46	227.02
936.76	227.04
937.06	227.02
937.36	227.05
937.66	227.10
937.96	227.12
938.26	227.10
938.56	227.09
938.86	227.08
939.16	227.14
939.46	227.16
939.76	227.17
940.06	227.16
940.35	227.15
940.65	227.08
940.95	227.11
941.25	227.08
941.55	227.06
941.85	227.06
942.15	227.11
942.45	227.14
942.75	227.14
943.04	227.16
943.34	227.17
943.64	227.17
943.94	227.11
944.24	227.10
944.54	227.13
944.84	227.13
945.13	227.11
945.43	227.06
945.73	227.05
946.03	227.03
946.33	227.05
946.62	227.04
946.92	227.06
947.22	227.08
947.52	227.07
947.82	227.06
948.11	227.06
948.41	227.03
948.71	227.01
949.01	227.00
949.31	226.98
949.60	226.98
949.90	226.99
950.20	227.03
950.50	227.00
950.79	226.97
951.09	226.98
951.39	226.98
951.69	226.98
951.98	226.99
952.28	226.99
952.58	226.97
952.87	226.96
953.17	226.94
953.47	226.92
953.76	226.90
954.06	226.88
954.36	226.88
954.66	226.84
954.95	226.87
955.25	226.90
955.55	226.91
955.84	226.89
956.14	226.88
956.44	226.83
956.73	226.81
957.03	226.80
957.32	226.80
957.62	226.81
957.92	226.80
958.21	226.81
958.51	226.91
958.81	226.90
959.10	226.88
959.40	226.91
959.69	226.90
959.99	226.91
960.29	226.90
960.58	226.88
960.88	226.92
961.17	226.86
961.47	226.85
961.76	226.82
962.06	226.84
962.36	226.80
962.65	226.84
962.95	226.86
963.24	226.86
963.54	226.87
963.83	226.87
964.13	226.91
964.42	226.87
964.72	226.82
965.01	226.81
965.31	226.86
965.60	226.84
965.90	226.92
966.19	226.92
966.49	226.94
966.78	226.98
967.08	226.98
967.37	226.96
967.67	226.96
967.96	226.98
968.26	226.98
968.55	226.99
968.85	226.99
969.14	226.99
969.43	226.99
969.73	227.00
970.02	226.98
970.32	226.95
970.61	226.96
970.91	226.92
971.20	226.94
971.49	226.96
971.79	226.96
972.08	226.91
972.38	226.93
972.67	226.92
972.96	226.89
973.26	226.88
973.55	226.93
973.85	226.93
974.14	226.94
974.43	226.97
974.73	226.98
975.02	226.97
975.31	226.98
975.61	227.00
975.90	226.98
976.19	227.00
976.49	227.02
976.78	227.04
977.07	227.08
977.37	227.08
977.66	227.05
977.95	227.04
978.24	227.02
978.54	227.03
978.83	227.05
979.12	227.08
979.42	227.09
979.71	227.09
980.00	227.08
980.29	227.07
980.59	227.01
980.88	227.04
981.17	227.06
981.46	227.05
981.76	227.03
982.05	227.05
982.34	227.05
982.63	227.09
982.93	227.06
983.22	227.05
983.51	227.05
983.80	227.06
984.09	227.08
984.39	227.07
984.68	227.09
984.97	227.08
985.26	227.09
985.55	227.08
985.85	227.05
986.14	227.08
986.43	227.09
986.72	227.10
987.01	227.08
987.30	227.05
987.59	227.04
987.89	227.07
988.18	227.06
988.47	227.02
988.76	227.00
989.05	226.99
989.34	226.98
989.63	226.99
989.92	226.96
990.22	226.93
990.51	226.93
990.80	226.86
991.09	226.85
991.38	226.85
991.67	226.82
991.96	226.80
992.25	226.79
992.54	226.77
992.83	226.78
993.12	226.75
993.41	226.79
993.70	226.82
993.99	226.80
994.28	226.81
994.58	226.83
994.87	226.79
995.16	226.76
995.45	226.77
995.74	226.74
996.03	226.77
996.32	226.80
996.61	226.83
996.90	226.83
997.19	226.84
997.48	226.81
997.77	226.84
998.06	226.83
998.34	226.82
998.63	226.80
998.92	226.81
999.21	226.82
999.50	226.76
999.79	226.76
1000.08	226.79
1000.37	226.81
1000.66	226.82
1000.95	226.84
1001.24	226.87
1001.53	226.85
1001.82	226.85
1002.11	226.83
1002.40	226.84
1002.68	226.87
1002.97	226.98
1003.26	226.95
1003.55	226.93
1003.84	226.92
1004.13	226.98
1004.42	226.98
1004.71	227.00
1004.99	227.00
1005.28	227.06
1005.57	227.09
1005.86	227.06
1006.15	227.04
1006.44	227.01
1006.72	227.01
1007.01	227.00
1007.30	227.01
1007.59	227.03
1007.88	227.02
1008.17	227.01
1008.45	226.98
1008.74	226.96
1009.03	226.89
1009.32	226.90
1009.60	226.92
1009.89	226.89
1010.18	226.87
1010.47	226.86
1010.76	226.87
1011.04	226.84
1011.33	226.80
1011.62	226.79
1011.91	226.81
1012.19	226.84
1012.48	226.84
1012.77	226.85
1013.05	226.91
1013.34	226.90
1013.63	226.90
1013.92	226.92
1014.20	226.94
1014.49	226.94
1014.78	226.95
1015.06	226.94
1015.35	226.96
1015.64	226.95
1015.92	226.99
1016.21	227.01
1016.50	227.00
1016.78	227.00
1017.07	227.02
1017.36	227.04
1017.64	227.06
1017.93	227.07
1018.22	227.01
1018.50	227.02
1018.79	227.01
1019.08	226.96
1019.36	226.99
1019.65	226.98
1019.93	227.04
1020.22	227.01
1020.51	227.08
1020.79	227.07
1021.08	226.27
1021.36	227.01
1021.65	226.99
1021.94	226.93
1022.22	227.52
1022.51	226.87
1022.79	227.75
1023.08	226.74
1023.36	228.25
1023.65	227.17
>>>>>End Processed Spectral Data<<<<<
