SpectraSuite Data File
++++++++++++++++++++++++++++++++++++
Date: Fri Feb 01 17:06:31 EST 2013
User: group
Dark Spectrum Present: No
Reference Spectrum Present: No
Number of Sampled Component Spectra: 1
Spectrometers: USB2E7196
Integration Time (usec): 35000 (USB2E7196)
Spectra Averaged: 100 (USB2E7196)
Boxcar Smoothing: 10 (USB2E7196)
Correct for Electrical Dark: No (USB2E7196)
Strobe/Lamp Enabled: No (USB2E7196)
Correct for Detector Non-linearity: No (USB2E7196)
Correct for Stray Light: No (USB2E7196)
Number of Pixels in Processed Spectrum: 2048
>>>>>Begin Processed Spectral Data<<<<<
339.09	0.00
339.48	213.29
339.86	214.30
340.24	216.24
340.63	217.36
341.01	219.93
341.39	219.68
341.78	221.29
342.16	222.61
342.54	223.40
342.93	211.53
343.31	222.20
343.69	222.73
344.07	223.20
344.46	223.60
344.84	223.98
345.22	224.22
345.60	224.47
345.99	224.64
346.37	224.76
346.75	224.81
347.13	224.85
347.52	224.89
347.90	224.98
348.28	224.99
348.66	225.05
349.05	224.99
349.43	225.02
349.81	225.05
350.19	225.12
350.57	225.18
350.96	225.22
351.34	225.36
351.72	225.44
352.10	225.56
352.48	225.66
352.87	225.73
353.25	225.81
353.63	225.90
354.01	225.97
354.39	226.07
354.77	226.21
355.15	226.33
355.54	226.43
355.92	226.49
356.30	226.61
356.68	226.74
357.06	226.87
357.44	226.95
357.82	227.04
358.20	227.11
358.58	227.16
358.97	227.28
359.35	227.34
359.73	227.46
360.11	227.51
360.49	227.59
360.87	227.65
361.25	227.72
361.63	227.84
362.01	227.91
362.39	227.96
362.77	228.00
363.15	228.03
363.53	228.03
363.91	228.07
364.29	228.10
364.67	228.06
365.05	228.08
365.43	228.10
365.81	228.15
366.19	228.23
366.57	228.30
366.95	228.30
367.33	228.29
367.71	228.24
368.09	228.24
368.47	228.22
368.85	228.18
369.23	228.15
369.61	228.09
369.99	228.14
370.37	228.11
370.75	228.12
371.13	228.08
371.51	228.04
371.89	228.01
372.27	227.96
372.65	227.91
373.03	227.89
373.41	227.82
373.78	227.76
374.16	227.64
374.54	227.57
374.92	227.51
375.30	227.44
375.68	227.38
376.06	227.34
376.44	227.27
376.82	227.23
377.19	227.19
377.57	227.14
377.95	226.98
378.33	226.88
378.71	226.76
379.09	226.74
379.47	226.72
379.84	226.61
380.22	226.53
380.60	226.45
380.98	226.36
381.36	226.29
381.73	226.20
382.11	226.14
382.49	226.04
382.87	225.94
383.25	225.86
383.62	225.91
384.00	225.79
384.38	225.71
384.76	225.68
385.13	225.65
385.51	225.56
385.89	225.52
386.27	225.51
386.64	225.47
387.02	225.38
387.40	225.31
387.78	225.27
388.15	225.25
388.53	225.21
388.91	225.18
389.29	225.14
389.66	225.11
390.04	225.08
390.42	225.07
390.79	225.05
391.17	225.04
391.55	224.91
391.92	224.89
392.30	224.90
392.68	224.86
393.05	224.84
393.43	224.86
393.81	224.86
394.18	224.80
394.56	224.79
394.94	224.79
395.31	224.78
395.69	224.84
396.06	224.88
396.44	224.93
396.82	224.94
397.19	225.01
397.57	225.04
397.95	225.08
398.32	225.11
398.70	225.17
399.07	225.25
399.45	225.29
399.82	225.36
400.20	225.42
400.58	225.49
400.95	225.53
401.33	225.62
401.70	225.77
402.08	225.90
402.45	225.98
402.83	226.10
403.20	226.22
403.58	226.30
403.95	226.38
404.33	226.52
404.71	226.68
405.08	226.85
405.46	226.96
405.83	227.11
406.21	227.26
406.58	227.41
406.96	227.53
407.33	227.74
407.70	227.94
408.08	228.19
408.45	228.41
408.83	228.66
409.20	228.85
409.58	229.02
409.95	229.28
410.33	229.58
410.70	229.85
411.08	230.15
411.45	230.48
411.82	230.80
412.20	231.11
412.57	231.49
412.95	231.80
413.32	232.23
413.69	232.64
414.07	233.06
414.44	233.51
414.82	233.98
415.19	234.54
415.56	235.07
415.94	235.60
416.31	236.22
416.68	236.80
417.06	237.51
417.43	238.19
417.81	238.95
418.18	239.71
418.55	240.53
418.93	241.39
419.30	242.25
419.67	243.15
420.04	244.11
420.42	245.12
420.79	246.29
421.16	247.41
421.54	248.59
421.91	249.80
422.28	251.07
422.66	252.40
423.03	253.67
423.40	255.02
423.77	256.44
424.15	257.82
424.52	259.34
424.89	260.93
425.26	262.45
425.64	263.87
426.01	265.41
426.38	267.05
426.75	268.69
427.13	270.42
427.50	272.25
427.87	274.09
428.24	275.95
428.61	277.71
428.99	279.64
429.36	281.69
429.73	283.72
430.10	285.68
430.47	287.76
430.85	289.85
431.22	292.05
431.59	294.41
431.96	296.66
432.33	299.08
432.70	301.43
433.08	304.20
433.45	306.82
433.82	309.44
434.19	312.33
434.56	315.14
434.93	317.75
435.30	320.31
435.68	323.17
436.05	325.89
436.42	328.61
436.79	331.12
437.16	333.78
437.53	336.61
437.90	339.41
438.27	342.06
438.64	344.84
439.01	347.40
439.38	349.60
439.75	351.73
440.13	354.22
440.50	356.54
440.87	358.40
441.24	360.32
441.61	362.43
441.98	363.91
442.35	365.66
442.72	367.48
443.09	369.29
443.46	370.26
443.83	370.90
444.20	371.42
444.57	372.23
444.94	372.61
445.31	372.99
445.68	373.38
446.05	373.56
446.42	373.20
446.79	372.84
447.16	372.42
447.53	372.17
447.90	371.08
448.27	369.94
448.64	368.38
449.01	367.28
449.37	365.32
449.74	363.44
450.11	361.24
450.48	358.84
450.85	356.34
451.22	354.24
451.59	352.27
451.96	350.37
452.33	347.86
452.70	345.46
453.07	342.62
453.43	339.77
453.80	337.00
454.17	334.38
454.54	331.87
454.91	329.20
455.28	326.51
455.65	324.02
456.02	321.62
456.38	319.51
456.75	316.84
457.12	314.66
457.49	312.47
457.86	310.32
458.23	308.49
458.59	306.49
458.96	304.44
459.33	302.59
459.70	300.71
460.07	299.20
460.43	297.51
460.80	295.93
461.17	294.46
461.54	292.99
461.91	291.57
462.27	290.12
462.64	288.85
463.01	287.50
463.38	286.21
463.74	284.85
464.11	283.69
464.48	282.71
464.85	281.61
465.21	280.78
465.58	279.87
465.95	278.77
466.32	277.89
466.68	277.05
467.05	276.17
467.42	275.32
467.78	274.42
468.15	273.57
468.52	272.93
468.88	272.10
469.25	271.34
469.62	270.74
469.98	270.05
470.35	269.47
470.72	268.92
471.08	268.28
471.45	267.76
471.82	267.21
472.18	266.66
472.55	266.23
472.92	265.66
473.28	265.23
473.65	264.78
474.02	264.33
474.38	263.92
474.75	263.58
475.11	263.21
475.48	262.96
475.85	262.72
476.21	262.47
476.58	262.31
476.94	262.16
477.31	261.99
477.67	261.84
478.04	261.69
478.41	261.63
478.77	261.68
479.14	261.60
479.50	261.62
479.87	261.65
480.23	261.72
480.60	261.82
480.96	261.87
481.33	262.09
481.69	262.29
482.06	262.47
482.42	262.70
482.79	262.96
483.15	263.26
483.52	263.66
483.88	264.01
484.25	264.39
484.61	264.81
484.98	265.25
485.34	265.81
485.71	266.44
486.07	267.06
486.44	267.61
486.80	268.33
487.17	269.10
487.53	269.90
487.90	270.77
488.26	271.70
488.62	272.75
488.99	273.71
489.35	274.78
489.72	275.91
490.08	277.09
490.44	278.33
490.81	279.63
491.17	280.94
491.54	282.42
491.90	283.99
492.26	285.61
492.63	287.34
492.99	289.11
493.36	290.97
493.72	292.96
494.08	295.05
494.45	297.29
494.81	299.62
495.17	302.04
495.54	304.59
495.90	307.27
496.26	310.02
496.63	312.97
496.99	316.05
497.35	319.32
497.72	322.71
498.08	326.26
498.44	329.90
498.80	333.83
499.17	337.85
499.53	341.95
499.89	346.29
500.26	350.81
500.62	355.49
500.98	360.41
501.34	365.46
501.71	370.75
502.07	376.16
502.43	381.77
502.79	387.56
503.16	393.53
503.52	399.78
503.88	406.18
504.24	412.79
504.60	419.63
504.97	426.68
505.33	433.93
505.69	441.56
506.05	449.35
506.41	457.09
506.78	465.19
507.14	473.59
507.50	482.24
507.86	491.14
508.22	500.24
508.59	509.37
508.95	518.83
509.31	528.49
509.67	538.47
510.03	548.61
510.39	559.06
510.75	569.68
511.12	580.44
511.48	591.55
511.84	602.81
512.20	614.15
512.56	625.80
512.92	637.75
513.28	649.91
513.64	662.10
514.00	674.67
514.37	687.34
514.73	700.20
515.09	712.95
515.45	725.94
515.81	739.27
516.17	753.00
516.53	766.84
516.89	780.82
517.25	794.77
517.61	808.90
517.97	823.09
518.33	837.27
518.69	851.71
519.05	866.33
519.41	881.20
519.77	896.31
520.13	911.51
520.49	926.68
520.85	941.77
521.21	957.13
521.57	972.98
521.93	988.38
522.29	1004.25
522.65	1020.27
523.01	1036.15
523.37	1051.81
523.73	1067.64
524.09	1083.38
524.45	1099.38
524.81	1115.56
525.17	1131.97
525.53	1148.42
525.89	1165.00
526.25	1181.55
526.61	1197.58
526.97	1213.87
527.33	1230.08
527.68	1246.27
528.04	1262.34
528.40	1278.48
528.76	1295.20
529.12	1311.34
529.48	1327.92
529.84	1343.61
530.20	1359.80
530.56	1376.35
530.91	1393.44
531.27	1409.85
531.63	1425.97
531.99	1442.06
532.35	1457.77
532.71	1473.35
533.07	1489.23
533.42	1504.82
533.78	1520.48
534.14	1536.44
534.50	1551.42
534.86	1566.83
535.21	1581.73
535.57	1597.18
535.93	1612.31
536.29	1626.74
536.65	1641.56
537.00	1655.80
537.36	1670.80
537.72	1684.87
538.08	1698.98
538.44	1712.35
538.79	1725.80
539.15	1738.99
539.51	1752.46
539.87	1766.41
540.22	1779.78
540.58	1793.16
540.94	1805.94
541.29	1818.33
541.65	1830.66
542.01	1843.60
542.37	1855.74
542.72	1867.80
543.08	1879.29
543.44	1891.39
543.79	1902.35
544.15	1913.07
544.51	1924.44
544.87	1935.05
545.22	1945.70
545.58	1955.76
545.94	1965.32
546.29	1974.93
546.65	1984.71
547.01	1993.71
547.36	2002.15
547.72	2010.38
548.07	2018.19
548.43	2026.33
548.79	2034.21
549.14	2041.74
549.50	2048.90
549.86	2056.39
550.21	2063.59
550.57	2070.88
550.92	2077.47
551.28	2084.49
551.64	2091.49
551.99	2097.88
552.35	2104.10
552.70	2110.16
553.06	2116.14
553.41	2122.35
553.77	2128.37
554.13	2134.36
554.48	2140.37
554.84	2146.05
555.19	2151.35
555.55	2156.63
555.90	2161.14
556.26	2166.23
556.61	2170.69
556.97	2175.13
557.32	2179.32
557.68	2183.58
558.03	2187.82
558.39	2191.41
558.74	2196.06
559.10	2199.90
559.45	2203.71
559.81	2207.98
560.16	2211.98
560.52	2215.13
560.87	2218.63
561.23	2221.56
561.58	2224.51
561.94	2227.26
562.29	2229.59
562.64	2232.41
563.00	2234.75
563.35	2238.30
563.71	2241.50
564.06	2244.92
564.42	2247.76
564.77	2250.44
565.12	2252.84
565.48	2254.89
565.83	2257.05
566.19	2258.56
566.54	2259.56
566.89	2260.94
567.25	2261.84
567.60	2263.17
567.96	2265.15
568.31	2266.30
568.66	2267.48
569.02	2268.31
569.37	2268.72
569.72	2269.76
570.08	2270.12
570.43	2270.54
570.78	2270.22
571.14	2268.78
571.49	2267.71
571.84	2267.53
572.20	2266.70
572.55	2265.73
572.90	2264.26
573.26	2262.96
573.61	2261.35
573.96	2260.01
574.31	2257.35
574.67	2254.58
575.02	2251.20
575.37	2247.98
575.72	2244.37
576.08	2240.96
576.43	2237.75
576.78	2234.44
577.13	2231.40
577.49	2228.28
577.84	2225.03
578.19	2221.42
578.54	2218.13
578.90	2214.18
579.25	2208.92
579.60	2204.34
579.95	2199.67
580.30	2194.84
580.66	2189.93
581.01	2185.26
581.36	2180.43
581.71	2176.33
582.06	2172.18
582.42	2168.08
582.77	2163.19
583.12	2158.91
583.47	2154.83
583.82	2150.15
584.17	2145.22
584.53	2139.99
584.88	2134.82
585.23	2129.28
585.58	2123.97
585.93	2118.59
586.28	2113.80
586.63	2109.17
586.98	2103.96
587.34	2099.36
587.69	2094.71
588.04	2089.85
588.39	2084.32
588.74	2078.01
589.09	2072.03
589.44	2065.51
589.79	2059.54
590.14	2053.91
590.49	2047.45
590.84	2040.97
591.19	2035.13
591.54	2028.93
591.89	2021.83
592.25	2015.30
592.60	2008.39
592.95	2001.28
593.30	1994.30
593.65	1986.95
594.00	1979.97
594.35	1973.11
594.70	1965.28
595.05	1958.50
595.40	1951.29
595.75	1944.07
596.10	1938.32
596.45	1931.85
596.80	1925.86
597.15	1919.52
597.50	1912.88
597.85	1906.60
598.19	1900.29
598.54	1893.64
598.89	1886.99
599.24	1881.27
599.59	1874.88
599.94	1868.64
600.29	1862.21
600.64	1855.67
600.99	1848.52
601.34	1841.86
601.69	1834.92
602.04	1828.42
602.39	1821.05
602.74	1814.34
603.08	1807.74
603.43	1800.89
603.78	1793.66
604.13	1786.46
604.48	1779.37
604.83	1772.58
605.18	1765.93
605.53	1758.10
605.87	1750.01
606.22	1742.89
606.57	1734.99
606.92	1727.56
607.27	1720.70
607.62	1714.11
607.96	1707.10
608.31	1700.74
608.66	1693.28
609.01	1685.90
609.36	1678.37
609.70	1670.55
610.05	1662.73
610.40	1655.18
610.75	1647.12
611.10	1639.58
611.44	1631.18
611.79	1623.17
612.14	1614.55
612.49	1605.38
612.83	1597.12
613.18	1589.06
613.53	1581.07
613.88	1572.59
614.22	1564.48
614.57	1555.76
614.92	1547.69
615.27	1540.28
615.61	1532.06
615.96	1524.02
616.31	1516.32
616.65	1509.13
617.00	1501.55
617.35	1493.75
617.70	1485.64
618.04	1477.23
618.39	1469.04
618.74	1461.67
619.08	1453.40
619.43	1445.77
619.78	1438.84
620.12	1431.74
620.47	1424.38
620.82	1416.30
621.16	1408.85
621.51	1401.16
621.85	1393.62
622.20	1385.20
622.55	1376.76
622.89	1368.84
623.24	1361.27
623.59	1353.93
623.93	1346.29
624.28	1339.05
624.62	1331.70
624.97	1324.44
625.32	1317.57
625.66	1310.59
626.01	1303.40
626.35	1296.05
626.70	1288.48
627.04	1280.94
627.39	1273.06
627.73	1265.56
628.08	1258.65
628.43	1251.56
628.77	1244.31
629.12	1236.86
629.46	1229.60
629.81	1222.11
630.15	1214.82
630.50	1207.54
630.84	1199.46
631.19	1191.54
631.53	1184.13
631.88	1176.60
632.22	1168.97
632.57	1161.62
632.91	1154.07
633.26	1146.70
633.60	1139.33
633.95	1132.19
634.29	1125.06
634.64	1118.43
634.98	1111.15
635.32	1103.94
635.67	1097.32
636.01	1090.70
636.36	1084.01
636.70	1077.59
637.05	1071.17
637.39	1064.86
637.73	1058.35
638.08	1052.49
638.42	1046.48
638.77	1040.08
639.11	1033.62
639.45	1027.20
639.80	1020.67
640.14	1014.35
640.49	1007.87
640.83	1001.67
641.17	995.50
641.52	989.22
641.86	982.76
642.20	976.95
642.55	970.67
642.89	964.29
643.23	957.72
643.58	951.95
643.92	945.86
644.26	939.86
644.61	933.75
644.95	927.83
645.29	921.35
645.64	914.74
645.98	908.46
646.32	902.42
646.66	896.56
647.01	890.77
647.35	885.13
647.69	879.27
648.04	873.77
648.38	868.03
648.72	862.14
649.06	856.23
649.41	850.32
649.75	844.48
650.09	838.57
650.43	832.94
650.78	826.84
651.12	820.86
651.46	815.12
651.80	809.54
652.14	804.13
652.49	798.78
652.83	793.67
653.17	788.08
653.51	782.56
653.85	777.06
654.20	771.55
654.54	765.57
654.88	759.88
655.22	753.97
655.56	748.23
655.90	742.69
656.25	737.50
656.59	732.19
656.93	727.17
657.27	722.09
657.61	716.67
657.95	711.61
658.29	706.59
658.64	701.32
658.98	695.93
659.32	690.48
659.66	685.35
660.00	680.06
660.34	675.09
660.68	670.19
661.02	665.29
661.36	660.62
661.70	656.14
662.05	651.81
662.39	647.54
662.73	643.15
663.07	638.84
663.41	634.38
663.75	629.98
664.09	625.34
664.43	620.94
664.77	616.81
665.11	612.55
665.45	608.41
665.79	604.39
666.13	600.35
666.47	596.26
666.81	592.05
667.15	587.93
667.49	584.01
667.83	580.19
668.17	576.26
668.51	572.21
668.85	568.25
669.19	564.39
669.53	560.52
669.87	556.68
670.21	552.98
670.55	549.35
670.89	545.92
671.23	542.54
671.57	538.99
671.91	535.49
672.25	532.00
672.58	528.51
672.92	525.11
673.26	521.92
673.60	518.77
673.94	515.72
674.28	512.82
674.62	509.93
674.96	506.88
675.30	503.98
675.64	501.09
675.97	498.27
676.31	495.43
676.65	492.55
676.99	489.86
677.33	487.02
677.67	484.20
678.01	481.18
678.34	478.24
678.68	475.41
679.02	472.62
679.36	469.86
679.70	467.10
680.04	464.42
680.37	461.61
680.71	458.79
681.05	456.17
681.39	453.45
681.73	450.75
682.06	448.17
682.40	445.59
682.74	443.04
683.08	440.52
683.42	437.88
683.75	435.41
684.09	432.81
684.43	430.39
684.77	427.93
685.10	425.55
685.44	423.24
685.78	420.91
686.12	418.64
686.45	416.36
686.79	414.12
687.13	411.94
687.46	409.76
687.80	407.70
688.14	405.47
688.48	403.46
688.81	401.29
689.15	399.17
689.49	397.02
689.82	395.00
690.16	392.95
690.50	390.99
690.83	389.10
691.17	387.11
691.51	385.18
691.84	383.38
692.18	381.48
692.52	379.57
692.85	377.68
693.19	375.82
693.52	373.97
693.86	372.14
694.20	370.32
694.53	368.52
694.87	366.63
695.21	364.91
695.54	363.07
695.88	361.35
696.21	359.61
696.55	357.92
696.88	356.21
697.22	354.50
697.56	352.90
697.89	351.23
698.23	349.69
698.56	348.08
698.90	346.51
699.23	344.95
699.57	343.42
699.90	341.90
700.24	340.34
700.58	338.85
700.91	337.42
701.25	336.02
701.58	334.70
701.92	333.34
702.25	331.97
702.59	330.63
702.92	329.30
703.26	328.00
703.59	326.76
703.93	325.57
704.26	324.35
704.60	323.10
704.93	321.85
705.26	320.60
705.60	319.42
705.93	318.26
706.27	317.17
706.60	316.08
706.94	314.96
707.27	313.86
707.61	312.75
707.94	311.69
708.27	310.58
708.61	309.42
708.94	308.42
709.28	307.37
709.61	306.41
709.94	305.43
710.28	304.43
710.61	303.46
710.95	302.38
711.28	301.45
711.61	300.54
711.95	299.62
712.28	298.65
712.61	297.68
712.95	296.67
713.28	295.78
713.61	294.86
713.95	293.99
714.28	293.11
714.61	292.28
714.95	291.45
715.28	290.61
715.61	289.76
715.95	288.92
716.28	288.08
716.61	287.18
716.95	286.34
717.28	285.58
717.61	284.80
717.94	284.08
718.28	283.28
718.61	282.51
718.94	281.79
719.27	281.15
719.61	280.51
719.94	279.87
720.27	279.17
720.60	278.49
720.94	277.86
721.27	277.28
721.60	276.69
721.93	276.04
722.27	275.46
722.60	274.92
722.93	274.30
723.26	273.76
723.59	273.22
723.93	272.68
724.26	272.09
724.59	271.51
724.92	270.97
725.25	270.44
725.59	269.91
725.92	269.41
726.25	268.91
726.58	268.41
726.91	267.93
727.24	267.46
727.57	266.98
727.91	266.46
728.24	265.97
728.57	265.47
728.90	265.01
729.23	264.51
729.56	264.06
729.89	263.65
730.22	263.16
730.55	262.69
730.89	262.26
731.22	261.82
731.55	261.40
731.88	261.00
732.21	260.58
732.54	260.17
732.87	259.74
733.20	259.37
733.53	258.95
733.86	258.56
734.19	258.16
734.52	257.79
734.85	257.51
735.18	257.12
735.51	256.76
735.84	256.40
736.17	256.08
736.50	255.70
736.83	255.47
737.16	255.15
737.49	254.86
737.82	254.53
738.15	254.20
738.48	253.85
738.81	253.51
739.14	253.20
739.47	252.88
739.80	252.56
740.13	252.28
740.46	251.96
740.79	251.64
741.12	251.36
741.45	251.06
741.78	250.71
742.11	250.44
742.44	250.14
742.77	249.88
743.10	249.54
743.43	249.22
743.75	248.81
744.08	248.64
744.41	248.36
744.74	248.06
745.07	247.79
745.40	247.53
745.73	247.31
746.06	247.00
746.39	246.76
746.71	246.47
747.04	246.13
747.37	245.89
747.70	245.65
748.03	245.37
748.36	245.14
748.68	244.86
749.01	244.57
749.34	244.32
749.67	244.10
750.00	243.90
750.33	243.74
750.65	243.54
750.98	243.24
751.31	243.04
751.64	242.85
751.97	242.68
752.29	242.48
752.62	242.20
752.95	242.00
753.28	241.76
753.60	241.58
753.93	241.45
754.26	241.24
754.59	241.00
754.91	240.82
755.24	240.61
755.57	240.46
755.90	240.31
756.22	240.11
756.55	239.91
756.88	239.70
757.20	239.46
757.53	239.25
757.86	239.08
758.19	238.91
758.51	238.73
758.84	238.53
759.17	238.32
759.49	238.18
759.82	238.05
760.15	237.89
760.47	237.73
760.80	237.50
761.13	237.39
761.45	237.27
761.78	237.12
762.11	236.98
762.43	236.81
762.76	236.64
763.08	236.55
763.41	236.40
763.74	236.26
764.06	236.16
764.39	236.01
764.71	235.84
765.04	235.67
765.37	235.56
765.69	235.41
766.02	235.33
766.34	235.21
766.67	235.05
767.00	234.97
767.32	234.88
767.65	234.82
767.97	234.71
768.30	234.59
768.62	234.49
768.95	234.36
769.27	234.27
769.60	234.20
769.92	234.04
770.25	233.93
770.57	233.82
770.90	233.72
771.22	233.61
771.55	233.56
771.87	233.48
772.20	233.38
772.52	233.36
772.85	233.36
773.17	233.30
773.50	233.24
773.82	233.11
774.15	232.96
774.47	232.84
774.80	232.75
775.12	232.67
775.45	232.52
775.77	232.45
776.09	232.35
776.42	232.26
776.74	232.25
777.07	232.17
777.39	232.13
777.72	232.05
778.04	231.99
778.36	231.87
778.69	231.81
779.01	231.77
779.33	231.63
779.66	231.46
779.98	231.38
780.31	231.31
780.63	231.31
780.95	231.26
781.28	231.18
781.60	231.08
781.92	231.01
782.25	230.99
782.57	230.93
782.89	230.89
783.22	230.81
783.54	230.72
783.86	230.70
784.19	230.60
784.51	230.56
784.83	230.50
785.16	230.48
785.48	230.40
785.80	230.32
786.12	230.29
786.45	230.24
786.77	230.20
787.09	230.15
787.42	230.05
787.74	230.03
788.06	229.98
788.38	229.96
788.71	229.90
789.03	229.83
789.35	229.81
789.67	229.77
789.99	229.73
790.32	229.66
790.64	229.59
790.96	229.62
791.28	229.54
791.61	229.51
791.93	229.46
792.25	229.44
792.57	229.48
792.89	229.40
793.21	229.33
793.54	229.26
793.86	229.18
794.18	229.18
794.50	229.11
794.82	229.08
795.14	229.06
795.47	229.07
795.79	229.06
796.11	229.01
796.43	228.94
796.75	228.92
797.07	228.91
797.39	228.88
797.71	228.82
798.04	228.78
798.36	228.78
798.68	228.73
799.00	228.70
799.32	228.62
799.64	228.62
799.96	228.60
800.28	228.59
800.60	228.56
800.92	228.54
801.24	228.50
801.56	228.48
801.89	228.44
802.21	228.39
802.53	228.34
802.85	228.32
803.17	228.34
803.49	228.28
803.81	228.24
804.13	228.20
804.45	228.14
804.77	228.12
805.09	228.07
805.41	228.06
805.73	227.99
806.05	227.93
806.37	227.89
806.69	227.84
807.01	227.79
807.33	227.81
807.65	227.75
807.97	227.77
808.28	227.76
808.60	227.72
808.92	227.67
809.24	227.69
809.56	227.64
809.88	227.58
810.20	227.57
810.52	227.59
810.84	227.55
811.16	227.52
811.48	227.50
811.80	227.50
812.12	227.43
812.43	227.45
812.75	227.44
813.07	227.43
813.39	227.46
813.71	227.44
814.03	227.39
814.35	227.36
814.67	227.28
814.98	227.23
815.30	227.20
815.62	227.17
815.94	227.11
816.26	227.15
816.58	227.10
816.89	227.07
817.21	227.04
817.53	227.07
817.85	227.06
818.17	227.06
818.48	227.02
818.80	227.04
819.12	227.02
819.44	227.03
819.76	227.00
820.07	227.00
820.39	226.98
820.71	226.98
821.03	227.02
821.34	227.03
821.66	227.03
821.98	227.03
822.30	227.04
822.61	227.07
822.93	227.03
823.25	227.04
823.57	227.04
823.88	227.05
824.20	227.00
824.52	227.02
824.83	226.96
825.15	226.93
825.47	226.92
825.79	226.95
826.10	226.90
826.42	226.91
826.74	226.88
827.05	226.85
827.37	226.82
827.69	226.75
828.00	226.72
828.32	226.71
828.64	226.71
828.95	226.75
829.27	226.73
829.58	226.67
829.90	226.68
830.22	226.69
830.53	226.63
830.85	226.63
831.17	226.57
831.48	226.58
831.80	226.59
832.11	226.57
832.43	226.48
832.75	226.48
833.06	226.53
833.38	226.53
833.69	226.53
834.01	226.53
834.32	226.52
834.64	226.48
834.96	226.49
835.27	226.45
835.59	226.38
835.90	226.33
836.22	226.30
836.53	226.27
836.85	226.22
837.16	226.32
837.48	226.32
837.79	226.38
838.11	226.40
838.42	226.37
838.74	226.35
839.05	226.34
839.37	226.31
839.68	226.22
840.00	226.17
840.31	226.18
840.63	226.20
840.94	226.15
841.26	226.15
841.57	226.12
841.88	226.11
842.20	226.13
842.51	226.10
842.83	226.14
843.14	226.21
843.46	226.23
843.77	226.16
844.08	226.13
844.40	226.04
844.71	226.00
845.03	225.95
845.34	225.94
845.65	225.94
845.97	225.90
846.28	225.91
846.60	225.95
846.91	225.90
847.22	225.84
847.54	225.90
847.85	225.90
848.16	225.88
848.48	225.87
848.79	225.90
849.10	225.93
849.42	225.92
849.73	225.85
850.04	225.82
850.36	225.79
850.67	225.80
850.98	225.81
851.30	225.78
851.61	225.80
851.92	225.79
852.23	225.83
852.55	225.87
852.86	225.88
853.17	225.83
853.49	225.88
853.80	225.93
854.11	225.91
854.42	225.91
854.74	225.89
855.05	225.88
855.36	225.82
855.67	225.82
855.99	225.82
856.30	225.89
856.61	225.90
856.92	225.89
857.23	225.90
857.55	225.91
857.86	225.95
858.17	225.95
858.48	225.99
858.79	225.94
859.11	225.96
859.42	225.93
859.73	225.95
860.04	225.94
860.35	225.93
860.66	225.92
860.98	225.95
861.29	225.96
861.60	225.99
861.91	226.02
862.22	226.03
862.53	226.00
862.84	225.91
863.16	225.94
863.47	225.93
863.78	225.92
864.09	225.89
864.40	225.86
864.71	225.89
865.02	225.89
865.33	225.91
865.64	225.84
865.95	225.83
866.27	225.90
866.58	225.88
866.89	225.85
867.20	225.84
867.51	225.79
867.82	225.79
868.13	225.81
868.44	225.74
868.75	225.71
869.06	225.72
869.37	225.73
869.68	225.68
869.99	225.69
870.30	225.67
870.61	225.70
870.92	225.70
871.23	225.68
871.54	225.67
871.85	225.69
872.16	225.72
872.47	225.72
872.78	225.64
873.09	225.64
873.40	225.64
873.71	225.66
874.02	225.68
874.33	225.65
874.64	225.61
874.95	225.63
875.26	225.60
875.56	225.58
875.87	225.57
876.18	225.58
876.49	225.64
876.80	225.66
877.11	225.58
877.42	225.57
877.73	225.57
878.04	225.53
878.35	225.48
878.66	225.47
878.96	225.43
879.27	225.42
879.58	225.38
879.89	225.34
880.20	225.35
880.51	225.34
880.82	225.36
881.12	225.34
881.43	225.31
881.74	225.30
882.05	225.28
882.36	225.26
882.67	225.26
882.97	225.15
883.28	225.12
883.59	225.15
883.90	225.17
884.21	225.15
884.51	225.19
884.82	225.18
885.13	225.19
885.44	225.20
885.74	225.21
886.05	225.20
886.36	225.23
886.67	225.17
886.98	225.22
887.28	225.20
887.59	225.19
887.90	225.22
888.20	225.23
888.51	225.29
888.82	225.30
889.13	225.32
889.43	225.39
889.74	225.39
890.05	225.37
890.35	225.38
890.66	225.38
890.97	225.35
891.28	225.32
891.58	225.30
891.89	225.32
892.20	225.32
892.50	225.33
892.81	225.34
893.12	225.32
893.42	225.26
893.73	225.26
894.04	225.29
894.34	225.30
894.65	225.30
894.95	225.29
895.26	225.29
895.57	225.35
895.87	225.27
896.18	225.29
896.48	225.32
896.79	225.26
897.10	225.28
897.40	225.30
897.71	225.34
898.01	225.34
898.32	225.34
898.63	225.34
898.93	225.36
899.24	225.34
899.54	225.37
899.85	225.38
900.15	225.40
900.46	225.39
900.76	225.39
901.07	225.42
901.38	225.39
901.68	225.40
901.99	225.33
902.29	225.34
902.60	225.35
902.90	225.36
903.21	225.39
903.51	225.38
903.82	225.40
904.12	225.41
904.43	225.44
904.73	225.46
905.03	225.46
905.34	225.53
905.64	225.56
905.95	225.56
906.25	225.59
906.56	225.61
906.86	225.63
907.17	225.63
907.47	225.65
907.77	225.63
908.08	225.60
908.38	225.61
908.69	225.63
908.99	225.65
909.30	225.61
909.60	225.61
909.90	225.61
910.21	225.59
910.51	225.55
910.81	225.53
911.12	225.50
911.42	225.54
911.73	225.43
912.03	225.46
912.33	225.50
912.64	225.46
912.94	225.42
913.24	225.41
913.55	225.39
913.85	225.38
914.15	225.44
914.46	225.48
914.76	225.45
915.06	225.45
915.37	225.43
915.67	225.46
915.97	225.45
916.27	225.45
916.58	225.45
916.88	225.49
917.18	225.49
917.49	225.57
917.79	225.52
918.09	225.57
918.39	225.57
918.70	225.53
919.00	225.55
919.30	225.58
919.60	225.53
919.91	225.50
920.21	225.52
920.51	225.44
920.81	225.42
921.12	225.44
921.42	225.45
921.72	225.42
922.02	225.40
922.32	225.45
922.63	225.44
922.93	225.45
923.23	225.43
923.53	225.40
923.83	225.31
924.13	225.33
924.44	225.32
924.74	225.32
925.04	225.33
925.34	225.34
925.64	225.36
925.94	225.37
926.24	225.44
926.55	225.40
926.85	225.46
927.15	225.46
927.45	225.46
927.75	225.44
928.05	225.45
928.35	225.45
928.65	225.44
928.95	225.45
929.26	225.42
929.56	225.49
929.86	225.48
930.16	225.48
930.46	225.49
930.76	225.49
931.06	225.45
931.36	225.45
931.66	225.48
931.96	225.47
932.26	225.51
932.56	225.50
932.86	225.51
933.16	225.48
933.46	225.48
933.76	225.46
934.06	225.46
934.36	225.50
934.66	225.50
934.96	225.50
935.26	225.51
935.56	225.51
935.86	225.46
936.16	225.45
936.46	225.46
936.76	225.47
937.06	225.43
937.36	225.42
937.66	225.40
937.96	225.36
938.26	225.31
938.56	225.25
938.86	225.24
939.16	225.25
939.46	225.26
939.76	225.26
940.06	225.24
940.35	225.26
940.65	225.25
940.95	225.24
941.25	225.22
941.55	225.20
941.85	225.25
942.15	225.26
942.45	225.29
942.75	225.29
943.04	225.26
943.34	225.28
943.64	225.26
943.94	225.26
944.24	225.24
944.54	225.26
944.84	225.27
945.13	225.24
945.43	225.20
945.73	225.21
946.03	225.19
946.33	225.21
946.62	225.19
946.92	225.16
947.22	225.19
947.52	225.19
947.82	225.21
948.11	225.18
948.41	225.18
948.71	225.14
949.01	225.14
949.31	225.15
949.60	225.14
949.90	225.17
950.20	225.18
950.50	225.19
950.79	225.20
951.09	225.23
951.39	225.24
951.69	225.25
951.98	225.27
952.28	225.28
952.58	225.30
952.87	225.30
953.17	225.34
953.47	225.28
953.76	225.26
954.06	225.24
954.36	225.21
954.66	225.19
954.95	225.26
955.25	225.26
955.55	225.26
955.84	225.26
956.14	225.26
956.44	225.26
956.73	225.28
957.03	225.30
957.32	225.30
957.62	225.27
957.92	225.30
958.21	225.28
958.51	225.37
958.81	225.37
959.10	225.36
959.40	225.36
959.69	225.40
959.99	225.43
960.29	225.43
960.58	225.44
960.88	225.48
961.17	225.45
961.47	225.46
961.76	225.47
962.06	225.47
962.36	225.46
962.65	225.47
962.95	225.43
963.24	225.41
963.54	225.39
963.83	225.39
964.13	225.34
964.42	225.31
964.72	225.23
965.01	225.24
965.31	225.24
965.60	225.20
965.90	225.22
966.19	225.19
966.49	225.18
966.78	225.17
967.08	225.14
967.37	225.12
967.67	225.08
967.96	225.09
968.26	225.09
968.55	225.09
968.85	225.08
969.14	225.07
969.43	225.07
969.73	225.09
970.02	225.08
970.32	225.09
970.61	225.12
970.91	225.12
971.20	225.08
971.49	225.06
971.79	225.13
972.08	225.08
972.38	225.09
972.67	225.12
972.96	225.11
973.26	225.11
973.55	225.14
973.85	225.16
974.14	225.13
974.43	225.15
974.73	225.13
975.02	225.13
975.31	225.16
975.61	225.14
975.90	225.12
976.19	225.15
976.49	225.17
976.78	225.14
977.07	225.11
977.37	225.14
977.66	225.20
977.95	225.18
978.24	225.17
978.54	225.19
978.83	225.14
979.12	225.16
979.42	225.18
979.71	225.18
980.00	225.17
980.29	225.21
980.59	225.18
980.88	225.20
981.17	225.20
981.46	225.22
981.76	225.24
982.05	225.29
982.34	225.30
982.63	225.33
982.93	225.38
983.22	225.43
983.51	225.43
983.80	225.39
984.09	225.41
984.39	225.44
984.68	225.45
984.97	225.48
985.26	225.46
985.55	225.44
985.85	225.43
986.14	225.45
986.43	225.47
986.72	225.47
987.01	225.48
987.30	225.48
987.59	225.47
987.89	225.49
988.18	225.43
988.47	225.44
988.76	225.43
989.05	225.37
989.34	225.33
989.63	225.40
989.92	225.38
990.22	225.33
990.51	225.34
990.80	225.32
991.09	225.33
991.38	225.34
991.67	225.36
991.96	225.34
992.25	225.37
992.54	225.33
992.83	225.35
993.12	225.32
993.41	225.33
993.70	225.38
993.99	225.38
994.28	225.40
994.58	225.39
994.87	225.36
995.16	225.41
995.45	225.41
995.74	225.33
996.03	225.37
996.32	225.39
996.61	225.37
996.90	225.39
997.19	225.41
997.48	225.40
997.77	225.36
998.06	225.39
998.34	225.37
998.63	225.36
998.92	225.36
999.21	225.35
999.50	225.35
999.79	225.30
1000.08	225.26
1000.37	225.26
1000.66	225.21
1000.95	225.23
1001.24	225.22
1001.53	225.22
1001.82	225.21
1002.11	225.17
1002.40	225.18
1002.68	225.19
1002.97	225.21
1003.26	225.17
1003.55	225.15
1003.84	225.17
1004.13	225.16
1004.42	225.11
1004.71	225.12
1004.99	225.13
1005.28	225.17
1005.57	225.17
1005.86	225.15
1006.15	225.16
1006.44	225.17
1006.72	225.22
1007.01	225.22
1007.30	225.23
1007.59	225.23
1007.88	225.23
1008.17	225.25
1008.45	225.24
1008.74	225.25
1009.03	225.20
1009.32	225.18
1009.60	225.20
1009.89	225.16
1010.18	225.14
1010.47	225.16
1010.76	225.15
1011.04	225.16
1011.33	225.17
1011.62	225.16
1011.91	225.16
1012.19	225.18
1012.48	225.17
1012.77	225.14
1013.05	225.19
1013.34	225.17
1013.63	225.17
1013.92	225.17
1014.20	225.19
1014.49	225.18
1014.78	225.15
1015.06	225.14
1015.35	225.16
1015.64	225.18
1015.92	225.22
1016.21	225.26
1016.50	225.26
1016.78	225.24
1017.07	225.22
1017.36	225.21
1017.64	225.22
1017.93	225.23
1018.22	225.20
1018.50	225.21
1018.79	225.20
1019.08	225.12
1019.36	225.15
1019.65	225.15
1019.93	225.19
1020.22	225.20
1020.51	225.27
1020.79	225.31
1021.08	224.96
1021.36	225.19
1021.65	224.68
1021.94	224.93
1022.22	225.67
1022.51	225.14
1022.79	225.67
1023.08	225.72
1023.36	226.83
1023.65	225.63
>>>>>End Processed Spectral Data<<<<<
