SpectraSuite Data File
++++++++++++++++++++++++++++++++++++
Date: Fri Feb 01 16:16:36 EST 2013
User: group
Dark Spectrum Present: No
Reference Spectrum Present: No
Number of Sampled Component Spectra: 1
Spectrometers: USB2E7196
Integration Time (usec): 35000 (USB2E7196)
Spectra Averaged: 100 (USB2E7196)
Boxcar Smoothing: 10 (USB2E7196)
Correct for Electrical Dark: No (USB2E7196)
Strobe/Lamp Enabled: No (USB2E7196)
Correct for Detector Non-linearity: No (USB2E7196)
Correct for Stray Light: No (USB2E7196)
Number of Pixels in Processed Spectrum: 2048
>>>>>Begin Processed Spectral Data<<<<<
339.09	0.00
339.48	214.13
339.86	215.63
340.24	217.37
340.63	218.45
341.01	221.09
341.39	221.28
341.78	222.43
342.16	224.03
342.54	224.18
342.93	212.49
343.31	223.22
343.69	223.74
344.07	224.20
344.46	224.61
344.84	225.01
345.22	225.24
345.60	225.47
345.99	225.66
346.37	225.77
346.75	225.89
347.13	225.96
347.52	226.03
347.90	226.08
348.28	226.13
348.66	226.17
349.05	226.17
349.43	226.19
349.81	226.22
350.19	226.28
350.57	226.35
350.96	226.39
351.34	226.45
351.72	226.55
352.10	226.64
352.48	226.70
352.87	226.70
353.25	226.77
353.63	226.82
354.01	226.85
354.39	226.88
354.77	226.93
355.15	227.03
355.54	227.07
355.92	227.10
356.30	227.15
356.68	227.29
357.06	227.36
357.44	227.42
357.82	227.52
358.20	227.56
358.58	227.60
358.97	227.66
359.35	227.74
359.73	227.80
360.11	227.87
360.49	227.92
360.87	227.98
361.25	228.02
361.63	228.10
362.01	228.17
362.39	228.22
362.77	228.27
363.15	228.28
363.53	228.29
363.91	228.35
364.29	228.39
364.67	228.30
365.05	228.33
365.43	228.35
365.81	228.36
366.19	228.41
366.57	228.44
366.95	228.44
367.33	228.45
367.71	228.47
368.09	228.47
368.47	228.45
368.85	228.41
369.23	228.45
369.61	228.39
369.99	228.38
370.37	228.37
370.75	228.39
371.13	228.37
371.51	228.35
371.89	228.31
372.27	228.27
372.65	228.22
373.03	228.17
373.41	228.14
373.78	228.09
374.16	227.98
374.54	227.94
374.92	227.91
375.30	227.83
375.68	227.77
376.06	227.69
376.44	227.65
376.82	227.62
377.19	227.54
377.57	227.48
377.95	227.38
378.33	227.32
378.71	227.21
379.09	227.14
379.47	227.08
379.84	226.97
380.22	226.89
380.60	226.84
380.98	226.81
381.36	226.69
381.73	226.59
382.11	226.58
382.49	226.52
382.87	226.45
383.25	226.38
383.62	226.41
384.00	226.36
384.38	226.29
384.76	226.24
385.13	226.23
385.51	226.19
385.89	226.16
386.27	226.11
386.64	226.06
387.02	226.02
387.40	225.96
387.78	226.02
388.15	225.97
388.53	225.92
388.91	225.85
389.29	225.84
389.66	225.88
390.04	225.79
390.42	225.78
390.79	225.76
391.17	225.78
391.55	225.63
391.92	225.59
392.30	225.59
392.68	225.58
393.05	225.56
393.43	225.55
393.81	225.54
394.18	225.53
394.56	225.56
394.94	225.57
395.31	225.56
395.69	225.58
396.06	225.61
396.44	225.62
396.82	225.66
397.19	225.74
397.57	225.74
397.95	225.84
398.32	225.81
398.70	225.87
399.07	225.95
399.45	226.03
399.82	226.09
400.20	226.12
400.58	226.19
400.95	226.24
401.33	226.36
401.70	226.52
402.08	226.62
402.45	226.70
402.83	226.84
403.20	226.99
403.58	227.08
403.95	227.21
404.33	227.37
404.71	227.51
405.08	227.73
405.46	227.83
405.83	227.94
406.21	228.13
406.58	228.27
406.96	228.41
407.33	228.58
407.70	228.80
408.08	229.09
408.45	229.29
408.83	229.51
409.20	229.73
409.58	229.89
409.95	230.14
410.33	230.38
410.70	230.58
411.08	230.82
411.45	231.14
411.82	231.43
412.20	231.74
412.57	232.13
412.95	232.37
413.32	232.78
413.69	233.19
414.07	233.62
414.44	234.10
414.82	234.56
415.19	235.11
415.56	235.63
415.94	236.17
416.31	236.81
416.68	237.43
417.06	238.11
417.43	238.79
417.81	239.56
418.18	240.33
418.55	241.19
418.93	242.10
419.30	242.96
419.67	243.90
420.04	244.88
420.42	245.84
420.79	247.07
421.16	248.24
421.54	249.48
421.91	250.71
422.28	251.97
422.66	253.32
423.03	254.62
423.40	255.99
423.77	257.38
424.15	258.81
424.52	260.30
424.89	261.94
425.26	263.55
425.64	265.00
426.01	266.58
426.38	268.24
426.75	269.92
427.13	271.68
427.50	273.49
427.87	275.37
428.24	277.27
428.61	279.03
428.99	280.92
429.36	282.98
429.73	285.02
430.10	287.06
430.47	289.10
430.85	291.20
431.22	293.43
431.59	295.83
431.96	298.07
432.33	300.52
432.70	302.87
433.08	305.66
433.45	308.28
433.82	310.92
434.19	313.79
434.56	316.55
434.93	319.19
435.30	321.83
435.68	324.73
436.05	327.57
436.42	330.32
436.79	332.86
437.16	335.56
437.53	338.37
437.90	341.19
438.27	343.95
438.64	346.81
439.01	349.38
439.38	351.62
439.75	353.82
440.13	356.35
440.50	358.67
440.87	360.50
441.24	362.39
441.61	364.54
441.98	366.01
442.35	367.88
442.72	369.72
443.09	371.51
443.46	372.46
443.83	373.00
444.20	373.53
444.57	374.35
444.94	374.62
445.31	374.95
445.68	375.25
446.05	375.27
446.42	374.86
446.79	374.42
447.16	373.95
447.53	373.59
447.90	372.43
448.27	371.24
448.64	369.65
449.01	368.54
449.37	366.59
449.74	364.70
450.11	362.40
450.48	359.93
450.85	357.35
451.22	355.25
451.59	353.24
451.96	351.25
452.33	348.64
452.70	346.33
453.07	343.47
453.43	340.58
453.80	337.81
454.17	335.14
454.54	332.59
454.91	329.89
455.28	327.23
455.65	324.68
456.02	322.25
456.38	320.12
456.75	317.46
457.12	315.17
457.49	312.98
457.86	310.80
458.23	308.97
458.59	306.94
458.96	304.86
459.33	303.01
459.70	301.17
460.07	299.69
460.43	297.92
460.80	296.34
461.17	294.92
461.54	293.45
461.91	292.01
462.27	290.59
462.64	289.32
463.01	287.99
463.38	286.70
463.74	285.37
464.11	284.20
464.48	283.19
464.85	282.10
465.21	281.23
465.58	280.37
465.95	279.26
466.32	278.40
466.68	277.50
467.05	276.62
467.42	275.75
467.78	274.84
468.15	274.00
468.52	273.37
468.88	272.52
469.25	271.76
469.62	271.15
469.98	270.50
470.35	269.88
470.72	269.31
471.08	268.72
471.45	268.19
471.82	267.65
472.18	267.09
472.55	266.67
472.92	266.18
473.28	265.71
473.65	265.27
474.02	264.85
474.38	264.49
474.75	264.18
475.11	263.86
475.48	263.59
475.85	263.39
476.21	263.19
476.58	263.02
476.94	262.90
477.31	262.77
477.67	262.66
478.04	262.58
478.41	262.54
478.77	262.57
479.14	262.51
479.50	262.55
479.87	262.62
480.23	262.71
480.60	262.76
480.96	262.88
481.33	263.10
481.69	263.29
482.06	263.50
482.42	263.73
482.79	263.98
483.15	264.33
483.52	264.69
483.88	265.01
484.25	265.40
484.61	265.82
484.98	266.26
485.34	266.79
485.71	267.36
486.07	267.95
486.44	268.54
486.80	269.23
487.17	269.94
487.53	270.75
487.90	271.56
488.26	272.50
488.62	273.47
488.99	274.42
489.35	275.44
489.72	276.53
490.08	277.72
490.44	278.95
490.81	280.24
491.17	281.59
491.54	283.03
491.90	284.57
492.26	286.19
492.63	287.93
492.99	289.67
493.36	291.56
493.72	293.56
494.08	295.63
494.45	297.89
494.81	300.21
495.17	302.64
495.54	305.22
495.90	307.87
496.26	310.67
496.63	313.59
496.99	316.70
497.35	319.96
497.72	323.33
498.08	326.82
498.44	330.48
498.80	334.37
499.17	338.44
499.53	342.59
499.89	346.96
500.26	351.46
500.62	356.15
500.98	361.10
501.34	366.15
501.71	371.48
502.07	376.90
502.43	382.56
502.79	388.40
503.16	394.44
503.52	400.74
503.88	407.15
504.24	413.82
504.60	420.72
504.97	427.88
505.33	435.20
505.69	442.91
506.05	450.74
506.41	458.66
506.78	466.80
507.14	475.32
507.50	484.04
507.86	493.10
508.22	502.34
508.59	511.62
508.95	521.22
509.31	531.11
509.67	541.28
510.03	551.58
510.39	562.06
510.75	572.91
511.12	583.84
511.48	595.21
511.84	606.71
512.20	618.24
512.56	630.23
512.92	642.42
513.28	654.83
513.64	667.28
514.00	680.06
514.37	693.05
514.73	706.07
515.09	719.10
515.45	732.41
515.81	745.91
516.17	759.96
516.53	774.15
516.89	788.31
517.25	802.45
517.61	816.88
517.97	831.42
518.33	845.89
518.69	860.76
519.05	875.71
519.41	890.92
519.77	906.45
520.13	921.87
520.49	937.27
520.85	952.66
521.21	968.42
521.57	984.63
521.93	1000.34
522.29	1016.78
522.65	1033.03
523.01	1049.15
523.37	1065.36
523.73	1081.36
524.09	1097.34
524.45	1113.61
524.81	1130.20
525.17	1146.99
525.53	1163.89
525.89	1180.77
526.25	1197.51
526.61	1213.85
526.97	1230.47
527.33	1246.83
527.68	1263.40
528.04	1279.79
528.40	1296.24
528.76	1313.18
529.12	1329.51
529.48	1346.42
529.84	1362.40
530.20	1379.04
530.56	1395.97
530.91	1413.19
531.27	1429.91
531.63	1446.40
531.99	1462.90
532.35	1478.84
532.71	1494.62
533.07	1510.84
533.42	1526.57
533.78	1542.58
534.14	1558.75
534.50	1574.06
534.86	1589.84
535.21	1604.94
535.57	1620.88
535.93	1636.42
536.29	1651.14
536.65	1666.29
537.00	1680.94
537.36	1696.07
537.72	1710.42
538.08	1724.87
538.44	1738.58
538.79	1752.46
539.15	1766.03
539.51	1779.65
539.87	1793.83
540.22	1807.51
540.58	1821.16
540.94	1834.49
541.29	1847.24
541.65	1859.88
542.01	1872.91
542.37	1885.21
542.72	1897.42
543.08	1909.12
543.44	1921.53
543.79	1932.59
544.15	1943.51
544.51	1954.91
544.87	1965.79
545.22	1976.61
545.58	1986.69
545.94	1996.41
546.29	2006.16
546.65	2016.01
547.01	2025.19
547.36	2033.89
547.72	2042.19
548.07	2049.85
548.43	2057.86
548.79	2065.82
549.14	2073.30
549.50	2080.66
549.86	2088.37
550.21	2095.80
550.57	2102.75
550.92	2109.12
551.28	2116.27
551.64	2123.30
551.99	2129.77
552.35	2135.88
552.70	2141.91
553.06	2147.92
553.41	2154.27
553.77	2160.29
554.13	2166.32
554.48	2172.62
554.84	2178.08
555.19	2183.48
555.55	2188.76
555.90	2193.33
556.26	2198.25
556.61	2202.98
556.97	2207.37
557.32	2211.56
557.68	2215.64
558.03	2220.02
558.39	2223.74
558.74	2228.33
559.10	2232.28
559.45	2236.01
559.81	2240.41
560.16	2244.31
560.52	2247.50
560.87	2251.01
561.23	2253.75
561.58	2256.68
561.94	2258.99
562.29	2261.31
562.64	2264.11
563.00	2266.78
563.35	2270.28
563.71	2273.40
564.06	2276.77
564.42	2279.53
564.77	2281.93
565.12	2284.25
565.48	2286.34
565.83	2288.27
566.19	2289.65
566.54	2290.53
566.89	2291.86
567.25	2292.53
567.60	2293.82
567.96	2295.56
568.31	2296.33
568.66	2297.32
569.02	2298.03
569.37	2298.43
569.72	2299.47
570.08	2299.55
570.43	2299.52
570.78	2298.99
571.14	2297.65
571.49	2296.18
571.84	2296.01
572.20	2295.01
572.55	2293.99
572.90	2292.33
573.26	2291.13
573.61	2289.45
573.96	2287.83
574.31	2284.77
574.67	2281.75
575.02	2278.26
575.37	2274.87
575.72	2271.20
576.08	2268.13
576.43	2264.73
576.78	2261.18
577.13	2258.01
577.49	2254.84
577.84	2251.35
578.19	2247.69
578.54	2243.91
578.90	2239.74
579.25	2234.26
579.60	2229.27
579.95	2224.30
580.30	2219.40
580.66	2214.20
581.01	2209.30
581.36	2204.39
581.71	2200.23
582.06	2195.80
582.42	2191.47
582.77	2186.43
583.12	2181.81
583.47	2177.03
583.82	2172.16
584.17	2166.93
584.53	2161.30
584.88	2155.85
585.23	2150.26
585.58	2144.77
585.93	2139.35
586.28	2134.64
586.63	2129.47
586.98	2124.50
587.34	2119.87
587.69	2114.97
588.04	2109.58
588.39	2103.89
588.74	2097.26
589.09	2091.08
589.44	2084.28
589.79	2078.12
590.14	2072.45
590.49	2065.96
590.84	2059.46
591.19	2053.35
591.54	2047.01
591.89	2039.88
592.25	2033.04
592.60	2025.80
592.95	2018.24
593.30	2010.91
593.65	2003.32
594.00	1996.38
594.35	1989.12
594.70	1981.08
595.05	1973.88
595.40	1966.62
595.75	1959.21
596.10	1953.21
596.45	1946.59
596.80	1940.54
597.15	1933.96
597.50	1926.94
597.85	1920.45
598.19	1913.87
598.54	1906.83
598.89	1900.11
599.24	1894.24
599.59	1887.52
599.94	1881.30
600.29	1874.97
600.64	1868.40
600.99	1861.08
601.34	1854.19
601.69	1847.27
602.04	1840.49
602.39	1833.16
602.74	1826.41
603.08	1819.58
603.43	1812.83
603.78	1805.50
604.13	1798.29
604.48	1791.11
604.83	1784.18
605.18	1777.26
605.53	1769.37
605.87	1761.31
606.22	1754.10
606.57	1746.07
606.92	1738.87
607.27	1731.87
607.62	1725.00
607.96	1717.82
608.31	1711.24
608.66	1703.75
609.01	1696.22
609.36	1688.56
609.70	1680.57
610.05	1672.57
610.40	1665.03
610.75	1656.71
611.10	1649.10
611.44	1640.68
611.79	1632.72
612.14	1624.21
612.49	1615.01
612.83	1606.72
613.18	1598.63
613.53	1590.55
613.88	1582.01
614.22	1573.68
614.57	1564.91
614.92	1556.90
615.27	1549.31
615.61	1540.91
615.96	1532.83
616.31	1525.12
616.65	1517.80
617.00	1510.48
617.35	1502.85
617.70	1494.44
618.04	1485.84
618.39	1477.59
618.74	1470.00
619.08	1461.59
619.43	1453.90
619.78	1446.96
620.12	1439.66
620.47	1432.13
620.82	1423.89
621.16	1416.44
621.51	1408.83
621.85	1401.26
622.20	1392.79
622.55	1384.42
622.89	1376.48
623.24	1368.84
623.59	1361.38
623.93	1353.84
624.28	1346.42
624.62	1338.80
624.97	1331.64
625.32	1325.01
625.66	1317.88
626.01	1310.80
626.35	1303.38
626.70	1295.54
627.04	1287.77
627.39	1279.95
627.73	1272.66
628.08	1265.72
628.43	1258.52
628.77	1251.13
629.12	1243.51
629.46	1236.21
629.81	1228.81
630.15	1221.50
630.50	1214.06
630.84	1205.91
631.19	1197.87
631.53	1190.32
631.88	1182.84
632.22	1175.27
632.57	1167.90
632.91	1160.43
633.26	1152.79
633.60	1145.31
633.95	1138.30
634.29	1131.28
634.64	1124.66
634.98	1117.20
635.32	1110.02
635.67	1103.30
636.01	1096.78
636.36	1090.04
636.70	1083.49
637.05	1076.79
637.39	1070.51
637.73	1064.05
638.08	1058.27
638.42	1052.35
638.77	1045.88
639.11	1039.17
639.45	1032.75
639.80	1026.04
640.14	1019.63
640.49	1013.18
640.83	1006.90
641.17	1000.58
641.52	994.14
641.86	987.64
642.20	981.75
642.55	975.46
642.89	969.04
643.23	962.43
643.58	956.64
643.92	950.47
644.26	944.43
644.61	938.29
644.95	932.23
645.29	925.56
645.64	918.85
645.98	912.49
646.32	906.72
646.66	900.71
647.01	895.03
647.35	889.24
647.69	883.37
648.04	877.83
648.38	872.06
648.72	866.18
649.06	860.12
649.41	854.30
649.75	848.37
650.09	842.42
650.43	836.64
650.78	830.42
651.12	824.53
651.46	818.90
651.80	813.16
652.14	807.77
652.49	802.42
652.83	797.23
653.17	791.56
653.51	785.83
653.85	780.39
654.20	774.66
654.54	768.74
654.88	763.06
655.22	757.24
655.56	751.50
655.90	746.02
656.25	740.87
656.59	735.46
656.93	730.34
657.27	725.18
657.61	719.70
657.95	714.62
658.29	709.54
658.64	704.25
658.98	698.97
659.32	693.52
659.66	688.33
660.00	683.07
660.34	678.15
660.68	673.18
661.02	668.19
661.36	663.47
661.70	658.97
662.05	654.59
662.39	650.25
662.73	645.85
663.07	641.52
663.41	636.97
663.75	632.48
664.09	627.96
664.43	623.56
664.77	619.45
665.11	615.17
665.45	610.99
665.79	606.88
666.13	602.79
666.47	598.64
666.81	594.44
667.15	590.25
667.49	586.36
667.83	582.50
668.17	578.53
668.51	574.46
668.85	570.46
669.19	566.61
669.53	562.73
669.87	558.79
670.21	555.10
670.55	551.44
670.89	547.98
671.23	544.51
671.57	540.99
671.91	537.44
672.25	533.94
672.58	530.43
672.92	527.00
673.26	523.75
673.60	520.61
673.94	517.44
674.28	514.55
674.62	511.57
674.96	508.54
675.30	505.58
675.64	502.64
675.97	499.79
676.31	496.92
676.65	493.95
676.99	491.22
677.33	488.32
677.67	485.50
678.01	482.51
678.34	479.52
678.68	476.65
679.02	473.88
679.36	471.10
679.70	468.35
680.04	465.59
680.37	462.74
680.71	459.94
681.05	457.36
681.39	454.63
681.73	451.96
682.06	449.42
682.40	446.94
682.74	444.45
683.08	441.88
683.42	439.26
683.75	436.78
684.09	434.28
684.43	431.82
684.77	429.35
685.10	426.98
685.44	424.69
685.78	422.37
686.12	420.01
686.45	417.73
686.79	415.44
687.13	413.24
687.46	411.05
687.80	408.89
688.14	406.64
688.48	404.60
688.81	402.38
689.15	400.22
689.49	398.01
689.82	395.89
690.16	393.85
690.50	391.92
690.83	389.96
691.17	387.99
691.51	386.07
691.84	384.24
692.18	382.34
692.52	380.37
692.85	378.46
693.19	376.59
693.52	374.72
693.86	372.94
694.20	371.17
694.53	369.38
694.87	367.52
695.21	365.81
695.54	363.94
695.88	362.19
696.21	360.48
696.55	358.79
696.88	357.12
697.22	355.45
697.56	353.83
697.89	352.21
698.23	350.60
698.56	349.00
698.90	347.41
699.23	345.75
699.57	344.20
699.90	342.63
700.24	341.10
700.58	339.65
700.91	338.12
701.25	336.68
701.58	335.35
701.92	334.04
702.25	332.65
702.59	331.29
702.92	329.95
703.26	328.65
703.59	327.41
703.93	326.21
704.26	324.97
704.60	323.68
704.93	322.42
705.26	321.15
705.60	319.96
705.93	318.85
706.27	317.77
706.60	316.69
706.94	315.67
707.27	314.53
707.61	313.45
707.94	312.45
708.27	311.36
708.61	310.25
708.94	309.25
709.28	308.26
709.61	307.29
709.94	306.33
710.28	305.29
710.61	304.29
710.95	303.18
711.28	302.26
711.61	301.29
711.95	300.36
712.28	299.42
712.61	298.44
712.95	297.46
713.28	296.61
713.61	295.73
713.95	294.79
714.28	293.97
714.61	293.11
714.95	292.27
715.28	291.42
715.61	290.55
715.95	289.61
716.28	288.73
716.61	287.90
716.95	287.08
717.28	286.32
717.61	285.56
717.94	284.86
718.28	284.01
718.61	283.30
718.94	282.60
719.27	281.93
719.61	281.31
719.94	280.66
720.27	279.96
720.60	279.27
720.94	278.66
721.27	278.07
721.60	277.46
721.93	276.85
722.27	276.27
722.60	275.73
722.93	275.19
723.26	274.70
723.59	274.12
723.93	273.60
724.26	273.05
724.59	272.52
724.92	271.97
725.25	271.53
725.59	270.97
725.92	270.47
726.25	269.96
726.58	269.41
726.91	268.90
727.24	268.43
727.57	267.94
727.91	267.42
728.24	266.93
728.57	266.42
728.90	265.94
729.23	265.45
729.56	265.02
729.89	264.57
730.22	264.02
730.55	263.57
730.89	263.11
731.22	262.65
731.55	262.17
731.88	261.73
732.21	261.28
732.54	260.84
732.87	260.41
733.20	259.99
733.53	259.62
733.86	259.24
734.19	258.82
734.52	258.47
734.85	258.17
735.18	257.73
735.51	257.39
735.84	257.04
736.17	256.70
736.50	256.23
736.83	255.99
737.16	255.69
737.49	255.34
737.82	254.99
738.15	254.66
738.48	254.32
738.81	254.01
739.14	253.70
739.47	253.40
739.80	253.12
740.13	252.83
740.46	252.51
740.79	252.14
741.12	251.85
741.45	251.50
741.78	251.13
742.11	250.88
742.44	250.55
742.77	250.23
743.10	249.90
743.43	249.67
743.75	249.27
744.08	249.12
744.41	248.87
744.74	248.61
745.07	248.30
745.40	248.08
745.73	247.88
746.06	247.58
746.39	247.34
746.71	247.05
747.04	246.78
747.37	246.50
747.70	246.27
748.03	245.99
748.36	245.82
748.68	245.62
749.01	245.37
749.34	245.16
749.67	244.94
750.00	244.74
750.33	244.58
750.65	244.39
750.98	244.02
751.31	243.78
751.64	243.60
751.97	243.48
752.29	243.24
752.62	242.97
752.95	242.75
753.28	242.52
753.60	242.34
753.93	242.16
754.26	242.00
754.59	241.83
754.91	241.65
755.24	241.42
755.57	241.22
755.90	241.06
756.22	240.86
756.55	240.69
756.88	240.48
757.20	240.25
757.53	240.04
757.86	239.90
758.19	239.77
758.51	239.61
758.84	239.42
759.17	239.29
759.49	239.12
759.82	239.01
760.15	238.89
760.47	238.74
760.80	238.54
761.13	238.43
761.45	238.28
761.78	238.14
762.11	238.00
762.43	237.83
762.76	237.69
763.08	237.58
763.41	237.42
763.74	237.29
764.06	237.18
764.39	237.03
764.71	236.89
765.04	236.72
765.37	236.56
765.69	236.42
766.02	236.26
766.34	236.14
766.67	236.01
767.00	235.87
767.32	235.78
767.65	235.75
767.97	235.58
768.30	235.43
768.62	235.29
768.95	235.19
769.27	235.11
769.60	235.00
769.92	234.89
770.25	234.77
770.57	234.65
770.90	234.51
771.22	234.43
771.55	234.32
771.87	234.24
772.20	234.14
772.52	234.13
772.85	234.17
773.17	234.05
773.50	233.93
773.82	233.84
774.15	233.71
774.47	233.56
774.80	233.47
775.12	233.39
775.45	233.33
775.77	233.23
776.09	233.11
776.42	233.02
776.74	232.94
777.07	232.84
777.39	232.75
777.72	232.67
778.04	232.60
778.36	232.50
778.69	232.42
779.01	232.33
779.33	232.15
779.66	231.95
779.98	231.89
780.31	231.82
780.63	231.80
780.95	231.76
781.28	231.70
781.60	231.60
781.92	231.52
782.25	231.46
782.57	231.41
782.89	231.36
783.22	231.29
783.54	231.22
783.86	231.19
784.19	231.13
784.51	231.10
784.83	231.04
785.16	230.99
785.48	230.93
785.80	230.92
786.12	230.86
786.45	230.81
786.77	230.76
787.09	230.69
787.42	230.58
787.74	230.51
788.06	230.43
788.38	230.42
788.71	230.37
789.03	230.34
789.35	230.28
789.67	230.22
789.99	230.19
790.32	230.13
790.64	230.09
790.96	230.14
791.28	230.08
791.61	230.02
791.93	229.99
792.25	229.97
792.57	229.98
792.89	229.95
793.21	229.88
793.54	229.83
793.86	229.80
794.18	229.80
794.50	229.77
794.82	229.77
795.14	229.76
795.47	229.77
795.79	229.76
796.11	229.73
796.43	229.72
796.75	229.69
797.07	229.68
797.39	229.66
797.71	229.58
798.04	229.54
798.36	229.55
798.68	229.52
799.00	229.48
799.32	229.40
799.64	229.41
799.96	229.40
800.28	229.42
800.60	229.40
800.92	229.36
801.24	229.35
801.56	229.35
801.89	229.29
802.21	229.27
802.53	229.22
802.85	229.20
803.17	229.22
803.49	229.19
803.81	229.18
804.13	229.11
804.45	229.07
804.77	229.07
805.09	229.07
805.41	229.04
805.73	229.01
806.05	228.99
806.37	228.95
806.69	228.92
807.01	228.86
807.33	228.87
807.65	228.81
807.97	228.80
808.28	228.75
808.60	228.75
808.92	228.70
809.24	228.70
809.56	228.66
809.88	228.63
810.20	228.58
810.52	228.51
810.84	228.51
811.16	228.45
811.48	228.40
811.80	228.40
812.12	228.37
812.43	228.34
812.75	228.31
813.07	228.26
813.39	228.25
813.71	228.21
814.03	228.16
814.35	228.15
814.67	228.06
814.98	228.01
815.30	227.95
815.62	227.91
815.94	227.86
816.26	227.88
816.58	227.82
816.89	227.83
817.21	227.81
817.53	227.78
817.85	227.77
818.17	227.76
818.48	227.66
818.80	227.66
819.12	227.64
819.44	227.57
819.76	227.54
820.07	227.52
820.39	227.52
820.71	227.50
821.03	227.50
821.34	227.48
821.66	227.47
821.98	227.47
822.30	227.47
822.61	227.48
822.93	227.41
823.25	227.38
823.57	227.35
823.88	227.34
824.20	227.29
824.52	227.29
824.83	227.25
825.15	227.23
825.47	227.17
825.79	227.16
826.10	227.16
826.42	227.16
826.74	227.16
827.05	227.13
827.37	227.13
827.69	227.13
828.00	227.13
828.32	227.12
828.64	227.09
828.95	227.09
829.27	227.08
829.58	227.06
829.90	227.07
830.22	227.05
830.53	227.04
830.85	227.05
831.17	227.02
831.48	227.03
831.80	227.07
832.11	227.09
832.43	227.08
832.75	227.06
833.06	227.12
833.38	227.09
833.69	227.08
834.01	227.09
834.32	227.07
834.64	227.09
834.96	227.07
835.27	227.11
835.59	227.10
835.90	227.07
836.22	227.11
836.53	227.11
836.85	227.11
837.16	227.23
837.48	227.24
837.79	227.25
838.11	227.26
838.42	227.27
838.74	227.28
839.05	227.27
839.37	227.27
839.68	227.20
840.00	227.19
840.31	227.22
840.63	227.18
840.94	227.19
841.26	227.22
841.57	227.25
841.88	227.22
842.20	227.23
842.51	227.18
842.83	227.17
843.14	227.26
843.46	227.27
843.77	227.23
844.08	227.21
844.40	227.23
844.71	227.25
845.03	227.23
845.34	227.23
845.65	227.22
845.97	227.26
846.28	227.26
846.60	227.28
846.91	227.25
847.22	227.27
847.54	227.30
847.85	227.26
848.16	227.23
848.48	227.23
848.79	227.25
849.10	227.31
849.42	227.29
849.73	227.18
850.04	227.14
850.36	227.08
850.67	227.12
850.98	227.10
851.30	227.06
851.61	227.04
851.92	227.01
852.23	227.02
852.55	226.99
852.86	227.02
853.17	226.99
853.49	227.01
853.80	226.98
854.11	226.94
854.42	226.93
854.74	226.93
855.05	226.92
855.36	226.84
855.67	226.79
855.99	226.75
856.30	226.83
856.61	226.81
856.92	226.78
857.23	226.74
857.55	226.72
857.86	226.73
858.17	226.76
858.48	226.71
858.79	226.67
859.11	226.67
859.42	226.64
859.73	226.63
860.04	226.60
860.35	226.58
860.66	226.55
860.98	226.53
861.29	226.52
861.60	226.48
861.91	226.49
862.22	226.49
862.53	226.49
862.84	226.38
863.16	226.39
863.47	226.38
863.78	226.36
864.09	226.32
864.40	226.30
864.71	226.24
865.02	226.29
865.33	226.29
865.64	226.26
865.95	226.23
866.27	226.25
866.58	226.25
866.89	226.23
867.20	226.24
867.51	226.23
867.82	226.19
868.13	226.24
868.44	226.23
868.75	226.23
869.06	226.22
869.37	226.25
869.68	226.24
869.99	226.26
870.30	226.26
870.61	226.29
870.92	226.30
871.23	226.31
871.54	226.30
871.85	226.33
872.16	226.35
872.47	226.32
872.78	226.27
873.09	226.28
873.40	226.31
873.71	226.33
874.02	226.34
874.33	226.35
874.64	226.32
874.95	226.34
875.26	226.34
875.56	226.38
875.87	226.36
876.18	226.35
876.49	226.47
876.80	226.49
877.11	226.49
877.42	226.48
877.73	226.51
878.04	226.52
878.35	226.53
878.66	226.56
878.96	226.61
879.27	226.64
879.58	226.64
879.89	226.63
880.20	226.65
880.51	226.64
880.82	226.65
881.12	226.65
881.43	226.65
881.74	226.62
882.05	226.63
882.36	226.67
882.67	226.69
882.97	226.54
883.28	226.55
883.59	226.57
883.90	226.58
884.21	226.57
884.51	226.54
884.82	226.49
885.13	226.45
885.44	226.44
885.74	226.47
886.05	226.45
886.36	226.42
886.67	226.41
886.98	226.43
887.28	226.45
887.59	226.45
887.90	226.43
888.20	226.44
888.51	226.44
888.82	226.40
889.13	226.39
889.43	226.48
889.74	226.43
890.05	226.40
890.35	226.39
890.66	226.37
890.97	226.33
891.28	226.36
891.58	226.34
891.89	226.33
892.20	226.27
892.50	226.25
892.81	226.24
893.12	226.21
893.42	226.16
893.73	226.16
894.04	226.15
894.34	226.13
894.65	226.10
894.95	226.11
895.26	226.12
895.57	226.16
895.87	226.09
896.18	226.11
896.48	226.10
896.79	226.08
897.10	226.06
897.40	226.08
897.71	226.04
898.01	226.03
898.32	226.02
898.63	226.05
898.93	226.07
899.24	226.03
899.54	226.05
899.85	226.06
900.15	226.02
900.46	225.99
900.76	225.98
901.07	226.02
901.38	225.99
901.68	226.00
901.99	225.93
902.29	225.92
902.60	225.90
902.90	225.92
903.21	225.91
903.51	225.92
903.82	225.97
904.12	225.98
904.43	225.99
904.73	225.99
905.03	225.97
905.34	226.04
905.64	226.08
905.95	226.06
906.25	226.04
906.56	226.07
906.86	226.09
907.17	226.12
907.47	226.12
907.77	226.10
908.08	226.08
908.38	226.14
908.69	226.15
908.99	226.19
909.30	226.20
909.60	226.21
909.90	226.22
910.21	226.21
910.51	226.21
910.81	226.22
911.12	226.23
911.42	226.25
911.73	226.18
912.03	226.19
912.33	226.24
912.64	226.28
912.94	226.27
913.24	226.23
913.55	226.22
913.85	226.22
914.15	226.24
914.46	226.27
914.76	226.23
915.06	226.23
915.37	226.20
915.67	226.19
915.97	226.25
916.27	226.24
916.58	226.22
916.88	226.22
917.18	226.25
917.49	226.32
917.79	226.31
918.09	226.32
918.39	226.35
918.70	226.32
919.00	226.33
919.30	226.39
919.60	226.41
919.91	226.42
920.21	226.43
920.51	226.43
920.81	226.41
921.12	226.43
921.42	226.45
921.72	226.45
922.02	226.44
922.32	226.42
922.63	226.45
922.93	226.51
923.23	226.53
923.53	226.51
923.83	226.45
924.13	226.46
924.44	226.45
924.74	226.47
925.04	226.53
925.34	226.51
925.64	226.47
925.94	226.51
926.24	226.53
926.55	226.51
926.85	226.51
927.15	226.52
927.45	226.49
927.75	226.45
928.05	226.48
928.35	226.45
928.65	226.44
928.95	226.42
929.26	226.37
929.56	226.33
929.86	226.31
930.16	226.28
930.46	226.26
930.76	226.28
931.06	226.23
931.36	226.14
931.66	226.13
931.96	226.11
932.26	226.06
932.56	226.04
932.86	226.06
933.16	226.07
933.46	226.03
933.76	226.04
934.06	226.06
934.36	226.04
934.66	226.04
934.96	226.06
935.26	226.03
935.56	226.01
935.86	226.02
936.16	226.00
936.46	225.99
936.76	226.01
937.06	225.97
937.36	225.94
937.66	225.99
937.96	225.98
938.26	225.96
938.56	225.96
938.86	225.94
939.16	225.91
939.46	225.91
939.76	225.94
940.06	225.91
940.35	225.88
940.65	225.83
940.95	225.84
941.25	225.78
941.55	225.78
941.85	225.81
942.15	225.83
942.45	225.85
942.75	225.87
943.04	225.86
943.34	225.90
943.64	225.91
943.94	225.89
944.24	225.90
944.54	225.92
944.84	225.91
945.13	225.88
945.43	225.87
945.73	225.87
946.03	225.86
946.33	225.84
946.62	225.86
946.92	225.91
947.22	225.93
947.52	225.93
947.82	225.96
948.11	225.94
948.41	225.92
948.71	225.89
949.01	225.90
949.31	225.90
949.60	225.91
949.90	225.92
950.20	225.91
950.50	225.91
950.79	225.91
951.09	225.94
951.39	225.94
951.69	225.94
951.98	225.93
952.28	225.94
952.58	225.96
952.87	225.97
953.17	225.99
953.47	225.97
953.76	225.99
954.06	225.99
954.36	225.96
954.66	225.98
954.95	226.06
955.25	226.08
955.55	226.10
955.84	226.06
956.14	226.06
956.44	226.07
956.73	226.09
957.03	226.11
957.32	226.11
957.62	226.15
957.92	226.20
958.21	226.22
958.51	226.34
958.81	226.37
959.10	226.36
959.40	226.37
959.69	226.36
959.99	226.39
960.29	226.37
960.58	226.40
960.88	226.42
961.17	226.37
961.47	226.34
961.76	226.35
962.06	226.38
962.36	226.39
962.65	226.41
962.95	226.40
963.24	226.37
963.54	226.41
963.83	226.42
964.13	226.38
964.42	226.36
964.72	226.25
965.01	226.25
965.31	226.23
965.60	226.23
965.90	226.29
966.19	226.27
966.49	226.29
966.78	226.25
967.08	226.21
967.37	226.19
967.67	226.18
967.96	226.17
968.26	226.14
968.55	226.11
968.85	226.08
969.14	226.07
969.43	226.05
969.73	226.00
970.02	225.95
970.32	225.94
970.61	225.90
970.91	225.90
971.20	225.85
971.49	225.84
971.79	225.80
972.08	225.72
972.38	225.71
972.67	225.69
972.96	225.71
973.26	225.70
973.55	225.73
973.85	225.69
974.14	225.68
974.43	225.70
974.73	225.71
975.02	225.69
975.31	225.70
975.61	225.71
975.90	225.73
976.19	225.71
976.49	225.73
976.78	225.76
977.07	225.73
977.37	225.74
977.66	225.74
977.95	225.77
978.24	225.80
978.54	225.83
978.83	225.80
979.12	225.82
979.42	225.84
979.71	225.85
980.00	225.87
980.29	225.85
980.59	225.86
980.88	225.87
981.17	225.90
981.46	225.87
981.76	225.89
982.05	225.92
982.34	225.94
982.63	225.95
982.93	225.96
983.22	226.03
983.51	226.05
983.80	226.09
984.09	226.09
984.39	226.08
984.68	226.09
984.97	226.13
985.26	226.10
985.55	226.10
985.85	226.06
986.14	226.08
986.43	226.13
986.72	226.10
987.01	226.09
987.30	226.06
987.59	226.08
987.89	226.07
988.18	226.05
988.47	226.08
988.76	226.06
989.05	226.05
989.34	226.05
989.63	226.09
989.92	226.08
990.22	226.09
990.51	226.10
990.80	226.07
991.09	226.10
991.38	226.16
991.67	226.16
991.96	226.14
992.25	226.18
992.54	226.16
992.83	226.19
993.12	226.20
993.41	226.23
993.70	226.27
993.99	226.33
994.28	226.31
994.58	226.30
994.87	226.28
995.16	226.28
995.45	226.22
995.74	226.18
996.03	226.18
996.32	226.17
996.61	226.15
996.90	226.15
997.19	226.12
997.48	226.06
997.77	226.05
998.06	226.05
998.34	226.02
998.63	226.02
998.92	226.00
999.21	226.02
999.50	226.05
999.79	225.99
1000.08	225.93
1000.37	225.94
1000.66	225.94
1000.95	225.95
1001.24	225.95
1001.53	225.96
1001.82	225.95
1002.11	225.94
1002.40	225.97
1002.68	225.98
1002.97	226.05
1003.26	226.02
1003.55	226.02
1003.84	226.02
1004.13	226.07
1004.42	226.06
1004.71	226.04
1004.99	226.04
1005.28	226.06
1005.57	226.03
1005.86	226.03
1006.15	226.05
1006.44	226.01
1006.72	226.00
1007.01	225.97
1007.30	225.96
1007.59	225.96
1007.88	225.93
1008.17	225.92
1008.45	225.88
1008.74	225.86
1009.03	225.81
1009.32	225.81
1009.60	225.82
1009.89	225.75
1010.18	225.71
1010.47	225.68
1010.76	225.69
1011.04	225.66
1011.33	225.60
1011.62	225.60
1011.91	225.62
1012.19	225.58
1012.48	225.58
1012.77	225.60
1013.05	225.71
1013.34	225.70
1013.63	225.70
1013.92	225.73
1014.20	225.70
1014.49	225.71
1014.78	225.71
1015.06	225.69
1015.35	225.69
1015.64	225.71
1015.92	225.77
1016.21	225.75
1016.50	225.78
1016.78	225.77
1017.07	225.80
1017.36	225.80
1017.64	225.78
1017.93	225.78
1018.22	225.80
1018.50	225.81
1018.79	225.78
1019.08	225.72
1019.36	225.73
1019.65	225.73
1019.93	225.76
1020.22	225.79
1020.51	225.82
1020.79	225.83
1021.08	225.60
1021.36	225.75
1021.65	225.74
1021.94	226.06
1022.22	225.60
1022.51	225.96
1022.79	226.45
1023.08	225.80
1023.36	226.90
1023.65	225.51
>>>>>End Processed Spectral Data<<<<<
