SpectraSuite Data File
++++++++++++++++++++++++++++++++++++
Date: Fri Feb 01 15:39:48 EST 2013
User: group
Dark Spectrum Present: No
Reference Spectrum Present: No
Number of Sampled Component Spectra: 1
Spectrometers: USB2E7196
Integration Time (usec): 35000 (USB2E7196)
Spectra Averaged: 100 (USB2E7196)
Boxcar Smoothing: 10 (USB2E7196)
Correct for Electrical Dark: No (USB2E7196)
Strobe/Lamp Enabled: No (USB2E7196)
Correct for Detector Non-linearity: No (USB2E7196)
Correct for Stray Light: No (USB2E7196)
Number of Pixels in Processed Spectrum: 2048
>>>>>Begin Processed Spectral Data<<<<<
339.09	0.00
339.48	214.71
339.86	216.67
340.24	217.22
340.63	219.27
341.01	221.75
341.39	221.61
341.78	223.13
342.16	223.96
342.54	224.87
342.93	213.11
343.31	223.90
343.69	224.44
344.07	224.89
344.46	225.32
344.84	225.69
345.22	225.91
345.60	226.14
345.99	226.32
346.37	226.44
346.75	226.51
347.13	226.59
347.52	226.62
347.90	226.72
348.28	226.74
348.66	226.79
349.05	226.79
349.43	226.85
349.81	226.90
350.19	226.93
350.57	227.00
350.96	227.08
351.34	227.14
351.72	227.26
352.10	227.34
352.48	227.43
352.87	227.49
353.25	227.58
353.63	227.65
354.01	227.72
354.39	227.82
354.77	227.92
355.15	228.04
355.54	228.16
355.92	228.19
356.30	228.26
356.68	228.40
357.06	228.44
357.44	228.49
357.82	228.57
358.20	228.64
358.58	228.69
358.97	228.74
359.35	228.81
359.73	228.86
360.11	228.92
360.49	228.98
360.87	229.01
361.25	229.07
361.63	229.18
362.01	229.27
362.39	229.29
362.77	229.36
363.15	229.36
363.53	229.35
363.91	229.37
364.29	229.42
364.67	229.35
365.05	229.40
365.43	229.43
365.81	229.40
366.19	229.45
366.57	229.50
366.95	229.51
367.33	229.50
367.71	229.50
368.09	229.52
368.47	229.53
368.85	229.55
369.23	229.54
369.61	229.48
369.99	229.46
370.37	229.42
370.75	229.41
371.13	229.39
371.51	229.37
371.89	229.33
372.27	229.24
372.65	229.22
373.03	229.15
373.41	229.08
373.78	229.07
374.16	228.96
374.54	228.86
374.92	228.81
375.30	228.75
375.68	228.65
376.06	228.59
376.44	228.48
376.82	228.41
377.19	228.35
377.57	228.28
377.95	228.15
378.33	228.10
378.71	227.99
379.09	227.91
379.47	227.85
379.84	227.79
380.22	227.75
380.60	227.64
380.98	227.56
381.36	227.48
381.73	227.39
382.11	227.33
382.49	227.24
382.87	227.14
383.25	227.07
383.62	227.11
384.00	227.01
384.38	226.96
384.76	226.90
385.13	226.87
385.51	226.77
385.89	226.73
386.27	226.67
386.64	226.62
387.02	226.56
387.40	226.48
387.78	226.42
388.15	226.39
388.53	226.36
388.91	226.35
389.29	226.31
389.66	226.26
390.04	226.22
390.42	226.24
390.79	226.22
391.17	226.20
391.55	226.10
391.92	226.11
392.30	226.13
392.68	226.13
393.05	226.10
393.43	226.15
393.81	226.14
394.18	226.12
394.56	226.14
394.94	226.17
395.31	226.21
395.69	226.25
396.06	226.30
396.44	226.33
396.82	226.34
397.19	226.42
397.57	226.50
397.95	226.54
398.32	226.54
398.70	226.65
399.07	226.71
399.45	226.74
399.82	226.81
400.20	226.83
400.58	226.87
400.95	226.95
401.33	227.01
401.70	227.20
402.08	227.32
402.45	227.43
402.83	227.55
403.20	227.65
403.58	227.74
403.95	227.83
404.33	227.96
404.71	228.12
405.08	228.32
405.46	228.43
405.83	228.60
406.21	228.78
406.58	228.96
406.96	229.15
407.33	229.35
407.70	229.55
408.08	229.88
408.45	230.12
408.83	230.37
409.20	230.60
409.58	230.75
409.95	231.04
410.33	231.30
410.70	231.55
411.08	231.86
411.45	232.18
411.82	232.52
412.20	232.88
412.57	233.29
412.95	233.60
413.32	234.04
413.69	234.46
414.07	234.91
414.44	235.35
414.82	235.83
415.19	236.36
415.56	236.89
415.94	237.41
416.31	238.05
416.68	238.68
417.06	239.44
417.43	240.13
417.81	240.84
418.18	241.64
418.55	242.48
418.93	243.39
419.30	244.31
419.67	245.27
420.04	246.24
420.42	247.25
420.79	248.40
421.16	249.52
421.54	250.75
421.91	251.96
422.28	253.23
422.66	254.54
423.03	255.87
423.40	257.25
423.77	258.69
424.15	260.12
424.52	261.59
424.89	263.15
425.26	264.70
425.64	266.21
426.01	267.79
426.38	269.45
426.75	271.09
427.13	272.80
427.50	274.60
427.87	276.50
428.24	278.35
428.61	280.13
428.99	282.07
429.36	284.15
429.73	286.20
430.10	288.22
430.47	290.31
430.85	292.43
431.22	294.65
431.59	297.00
431.96	299.25
432.33	301.77
432.70	304.18
433.08	307.01
433.45	309.65
433.82	312.26
434.19	315.14
434.56	317.98
434.93	320.59
435.30	323.21
435.68	326.06
436.05	328.88
436.42	331.66
436.79	334.19
437.16	336.90
437.53	339.71
437.90	342.52
438.27	345.26
438.64	348.09
439.01	350.67
439.38	352.87
439.75	355.01
440.13	357.45
440.50	359.74
440.87	361.51
441.24	363.45
441.61	365.62
441.98	367.12
442.35	368.90
442.72	370.82
443.09	372.62
443.46	373.58
443.83	374.16
444.20	374.65
444.57	375.50
444.94	375.80
445.31	376.19
445.68	376.53
446.05	376.57
446.42	376.13
446.79	375.69
447.16	375.26
447.53	374.95
447.90	373.78
448.27	372.67
448.64	371.14
449.01	370.00
449.37	368.00
449.74	366.10
450.11	363.81
450.48	361.26
450.85	358.73
451.22	356.64
451.59	354.61
451.96	352.64
452.33	350.00
452.70	347.58
453.07	344.71
453.43	341.78
453.80	339.02
454.17	336.35
454.54	333.83
454.91	331.09
455.28	328.42
455.65	325.91
456.02	323.44
456.38	321.26
456.75	318.55
457.12	316.32
457.49	314.11
457.86	311.98
458.23	310.15
458.59	308.08
458.96	305.98
459.33	304.16
459.70	302.33
460.07	300.84
460.43	299.15
460.80	297.53
461.17	296.10
461.54	294.64
461.91	293.21
462.27	291.77
462.64	290.54
463.01	289.21
463.38	287.93
463.74	286.57
464.11	285.42
464.48	284.43
464.85	283.31
465.21	282.42
465.58	281.48
465.95	280.41
466.32	279.50
466.68	278.59
467.05	277.70
467.42	276.78
467.78	275.81
468.15	274.96
468.52	274.31
468.88	273.45
469.25	272.65
469.62	272.06
469.98	271.39
470.35	270.75
470.72	270.15
471.08	269.54
471.45	268.99
471.82	268.43
472.18	267.85
472.55	267.44
472.92	266.94
473.28	266.47
473.65	266.03
474.02	265.60
474.38	265.27
474.75	264.94
475.11	264.61
475.48	264.39
475.85	264.19
476.21	263.93
476.58	263.80
476.94	263.68
477.31	263.54
477.67	263.38
478.04	263.29
478.41	263.23
478.77	263.25
479.14	263.21
479.50	263.23
479.87	263.29
480.23	263.38
480.60	263.46
480.96	263.55
481.33	263.78
481.69	264.01
482.06	264.20
482.42	264.41
482.79	264.67
483.15	264.99
483.52	265.33
483.88	265.71
484.25	266.08
484.61	266.53
484.98	266.98
485.34	267.58
485.71	268.19
486.07	268.78
486.44	269.35
486.80	270.02
487.17	270.78
487.53	271.58
487.90	272.41
488.26	273.30
488.62	274.29
488.99	275.22
489.35	276.22
489.72	277.34
490.08	278.51
490.44	279.75
490.81	281.05
491.17	282.39
491.54	283.89
491.90	285.41
492.26	287.06
492.63	288.74
492.99	290.47
493.36	292.32
493.72	294.34
494.08	296.43
494.45	298.69
494.81	301.04
495.17	303.48
495.54	306.04
495.90	308.77
496.26	311.57
496.63	314.56
496.99	317.68
497.35	320.94
497.72	324.36
498.08	327.86
498.44	331.50
498.80	335.42
499.17	339.39
499.53	343.54
499.89	347.86
500.26	352.40
500.62	357.12
500.98	362.09
501.34	367.09
501.71	372.41
502.07	377.83
502.43	383.47
502.79	389.27
503.16	395.32
503.52	401.56
503.88	407.96
504.24	414.60
504.60	421.51
504.97	428.60
505.33	435.90
505.69	443.61
506.05	451.43
506.41	459.34
506.78	467.51
507.14	476.02
507.50	484.78
507.86	493.81
508.22	502.98
508.59	512.19
508.95	521.86
509.31	531.69
509.67	541.83
510.03	552.17
510.39	562.68
510.75	573.55
511.12	584.48
511.48	595.77
511.84	607.15
512.20	618.65
512.56	630.67
512.92	642.87
513.28	655.19
513.64	667.73
514.00	680.41
514.37	693.38
514.73	706.41
515.09	719.44
515.45	732.72
515.81	746.33
516.17	760.31
516.53	774.42
516.89	788.55
517.25	802.74
517.61	817.09
517.97	831.61
518.33	846.13
518.69	860.87
519.05	875.98
519.41	891.27
519.77	906.79
520.13	922.21
520.49	937.59
520.85	953.07
521.21	968.75
521.57	984.98
521.93	1000.78
522.29	1017.24
522.65	1033.45
523.01	1049.71
523.37	1065.72
523.73	1082.01
524.09	1098.09
524.45	1114.49
524.81	1131.11
525.17	1147.98
525.53	1164.83
525.89	1181.60
526.25	1198.57
526.61	1214.85
526.97	1231.68
527.33	1248.25
527.68	1265.00
528.04	1281.52
528.40	1298.13
528.76	1315.21
529.12	1331.82
529.48	1348.71
529.84	1364.82
530.20	1381.48
530.56	1398.60
530.91	1416.08
531.27	1432.79
531.63	1449.30
531.99	1465.88
532.35	1481.91
532.71	1497.76
533.07	1514.18
533.42	1530.13
533.78	1546.25
534.14	1562.58
534.50	1577.77
534.86	1593.60
535.21	1608.70
535.57	1624.74
535.93	1640.26
536.29	1655.11
536.65	1670.21
537.00	1685.05
537.36	1700.28
537.72	1714.84
538.08	1729.18
538.44	1743.03
538.79	1756.93
539.15	1770.65
539.51	1784.47
539.87	1798.83
540.22	1812.71
540.58	1826.41
540.94	1839.68
541.29	1852.50
541.65	1865.22
542.01	1878.57
542.37	1891.00
542.72	1903.48
543.08	1915.26
543.44	1927.70
543.79	1938.88
544.15	1949.87
544.51	1961.40
544.87	1972.52
545.22	1983.44
545.58	1993.70
545.94	2003.40
546.29	2013.33
546.65	2023.09
547.01	2032.25
547.36	2040.93
547.72	2049.40
548.07	2057.27
548.43	2065.51
548.79	2073.54
549.14	2080.89
549.50	2088.21
549.86	2095.90
550.21	2103.11
550.57	2110.24
550.92	2116.83
551.28	2123.85
551.64	2130.93
551.99	2137.43
552.35	2143.46
552.70	2149.58
553.06	2155.52
553.41	2161.88
553.77	2167.93
554.13	2174.22
554.48	2180.33
554.84	2185.80
555.19	2191.01
555.55	2196.09
555.90	2200.52
556.26	2205.33
556.61	2210.09
556.97	2214.30
557.32	2218.35
557.68	2222.40
558.03	2226.66
558.39	2230.35
558.74	2234.88
559.10	2238.80
559.45	2242.48
559.81	2246.74
560.16	2250.53
560.52	2253.88
560.87	2257.31
561.23	2259.96
561.58	2262.77
561.94	2265.33
562.29	2267.77
562.64	2270.56
563.00	2273.15
563.35	2276.74
563.71	2279.93
564.06	2283.23
564.42	2286.12
564.77	2288.59
565.12	2290.86
565.48	2292.86
565.83	2294.71
566.19	2296.10
566.54	2296.99
566.89	2298.14
567.25	2298.74
567.60	2300.14
567.96	2301.62
568.31	2302.52
568.66	2303.51
569.02	2304.12
569.37	2304.43
569.72	2305.31
570.08	2305.40
570.43	2305.54
570.78	2304.83
571.14	2303.25
571.49	2302.02
571.84	2301.66
572.20	2300.50
572.55	2299.53
572.90	2297.80
573.26	2296.32
573.61	2294.62
573.96	2292.72
574.31	2289.66
574.67	2286.53
575.02	2282.79
575.37	2279.49
575.72	2275.56
576.08	2272.19
576.43	2268.79
576.78	2265.07
577.13	2261.79
577.49	2258.62
577.84	2255.16
578.19	2251.50
578.54	2247.79
578.90	2243.39
579.25	2237.71
579.60	2232.67
579.95	2227.66
580.30	2222.69
580.66	2217.58
581.01	2212.64
581.36	2207.83
581.71	2203.67
582.06	2199.15
582.42	2194.76
582.77	2189.47
583.12	2184.89
583.47	2180.10
583.82	2175.03
584.17	2169.69
584.53	2164.03
584.88	2158.35
585.23	2152.42
585.58	2146.90
585.93	2141.38
586.28	2136.66
586.63	2131.71
586.98	2126.66
587.34	2121.92
587.69	2116.98
588.04	2111.49
588.39	2105.80
588.74	2099.31
589.09	2093.11
589.44	2086.32
589.79	2080.22
590.14	2074.68
590.49	2067.99
590.84	2061.66
591.19	2055.67
591.54	2049.26
591.89	2041.90
592.25	2034.94
592.60	2027.61
592.95	2020.02
593.30	2012.54
593.65	2004.86
594.00	1997.74
594.35	1990.42
594.70	1982.22
595.05	1974.92
595.40	1967.82
595.75	1960.26
596.10	1953.95
596.45	1947.17
596.80	1940.94
597.15	1934.26
597.50	1926.91
597.85	1920.50
598.19	1913.79
598.54	1906.56
598.89	1899.89
599.24	1894.06
599.59	1887.45
599.94	1881.32
600.29	1874.88
600.64	1868.43
600.99	1861.04
601.34	1854.12
601.69	1847.23
602.04	1840.46
602.39	1833.01
602.74	1825.99
603.08	1819.15
603.43	1812.37
603.78	1805.09
604.13	1797.88
604.48	1790.46
604.83	1783.66
605.18	1776.57
605.53	1768.49
605.87	1760.60
606.22	1753.44
606.57	1745.35
606.92	1738.00
607.27	1730.75
607.62	1723.76
607.96	1716.40
608.31	1709.69
608.66	1702.14
609.01	1694.44
609.36	1686.79
609.70	1678.78
610.05	1670.75
610.40	1663.16
610.75	1654.84
611.10	1647.02
611.44	1638.68
611.79	1630.72
612.14	1621.92
612.49	1612.86
612.83	1604.56
613.18	1596.44
613.53	1588.36
613.88	1579.82
614.22	1571.55
614.57	1562.93
614.92	1554.98
615.27	1547.40
615.61	1539.05
615.96	1530.90
616.31	1523.45
616.65	1516.15
617.00	1508.61
617.35	1501.01
617.70	1492.60
618.04	1484.08
618.39	1476.00
618.74	1468.34
619.08	1460.01
619.43	1452.53
619.78	1445.52
620.12	1438.26
620.47	1430.57
620.82	1422.33
621.16	1415.04
621.51	1407.43
621.85	1399.92
622.20	1391.36
622.55	1383.09
622.89	1375.29
623.24	1367.82
623.59	1360.25
623.93	1352.64
624.28	1345.46
624.62	1337.86
624.97	1330.75
625.32	1324.15
625.66	1317.08
626.01	1309.86
626.35	1302.43
626.70	1294.83
627.04	1287.07
627.39	1279.46
627.73	1272.08
628.08	1265.10
628.43	1257.65
628.77	1250.18
629.12	1242.48
629.46	1235.33
629.81	1227.91
630.15	1220.68
630.50	1213.24
630.84	1205.24
631.19	1197.51
631.53	1190.02
631.88	1182.48
632.22	1174.85
632.57	1167.39
632.91	1159.93
633.26	1152.65
633.60	1145.41
633.95	1138.25
634.29	1131.35
634.64	1124.65
634.98	1117.33
635.32	1110.24
635.67	1103.78
636.01	1097.24
636.36	1090.46
636.70	1083.97
637.05	1077.38
637.39	1071.02
637.73	1064.44
638.08	1058.45
638.42	1052.33
638.77	1045.85
639.11	1039.31
639.45	1032.91
639.80	1026.26
640.14	1019.69
640.49	1013.17
640.83	1006.77
641.17	1000.40
641.52	994.07
641.86	987.48
642.20	981.62
642.55	975.29
642.89	968.73
643.23	962.18
643.58	956.48
643.92	950.15
644.26	944.05
644.61	937.92
644.95	931.93
645.29	925.19
645.64	918.45
645.98	912.06
646.32	906.26
646.66	900.20
647.01	894.36
647.35	888.66
647.69	882.73
648.04	877.18
648.38	871.49
648.72	865.38
649.06	859.39
649.41	853.46
649.75	847.50
650.09	841.61
650.43	835.80
650.78	829.62
651.12	823.72
651.46	818.06
651.80	812.29
652.14	806.89
652.49	801.70
652.83	796.54
653.17	790.87
653.51	785.07
653.85	779.66
654.20	774.02
654.54	768.04
654.88	762.38
655.22	756.55
655.56	750.87
655.90	745.49
656.25	740.28
656.59	735.00
656.93	729.90
657.27	724.71
657.61	719.31
657.95	714.21
658.29	709.13
658.64	703.94
658.98	698.76
659.32	693.27
659.66	688.05
660.00	682.80
660.34	677.89
660.68	673.01
661.02	668.00
661.36	663.34
661.70	658.86
662.05	654.44
662.39	650.05
662.73	645.59
663.07	641.21
663.41	636.73
663.75	632.18
664.09	627.67
664.43	623.32
664.77	619.21
665.11	614.92
665.45	610.84
665.79	606.71
666.13	602.53
666.47	598.50
666.81	594.33
667.15	590.15
667.49	586.30
667.83	582.58
668.17	578.66
668.51	574.56
668.85	570.52
669.19	566.70
669.53	562.89
669.87	558.99
670.21	555.31
670.55	551.66
670.89	548.26
671.23	544.78
671.57	541.27
671.91	537.71
672.25	534.37
672.58	530.86
672.92	527.43
673.26	524.24
673.60	521.05
673.94	517.97
674.28	515.08
674.62	512.05
674.96	508.84
675.30	505.88
675.64	502.99
675.97	500.23
676.31	497.39
676.65	494.45
676.99	491.71
677.33	488.83
677.67	486.02
678.01	483.03
678.34	480.05
678.68	477.19
679.02	474.38
679.36	471.48
679.70	468.80
680.04	466.06
680.37	463.22
680.71	460.43
681.05	457.79
681.39	455.06
681.73	452.46
682.06	450.01
682.40	447.55
682.74	445.01
683.08	442.46
683.42	439.90
683.75	437.40
684.09	434.92
684.43	432.48
684.77	430.03
685.10	427.71
685.44	425.43
685.78	423.10
686.12	420.82
686.45	418.52
686.79	416.20
687.13	413.96
687.46	411.78
687.80	409.67
688.14	407.46
688.48	405.42
688.81	403.15
689.15	401.02
689.49	398.82
689.82	396.74
690.16	394.70
690.50	392.73
690.83	390.81
691.17	388.77
691.51	386.82
691.84	384.97
692.18	382.98
692.52	381.00
692.85	379.10
693.19	377.23
693.52	375.42
693.86	373.64
694.20	371.87
694.53	370.07
694.87	368.21
695.21	366.46
695.54	364.63
695.88	362.90
696.21	361.15
696.55	359.47
696.88	357.82
697.22	356.14
697.56	354.50
697.89	352.82
698.23	351.25
698.56	349.65
698.90	348.04
699.23	346.45
699.57	344.89
699.90	343.37
700.24	341.81
700.58	340.28
700.91	338.72
701.25	337.31
701.58	335.94
701.92	334.57
702.25	333.16
702.59	331.80
702.92	330.48
703.26	329.22
703.59	327.92
703.93	326.71
704.26	325.45
704.60	324.18
704.93	322.95
705.26	321.71
705.60	320.56
705.93	319.44
706.27	318.41
706.60	317.34
706.94	316.24
707.27	315.16
707.61	314.13
707.94	313.14
708.27	312.02
708.61	310.92
708.94	309.92
709.28	308.96
709.61	308.02
709.94	307.07
710.28	306.00
710.61	305.02
710.95	303.94
711.28	303.03
711.61	302.04
711.95	301.10
712.28	300.14
712.61	299.15
712.95	298.24
713.28	297.35
713.61	296.50
713.95	295.60
714.28	294.74
714.61	293.84
714.95	292.98
715.28	292.16
715.61	291.31
715.95	290.43
716.28	289.53
716.61	288.68
716.95	287.83
717.28	287.11
717.61	286.36
717.94	285.62
718.28	284.81
718.61	284.08
718.94	283.37
719.27	282.71
719.61	282.05
719.94	281.36
720.27	280.60
720.60	279.87
720.94	279.25
721.27	278.66
721.60	278.08
721.93	277.51
722.27	276.95
722.60	276.38
722.93	275.80
723.26	275.33
723.59	274.76
723.93	274.21
724.26	273.63
724.59	273.07
724.92	272.54
725.25	272.08
725.59	271.55
725.92	271.06
726.25	270.54
726.58	270.05
726.91	269.53
727.24	269.10
727.57	268.64
727.91	268.11
728.24	267.63
728.57	267.13
728.90	266.67
729.23	266.16
729.56	265.76
729.89	265.30
730.22	264.77
730.55	264.29
730.89	263.85
731.22	263.40
731.55	262.98
731.88	262.57
732.21	262.13
732.54	261.71
732.87	261.23
733.20	260.82
733.53	260.41
733.86	260.05
734.19	259.60
734.52	259.23
734.85	258.94
735.18	258.54
735.51	258.17
735.84	257.78
736.17	257.46
736.50	257.04
736.83	256.80
737.16	256.49
737.49	256.16
737.82	255.86
738.15	255.55
738.48	255.19
738.81	254.87
739.14	254.53
739.47	254.21
739.80	253.97
740.13	253.69
740.46	253.39
740.79	253.07
741.12	252.78
741.45	252.52
741.78	252.14
742.11	251.87
742.44	251.55
742.77	251.26
743.10	250.93
743.43	250.67
743.75	250.27
744.08	250.12
744.41	249.88
744.74	249.61
745.07	249.32
745.40	249.15
745.73	248.88
746.06	248.63
746.39	248.38
746.71	248.06
747.04	247.81
747.37	247.56
747.70	247.31
748.03	247.05
748.36	246.78
748.68	246.56
749.01	246.32
749.34	246.11
749.67	245.90
750.00	245.68
750.33	245.51
750.65	245.33
750.98	244.98
751.31	244.75
751.64	244.49
751.97	244.35
752.29	244.03
752.62	243.81
752.95	243.61
753.28	243.39
753.60	243.21
753.93	243.01
754.26	242.76
754.59	242.57
754.91	242.39
755.24	242.19
755.57	241.99
755.90	241.79
756.22	241.61
756.55	241.39
756.88	241.23
757.20	241.00
757.53	240.79
757.86	240.62
758.19	240.48
758.51	240.31
758.84	240.04
759.17	239.91
759.49	239.75
759.82	239.61
760.15	239.45
760.47	239.30
760.80	239.13
761.13	239.01
761.45	238.83
761.78	238.67
762.11	238.52
762.43	238.41
762.76	238.27
763.08	238.15
763.41	238.04
763.74	237.89
764.06	237.69
764.39	237.57
764.71	237.43
765.04	237.29
765.37	237.16
765.69	237.08
766.02	236.94
766.34	236.81
766.67	236.68
767.00	236.56
767.32	236.46
767.65	236.40
767.97	236.29
768.30	236.18
768.62	236.08
768.95	235.98
769.27	235.84
769.60	235.72
769.92	235.57
770.25	235.44
770.57	235.33
770.90	235.28
771.22	235.16
771.55	235.05
771.87	234.95
772.20	234.87
772.52	234.87
772.85	234.88
773.17	234.81
773.50	234.68
773.82	234.64
774.15	234.54
774.47	234.38
774.80	234.30
775.12	234.22
775.45	234.13
775.77	234.06
776.09	234.00
776.42	233.92
776.74	233.89
777.07	233.84
777.39	233.75
777.72	233.66
778.04	233.63
778.36	233.58
778.69	233.53
779.01	233.48
779.33	233.30
779.66	233.16
779.98	233.08
780.31	233.04
780.63	233.00
780.95	232.98
781.28	232.95
781.60	232.90
781.92	232.82
782.25	232.77
782.57	232.72
782.89	232.63
783.22	232.57
783.54	232.50
783.86	232.46
784.19	232.44
784.51	232.42
784.83	232.36
785.16	232.29
785.48	232.23
785.80	232.18
786.12	232.17
786.45	232.13
786.77	232.05
787.09	231.98
787.42	231.87
787.74	231.84
788.06	231.79
788.38	231.74
788.71	231.71
789.03	231.68
789.35	231.67
789.67	231.66
789.99	231.65
790.32	231.66
790.64	231.59
790.96	231.63
791.28	231.54
791.61	231.50
791.93	231.48
792.25	231.44
792.57	231.45
792.89	231.35
793.21	231.32
793.54	231.30
793.86	231.27
794.18	231.23
794.50	231.15
794.82	231.09
795.14	231.05
795.47	231.03
795.79	230.95
796.11	230.85
796.43	230.78
796.75	230.72
797.07	230.66
797.39	230.63
797.71	230.50
798.04	230.47
798.36	230.39
798.68	230.33
799.00	230.29
799.32	230.22
799.64	230.20
799.96	230.13
800.28	230.10
800.60	230.05
800.92	230.03
801.24	229.98
801.56	229.97
801.89	229.92
802.21	229.85
802.53	229.83
802.85	229.80
803.17	229.82
803.49	229.75
803.81	229.68
804.13	229.60
804.45	229.58
804.77	229.56
805.09	229.57
805.41	229.52
805.73	229.46
806.05	229.40
806.37	229.38
806.69	229.36
807.01	229.30
807.33	229.28
807.65	229.22
807.97	229.24
808.28	229.19
808.60	229.12
808.92	229.10
809.24	229.15
809.56	229.13
809.88	229.05
810.20	229.07
810.52	229.06
810.84	229.04
811.16	229.01
811.48	229.00
811.80	228.99
812.12	229.01
812.43	229.04
812.75	229.02
813.07	228.97
813.39	228.98
813.71	228.98
814.03	228.95
814.35	228.93
814.67	228.85
814.98	228.84
815.30	228.86
815.62	228.86
815.94	228.78
816.26	228.80
816.58	228.79
816.89	228.79
817.21	228.75
817.53	228.73
817.85	228.72
818.17	228.68
818.48	228.65
818.80	228.62
819.12	228.58
819.44	228.56
819.76	228.58
820.07	228.56
820.39	228.56
820.71	228.56
821.03	228.56
821.34	228.60
821.66	228.61
821.98	228.60
822.30	228.57
822.61	228.61
822.93	228.58
823.25	228.60
823.57	228.57
823.88	228.61
824.20	228.62
824.52	228.64
824.83	228.64
825.15	228.66
825.47	228.65
825.79	228.64
826.10	228.65
826.42	228.66
826.74	228.63
827.05	228.61
827.37	228.61
827.69	228.61
828.00	228.58
828.32	228.56
828.64	228.54
828.95	228.61
829.27	228.57
829.58	228.58
829.90	228.56
830.22	228.56
830.53	228.51
830.85	228.51
831.17	228.52
831.48	228.49
831.80	228.45
832.11	228.42
832.43	228.44
832.75	228.40
833.06	228.40
833.38	228.39
833.69	228.36
834.01	228.37
834.32	228.36
834.64	228.34
834.96	228.35
835.27	228.32
835.59	228.24
835.90	228.22
836.22	228.16
836.53	228.11
836.85	228.11
837.16	228.20
837.48	228.19
837.79	228.17
838.11	228.15
838.42	228.17
838.74	228.17
839.05	228.10
839.37	228.08
839.68	228.00
840.00	227.97
840.31	228.02
840.63	227.94
840.94	227.89
841.26	227.86
841.57	227.85
841.88	227.86
842.20	227.85
842.51	227.80
842.83	227.80
843.14	227.87
843.46	227.84
843.77	227.75
844.08	227.72
844.40	227.67
844.71	227.66
845.03	227.62
845.34	227.60
845.65	227.59
845.97	227.57
846.28	227.55
846.60	227.56
846.91	227.48
847.22	227.49
847.54	227.51
847.85	227.53
848.16	227.49
848.48	227.45
848.79	227.50
849.10	227.50
849.42	227.51
849.73	227.42
850.04	227.40
850.36	227.38
850.67	227.37
850.98	227.39
851.30	227.37
851.61	227.34
851.92	227.32
852.23	227.37
852.55	227.39
852.86	227.40
853.17	227.38
853.49	227.42
853.80	227.42
854.11	227.43
854.42	227.42
854.74	227.44
855.05	227.45
855.36	227.37
855.67	227.37
855.99	227.36
856.30	227.47
856.61	227.46
856.92	227.44
857.23	227.43
857.55	227.40
857.86	227.44
858.17	227.45
858.48	227.43
858.79	227.40
859.11	227.42
859.42	227.42
859.73	227.47
860.04	227.45
860.35	227.42
860.66	227.41
860.98	227.41
861.29	227.40
861.60	227.41
861.91	227.46
862.22	227.47
862.53	227.46
862.84	227.35
863.16	227.40
863.47	227.42
863.78	227.43
864.09	227.46
864.40	227.45
864.71	227.46
865.02	227.50
865.33	227.48
865.64	227.51
865.95	227.52
866.27	227.56
866.58	227.56
866.89	227.59
867.20	227.60
867.51	227.56
867.82	227.58
868.13	227.60
868.44	227.56
868.75	227.59
869.06	227.62
869.37	227.63
869.68	227.60
869.99	227.62
870.30	227.62
870.61	227.63
870.92	227.66
871.23	227.69
871.54	227.68
871.85	227.74
872.16	227.70
872.47	227.69
872.78	227.61
873.09	227.62
873.40	227.62
873.71	227.61
874.02	227.64
874.33	227.63
874.64	227.61
874.95	227.66
875.26	227.64
875.56	227.61
875.87	227.61
876.18	227.60
876.49	227.67
876.80	227.66
877.11	227.63
877.42	227.60
877.73	227.59
878.04	227.59
878.35	227.58
878.66	227.58
878.96	227.58
879.27	227.60
879.58	227.62
879.89	227.60
880.20	227.61
880.51	227.59
880.82	227.58
881.12	227.59
881.43	227.56
881.74	227.53
882.05	227.55
882.36	227.54
882.67	227.54
882.97	227.42
883.28	227.42
883.59	227.42
883.90	227.42
884.21	227.43
884.51	227.39
884.82	227.33
885.13	227.34
885.44	227.32
885.74	227.29
886.05	227.30
886.36	227.28
886.67	227.26
886.98	227.33
887.28	227.31
887.59	227.28
887.90	227.27
888.20	227.28
888.51	227.28
888.82	227.25
889.13	227.24
889.43	227.35
889.74	227.32
890.05	227.32
890.35	227.31
890.66	227.28
890.97	227.27
891.28	227.28
891.58	227.25
891.89	227.22
892.20	227.22
892.50	227.19
892.81	227.18
893.12	227.15
893.42	227.05
893.73	227.09
894.04	227.06
894.34	227.05
894.65	227.03
894.95	227.00
895.26	227.00
895.57	227.04
895.87	226.94
896.18	226.96
896.48	226.93
896.79	226.92
897.10	226.92
897.40	226.93
897.71	226.93
898.01	226.91
898.32	226.93
898.63	226.92
898.93	226.94
899.24	226.96
899.54	226.98
899.85	226.98
900.15	226.95
900.46	226.99
900.76	226.99
901.07	226.98
901.38	226.99
901.68	227.00
901.99	226.92
902.29	226.92
902.60	226.89
902.90	226.90
903.21	226.93
903.51	226.92
903.82	226.94
904.12	226.93
904.43	226.97
904.73	227.00
905.03	226.99
905.34	227.06
905.64	227.04
905.95	227.01
906.25	227.04
906.56	227.05
906.86	227.01
907.17	227.00
907.47	227.01
907.77	227.02
908.08	226.98
908.38	227.02
908.69	227.03
908.99	227.06
909.30	227.07
909.60	227.05
909.90	227.06
910.21	227.02
910.51	227.01
910.81	226.96
911.12	226.95
911.42	226.99
911.73	226.91
912.03	226.93
912.33	226.99
912.64	226.98
912.94	226.99
913.24	227.02
913.55	227.00
913.85	227.01
914.15	227.03
914.46	227.10
914.76	227.10
915.06	227.09
915.37	227.07
915.67	227.08
915.97	227.08
916.27	227.07
916.58	227.09
916.88	227.11
917.18	227.13
917.49	227.17
917.79	227.13
918.09	227.13
918.39	227.16
918.70	227.14
919.00	227.14
919.30	227.13
919.60	227.09
919.91	227.09
920.21	227.10
920.51	227.06
920.81	227.04
921.12	227.04
921.42	227.01
921.72	227.02
922.02	227.01
922.32	227.01
922.63	227.03
922.93	227.05
923.23	227.03
923.53	226.99
923.83	226.95
924.13	227.00
924.44	226.98
924.74	226.98
925.04	226.99
925.34	226.98
925.64	226.98
925.94	226.99
926.24	227.05
926.55	227.02
926.85	227.03
927.15	227.03
927.45	227.01
927.75	227.01
928.05	227.01
928.35	227.00
928.65	227.02
928.95	226.98
929.26	226.95
929.56	226.96
929.86	227.01
930.16	227.00
930.46	226.95
930.76	226.94
931.06	226.88
931.36	226.85
931.66	226.84
931.96	226.84
932.26	226.85
932.56	226.83
932.86	226.83
933.16	226.82
933.46	226.76
933.76	226.80
934.06	226.85
934.36	226.87
934.66	226.88
934.96	226.86
935.26	226.89
935.56	226.94
935.86	226.95
936.16	226.93
936.46	226.92
936.76	226.92
937.06	226.90
937.36	226.91
937.66	226.90
937.96	226.88
938.26	226.84
938.56	226.81
938.86	226.79
939.16	226.80
939.46	226.81
939.76	226.84
940.06	226.79
940.35	226.75
940.65	226.68
940.95	226.69
941.25	226.68
941.55	226.65
941.85	226.62
942.15	226.60
942.45	226.60
942.75	226.58
943.04	226.60
943.34	226.62
943.64	226.59
943.94	226.59
944.24	226.65
944.54	226.67
944.84	226.67
945.13	226.66
945.43	226.62
945.73	226.61
946.03	226.61
946.33	226.63
946.62	226.62
946.92	226.64
947.22	226.64
947.52	226.63
947.82	226.61
948.11	226.60
948.41	226.60
948.71	226.58
949.01	226.57
949.31	226.55
949.60	226.57
949.90	226.59
950.20	226.57
950.50	226.54
950.79	226.55
951.09	226.58
951.39	226.61
951.69	226.65
951.98	226.65
952.28	226.65
952.58	226.66
952.87	226.67
953.17	226.68
953.47	226.66
953.76	226.68
954.06	226.71
954.36	226.68
954.66	226.67
954.95	226.74
955.25	226.76
955.55	226.80
955.84	226.77
956.14	226.80
956.44	226.83
956.73	226.83
957.03	226.86
957.32	226.86
957.62	226.85
957.92	226.86
958.21	226.88
958.51	226.99
958.81	226.95
959.10	226.96
959.40	227.00
959.69	227.01
959.99	227.02
960.29	227.00
960.58	227.04
960.88	227.08
961.17	227.02
961.47	227.04
961.76	227.03
962.06	227.02
962.36	227.01
962.65	227.01
962.95	227.00
963.24	226.97
963.54	226.98
963.83	226.97
964.13	226.93
964.42	226.93
964.72	226.84
965.01	226.88
965.31	226.85
965.60	226.83
965.90	226.89
966.19	226.85
966.49	226.88
966.78	226.89
967.08	226.91
967.37	226.89
967.67	226.88
967.96	226.88
968.26	226.91
968.55	226.93
968.85	226.93
969.14	226.96
969.43	226.95
969.73	226.93
970.02	226.95
970.32	226.97
970.61	226.96
970.91	226.95
971.20	226.97
971.49	227.00
971.79	227.00
972.08	226.96
972.38	226.96
972.67	226.96
972.96	226.94
973.26	226.91
973.55	226.97
973.85	226.94
974.14	226.98
974.43	226.98
974.73	226.93
975.02	226.93
975.31	226.93
975.61	226.91
975.90	226.90
976.19	226.87
976.49	226.86
976.78	226.89
977.07	226.90
977.37	226.88
977.66	226.90
977.95	226.91
978.24	226.93
978.54	226.94
978.83	226.94
979.12	226.95
979.42	226.95
979.71	226.93
980.00	226.95
980.29	226.94
980.59	226.94
980.88	226.99
981.17	226.96
981.46	226.97
981.76	226.99
982.05	227.04
982.34	227.08
982.63	227.10
982.93	227.08
983.22	227.08
983.51	227.04
983.80	227.03
984.09	227.02
984.39	226.98
984.68	226.98
984.97	226.96
985.26	226.95
985.55	226.94
985.85	226.90
986.14	226.92
986.43	226.89
986.72	226.87
987.01	226.84
987.30	226.82
987.59	226.81
987.89	226.76
988.18	226.69
988.47	226.65
988.76	226.61
989.05	226.60
989.34	226.57
989.63	226.63
989.92	226.59
990.22	226.58
990.51	226.58
990.80	226.58
991.09	226.57
991.38	226.58
991.67	226.59
991.96	226.57
992.25	226.55
992.54	226.51
992.83	226.50
993.12	226.46
993.41	226.51
993.70	226.54
993.99	226.57
994.28	226.63
994.58	226.67
994.87	226.70
995.16	226.71
995.45	226.73
995.74	226.70
996.03	226.74
996.32	226.78
996.61	226.79
996.90	226.77
997.19	226.79
997.48	226.79
997.77	226.76
998.06	226.83
998.34	226.83
998.63	226.87
998.92	226.88
999.21	226.92
999.50	226.91
999.79	226.90
1000.08	226.90
1000.37	226.89
1000.66	226.88
1000.95	226.89
1001.24	226.88
1001.53	226.90
1001.82	226.88
1002.11	226.86
1002.40	226.87
1002.68	226.89
1002.97	227.00
1003.26	227.02
1003.55	226.99
1003.84	227.02
1004.13	227.02
1004.42	227.02
1004.71	227.03
1004.99	227.04
1005.28	227.07
1005.57	227.06
1005.86	227.04
1006.15	227.04
1006.44	227.01
1006.72	227.02
1007.01	227.01
1007.30	227.01
1007.59	226.99
1007.88	226.98
1008.17	226.99
1008.45	226.95
1008.74	226.94
1009.03	226.86
1009.32	226.85
1009.60	226.86
1009.89	226.88
1010.18	226.85
1010.47	226.86
1010.76	226.83
1011.04	226.82
1011.33	226.80
1011.62	226.81
1011.91	226.85
1012.19	226.87
1012.48	226.87
1012.77	226.89
1013.05	226.94
1013.34	226.92
1013.63	226.90
1013.92	226.90
1014.20	226.88
1014.49	226.92
1014.78	226.94
1015.06	226.90
1015.35	226.87
1015.64	226.87
1015.92	226.87
1016.21	226.85
1016.50	226.83
1016.78	226.85
1017.07	226.86
1017.36	226.84
1017.64	226.80
1017.93	226.78
1018.22	226.77
1018.50	226.75
1018.79	226.69
1019.08	226.63
1019.36	226.63
1019.65	226.63
1019.93	226.67
1020.22	226.68
1020.51	226.67
1020.79	226.62
1021.08	226.87
1021.36	226.11
1021.65	226.38
1021.94	226.47
1022.22	226.53
1022.51	226.50
1022.79	227.25
1023.08	226.55
1023.36	227.47
1023.65	226.19
>>>>>End Processed Spectral Data<<<<<
