SpectraSuite Data File
++++++++++++++++++++++++++++++++++++
Date: Fri Feb 01 16:39:59 EST 2013
User: group
Dark Spectrum Present: No
Reference Spectrum Present: No
Number of Sampled Component Spectra: 1
Spectrometers: USB2E7196
Integration Time (usec): 35000 (USB2E7196)
Spectra Averaged: 100 (USB2E7196)
Boxcar Smoothing: 10 (USB2E7196)
Correct for Electrical Dark: No (USB2E7196)
Strobe/Lamp Enabled: No (USB2E7196)
Correct for Detector Non-linearity: No (USB2E7196)
Correct for Stray Light: No (USB2E7196)
Number of Pixels in Processed Spectrum: 2048
>>>>>Begin Processed Spectral Data<<<<<
339.09	0.00
339.48	213.38
339.86	214.54
340.24	216.69
340.63	217.95
341.01	220.61
341.39	220.41
341.78	221.67
342.16	222.92
342.54	223.24
342.93	211.96
343.31	222.70
343.69	223.24
344.07	223.71
344.46	224.12
344.84	224.50
345.22	224.75
345.60	224.99
345.99	225.18
346.37	225.30
346.75	225.44
347.13	225.52
347.52	225.60
347.90	225.65
348.28	225.69
348.66	225.72
349.05	225.70
349.43	225.73
349.81	225.77
350.19	225.80
350.57	225.85
350.96	225.89
351.34	225.92
351.72	226.03
352.10	226.13
352.48	226.20
352.87	226.29
353.25	226.36
353.63	226.45
354.01	226.51
354.39	226.61
354.77	226.66
355.15	226.79
355.54	226.86
355.92	226.91
356.30	226.99
356.68	227.13
357.06	227.20
357.44	227.25
357.82	227.31
358.20	227.39
358.58	227.48
358.97	227.59
359.35	227.70
359.73	227.79
360.11	227.89
360.49	227.94
360.87	227.97
361.25	228.01
361.63	228.08
362.01	228.14
362.39	228.15
362.77	228.21
363.15	228.20
363.53	228.22
363.91	228.25
364.29	228.28
364.67	228.21
365.05	228.24
365.43	228.29
365.81	228.33
366.19	228.37
366.57	228.39
366.95	228.40
367.33	228.36
367.71	228.33
368.09	228.30
368.47	228.27
368.85	228.27
369.23	228.23
369.61	228.15
369.99	228.17
370.37	228.18
370.75	228.19
371.13	228.12
371.51	228.07
371.89	228.02
372.27	227.99
372.65	227.94
373.03	227.89
373.41	227.80
373.78	227.72
374.16	227.62
374.54	227.52
374.92	227.44
375.30	227.38
375.68	227.31
376.06	227.26
376.44	227.22
376.82	227.08
377.19	227.03
377.57	226.99
377.95	226.86
378.33	226.78
378.71	226.66
379.09	226.62
379.47	226.55
379.84	226.48
380.22	226.39
380.60	226.32
380.98	226.28
381.36	226.23
381.73	226.17
382.11	226.14
382.49	226.09
382.87	226.02
383.25	225.96
383.62	226.04
384.00	225.94
384.38	225.87
384.76	225.90
385.13	225.90
385.51	225.84
385.89	225.78
386.27	225.70
386.64	225.65
387.02	225.63
387.40	225.60
387.78	225.56
388.15	225.54
388.53	225.48
388.91	225.46
389.29	225.38
389.66	225.36
390.04	225.30
390.42	225.27
390.79	225.26
391.17	225.24
391.55	225.13
391.92	225.13
392.30	225.16
392.68	225.12
393.05	225.12
393.43	225.12
393.81	225.16
394.18	225.18
394.56	225.22
394.94	225.25
395.31	225.25
395.69	225.30
396.06	225.31
396.44	225.36
396.82	225.34
397.19	225.47
397.57	225.48
397.95	225.55
398.32	225.57
398.70	225.60
399.07	225.70
399.45	225.72
399.82	225.79
400.20	225.84
400.58	225.93
400.95	225.94
401.33	226.05
401.70	226.19
402.08	226.27
402.45	226.35
402.83	226.44
403.20	226.56
403.58	226.65
403.95	226.77
404.33	226.93
404.71	227.05
405.08	227.20
405.46	227.32
405.83	227.47
406.21	227.61
406.58	227.80
406.96	227.94
407.33	228.12
407.70	228.30
408.08	228.56
408.45	228.76
408.83	228.99
409.20	229.21
409.58	229.38
409.95	229.64
410.33	229.89
410.70	230.13
411.08	230.43
411.45	230.73
411.82	231.02
412.20	231.34
412.57	231.80
412.95	232.07
413.32	232.50
413.69	232.91
414.07	233.37
414.44	233.82
414.82	234.31
415.19	234.85
415.56	235.36
415.94	235.88
416.31	236.52
416.68	237.13
417.06	237.83
417.43	238.55
417.81	239.28
418.18	240.05
418.55	240.89
418.93	241.76
419.30	242.64
419.67	243.58
420.04	244.52
420.42	245.46
420.79	246.65
421.16	247.79
421.54	248.96
421.91	250.14
422.28	251.37
422.66	252.69
423.03	254.01
423.40	255.36
423.77	256.77
424.15	258.20
424.52	259.69
424.89	261.31
425.26	262.83
425.64	264.31
426.01	265.89
426.38	267.52
426.75	269.17
427.13	270.86
427.50	272.66
427.87	274.51
428.24	276.37
428.61	278.11
428.99	280.01
429.36	282.11
429.73	284.16
430.10	286.16
430.47	288.20
430.85	290.26
431.22	292.42
431.59	294.79
431.96	296.97
432.33	299.40
432.70	301.70
433.08	304.43
433.45	307.03
433.82	309.58
434.19	312.44
434.56	315.20
434.93	317.83
435.30	320.41
435.68	323.26
436.05	326.07
436.42	328.85
436.79	331.36
437.16	334.01
437.53	336.83
437.90	339.61
438.27	342.26
438.64	345.06
439.01	347.65
439.38	349.86
439.75	352.05
440.13	354.55
440.50	356.89
440.87	358.73
441.24	360.66
441.61	362.87
441.98	364.33
442.35	366.12
442.72	367.98
443.09	369.83
443.46	370.86
443.83	371.42
444.20	371.96
444.57	372.81
444.94	373.14
445.31	373.50
445.68	373.84
446.05	374.03
446.42	373.71
446.79	373.32
447.16	372.89
447.53	372.52
447.90	371.40
448.27	370.25
448.64	368.71
449.01	367.55
449.37	365.57
449.74	363.73
450.11	361.55
450.48	359.13
450.85	356.61
451.22	354.49
451.59	352.50
451.96	350.56
452.33	347.95
452.70	345.57
453.07	342.79
453.43	339.96
453.80	337.13
454.17	334.46
454.54	331.94
454.91	329.26
455.28	326.67
455.65	324.21
456.02	321.77
456.38	319.66
456.75	317.11
457.12	314.92
457.49	312.67
457.86	310.51
458.23	308.65
458.59	306.61
458.96	304.52
459.33	302.71
459.70	300.88
460.07	299.40
460.43	297.74
460.80	296.12
461.17	294.71
461.54	293.28
461.91	291.87
462.27	290.43
462.64	289.18
463.01	287.85
463.38	286.59
463.74	285.26
464.11	284.10
464.48	283.07
464.85	281.97
465.21	281.15
465.58	280.24
465.95	279.19
466.32	278.32
466.68	277.45
467.05	276.55
467.42	275.64
467.78	274.73
468.15	273.86
468.52	273.19
468.88	272.32
469.25	271.60
469.62	271.00
469.98	270.34
470.35	269.73
470.72	269.11
471.08	268.44
471.45	267.90
471.82	267.35
472.18	266.73
472.55	266.27
472.92	265.75
473.28	265.28
473.65	264.83
474.02	264.35
474.38	263.98
474.75	263.65
475.11	263.32
475.48	263.06
475.85	262.81
476.21	262.56
476.58	262.37
476.94	262.17
477.31	262.00
477.67	261.86
478.04	261.76
478.41	261.73
478.77	261.73
479.14	261.70
479.50	261.70
479.87	261.77
480.23	261.86
480.60	261.91
480.96	261.98
481.33	262.19
481.69	262.42
482.06	262.59
482.42	262.79
482.79	263.05
483.15	263.35
483.52	263.74
483.88	264.07
484.25	264.45
484.61	264.85
484.98	265.28
485.34	265.82
485.71	266.35
486.07	266.92
486.44	267.51
486.80	268.19
487.17	268.94
487.53	269.75
487.90	270.60
488.26	271.55
488.62	272.55
488.99	273.52
489.35	274.55
489.72	275.71
490.08	276.91
490.44	278.12
490.81	279.48
491.17	280.87
491.54	282.41
491.90	283.96
492.26	285.61
492.63	287.36
492.99	289.15
493.36	291.05
493.72	293.09
494.08	295.17
494.45	297.41
494.81	299.81
495.17	302.25
495.54	304.83
495.90	307.52
496.26	310.36
496.63	313.31
496.99	316.45
497.35	319.70
497.72	323.15
498.08	326.70
498.44	330.36
498.80	334.27
499.17	338.27
499.53	342.45
499.89	346.85
500.26	351.38
500.62	356.07
500.98	361.06
501.34	366.15
501.71	371.55
502.07	377.03
502.43	382.65
502.79	388.49
503.16	394.54
503.52	400.83
503.88	407.28
504.24	413.90
504.60	420.80
504.97	427.92
505.33	435.23
505.69	442.90
506.05	450.75
506.41	458.62
506.78	466.82
507.14	475.28
507.50	484.01
507.86	492.98
508.22	502.19
508.59	511.46
508.95	521.05
509.31	530.82
509.67	540.85
510.03	551.12
510.39	561.71
510.75	572.47
511.12	583.38
511.48	594.57
511.84	606.05
512.20	617.49
512.56	629.44
512.92	641.58
513.28	653.95
513.64	666.32
514.00	679.04
514.37	691.97
514.73	704.96
515.09	718.02
515.45	731.31
515.81	744.83
516.17	758.65
516.53	772.75
516.89	786.86
517.25	800.98
517.61	815.35
517.97	829.66
518.33	844.00
518.69	858.65
519.05	873.57
519.41	888.55
519.77	904.05
520.13	919.50
520.49	934.83
520.85	950.09
521.21	965.74
521.57	981.81
521.93	997.47
522.29	1013.70
522.65	1029.84
523.01	1045.90
523.37	1061.83
523.73	1077.93
524.09	1093.87
524.45	1110.11
524.81	1126.69
525.17	1143.27
525.53	1160.08
525.89	1176.89
526.25	1193.69
526.61	1210.01
526.97	1226.76
527.33	1243.16
527.68	1259.53
528.04	1275.91
528.40	1292.28
528.76	1309.17
529.12	1325.68
529.48	1342.41
529.84	1358.27
530.20	1374.76
530.56	1391.53
530.91	1408.73
531.27	1425.39
531.63	1441.67
531.99	1458.08
532.35	1473.94
532.71	1489.76
533.07	1505.83
533.42	1521.61
533.78	1537.47
534.14	1553.48
534.50	1568.67
534.86	1584.38
535.21	1599.42
535.57	1615.07
535.93	1630.49
536.29	1645.15
536.65	1659.98
537.00	1674.52
537.36	1689.68
537.72	1703.90
538.08	1718.20
538.44	1731.80
538.79	1745.48
539.15	1758.83
539.51	1772.25
539.87	1786.35
540.22	1799.74
540.58	1813.12
540.94	1826.06
541.29	1838.68
541.65	1851.10
542.01	1864.07
542.37	1876.20
542.72	1888.36
543.08	1900.09
543.44	1912.27
543.79	1923.28
544.15	1934.09
544.51	1945.55
544.87	1956.28
545.22	1967.11
545.58	1977.16
545.94	1986.95
546.29	1996.70
546.65	2006.68
547.01	2015.97
547.36	2024.69
547.72	2033.34
548.07	2041.53
548.43	2049.83
548.79	2057.70
549.14	2065.49
549.50	2072.68
549.86	2080.19
550.21	2087.51
550.57	2094.74
550.92	2101.38
551.28	2108.55
551.64	2115.67
551.99	2122.17
552.35	2128.49
552.70	2134.63
553.06	2140.77
553.41	2147.11
553.77	2153.10
554.13	2159.04
554.48	2165.15
554.84	2170.73
555.19	2175.85
555.55	2180.93
555.90	2185.41
556.26	2190.65
556.61	2195.22
556.97	2199.67
557.32	2203.92
557.68	2208.13
558.03	2212.22
558.39	2215.86
558.74	2220.41
559.10	2224.24
559.45	2227.87
559.81	2232.10
560.16	2235.89
560.52	2239.08
560.87	2242.40
561.23	2245.14
561.58	2247.96
561.94	2250.46
562.29	2252.69
562.64	2255.65
563.00	2258.19
563.35	2261.70
563.71	2264.63
564.06	2267.72
564.42	2270.65
564.77	2273.24
565.12	2275.58
565.48	2277.65
565.83	2279.70
566.19	2281.09
566.54	2281.95
566.89	2283.20
567.25	2283.97
567.60	2285.19
567.96	2287.02
568.31	2287.95
568.66	2288.98
569.02	2289.77
569.37	2290.19
569.72	2291.19
570.08	2291.42
570.43	2291.44
570.78	2291.06
571.14	2289.55
571.49	2288.36
571.84	2288.07
572.20	2287.02
572.55	2285.94
572.90	2284.20
573.26	2282.91
573.61	2281.17
573.96	2279.68
574.31	2276.94
574.67	2274.06
575.02	2270.60
575.37	2267.07
575.72	2263.40
576.08	2260.11
576.43	2256.84
576.78	2253.37
577.13	2249.98
577.49	2246.60
577.84	2243.28
578.19	2239.34
578.54	2235.94
578.90	2231.98
579.25	2226.40
579.60	2221.51
579.95	2216.67
580.30	2211.79
580.66	2206.50
581.01	2201.59
581.36	2196.58
581.71	2192.35
582.06	2187.89
582.42	2183.73
582.77	2178.70
583.12	2174.20
583.47	2169.87
583.82	2165.08
584.17	2159.85
584.53	2154.46
584.88	2149.01
585.23	2143.36
585.58	2137.95
585.93	2132.39
586.28	2127.37
586.63	2122.51
586.98	2117.32
587.34	2112.65
587.69	2107.80
588.04	2102.82
588.39	2097.26
588.74	2090.87
589.09	2084.76
589.44	2078.11
589.79	2071.73
590.14	2066.08
590.49	2059.49
590.84	2052.92
591.19	2046.79
591.54	2040.45
591.89	2033.45
592.25	2026.90
592.60	2019.81
592.95	2012.47
593.30	2005.31
593.65	1997.85
594.00	1990.71
594.35	1983.69
594.70	1975.66
595.05	1968.88
595.40	1961.63
595.75	1954.28
596.10	1948.43
596.45	1941.89
596.80	1935.69
597.15	1929.37
597.50	1922.56
597.85	1916.21
598.19	1909.81
598.54	1902.93
598.89	1896.34
599.24	1890.38
599.59	1883.85
599.94	1877.52
600.29	1871.17
600.64	1864.49
600.99	1857.32
601.34	1850.74
601.69	1843.76
602.04	1837.04
602.39	1829.55
602.74	1822.69
603.08	1815.98
603.43	1809.13
603.78	1801.74
604.13	1794.51
604.48	1787.20
604.83	1780.40
605.18	1773.64
605.53	1765.66
605.87	1757.64
606.22	1750.22
606.57	1742.08
606.92	1734.49
607.27	1727.45
607.62	1720.57
607.96	1713.55
608.31	1706.97
608.66	1699.40
609.01	1691.97
609.36	1684.42
609.70	1676.36
610.05	1668.28
610.40	1660.66
610.75	1652.41
611.10	1644.82
611.44	1636.45
611.79	1628.50
612.14	1619.73
612.49	1610.41
612.83	1601.93
613.18	1593.87
613.53	1586.01
613.88	1577.74
614.22	1569.60
614.57	1560.89
614.92	1552.99
615.27	1545.55
615.61	1537.23
615.96	1529.17
616.31	1521.45
616.65	1514.09
617.00	1506.71
617.35	1499.16
617.70	1490.89
618.04	1482.42
618.39	1474.21
618.74	1466.76
619.08	1458.54
619.43	1450.99
619.78	1444.11
620.12	1436.99
620.47	1429.46
620.82	1421.14
621.16	1413.66
621.51	1406.03
621.85	1398.46
622.20	1389.98
622.55	1381.48
622.89	1373.62
623.24	1365.94
623.59	1358.54
623.93	1351.09
624.28	1343.82
624.62	1336.36
624.97	1329.17
625.32	1322.35
625.66	1315.28
626.01	1308.13
626.35	1300.77
626.70	1292.98
627.04	1285.38
627.39	1277.64
627.73	1270.26
628.08	1263.42
628.43	1256.20
628.77	1248.87
629.12	1241.50
629.46	1234.37
629.81	1226.92
630.15	1219.68
630.50	1212.32
630.84	1204.25
631.19	1196.30
631.53	1188.76
631.88	1181.22
632.22	1173.70
632.57	1166.49
632.91	1159.00
633.26	1151.60
633.60	1144.06
633.95	1137.02
634.29	1129.91
634.64	1123.22
634.98	1115.88
635.32	1108.83
635.67	1102.16
636.01	1095.52
636.36	1088.71
636.70	1082.16
637.05	1075.64
637.39	1069.24
637.73	1062.86
638.08	1056.95
638.42	1050.89
638.77	1044.49
639.11	1037.94
639.45	1031.50
639.80	1024.82
640.14	1018.51
640.49	1011.98
640.83	1005.77
641.17	999.54
641.52	993.29
641.86	986.84
642.20	980.95
642.55	974.48
642.89	968.11
643.23	961.49
643.58	955.77
643.92	949.65
644.26	943.73
644.61	937.63
644.95	931.61
645.29	925.03
645.64	918.38
645.98	912.03
646.32	906.04
646.66	899.95
647.01	894.10
647.35	888.28
647.69	882.35
648.04	876.84
648.38	871.07
648.72	865.06
649.06	859.06
649.41	853.15
649.75	847.37
650.09	841.42
650.43	835.67
650.78	829.53
651.12	823.51
651.46	817.72
651.80	812.09
652.14	806.59
652.49	801.29
652.83	796.17
653.17	790.60
653.51	785.05
653.85	779.66
654.20	774.08
654.54	768.14
654.88	762.48
655.22	756.64
655.56	750.89
655.90	745.44
656.25	740.18
656.59	734.87
656.93	729.82
657.27	724.67
657.61	719.20
657.95	714.04
658.29	708.96
658.64	703.65
658.98	698.28
659.32	692.82
659.66	687.60
660.00	682.31
660.34	677.31
660.68	672.38
661.02	667.33
661.36	662.59
661.70	658.14
662.05	653.82
662.39	649.43
662.73	645.02
663.07	640.65
663.41	636.21
663.75	631.70
664.09	627.06
664.43	622.66
664.77	618.65
665.11	614.41
665.45	610.25
665.79	606.18
666.13	602.12
666.47	598.06
666.81	593.88
667.15	589.69
667.49	585.72
667.83	581.79
668.17	577.90
668.51	573.86
668.85	569.80
669.19	565.87
669.53	562.09
669.87	558.29
670.21	554.61
670.55	550.96
670.89	547.56
671.23	544.19
671.57	540.69
671.91	537.17
672.25	533.62
672.58	530.14
672.92	526.74
673.26	523.52
673.60	520.30
673.94	517.25
674.28	514.40
674.62	511.50
674.96	508.50
675.30	505.63
675.64	502.74
675.97	499.95
676.31	497.14
676.65	494.22
676.99	491.45
677.33	488.51
677.67	485.73
678.01	482.71
678.34	479.73
678.68	476.80
679.02	473.96
679.36	471.17
679.70	468.42
680.04	465.68
680.37	462.83
680.71	460.03
681.05	457.31
681.39	454.53
681.73	451.82
682.06	449.27
682.40	446.64
682.74	444.05
683.08	441.44
683.42	438.79
683.75	436.26
684.09	433.68
684.43	431.21
684.77	428.75
685.10	426.41
685.44	424.07
685.78	421.77
686.12	419.52
686.45	417.27
686.79	414.98
687.13	412.76
687.46	410.58
687.80	408.46
688.14	406.29
688.48	404.28
688.81	402.07
689.15	399.90
689.49	397.75
689.82	395.63
690.16	393.57
690.50	391.65
690.83	389.69
691.17	387.72
691.51	385.83
691.84	383.96
692.18	381.96
692.52	380.01
692.85	378.07
693.19	376.20
693.52	374.33
693.86	372.52
694.20	370.69
694.53	368.85
694.87	366.97
695.21	365.17
695.54	363.29
695.88	361.52
696.21	359.79
696.55	358.12
696.88	356.48
697.22	354.82
697.56	353.16
697.89	351.51
698.23	349.87
698.56	348.25
698.90	346.67
699.23	345.12
699.57	343.55
699.90	342.03
700.24	340.44
700.58	338.94
700.91	337.47
701.25	336.02
701.58	334.72
701.92	333.39
702.25	332.01
702.59	330.65
702.92	329.35
703.26	328.06
703.59	326.83
703.93	325.64
704.26	324.41
704.60	323.11
704.93	321.86
705.26	320.66
705.60	319.46
705.93	318.33
706.27	317.26
706.60	316.22
706.94	315.18
707.27	314.09
707.61	313.01
707.94	311.96
708.27	310.87
708.61	309.76
708.94	308.72
709.28	307.74
709.61	306.83
709.94	305.86
710.28	304.86
710.61	303.84
710.95	302.74
711.28	301.81
711.61	300.90
711.95	299.98
712.28	299.03
712.61	298.07
712.95	297.08
713.28	296.20
713.61	295.27
713.95	294.34
714.28	293.50
714.61	292.66
714.95	291.82
715.28	291.02
715.61	290.17
715.95	289.35
716.28	288.49
716.61	287.62
716.95	286.79
717.28	286.03
717.61	285.28
717.94	284.54
718.28	283.72
718.61	283.01
718.94	282.35
719.27	281.69
719.61	281.03
719.94	280.43
720.27	279.68
720.60	279.03
720.94	278.43
721.27	277.84
721.60	277.24
721.93	276.68
722.27	276.13
722.60	275.57
722.93	275.01
723.26	274.50
723.59	273.93
723.93	273.40
724.26	272.83
724.59	272.24
724.92	271.72
725.25	271.26
725.59	270.72
725.92	270.19
726.25	269.62
726.58	269.12
726.91	268.59
727.24	268.12
727.57	267.63
727.91	267.12
728.24	266.65
728.57	266.13
728.90	265.62
729.23	265.08
729.56	264.62
729.89	264.14
730.22	263.61
730.55	263.15
730.89	262.71
731.22	262.27
731.55	261.85
731.88	261.42
732.21	260.94
732.54	260.47
732.87	260.03
733.20	259.65
733.53	259.26
733.86	258.85
734.19	258.47
734.52	258.14
734.85	257.82
735.18	257.38
735.51	257.04
735.84	256.67
736.17	256.32
736.50	255.90
736.83	255.67
737.16	255.35
737.49	255.03
737.82	254.68
738.15	254.33
738.48	253.95
738.81	253.62
739.14	253.32
739.47	253.01
739.80	252.70
740.13	252.43
740.46	252.09
740.79	251.81
741.12	251.51
741.45	251.18
741.78	250.85
742.11	250.58
742.44	250.23
742.77	249.97
743.10	249.69
743.43	249.44
743.75	249.05
744.08	248.91
744.41	248.59
744.74	248.32
745.07	248.05
745.40	247.85
745.73	247.61
746.06	247.33
746.39	247.09
746.71	246.81
747.04	246.56
747.37	246.34
747.70	246.11
748.03	245.87
748.36	245.61
748.68	245.37
749.01	245.11
749.34	244.89
749.67	244.65
750.00	244.49
750.33	244.29
750.65	244.08
750.98	243.72
751.31	243.54
751.64	243.33
751.97	243.16
752.29	242.91
752.62	242.65
752.95	242.43
753.28	242.24
753.60	242.02
753.93	241.83
754.26	241.58
754.59	241.35
754.91	241.12
755.24	240.94
755.57	240.76
755.90	240.58
756.22	240.40
756.55	240.20
756.88	239.94
757.20	239.70
757.53	239.49
757.86	239.32
758.19	239.15
758.51	238.97
758.84	238.76
759.17	238.61
759.49	238.47
759.82	238.39
760.15	238.22
760.47	238.05
760.80	237.85
761.13	237.77
761.45	237.58
761.78	237.44
762.11	237.24
762.43	237.11
762.76	236.97
763.08	236.84
763.41	236.69
763.74	236.60
764.06	236.48
764.39	236.34
764.71	236.21
765.04	236.06
765.37	235.95
765.69	235.82
766.02	235.66
766.34	235.51
766.67	235.34
767.00	235.25
767.32	235.18
767.65	235.16
767.97	235.03
768.30	234.95
768.62	234.84
768.95	234.74
769.27	234.59
769.60	234.49
769.92	234.34
770.25	234.23
770.57	234.08
770.90	233.98
771.22	233.88
771.55	233.77
771.87	233.66
772.20	233.54
772.52	233.52
772.85	233.57
773.17	233.48
773.50	233.37
773.82	233.25
774.15	233.13
774.47	232.91
774.80	232.80
775.12	232.70
775.45	232.60
775.77	232.52
776.09	232.44
776.42	232.35
776.74	232.29
777.07	232.23
777.39	232.19
777.72	232.11
778.04	232.02
778.36	231.96
778.69	231.94
779.01	231.88
779.33	231.76
779.66	231.60
779.98	231.51
780.31	231.46
780.63	231.46
780.95	231.40
781.28	231.39
781.60	231.35
781.92	231.32
782.25	231.31
782.57	231.24
782.89	231.16
783.22	231.13
783.54	231.09
783.86	231.04
784.19	230.96
784.51	230.93
784.83	230.87
785.16	230.80
785.48	230.75
785.80	230.71
786.12	230.68
786.45	230.61
786.77	230.57
787.09	230.52
787.42	230.42
787.74	230.42
788.06	230.35
788.38	230.32
788.71	230.24
789.03	230.20
789.35	230.21
789.67	230.19
789.99	230.13
790.32	230.07
790.64	230.01
790.96	230.08
791.28	230.05
791.61	230.01
791.93	230.00
792.25	229.95
792.57	230.00
792.89	229.91
793.21	229.90
793.54	229.89
793.86	229.84
794.18	229.79
794.50	229.72
794.82	229.68
795.14	229.61
795.47	229.58
795.79	229.50
796.11	229.42
796.43	229.39
796.75	229.34
797.07	229.31
797.39	229.28
797.71	229.18
798.04	229.11
798.36	229.09
798.68	229.04
799.00	229.01
799.32	228.89
799.64	228.92
799.96	228.86
800.28	228.84
800.60	228.80
800.92	228.79
801.24	228.76
801.56	228.75
801.89	228.72
802.21	228.68
802.53	228.65
802.85	228.67
803.17	228.71
803.49	228.68
803.81	228.66
804.13	228.59
804.45	228.55
804.77	228.52
805.09	228.49
805.41	228.45
805.73	228.39
806.05	228.32
806.37	228.25
806.69	228.21
807.01	228.16
807.33	228.13
807.65	228.07
807.97	228.10
808.28	228.06
808.60	228.02
808.92	228.01
809.24	228.04
809.56	227.99
809.88	227.88
810.20	227.84
810.52	227.82
810.84	227.80
811.16	227.75
811.48	227.71
811.80	227.72
812.12	227.67
812.43	227.69
812.75	227.69
813.07	227.65
813.39	227.62
813.71	227.60
814.03	227.59
814.35	227.58
814.67	227.51
814.98	227.48
815.30	227.46
815.62	227.41
815.94	227.30
816.26	227.33
816.58	227.31
816.89	227.30
817.21	227.24
817.53	227.23
817.85	227.20
818.17	227.20
818.48	227.15
818.80	227.16
819.12	227.08
819.44	227.05
819.76	227.03
820.07	227.02
820.39	227.02
820.71	227.01
821.03	226.97
821.34	226.93
821.66	226.92
821.98	226.92
822.30	226.91
822.61	226.96
822.93	226.88
823.25	226.88
823.57	226.88
823.88	226.91
824.20	226.89
824.52	226.90
824.83	226.88
825.15	226.83
825.47	226.81
825.79	226.84
826.10	226.82
826.42	226.81
826.74	226.81
827.05	226.76
827.37	226.75
827.69	226.74
828.00	226.76
828.32	226.75
828.64	226.72
828.95	226.74
829.27	226.74
829.58	226.74
829.90	226.74
830.22	226.69
830.53	226.65
830.85	226.69
831.17	226.67
831.48	226.66
831.80	226.69
832.11	226.68
832.43	226.67
832.75	226.66
833.06	226.70
833.38	226.67
833.69	226.69
834.01	226.68
834.32	226.68
834.64	226.67
834.96	226.67
835.27	226.67
835.59	226.67
835.90	226.64
836.22	226.63
836.53	226.61
836.85	226.65
837.16	226.73
837.48	226.71
837.79	226.72
838.11	226.72
838.42	226.69
838.74	226.72
839.05	226.73
839.37	226.72
839.68	226.68
840.00	226.64
840.31	226.63
840.63	226.62
840.94	226.66
841.26	226.64
841.57	226.63
841.88	226.65
842.20	226.62
842.51	226.58
842.83	226.56
843.14	226.64
843.46	226.61
843.77	226.53
844.08	226.50
844.40	226.51
844.71	226.51
845.03	226.54
845.34	226.54
845.65	226.52
845.97	226.52
846.28	226.53
846.60	226.57
846.91	226.55
847.22	226.57
847.54	226.54
847.85	226.52
848.16	226.53
848.48	226.53
848.79	226.57
849.10	226.59
849.42	226.63
849.73	226.53
850.04	226.52
850.36	226.49
850.67	226.52
850.98	226.46
851.30	226.42
851.61	226.36
851.92	226.34
852.23	226.31
852.55	226.32
852.86	226.33
853.17	226.29
853.49	226.31
853.80	226.31
854.11	226.32
854.42	226.32
854.74	226.28
855.05	226.26
855.36	226.17
855.67	226.16
855.99	226.10
856.30	226.20
856.61	226.20
856.92	226.19
857.23	226.15
857.55	226.15
857.86	226.15
858.17	226.17
858.48	226.15
858.79	226.17
859.11	226.17
859.42	226.12
859.73	226.15
860.04	226.12
860.35	226.08
860.66	226.02
860.98	226.03
861.29	226.03
861.60	226.00
861.91	226.04
862.22	226.01
862.53	225.99
862.84	225.89
863.16	225.91
863.47	225.92
863.78	225.93
864.09	225.95
864.40	225.97
864.71	225.99
865.02	226.01
865.33	225.96
865.64	225.98
865.95	226.00
866.27	226.06
866.58	226.05
866.89	226.05
867.20	226.04
867.51	225.98
867.82	225.99
868.13	226.03
868.44	226.01
868.75	226.07
869.06	226.11
869.37	226.08
869.68	226.05
869.99	226.06
870.30	226.06
870.61	226.06
870.92	226.03
871.23	226.02
871.54	226.03
871.85	226.08
872.16	226.10
872.47	226.10
872.78	226.02
873.09	226.03
873.40	226.06
873.71	226.08
874.02	226.13
874.33	226.12
874.64	226.08
874.95	226.11
875.26	226.08
875.56	226.08
875.87	226.10
876.18	226.12
876.49	226.20
876.80	226.21
877.11	226.20
877.42	226.23
877.73	226.21
878.04	226.18
878.35	226.16
878.66	226.16
878.96	226.14
879.27	226.15
879.58	226.18
879.89	226.16
880.20	226.21
880.51	226.23
880.82	226.20
881.12	226.21
881.43	226.18
881.74	226.15
882.05	226.13
882.36	226.18
882.67	226.16
882.97	226.06
883.28	226.04
883.59	226.02
883.90	226.02
884.21	226.03
884.51	226.02
884.82	226.03
885.13	226.01
885.44	226.00
885.74	226.00
886.05	225.98
886.36	225.97
886.67	225.91
886.98	225.93
887.28	225.98
887.59	225.96
887.90	225.97
888.20	225.95
888.51	225.97
888.82	225.91
889.13	225.91
889.43	225.96
889.74	225.96
890.05	225.95
890.35	225.94
890.66	225.93
890.97	225.90
891.28	225.87
891.58	225.87
891.89	225.87
892.20	225.83
892.50	225.83
892.81	225.82
893.12	225.81
893.42	225.76
893.73	225.74
894.04	225.75
894.34	225.75
894.65	225.74
894.95	225.71
895.26	225.70
895.57	225.73
895.87	225.67
896.18	225.68
896.48	225.70
896.79	225.66
897.10	225.68
897.40	225.72
897.71	225.72
898.01	225.68
898.32	225.66
898.63	225.68
898.93	225.67
899.24	225.65
899.54	225.65
899.85	225.61
900.15	225.61
900.46	225.61
900.76	225.60
901.07	225.62
901.38	225.63
901.68	225.63
901.99	225.59
902.29	225.60
902.60	225.60
902.90	225.59
903.21	225.60
903.51	225.59
903.82	225.60
904.12	225.60
904.43	225.62
904.73	225.64
905.03	225.63
905.34	225.72
905.64	225.76
905.95	225.77
906.25	225.80
906.56	225.81
906.86	225.80
907.17	225.83
907.47	225.83
907.77	225.83
908.08	225.84
908.38	225.88
908.69	225.89
908.99	225.93
909.30	225.94
909.60	225.96
909.90	225.98
910.21	225.94
910.51	225.94
910.81	225.95
911.12	225.97
911.42	226.01
911.73	225.94
912.03	225.96
912.33	226.00
912.64	226.00
912.94	226.00
913.24	226.01
913.55	226.01
913.85	226.04
914.15	226.08
914.46	226.10
914.76	226.10
915.06	226.12
915.37	226.09
915.67	226.11
915.97	226.11
916.27	226.10
916.58	226.15
916.88	226.17
917.18	226.17
917.49	226.20
917.79	226.18
918.09	226.18
918.39	226.19
918.70	226.13
919.00	226.14
919.30	226.19
919.60	226.20
919.91	226.20
920.21	226.19
920.51	226.19
920.81	226.15
921.12	226.13
921.42	226.09
921.72	226.08
922.02	226.07
922.32	226.06
922.63	226.01
922.93	226.04
923.23	226.02
923.53	225.99
923.83	225.95
924.13	225.97
924.44	225.95
924.74	225.94
925.04	225.97
925.34	225.93
925.64	225.88
925.94	225.86
926.24	225.90
926.55	225.89
926.85	225.83
927.15	225.85
927.45	225.88
927.75	225.85
928.05	225.86
928.35	225.84
928.65	225.87
928.95	225.90
929.26	225.86
929.56	225.86
929.86	225.87
930.16	225.84
930.46	225.82
930.76	225.81
931.06	225.76
931.36	225.74
931.66	225.76
931.96	225.76
932.26	225.76
932.56	225.72
932.86	225.70
933.16	225.73
933.46	225.72
933.76	225.66
934.06	225.69
934.36	225.71
934.66	225.70
934.96	225.66
935.26	225.65
935.56	225.64
935.86	225.62
936.16	225.60
936.46	225.62
936.76	225.61
937.06	225.59
937.36	225.60
937.66	225.58
937.96	225.58
938.26	225.54
938.56	225.52
938.86	225.47
939.16	225.49
939.46	225.48
939.76	225.47
940.06	225.49
940.35	225.47
940.65	225.46
940.95	225.47
941.25	225.43
941.55	225.45
941.85	225.44
942.15	225.50
942.45	225.54
942.75	225.52
943.04	225.52
943.34	225.55
943.64	225.56
943.94	225.55
944.24	225.57
944.54	225.59
944.84	225.58
945.13	225.61
945.43	225.60
945.73	225.63
946.03	225.61
946.33	225.59
946.62	225.57
946.92	225.54
947.22	225.55
947.52	225.56
947.82	225.56
948.11	225.54
948.41	225.51
948.71	225.49
949.01	225.52
949.31	225.51
949.60	225.50
949.90	225.50
950.20	225.53
950.50	225.51
950.79	225.50
951.09	225.55
951.39	225.52
951.69	225.52
951.98	225.52
952.28	225.54
952.58	225.55
952.87	225.58
953.17	225.63
953.47	225.62
953.76	225.60
954.06	225.59
954.36	225.61
954.66	225.62
954.95	225.64
955.25	225.61
955.55	225.61
955.84	225.59
956.14	225.61
956.44	225.60
956.73	225.61
957.03	225.63
957.32	225.58
957.62	225.61
957.92	225.61
958.21	225.60
958.51	225.69
958.81	225.69
959.10	225.66
959.40	225.68
959.69	225.69
959.99	225.71
960.29	225.70
960.58	225.67
960.88	225.73
961.17	225.66
961.47	225.70
961.76	225.71
962.06	225.74
962.36	225.73
962.65	225.70
962.95	225.68
963.24	225.66
963.54	225.67
963.83	225.65
964.13	225.63
964.42	225.62
964.72	225.53
965.01	225.56
965.31	225.56
965.60	225.50
965.90	225.54
966.19	225.53
966.49	225.52
966.78	225.51
967.08	225.46
967.37	225.48
967.67	225.45
967.96	225.43
968.26	225.41
968.55	225.44
968.85	225.46
969.14	225.43
969.43	225.44
969.73	225.43
970.02	225.42
970.32	225.41
970.61	225.37
970.91	225.36
971.20	225.31
971.49	225.28
971.79	225.30
972.08	225.24
972.38	225.25
972.67	225.27
972.96	225.29
973.26	225.27
973.55	225.28
973.85	225.25
974.14	225.25
974.43	225.25
974.73	225.20
975.02	225.19
975.31	225.20
975.61	225.19
975.90	225.17
976.19	225.16
976.49	225.16
976.78	225.20
977.07	225.17
977.37	225.18
977.66	225.22
977.95	225.20
978.24	225.21
978.54	225.23
978.83	225.22
979.12	225.24
979.42	225.24
979.71	225.24
980.00	225.28
980.29	225.26
980.59	225.25
980.88	225.28
981.17	225.25
981.46	225.25
981.76	225.27
982.05	225.35
982.34	225.39
982.63	225.43
982.93	225.45
983.22	225.49
983.51	225.51
983.80	225.53
984.09	225.54
984.39	225.54
984.68	225.52
984.97	225.56
985.26	225.56
985.55	225.54
985.85	225.54
986.14	225.54
986.43	225.58
986.72	225.61
987.01	225.59
987.30	225.66
987.59	225.69
987.89	225.71
988.18	225.67
988.47	225.64
988.76	225.63
989.05	225.63
989.34	225.64
989.63	225.67
989.92	225.67
990.22	225.68
990.51	225.68
990.80	225.71
991.09	225.69
991.38	225.73
991.67	225.75
991.96	225.75
992.25	225.74
992.54	225.73
992.83	225.73
993.12	225.75
993.41	225.73
993.70	225.77
993.99	225.77
994.28	225.78
994.58	225.82
994.87	225.80
995.16	225.78
995.45	225.79
995.74	225.76
996.03	225.75
996.32	225.77
996.61	225.76
996.90	225.72
997.19	225.72
997.48	225.68
997.77	225.67
998.06	225.64
998.34	225.63
998.63	225.62
998.92	225.61
999.21	225.61
999.50	225.63
999.79	225.55
1000.08	225.56
1000.37	225.58
1000.66	225.55
1000.95	225.57
1001.24	225.58
1001.53	225.56
1001.82	225.55
1002.11	225.53
1002.40	225.53
1002.68	225.57
1002.97	225.66
1003.26	225.66
1003.55	225.67
1003.84	225.71
1004.13	225.79
1004.42	225.80
1004.71	225.80
1004.99	225.76
1005.28	225.76
1005.57	225.74
1005.86	225.76
1006.15	225.73
1006.44	225.70
1006.72	225.71
1007.01	225.72
1007.30	225.72
1007.59	225.71
1007.88	225.71
1008.17	225.72
1008.45	225.70
1008.74	225.63
1009.03	225.60
1009.32	225.57
1009.60	225.53
1009.89	225.48
1010.18	225.39
1010.47	225.39
1010.76	225.39
1011.04	225.41
1011.33	225.42
1011.62	225.44
1011.91	225.43
1012.19	225.44
1012.48	225.42
1012.77	225.42
1013.05	225.45
1013.34	225.44
1013.63	225.43
1013.92	225.40
1014.20	225.38
1014.49	225.36
1014.78	225.39
1015.06	225.34
1015.35	225.36
1015.64	225.41
1015.92	225.41
1016.21	225.43
1016.50	225.41
1016.78	225.42
1017.07	225.46
1017.36	225.43
1017.64	225.43
1017.93	225.43
1018.22	225.43
1018.50	225.46
1018.79	225.45
1019.08	225.42
1019.36	225.42
1019.65	225.42
1019.93	225.44
1020.22	225.47
1020.51	225.53
1020.79	225.52
1021.08	225.43
1021.36	225.59
1021.65	225.57
1021.94	225.79
1022.22	225.45
1022.51	225.20
1022.79	225.41
1023.08	225.52
1023.36	226.36
1023.65	225.35
>>>>>End Processed Spectral Data<<<<<
