SpectraSuite Data File
++++++++++++++++++++++++++++++++++++
Date: Fri Feb 01 16:14:03 EST 2013
User: group
Dark Spectrum Present: No
Reference Spectrum Present: No
Number of Sampled Component Spectra: 1
Spectrometers: USB2E7196
Integration Time (usec): 35000 (USB2E7196)
Spectra Averaged: 100 (USB2E7196)
Boxcar Smoothing: 10 (USB2E7196)
Correct for Electrical Dark: No (USB2E7196)
Strobe/Lamp Enabled: No (USB2E7196)
Correct for Detector Non-linearity: No (USB2E7196)
Correct for Stray Light: No (USB2E7196)
Number of Pixels in Processed Spectrum: 2048
>>>>>Begin Processed Spectral Data<<<<<
339.09	0.00
339.48	214.52
339.86	215.93
340.24	217.37
340.63	218.50
341.01	221.33
341.39	221.44
341.78	222.91
342.16	223.69
342.54	224.44
342.93	212.72
343.31	223.46
343.69	223.97
344.07	224.43
344.46	224.85
344.84	225.22
345.22	225.44
345.60	225.65
345.99	225.81
346.37	225.94
346.75	226.00
347.13	226.03
347.52	226.11
347.90	226.16
348.28	226.15
348.66	226.15
349.05	226.12
349.43	226.17
349.81	226.19
350.19	226.24
350.57	226.26
350.96	226.32
351.34	226.38
351.72	226.47
352.10	226.54
352.48	226.58
352.87	226.64
353.25	226.70
353.63	226.75
354.01	226.80
354.39	226.87
354.77	226.92
355.15	227.03
355.54	227.08
355.92	227.12
356.30	227.21
356.68	227.36
357.06	227.46
357.44	227.49
357.82	227.56
358.20	227.63
358.58	227.72
358.97	227.78
359.35	227.89
359.73	227.96
360.11	228.03
360.49	228.11
360.87	228.15
361.25	228.24
361.63	228.33
362.01	228.39
362.39	228.45
362.77	228.54
363.15	228.56
363.53	228.60
363.91	228.62
364.29	228.65
364.67	228.58
365.05	228.60
365.43	228.62
365.81	228.61
366.19	228.64
366.57	228.68
366.95	228.70
367.33	228.66
367.71	228.65
368.09	228.66
368.47	228.63
368.85	228.61
369.23	228.63
369.61	228.60
369.99	228.63
370.37	228.60
370.75	228.61
371.13	228.59
371.51	228.52
371.89	228.53
372.27	228.49
372.65	228.47
373.03	228.43
373.41	228.37
373.78	228.36
374.16	228.26
374.54	228.17
374.92	228.07
375.30	228.00
375.68	227.94
376.06	227.89
376.44	227.84
376.82	227.80
377.19	227.67
377.57	227.63
377.95	227.51
378.33	227.45
378.71	227.35
379.09	227.28
379.47	227.27
379.84	227.16
380.22	227.10
380.60	227.03
380.98	226.96
381.36	226.91
381.73	226.85
382.11	226.81
382.49	226.77
382.87	226.72
383.25	226.64
383.62	226.71
384.00	226.63
384.38	226.56
384.76	226.52
385.13	226.54
385.51	226.47
385.89	226.42
386.27	226.34
386.64	226.29
387.02	226.26
387.40	226.19
387.78	226.19
388.15	226.17
388.53	226.12
388.91	226.08
389.29	226.03
389.66	226.03
390.04	226.00
390.42	225.96
390.79	225.95
391.17	225.95
391.55	225.80
391.92	225.79
392.30	225.79
392.68	225.73
393.05	225.73
393.43	225.72
393.81	225.69
394.18	225.74
394.56	225.75
394.94	225.75
395.31	225.77
395.69	225.80
396.06	225.84
396.44	225.86
396.82	225.86
397.19	225.95
397.57	225.94
397.95	225.98
398.32	225.98
398.70	226.06
399.07	226.15
399.45	226.19
399.82	226.26
400.20	226.33
400.58	226.43
400.95	226.43
401.33	226.52
401.70	226.70
402.08	226.76
402.45	226.85
402.83	226.98
403.20	227.10
403.58	227.18
403.95	227.28
404.33	227.41
404.71	227.54
405.08	227.72
405.46	227.86
405.83	228.02
406.21	228.18
406.58	228.32
406.96	228.46
407.33	228.64
407.70	228.83
408.08	229.08
408.45	229.31
408.83	229.56
409.20	229.77
409.58	229.93
409.95	230.17
410.33	230.44
410.70	230.69
411.08	230.97
411.45	231.28
411.82	231.59
412.20	231.93
412.57	232.38
412.95	232.68
413.32	233.12
413.69	233.52
414.07	233.98
414.44	234.42
414.82	234.91
415.19	235.50
415.56	236.05
415.94	236.59
416.31	237.21
416.68	237.83
417.06	238.57
417.43	239.27
417.81	240.07
418.18	240.87
418.55	241.73
418.93	242.60
419.30	243.52
419.67	244.47
420.04	245.42
420.42	246.41
420.79	247.60
421.16	248.70
421.54	249.90
421.91	251.13
422.28	252.40
422.66	253.76
423.03	255.03
423.40	256.35
423.77	257.77
424.15	259.23
424.52	260.71
424.89	262.29
425.26	263.83
425.64	265.25
426.01	266.82
426.38	268.46
426.75	270.12
427.13	271.84
427.50	273.63
427.87	275.48
428.24	277.36
428.61	279.09
428.99	281.12
429.36	283.16
429.73	285.22
430.10	287.25
430.47	289.30
430.85	291.43
431.22	293.69
431.59	296.06
431.96	298.30
432.33	300.77
432.70	303.14
433.08	305.98
433.45	308.66
433.82	311.25
434.19	314.11
434.56	316.93
434.93	319.53
435.30	322.14
435.68	325.04
436.05	327.85
436.42	330.61
436.79	333.05
437.16	335.80
437.53	338.62
437.90	341.40
438.27	344.07
438.64	346.85
439.01	349.43
439.38	351.64
439.75	353.77
440.13	356.25
440.50	358.60
440.87	360.40
441.24	362.28
441.61	364.43
441.98	365.93
442.35	367.71
442.72	369.57
443.09	371.39
443.46	372.35
443.83	372.88
444.20	373.40
444.57	374.23
444.94	374.43
445.31	374.79
445.68	375.16
446.05	375.29
446.42	374.91
446.79	374.46
447.16	374.00
447.53	373.63
447.90	372.50
448.27	371.29
448.64	369.72
449.01	368.58
449.37	366.64
449.74	364.75
450.11	362.50
450.48	360.05
450.85	357.55
451.22	355.39
451.59	353.36
451.96	351.41
452.33	348.81
452.70	346.48
453.07	343.63
453.43	340.70
453.80	337.95
454.17	335.29
454.54	332.76
454.91	330.06
455.28	327.41
455.65	324.93
456.02	322.53
456.38	320.37
456.75	317.70
457.12	315.44
457.49	313.23
457.86	311.09
458.23	309.24
458.59	307.13
458.96	305.13
459.33	303.35
459.70	301.50
460.07	299.99
460.43	298.29
460.80	296.70
461.17	295.28
461.54	293.74
461.91	292.34
462.27	290.92
462.64	289.69
463.01	288.36
463.38	287.08
463.74	285.72
464.11	284.56
464.48	283.57
464.85	282.46
465.21	281.58
465.58	280.64
465.95	279.55
466.32	278.69
466.68	277.80
467.05	276.91
467.42	276.03
467.78	275.16
468.15	274.33
468.52	273.67
468.88	272.82
469.25	272.12
469.62	271.52
469.98	270.83
470.35	270.21
470.72	269.61
471.08	268.96
471.45	268.40
471.82	267.89
472.18	267.31
472.55	266.94
472.92	266.41
473.28	265.94
473.65	265.50
474.02	265.07
474.38	264.66
474.75	264.35
475.11	264.01
475.48	263.73
475.85	263.48
476.21	263.26
476.58	263.07
476.94	262.90
477.31	262.72
477.67	262.58
478.04	262.45
478.41	262.42
478.77	262.42
479.14	262.34
479.50	262.32
479.87	262.38
480.23	262.43
480.60	262.50
480.96	262.63
481.33	262.85
481.69	263.06
482.06	263.29
482.42	263.48
482.79	263.76
483.15	264.08
483.52	264.48
483.88	264.82
484.25	265.19
484.61	265.59
484.98	266.02
485.34	266.56
485.71	267.16
486.07	267.73
486.44	268.33
486.80	269.05
487.17	269.80
487.53	270.60
487.90	271.47
488.26	272.40
488.62	273.37
488.99	274.30
489.35	275.33
489.72	276.43
490.08	277.63
490.44	278.88
490.81	280.22
491.17	281.54
491.54	283.00
491.90	284.55
492.26	286.23
492.63	287.99
492.99	289.82
493.36	291.75
493.72	293.78
494.08	295.89
494.45	298.14
494.81	300.51
495.17	302.95
495.54	305.51
495.90	308.21
496.26	311.00
496.63	313.98
496.99	317.10
497.35	320.37
497.72	323.74
498.08	327.23
498.44	330.89
498.80	334.84
499.17	338.95
499.53	343.11
499.89	347.51
500.26	351.97
500.62	356.62
500.98	361.60
501.34	366.70
501.71	372.02
502.07	377.49
502.43	383.06
502.79	388.92
503.16	395.00
503.52	401.32
503.88	407.75
504.24	414.42
504.60	421.36
504.97	428.54
505.33	435.84
505.69	443.57
506.05	451.37
506.41	459.24
506.78	467.35
507.14	475.78
507.50	484.48
507.86	493.54
508.22	502.77
508.59	512.01
508.95	521.62
509.31	531.48
509.67	541.53
510.03	551.95
510.39	562.45
510.75	573.24
511.12	584.16
511.48	595.42
511.84	606.84
512.20	618.35
512.56	630.19
512.92	642.41
513.28	654.82
513.64	667.33
514.00	680.11
514.37	693.07
514.73	706.15
515.09	719.18
515.45	732.52
515.81	746.17
516.17	760.09
516.53	774.14
516.89	788.28
517.25	802.53
517.61	816.90
517.97	831.37
518.33	845.76
518.69	860.45
519.05	875.51
519.41	890.63
519.77	906.11
520.13	921.57
520.49	936.99
520.85	952.23
521.21	967.82
521.57	983.96
521.93	999.76
522.29	1016.11
522.65	1032.39
523.01	1048.48
523.37	1064.41
523.73	1080.53
524.09	1096.62
524.45	1112.90
524.81	1129.50
525.17	1146.18
525.53	1162.96
525.89	1179.80
526.25	1196.67
526.61	1212.98
526.97	1229.78
527.33	1246.13
527.68	1262.66
528.04	1279.03
528.40	1295.66
528.76	1312.76
529.12	1329.28
529.48	1346.02
529.84	1361.86
530.20	1378.39
530.56	1395.24
530.91	1412.43
531.27	1429.23
531.63	1445.61
531.99	1462.08
532.35	1477.98
532.71	1493.87
533.07	1510.14
533.42	1525.98
533.78	1541.87
534.14	1558.05
534.50	1573.27
534.86	1589.09
535.21	1604.17
535.57	1619.98
535.93	1635.29
536.29	1649.94
536.65	1664.93
537.00	1679.71
537.36	1695.01
537.72	1709.44
538.08	1723.85
538.44	1737.67
538.79	1751.34
539.15	1764.81
539.51	1778.43
539.87	1792.64
540.22	1806.22
540.58	1819.75
540.94	1832.92
541.29	1845.73
541.65	1858.34
542.01	1871.45
542.37	1883.71
542.72	1896.05
543.08	1907.85
543.44	1920.16
543.79	1931.41
544.15	1942.44
544.51	1953.86
544.87	1964.86
545.22	1975.61
545.58	1985.95
545.94	1995.65
546.29	2005.46
546.65	2015.39
547.01	2024.67
547.36	2033.34
547.72	2041.77
548.07	2049.80
548.43	2057.87
548.79	2065.92
549.14	2073.49
549.50	2080.82
549.86	2088.35
550.21	2095.62
550.57	2102.78
550.92	2109.32
551.28	2116.37
551.64	2123.36
551.99	2129.93
552.35	2136.04
552.70	2142.15
553.06	2148.10
553.41	2154.43
553.77	2160.50
554.13	2166.50
554.48	2172.72
554.84	2178.38
555.19	2183.70
555.55	2188.81
555.90	2193.31
556.26	2198.16
556.61	2202.76
556.97	2207.13
557.32	2211.26
557.68	2215.51
558.03	2219.66
558.39	2223.33
558.74	2227.85
559.10	2231.72
559.45	2235.24
559.81	2239.42
560.16	2243.23
560.52	2246.39
560.87	2249.84
561.23	2252.38
561.58	2255.29
561.94	2257.78
562.29	2259.96
562.64	2262.66
563.00	2265.21
563.35	2268.68
563.71	2271.73
564.06	2274.85
564.42	2277.67
564.77	2280.27
565.12	2282.54
565.48	2284.63
565.83	2286.62
566.19	2288.02
566.54	2288.78
566.89	2290.21
567.25	2290.96
567.60	2292.10
567.96	2293.94
568.31	2294.86
568.66	2296.03
569.02	2296.64
569.37	2296.90
569.72	2297.79
570.08	2297.98
570.43	2298.09
570.78	2297.71
571.14	2296.18
571.49	2295.09
571.84	2294.82
572.20	2293.81
572.55	2292.69
572.90	2291.08
573.26	2289.73
573.61	2287.97
573.96	2286.41
574.31	2283.40
574.67	2280.43
575.02	2276.98
575.37	2273.51
575.72	2269.78
576.08	2266.50
576.43	2263.22
576.78	2259.63
577.13	2256.25
577.49	2252.99
577.84	2249.45
578.19	2245.67
578.54	2242.24
578.90	2238.02
579.25	2232.35
579.60	2227.52
579.95	2222.63
580.30	2217.47
580.66	2212.41
581.01	2207.49
581.36	2202.57
581.71	2198.35
582.06	2193.90
582.42	2189.53
582.77	2184.21
583.12	2179.60
583.47	2175.02
583.82	2170.20
584.17	2165.11
584.53	2159.84
584.88	2154.45
585.23	2148.80
585.58	2143.37
585.93	2137.84
586.28	2132.93
586.63	2128.03
586.98	2122.93
587.34	2118.24
587.69	2113.43
588.04	2108.17
588.39	2102.52
588.74	2095.91
589.09	2089.74
589.44	2083.12
589.79	2077.05
590.14	2071.43
590.49	2064.80
590.84	2058.32
591.19	2052.26
591.54	2045.76
591.89	2038.51
592.25	2031.74
592.60	2024.50
592.95	2016.93
593.30	2009.62
593.65	2001.92
594.00	1994.87
594.35	1987.42
594.70	1979.42
595.05	1972.50
595.40	1965.28
595.75	1957.78
596.10	1951.77
596.45	1945.18
596.80	1938.98
597.15	1932.43
597.50	1925.54
597.85	1919.09
598.19	1912.64
598.54	1905.56
598.89	1898.90
599.24	1892.94
599.59	1886.36
599.94	1880.25
600.29	1874.00
600.64	1867.30
600.99	1860.18
601.34	1853.43
601.69	1846.68
602.04	1839.83
602.39	1832.42
602.74	1825.57
603.08	1818.85
603.43	1812.18
603.78	1804.84
604.13	1797.56
604.48	1790.40
604.83	1783.60
605.18	1776.84
605.53	1768.79
605.87	1760.92
606.22	1753.66
606.57	1745.73
606.92	1738.26
607.27	1731.09
607.62	1724.21
607.96	1717.07
608.31	1710.66
608.66	1703.06
609.01	1695.58
609.36	1688.23
609.70	1680.23
610.05	1672.33
610.40	1664.78
610.75	1656.57
611.10	1648.88
611.44	1640.39
611.79	1632.43
612.14	1623.85
612.49	1614.54
612.83	1606.22
613.18	1598.05
613.53	1590.01
613.88	1581.43
614.22	1573.21
614.57	1564.61
614.92	1556.59
615.27	1549.24
615.61	1540.84
615.96	1532.77
616.31	1525.14
616.65	1517.63
617.00	1510.03
617.35	1502.14
617.70	1493.83
618.04	1485.27
618.39	1477.02
618.74	1469.57
619.08	1461.22
619.43	1453.53
619.78	1446.75
620.12	1439.60
620.47	1432.03
620.82	1423.87
621.16	1416.46
621.51	1408.82
621.85	1401.20
622.20	1392.64
622.55	1384.12
622.89	1376.17
623.24	1368.52
623.59	1361.06
623.93	1353.44
624.28	1346.18
624.62	1338.76
624.97	1331.46
625.32	1324.62
625.66	1317.57
626.01	1310.39
626.35	1302.96
626.70	1295.11
627.04	1287.33
627.39	1279.45
627.73	1272.10
628.08	1265.22
628.43	1258.15
628.77	1250.83
629.12	1243.24
629.46	1236.06
629.81	1228.59
630.15	1221.34
630.50	1213.93
630.84	1205.75
631.19	1197.82
631.53	1190.33
631.88	1182.66
632.22	1175.13
632.57	1167.81
632.91	1160.30
633.26	1152.84
633.60	1145.39
633.95	1138.33
634.29	1131.23
634.64	1124.54
634.98	1117.16
635.32	1109.96
635.67	1103.09
636.01	1096.40
636.36	1089.59
636.70	1083.07
637.05	1076.58
637.39	1070.12
637.73	1063.69
638.08	1057.78
638.42	1051.75
638.77	1045.30
639.11	1038.83
639.45	1032.42
639.80	1025.77
640.14	1019.36
640.49	1012.83
640.83	1006.54
641.17	1000.35
641.52	994.07
641.86	987.57
642.20	981.66
642.55	975.28
642.89	968.95
643.23	962.35
643.58	956.59
643.92	950.44
644.26	944.41
644.61	938.32
644.95	932.33
645.29	925.81
645.64	919.20
645.98	912.87
646.32	906.99
646.66	900.94
647.01	895.11
647.35	889.44
647.69	883.60
648.04	878.03
648.38	872.16
648.72	866.14
649.06	860.15
649.41	854.28
649.75	848.39
650.09	842.43
650.43	836.65
650.78	830.56
651.12	824.64
651.46	818.87
651.80	813.23
652.14	807.76
652.49	802.37
652.83	797.16
653.17	791.53
653.51	785.82
653.85	780.39
654.20	774.82
654.54	768.78
654.88	763.03
655.22	757.15
655.56	751.48
655.90	746.01
656.25	740.74
656.59	735.34
656.93	730.26
657.27	725.13
657.61	719.72
657.95	714.49
658.29	709.37
658.64	704.09
658.98	698.68
659.32	693.18
659.66	687.99
660.00	682.72
660.34	677.70
660.68	672.78
661.02	667.68
661.36	662.94
661.70	658.45
662.05	654.11
662.39	649.78
662.73	645.29
663.07	640.89
663.41	636.45
663.75	631.99
664.09	627.42
664.43	622.92
664.77	618.87
665.11	614.64
665.45	610.42
665.79	606.39
666.13	602.29
666.47	598.21
666.81	594.01
667.15	589.78
667.49	585.83
667.83	582.00
668.17	578.09
668.51	574.06
668.85	570.01
669.19	566.12
669.53	562.33
669.87	558.51
670.21	554.86
670.55	551.15
670.89	547.78
671.23	544.32
671.57	540.84
671.91	537.30
672.25	533.79
672.58	530.35
672.92	526.93
673.26	523.70
673.60	520.59
673.94	517.44
674.28	514.57
674.62	511.69
674.96	508.60
675.30	505.75
675.64	502.81
675.97	500.08
676.31	497.25
676.65	494.31
676.99	491.58
677.33	488.72
677.67	486.01
678.01	482.97
678.34	479.99
678.68	477.12
679.02	474.32
679.36	471.56
679.70	468.85
680.04	466.07
680.37	463.26
680.71	460.44
681.05	457.87
681.39	455.16
681.73	452.47
682.06	449.97
682.40	447.46
682.74	444.87
683.08	442.27
683.42	439.64
683.75	437.14
684.09	434.57
684.43	432.06
684.77	429.57
685.10	427.16
685.44	424.90
685.78	422.60
686.12	420.34
686.45	418.08
686.79	415.84
687.13	413.65
687.46	411.45
687.80	409.28
688.14	407.06
688.48	404.99
688.81	402.79
689.15	400.59
689.49	398.41
689.82	396.39
690.16	394.29
690.50	392.37
690.83	390.41
691.17	388.44
691.51	386.57
691.84	384.77
692.18	382.82
692.52	380.82
692.85	378.86
693.19	376.97
693.52	375.14
693.86	373.22
694.20	371.42
694.53	369.65
694.87	367.81
695.21	365.99
695.54	364.19
695.88	362.43
696.21	360.74
696.55	359.02
696.88	357.32
697.22	355.64
697.56	353.93
697.89	352.30
698.23	350.68
698.56	349.06
698.90	347.41
699.23	345.82
699.57	344.27
699.90	342.74
700.24	341.19
700.58	339.69
700.91	338.20
701.25	336.82
701.58	335.43
701.92	334.09
702.25	332.73
702.59	331.40
702.92	330.09
703.26	328.79
703.59	327.52
703.93	326.27
704.26	325.07
704.60	323.83
704.93	322.56
705.26	321.30
705.60	320.09
705.93	318.92
706.27	317.86
706.60	316.79
706.94	315.71
707.27	314.59
707.61	313.49
707.94	312.50
708.27	311.34
708.61	310.25
708.94	309.20
709.28	308.21
709.61	307.23
709.94	306.30
710.28	305.24
710.61	304.25
710.95	303.23
711.28	302.33
711.61	301.41
711.95	300.53
712.28	299.61
712.61	298.66
712.95	297.74
713.28	296.85
713.61	295.96
713.95	295.06
714.28	294.23
714.61	293.36
714.95	292.49
715.28	291.66
715.61	290.79
715.95	289.92
716.28	289.09
716.61	288.26
716.95	287.44
717.28	286.69
717.61	285.95
717.94	285.22
718.28	284.40
718.61	283.63
718.94	282.91
719.27	282.26
719.61	281.60
719.94	280.94
720.27	280.22
720.60	279.55
720.94	278.95
721.27	278.36
721.60	277.78
721.93	277.20
722.27	276.69
722.60	276.15
722.93	275.62
723.26	275.09
723.59	274.51
723.93	273.94
724.26	273.42
724.59	272.88
724.92	272.31
725.25	271.82
725.59	271.31
725.92	270.78
726.25	270.23
726.58	269.77
726.91	269.28
727.24	268.83
727.57	268.35
727.91	267.86
728.24	267.38
728.57	266.89
728.90	266.42
729.23	265.89
729.56	265.45
729.89	264.99
730.22	264.46
730.55	263.98
730.89	263.52
731.22	263.05
731.55	262.58
731.88	262.16
732.21	261.70
732.54	261.23
732.87	260.81
733.20	260.42
733.53	260.00
733.86	259.61
734.19	259.21
734.52	258.83
734.85	258.48
735.18	258.09
735.51	257.73
735.84	257.34
736.17	256.99
736.50	256.57
736.83	256.33
737.16	256.04
737.49	255.73
737.82	255.37
738.15	255.01
738.48	254.68
738.81	254.34
739.14	254.04
739.47	253.76
739.80	253.44
740.13	253.12
740.46	252.77
740.79	252.45
741.12	252.12
741.45	251.78
741.78	251.48
742.11	251.19
742.44	250.83
742.77	250.57
743.10	250.27
743.43	249.99
743.75	249.59
744.08	249.41
744.41	249.13
744.74	248.88
745.07	248.63
745.40	248.41
745.73	248.20
746.06	247.91
746.39	247.66
746.71	247.40
747.04	247.15
747.37	246.90
747.70	246.67
748.03	246.43
748.36	246.17
748.68	245.92
749.01	245.66
749.34	245.45
749.67	245.22
750.00	244.99
750.33	244.80
750.65	244.60
750.98	244.27
751.31	244.04
751.64	243.81
751.97	243.64
752.29	243.43
752.62	243.14
752.95	242.94
753.28	242.72
753.60	242.49
753.93	242.32
754.26	242.12
754.59	241.89
754.91	241.67
755.24	241.52
755.57	241.30
755.90	241.10
756.22	240.93
756.55	240.68
756.88	240.49
757.20	240.26
757.53	240.09
757.86	239.89
758.19	239.72
758.51	239.59
758.84	239.41
759.17	239.24
759.49	239.14
759.82	239.02
760.15	238.86
760.47	238.77
760.80	238.59
761.13	238.47
761.45	238.35
761.78	238.23
762.11	238.09
762.43	237.94
762.76	237.83
763.08	237.73
763.41	237.64
763.74	237.54
764.06	237.41
764.39	237.26
764.71	237.16
765.04	236.97
765.37	236.84
765.69	236.68
766.02	236.53
766.34	236.33
766.67	236.17
767.00	236.10
767.32	236.01
767.65	235.95
767.97	235.81
768.30	235.71
768.62	235.59
768.95	235.44
769.27	235.33
769.60	235.20
769.92	235.05
770.25	234.93
770.57	234.80
770.90	234.68
771.22	234.61
771.55	234.49
771.87	234.45
772.20	234.33
772.52	234.33
772.85	234.38
773.17	234.33
773.50	234.24
773.82	234.11
774.15	233.98
774.47	233.84
774.80	233.76
775.12	233.66
775.45	233.57
775.77	233.51
776.09	233.46
776.42	233.38
776.74	233.34
777.07	233.26
777.39	233.19
777.72	233.12
778.04	233.03
778.36	232.97
778.69	232.91
779.01	232.85
779.33	232.73
779.66	232.54
779.98	232.44
780.31	232.39
780.63	232.35
780.95	232.31
781.28	232.24
781.60	232.16
781.92	232.09
782.25	232.04
782.57	231.99
782.89	231.91
783.22	231.86
783.54	231.79
783.86	231.73
784.19	231.65
784.51	231.63
784.83	231.54
785.16	231.47
785.48	231.39
785.80	231.35
786.12	231.28
786.45	231.24
786.77	231.19
787.09	231.09
787.42	231.00
787.74	230.93
788.06	230.88
788.38	230.85
788.71	230.78
789.03	230.72
789.35	230.67
789.67	230.62
789.99	230.57
790.32	230.49
790.64	230.46
790.96	230.52
791.28	230.41
791.61	230.36
791.93	230.35
792.25	230.30
792.57	230.30
792.89	230.21
793.21	230.18
793.54	230.17
793.86	230.15
794.18	230.10
794.50	230.02
794.82	229.94
795.14	229.90
795.47	229.89
795.79	229.87
796.11	229.82
796.43	229.76
796.75	229.73
797.07	229.71
797.39	229.63
797.71	229.50
798.04	229.50
798.36	229.47
798.68	229.41
799.00	229.42
799.32	229.35
799.64	229.34
799.96	229.30
800.28	229.25
800.60	229.22
800.92	229.21
801.24	229.22
801.56	229.20
801.89	229.17
802.21	229.13
802.53	229.06
802.85	229.03
803.17	229.08
803.49	229.04
803.81	228.99
804.13	228.99
804.45	228.95
804.77	228.92
805.09	228.91
805.41	228.89
805.73	228.84
806.05	228.81
806.37	228.77
806.69	228.75
807.01	228.72
807.33	228.72
807.65	228.67
807.97	228.65
808.28	228.66
808.60	228.63
808.92	228.60
809.24	228.63
809.56	228.60
809.88	228.52
810.20	228.53
810.52	228.52
810.84	228.47
811.16	228.44
811.48	228.41
811.80	228.45
812.12	228.41
812.43	228.38
812.75	228.35
813.07	228.32
813.39	228.31
813.71	228.28
814.03	228.25
814.35	228.25
814.67	228.21
814.98	228.15
815.30	228.16
815.62	228.14
815.94	228.09
816.26	228.10
816.58	228.07
816.89	228.04
817.21	228.02
817.53	228.02
817.85	228.02
818.17	228.04
818.48	227.96
818.80	227.99
819.12	228.00
819.44	227.98
819.76	227.95
820.07	227.96
820.39	227.96
820.71	227.95
821.03	227.93
821.34	227.88
821.66	227.89
821.98	227.87
822.30	227.82
822.61	227.85
822.93	227.79
823.25	227.78
823.57	227.77
823.88	227.77
824.20	227.76
824.52	227.76
824.83	227.72
825.15	227.70
825.47	227.66
825.79	227.61
826.10	227.59
826.42	227.62
826.74	227.56
827.05	227.55
827.37	227.55
827.69	227.52
828.00	227.56
828.32	227.54
828.64	227.55
828.95	227.61
829.27	227.61
829.58	227.61
829.90	227.61
830.22	227.60
830.53	227.59
830.85	227.55
831.17	227.52
831.48	227.50
831.80	227.51
832.11	227.51
832.43	227.50
832.75	227.50
833.06	227.52
833.38	227.50
833.69	227.51
834.01	227.52
834.32	227.49
834.64	227.46
834.96	227.49
835.27	227.49
835.59	227.47
835.90	227.43
836.22	227.41
836.53	227.40
836.85	227.38
837.16	227.46
837.48	227.45
837.79	227.47
838.11	227.45
838.42	227.43
838.74	227.43
839.05	227.44
839.37	227.43
839.68	227.34
840.00	227.34
840.31	227.30
840.63	227.29
840.94	227.28
841.26	227.27
841.57	227.21
841.88	227.20
842.20	227.16
842.51	227.14
842.83	227.15
843.14	227.22
843.46	227.23
843.77	227.17
844.08	227.15
844.40	227.16
844.71	227.17
845.03	227.16
845.34	227.16
845.65	227.16
845.97	227.17
846.28	227.19
846.60	227.17
846.91	227.16
847.22	227.15
847.54	227.20
847.85	227.19
848.16	227.18
848.48	227.11
848.79	227.17
849.10	227.15
849.42	227.14
849.73	227.02
850.04	227.00
850.36	226.95
850.67	226.98
850.98	226.93
851.30	226.93
851.61	226.91
851.92	226.89
852.23	226.90
852.55	226.90
852.86	226.86
853.17	226.89
853.49	226.91
853.80	226.90
854.11	226.88
854.42	226.88
854.74	226.88
855.05	226.89
855.36	226.82
855.67	226.85
855.99	226.84
856.30	226.93
856.61	226.93
856.92	226.92
857.23	226.91
857.55	226.90
857.86	226.88
858.17	226.89
858.48	226.83
858.79	226.83
859.11	226.81
859.42	226.83
859.73	226.82
860.04	226.79
860.35	226.78
860.66	226.73
860.98	226.73
861.29	226.73
861.60	226.74
861.91	226.76
862.22	226.73
862.53	226.72
862.84	226.65
863.16	226.66
863.47	226.64
863.78	226.64
864.09	226.66
864.40	226.66
864.71	226.66
865.02	226.71
865.33	226.69
865.64	226.66
865.95	226.66
866.27	226.74
866.58	226.72
866.89	226.74
867.20	226.76
867.51	226.76
867.82	226.76
868.13	226.79
868.44	226.76
868.75	226.82
869.06	226.81
869.37	226.81
869.68	226.81
869.99	226.82
870.30	226.84
870.61	226.84
870.92	226.83
871.23	226.84
871.54	226.82
871.85	226.83
872.16	226.87
872.47	226.86
872.78	226.77
873.09	226.78
873.40	226.75
873.71	226.76
874.02	226.76
874.33	226.76
874.64	226.71
874.95	226.73
875.26	226.69
875.56	226.69
875.87	226.65
876.18	226.67
876.49	226.78
876.80	226.75
877.11	226.74
877.42	226.74
877.73	226.75
878.04	226.76
878.35	226.74
878.66	226.72
878.96	226.70
879.27	226.72
879.58	226.69
879.89	226.69
880.20	226.73
880.51	226.71
880.82	226.68
881.12	226.68
881.43	226.71
881.74	226.69
882.05	226.70
882.36	226.73
882.67	226.71
882.97	226.58
883.28	226.59
883.59	226.63
883.90	226.61
884.21	226.59
884.51	226.59
884.82	226.61
885.13	226.62
885.44	226.63
885.74	226.60
886.05	226.63
886.36	226.64
886.67	226.58
886.98	226.67
887.28	226.71
887.59	226.70
887.90	226.67
888.20	226.66
888.51	226.68
888.82	226.66
889.13	226.67
889.43	226.75
889.74	226.73
890.05	226.69
890.35	226.72
890.66	226.75
890.97	226.72
891.28	226.69
891.58	226.71
891.89	226.73
892.20	226.72
892.50	226.73
892.81	226.72
893.12	226.70
893.42	226.63
893.73	226.64
894.04	226.63
894.34	226.62
894.65	226.63
894.95	226.64
895.26	226.67
895.57	226.72
895.87	226.64
896.18	226.68
896.48	226.71
896.79	226.69
897.10	226.69
897.40	226.70
897.71	226.72
898.01	226.68
898.32	226.69
898.63	226.70
898.93	226.69
899.24	226.68
899.54	226.69
899.85	226.68
900.15	226.64
900.46	226.64
900.76	226.67
901.07	226.67
901.38	226.65
901.68	226.63
901.99	226.56
902.29	226.55
902.60	226.51
902.90	226.46
903.21	226.45
903.51	226.43
903.82	226.40
904.12	226.39
904.43	226.41
904.73	226.39
905.03	226.37
905.34	226.46
905.64	226.44
905.95	226.46
906.25	226.46
906.56	226.46
906.86	226.48
907.17	226.48
907.47	226.44
907.77	226.43
908.08	226.41
908.38	226.44
908.69	226.43
908.99	226.45
909.30	226.47
909.60	226.46
909.90	226.47
910.21	226.48
910.51	226.48
910.81	226.48
911.12	226.48
911.42	226.46
911.73	226.34
912.03	226.34
912.33	226.35
912.64	226.34
912.94	226.32
913.24	226.29
913.55	226.25
913.85	226.27
914.15	226.30
914.46	226.29
914.76	226.25
915.06	226.22
915.37	226.20
915.67	226.21
915.97	226.22
916.27	226.19
916.58	226.21
916.88	226.17
917.18	226.14
917.49	226.23
917.79	226.27
918.09	226.31
918.39	226.37
918.70	226.36
919.00	226.37
919.30	226.44
919.60	226.45
919.91	226.47
920.21	226.48
920.51	226.49
920.81	226.50
921.12	226.56
921.42	226.57
921.72	226.58
922.02	226.56
922.32	226.58
922.63	226.56
922.93	226.61
923.23	226.61
923.53	226.59
923.83	226.49
924.13	226.45
924.44	226.43
924.74	226.41
925.04	226.41
925.34	226.42
925.64	226.36
925.94	226.36
926.24	226.39
926.55	226.37
926.85	226.34
927.15	226.32
927.45	226.29
927.75	226.33
928.05	226.35
928.35	226.36
928.65	226.39
928.95	226.41
929.26	226.38
929.56	226.43
929.86	226.44
930.16	226.48
930.46	226.46
930.76	226.51
931.06	226.48
931.36	226.48
931.66	226.49
931.96	226.53
932.26	226.54
932.56	226.48
932.86	226.49
933.16	226.52
933.46	226.52
933.76	226.51
934.06	226.53
934.36	226.57
934.66	226.57
934.96	226.54
935.26	226.57
935.56	226.56
935.86	226.53
936.16	226.53
936.46	226.50
936.76	226.53
937.06	226.46
937.36	226.46
937.66	226.43
937.96	226.41
938.26	226.35
938.56	226.33
938.86	226.38
939.16	226.37
939.46	226.35
939.76	226.37
940.06	226.35
940.35	226.31
940.65	226.24
940.95	226.22
941.25	226.19
941.55	226.16
941.85	226.17
942.15	226.22
942.45	226.22
942.75	226.21
943.04	226.19
943.34	226.23
943.64	226.23
943.94	226.24
944.24	226.24
944.54	226.25
944.84	226.26
945.13	226.22
945.43	226.22
945.73	226.23
946.03	226.18
946.33	226.19
946.62	226.19
946.92	226.17
947.22	226.20
947.52	226.21
947.82	226.22
948.11	226.19
948.41	226.15
948.71	226.13
949.01	226.15
949.31	226.16
949.60	226.15
949.90	226.17
950.20	226.20
950.50	226.20
950.79	226.20
951.09	226.23
951.39	226.20
951.69	226.19
951.98	226.20
952.28	226.22
952.58	226.21
952.87	226.19
953.17	226.23
953.47	226.20
953.76	226.21
954.06	226.22
954.36	226.21
954.66	226.17
954.95	226.20
955.25	226.22
955.55	226.22
955.84	226.21
956.14	226.21
956.44	226.20
956.73	226.17
957.03	226.17
957.32	226.15
957.62	226.17
957.92	226.19
958.21	226.19
958.51	226.32
958.81	226.35
959.10	226.41
959.40	226.39
959.69	226.39
959.99	226.38
960.29	226.33
960.58	226.34
960.88	226.42
961.17	226.40
961.47	226.38
961.76	226.38
962.06	226.38
962.36	226.38
962.65	226.38
962.95	226.40
963.24	226.39
963.54	226.37
963.83	226.38
964.13	226.36
964.42	226.34
964.72	226.23
965.01	226.22
965.31	226.20
965.60	226.19
965.90	226.25
966.19	226.23
966.49	226.27
966.78	226.25
967.08	226.21
967.37	226.22
967.67	226.19
967.96	226.17
968.26	226.15
968.55	226.15
968.85	226.13
969.14	226.12
969.43	226.15
969.73	226.15
970.02	226.14
970.32	226.15
970.61	226.13
970.91	226.11
971.20	226.09
971.49	226.09
971.79	226.10
972.08	226.04
972.38	226.07
972.67	226.06
972.96	226.07
973.26	226.07
973.55	226.08
973.85	226.08
974.14	226.08
974.43	226.12
974.73	226.12
975.02	226.12
975.31	226.13
975.61	226.11
975.90	226.10
976.19	226.10
976.49	226.09
976.78	226.09
977.07	226.10
977.37	226.08
977.66	226.07
977.95	226.07
978.24	226.08
978.54	226.08
978.83	226.06
979.12	226.05
979.42	226.02
979.71	226.01
980.00	226.02
980.29	226.01
980.59	225.98
980.88	226.01
981.17	226.03
981.46	226.02
981.76	225.99
982.05	226.03
982.34	226.03
982.63	226.03
982.93	226.04
983.22	226.03
983.51	226.07
983.80	226.08
984.09	226.10
984.39	226.11
984.68	226.11
984.97	226.15
985.26	226.15
985.55	226.19
985.85	226.18
986.14	226.22
986.43	226.26
986.72	226.27
987.01	226.26
987.30	226.22
987.59	226.21
987.89	226.24
988.18	226.21
988.47	226.20
988.76	226.19
989.05	226.19
989.34	226.21
989.63	226.24
989.92	226.20
990.22	226.20
990.51	226.17
990.80	226.15
991.09	226.15
991.38	226.15
991.67	226.15
991.96	226.16
992.25	226.15
992.54	226.11
992.83	226.09
993.12	226.07
993.41	226.09
993.70	226.14
993.99	226.19
994.28	226.18
994.58	226.19
994.87	226.19
995.16	226.23
995.45	226.22
995.74	226.19
996.03	226.20
996.32	226.20
996.61	226.21
996.90	226.23
997.19	226.22
997.48	226.25
997.77	226.20
998.06	226.23
998.34	226.21
998.63	226.21
998.92	226.21
999.21	226.26
999.50	226.26
999.79	226.23
1000.08	226.18
1000.37	226.17
1000.66	226.17
1000.95	226.17
1001.24	226.17
1001.53	226.17
1001.82	226.16
1002.11	226.14
1002.40	226.13
1002.68	226.17
1002.97	226.23
1003.26	226.23
1003.55	226.20
1003.84	226.22
1004.13	226.21
1004.42	226.23
1004.71	226.23
1004.99	226.24
1005.28	226.24
1005.57	226.23
1005.86	226.19
1006.15	226.20
1006.44	226.21
1006.72	226.24
1007.01	226.26
1007.30	226.26
1007.59	226.25
1007.88	226.25
1008.17	226.25
1008.45	226.26
1008.74	226.19
1009.03	226.15
1009.32	226.17
1009.60	226.19
1009.89	226.19
1010.18	226.16
1010.47	226.14
1010.76	226.13
1011.04	226.12
1011.33	226.14
1011.62	226.13
1011.91	226.18
1012.19	226.20
1012.48	226.22
1012.77	226.19
1013.05	226.25
1013.34	226.23
1013.63	226.22
1013.92	226.23
1014.20	226.23
1014.49	226.23
1014.78	226.28
1015.06	226.26
1015.35	226.25
1015.64	226.25
1015.92	226.26
1016.21	226.25
1016.50	226.26
1016.78	226.29
1017.07	226.30
1017.36	226.24
1017.64	226.25
1017.93	226.22
1018.22	226.21
1018.50	226.19
1018.79	226.22
1019.08	226.16
1019.36	226.19
1019.65	226.18
1019.93	226.21
1020.22	226.23
1020.51	226.27
1020.79	226.23
1021.08	226.31
1021.36	225.74
1021.65	226.82
1021.94	226.27
1022.22	226.53
1022.51	226.18
1022.79	226.60
1023.08	226.31
1023.36	226.99
1023.65	225.92
>>>>>End Processed Spectral Data<<<<<
