SpectraSuite Data File
++++++++++++++++++++++++++++++++++++
Date: Fri Feb 01 18:12:34 EST 2013
User: group
Dark Spectrum Present: No
Reference Spectrum Present: No
Number of Sampled Component Spectra: 1
Spectrometers: USB2E7196
Integration Time (usec): 35000 (USB2E7196)
Spectra Averaged: 100 (USB2E7196)
Boxcar Smoothing: 10 (USB2E7196)
Correct for Electrical Dark: No (USB2E7196)
Strobe/Lamp Enabled: No (USB2E7196)
Correct for Detector Non-linearity: No (USB2E7196)
Correct for Stray Light: No (USB2E7196)
Number of Pixels in Processed Spectrum: 2048
>>>>>Begin Processed Spectral Data<<<<<
339.09	0.00
339.48	212.84
339.86	214.52
340.24	215.77
340.63	216.39
341.01	219.83
341.39	220.63
341.78	221.18
342.16	222.11
342.54	223.23
342.93	211.58
343.31	222.28
343.69	222.85
344.07	223.34
344.46	223.80
344.84	224.25
345.22	224.51
345.60	224.76
345.99	224.98
346.37	225.16
346.75	225.25
347.13	225.33
347.52	225.38
347.90	225.44
348.28	225.47
348.66	225.52
349.05	225.49
349.43	225.58
349.81	225.65
350.19	225.70
350.57	225.77
350.96	225.80
351.34	225.89
351.72	225.96
352.10	226.06
352.48	226.10
352.87	226.12
353.25	226.19
353.63	226.25
354.01	226.28
354.39	226.36
354.77	226.44
355.15	226.52
355.54	226.59
355.92	226.65
356.30	226.74
356.68	226.87
357.06	226.94
357.44	226.97
357.82	227.04
358.20	227.09
358.58	227.13
358.97	227.23
359.35	227.26
359.73	227.33
360.11	227.39
360.49	227.45
360.87	227.50
361.25	227.55
361.63	227.62
362.01	227.68
362.39	227.69
362.77	227.70
363.15	227.73
363.53	227.78
363.91	227.79
364.29	227.80
364.67	227.71
365.05	227.72
365.43	227.76
365.81	227.76
366.19	227.82
366.57	227.86
366.95	227.83
367.33	227.81
367.71	227.82
368.09	227.82
368.47	227.79
368.85	227.77
369.23	227.76
369.61	227.72
369.99	227.73
370.37	227.71
370.75	227.72
371.13	227.68
371.51	227.60
371.89	227.54
372.27	227.51
372.65	227.48
373.03	227.43
373.41	227.33
373.78	227.28
374.16	227.18
374.54	227.08
374.92	227.02
375.30	226.97
375.68	226.88
376.06	226.83
376.44	226.78
376.82	226.73
377.19	226.68
377.57	226.60
377.95	226.50
378.33	226.45
378.71	226.33
379.09	226.26
379.47	226.22
379.84	226.17
380.22	226.10
380.60	226.00
380.98	225.94
381.36	225.87
381.73	225.79
382.11	225.75
382.49	225.72
382.87	225.67
383.25	225.62
383.62	225.66
384.00	225.56
384.38	225.52
384.76	225.46
385.13	225.43
385.51	225.37
385.89	225.33
386.27	225.30
386.64	225.30
387.02	225.27
387.40	225.22
387.78	225.16
388.15	225.14
388.53	225.15
388.91	225.10
389.29	225.06
389.66	225.06
390.04	225.01
390.42	224.97
390.79	224.95
391.17	224.91
391.55	224.81
391.92	224.81
392.30	224.79
392.68	224.80
393.05	224.78
393.43	224.82
393.81	224.82
394.18	224.77
394.56	224.80
394.94	224.81
395.31	224.80
395.69	224.88
396.06	224.92
396.44	224.93
396.82	224.96
397.19	225.07
397.57	225.09
397.95	225.14
398.32	225.17
398.70	225.22
399.07	225.29
399.45	225.35
399.82	225.41
400.20	225.46
400.58	225.52
400.95	225.56
401.33	225.63
401.70	225.76
402.08	225.86
402.45	225.93
402.83	226.06
403.20	226.17
403.58	226.27
403.95	226.37
404.33	226.46
404.71	226.60
405.08	226.77
405.46	226.93
405.83	227.07
406.21	227.21
406.58	227.39
406.96	227.58
407.33	227.79
407.70	228.00
408.08	228.29
408.45	228.56
408.83	228.86
409.20	229.15
409.58	229.39
409.95	229.73
410.33	230.09
410.70	230.38
411.08	230.76
411.45	231.17
411.82	231.60
412.20	232.11
412.57	232.66
412.95	233.09
413.32	233.66
413.69	234.25
414.07	234.88
414.44	235.56
414.82	236.23
415.19	236.96
415.56	237.75
415.94	238.55
416.31	239.44
416.68	240.31
417.06	241.28
417.43	242.25
417.81	243.31
418.18	244.36
418.55	245.55
418.93	246.79
419.30	248.05
419.67	249.36
420.04	250.66
420.42	252.08
420.79	253.69
421.16	255.28
421.54	256.92
421.91	258.62
422.28	260.36
422.66	262.22
423.03	264.05
423.40	265.93
423.77	267.90
424.15	269.90
424.52	272.00
424.89	274.29
425.26	276.48
425.64	278.53
426.01	280.77
426.38	283.12
426.75	285.49
427.13	287.93
427.50	290.47
427.87	293.18
428.24	295.83
428.61	298.38
428.99	301.11
429.36	304.12
429.73	307.05
430.10	309.90
430.47	312.82
430.85	315.87
431.22	319.00
431.59	322.32
431.96	325.52
432.33	329.02
432.70	332.37
433.08	336.32
433.45	340.04
433.82	343.78
434.19	347.82
434.56	351.75
434.93	355.49
435.30	359.19
435.68	363.31
436.05	367.28
436.42	371.17
436.79	374.75
437.16	378.55
437.53	382.52
437.90	386.51
438.27	390.39
438.64	394.33
439.01	398.04
439.38	401.27
439.75	404.33
440.13	407.82
440.50	411.11
440.87	413.73
441.24	416.51
441.61	419.55
441.98	421.68
442.35	424.29
442.72	426.94
443.09	429.52
443.46	430.84
443.83	431.66
444.20	432.40
444.57	433.62
444.94	434.02
445.31	434.53
445.68	435.00
446.05	435.13
446.42	434.60
446.79	433.94
447.16	433.31
447.53	432.87
447.90	431.24
448.27	429.61
448.64	427.39
449.01	425.83
449.37	423.06
449.74	420.41
450.11	417.15
450.48	413.68
450.85	410.12
451.22	407.12
451.59	404.28
451.96	401.56
452.33	397.84
452.70	394.51
453.07	390.50
453.43	386.42
453.80	382.52
454.17	378.78
454.54	375.24
454.91	371.39
455.28	367.65
455.65	364.16
456.02	360.62
456.38	357.53
456.75	353.68
457.12	350.49
457.49	347.34
457.86	344.30
458.23	341.61
458.59	338.67
458.96	335.71
459.33	333.06
459.70	330.39
460.07	328.25
460.43	325.80
460.80	323.45
461.17	321.40
461.54	319.23
461.91	317.18
462.27	315.14
462.64	313.35
463.01	311.38
463.38	309.53
463.74	307.67
464.11	306.04
464.48	304.60
464.85	303.03
465.21	301.73
465.58	300.37
465.95	298.84
466.32	297.55
466.68	296.24
467.05	294.99
467.42	293.71
467.78	292.36
468.15	291.10
468.52	290.20
468.88	288.96
469.25	287.88
469.62	286.97
469.98	285.98
470.35	285.08
470.72	284.19
471.08	283.23
471.45	282.43
471.82	281.62
472.18	280.73
472.55	280.05
472.92	279.35
473.28	278.73
473.65	278.05
474.02	277.41
474.38	276.88
474.75	276.39
475.11	275.85
475.48	275.52
475.85	275.18
476.21	274.79
476.58	274.50
476.94	274.22
477.31	273.95
477.67	273.70
478.04	273.49
478.41	273.35
478.77	273.33
479.14	273.19
479.50	273.15
479.87	273.19
480.23	273.21
480.60	273.22
480.96	273.26
481.33	273.46
481.69	273.60
482.06	273.79
482.42	273.95
482.79	274.18
483.15	274.45
483.52	274.83
483.88	275.15
484.25	275.53
484.61	275.97
484.98	276.39
485.34	276.96
485.71	277.52
486.07	278.14
486.44	278.67
486.80	279.37
487.17	280.13
487.53	280.93
487.90	281.78
488.26	282.73
488.62	283.72
488.99	284.71
489.35	285.81
489.72	286.98
490.08	288.23
490.44	289.51
490.81	290.93
491.17	292.32
491.54	293.91
491.90	295.51
492.26	297.24
492.63	299.07
492.99	300.92
493.36	302.94
493.72	305.15
494.08	307.45
494.45	309.84
494.81	312.36
495.17	314.97
495.54	317.70
495.90	320.57
496.26	323.55
496.63	326.72
496.99	330.07
497.35	333.51
497.72	337.16
498.08	340.94
498.44	344.82
498.80	349.02
499.17	353.32
499.53	357.79
499.89	362.51
500.26	367.40
500.62	372.43
500.98	377.74
501.34	383.13
501.71	388.77
502.07	394.56
502.43	400.60
502.79	406.90
503.16	413.47
503.52	420.17
503.88	427.07
504.24	434.18
504.60	441.61
504.97	449.30
505.33	457.12
505.69	465.43
506.05	473.83
506.41	482.36
506.78	491.18
507.14	500.29
507.50	509.63
507.86	519.35
508.22	529.26
508.59	539.27
508.95	549.63
509.31	560.26
509.67	571.20
510.03	582.35
510.39	593.81
510.75	605.52
511.12	617.45
511.48	629.71
511.84	642.14
512.20	654.71
512.56	667.71
512.92	681.00
513.28	694.53
513.64	708.19
514.00	722.12
514.37	736.24
514.73	750.59
515.09	764.94
515.45	779.54
515.81	794.40
516.17	809.71
516.53	825.21
516.89	840.82
517.25	856.53
517.61	872.34
517.97	888.30
518.33	904.17
518.69	920.44
519.05	937.00
519.41	953.89
519.77	971.00
520.13	988.13
520.49	1005.21
520.85	1022.20
521.21	1039.63
521.57	1057.66
521.93	1075.15
522.29	1093.25
522.65	1111.37
523.01	1129.52
523.37	1147.51
523.73	1165.64
524.09	1183.64
524.45	1201.94
524.81	1220.43
525.17	1239.26
525.53	1258.09
525.89	1277.02
526.25	1296.01
526.61	1314.54
526.97	1333.38
527.33	1351.94
527.68	1370.58
528.04	1389.32
528.40	1408.11
528.76	1427.30
529.12	1446.06
529.48	1465.30
529.84	1483.59
530.20	1502.48
530.56	1521.50
530.91	1541.42
531.27	1560.51
531.63	1579.38
531.99	1598.49
532.35	1616.82
532.71	1635.22
533.07	1653.95
533.42	1672.46
533.78	1691.10
534.14	1709.95
534.50	1727.78
534.86	1746.27
535.21	1764.06
535.57	1782.46
535.93	1800.44
536.29	1817.87
536.65	1835.46
537.00	1852.70
537.36	1870.63
537.72	1887.64
538.08	1904.91
538.44	1921.08
538.79	1937.48
539.15	1953.64
539.51	1969.72
539.87	1986.81
540.22	2003.04
540.58	2019.54
540.94	2035.41
541.29	2050.66
541.65	2065.80
542.01	2081.60
542.37	2096.48
542.72	2111.53
543.08	2125.86
543.44	2141.03
543.79	2154.78
544.15	2168.37
544.51	2182.57
544.87	2196.13
545.22	2209.55
545.58	2222.28
545.94	2234.57
546.29	2246.91
546.65	2259.32
547.01	2271.18
547.36	2282.37
547.72	2293.30
548.07	2303.47
548.43	2313.92
548.79	2324.31
549.14	2334.28
549.50	2343.79
549.86	2353.83
550.21	2363.23
550.57	2372.78
550.92	2381.46
551.28	2390.70
551.64	2399.93
551.99	2408.64
552.35	2416.82
552.70	2425.10
553.06	2433.35
553.41	2441.80
553.77	2449.98
554.13	2458.19
554.48	2466.40
554.84	2473.97
555.19	2481.26
555.55	2488.35
555.90	2494.77
556.26	2501.61
556.61	2508.08
556.97	2514.42
557.32	2520.26
557.68	2526.26
558.03	2532.37
558.39	2537.83
558.74	2544.41
559.10	2550.03
559.45	2555.57
559.81	2561.65
560.16	2567.29
560.52	2572.01
560.87	2576.99
561.23	2581.07
561.58	2585.55
561.94	2589.71
562.29	2593.29
562.64	2597.54
563.00	2601.67
563.35	2606.73
563.71	2611.40
564.06	2616.22
564.42	2620.66
564.77	2624.67
565.12	2628.45
565.48	2631.61
565.83	2634.99
566.19	2637.62
566.54	2639.64
566.89	2641.96
567.25	2643.77
567.60	2646.23
567.96	2649.19
568.31	2651.18
568.66	2653.72
569.02	2655.35
569.37	2656.50
569.72	2658.53
570.08	2659.54
570.43	2660.32
570.78	2660.58
571.14	2659.67
571.49	2658.78
571.84	2659.13
572.20	2658.70
572.55	2658.27
572.90	2657.06
573.26	2656.14
573.61	2654.81
573.96	2653.72
574.31	2650.90
574.67	2648.13
575.02	2644.52
575.37	2641.22
575.72	2637.54
576.08	2633.93
576.43	2630.58
576.78	2627.03
577.13	2623.91
577.49	2620.81
577.84	2617.41
578.19	2613.52
578.54	2609.99
578.90	2605.68
579.25	2599.57
579.60	2594.40
579.95	2589.03
580.30	2584.03
580.66	2578.38
581.01	2573.01
581.36	2567.52
581.71	2563.13
582.06	2558.35
582.42	2553.68
582.77	2548.03
583.12	2543.16
583.47	2538.29
583.82	2533.02
584.17	2527.21
584.53	2521.14
584.88	2514.93
585.23	2508.52
585.58	2502.51
585.93	2496.20
586.28	2490.83
586.63	2485.24
586.98	2479.42
587.34	2474.15
587.69	2468.45
588.04	2462.77
588.39	2456.35
588.74	2449.00
589.09	2441.96
589.44	2434.23
589.79	2427.15
590.14	2420.58
590.49	2412.92
590.84	2405.41
591.19	2398.43
591.54	2391.04
591.89	2382.58
592.25	2374.85
592.60	2366.53
592.95	2357.82
593.30	2349.36
593.65	2340.58
594.00	2332.45
594.35	2323.98
594.70	2314.67
595.05	2306.33
595.40	2297.63
595.75	2288.87
596.10	2281.69
596.45	2273.92
596.80	2266.80
597.15	2259.07
597.50	2250.93
597.85	2243.30
598.19	2235.58
598.54	2227.23
598.89	2219.26
599.24	2212.33
599.59	2204.44
599.94	2197.13
600.29	2189.48
600.64	2181.75
600.99	2173.03
601.34	2164.82
601.69	2156.52
602.04	2148.59
602.39	2139.83
602.74	2131.71
603.08	2123.63
603.43	2115.54
603.78	2106.64
604.13	2097.87
604.48	2089.31
604.83	2081.01
605.18	2072.84
605.53	2063.38
605.87	2053.77
606.22	2045.14
606.57	2035.55
606.92	2026.56
607.27	2018.02
607.62	2009.79
607.96	2001.02
608.31	1993.22
608.66	1984.25
609.01	1975.45
609.36	1966.17
609.70	1956.62
610.05	1946.91
610.40	1937.86
610.75	1927.89
611.10	1918.92
611.44	1908.91
611.79	1899.25
612.14	1888.86
612.49	1877.94
612.83	1867.82
613.18	1858.17
613.53	1848.54
613.88	1838.35
614.22	1828.54
614.57	1818.05
614.92	1808.48
615.27	1799.63
615.61	1789.66
615.96	1779.97
616.31	1770.66
616.65	1761.83
617.00	1752.87
617.35	1743.76
617.70	1733.62
618.04	1723.58
618.39	1713.56
618.74	1704.55
619.08	1694.71
619.43	1685.58
619.78	1677.20
620.12	1668.62
620.47	1659.49
620.82	1649.54
621.16	1640.53
621.51	1631.37
621.85	1622.21
622.20	1611.94
622.55	1601.63
622.89	1592.07
623.24	1582.88
623.59	1573.80
623.93	1564.71
624.28	1555.87
624.62	1546.75
624.97	1538.03
625.32	1529.78
625.66	1521.28
626.01	1512.51
626.35	1503.49
626.70	1494.22
627.04	1484.91
627.39	1475.43
627.73	1466.59
628.08	1458.39
628.43	1449.80
628.77	1440.92
629.12	1431.91
629.46	1423.27
629.81	1414.35
630.15	1405.64
630.50	1396.63
630.84	1386.91
631.19	1377.27
631.53	1368.21
631.88	1359.23
632.22	1350.14
632.57	1341.35
632.91	1332.33
633.26	1323.50
633.60	1314.57
633.95	1305.90
634.29	1297.35
634.64	1289.36
634.98	1280.45
635.32	1271.73
635.67	1263.69
636.01	1255.69
636.36	1247.54
636.70	1239.74
637.05	1231.83
637.39	1224.07
637.73	1216.33
638.08	1209.25
638.42	1202.15
638.77	1194.41
639.11	1186.51
639.45	1178.90
639.80	1170.92
640.14	1163.33
640.49	1155.46
640.83	1147.90
641.17	1140.55
641.52	1132.98
641.86	1125.30
642.20	1118.34
642.55	1110.82
642.89	1103.14
643.23	1095.39
643.58	1088.55
643.92	1081.20
644.26	1074.18
644.61	1066.94
644.95	1059.86
645.29	1052.08
645.64	1044.02
645.98	1036.48
646.32	1029.43
646.66	1022.30
647.01	1015.37
647.35	1008.50
647.69	1001.56
648.04	995.07
648.38	988.19
648.72	981.17
649.06	973.99
649.41	967.04
649.75	960.02
650.09	953.03
650.43	946.18
650.78	938.87
651.12	931.77
651.46	924.88
651.80	918.16
652.14	911.74
652.49	905.36
652.83	899.27
653.17	892.57
653.51	885.88
653.85	879.59
654.20	872.98
654.54	865.90
654.88	859.07
655.22	852.01
655.56	845.24
655.90	838.74
656.25	832.55
656.59	826.11
656.93	820.15
657.27	813.99
657.61	807.53
657.95	801.45
658.29	795.41
658.64	789.17
658.98	782.85
659.32	776.40
659.66	770.20
660.00	763.91
660.34	758.14
660.68	752.27
661.02	746.20
661.36	740.66
661.70	735.30
662.05	730.19
662.39	725.15
662.73	719.91
663.07	714.71
663.41	709.46
663.75	704.15
664.09	698.65
664.43	693.47
664.77	688.67
665.11	683.62
665.45	678.74
665.79	674.02
666.13	669.12
666.47	664.26
666.81	659.37
667.15	654.54
667.49	649.88
667.83	645.37
668.17	640.76
668.51	636.01
668.85	631.28
669.19	626.72
669.53	622.20
669.87	617.63
670.21	613.24
670.55	608.89
670.89	604.87
671.23	600.87
671.57	596.68
671.91	592.46
672.25	588.35
672.58	584.23
672.92	580.15
673.26	576.46
673.60	572.75
673.94	569.11
674.28	565.67
674.62	562.21
674.96	558.54
675.30	555.11
675.64	551.65
675.97	548.40
676.31	545.06
676.65	541.58
676.99	538.43
677.33	535.09
677.67	531.79
678.01	528.29
678.34	524.82
678.68	521.44
679.02	518.10
679.36	514.86
679.70	511.72
680.04	508.52
680.37	505.15
680.71	501.86
681.05	498.74
681.39	495.56
681.73	492.44
682.06	489.53
682.40	486.59
682.74	483.60
683.08	480.56
683.42	477.53
683.75	474.66
684.09	471.60
684.43	468.71
684.77	465.83
685.10	462.99
685.44	460.30
685.78	457.64
686.12	455.01
686.45	452.34
686.79	449.55
687.13	446.88
687.46	444.32
687.80	441.75
688.14	439.17
688.48	436.69
688.81	434.00
689.15	431.43
689.49	428.83
689.82	426.33
690.16	423.87
690.50	421.50
690.83	419.13
691.17	416.81
691.51	414.52
691.84	412.34
692.18	410.10
692.52	407.69
692.85	405.36
693.19	403.13
693.52	400.90
693.86	398.79
694.20	396.65
694.53	394.51
694.87	392.35
695.21	390.20
695.54	388.03
695.88	385.99
696.21	383.96
696.55	381.96
696.88	379.92
697.22	377.92
697.56	375.98
697.89	374.03
698.23	372.15
698.56	370.26
698.90	368.37
699.23	366.42
699.57	364.62
699.90	362.82
700.24	361.04
700.58	359.30
700.91	357.53
701.25	355.85
701.58	354.25
701.92	352.64
702.25	351.03
702.59	349.47
702.92	347.89
703.26	346.33
703.59	344.85
703.93	343.47
704.26	342.07
704.60	340.54
704.93	339.04
705.26	337.57
705.60	336.21
705.93	334.83
706.27	333.58
706.60	332.33
706.94	331.03
707.27	329.66
707.61	328.38
707.94	327.12
708.27	325.83
708.61	324.54
708.94	323.32
709.28	322.13
709.61	320.95
709.94	319.82
710.28	318.59
710.61	317.40
710.95	316.10
711.28	314.96
711.61	313.85
711.95	312.78
712.28	311.60
712.61	310.37
712.95	309.23
713.28	308.17
713.61	307.11
713.95	306.09
714.28	305.11
714.61	304.09
714.95	303.07
715.28	302.09
715.61	301.05
715.95	300.02
716.28	299.03
716.61	298.04
716.95	297.07
717.28	296.22
717.61	295.30
717.94	294.44
718.28	293.53
718.61	292.67
718.94	291.82
719.27	291.08
719.61	290.34
719.94	289.60
720.27	288.77
720.60	287.96
720.94	287.18
721.27	286.42
721.60	285.74
721.93	285.04
722.27	284.37
722.60	283.69
722.93	283.02
723.26	282.38
723.59	281.72
723.93	281.07
724.26	280.40
724.59	279.74
724.92	279.11
725.25	278.51
725.59	277.85
725.92	277.25
726.25	276.64
726.58	276.03
726.91	275.42
727.24	274.86
727.57	274.29
727.91	273.66
728.24	273.11
728.57	272.51
728.90	271.98
729.23	271.35
729.56	270.86
729.89	270.35
730.22	269.77
730.55	269.22
730.89	268.70
731.22	268.20
731.55	267.71
731.88	267.20
732.21	266.72
732.54	266.26
732.87	265.76
733.20	265.29
733.53	264.86
733.86	264.41
734.19	263.92
734.52	263.49
734.85	263.17
735.18	262.68
735.51	262.26
735.84	261.81
736.17	261.45
736.50	260.97
736.83	260.68
737.16	260.30
737.49	259.92
737.82	259.51
738.15	259.11
738.48	258.68
738.81	258.30
739.14	257.90
739.47	257.47
739.80	257.13
740.13	256.76
740.46	256.39
740.79	256.01
741.12	255.65
741.45	255.30
741.78	254.89
742.11	254.54
742.44	254.12
742.77	253.78
743.10	253.41
743.43	253.04
743.75	252.59
744.08	252.37
744.41	252.04
744.74	251.68
745.07	251.34
745.40	251.08
745.73	250.82
746.06	250.47
746.39	250.19
746.71	249.84
747.04	249.51
747.37	249.20
747.70	248.89
748.03	248.59
748.36	248.29
748.68	247.99
749.01	247.73
749.34	247.51
749.67	247.25
750.00	247.00
750.33	246.81
750.65	246.54
750.98	246.20
751.31	245.97
751.64	245.76
751.97	245.56
752.29	245.27
752.62	244.95
752.95	244.71
753.28	244.45
753.60	244.24
753.93	243.99
754.26	243.71
754.59	243.46
754.91	243.24
755.24	243.03
755.57	242.80
755.90	242.55
756.22	242.34
756.55	242.11
756.88	241.88
757.20	241.60
757.53	241.40
757.86	241.19
758.19	240.98
758.51	240.76
758.84	240.50
759.17	240.31
759.49	240.15
759.82	240.01
760.15	239.84
760.47	239.69
760.80	239.51
761.13	239.41
761.45	239.25
761.78	239.09
762.11	238.90
762.43	238.75
762.76	238.57
763.08	238.41
763.41	238.22
763.74	238.09
764.06	237.92
764.39	237.79
764.71	237.58
765.04	237.40
765.37	237.28
765.69	237.15
766.02	236.97
766.34	236.77
766.67	236.62
767.00	236.52
767.32	236.41
767.65	236.33
767.97	236.18
768.30	236.06
768.62	235.90
768.95	235.76
769.27	235.62
769.60	235.52
769.92	235.36
770.25	235.27
770.57	235.10
770.90	234.98
771.22	234.82
771.55	234.72
771.87	234.63
772.20	234.50
772.52	234.46
772.85	234.50
773.17	234.42
773.50	234.32
773.82	234.15
774.15	234.01
774.47	233.84
774.80	233.72
775.12	233.61
775.45	233.50
775.77	233.42
776.09	233.33
776.42	233.23
776.74	233.16
777.07	233.02
777.39	232.93
777.72	232.86
778.04	232.77
778.36	232.69
778.69	232.58
779.01	232.49
779.33	232.30
779.66	232.09
779.98	231.97
780.31	231.88
780.63	231.86
780.95	231.79
781.28	231.72
781.60	231.65
781.92	231.56
782.25	231.50
782.57	231.41
782.89	231.33
783.22	231.24
783.54	231.14
783.86	231.11
784.19	231.05
784.51	230.98
784.83	230.90
785.16	230.82
785.48	230.79
785.80	230.72
786.12	230.67
786.45	230.61
786.77	230.57
787.09	230.51
787.42	230.42
787.74	230.36
788.06	230.31
788.38	230.21
788.71	230.17
789.03	230.11
789.35	230.07
789.67	230.01
789.99	229.96
790.32	229.88
790.64	229.82
790.96	229.84
791.28	229.78
791.61	229.74
791.93	229.70
792.25	229.65
792.57	229.69
792.89	229.64
793.21	229.60
793.54	229.57
793.86	229.50
794.18	229.46
794.50	229.40
794.82	229.33
795.14	229.32
795.47	229.28
795.79	229.24
796.11	229.16
796.43	229.12
796.75	229.08
797.07	229.08
797.39	229.06
797.71	228.96
798.04	228.95
798.36	228.94
798.68	228.87
799.00	228.84
799.32	228.75
799.64	228.77
799.96	228.74
800.28	228.68
800.60	228.67
800.92	228.64
801.24	228.60
801.56	228.58
801.89	228.56
802.21	228.54
802.53	228.51
802.85	228.53
803.17	228.55
803.49	228.52
803.81	228.45
804.13	228.39
804.45	228.33
804.77	228.32
805.09	228.25
805.41	228.22
805.73	228.15
806.05	228.08
806.37	228.00
806.69	227.97
807.01	227.96
807.33	227.92
807.65	227.85
807.97	227.86
808.28	227.80
808.60	227.76
808.92	227.69
809.24	227.74
809.56	227.68
809.88	227.62
810.20	227.60
810.52	227.61
810.84	227.58
811.16	227.51
811.48	227.43
811.80	227.41
812.12	227.39
812.43	227.35
812.75	227.33
813.07	227.30
813.39	227.28
813.71	227.23
814.03	227.19
814.35	227.16
814.67	227.09
814.98	227.10
815.30	227.03
815.62	227.00
815.94	226.86
816.26	226.85
816.58	226.77
816.89	226.76
817.21	226.71
817.53	226.72
817.85	226.74
818.17	226.70
818.48	226.67
818.80	226.66
819.12	226.63
819.44	226.59
819.76	226.59
820.07	226.54
820.39	226.51
820.71	226.49
821.03	226.50
821.34	226.43
821.66	226.43
821.98	226.44
822.30	226.44
822.61	226.51
822.93	226.49
823.25	226.48
823.57	226.45
823.88	226.46
824.20	226.39
824.52	226.39
824.83	226.40
825.15	226.40
825.47	226.37
825.79	226.36
826.10	226.35
826.42	226.31
826.74	226.31
827.05	226.32
827.37	226.31
827.69	226.27
828.00	226.30
828.32	226.28
828.64	226.27
828.95	226.28
829.27	226.22
829.58	226.17
829.90	226.19
830.22	226.17
830.53	226.12
830.85	226.13
831.17	226.10
831.48	226.11
831.80	226.10
832.11	226.13
832.43	226.13
832.75	226.12
833.06	226.16
833.38	226.12
833.69	226.09
834.01	226.10
834.32	226.11
834.64	226.09
834.96	226.11
835.27	226.07
835.59	226.06
835.90	226.06
836.22	226.07
836.53	226.06
836.85	226.06
837.16	226.20
837.48	226.19
837.79	226.24
838.11	226.22
838.42	226.21
838.74	226.21
839.05	226.18
839.37	226.15
839.68	226.13
840.00	226.14
840.31	226.17
840.63	226.16
840.94	226.15
841.26	226.16
841.57	226.14
841.88	226.18
842.20	226.17
842.51	226.14
842.83	226.16
843.14	226.25
843.46	226.24
843.77	226.13
844.08	226.11
844.40	226.09
844.71	226.07
845.03	226.07
845.34	226.02
845.65	226.03
845.97	226.06
846.28	226.02
846.60	226.02
846.91	226.02
847.22	226.00
847.54	226.01
847.85	226.00
848.16	225.99
848.48	225.96
848.79	225.98
849.10	226.00
849.42	226.00
849.73	225.88
850.04	225.88
850.36	225.88
850.67	225.90
850.98	225.87
851.30	225.87
851.61	225.83
851.92	225.86
852.23	225.91
852.55	225.92
852.86	225.94
853.17	225.92
853.49	225.90
853.80	225.92
854.11	225.90
854.42	225.91
854.74	225.87
855.05	225.85
855.36	225.79
855.67	225.78
855.99	225.76
856.30	225.88
856.61	225.86
856.92	225.83
857.23	225.82
857.55	225.80
857.86	225.80
858.17	225.86
858.48	225.84
858.79	225.78
859.11	225.78
859.42	225.77
859.73	225.78
860.04	225.77
860.35	225.71
860.66	225.68
860.98	225.68
861.29	225.70
861.60	225.72
861.91	225.75
862.22	225.70
862.53	225.69
862.84	225.56
863.16	225.58
863.47	225.57
863.78	225.55
864.09	225.54
864.40	225.52
864.71	225.50
865.02	225.52
865.33	225.51
865.64	225.46
865.95	225.41
866.27	225.44
866.58	225.43
866.89	225.48
867.20	225.46
867.51	225.40
867.82	225.38
868.13	225.40
868.44	225.35
868.75	225.37
869.06	225.37
869.37	225.39
869.68	225.35
869.99	225.33
870.30	225.33
870.61	225.36
870.92	225.33
871.23	225.29
871.54	225.25
871.85	225.28
872.16	225.28
872.47	225.30
872.78	225.24
873.09	225.23
873.40	225.19
873.71	225.20
874.02	225.21
874.33	225.20
874.64	225.17
874.95	225.20
875.26	225.20
875.56	225.18
875.87	225.18
876.18	225.19
876.49	225.29
876.80	225.28
877.11	225.23
877.42	225.24
877.73	225.25
878.04	225.24
878.35	225.25
878.66	225.28
878.96	225.25
879.27	225.26
879.58	225.27
879.89	225.27
880.20	225.32
880.51	225.32
880.82	225.35
881.12	225.34
881.43	225.34
881.74	225.33
882.05	225.34
882.36	225.34
882.67	225.32
882.97	225.22
883.28	225.23
883.59	225.24
883.90	225.26
884.21	225.28
884.51	225.27
884.82	225.22
885.13	225.24
885.44	225.27
885.74	225.28
886.05	225.25
886.36	225.27
886.67	225.24
886.98	225.29
887.28	225.30
887.59	225.30
887.90	225.33
888.20	225.33
888.51	225.35
888.82	225.34
889.13	225.34
889.43	225.45
889.74	225.47
890.05	225.47
890.35	225.49
890.66	225.47
890.97	225.47
891.28	225.50
891.58	225.50
891.89	225.48
892.20	225.50
892.50	225.52
892.81	225.49
893.12	225.48
893.42	225.43
893.73	225.44
894.04	225.44
894.34	225.43
894.65	225.42
894.95	225.41
895.26	225.43
895.57	225.46
895.87	225.36
896.18	225.36
896.48	225.36
896.79	225.35
897.10	225.36
897.40	225.35
897.71	225.34
898.01	225.32
898.32	225.32
898.63	225.29
898.93	225.30
899.24	225.29
899.54	225.31
899.85	225.32
900.15	225.30
900.46	225.32
900.76	225.30
901.07	225.28
901.38	225.25
901.68	225.29
901.99	225.28
902.29	225.25
902.60	225.25
902.90	225.26
903.21	225.29
903.51	225.30
903.82	225.34
904.12	225.33
904.43	225.34
904.73	225.32
905.03	225.30
905.34	225.39
905.64	225.40
905.95	225.35
906.25	225.33
906.56	225.32
906.86	225.28
907.17	225.28
907.47	225.30
907.77	225.31
908.08	225.26
908.38	225.24
908.69	225.23
908.99	225.22
909.30	225.22
909.60	225.17
909.90	225.16
910.21	225.15
910.51	225.14
910.81	225.16
911.12	225.19
911.42	225.24
911.73	225.13
912.03	225.12
912.33	225.16
912.64	225.16
912.94	225.12
913.24	225.10
913.55	225.10
913.85	225.09
914.15	225.12
914.46	225.11
914.76	225.10
915.06	225.11
915.37	225.08
915.67	225.07
915.97	225.08
916.27	225.04
916.58	225.02
916.88	224.99
917.18	224.98
917.49	225.02
917.79	225.00
918.09	225.02
918.39	225.04
918.70	225.04
919.00	225.03
919.30	225.09
919.60	225.10
919.91	225.06
920.21	225.04
920.51	225.02
920.81	225.02
921.12	225.05
921.42	225.06
921.72	225.08
922.02	225.08
922.32	225.08
922.63	225.06
922.93	225.11
923.23	225.14
923.53	225.14
923.83	225.09
924.13	225.11
924.44	225.11
924.74	225.13
925.04	225.14
925.34	225.16
925.64	225.12
925.94	225.11
926.24	225.17
926.55	225.18
926.85	225.19
927.15	225.22
927.45	225.23
927.75	225.20
928.05	225.19
928.35	225.21
928.65	225.26
928.95	225.27
929.26	225.20
929.56	225.18
929.86	225.18
930.16	225.12
930.46	225.12
930.76	225.13
931.06	225.08
931.36	225.07
931.66	225.09
931.96	225.11
932.26	225.13
932.56	225.09
932.86	225.08
933.16	225.07
933.46	225.05
933.76	225.01
934.06	225.04
934.36	225.11
934.66	225.07
934.96	225.05
935.26	225.03
935.56	225.09
935.86	225.04
936.16	225.00
936.46	225.03
936.76	224.98
937.06	224.96
937.36	224.96
937.66	224.97
937.96	224.98
938.26	224.93
938.56	224.92
938.86	224.90
939.16	224.89
939.46	224.94
939.76	224.91
940.06	224.90
940.35	224.89
940.65	224.82
940.95	224.86
941.25	224.83
941.55	224.86
941.85	224.87
942.15	224.94
942.45	225.00
942.75	225.01
943.04	225.05
943.34	225.05
943.64	225.05
943.94	225.03
944.24	225.00
944.54	225.02
944.84	225.03
945.13	225.06
945.43	225.08
945.73	225.05
946.03	225.09
946.33	225.12
946.62	225.13
946.92	225.15
947.22	225.20
947.52	225.22
947.82	225.22
948.11	225.19
948.41	225.17
948.71	225.13
949.01	225.16
949.31	225.15
949.60	225.14
949.90	225.15
950.20	225.19
950.50	225.23
950.79	225.23
951.09	225.23
951.39	225.23
951.69	225.22
951.98	225.23
952.28	225.20
952.58	225.19
952.87	225.18
953.17	225.13
953.47	225.06
953.76	225.05
954.06	225.04
954.36	225.06
954.66	225.04
954.95	225.08
955.25	225.08
955.55	225.09
955.84	225.08
956.14	225.09
956.44	225.07
956.73	225.03
957.03	225.07
957.32	225.07
957.62	225.06
957.92	225.09
958.21	225.08
958.51	225.19
958.81	225.19
959.10	225.18
959.40	225.23
959.69	225.25
959.99	225.26
960.29	225.26
960.58	225.26
960.88	225.30
961.17	225.27
961.47	225.27
961.76	225.26
962.06	225.28
962.36	225.27
962.65	225.26
962.95	225.28
963.24	225.23
963.54	225.25
963.83	225.23
964.13	225.20
964.42	225.17
964.72	225.07
965.01	225.08
965.31	225.09
965.60	225.07
965.90	225.12
966.19	225.09
966.49	225.10
966.78	225.09
967.08	225.10
967.37	225.13
967.67	225.11
967.96	225.11
968.26	225.08
968.55	225.10
968.85	225.09
969.14	225.05
969.43	225.01
969.73	224.97
970.02	224.98
970.32	224.95
970.61	224.95
970.91	224.94
971.20	224.93
971.49	224.92
971.79	224.90
972.08	224.83
972.38	224.81
972.67	224.78
972.96	224.77
973.26	224.73
973.55	224.75
973.85	224.73
974.14	224.72
974.43	224.73
974.73	224.70
975.02	224.69
975.31	224.70
975.61	224.73
975.90	224.75
976.19	224.75
976.49	224.77
976.78	224.79
977.07	224.79
977.37	224.84
977.66	224.83
977.95	224.81
978.24	224.83
978.54	224.87
978.83	224.86
979.12	224.86
979.42	224.86
979.71	224.82
980.00	224.80
980.29	224.81
980.59	224.79
980.88	224.81
981.17	224.84
981.46	224.86
981.76	224.83
982.05	224.85
982.34	224.87
982.63	224.85
982.93	224.83
983.22	224.84
983.51	224.82
983.80	224.86
984.09	224.90
984.39	224.91
984.68	224.87
984.97	224.90
985.26	224.90
985.55	224.89
985.85	224.88
986.14	224.92
986.43	224.91
986.72	224.91
987.01	224.90
987.30	224.90
987.59	224.87
987.89	224.87
988.18	224.83
988.47	224.80
988.76	224.81
989.05	224.79
989.34	224.76
989.63	224.77
989.92	224.74
990.22	224.73
990.51	224.72
990.80	224.72
991.09	224.71
991.38	224.73
991.67	224.72
991.96	224.71
992.25	224.70
992.54	224.70
992.83	224.67
993.12	224.65
993.41	224.64
993.70	224.69
993.99	224.72
994.28	224.75
994.58	224.77
994.87	224.77
995.16	224.78
995.45	224.79
995.74	224.74
996.03	224.74
996.32	224.74
996.61	224.75
996.90	224.75
997.19	224.73
997.48	224.71
997.77	224.73
998.06	224.71
998.34	224.69
998.63	224.66
998.92	224.66
999.21	224.68
999.50	224.67
999.79	224.61
1000.08	224.58
1000.37	224.58
1000.66	224.56
1000.95	224.57
1001.24	224.59
1001.53	224.58
1001.82	224.59
1002.11	224.55
1002.40	224.53
1002.68	224.53
1002.97	224.61
1003.26	224.64
1003.55	224.65
1003.84	224.61
1004.13	224.65
1004.42	224.65
1004.71	224.66
1004.99	224.67
1005.28	224.69
1005.57	224.66
1005.86	224.66
1006.15	224.69
1006.44	224.66
1006.72	224.65
1007.01	224.63
1007.30	224.63
1007.59	224.61
1007.88	224.58
1008.17	224.60
1008.45	224.60
1008.74	224.62
1009.03	224.57
1009.32	224.55
1009.60	224.54
1009.89	224.54
1010.18	224.50
1010.47	224.54
1010.76	224.53
1011.04	224.57
1011.33	224.57
1011.62	224.60
1011.91	224.63
1012.19	224.61
1012.48	224.63
1012.77	224.67
1013.05	224.73
1013.34	224.75
1013.63	224.76
1013.92	224.80
1014.20	224.81
1014.49	224.83
1014.78	224.82
1015.06	224.80
1015.35	224.78
1015.64	224.80
1015.92	224.85
1016.21	224.85
1016.50	224.88
1016.78	224.93
1017.07	224.91
1017.36	224.86
1017.64	224.82
1017.93	224.85
1018.22	224.88
1018.50	224.88
1018.79	224.88
1019.08	224.84
1019.36	224.81
1019.65	224.83
1019.93	224.89
1020.22	224.90
1020.51	224.93
1020.79	224.90
1021.08	225.09
1021.36	224.72
1021.65	225.15
1021.94	224.97
1022.22	224.68
1022.51	224.84
1022.79	225.80
1023.08	224.94
1023.36	225.72
1023.65	224.12
>>>>>End Processed Spectral Data<<<<<
