SpectraSuite Data File
++++++++++++++++++++++++++++++++++++
Date: Fri Feb 01 17:02:12 EST 2013
User: group
Dark Spectrum Present: No
Reference Spectrum Present: No
Number of Sampled Component Spectra: 1
Spectrometers: USB2E7196
Integration Time (usec): 35000 (USB2E7196)
Spectra Averaged: 100 (USB2E7196)
Boxcar Smoothing: 10 (USB2E7196)
Correct for Electrical Dark: No (USB2E7196)
Strobe/Lamp Enabled: No (USB2E7196)
Correct for Detector Non-linearity: No (USB2E7196)
Correct for Stray Light: No (USB2E7196)
Number of Pixels in Processed Spectrum: 2048
>>>>>Begin Processed Spectral Data<<<<<
339.09	0.00
339.48	213.45
339.86	214.49
340.24	216.26
340.63	217.43
341.01	220.25
341.39	220.50
341.78	222.13
342.16	222.67
342.54	223.51
342.93	211.69
343.31	222.39
343.69	222.93
344.07	223.39
344.46	223.81
344.84	224.19
345.22	224.40
345.60	224.62
345.99	224.78
346.37	224.90
346.75	224.99
347.13	225.07
347.52	225.12
347.90	225.21
348.28	225.24
348.66	225.29
349.05	225.25
349.43	225.28
349.81	225.34
350.19	225.38
350.57	225.42
350.96	225.47
351.34	225.55
351.72	225.62
352.10	225.71
352.48	225.76
352.87	225.81
353.25	225.89
353.63	225.95
354.01	226.00
354.39	226.08
354.77	226.14
355.15	226.24
355.54	226.29
355.92	226.31
356.30	226.37
356.68	226.48
357.06	226.58
357.44	226.65
357.82	226.69
358.20	226.75
358.58	226.81
358.97	226.89
359.35	226.98
359.73	227.06
360.11	227.09
360.49	227.17
360.87	227.22
361.25	227.26
361.63	227.34
362.01	227.40
362.39	227.42
362.77	227.45
363.15	227.46
363.53	227.48
363.91	227.52
364.29	227.54
364.67	227.49
365.05	227.53
365.43	227.54
365.81	227.59
366.19	227.65
366.57	227.69
366.95	227.66
367.33	227.61
367.71	227.58
368.09	227.64
368.47	227.63
368.85	227.62
369.23	227.64
369.61	227.56
369.99	227.60
370.37	227.59
370.75	227.63
371.13	227.58
371.51	227.58
371.89	227.51
372.27	227.50
372.65	227.44
373.03	227.40
373.41	227.37
373.78	227.33
374.16	227.25
374.54	227.18
374.92	227.13
375.30	227.10
375.68	227.02
376.06	226.97
376.44	226.90
376.82	226.82
377.19	226.75
377.57	226.70
377.95	226.57
378.33	226.50
378.71	226.39
379.09	226.37
379.47	226.31
379.84	226.25
380.22	226.13
380.60	226.06
380.98	225.98
381.36	225.90
381.73	225.82
382.11	225.73
382.49	225.70
382.87	225.62
383.25	225.56
383.62	225.65
384.00	225.57
384.38	225.51
384.76	225.47
385.13	225.49
385.51	225.46
385.89	225.42
386.27	225.37
386.64	225.33
387.02	225.24
387.40	225.19
387.78	225.17
388.15	225.16
388.53	225.14
388.91	225.14
389.29	225.11
389.66	225.08
390.04	225.08
390.42	225.04
390.79	225.05
391.17	225.04
391.55	224.90
391.92	224.91
392.30	224.92
392.68	224.93
393.05	224.88
393.43	224.87
393.81	224.86
394.18	224.88
394.56	224.89
394.94	224.94
395.31	224.95
395.69	225.02
396.06	225.06
396.44	225.09
396.82	225.09
397.19	225.18
397.57	225.24
397.95	225.31
398.32	225.35
398.70	225.42
399.07	225.49
399.45	225.55
399.82	225.57
400.20	225.63
400.58	225.66
400.95	225.66
401.33	225.74
401.70	225.91
402.08	225.99
402.45	226.11
402.83	226.21
403.20	226.31
403.58	226.38
403.95	226.50
404.33	226.64
404.71	226.75
405.08	226.94
405.46	227.05
405.83	227.15
406.21	227.30
406.58	227.43
406.96	227.54
407.33	227.71
407.70	227.90
408.08	228.17
408.45	228.41
408.83	228.68
409.20	228.90
409.58	229.07
409.95	229.29
410.33	229.53
410.70	229.76
411.08	230.06
411.45	230.36
411.82	230.64
412.20	230.97
412.57	231.37
412.95	231.64
413.32	232.02
413.69	232.42
414.07	232.81
414.44	233.29
414.82	233.77
415.19	234.30
415.56	234.85
415.94	235.36
416.31	235.99
416.68	236.58
417.06	237.27
417.43	237.91
417.81	238.69
418.18	239.45
418.55	240.29
418.93	241.17
419.30	242.02
419.67	242.98
420.04	243.94
420.42	244.92
420.79	246.06
421.16	247.21
421.54	248.42
421.91	249.66
422.28	250.92
422.66	252.24
423.03	253.52
423.40	254.86
423.77	256.26
424.15	257.68
424.52	259.18
424.89	260.79
425.26	262.37
425.64	263.79
426.01	265.37
426.38	267.02
426.75	268.67
427.13	270.39
427.50	272.15
427.87	273.99
428.24	275.84
428.61	277.63
428.99	279.58
429.36	281.64
429.73	283.65
430.10	285.64
430.47	287.67
430.85	289.78
431.22	291.97
431.59	294.33
431.96	296.56
432.33	299.02
432.70	301.36
433.08	304.14
433.45	306.81
433.82	309.41
434.19	312.24
434.56	315.03
434.93	317.69
435.30	320.35
435.68	323.26
436.05	326.07
436.42	328.80
436.79	331.27
437.16	333.94
437.53	336.78
437.90	339.57
438.27	342.28
438.64	345.12
439.01	347.68
439.38	349.91
439.75	352.04
440.13	354.50
440.50	356.84
440.87	358.66
441.24	360.56
441.61	362.70
441.98	364.22
442.35	366.00
442.72	367.86
443.09	369.61
443.46	370.61
443.83	371.18
444.20	371.72
444.57	372.61
444.94	372.92
445.31	373.23
445.68	373.60
446.05	373.73
446.42	373.34
446.79	373.01
447.16	372.58
447.53	372.31
447.90	371.21
448.27	370.03
448.64	368.49
449.01	367.38
449.37	365.43
449.74	363.54
450.11	361.36
450.48	358.89
450.85	356.43
451.22	354.31
451.59	352.33
451.96	350.41
452.33	347.80
452.70	345.46
453.07	342.69
453.43	339.83
453.80	337.10
454.17	334.44
454.54	331.87
454.91	329.18
455.28	326.54
455.65	324.04
456.02	321.71
456.38	319.59
456.75	316.97
457.12	314.77
457.49	312.59
457.86	310.40
458.23	308.57
458.59	306.55
458.96	304.49
459.33	302.66
459.70	300.82
460.07	299.32
460.43	297.63
460.80	296.02
461.17	294.58
461.54	293.10
461.91	291.71
462.27	290.25
462.64	289.00
463.01	287.61
463.38	286.36
463.74	284.92
464.11	283.74
464.48	282.71
464.85	281.61
465.21	280.77
465.58	279.88
465.95	278.78
466.32	277.85
466.68	276.96
467.05	276.06
467.42	275.19
467.78	274.27
468.15	273.38
468.52	272.76
468.88	271.90
469.25	271.16
469.62	270.49
469.98	269.84
470.35	269.22
470.72	268.63
471.08	267.99
471.45	267.50
471.82	266.97
472.18	266.34
472.55	265.91
472.92	265.38
473.28	264.94
473.65	264.52
474.02	264.10
474.38	263.71
474.75	263.40
475.11	263.05
475.48	262.80
475.85	262.62
476.21	262.33
476.58	262.18
476.94	262.05
477.31	261.96
477.67	261.86
478.04	261.76
478.41	261.72
478.77	261.78
479.14	261.69
479.50	261.71
479.87	261.83
480.23	261.94
480.60	262.00
480.96	262.08
481.33	262.28
481.69	262.48
482.06	262.69
482.42	262.89
482.79	263.14
483.15	263.45
483.52	263.80
483.88	264.17
484.25	264.51
484.61	264.87
484.98	265.24
485.34	265.79
485.71	266.41
486.07	267.03
486.44	267.57
486.80	268.28
487.17	269.03
487.53	269.82
487.90	270.65
488.26	271.56
488.62	272.55
488.99	273.49
489.35	274.55
489.72	275.69
490.08	276.88
490.44	278.11
490.81	279.45
491.17	280.79
491.54	282.28
491.90	283.83
492.26	285.51
492.63	287.25
492.99	289.00
493.36	290.86
493.72	292.89
494.08	294.97
494.45	297.21
494.81	299.58
495.17	302.01
495.54	304.57
495.90	307.26
496.26	310.05
496.63	313.04
496.99	316.12
497.35	319.39
497.72	322.77
498.08	326.34
498.44	329.98
498.80	333.90
499.17	337.92
499.53	342.07
499.89	346.45
500.26	350.95
500.62	355.60
500.98	360.50
501.34	365.53
501.71	370.83
502.07	376.23
502.43	381.81
502.79	387.58
503.16	393.61
503.52	399.83
503.88	406.21
504.24	412.75
504.60	419.54
504.97	426.53
505.33	433.81
505.69	441.41
506.05	449.16
506.41	456.90
506.78	465.01
507.14	473.39
507.50	481.97
507.86	490.90
508.22	500.04
508.59	509.23
508.95	518.69
509.31	528.42
509.67	538.38
510.03	548.57
510.39	559.05
510.75	569.72
511.12	580.51
511.48	591.66
511.84	603.02
512.20	614.35
512.56	626.20
512.92	638.18
513.28	650.33
513.64	662.60
514.00	675.22
514.37	687.95
514.73	700.79
515.09	713.69
515.45	726.76
515.81	740.15
516.17	753.88
516.53	767.83
516.89	781.79
517.25	795.76
517.61	809.95
517.97	824.15
518.33	838.27
518.69	852.80
519.05	867.51
519.41	882.43
519.77	897.76
520.13	912.86
520.49	927.89
520.85	943.00
521.21	958.43
521.57	974.31
521.93	989.89
522.29	1006.02
522.65	1021.96
523.01	1037.81
523.37	1053.51
523.73	1069.37
524.09	1085.10
524.45	1100.99
524.81	1117.23
525.17	1133.59
525.53	1150.11
525.89	1166.72
526.25	1183.20
526.61	1199.24
526.97	1215.56
527.33	1231.63
527.68	1247.84
528.04	1263.93
528.40	1280.18
528.76	1296.74
529.12	1312.98
529.48	1329.43
529.84	1345.00
530.20	1361.23
530.56	1377.86
530.91	1394.95
531.27	1411.29
531.63	1427.43
531.99	1443.66
532.35	1459.38
532.71	1475.02
533.07	1490.90
533.42	1506.48
533.78	1522.20
534.14	1538.20
534.50	1553.25
534.86	1568.94
535.21	1583.90
535.57	1599.69
535.93	1614.79
536.29	1629.40
536.65	1644.17
537.00	1658.61
537.36	1673.75
537.72	1687.94
538.08	1702.04
538.44	1715.47
538.79	1729.11
539.15	1742.44
539.51	1755.90
539.87	1769.99
540.22	1783.38
540.58	1796.80
540.94	1809.78
541.29	1822.33
541.65	1834.59
542.01	1847.57
542.37	1859.56
542.72	1871.72
543.08	1883.17
543.44	1895.44
543.79	1906.43
544.15	1917.13
544.51	1928.45
544.87	1939.11
545.22	1949.84
545.58	1960.04
545.94	1969.62
546.29	1979.29
546.65	1989.09
547.01	1998.31
547.36	2006.72
547.72	2015.26
548.07	2023.19
548.43	2031.21
548.79	2039.06
549.14	2046.62
549.50	2053.67
549.86	2061.16
550.21	2068.38
550.57	2075.56
550.92	2082.09
551.28	2089.09
551.64	2096.06
551.99	2102.53
552.35	2108.67
552.70	2114.73
553.06	2120.44
553.41	2126.78
553.77	2132.80
554.13	2138.79
554.48	2144.75
554.84	2150.53
555.19	2155.59
555.55	2160.68
555.90	2165.17
556.26	2170.10
556.61	2174.87
556.97	2179.45
557.32	2183.65
557.68	2187.85
558.03	2191.98
558.39	2195.47
558.74	2200.18
559.10	2204.21
559.45	2207.94
559.81	2212.16
560.16	2216.04
560.52	2219.48
560.87	2222.95
561.23	2225.70
561.58	2228.64
561.94	2231.33
562.29	2233.44
562.64	2236.19
563.00	2238.77
563.35	2242.35
563.71	2245.61
564.06	2248.93
564.42	2251.74
564.77	2254.53
565.12	2256.98
565.48	2259.06
565.83	2261.27
566.19	2262.75
566.54	2263.66
566.89	2264.88
567.25	2265.57
567.60	2267.05
567.96	2268.97
568.31	2269.91
568.66	2271.24
569.02	2272.08
569.37	2272.67
569.72	2273.92
570.08	2274.25
570.43	2274.39
570.78	2274.20
571.14	2272.92
571.49	2271.69
571.84	2271.60
572.20	2270.61
572.55	2269.76
572.90	2268.45
573.26	2267.37
573.61	2265.76
573.96	2264.43
574.31	2261.82
574.67	2259.25
575.02	2255.78
575.37	2252.50
575.72	2249.01
576.08	2245.73
576.43	2242.47
576.78	2238.96
577.13	2235.86
577.49	2233.01
577.84	2229.85
578.19	2226.17
578.54	2222.75
578.90	2218.83
579.25	2213.45
579.60	2208.67
579.95	2203.86
580.30	2199.17
580.66	2194.07
581.01	2189.33
581.36	2184.54
581.71	2180.55
582.06	2176.31
582.42	2172.04
582.77	2167.11
583.12	2162.85
583.47	2158.42
583.82	2153.69
584.17	2148.58
584.53	2143.28
584.88	2137.92
585.23	2132.41
585.58	2127.19
585.93	2121.98
586.28	2117.23
586.63	2112.61
586.98	2107.78
587.34	2103.19
587.69	2098.36
588.04	2093.37
588.39	2087.97
588.74	2081.68
589.09	2075.61
589.44	2069.09
589.79	2063.22
590.14	2057.78
590.49	2051.35
590.84	2045.11
591.19	2039.28
591.54	2033.05
591.89	2026.04
592.25	2019.40
592.60	2012.34
592.95	2004.96
593.30	1997.83
593.65	1990.58
594.00	1983.50
594.35	1976.48
594.70	1968.78
595.05	1961.87
595.40	1954.83
595.75	1947.52
596.10	1941.70
596.45	1935.21
596.80	1929.07
597.15	1922.71
597.50	1915.90
597.85	1909.48
598.19	1902.99
598.54	1896.16
598.89	1889.68
599.24	1883.84
599.59	1877.47
599.94	1871.48
600.29	1865.29
600.64	1858.64
600.99	1851.40
601.34	1844.72
601.69	1837.77
602.04	1830.95
602.39	1823.65
602.74	1816.93
603.08	1810.23
603.43	1803.39
603.78	1796.22
604.13	1789.14
604.48	1781.97
604.83	1775.01
605.18	1768.29
605.53	1760.40
605.87	1752.44
606.22	1745.36
606.57	1737.43
606.92	1730.02
607.27	1722.92
607.62	1716.10
607.96	1709.18
608.31	1702.70
608.66	1695.18
609.01	1687.83
609.36	1680.39
609.70	1672.55
610.05	1664.60
610.40	1657.11
610.75	1648.93
611.10	1641.40
611.44	1633.04
611.79	1625.10
612.14	1616.71
612.49	1607.57
612.83	1599.34
613.18	1591.26
613.53	1583.12
613.88	1574.68
614.22	1566.41
614.57	1557.83
614.92	1549.90
615.27	1542.39
615.61	1534.05
615.96	1526.14
616.31	1518.38
616.65	1511.00
617.00	1503.46
617.35	1495.84
617.70	1487.61
618.04	1479.21
618.39	1470.95
618.74	1463.47
619.08	1455.20
619.43	1447.55
619.78	1440.59
620.12	1433.46
620.47	1426.02
620.82	1417.97
621.16	1410.63
621.51	1403.10
621.85	1395.49
622.20	1386.91
622.55	1378.49
622.89	1370.55
623.24	1362.88
623.59	1355.64
623.93	1348.16
624.28	1341.14
624.62	1333.67
624.97	1326.40
625.32	1319.51
625.66	1312.54
626.01	1305.47
626.35	1298.08
626.70	1290.34
627.04	1282.77
627.39	1274.97
627.73	1267.52
628.08	1260.70
628.43	1253.50
628.77	1246.20
629.12	1238.69
629.46	1231.69
629.81	1224.26
630.15	1217.10
630.50	1209.77
630.84	1201.56
631.19	1193.57
631.53	1185.90
631.88	1178.25
632.22	1170.66
632.57	1163.43
632.91	1155.80
633.26	1148.35
633.60	1140.94
633.95	1133.68
634.29	1126.67
634.64	1120.03
634.98	1112.76
635.32	1105.59
635.67	1098.92
636.01	1092.39
636.36	1085.66
636.70	1078.98
637.05	1072.48
637.39	1066.04
637.73	1059.55
638.08	1053.62
638.42	1047.72
638.77	1041.34
639.11	1034.83
639.45	1028.51
639.80	1021.91
640.14	1015.56
640.49	1009.06
640.83	1002.77
641.17	996.67
641.52	990.27
641.86	983.82
642.20	977.93
642.55	971.60
642.89	965.22
643.23	958.59
643.58	952.82
643.92	946.72
644.26	940.78
644.61	934.75
644.95	928.80
645.29	922.37
645.64	915.59
645.98	909.23
646.32	903.31
646.66	897.25
647.01	891.50
647.35	885.79
647.69	879.90
648.04	874.40
648.38	868.62
648.72	862.72
649.06	856.64
649.41	850.86
649.75	844.99
650.09	839.10
650.43	833.35
650.78	827.21
651.12	821.30
651.46	815.53
651.80	809.83
652.14	804.39
652.49	799.00
652.83	793.94
653.17	788.35
653.51	782.77
653.85	777.46
654.20	771.86
654.54	765.98
654.88	760.31
655.22	754.44
655.56	748.83
655.90	743.43
656.25	738.34
656.59	732.94
656.93	727.81
657.27	722.67
657.61	717.26
657.95	712.20
658.29	707.14
658.64	701.88
658.98	696.61
659.32	691.21
659.66	686.08
660.00	680.77
660.34	675.76
660.68	670.83
661.02	665.78
661.36	661.09
661.70	656.58
662.05	652.25
662.39	647.98
662.73	643.53
663.07	639.11
663.41	634.67
663.75	630.23
664.09	625.69
664.43	621.30
664.77	617.21
665.11	612.99
665.45	608.83
665.79	604.75
666.13	600.62
666.47	596.55
666.81	592.43
667.15	588.31
667.49	584.49
667.83	580.70
668.17	576.76
668.51	572.71
668.85	568.78
669.19	564.94
669.53	561.12
669.87	557.27
670.21	553.66
670.55	550.01
670.89	546.61
671.23	543.19
671.57	539.66
671.91	536.12
672.25	532.62
672.58	529.11
672.92	525.73
673.26	522.61
673.60	519.45
673.94	516.36
674.28	513.46
674.62	510.52
674.96	507.42
675.30	504.56
675.64	501.63
675.97	498.82
676.31	495.97
676.65	493.05
676.99	490.36
677.33	487.45
677.67	484.63
678.01	481.60
678.34	478.70
678.68	475.88
679.02	473.10
679.36	470.33
679.70	467.69
680.04	464.95
680.37	462.02
680.71	459.23
681.05	456.60
681.39	453.88
681.73	451.20
682.06	448.67
682.40	446.14
682.74	443.59
683.08	440.98
683.42	438.40
683.75	435.94
684.09	433.36
684.43	430.90
684.77	428.43
685.10	426.06
685.44	423.70
685.78	421.42
686.12	419.13
686.45	416.83
686.79	414.55
687.13	412.33
687.46	410.24
687.80	408.09
688.14	405.89
688.48	403.82
688.81	401.63
689.15	399.46
689.49	397.23
689.82	395.12
690.16	393.05
690.50	391.07
690.83	389.17
691.17	387.24
691.51	385.32
691.84	383.46
692.18	381.50
692.52	379.52
692.85	377.52
693.19	375.65
693.52	373.82
693.86	371.96
694.20	370.16
694.53	368.34
694.87	366.46
695.21	364.65
695.54	362.83
695.88	361.11
696.21	359.41
696.55	357.76
696.88	356.11
697.22	354.43
697.56	352.84
697.89	351.13
698.23	349.48
698.56	347.89
698.90	346.33
699.23	344.73
699.57	343.22
699.90	341.71
700.24	340.20
700.58	338.68
700.91	337.22
701.25	335.82
701.58	334.45
701.92	333.10
702.25	331.73
702.59	330.38
702.92	329.04
703.26	327.75
703.59	326.49
703.93	325.33
704.26	324.15
704.60	322.86
704.93	321.59
705.26	320.38
705.60	319.20
705.93	318.00
706.27	316.96
706.60	315.90
706.94	314.82
707.27	313.67
707.61	312.57
707.94	311.53
708.27	310.42
708.61	309.36
708.94	308.32
709.28	307.32
709.61	306.37
709.94	305.40
710.28	304.40
710.61	303.42
710.95	302.34
711.28	301.40
711.61	300.41
711.95	299.48
712.28	298.54
712.61	297.56
712.95	296.63
713.28	295.75
713.61	294.83
713.95	293.92
714.28	293.08
714.61	292.26
714.95	291.39
715.28	290.59
715.61	289.71
715.95	288.87
716.28	288.02
716.61	287.17
716.95	286.33
717.28	285.58
717.61	284.79
717.94	284.05
718.28	283.26
718.61	282.55
718.94	281.87
719.27	281.17
719.61	280.49
719.94	279.85
720.27	279.15
720.60	278.51
720.94	277.89
721.27	277.32
721.60	276.75
721.93	276.14
722.27	275.53
722.60	274.96
722.93	274.38
723.26	273.85
723.59	273.31
723.93	272.77
724.26	272.23
724.59	271.65
724.92	271.14
725.25	270.62
725.59	270.09
725.92	269.56
726.25	269.07
726.58	268.61
726.91	268.13
727.24	267.63
727.57	267.17
727.91	266.66
728.24	266.17
728.57	265.68
728.90	265.21
729.23	264.72
729.56	264.33
729.89	263.84
730.22	263.35
730.55	262.88
730.89	262.44
731.22	261.97
731.55	261.57
731.88	261.12
732.21	260.65
732.54	260.24
732.87	259.78
733.20	259.38
733.53	259.01
733.86	258.64
734.19	258.23
734.52	257.81
734.85	257.53
735.18	257.13
735.51	256.75
735.84	256.43
736.17	256.08
736.50	255.67
736.83	255.46
737.16	255.12
737.49	254.79
737.82	254.43
738.15	254.13
738.48	253.77
738.81	253.45
739.14	253.15
739.47	252.79
739.80	252.52
740.13	252.22
740.46	251.85
740.79	251.55
741.12	251.26
741.45	250.93
741.78	250.55
742.11	250.27
742.44	249.96
742.77	249.67
743.10	249.39
743.43	249.10
743.75	248.69
744.08	248.56
744.41	248.27
744.74	247.98
745.07	247.64
745.40	247.40
745.73	247.16
746.06	246.90
746.39	246.66
746.71	246.37
747.04	246.08
747.37	245.84
747.70	245.55
748.03	245.29
748.36	245.09
748.68	244.85
749.01	244.56
749.34	244.34
749.67	244.08
750.00	243.83
750.33	243.67
750.65	243.46
750.98	243.08
751.31	242.86
751.64	242.65
751.97	242.49
752.29	242.26
752.62	242.00
752.95	241.76
753.28	241.53
753.60	241.31
753.93	241.16
754.26	240.93
754.59	240.68
754.91	240.44
755.24	240.25
755.57	240.04
755.90	239.90
756.22	239.65
756.55	239.46
756.88	239.30
757.20	239.04
757.53	238.87
757.86	238.70
758.19	238.54
758.51	238.40
758.84	238.18
759.17	238.00
759.49	237.88
759.82	237.79
760.15	237.67
760.47	237.58
760.80	237.38
761.13	237.28
761.45	237.16
761.78	237.03
762.11	236.89
762.43	236.80
762.76	236.64
763.08	236.56
763.41	236.44
763.74	236.28
764.06	236.13
764.39	236.03
764.71	235.92
765.04	235.77
765.37	235.62
765.69	235.53
766.02	235.44
766.34	235.29
766.67	235.13
767.00	235.04
767.32	234.94
767.65	234.91
767.97	234.79
768.30	234.71
768.62	234.61
768.95	234.47
769.27	234.37
769.60	234.28
769.92	234.18
770.25	234.03
770.57	233.93
770.90	233.83
771.22	233.67
771.55	233.56
771.87	233.49
772.20	233.42
772.52	233.43
772.85	233.41
773.17	233.32
773.50	233.23
773.82	233.10
774.15	232.96
774.47	232.81
774.80	232.68
775.12	232.59
775.45	232.53
775.77	232.49
776.09	232.40
776.42	232.33
776.74	232.24
777.07	232.17
777.39	232.12
777.72	232.07
778.04	232.04
778.36	231.98
778.69	231.92
779.01	231.86
779.33	231.68
779.66	231.53
779.98	231.47
780.31	231.39
780.63	231.40
780.95	231.36
781.28	231.28
781.60	231.21
781.92	231.14
782.25	231.07
782.57	230.97
782.89	230.87
783.22	230.82
783.54	230.78
783.86	230.74
784.19	230.63
784.51	230.59
784.83	230.53
785.16	230.46
785.48	230.38
785.80	230.29
786.12	230.24
786.45	230.23
786.77	230.18
787.09	230.15
787.42	230.04
787.74	229.98
788.06	229.96
788.38	229.94
788.71	229.89
789.03	229.87
789.35	229.85
789.67	229.83
789.99	229.80
790.32	229.71
790.64	229.67
790.96	229.73
791.28	229.66
791.61	229.64
791.93	229.62
792.25	229.59
792.57	229.64
792.89	229.59
793.21	229.51
793.54	229.46
793.86	229.37
794.18	229.37
794.50	229.31
794.82	229.25
795.14	229.21
795.47	229.20
795.79	229.13
796.11	229.07
796.43	229.00
796.75	228.96
797.07	228.93
797.39	228.92
797.71	228.82
798.04	228.77
798.36	228.70
798.68	228.69
799.00	228.69
799.32	228.61
799.64	228.61
799.96	228.61
800.28	228.60
800.60	228.58
800.92	228.55
801.24	228.49
801.56	228.47
801.89	228.43
802.21	228.43
802.53	228.43
802.85	228.41
803.17	228.45
803.49	228.39
803.81	228.36
804.13	228.31
804.45	228.28
804.77	228.25
805.09	228.25
805.41	228.20
805.73	228.15
806.05	228.09
806.37	228.06
806.69	228.01
807.01	227.96
807.33	227.95
807.65	227.86
807.97	227.91
808.28	227.87
808.60	227.86
808.92	227.78
809.24	227.80
809.56	227.81
809.88	227.73
810.20	227.69
810.52	227.70
810.84	227.69
811.16	227.63
811.48	227.59
811.80	227.60
812.12	227.54
812.43	227.52
812.75	227.52
813.07	227.50
813.39	227.49
813.71	227.47
814.03	227.46
814.35	227.47
814.67	227.41
814.98	227.41
815.30	227.38
815.62	227.33
815.94	227.25
816.26	227.26
816.58	227.23
816.89	227.25
817.21	227.22
817.53	227.20
817.85	227.21
818.17	227.20
818.48	227.15
818.80	227.17
819.12	227.15
819.44	227.10
819.76	227.05
820.07	227.01
820.39	226.99
820.71	226.98
821.03	226.94
821.34	226.90
821.66	226.91
821.98	226.93
822.30	226.96
822.61	227.00
822.93	226.92
823.25	226.92
823.57	226.88
823.88	226.90
824.20	226.87
824.52	226.87
824.83	226.85
825.15	226.81
825.47	226.80
825.79	226.78
826.10	226.79
826.42	226.77
826.74	226.77
827.05	226.77
827.37	226.75
827.69	226.76
828.00	226.73
828.32	226.69
828.64	226.62
828.95	226.64
829.27	226.60
829.58	226.63
829.90	226.63
830.22	226.64
830.53	226.59
830.85	226.59
831.17	226.56
831.48	226.58
831.80	226.59
832.11	226.57
832.43	226.55
832.75	226.53
833.06	226.60
833.38	226.56
833.69	226.57
834.01	226.57
834.32	226.57
834.64	226.57
834.96	226.59
835.27	226.59
835.59	226.55
835.90	226.54
836.22	226.48
836.53	226.47
836.85	226.44
837.16	226.53
837.48	226.52
837.79	226.51
838.11	226.50
838.42	226.50
838.74	226.48
839.05	226.48
839.37	226.50
839.68	226.44
840.00	226.42
840.31	226.42
840.63	226.38
840.94	226.36
841.26	226.37
841.57	226.33
841.88	226.34
842.20	226.33
842.51	226.31
842.83	226.31
843.14	226.41
843.46	226.41
843.77	226.36
844.08	226.36
844.40	226.37
844.71	226.37
845.03	226.36
845.34	226.33
845.65	226.34
845.97	226.30
846.28	226.28
846.60	226.29
846.91	226.26
847.22	226.29
847.54	226.32
847.85	226.30
848.16	226.30
848.48	226.28
848.79	226.30
849.10	226.30
849.42	226.31
849.73	226.19
850.04	226.17
850.36	226.10
850.67	226.10
850.98	226.05
851.30	226.04
851.61	226.02
851.92	226.05
852.23	226.08
852.55	226.11
852.86	226.12
853.17	226.13
853.49	226.14
853.80	226.12
854.11	226.12
854.42	226.14
854.74	226.12
855.05	226.11
855.36	226.06
855.67	226.02
855.99	226.00
856.30	226.11
856.61	226.13
856.92	226.14
857.23	226.15
857.55	226.15
857.86	226.09
858.17	226.10
858.48	226.09
858.79	226.02
859.11	225.99
859.42	225.97
859.73	225.96
860.04	225.95
860.35	225.93
860.66	225.84
860.98	225.85
861.29	225.84
861.60	225.83
861.91	225.82
862.22	225.82
862.53	225.81
862.84	225.68
863.16	225.68
863.47	225.66
863.78	225.64
864.09	225.64
864.40	225.67
864.71	225.65
865.02	225.62
865.33	225.61
865.64	225.56
865.95	225.56
866.27	225.63
866.58	225.59
866.89	225.60
867.20	225.62
867.51	225.53
867.82	225.54
868.13	225.54
868.44	225.56
868.75	225.58
869.06	225.58
869.37	225.59
869.68	225.54
869.99	225.55
870.30	225.51
870.61	225.50
870.92	225.48
871.23	225.46
871.54	225.53
871.85	225.54
872.16	225.56
872.47	225.54
872.78	225.45
873.09	225.48
873.40	225.44
873.71	225.42
874.02	225.48
874.33	225.46
874.64	225.46
874.95	225.50
875.26	225.48
875.56	225.46
875.87	225.44
876.18	225.46
876.49	225.54
876.80	225.56
877.11	225.54
877.42	225.55
877.73	225.60
878.04	225.55
878.35	225.55
878.66	225.56
878.96	225.57
879.27	225.56
879.58	225.56
879.89	225.56
880.20	225.60
880.51	225.57
880.82	225.56
881.12	225.56
881.43	225.47
881.74	225.50
882.05	225.47
882.36	225.47
882.67	225.46
882.97	225.35
883.28	225.30
883.59	225.29
883.90	225.29
884.21	225.28
884.51	225.28
884.82	225.27
885.13	225.28
885.44	225.26
885.74	225.27
886.05	225.24
886.36	225.24
886.67	225.21
886.98	225.26
887.28	225.28
887.59	225.30
887.90	225.34
888.20	225.28
888.51	225.33
888.82	225.35
889.13	225.39
889.43	225.50
889.74	225.53
890.05	225.54
890.35	225.51
890.66	225.46
890.97	225.49
891.28	225.47
891.58	225.45
891.89	225.47
892.20	225.45
892.50	225.45
892.81	225.45
893.12	225.48
893.42	225.44
893.73	225.44
894.04	225.43
894.34	225.45
894.65	225.44
894.95	225.41
895.26	225.38
895.57	225.40
895.87	225.30
896.18	225.32
896.48	225.32
896.79	225.33
897.10	225.36
897.40	225.33
897.71	225.35
898.01	225.35
898.32	225.35
898.63	225.33
898.93	225.31
899.24	225.34
899.54	225.33
899.85	225.35
900.15	225.34
900.46	225.37
900.76	225.34
901.07	225.38
901.38	225.38
901.68	225.41
901.99	225.34
902.29	225.32
902.60	225.33
902.90	225.34
903.21	225.35
903.51	225.37
903.82	225.37
904.12	225.34
904.43	225.36
904.73	225.38
905.03	225.39
905.34	225.52
905.64	225.52
905.95	225.51
906.25	225.49
906.56	225.49
906.86	225.44
907.17	225.47
907.47	225.43
907.77	225.47
908.08	225.43
908.38	225.46
908.69	225.49
908.99	225.50
909.30	225.47
909.60	225.49
909.90	225.46
910.21	225.45
910.51	225.45
910.81	225.45
911.12	225.43
911.42	225.43
911.73	225.32
912.03	225.30
912.33	225.31
912.64	225.32
912.94	225.32
913.24	225.31
913.55	225.28
913.85	225.29
914.15	225.28
914.46	225.29
914.76	225.28
915.06	225.30
915.37	225.28
915.67	225.31
915.97	225.32
916.27	225.31
916.58	225.30
916.88	225.32
917.18	225.30
917.49	225.40
917.79	225.41
918.09	225.44
918.39	225.46
918.70	225.47
919.00	225.47
919.30	225.51
919.60	225.50
919.91	225.51
920.21	225.53
920.51	225.52
920.81	225.52
921.12	225.55
921.42	225.52
921.72	225.53
922.02	225.52
922.32	225.51
922.63	225.53
922.93	225.58
923.23	225.60
923.53	225.61
923.83	225.51
924.13	225.53
924.44	225.53
924.74	225.57
925.04	225.60
925.34	225.59
925.64	225.57
925.94	225.55
926.24	225.59
926.55	225.55
926.85	225.57
927.15	225.58
927.45	225.56
927.75	225.57
928.05	225.55
928.35	225.54
928.65	225.57
928.95	225.57
929.26	225.53
929.56	225.53
929.86	225.54
930.16	225.55
930.46	225.54
930.76	225.52
931.06	225.47
931.36	225.45
931.66	225.44
931.96	225.45
932.26	225.47
932.56	225.42
932.86	225.43
933.16	225.41
933.46	225.43
933.76	225.40
934.06	225.42
934.36	225.45
934.66	225.42
934.96	225.40
935.26	225.39
935.56	225.40
935.86	225.36
936.16	225.34
936.46	225.34
936.76	225.33
937.06	225.32
937.36	225.33
937.66	225.31
937.96	225.31
938.26	225.30
938.56	225.32
938.86	225.32
939.16	225.38
939.46	225.37
939.76	225.31
940.06	225.35
940.35	225.33
940.65	225.28
940.95	225.29
941.25	225.24
941.55	225.27
941.85	225.24
942.15	225.25
942.45	225.27
942.75	225.28
943.04	225.30
943.34	225.29
943.64	225.29
943.94	225.28
944.24	225.28
944.54	225.28
944.84	225.28
945.13	225.28
945.43	225.28
945.73	225.28
946.03	225.31
946.33	225.28
946.62	225.28
946.92	225.29
947.22	225.31
947.52	225.32
947.82	225.31
948.11	225.31
948.41	225.32
948.71	225.31
949.01	225.29
949.31	225.26
949.60	225.28
949.90	225.27
950.20	225.27
950.50	225.29
950.79	225.27
951.09	225.28
951.39	225.25
951.69	225.22
951.98	225.24
952.28	225.23
952.58	225.25
952.87	225.24
953.17	225.24
953.47	225.21
953.76	225.20
954.06	225.19
954.36	225.19
954.66	225.15
954.95	225.16
955.25	225.18
955.55	225.18
955.84	225.16
956.14	225.17
956.44	225.19
956.73	225.17
957.03	225.16
957.32	225.14
957.62	225.14
957.92	225.15
958.21	225.13
958.51	225.25
958.81	225.27
959.10	225.28
959.40	225.30
959.69	225.32
959.99	225.35
960.29	225.38
960.58	225.38
960.88	225.45
961.17	225.45
961.47	225.44
961.76	225.43
962.06	225.45
962.36	225.43
962.65	225.44
962.95	225.44
963.24	225.44
963.54	225.44
963.83	225.48
964.13	225.50
964.42	225.45
964.72	225.36
965.01	225.37
965.31	225.39
965.60	225.39
965.90	225.46
966.19	225.44
966.49	225.42
966.78	225.42
967.08	225.42
967.37	225.40
967.67	225.42
967.96	225.43
968.26	225.45
968.55	225.45
968.85	225.41
969.14	225.41
969.43	225.41
969.73	225.42
970.02	225.39
970.32	225.38
970.61	225.39
970.91	225.37
971.20	225.31
971.49	225.28
971.79	225.27
972.08	225.22
972.38	225.22
972.67	225.20
972.96	225.19
973.26	225.15
973.55	225.18
973.85	225.16
974.14	225.16
974.43	225.13
974.73	225.15
975.02	225.16
975.31	225.12
975.61	225.12
975.90	225.12
976.19	225.11
976.49	225.15
976.78	225.14
977.07	225.12
977.37	225.14
977.66	225.15
977.95	225.12
978.24	225.09
978.54	225.08
978.83	225.06
979.12	225.07
979.42	225.07
979.71	225.06
980.00	225.05
980.29	225.06
980.59	225.06
980.88	225.06
981.17	225.05
981.46	225.09
981.76	225.08
982.05	225.12
982.34	225.13
982.63	225.08
982.93	225.09
983.22	225.14
983.51	225.12
983.80	225.15
984.09	225.17
984.39	225.17
984.68	225.18
984.97	225.23
985.26	225.25
985.55	225.25
985.85	225.25
986.14	225.27
986.43	225.26
986.72	225.25
987.01	225.23
987.30	225.22
987.59	225.20
987.89	225.20
988.18	225.17
988.47	225.15
988.76	225.15
989.05	225.14
989.34	225.11
989.63	225.15
989.92	225.13
990.22	225.12
990.51	225.13
990.80	225.10
991.09	225.09
991.38	225.07
991.67	225.05
991.96	225.00
992.25	225.00
992.54	224.99
992.83	224.99
993.12	225.00
993.41	225.03
993.70	225.06
993.99	225.08
994.28	225.10
994.58	225.11
994.87	225.10
995.16	225.11
995.45	225.11
995.74	225.07
996.03	225.07
996.32	225.08
996.61	225.09
996.90	225.12
997.19	225.10
997.48	225.14
997.77	225.12
998.06	225.13
998.34	225.12
998.63	225.10
998.92	225.11
999.21	225.11
999.50	225.10
999.79	225.07
1000.08	225.06
1000.37	225.04
1000.66	225.05
1000.95	225.06
1001.24	225.06
1001.53	225.08
1001.82	225.09
1002.11	225.09
1002.40	225.09
1002.68	225.10
1002.97	225.16
1003.26	225.17
1003.55	225.14
1003.84	225.18
1004.13	225.23
1004.42	225.24
1004.71	225.25
1004.99	225.23
1005.28	225.27
1005.57	225.25
1005.86	225.27
1006.15	225.28
1006.44	225.29
1006.72	225.28
1007.01	225.26
1007.30	225.23
1007.59	225.21
1007.88	225.21
1008.17	225.20
1008.45	225.19
1008.74	225.16
1009.03	225.11
1009.32	225.09
1009.60	225.11
1009.89	225.10
1010.18	225.09
1010.47	225.10
1010.76	225.12
1011.04	225.10
1011.33	225.13
1011.62	225.16
1011.91	225.17
1012.19	225.20
1012.48	225.17
1012.77	225.18
1013.05	225.26
1013.34	225.27
1013.63	225.27
1013.92	225.29
1014.20	225.30
1014.49	225.31
1014.78	225.33
1015.06	225.32
1015.35	225.33
1015.64	225.33
1015.92	225.34
1016.21	225.34
1016.50	225.31
1016.78	225.33
1017.07	225.38
1017.36	225.34
1017.64	225.33
1017.93	225.33
1018.22	225.30
1018.50	225.32
1018.79	225.34
1019.08	225.29
1019.36	225.32
1019.65	225.32
1019.93	225.33
1020.22	225.33
1020.51	225.38
1020.79	225.37
1021.08	225.23
1021.36	225.11
1021.65	225.45
1021.94	225.19
1022.22	225.43
1022.51	225.16
1022.79	225.60
1023.08	225.09
1023.36	226.37
1023.65	225.14
>>>>>End Processed Spectral Data<<<<<
