SpectraSuite Data File
++++++++++++++++++++++++++++++++++++
Date: Fri Feb 01 16:36:33 EST 2013
User: group
Dark Spectrum Present: No
Reference Spectrum Present: No
Number of Sampled Component Spectra: 1
Spectrometers: USB2E7196
Integration Time (usec): 35000 (USB2E7196)
Spectra Averaged: 100 (USB2E7196)
Boxcar Smoothing: 10 (USB2E7196)
Correct for Electrical Dark: No (USB2E7196)
Strobe/Lamp Enabled: No (USB2E7196)
Correct for Detector Non-linearity: No (USB2E7196)
Correct for Stray Light: No (USB2E7196)
Number of Pixels in Processed Spectrum: 2048
>>>>>Begin Processed Spectral Data<<<<<
339.09	0.00
339.48	213.84
339.86	214.92
340.24	216.43
340.63	217.95
341.01	220.80
341.39	220.54
341.78	221.84
342.16	223.45
342.54	224.41
342.93	212.26
343.31	223.01
343.69	223.55
344.07	224.05
344.46	224.48
344.84	224.85
345.22	225.10
345.60	225.36
345.99	225.58
346.37	225.71
346.75	225.77
347.13	225.83
347.52	225.85
347.90	225.94
348.28	226.00
348.66	226.07
349.05	226.05
349.43	226.06
349.81	226.08
350.19	226.14
350.57	226.21
350.96	226.27
351.34	226.32
351.72	226.41
352.10	226.49
352.48	226.58
352.87	226.64
353.25	226.74
353.63	226.80
354.01	226.86
354.39	226.93
354.77	227.02
355.15	227.13
355.54	227.23
355.92	227.28
356.30	227.37
356.68	227.50
357.06	227.57
357.44	227.64
357.82	227.72
358.20	227.79
358.58	227.83
358.97	227.86
359.35	227.96
359.73	228.07
360.11	228.10
360.49	228.12
360.87	228.22
361.25	228.23
361.63	228.29
362.01	228.35
362.39	228.36
362.77	228.42
363.15	228.42
363.53	228.41
363.91	228.42
364.29	228.40
364.67	228.34
365.05	228.39
365.43	228.36
365.81	228.40
366.19	228.44
366.57	228.48
366.95	228.50
367.33	228.45
367.71	228.42
368.09	228.45
368.47	228.44
368.85	228.39
369.23	228.40
369.61	228.36
369.99	228.32
370.37	228.34
370.75	228.34
371.13	228.29
371.51	228.23
371.89	228.21
372.27	228.17
372.65	228.13
373.03	228.06
373.41	228.03
373.78	227.96
374.16	227.83
374.54	227.76
374.92	227.70
375.30	227.66
375.68	227.57
376.06	227.49
376.44	227.43
376.82	227.37
377.19	227.27
377.57	227.23
377.95	227.15
378.33	227.07
378.71	226.94
379.09	226.90
379.47	226.85
379.84	226.76
380.22	226.69
380.60	226.60
380.98	226.53
381.36	226.47
381.73	226.38
382.11	226.37
382.49	226.33
382.87	226.24
383.25	226.20
383.62	226.22
384.00	226.16
384.38	226.10
384.76	226.07
385.13	226.06
385.51	226.00
385.89	225.93
386.27	225.90
386.64	225.88
387.02	225.84
387.40	225.82
387.78	225.80
388.15	225.80
388.53	225.77
388.91	225.73
389.29	225.72
389.66	225.72
390.04	225.69
390.42	225.67
390.79	225.67
391.17	225.59
391.55	225.51
391.92	225.50
392.30	225.52
392.68	225.48
393.05	225.47
393.43	225.46
393.81	225.49
394.18	225.47
394.56	225.47
394.94	225.52
395.31	225.48
395.69	225.56
396.06	225.57
396.44	225.61
396.82	225.64
397.19	225.69
397.57	225.71
397.95	225.76
398.32	225.76
398.70	225.81
399.07	225.92
399.45	225.99
399.82	226.04
400.20	226.10
400.58	226.13
400.95	226.19
401.33	226.28
401.70	226.38
402.08	226.46
402.45	226.55
402.83	226.62
403.20	226.75
403.58	226.80
403.95	226.90
404.33	227.06
404.71	227.14
405.08	227.34
405.46	227.47
405.83	227.61
406.21	227.76
406.58	227.94
406.96	228.09
407.33	228.24
407.70	228.41
408.08	228.70
408.45	228.96
408.83	229.17
409.20	229.39
409.58	229.61
409.95	229.86
410.33	230.10
410.70	230.31
411.08	230.59
411.45	230.89
411.82	231.19
412.20	231.48
412.57	231.93
412.95	232.17
413.32	232.57
413.69	232.94
414.07	233.38
414.44	233.81
414.82	234.30
415.19	234.81
415.56	235.31
415.94	235.81
416.31	236.41
416.68	237.06
417.06	237.76
417.43	238.42
417.81	239.17
418.18	239.97
418.55	240.83
418.93	241.73
419.30	242.60
419.67	243.53
420.04	244.52
420.42	245.51
420.79	246.70
421.16	247.84
421.54	249.05
421.91	250.27
422.28	251.50
422.66	252.80
423.03	254.11
423.40	255.49
423.77	256.86
424.15	258.29
424.52	259.74
424.89	261.34
425.26	262.89
425.64	264.33
426.01	265.90
426.38	267.58
426.75	269.25
427.13	270.99
427.50	272.81
427.87	274.64
428.24	276.47
428.61	278.20
428.99	280.16
429.36	282.23
429.73	284.26
430.10	286.30
430.47	288.38
430.85	290.48
431.22	292.73
431.59	295.14
431.96	297.36
432.33	299.81
432.70	302.17
433.08	304.98
433.45	307.64
433.82	310.24
434.19	313.08
434.56	315.85
434.93	318.46
435.30	321.06
435.68	323.96
436.05	326.75
436.42	329.55
436.79	332.02
437.16	334.69
437.53	337.49
437.90	340.24
438.27	342.93
438.64	345.78
439.01	348.34
439.38	350.58
439.75	352.73
440.13	355.23
440.50	357.52
440.87	359.31
441.24	361.22
441.61	363.32
441.98	364.84
442.35	366.64
442.72	368.51
443.09	370.27
443.46	371.27
443.83	371.88
444.20	372.38
444.57	373.27
444.94	373.62
445.31	373.97
445.68	374.35
446.05	374.41
446.42	374.05
446.79	373.63
447.16	373.16
447.53	372.87
447.90	371.75
448.27	370.64
448.64	369.07
449.01	367.93
449.37	366.01
449.74	364.08
450.11	361.84
450.48	359.40
450.85	356.89
451.22	354.73
451.59	352.72
451.96	350.79
452.33	348.18
452.70	345.78
453.07	343.00
453.43	340.15
453.80	337.41
454.17	334.72
454.54	332.20
454.91	329.46
455.28	326.81
455.65	324.29
456.02	321.84
456.38	319.76
456.75	317.12
457.12	314.93
457.49	312.72
457.86	310.58
458.23	308.71
458.59	306.67
458.96	304.61
459.33	302.77
459.70	300.90
460.07	299.40
460.43	297.73
460.80	296.12
461.17	294.68
461.54	293.18
461.91	291.78
462.27	290.36
462.64	289.14
463.01	287.79
463.38	286.53
463.74	285.19
464.11	284.00
464.48	282.97
464.85	281.83
465.21	280.99
465.58	280.09
465.95	279.00
466.32	278.13
466.68	277.26
467.05	276.37
467.42	275.52
467.78	274.60
468.15	273.74
468.52	273.06
468.88	272.21
469.25	271.47
469.62	270.84
469.98	270.15
470.35	269.55
470.72	268.99
471.08	268.37
471.45	267.84
471.82	267.31
472.18	266.74
472.55	266.30
472.92	265.77
473.28	265.33
473.65	264.94
474.02	264.50
474.38	264.12
474.75	263.78
475.11	263.44
475.48	263.17
475.85	262.93
476.21	262.71
476.58	262.55
476.94	262.39
477.31	262.23
477.67	262.11
478.04	262.04
478.41	261.97
478.77	262.04
479.14	261.97
479.50	262.01
479.87	262.10
480.23	262.18
480.60	262.26
480.96	262.34
481.33	262.51
481.69	262.69
482.06	262.90
482.42	263.14
482.79	263.38
483.15	263.72
483.52	264.10
483.88	264.47
484.25	264.85
484.61	265.27
484.98	265.74
485.34	266.29
485.71	266.78
486.07	267.37
486.44	267.88
486.80	268.57
487.17	269.27
487.53	270.08
487.90	270.96
488.26	271.90
488.62	272.89
488.99	273.87
489.35	274.95
489.72	276.08
490.08	277.29
490.44	278.52
490.81	279.83
491.17	281.18
491.54	282.62
491.90	284.17
492.26	285.87
492.63	287.57
492.99	289.37
493.36	291.30
493.72	293.41
494.08	295.52
494.45	297.78
494.81	300.15
495.17	302.57
495.54	305.14
495.90	307.83
496.26	310.65
496.63	313.61
496.99	316.73
497.35	320.00
497.72	323.43
498.08	326.96
498.44	330.64
498.80	334.61
499.17	338.73
499.53	342.91
499.89	347.27
500.26	351.82
500.62	356.48
500.98	361.46
501.34	366.49
501.71	371.86
502.07	377.31
502.43	382.94
502.79	388.81
503.16	394.86
503.52	401.18
503.88	407.60
504.24	414.24
504.60	421.16
504.97	428.32
505.33	435.60
505.69	443.36
506.05	451.15
506.41	459.00
506.78	467.13
507.14	475.54
507.50	484.26
507.86	493.27
508.22	502.50
508.59	511.73
508.95	521.35
509.31	531.15
509.67	541.25
510.03	551.51
510.39	561.99
510.75	572.77
511.12	583.65
511.48	594.95
511.84	606.43
512.20	617.90
512.56	629.78
512.92	641.93
513.28	654.23
513.64	666.71
514.00	679.41
514.37	692.30
514.73	705.38
515.09	718.35
515.45	731.60
515.81	745.14
516.17	759.04
516.53	773.12
516.89	787.28
517.25	801.38
517.61	815.81
517.97	830.26
518.33	844.75
518.69	859.51
519.05	874.47
519.41	889.52
519.77	904.97
520.13	920.28
520.49	935.67
520.85	950.91
521.21	966.50
521.57	982.73
521.93	998.43
522.29	1014.66
522.65	1030.87
523.01	1046.97
523.37	1062.97
523.73	1079.09
524.09	1095.10
524.45	1111.24
524.81	1127.91
525.17	1144.48
525.53	1161.23
525.89	1177.88
526.25	1194.68
526.61	1210.87
526.97	1227.50
527.33	1243.95
527.68	1260.54
528.04	1276.81
528.40	1293.35
528.76	1310.32
529.12	1326.70
529.48	1343.58
529.84	1359.46
530.20	1376.01
530.56	1392.90
530.91	1410.08
531.27	1426.76
531.63	1443.08
531.99	1459.68
532.35	1475.47
532.71	1491.36
533.07	1507.63
533.42	1523.49
533.78	1539.37
534.14	1555.59
534.50	1570.86
534.86	1586.50
535.21	1601.60
535.57	1617.51
535.93	1632.85
536.29	1647.54
536.65	1662.41
537.00	1676.74
537.36	1691.89
537.72	1706.24
538.08	1720.53
538.44	1734.16
538.79	1747.85
539.15	1761.19
539.51	1774.65
539.87	1788.75
540.22	1802.26
540.58	1815.58
540.94	1828.57
541.29	1841.02
541.65	1853.53
542.01	1866.50
542.37	1878.72
542.72	1890.79
543.08	1902.38
543.44	1914.56
543.79	1925.65
544.15	1936.63
544.51	1948.23
544.87	1959.19
545.22	1969.93
545.58	1980.11
545.94	1989.89
546.29	1999.80
546.65	2009.71
547.01	2018.90
547.36	2027.54
547.72	2035.88
548.07	2043.85
548.43	2052.05
548.79	2060.08
549.14	2067.77
549.50	2075.09
549.86	2082.71
550.21	2090.07
550.57	2097.23
550.92	2103.93
551.28	2111.05
551.64	2118.12
551.99	2124.54
552.35	2130.73
552.70	2136.86
553.06	2142.82
553.41	2149.13
553.77	2154.96
554.13	2161.01
554.48	2167.14
554.84	2172.73
555.19	2178.05
555.55	2183.32
555.90	2187.92
556.26	2192.88
556.61	2197.27
556.97	2201.82
557.32	2205.88
557.68	2210.18
558.03	2214.29
558.39	2217.91
558.74	2222.40
559.10	2226.24
559.45	2229.92
559.81	2234.00
560.16	2237.72
560.52	2240.99
560.87	2244.34
561.23	2247.02
561.58	2249.85
561.94	2252.41
562.29	2254.65
562.64	2257.51
563.00	2259.99
563.35	2263.41
563.71	2266.67
564.06	2269.87
564.42	2272.56
564.77	2275.30
565.12	2277.75
565.48	2279.83
565.83	2281.85
566.19	2283.24
566.54	2284.12
566.89	2285.38
567.25	2286.11
567.60	2287.47
567.96	2289.30
568.31	2290.14
568.66	2291.42
569.02	2292.22
569.37	2292.60
569.72	2293.68
570.08	2293.90
570.43	2294.07
570.78	2293.58
571.14	2292.02
571.49	2290.91
571.84	2290.59
572.20	2289.51
572.55	2288.24
572.90	2286.59
573.26	2285.13
573.61	2283.34
573.96	2281.79
574.31	2278.91
574.67	2276.02
575.02	2272.46
575.37	2268.93
575.72	2265.31
576.08	2261.87
576.43	2258.47
576.78	2254.90
577.13	2251.57
577.49	2248.35
577.84	2244.92
578.19	2241.32
578.54	2237.91
578.90	2233.77
579.25	2228.33
579.60	2223.58
579.95	2218.71
580.30	2213.85
580.66	2208.83
581.01	2204.04
581.36	2199.04
581.71	2195.00
582.06	2190.80
582.42	2186.35
582.77	2181.23
583.12	2176.75
583.47	2172.38
583.82	2167.59
584.17	2162.41
584.53	2157.04
584.88	2151.53
585.23	2146.03
585.58	2140.54
585.93	2135.05
586.28	2130.17
586.63	2125.27
586.98	2120.00
587.34	2115.31
587.69	2110.48
588.04	2105.41
588.39	2099.85
588.74	2093.41
589.09	2087.26
589.44	2080.56
589.79	2074.52
590.14	2068.92
590.49	2062.40
590.84	2055.86
591.19	2049.80
591.54	2043.32
591.89	2036.17
592.25	2029.52
592.60	2022.36
592.95	2014.95
593.30	2007.64
593.65	2000.20
594.00	1993.06
594.35	1985.98
594.70	1978.07
595.05	1971.13
595.40	1963.75
595.75	1956.32
596.10	1950.36
596.45	1943.74
596.80	1937.46
597.15	1930.99
597.50	1924.20
597.85	1917.73
598.19	1911.23
598.54	1904.42
598.89	1897.86
599.24	1892.03
599.59	1885.54
599.94	1879.16
600.29	1872.77
600.64	1866.13
600.99	1858.80
601.34	1852.19
601.69	1845.14
602.04	1838.39
602.39	1831.03
602.74	1824.33
603.08	1817.71
603.43	1810.88
603.78	1803.65
604.13	1796.43
604.48	1789.43
604.83	1782.59
605.18	1775.83
605.53	1767.85
605.87	1759.79
606.22	1752.39
606.57	1744.20
606.92	1736.56
607.27	1729.43
607.62	1722.55
607.96	1715.39
608.31	1708.89
608.66	1701.22
609.01	1693.62
609.36	1686.07
609.70	1677.98
610.05	1669.95
610.40	1662.29
610.75	1654.02
611.10	1646.22
611.44	1637.88
611.79	1629.67
612.14	1620.90
612.49	1611.65
612.83	1603.15
613.18	1594.94
613.53	1587.01
613.88	1578.74
614.22	1570.64
614.57	1561.98
614.92	1554.10
615.27	1546.70
615.61	1538.44
615.96	1530.43
616.31	1522.92
616.65	1515.52
617.00	1507.97
617.35	1500.28
617.70	1491.91
618.04	1483.53
618.39	1475.42
618.74	1467.84
619.08	1459.57
619.43	1451.92
619.78	1445.03
620.12	1438.00
620.47	1430.58
620.82	1422.48
621.16	1414.96
621.51	1407.40
621.85	1399.77
622.20	1391.09
622.55	1382.65
622.89	1374.77
623.24	1367.00
623.59	1359.58
623.93	1352.06
624.28	1344.82
624.62	1337.36
624.97	1330.20
625.32	1323.27
625.66	1316.22
626.01	1309.07
626.35	1301.78
626.70	1294.09
627.04	1286.45
627.39	1278.51
627.73	1271.07
628.08	1264.12
628.43	1256.99
628.77	1249.66
629.12	1242.25
629.46	1235.16
629.81	1227.59
630.15	1220.31
630.50	1212.98
630.84	1204.94
631.19	1196.97
631.53	1189.47
631.88	1181.90
632.22	1174.26
632.57	1166.99
632.91	1159.43
633.26	1152.00
633.60	1144.54
633.95	1137.37
634.29	1130.17
634.64	1123.64
634.98	1116.33
635.32	1109.18
635.67	1102.39
636.01	1095.63
636.36	1088.82
636.70	1082.30
637.05	1075.90
637.39	1069.42
637.73	1063.01
638.08	1057.04
638.42	1051.05
638.77	1044.61
639.11	1038.08
639.45	1031.68
639.80	1025.03
640.14	1018.69
640.49	1012.23
640.83	1005.94
641.17	999.82
641.52	993.56
641.86	987.03
642.20	981.12
642.55	974.81
642.89	968.54
643.23	961.97
643.58	956.13
643.92	950.06
644.26	944.04
644.61	937.92
644.95	931.88
645.29	925.41
645.64	918.71
645.98	912.44
646.32	906.49
646.66	900.46
647.01	894.75
647.35	889.02
647.69	883.16
648.04	877.61
648.38	871.90
648.72	865.91
649.06	859.90
649.41	854.05
649.75	848.15
650.09	842.10
650.43	836.39
650.78	830.28
651.12	824.26
651.46	818.49
651.80	812.92
652.14	807.53
652.49	802.08
652.83	796.90
653.17	791.27
653.51	785.68
653.85	780.30
654.20	774.65
654.54	768.63
654.88	762.86
655.22	756.94
655.56	751.14
655.90	745.69
656.25	740.44
656.59	735.04
656.93	729.94
657.27	724.81
657.61	719.39
657.95	714.36
658.29	709.24
658.64	703.92
658.98	698.54
659.32	693.02
659.66	687.83
660.00	682.57
660.34	677.57
660.68	672.65
661.02	667.66
661.36	662.93
661.70	658.46
662.05	654.13
662.39	649.77
662.73	645.29
663.07	640.93
663.41	636.49
663.75	632.02
664.09	627.41
664.43	623.02
664.77	618.97
665.11	614.64
665.45	610.51
665.79	606.47
666.13	602.34
666.47	598.29
666.81	594.11
667.15	589.97
667.49	586.06
667.83	582.17
668.17	578.18
668.51	574.06
668.85	569.97
669.19	566.07
669.53	562.23
669.87	558.39
670.21	554.68
670.55	551.02
670.89	547.60
671.23	544.20
671.57	540.66
671.91	537.10
672.25	533.63
672.58	530.12
672.92	526.74
673.26	523.60
673.60	520.48
673.94	517.42
674.28	514.50
674.62	511.54
674.96	508.47
675.30	505.57
675.64	502.74
675.97	499.97
676.31	497.08
676.65	494.19
676.99	491.48
677.33	488.59
677.67	485.79
678.01	482.74
678.34	479.78
678.68	476.90
679.02	474.08
679.36	471.27
679.70	468.53
680.04	465.76
680.37	462.89
680.71	460.05
681.05	457.36
681.39	454.64
681.73	451.97
682.06	449.42
682.40	446.93
682.74	444.35
683.08	441.80
683.42	439.22
683.75	436.69
684.09	434.15
684.43	431.71
684.77	429.22
685.10	426.88
685.44	424.56
685.78	422.24
686.12	420.01
686.45	417.69
686.79	415.37
687.13	413.18
687.46	410.98
687.80	408.84
688.14	406.64
688.48	404.61
688.81	402.40
689.15	400.25
689.49	398.04
689.82	395.91
690.16	393.82
690.50	391.85
690.83	389.90
691.17	387.88
691.51	385.99
691.84	384.14
692.18	382.23
692.52	380.30
692.85	378.36
693.19	376.47
693.52	374.68
693.86	372.86
694.20	371.05
694.53	369.28
694.87	367.43
695.21	365.67
695.54	363.77
695.88	362.02
696.21	360.29
696.55	358.62
696.88	356.98
697.22	355.30
697.56	353.70
697.89	352.07
698.23	350.48
698.56	348.86
698.90	347.34
699.23	345.70
699.57	344.13
699.90	342.61
700.24	341.02
700.58	339.47
700.91	337.98
701.25	336.55
701.58	335.14
701.92	333.76
702.25	332.33
702.59	330.97
702.92	329.63
703.26	328.30
703.59	327.01
703.93	325.81
704.26	324.61
704.60	323.32
704.93	322.06
705.26	320.79
705.60	319.58
705.93	318.36
706.27	317.30
706.60	316.25
706.94	315.14
707.27	314.05
707.61	312.98
707.94	311.95
708.27	310.84
708.61	309.77
708.94	308.77
709.28	307.79
709.61	306.86
709.94	305.91
710.28	304.89
710.61	303.89
710.95	302.81
711.28	301.88
711.61	300.92
711.95	300.00
712.28	299.07
712.61	298.10
712.95	297.19
713.28	296.33
713.61	295.44
713.95	294.56
714.28	293.73
714.61	292.88
714.95	292.05
715.28	291.24
715.61	290.37
715.95	289.53
716.28	288.67
716.61	287.81
716.95	287.00
717.28	286.25
717.61	285.49
717.94	284.73
718.28	283.93
718.61	283.20
718.94	282.53
719.27	281.87
719.61	281.23
719.94	280.50
720.27	279.73
720.60	279.06
720.94	278.42
721.27	277.82
721.60	277.24
721.93	276.61
722.27	276.02
722.60	275.46
722.93	274.86
723.26	274.33
723.59	273.77
723.93	273.21
724.26	272.65
724.59	272.09
724.92	271.55
725.25	271.05
725.59	270.53
725.92	269.99
726.25	269.48
726.58	268.96
726.91	268.50
727.24	268.07
727.57	267.59
727.91	267.08
728.24	266.62
728.57	266.12
728.90	265.67
729.23	265.19
729.56	264.74
729.89	264.26
730.22	263.77
730.55	263.31
730.89	262.87
731.22	262.48
731.55	262.10
731.88	261.71
732.21	261.26
732.54	260.81
732.87	260.36
733.20	259.97
733.53	259.60
733.86	259.22
734.19	258.83
734.52	258.44
734.85	258.15
735.18	257.74
735.51	257.42
735.84	257.04
736.17	256.70
736.50	256.33
736.83	256.13
737.16	255.80
737.49	255.49
737.82	255.14
738.15	254.76
738.48	254.39
738.81	254.03
739.14	253.71
739.47	253.41
739.80	253.11
740.13	252.78
740.46	252.48
740.79	252.14
741.12	251.82
741.45	251.49
741.78	251.16
742.11	250.88
742.44	250.52
742.77	250.26
743.10	249.98
743.43	249.65
743.75	249.25
744.08	249.09
744.41	248.80
744.74	248.54
745.07	248.25
745.40	247.99
745.73	247.80
746.06	247.51
746.39	247.24
746.71	246.96
747.04	246.70
747.37	246.40
747.70	246.19
748.03	245.94
748.36	245.73
748.68	245.44
749.01	245.17
749.34	244.96
749.67	244.69
750.00	244.43
750.33	244.30
750.65	244.09
750.98	243.76
751.31	243.55
751.64	243.31
751.97	243.18
752.29	242.98
752.62	242.74
752.95	242.56
753.28	242.35
753.60	242.16
753.93	242.00
754.26	241.78
754.59	241.55
754.91	241.32
755.24	241.10
755.57	240.95
755.90	240.77
756.22	240.58
756.55	240.39
756.88	240.20
757.20	240.00
757.53	239.80
757.86	239.61
758.19	239.45
758.51	239.31
758.84	239.08
759.17	238.89
759.49	238.72
759.82	238.58
760.15	238.45
760.47	238.28
760.80	238.07
761.13	237.99
761.45	237.82
761.78	237.72
762.11	237.57
762.43	237.44
762.76	237.27
763.08	237.14
763.41	237.00
763.74	236.89
764.06	236.72
764.39	236.57
764.71	236.44
765.04	236.30
765.37	236.15
765.69	236.04
766.02	235.89
766.34	235.74
766.67	235.59
767.00	235.47
767.32	235.43
767.65	235.40
767.97	235.29
768.30	235.17
768.62	235.07
768.95	234.94
769.27	234.79
769.60	234.69
769.92	234.56
770.25	234.47
770.57	234.34
770.90	234.25
771.22	234.17
771.55	234.08
771.87	233.99
772.20	233.91
772.52	233.87
772.85	233.94
773.17	233.88
773.50	233.80
773.82	233.68
774.15	233.54
774.47	233.39
774.80	233.26
775.12	233.21
775.45	233.08
775.77	233.02
776.09	232.93
776.42	232.86
776.74	232.82
777.07	232.72
777.39	232.64
777.72	232.54
778.04	232.47
778.36	232.36
778.69	232.28
779.01	232.21
779.33	232.10
779.66	231.87
779.98	231.79
780.31	231.70
780.63	231.67
780.95	231.64
781.28	231.57
781.60	231.52
781.92	231.44
782.25	231.41
782.57	231.35
782.89	231.33
783.22	231.27
783.54	231.18
783.86	231.13
784.19	231.05
784.51	231.03
784.83	230.98
785.16	230.94
785.48	230.88
785.80	230.85
786.12	230.79
786.45	230.77
786.77	230.72
787.09	230.65
787.42	230.58
787.74	230.51
788.06	230.47
788.38	230.38
788.71	230.32
789.03	230.28
789.35	230.26
789.67	230.21
789.99	230.18
790.32	230.12
790.64	230.09
790.96	230.12
791.28	230.06
791.61	229.98
791.93	229.99
792.25	229.95
792.57	229.93
792.89	229.90
793.21	229.84
793.54	229.81
793.86	229.78
794.18	229.74
794.50	229.70
794.82	229.65
795.14	229.67
795.47	229.64
795.79	229.62
796.11	229.53
796.43	229.49
796.75	229.44
797.07	229.46
797.39	229.39
797.71	229.32
798.04	229.29
798.36	229.29
798.68	229.21
799.00	229.16
799.32	229.13
799.64	229.07
799.96	229.05
800.28	229.01
800.60	228.99
800.92	228.98
801.24	228.94
801.56	228.92
801.89	228.90
802.21	228.90
802.53	228.86
802.85	228.86
803.17	228.87
803.49	228.85
803.81	228.78
804.13	228.78
804.45	228.74
804.77	228.68
805.09	228.66
805.41	228.64
805.73	228.60
806.05	228.49
806.37	228.48
806.69	228.49
807.01	228.49
807.33	228.47
807.65	228.39
807.97	228.41
808.28	228.37
808.60	228.34
808.92	228.29
809.24	228.30
809.56	228.28
809.88	228.23
810.20	228.21
810.52	228.21
810.84	228.16
811.16	228.12
811.48	228.13
811.80	228.11
812.12	228.14
812.43	228.18
812.75	228.20
813.07	228.15
813.39	228.11
813.71	228.07
814.03	228.06
814.35	228.06
814.67	228.01
814.98	227.98
815.30	227.97
815.62	227.93
815.94	227.85
816.26	227.85
816.58	227.81
816.89	227.80
817.21	227.75
817.53	227.78
817.85	227.79
818.17	227.76
818.48	227.75
818.80	227.73
819.12	227.65
819.44	227.64
819.76	227.62
820.07	227.62
820.39	227.60
820.71	227.57
821.03	227.59
821.34	227.57
821.66	227.56
821.98	227.52
822.30	227.52
822.61	227.57
822.93	227.50
823.25	227.47
823.57	227.46
823.88	227.50
824.20	227.45
824.52	227.44
824.83	227.40
825.15	227.36
825.47	227.33
825.79	227.32
826.10	227.27
826.42	227.25
826.74	227.22
827.05	227.22
827.37	227.22
827.69	227.16
828.00	227.15
828.32	227.13
828.64	227.12
828.95	227.18
829.27	227.16
829.58	227.18
829.90	227.21
830.22	227.17
830.53	227.13
830.85	227.12
831.17	227.09
831.48	227.10
831.80	227.11
832.11	227.08
832.43	227.07
832.75	227.07
833.06	227.14
833.38	227.13
833.69	227.11
834.01	227.08
834.32	227.08
834.64	227.06
834.96	227.07
835.27	227.07
835.59	226.97
835.90	226.92
836.22	226.89
836.53	226.84
836.85	226.86
837.16	226.93
837.48	226.93
837.79	226.98
838.11	226.98
838.42	226.98
838.74	227.00
839.05	227.01
839.37	227.01
839.68	226.96
840.00	226.95
840.31	226.97
840.63	226.99
840.94	226.97
841.26	226.96
841.57	226.95
841.88	226.94
842.20	226.97
842.51	226.96
842.83	226.96
843.14	227.06
843.46	227.05
843.77	227.01
844.08	226.96
844.40	226.91
844.71	226.87
845.03	226.84
845.34	226.81
845.65	226.80
845.97	226.81
846.28	226.79
846.60	226.78
846.91	226.72
847.22	226.70
847.54	226.72
847.85	226.73
848.16	226.73
848.48	226.70
848.79	226.72
849.10	226.73
849.42	226.72
849.73	226.62
850.04	226.60
850.36	226.52
850.67	226.57
850.98	226.53
851.30	226.54
851.61	226.54
851.92	226.53
852.23	226.58
852.55	226.55
852.86	226.56
853.17	226.54
853.49	226.58
853.80	226.59
854.11	226.57
854.42	226.57
854.74	226.54
855.05	226.54
855.36	226.50
855.67	226.47
855.99	226.48
856.30	226.58
856.61	226.55
856.92	226.59
857.23	226.57
857.55	226.55
857.86	226.53
858.17	226.54
858.48	226.51
858.79	226.46
859.11	226.43
859.42	226.42
859.73	226.41
860.04	226.39
860.35	226.33
860.66	226.34
860.98	226.32
861.29	226.31
861.60	226.33
861.91	226.31
862.22	226.31
862.53	226.27
862.84	226.15
863.16	226.19
863.47	226.15
863.78	226.13
864.09	226.16
864.40	226.17
864.71	226.16
865.02	226.19
865.33	226.17
865.64	226.16
865.95	226.12
866.27	226.23
866.58	226.22
866.89	226.27
867.20	226.26
867.51	226.24
867.82	226.26
868.13	226.25
868.44	226.23
868.75	226.24
869.06	226.25
869.37	226.27
869.68	226.23
869.99	226.25
870.30	226.25
870.61	226.25
870.92	226.21
871.23	226.19
871.54	226.20
871.85	226.24
872.16	226.25
872.47	226.27
872.78	226.18
873.09	226.16
873.40	226.14
873.71	226.16
874.02	226.19
874.33	226.17
874.64	226.20
874.95	226.22
875.26	226.24
875.56	226.24
875.87	226.26
876.18	226.28
876.49	226.39
876.80	226.40
877.11	226.37
877.42	226.40
877.73	226.41
878.04	226.40
878.35	226.40
878.66	226.41
878.96	226.38
879.27	226.39
879.58	226.40
879.89	226.40
880.20	226.38
880.51	226.38
880.82	226.39
881.12	226.35
881.43	226.36
881.74	226.33
882.05	226.35
882.36	226.31
882.67	226.33
882.97	226.19
883.28	226.15
883.59	226.18
883.90	226.20
884.21	226.25
884.51	226.24
884.82	226.22
885.13	226.24
885.44	226.26
885.74	226.27
886.05	226.25
886.36	226.26
886.67	226.25
886.98	226.26
887.28	226.23
887.59	226.21
887.90	226.17
888.20	226.17
888.51	226.16
888.82	226.15
889.13	226.16
889.43	226.24
889.74	226.25
890.05	226.23
890.35	226.21
890.66	226.17
890.97	226.14
891.28	226.10
891.58	226.09
891.89	226.07
892.20	226.05
892.50	226.03
892.81	225.99
893.12	225.97
893.42	225.95
893.73	225.97
894.04	225.96
894.34	225.97
894.65	225.95
894.95	225.94
895.26	225.93
895.57	225.95
895.87	225.90
896.18	225.90
896.48	225.92
896.79	225.95
897.10	225.94
897.40	226.00
897.71	226.04
898.01	226.05
898.32	226.04
898.63	226.03
898.93	226.05
899.24	226.06
899.54	226.08
899.85	226.08
900.15	226.07
900.46	226.11
900.76	226.12
901.07	226.14
901.38	226.12
901.68	226.14
901.99	226.09
902.29	226.08
902.60	226.09
902.90	226.08
903.21	226.06
903.51	226.04
903.82	226.02
904.12	226.00
904.43	225.98
904.73	225.97
905.03	226.01
905.34	226.10
905.64	226.13
905.95	226.15
906.25	226.16
906.56	226.18
906.86	226.18
907.17	226.15
907.47	226.16
907.77	226.16
908.08	226.14
908.38	226.14
908.69	226.18
908.99	226.21
909.30	226.21
909.60	226.19
909.90	226.22
910.21	226.21
910.51	226.22
910.81	226.26
911.12	226.29
911.42	226.26
911.73	226.17
912.03	226.17
912.33	226.17
912.64	226.17
912.94	226.15
913.24	226.11
913.55	226.14
913.85	226.15
914.15	226.20
914.46	226.22
914.76	226.24
915.06	226.22
915.37	226.19
915.67	226.21
915.97	226.21
916.27	226.19
916.58	226.19
916.88	226.18
917.18	226.16
917.49	226.22
917.79	226.20
918.09	226.22
918.39	226.24
918.70	226.23
919.00	226.20
919.30	226.25
919.60	226.26
919.91	226.22
920.21	226.19
920.51	226.17
920.81	226.16
921.12	226.16
921.42	226.17
921.72	226.16
922.02	226.15
922.32	226.19
922.63	226.16
922.93	226.22
923.23	226.22
923.53	226.18
923.83	226.12
924.13	226.15
924.44	226.13
924.74	226.12
925.04	226.14
925.34	226.15
925.64	226.12
925.94	226.11
926.24	226.20
926.55	226.19
926.85	226.19
927.15	226.20
927.45	226.20
927.75	226.18
928.05	226.20
928.35	226.20
928.65	226.19
928.95	226.21
929.26	226.16
929.56	226.22
929.86	226.21
930.16	226.21
930.46	226.19
930.76	226.23
931.06	226.22
931.36	226.21
931.66	226.21
931.96	226.21
932.26	226.20
932.56	226.14
932.86	226.14
933.16	226.14
933.46	226.12
933.76	226.09
934.06	226.08
934.36	226.07
934.66	226.04
934.96	226.03
935.26	226.03
935.56	226.03
935.86	225.96
936.16	225.97
936.46	225.95
936.76	225.97
937.06	225.92
937.36	225.89
937.66	225.85
937.96	225.89
938.26	225.86
938.56	225.88
938.86	225.87
939.16	225.89
939.46	225.88
939.76	225.90
940.06	225.91
940.35	225.91
940.65	225.89
940.95	225.88
941.25	225.86
941.55	225.84
941.85	225.82
942.15	225.84
942.45	225.88
942.75	225.86
943.04	225.87
943.34	225.91
943.64	225.92
943.94	225.92
944.24	225.89
944.54	225.91
944.84	225.91
945.13	225.94
945.43	225.91
945.73	225.92
946.03	225.89
946.33	225.87
946.62	225.88
946.92	225.85
947.22	225.87
947.52	225.89
947.82	225.89
948.11	225.90
948.41	225.90
948.71	225.85
949.01	225.87
949.31	225.85
949.60	225.83
949.90	225.83
950.20	225.81
950.50	225.81
950.79	225.76
951.09	225.78
951.39	225.74
951.69	225.76
951.98	225.75
952.28	225.74
952.58	225.74
952.87	225.71
953.17	225.75
953.47	225.72
953.76	225.70
954.06	225.69
954.36	225.67
954.66	225.64
954.95	225.67
955.25	225.67
955.55	225.69
955.84	225.67
956.14	225.68
956.44	225.70
956.73	225.70
957.03	225.71
957.32	225.68
957.62	225.69
957.92	225.68
958.21	225.70
958.51	225.80
958.81	225.84
959.10	225.84
959.40	225.86
959.69	225.89
959.99	225.92
960.29	225.93
960.58	225.94
960.88	226.00
961.17	226.02
961.47	226.00
961.76	225.96
962.06	225.97
962.36	225.94
962.65	225.94
962.95	225.96
963.24	225.96
963.54	225.98
963.83	225.99
964.13	226.02
964.42	225.99
964.72	225.93
965.01	225.92
965.31	225.92
965.60	225.90
965.90	225.96
966.19	225.93
966.49	225.92
966.78	225.96
967.08	225.94
967.37	225.93
967.67	225.94
967.96	225.98
968.26	225.96
968.55	225.97
968.85	225.99
969.14	225.97
969.43	225.99
969.73	225.96
970.02	225.96
970.32	225.93
970.61	225.92
970.91	225.89
971.20	225.91
971.49	225.90
971.79	225.89
972.08	225.84
972.38	225.87
972.67	225.88
972.96	225.88
973.26	225.85
973.55	225.88
973.85	225.87
974.14	225.86
974.43	225.89
974.73	225.89
975.02	225.85
975.31	225.84
975.61	225.80
975.90	225.81
976.19	225.75
976.49	225.76
976.78	225.77
977.07	225.78
977.37	225.74
977.66	225.73
977.95	225.69
978.24	225.68
978.54	225.66
978.83	225.67
979.12	225.65
979.42	225.68
979.71	225.65
980.00	225.65
980.29	225.66
980.59	225.64
980.88	225.65
981.17	225.65
981.46	225.63
981.76	225.66
982.05	225.71
982.34	225.73
982.63	225.73
982.93	225.73
983.22	225.73
983.51	225.72
983.80	225.77
984.09	225.80
984.39	225.80
984.68	225.77
984.97	225.77
985.26	225.76
985.55	225.74
985.85	225.73
986.14	225.72
986.43	225.73
986.72	225.73
987.01	225.69
987.30	225.69
987.59	225.70
987.89	225.72
988.18	225.67
988.47	225.68
988.76	225.66
989.05	225.66
989.34	225.62
989.63	225.66
989.92	225.61
990.22	225.60
990.51	225.60
990.80	225.62
991.09	225.62
991.38	225.63
991.67	225.65
991.96	225.61
992.25	225.63
992.54	225.60
992.83	225.63
993.12	225.63
993.41	225.65
993.70	225.68
993.99	225.70
994.28	225.71
994.58	225.71
994.87	225.70
995.16	225.68
995.45	225.69
995.74	225.65
996.03	225.67
996.32	225.68
996.61	225.73
996.90	225.73
997.19	225.72
997.48	225.69
997.77	225.67
998.06	225.72
998.34	225.72
998.63	225.71
998.92	225.70
999.21	225.68
999.50	225.69
999.79	225.64
1000.08	225.62
1000.37	225.61
1000.66	225.62
1000.95	225.66
1001.24	225.70
1001.53	225.76
1001.82	225.79
1002.11	225.76
1002.40	225.75
1002.68	225.75
1002.97	225.79
1003.26	225.77
1003.55	225.75
1003.84	225.77
1004.13	225.78
1004.42	225.76
1004.71	225.78
1004.99	225.77
1005.28	225.86
1005.57	225.84
1005.86	225.86
1006.15	225.84
1006.44	225.83
1006.72	225.82
1007.01	225.81
1007.30	225.80
1007.59	225.79
1007.88	225.77
1008.17	225.82
1008.45	225.84
1008.74	225.79
1009.03	225.78
1009.32	225.81
1009.60	225.85
1009.89	225.84
1010.18	225.84
1010.47	225.82
1010.76	225.85
1011.04	225.81
1011.33	225.77
1011.62	225.81
1011.91	225.82
1012.19	225.83
1012.48	225.81
1012.77	225.81
1013.05	225.87
1013.34	225.90
1013.63	225.87
1013.92	225.90
1014.20	225.89
1014.49	225.89
1014.78	225.93
1015.06	225.87
1015.35	225.85
1015.64	225.81
1015.92	225.83
1016.21	225.82
1016.50	225.83
1016.78	225.82
1017.07	225.85
1017.36	225.83
1017.64	225.80
1017.93	225.81
1018.22	225.80
1018.50	225.82
1018.79	225.82
1019.08	225.75
1019.36	225.74
1019.65	225.70
1019.93	225.74
1020.22	225.72
1020.51	225.75
1020.79	225.68
1021.08	225.40
1021.36	225.31
1021.65	225.80
1021.94	225.78
1022.22	225.94
1022.51	225.23
1022.79	226.64
1023.08	225.52
1023.36	226.66
1023.65	224.69
>>>>>End Processed Spectral Data<<<<<
