SpectraSuite Data File
++++++++++++++++++++++++++++++++++++
Date: Fri Feb 01 17:32:22 EST 2013
User: group
Dark Spectrum Present: No
Reference Spectrum Present: No
Number of Sampled Component Spectra: 1
Spectrometers: USB2E7196
Integration Time (usec): 35000 (USB2E7196)
Spectra Averaged: 100 (USB2E7196)
Boxcar Smoothing: 10 (USB2E7196)
Correct for Electrical Dark: No (USB2E7196)
Strobe/Lamp Enabled: No (USB2E7196)
Correct for Detector Non-linearity: No (USB2E7196)
Correct for Stray Light: No (USB2E7196)
Number of Pixels in Processed Spectrum: 2048
>>>>>Begin Processed Spectral Data<<<<<
339.09	0.00
339.48	212.75
339.86	214.45
340.24	215.52
340.63	216.47
341.01	220.17
341.39	219.98
341.78	220.93
342.16	222.26
342.54	222.94
342.93	211.28
343.31	221.97
343.69	222.51
344.07	222.96
344.46	223.40
344.84	223.80
345.22	224.03
345.60	224.30
345.99	224.52
346.37	224.66
346.75	224.77
347.13	224.84
347.52	224.93
347.90	224.99
348.28	225.03
348.66	225.08
349.05	225.08
349.43	225.14
349.81	225.18
350.19	225.25
350.57	225.34
350.96	225.40
351.34	225.46
351.72	225.56
352.10	225.70
352.48	225.78
352.87	225.85
353.25	225.95
353.63	226.01
354.01	226.06
354.39	226.15
354.77	226.25
355.15	226.38
355.54	226.46
355.92	226.49
356.30	226.59
356.68	226.74
357.06	226.82
357.44	226.86
357.82	226.94
358.20	227.01
358.58	227.03
358.97	227.12
359.35	227.24
359.73	227.31
360.11	227.36
360.49	227.41
360.87	227.44
361.25	227.47
361.63	227.55
362.01	227.58
362.39	227.61
362.77	227.62
363.15	227.59
363.53	227.62
363.91	227.66
364.29	227.67
364.67	227.60
365.05	227.65
365.43	227.70
365.81	227.72
366.19	227.77
366.57	227.81
366.95	227.75
367.33	227.71
367.71	227.67
368.09	227.68
368.47	227.67
368.85	227.70
369.23	227.69
369.61	227.60
369.99	227.60
370.37	227.60
370.75	227.61
371.13	227.58
371.51	227.52
371.89	227.49
372.27	227.43
372.65	227.36
373.03	227.30
373.41	227.20
373.78	227.12
374.16	227.02
374.54	226.97
374.92	226.92
375.30	226.84
375.68	226.76
376.06	226.69
376.44	226.62
376.82	226.53
377.19	226.44
377.57	226.38
377.95	226.31
378.33	226.22
378.71	226.08
379.09	226.01
379.47	225.93
379.84	225.81
380.22	225.73
380.60	225.65
380.98	225.58
381.36	225.52
381.73	225.46
382.11	225.42
382.49	225.36
382.87	225.28
383.25	225.23
383.62	225.31
384.00	225.20
384.38	225.12
384.76	225.10
385.13	225.07
385.51	225.03
385.89	224.95
386.27	224.91
386.64	224.91
387.02	224.88
387.40	224.84
387.78	224.87
388.15	224.85
388.53	224.85
388.91	224.80
389.29	224.77
389.66	224.78
390.04	224.71
390.42	224.67
390.79	224.69
391.17	224.67
391.55	224.57
391.92	224.59
392.30	224.62
392.68	224.58
393.05	224.59
393.43	224.60
393.81	224.64
394.18	224.62
394.56	224.62
394.94	224.66
395.31	224.67
395.69	224.70
396.06	224.73
396.44	224.72
396.82	224.76
397.19	224.84
397.57	224.85
397.95	224.94
398.32	224.96
398.70	224.99
399.07	225.09
399.45	225.11
399.82	225.17
400.20	225.21
400.58	225.30
400.95	225.35
401.33	225.43
401.70	225.55
402.08	225.66
402.45	225.74
402.83	225.85
403.20	225.98
403.58	226.07
403.95	226.19
404.33	226.39
404.71	226.52
405.08	226.71
405.46	226.82
405.83	226.96
406.21	227.10
406.58	227.26
406.96	227.41
407.33	227.61
407.70	227.79
408.08	228.07
408.45	228.29
408.83	228.54
409.20	228.75
409.58	228.92
409.95	229.16
410.33	229.45
410.70	229.67
411.08	229.96
411.45	230.26
411.82	230.56
412.20	230.90
412.57	231.31
412.95	231.58
413.32	231.99
413.69	232.38
414.07	232.86
414.44	233.33
414.82	233.82
415.19	234.39
415.56	234.95
415.94	235.51
416.31	236.14
416.68	236.76
417.06	237.53
417.43	238.25
417.81	239.04
418.18	239.83
418.55	240.74
418.93	241.65
419.30	242.59
419.67	243.57
420.04	244.54
420.42	245.58
420.79	246.80
421.16	248.03
421.54	249.27
421.91	250.55
422.28	251.86
422.66	253.24
423.03	254.58
423.40	255.98
423.77	257.48
424.15	258.98
424.52	260.53
424.89	262.19
425.26	263.81
425.64	265.33
426.01	266.99
426.38	268.66
426.75	270.37
427.13	272.11
427.50	273.99
427.87	275.94
428.24	277.91
428.61	279.75
428.99	281.76
429.36	283.90
429.73	286.02
430.10	288.13
430.47	290.26
430.85	292.46
431.22	294.83
431.59	297.27
431.96	299.61
432.33	302.20
432.70	304.62
433.08	307.53
433.45	310.30
433.82	313.02
434.19	316.10
434.56	319.09
434.93	321.90
435.30	324.63
435.68	327.64
436.05	330.60
436.42	333.52
436.79	336.12
437.16	338.97
437.53	341.92
437.90	344.87
438.27	347.80
438.64	350.76
439.01	353.41
439.38	355.73
439.75	357.99
440.13	360.61
440.50	363.10
440.87	365.05
441.24	367.05
441.61	369.30
441.98	370.85
442.35	372.74
442.72	374.71
443.09	376.61
443.46	377.66
443.83	378.26
444.20	378.78
444.57	379.69
444.94	380.01
445.31	380.39
445.68	380.78
446.05	380.85
446.42	380.47
446.79	380.06
447.16	379.67
447.53	379.35
447.90	378.14
448.27	376.90
448.64	375.26
449.01	374.13
449.37	372.08
449.74	370.15
450.11	367.79
450.48	365.23
450.85	362.65
451.22	360.44
451.59	358.33
451.96	356.33
452.33	353.60
452.70	351.15
453.07	348.21
453.43	345.17
453.80	342.27
454.17	339.49
454.54	336.84
454.91	333.98
455.28	331.18
455.65	328.61
456.02	326.07
456.38	323.83
456.75	321.03
457.12	318.67
457.49	316.30
457.86	314.01
458.23	312.02
458.59	309.82
458.96	307.63
459.33	305.69
459.70	303.75
460.07	302.19
460.43	300.41
460.80	298.69
461.17	297.19
461.54	295.61
461.91	294.10
462.27	292.63
462.64	291.29
463.01	289.87
463.38	288.55
463.74	287.10
464.11	285.85
464.48	284.80
464.85	283.66
465.21	282.78
465.58	281.83
465.95	280.72
466.32	279.75
466.68	278.82
467.05	277.87
467.42	276.90
467.78	275.96
468.15	275.04
468.52	274.39
468.88	273.48
469.25	272.67
469.62	272.05
469.98	271.31
470.35	270.71
470.72	270.11
471.08	269.42
471.45	268.91
471.82	268.38
472.18	267.76
472.55	267.32
472.92	266.78
473.28	266.27
473.65	265.85
474.02	265.42
474.38	265.06
474.75	264.74
475.11	264.40
475.48	264.15
475.85	263.91
476.21	263.65
476.58	263.46
476.94	263.32
477.31	263.12
477.67	262.96
478.04	262.82
478.41	262.76
478.77	262.78
479.14	262.69
479.50	262.68
479.87	262.77
480.23	262.86
480.60	262.90
480.96	262.99
481.33	263.16
481.69	263.34
482.06	263.52
482.42	263.72
482.79	263.95
483.15	264.24
483.52	264.60
483.88	264.96
484.25	265.39
484.61	265.79
484.98	266.27
485.34	266.88
485.71	267.45
486.07	268.05
486.44	268.63
486.80	269.35
487.17	270.08
487.53	270.88
487.90	271.73
488.26	272.65
488.62	273.64
488.99	274.60
489.35	275.67
489.72	276.77
490.08	277.99
490.44	279.24
490.81	280.59
491.17	281.97
491.54	283.44
491.90	284.93
492.26	286.61
492.63	288.33
492.99	290.09
493.36	291.95
493.72	293.98
494.08	296.04
494.45	298.30
494.81	300.66
495.17	303.06
495.54	305.63
495.90	308.27
496.26	311.06
496.63	313.98
496.99	317.05
497.35	320.31
497.72	323.69
498.08	327.16
498.44	330.75
498.80	334.62
499.17	338.59
499.53	342.69
499.89	347.02
500.26	351.45
500.62	356.03
500.98	360.93
501.34	365.96
501.71	371.20
502.07	376.52
502.43	382.01
502.79	387.72
503.16	393.64
503.52	399.81
503.88	406.11
504.24	412.64
504.60	419.39
504.97	426.40
505.33	433.55
505.69	441.12
506.05	448.83
506.41	456.56
506.78	464.60
507.14	472.90
507.50	481.41
507.86	490.27
508.22	499.27
508.59	508.26
508.95	517.58
509.31	527.20
509.67	537.03
510.03	547.17
510.39	557.50
510.75	568.08
511.12	578.77
511.48	589.80
511.84	601.02
512.20	612.28
512.56	623.87
512.92	635.78
513.28	647.89
513.64	659.98
514.00	672.35
514.37	684.99
514.73	697.76
515.09	710.44
515.45	723.41
515.81	736.69
516.17	750.33
516.53	764.08
516.89	777.96
517.25	791.81
517.61	805.86
517.97	820.00
518.33	834.02
518.69	848.37
519.05	862.94
519.41	877.71
519.77	892.81
520.13	907.90
520.49	922.85
520.85	937.69
521.21	953.05
521.57	968.77
521.93	984.06
522.29	999.96
522.65	1015.74
523.01	1031.48
523.37	1046.99
523.73	1062.68
524.09	1078.31
524.45	1094.06
524.81	1110.13
525.17	1126.37
525.53	1142.70
525.89	1159.09
526.25	1175.43
526.61	1191.43
526.97	1207.68
527.33	1223.74
527.68	1239.81
528.04	1255.88
528.40	1272.00
528.76	1288.53
529.12	1304.70
529.48	1321.11
529.84	1336.72
530.20	1352.93
530.56	1369.39
530.91	1386.44
531.27	1402.80
531.63	1418.86
531.99	1434.96
532.35	1450.63
532.71	1466.13
533.07	1481.98
533.42	1497.48
533.78	1513.25
534.14	1529.01
534.50	1543.96
534.86	1559.38
535.21	1574.33
535.57	1589.73
535.93	1604.87
536.29	1619.38
536.65	1634.19
537.00	1648.59
537.36	1663.48
537.72	1677.72
538.08	1691.93
538.44	1705.42
538.79	1719.12
539.15	1732.46
539.51	1746.12
539.87	1760.19
540.22	1773.66
540.58	1787.14
540.94	1800.25
541.29	1812.89
541.65	1825.37
542.01	1838.36
542.37	1850.57
542.72	1862.70
543.08	1874.43
543.44	1886.71
543.79	1897.89
544.15	1908.65
544.51	1920.20
544.87	1931.12
545.22	1941.98
545.58	1952.24
545.94	1961.96
546.29	1971.89
546.65	1981.92
547.01	1991.27
547.36	2000.08
547.72	2008.77
548.07	2016.93
548.43	2025.25
548.79	2033.17
549.14	2041.14
549.50	2048.72
549.86	2056.43
550.21	2063.92
550.57	2071.38
550.92	2078.20
551.28	2085.35
551.64	2092.65
551.99	2099.45
552.35	2106.00
552.70	2112.32
553.06	2118.61
553.41	2125.28
553.77	2131.36
554.13	2137.65
554.48	2143.95
554.84	2149.90
555.19	2155.33
555.55	2160.84
555.90	2165.67
556.26	2171.08
556.61	2175.92
556.97	2180.81
557.32	2185.42
557.68	2189.99
558.03	2194.60
558.39	2198.68
558.74	2203.66
559.10	2207.92
559.45	2211.82
559.81	2216.48
560.16	2220.78
560.52	2224.32
560.87	2228.08
561.23	2231.08
561.58	2234.24
561.94	2237.28
562.29	2239.80
562.64	2243.08
563.00	2245.85
563.35	2249.63
563.71	2253.25
564.06	2256.77
564.42	2259.95
564.77	2262.98
565.12	2265.79
565.48	2268.21
565.83	2270.48
566.19	2272.38
566.54	2273.74
566.89	2275.62
567.25	2276.54
567.60	2278.12
567.96	2280.29
568.31	2281.49
568.66	2283.18
569.02	2284.27
569.37	2284.92
569.72	2286.36
570.08	2286.96
570.43	2287.44
570.78	2287.46
571.14	2286.21
571.49	2285.14
571.84	2284.98
572.20	2284.17
572.55	2283.55
572.90	2282.21
573.26	2281.34
573.61	2279.83
573.96	2278.63
574.31	2275.84
574.67	2273.34
575.02	2270.18
575.37	2267.02
575.72	2263.72
576.08	2260.68
576.43	2257.77
576.78	2254.47
577.13	2251.43
577.49	2248.50
577.84	2245.54
578.19	2241.99
578.54	2238.94
578.90	2235.50
579.25	2230.36
579.60	2225.88
579.95	2221.30
580.30	2216.78
580.66	2211.96
581.01	2207.33
581.36	2202.67
581.71	2199.05
582.06	2194.91
582.42	2190.91
582.77	2186.15
583.12	2181.94
583.47	2177.81
583.82	2173.24
584.17	2168.33
584.53	2163.25
584.88	2157.99
585.23	2152.64
585.58	2147.44
585.93	2142.17
586.28	2137.55
586.63	2132.85
586.98	2127.91
587.34	2123.31
587.69	2118.58
588.04	2113.69
588.39	2108.44
588.74	2102.06
589.09	2095.99
589.44	2089.51
589.79	2083.39
590.14	2077.93
590.49	2071.60
590.84	2065.18
591.19	2059.34
591.54	2053.16
591.89	2046.13
592.25	2039.67
592.60	2032.49
592.95	2025.25
593.30	2018.08
593.65	2010.58
594.00	2003.70
594.35	1996.79
594.70	1988.90
595.05	1982.06
595.40	1974.84
595.75	1967.47
596.10	1961.77
596.45	1955.34
596.80	1949.37
597.15	1943.11
597.50	1936.36
597.85	1930.00
598.19	1923.63
598.54	1916.83
598.89	1910.36
599.24	1904.54
599.59	1898.02
599.94	1891.99
600.29	1885.87
600.64	1879.34
600.99	1872.19
601.34	1865.51
601.69	1858.47
602.04	1851.79
602.39	1844.35
602.74	1837.70
603.08	1831.08
603.43	1824.10
603.78	1816.80
604.13	1809.63
604.48	1802.58
604.83	1795.62
605.18	1788.92
605.53	1781.08
605.87	1773.01
606.22	1765.67
606.57	1757.84
606.92	1750.48
607.27	1743.52
607.62	1736.65
607.96	1729.51
608.31	1722.91
608.66	1715.32
609.01	1708.00
609.36	1700.36
609.70	1692.40
610.05	1684.39
610.40	1676.81
610.75	1668.70
611.10	1661.00
611.44	1652.48
611.79	1644.31
612.14	1635.71
612.49	1626.38
612.83	1617.82
613.18	1609.65
613.53	1601.63
613.88	1592.94
614.22	1584.55
614.57	1575.52
614.92	1567.39
615.27	1560.01
615.61	1551.64
615.96	1543.49
616.31	1535.57
616.65	1528.23
617.00	1520.66
617.35	1512.74
617.70	1504.38
618.04	1495.80
618.39	1487.42
618.74	1479.83
619.08	1471.49
619.43	1463.70
619.78	1456.71
620.12	1449.48
620.47	1441.84
620.82	1433.52
621.16	1425.90
621.51	1418.20
621.85	1410.55
622.20	1401.90
622.55	1393.17
622.89	1385.27
623.24	1377.58
623.59	1370.03
623.93	1362.42
624.28	1355.02
624.62	1347.56
624.97	1340.17
625.32	1333.19
625.66	1326.13
626.01	1318.83
626.35	1311.30
626.70	1303.47
627.04	1295.61
627.39	1287.72
627.73	1280.28
628.08	1273.25
628.43	1266.05
628.77	1258.59
629.12	1250.99
629.46	1243.74
629.81	1236.13
630.15	1228.71
630.50	1221.26
630.84	1213.11
631.19	1204.98
631.53	1197.32
631.88	1189.47
632.22	1181.76
632.57	1174.26
632.91	1166.54
633.26	1159.06
633.60	1151.41
633.95	1144.12
634.29	1137.04
634.64	1130.24
634.98	1122.72
635.32	1115.48
635.67	1108.73
636.01	1102.00
636.36	1095.20
636.70	1088.59
637.05	1081.95
637.39	1075.41
637.73	1068.79
638.08	1062.75
638.42	1056.69
638.77	1050.24
639.11	1043.78
639.45	1037.31
639.80	1030.71
640.14	1024.41
640.49	1017.86
640.83	1011.60
641.17	1005.54
641.52	999.14
641.86	992.59
642.20	986.74
642.55	980.37
642.89	973.80
643.23	967.17
643.58	961.32
643.92	955.17
644.26	949.26
644.61	943.09
644.95	937.03
645.29	930.47
645.64	923.75
645.98	917.36
646.32	911.35
646.66	905.25
647.01	899.42
647.35	893.61
647.69	887.66
648.04	882.04
648.38	876.20
648.72	870.16
649.06	864.16
649.41	858.23
649.75	852.29
650.09	846.42
650.43	840.70
650.78	834.57
651.12	828.50
651.46	822.65
651.80	817.10
652.14	811.70
652.49	806.38
652.83	801.17
653.17	795.53
653.51	789.86
653.85	784.43
654.20	778.76
654.54	772.70
654.88	766.94
655.22	761.08
655.56	755.28
655.90	749.77
656.25	744.50
656.59	739.11
656.93	733.99
657.27	728.83
657.61	723.30
657.95	718.11
658.29	713.03
658.64	707.78
658.98	702.31
659.32	696.85
659.66	691.53
660.00	686.31
660.34	681.30
660.68	676.30
661.02	671.29
661.36	666.57
661.70	662.14
662.05	657.77
662.39	653.52
662.73	649.07
663.07	644.73
663.41	640.25
663.75	635.80
664.09	631.22
664.43	626.76
664.77	622.68
665.11	618.45
665.45	614.28
665.79	610.17
666.13	606.06
666.47	601.91
666.81	597.82
667.15	593.57
667.49	589.66
667.83	585.84
668.17	581.86
668.51	577.79
668.85	573.67
669.19	569.78
669.53	565.89
669.87	562.02
670.21	558.28
670.55	554.62
670.89	551.12
671.23	547.65
671.57	544.10
671.91	540.60
672.25	537.06
672.58	533.56
672.92	530.09
673.26	526.87
673.60	523.70
673.94	520.52
674.28	517.55
674.62	514.60
674.96	511.51
675.30	508.63
675.64	505.71
675.97	502.92
676.31	500.06
676.65	497.09
676.99	494.35
677.33	491.45
677.67	488.59
678.01	485.58
678.34	482.62
678.68	479.74
679.02	476.89
679.36	474.08
679.70	471.35
680.04	468.59
680.37	465.73
680.71	462.94
681.05	460.29
681.39	457.61
681.73	454.86
682.06	452.30
682.40	449.66
682.74	447.04
683.08	444.48
683.42	441.85
683.75	439.34
684.09	436.69
684.43	434.16
684.77	431.72
685.10	429.28
685.44	426.89
685.78	424.58
686.12	422.29
686.45	419.94
686.79	417.54
687.13	415.30
687.46	413.13
687.80	410.90
688.14	408.68
688.48	406.54
688.81	404.37
689.15	402.20
689.49	400.07
689.82	398.02
690.16	395.87
690.50	393.81
690.83	391.83
691.17	389.86
691.51	387.96
691.84	386.03
692.18	384.10
692.52	382.11
692.85	380.11
693.19	378.19
693.52	376.35
693.86	374.54
694.20	372.72
694.53	370.85
694.87	368.95
695.21	367.11
695.54	365.31
695.88	363.53
696.21	361.74
696.55	360.01
696.88	358.29
697.22	356.57
697.56	354.94
697.89	353.23
698.23	351.59
698.56	349.92
698.90	348.34
699.23	346.72
699.57	345.16
699.90	343.59
700.24	342.00
700.58	340.49
700.91	338.99
701.25	337.51
701.58	336.13
701.92	334.79
702.25	333.42
702.59	332.03
702.92	330.69
703.26	329.39
703.59	328.13
703.93	326.90
704.26	325.69
704.60	324.40
704.93	323.13
705.26	321.89
705.60	320.73
705.93	319.54
706.27	318.49
706.60	317.40
706.94	316.33
707.27	315.20
707.61	314.09
707.94	313.05
708.27	311.99
708.61	310.86
708.94	309.82
709.28	308.77
709.61	307.77
709.94	306.80
710.28	305.76
710.61	304.73
710.95	303.63
711.28	302.68
711.61	301.72
711.95	300.81
712.28	299.85
712.61	298.86
712.95	297.88
713.28	296.96
713.61	296.07
713.95	295.15
714.28	294.29
714.61	293.43
714.95	292.56
715.28	291.65
715.61	290.76
715.95	289.88
716.28	289.01
716.61	288.16
716.95	287.30
717.28	286.53
717.61	285.77
717.94	285.02
718.28	284.20
718.61	283.43
718.94	282.68
719.27	282.01
719.61	281.33
719.94	280.69
720.27	279.93
720.60	279.23
720.94	278.59
721.27	277.99
721.60	277.38
721.93	276.73
722.27	276.22
722.60	275.72
722.93	275.13
723.26	274.63
723.59	274.05
723.93	273.49
724.26	272.93
724.59	272.33
724.92	271.77
725.25	271.27
725.59	270.74
725.92	270.26
726.25	269.74
726.58	269.24
726.91	268.71
727.24	268.26
727.57	267.76
727.91	267.24
728.24	266.75
728.57	266.23
728.90	265.77
729.23	265.25
729.56	264.77
729.89	264.30
730.22	263.76
730.55	263.28
730.89	262.82
731.22	262.34
731.55	261.87
731.88	261.44
732.21	260.98
732.54	260.56
732.87	260.13
733.20	259.70
733.53	259.28
733.86	258.88
734.19	258.46
734.52	258.07
734.85	257.76
735.18	257.34
735.51	256.98
735.84	256.65
736.17	256.28
736.50	255.86
736.83	255.62
737.16	255.25
737.49	254.95
737.82	254.59
738.15	254.25
738.48	253.93
738.81	253.60
739.14	253.26
739.47	252.94
739.80	252.59
740.13	252.28
740.46	251.96
740.79	251.61
741.12	251.29
741.45	250.94
741.78	250.58
742.11	250.31
742.44	249.95
742.77	249.62
743.10	249.32
743.43	249.00
743.75	248.59
744.08	248.49
744.41	248.21
744.74	247.95
745.07	247.64
745.40	247.40
745.73	247.17
746.06	246.89
746.39	246.58
746.71	246.28
747.04	246.00
747.37	245.73
747.70	245.53
748.03	245.26
748.36	245.06
748.68	244.81
749.01	244.52
749.34	244.30
749.67	244.03
750.00	243.80
750.33	243.67
750.65	243.45
750.98	243.10
751.31	242.85
751.64	242.62
751.97	242.50
752.29	242.26
752.62	242.01
752.95	241.82
753.28	241.61
753.60	241.42
753.93	241.27
754.26	241.08
754.59	240.83
754.91	240.62
755.24	240.42
755.57	240.23
755.90	240.07
756.22	239.93
756.55	239.72
756.88	239.48
757.20	239.25
757.53	239.06
757.86	238.89
758.19	238.70
758.51	238.55
758.84	238.31
759.17	238.13
759.49	237.98
759.82	237.84
760.15	237.70
760.47	237.54
760.80	237.32
761.13	237.19
761.45	237.08
761.78	236.94
762.11	236.78
762.43	236.61
762.76	236.47
763.08	236.30
763.41	236.20
763.74	236.11
764.06	235.99
764.39	235.87
764.71	235.72
765.04	235.63
765.37	235.50
765.69	235.40
766.02	235.28
766.34	235.16
766.67	235.03
767.00	234.95
767.32	234.93
767.65	234.88
767.97	234.75
768.30	234.62
768.62	234.51
768.95	234.39
769.27	234.31
769.60	234.19
769.92	234.07
770.25	233.93
770.57	233.79
770.90	233.66
771.22	233.56
771.55	233.46
771.87	233.35
772.20	233.26
772.52	233.25
772.85	233.29
773.17	233.17
773.50	233.07
773.82	232.94
774.15	232.80
774.47	232.67
774.80	232.58
775.12	232.52
775.45	232.44
775.77	232.39
776.09	232.29
776.42	232.22
776.74	232.16
777.07	232.08
777.39	232.04
777.72	231.99
778.04	231.91
778.36	231.84
778.69	231.77
779.01	231.67
779.33	231.51
779.66	231.32
779.98	231.26
780.31	231.20
780.63	231.17
780.95	231.10
781.28	231.01
781.60	230.96
781.92	230.86
782.25	230.79
782.57	230.70
782.89	230.65
783.22	230.58
783.54	230.51
783.86	230.47
784.19	230.41
784.51	230.36
784.83	230.29
785.16	230.20
785.48	230.13
785.80	230.10
786.12	230.01
786.45	229.96
786.77	229.92
787.09	229.85
787.42	229.75
787.74	229.70
788.06	229.68
788.38	229.60
788.71	229.55
789.03	229.49
789.35	229.47
789.67	229.43
789.99	229.41
790.32	229.37
790.64	229.33
790.96	229.34
791.28	229.25
791.61	229.22
791.93	229.23
792.25	229.22
792.57	229.27
792.89	229.23
793.21	229.17
793.54	229.12
793.86	229.07
794.18	229.04
794.50	228.99
794.82	228.93
795.14	228.95
795.47	228.93
795.79	228.90
796.11	228.82
796.43	228.78
796.75	228.72
797.07	228.68
797.39	228.67
797.71	228.59
798.04	228.55
798.36	228.50
798.68	228.43
799.00	228.39
799.32	228.30
799.64	228.28
799.96	228.30
800.28	228.28
800.60	228.23
800.92	228.22
801.24	228.16
801.56	228.13
801.89	228.07
802.21	228.03
802.53	228.01
802.85	228.01
803.17	228.01
803.49	227.98
803.81	227.93
804.13	227.86
804.45	227.83
804.77	227.83
805.09	227.81
805.41	227.78
805.73	227.74
806.05	227.66
806.37	227.62
806.69	227.55
807.01	227.53
807.33	227.55
807.65	227.50
807.97	227.54
808.28	227.50
808.60	227.49
808.92	227.43
809.24	227.43
809.56	227.39
809.88	227.34
810.20	227.31
810.52	227.30
810.84	227.26
811.16	227.27
811.48	227.23
811.80	227.26
812.12	227.22
812.43	227.18
812.75	227.15
813.07	227.14
813.39	227.15
813.71	227.10
814.03	227.05
814.35	227.03
814.67	226.98
814.98	226.98
815.30	226.92
815.62	226.90
815.94	226.83
816.26	226.88
816.58	226.83
816.89	226.82
817.21	226.81
817.53	226.81
817.85	226.74
818.17	226.71
818.48	226.67
818.80	226.69
819.12	226.69
819.44	226.67
819.76	226.63
820.07	226.63
820.39	226.59
820.71	226.58
821.03	226.57
821.34	226.55
821.66	226.50
821.98	226.53
822.30	226.53
822.61	226.61
822.93	226.52
823.25	226.52
823.57	226.50
823.88	226.50
824.20	226.50
824.52	226.50
824.83	226.48
825.15	226.44
825.47	226.40
825.79	226.37
826.10	226.34
826.42	226.31
826.74	226.28
827.05	226.30
827.37	226.29
827.69	226.27
828.00	226.24
828.32	226.23
828.64	226.20
828.95	226.22
829.27	226.17
829.58	226.17
829.90	226.17
830.22	226.18
830.53	226.14
830.85	226.12
831.17	226.08
831.48	226.10
831.80	226.09
832.11	226.10
832.43	226.08
832.75	226.08
833.06	226.18
833.38	226.11
833.69	226.10
834.01	226.13
834.32	226.12
834.64	226.10
834.96	226.07
835.27	226.07
835.59	226.02
835.90	225.99
836.22	225.97
836.53	225.94
836.85	225.89
837.16	225.97
837.48	225.95
837.79	225.96
838.11	225.96
838.42	225.95
838.74	225.97
839.05	225.96
839.37	225.98
839.68	225.87
840.00	225.91
840.31	225.84
840.63	225.77
840.94	225.74
841.26	225.73
841.57	225.76
841.88	225.78
842.20	225.78
842.51	225.73
842.83	225.75
843.14	225.80
843.46	225.82
843.77	225.75
844.08	225.72
844.40	225.72
844.71	225.68
845.03	225.65
845.34	225.59
845.65	225.58
845.97	225.58
846.28	225.59
846.60	225.59
846.91	225.61
847.22	225.62
847.54	225.66
847.85	225.67
848.16	225.64
848.48	225.60
848.79	225.64
849.10	225.69
849.42	225.69
849.73	225.62
850.04	225.63
850.36	225.60
850.67	225.61
850.98	225.61
851.30	225.62
851.61	225.63
851.92	225.64
852.23	225.68
852.55	225.67
852.86	225.68
853.17	225.71
853.49	225.74
853.80	225.77
854.11	225.78
854.42	225.81
854.74	225.82
855.05	225.80
855.36	225.74
855.67	225.74
855.99	225.72
856.30	225.86
856.61	225.85
856.92	225.88
857.23	225.89
857.55	225.87
857.86	225.86
858.17	225.87
858.48	225.88
858.79	225.86
859.11	225.88
859.42	225.86
859.73	225.81
860.04	225.83
860.35	225.78
860.66	225.73
860.98	225.73
861.29	225.72
861.60	225.74
861.91	225.75
862.22	225.77
862.53	225.78
862.84	225.65
863.16	225.66
863.47	225.66
863.78	225.63
864.09	225.69
864.40	225.70
864.71	225.70
865.02	225.66
865.33	225.64
865.64	225.64
865.95	225.63
866.27	225.74
866.58	225.72
866.89	225.76
867.20	225.75
867.51	225.75
867.82	225.76
868.13	225.78
868.44	225.76
868.75	225.73
869.06	225.71
869.37	225.70
869.68	225.67
869.99	225.66
870.30	225.67
870.61	225.65
870.92	225.62
871.23	225.62
871.54	225.65
871.85	225.68
872.16	225.66
872.47	225.66
872.78	225.57
873.09	225.56
873.40	225.53
873.71	225.53
874.02	225.52
874.33	225.50
874.64	225.47
874.95	225.49
875.26	225.46
875.56	225.47
875.87	225.46
876.18	225.46
876.49	225.55
876.80	225.53
877.11	225.48
877.42	225.45
877.73	225.43
878.04	225.42
878.35	225.38
878.66	225.39
878.96	225.37
879.27	225.33
879.58	225.33
879.89	225.32
880.20	225.33
880.51	225.28
880.82	225.26
881.12	225.26
881.43	225.20
881.74	225.21
882.05	225.18
882.36	225.16
882.67	225.14
882.97	225.04
883.28	225.01
883.59	225.02
883.90	225.05
884.21	225.06
884.51	225.04
884.82	225.02
885.13	224.98
885.44	224.97
885.74	224.95
886.05	224.92
886.36	224.89
886.67	224.88
886.98	224.92
887.28	224.94
887.59	224.92
887.90	224.95
888.20	224.92
888.51	224.96
888.82	224.95
889.13	224.97
889.43	225.03
889.74	225.02
890.05	225.00
890.35	224.99
890.66	224.98
890.97	224.98
891.28	224.95
891.58	225.00
891.89	225.01
892.20	225.01
892.50	225.00
892.81	225.01
893.12	225.01
893.42	224.98
893.73	224.97
894.04	224.96
894.34	224.97
894.65	224.97
894.95	224.96
895.26	224.98
895.57	225.02
895.87	224.94
896.18	224.97
896.48	224.99
896.79	224.97
897.10	224.95
897.40	224.97
897.71	225.02
898.01	224.98
898.32	225.00
898.63	225.03
898.93	225.08
899.24	225.06
899.54	225.06
899.85	225.06
900.15	225.04
900.46	225.06
900.76	225.08
901.07	225.10
901.38	225.10
901.68	225.14
901.99	225.08
902.29	225.10
902.60	225.12
902.90	225.12
903.21	225.13
903.51	225.15
903.82	225.15
904.12	225.15
904.43	225.15
904.73	225.15
905.03	225.15
905.34	225.24
905.64	225.27
905.95	225.28
906.25	225.29
906.56	225.30
906.86	225.30
907.17	225.27
907.47	225.28
907.77	225.27
908.08	225.24
908.38	225.24
908.69	225.24
908.99	225.24
909.30	225.25
909.60	225.28
909.90	225.31
910.21	225.29
910.51	225.25
910.81	225.24
911.12	225.23
911.42	225.22
911.73	225.10
912.03	225.10
912.33	225.09
912.64	225.04
912.94	225.05
913.24	225.03
913.55	225.05
913.85	225.01
914.15	225.03
914.46	225.02
914.76	225.04
915.06	225.02
915.37	225.01
915.67	224.99
915.97	224.97
916.27	224.93
916.58	224.95
916.88	224.96
917.18	224.98
917.49	225.04
917.79	225.03
918.09	225.03
918.39	225.06
918.70	225.07
919.00	225.06
919.30	225.11
919.60	225.11
919.91	225.05
920.21	225.07
920.51	225.02
920.81	225.01
921.12	225.03
921.42	225.04
921.72	225.01
922.02	225.01
922.32	225.03
922.63	225.00
922.93	225.05
923.23	225.06
923.53	225.02
923.83	224.97
924.13	224.99
924.44	225.01
924.74	224.99
925.04	225.04
925.34	225.05
925.64	225.01
925.94	224.99
926.24	225.03
926.55	225.00
926.85	225.00
927.15	225.02
927.45	225.01
927.75	224.99
928.05	225.02
928.35	224.99
928.65	224.99
928.95	225.01
929.26	224.96
929.56	224.96
929.86	224.98
930.16	224.96
930.46	224.95
930.76	224.95
931.06	224.90
931.36	224.84
931.66	224.86
931.96	224.85
932.26	224.86
932.56	224.85
932.86	224.88
933.16	224.89
933.46	224.86
933.76	224.82
934.06	224.87
934.36	224.92
934.66	224.92
934.96	224.89
935.26	224.90
935.56	224.91
935.86	224.89
936.16	224.87
936.46	224.85
936.76	224.83
937.06	224.82
937.36	224.85
937.66	224.88
937.96	224.86
938.26	224.84
938.56	224.85
938.86	224.87
939.16	224.89
939.46	224.89
939.76	224.89
940.06	224.91
940.35	224.86
940.65	224.77
940.95	224.79
941.25	224.79
941.55	224.80
941.85	224.83
942.15	224.82
942.45	224.84
942.75	224.89
943.04	224.93
943.34	224.93
943.64	224.93
943.94	224.88
944.24	224.93
944.54	224.97
944.84	224.95
945.13	224.92
945.43	224.89
945.73	224.90
946.03	224.89
946.33	224.89
946.62	224.90
946.92	224.92
947.22	224.92
947.52	224.90
947.82	224.87
948.11	224.85
948.41	224.85
948.71	224.80
949.01	224.76
949.31	224.73
949.60	224.72
949.90	224.71
950.20	224.71
950.50	224.67
950.79	224.63
951.09	224.66
951.39	224.65
951.69	224.64
951.98	224.63
952.28	224.63
952.58	224.62
952.87	224.61
953.17	224.65
953.47	224.62
953.76	224.62
954.06	224.64
954.36	224.59
954.66	224.59
954.95	224.64
955.25	224.66
955.55	224.68
955.84	224.67
956.14	224.68
956.44	224.70
956.73	224.70
957.03	224.71
957.32	224.72
957.62	224.73
957.92	224.75
958.21	224.76
958.51	224.88
958.81	224.91
959.10	224.92
959.40	224.92
959.69	224.92
959.99	224.95
960.29	224.97
960.58	224.98
960.88	225.02
961.17	225.00
961.47	225.02
961.76	224.97
962.06	224.99
962.36	225.00
962.65	225.01
962.95	224.99
963.24	224.99
963.54	224.96
963.83	224.99
964.13	225.00
964.42	224.95
964.72	224.88
965.01	224.86
965.31	224.84
965.60	224.82
965.90	224.88
966.19	224.86
966.49	224.84
966.78	224.84
967.08	224.81
967.37	224.82
967.67	224.79
967.96	224.83
968.26	224.81
968.55	224.81
968.85	224.77
969.14	224.79
969.43	224.79
969.73	224.80
970.02	224.78
970.32	224.76
970.61	224.79
970.91	224.78
971.20	224.78
971.49	224.76
971.79	224.77
972.08	224.71
972.38	224.71
972.67	224.70
972.96	224.72
973.26	224.74
973.55	224.78
973.85	224.79
974.14	224.80
974.43	224.79
974.73	224.79
975.02	224.82
975.31	224.82
975.61	224.82
975.90	224.83
976.19	224.85
976.49	224.83
976.78	224.82
977.07	224.82
977.37	224.80
977.66	224.80
977.95	224.80
978.24	224.82
978.54	224.84
978.83	224.85
979.12	224.86
979.42	224.83
979.71	224.82
980.00	224.85
980.29	224.86
980.59	224.84
980.88	224.86
981.17	224.83
981.46	224.81
981.76	224.81
982.05	224.81
982.34	224.80
982.63	224.81
982.93	224.83
983.22	224.84
983.51	224.88
983.80	224.92
984.09	224.95
984.39	224.94
984.68	224.95
984.97	224.95
985.26	224.90
985.55	224.93
985.85	224.90
986.14	224.90
986.43	224.89
986.72	224.88
987.01	224.82
987.30	224.85
987.59	224.85
987.89	224.87
988.18	224.88
988.47	224.85
988.76	224.84
989.05	224.80
989.34	224.78
989.63	224.76
989.92	224.71
990.22	224.68
990.51	224.70
990.80	224.68
991.09	224.66
991.38	224.65
991.67	224.61
991.96	224.57
992.25	224.54
992.54	224.52
992.83	224.54
993.12	224.57
993.41	224.53
993.70	224.54
993.99	224.54
994.28	224.51
994.58	224.54
994.87	224.55
995.16	224.57
995.45	224.56
995.74	224.52
996.03	224.54
996.32	224.56
996.61	224.57
996.90	224.56
997.19	224.57
997.48	224.58
997.77	224.58
998.06	224.60
998.34	224.60
998.63	224.58
998.92	224.59
999.21	224.59
999.50	224.62
999.79	224.61
1000.08	224.61
1000.37	224.61
1000.66	224.59
1000.95	224.62
1001.24	224.63
1001.53	224.64
1001.82	224.67
1002.11	224.66
1002.40	224.67
1002.68	224.66
1002.97	224.71
1003.26	224.73
1003.55	224.73
1003.84	224.74
1004.13	224.76
1004.42	224.77
1004.71	224.80
1004.99	224.79
1005.28	224.82
1005.57	224.79
1005.86	224.78
1006.15	224.78
1006.44	224.80
1006.72	224.81
1007.01	224.80
1007.30	224.79
1007.59	224.78
1007.88	224.75
1008.17	224.74
1008.45	224.70
1008.74	224.66
1009.03	224.65
1009.32	224.63
1009.60	224.65
1009.89	224.65
1010.18	224.63
1010.47	224.65
1010.76	224.64
1011.04	224.64
1011.33	224.63
1011.62	224.63
1011.91	224.64
1012.19	224.67
1012.48	224.64
1012.77	224.62
1013.05	224.66
1013.34	224.69
1013.63	224.69
1013.92	224.72
1014.20	224.74
1014.49	224.74
1014.78	224.78
1015.06	224.75
1015.35	224.77
1015.64	224.78
1015.92	224.80
1016.21	224.81
1016.50	224.78
1016.78	224.81
1017.07	224.83
1017.36	224.80
1017.64	224.81
1017.93	224.85
1018.22	224.84
1018.50	224.84
1018.79	224.86
1019.08	224.84
1019.36	224.84
1019.65	224.83
1019.93	224.87
1020.22	224.87
1020.51	224.93
1020.79	224.94
1021.08	225.05
1021.36	224.66
1021.65	224.86
1021.94	225.04
1022.22	225.11
1022.51	224.64
1022.79	225.54
1023.08	224.63
1023.36	226.15
1023.65	225.02
>>>>>End Processed Spectral Data<<<<<
