SpectraSuite Data File
++++++++++++++++++++++++++++++++++++
Date: Fri Feb 01 16:18:08 EST 2013
User: group
Dark Spectrum Present: No
Reference Spectrum Present: No
Number of Sampled Component Spectra: 1
Spectrometers: USB2E7196
Integration Time (usec): 35000 (USB2E7196)
Spectra Averaged: 100 (USB2E7196)
Boxcar Smoothing: 10 (USB2E7196)
Correct for Electrical Dark: No (USB2E7196)
Strobe/Lamp Enabled: No (USB2E7196)
Correct for Detector Non-linearity: No (USB2E7196)
Correct for Stray Light: No (USB2E7196)
Number of Pixels in Processed Spectrum: 2048
>>>>>Begin Processed Spectral Data<<<<<
339.09	0.00
339.48	214.05
339.86	215.33
340.24	216.58
340.63	218.13
341.01	221.11
341.39	220.92
341.78	222.25
342.16	224.05
342.54	224.13
342.93	212.44
343.31	223.20
343.69	223.75
344.07	224.24
344.46	224.70
344.84	225.11
345.22	225.36
345.60	225.61
345.99	225.82
346.37	225.89
346.75	226.02
347.13	226.07
347.52	226.14
347.90	226.22
348.28	226.25
348.66	226.29
349.05	226.30
349.43	226.32
349.81	226.42
350.19	226.44
350.57	226.50
350.96	226.58
351.34	226.64
351.72	226.72
352.10	226.77
352.48	226.81
352.87	226.84
353.25	226.90
353.63	226.97
354.01	227.03
354.39	227.16
354.77	227.23
355.15	227.34
355.54	227.40
355.92	227.45
356.30	227.58
356.68	227.72
357.06	227.78
357.44	227.86
357.82	227.89
358.20	227.98
358.58	228.01
358.97	228.09
359.35	228.16
359.73	228.22
360.11	228.29
360.49	228.35
360.87	228.40
361.25	228.45
361.63	228.50
362.01	228.53
362.39	228.54
362.77	228.55
363.15	228.56
363.53	228.56
363.91	228.57
364.29	228.56
364.67	228.47
365.05	228.51
365.43	228.52
365.81	228.53
366.19	228.50
366.57	228.55
366.95	228.51
367.33	228.47
367.71	228.45
368.09	228.46
368.47	228.45
368.85	228.43
369.23	228.39
369.61	228.34
369.99	228.32
370.37	228.29
370.75	228.30
371.13	228.24
371.51	228.19
371.89	228.13
372.27	228.07
372.65	228.04
373.03	227.98
373.41	227.91
373.78	227.81
374.16	227.73
374.54	227.64
374.92	227.57
375.30	227.53
375.68	227.44
376.06	227.39
376.44	227.30
376.82	227.28
377.19	227.21
377.57	227.13
377.95	227.03
378.33	226.92
378.71	226.78
379.09	226.73
379.47	226.67
379.84	226.62
380.22	226.51
380.60	226.45
380.98	226.37
381.36	226.34
381.73	226.26
382.11	226.24
382.49	226.17
382.87	226.10
383.25	226.05
383.62	226.10
384.00	226.01
384.38	225.96
384.76	225.89
385.13	225.93
385.51	225.93
385.89	225.88
386.27	225.87
386.64	225.84
387.02	225.81
387.40	225.80
387.78	225.76
388.15	225.74
388.53	225.68
388.91	225.67
389.29	225.62
389.66	225.64
390.04	225.59
390.42	225.60
390.79	225.58
391.17	225.57
391.55	225.46
391.92	225.48
392.30	225.50
392.68	225.46
393.05	225.44
393.43	225.43
393.81	225.45
394.18	225.43
394.56	225.47
394.94	225.52
395.31	225.52
395.69	225.56
396.06	225.62
396.44	225.65
396.82	225.67
397.19	225.74
397.57	225.77
397.95	225.85
398.32	225.86
398.70	225.94
399.07	226.01
399.45	226.08
399.82	226.11
400.20	226.16
400.58	226.27
400.95	226.30
401.33	226.39
401.70	226.55
402.08	226.67
402.45	226.76
402.83	226.86
403.20	226.99
403.58	227.12
403.95	227.26
404.33	227.43
404.71	227.53
405.08	227.72
405.46	227.86
405.83	228.00
406.21	228.14
406.58	228.34
406.96	228.48
407.33	228.66
407.70	228.87
408.08	229.12
408.45	229.30
408.83	229.52
409.20	229.74
409.58	229.89
409.95	230.15
410.33	230.39
410.70	230.62
411.08	230.87
411.45	231.13
411.82	231.39
412.20	231.73
412.57	232.15
412.95	232.39
413.32	232.78
413.69	233.19
414.07	233.63
414.44	234.06
414.82	234.51
415.19	235.03
415.56	235.58
415.94	236.11
416.31	236.76
416.68	237.38
417.06	238.08
417.43	238.75
417.81	239.52
418.18	240.34
418.55	241.20
418.93	242.08
419.30	242.96
419.67	243.93
420.04	244.89
420.42	245.87
420.79	247.07
421.16	248.22
421.54	249.41
421.91	250.59
422.28	251.85
422.66	253.22
423.03	254.53
423.40	255.84
423.77	257.24
424.15	258.65
424.52	260.14
424.89	261.76
425.26	263.33
425.64	264.76
426.01	266.32
426.38	267.96
426.75	269.60
427.13	271.35
427.50	273.15
427.87	274.99
428.24	276.83
428.61	278.58
428.99	280.54
429.36	282.64
429.73	284.73
430.10	286.74
430.47	288.75
430.85	290.88
431.22	293.12
431.59	295.53
431.96	297.78
432.33	300.24
432.70	302.61
433.08	305.42
433.45	308.06
433.82	310.63
434.19	313.49
434.56	316.35
434.93	318.98
435.30	321.55
435.68	324.50
436.05	327.36
436.42	330.14
436.79	332.63
437.16	335.31
437.53	338.16
437.90	340.99
438.27	343.76
438.64	346.62
439.01	349.19
439.38	351.43
439.75	353.63
440.13	356.18
440.50	358.53
440.87	360.34
441.24	362.25
441.61	364.49
441.98	365.97
442.35	367.74
442.72	369.60
443.09	371.46
443.46	372.41
443.83	372.97
444.20	373.51
444.57	374.36
444.94	374.66
445.31	375.01
445.68	375.36
446.05	375.40
446.42	375.00
446.79	374.61
447.16	374.12
447.53	373.74
447.90	372.55
448.27	371.39
448.64	369.79
449.01	368.67
449.37	366.64
449.74	364.77
450.11	362.52
450.48	360.04
450.85	357.50
451.22	355.40
451.59	353.42
451.96	351.49
452.33	348.92
452.70	346.55
453.07	343.69
453.43	340.77
453.80	338.02
454.17	335.35
454.54	332.79
454.91	330.07
455.28	327.42
455.65	324.96
456.02	322.49
456.38	320.39
456.75	317.76
457.12	315.54
457.49	313.28
457.86	311.14
458.23	309.31
458.59	307.24
458.96	305.15
459.33	303.26
459.70	301.34
460.07	299.83
460.43	298.12
460.80	296.50
461.17	295.04
461.54	293.55
461.91	292.14
462.27	290.70
462.64	289.47
463.01	288.13
463.38	286.82
463.74	285.47
464.11	284.30
464.48	283.26
464.85	282.11
465.21	281.30
465.58	280.40
465.95	279.31
466.32	278.42
466.68	277.49
467.05	276.61
467.42	275.73
467.78	274.79
468.15	273.92
468.52	273.27
468.88	272.42
469.25	271.65
469.62	271.01
469.98	270.35
470.35	269.74
470.72	269.13
471.08	268.51
471.45	267.98
471.82	267.45
472.18	266.86
472.55	266.46
472.92	265.93
473.28	265.47
473.65	265.01
474.02	264.56
474.38	264.25
474.75	263.93
475.11	263.62
475.48	263.38
475.85	263.16
476.21	262.94
476.58	262.80
476.94	262.65
477.31	262.48
477.67	262.33
478.04	262.23
478.41	262.17
478.77	262.22
479.14	262.15
479.50	262.15
479.87	262.22
480.23	262.31
480.60	262.43
480.96	262.48
481.33	262.73
481.69	262.94
482.06	263.11
482.42	263.32
482.79	263.58
483.15	263.86
483.52	264.24
483.88	264.55
484.25	264.96
484.61	265.41
484.98	265.87
485.34	266.46
485.71	267.05
486.07	267.68
486.44	268.23
486.80	268.92
487.17	269.69
487.53	270.51
487.90	271.33
488.26	272.23
488.62	273.28
488.99	274.24
489.35	275.28
489.72	276.41
490.08	277.60
490.44	278.85
490.81	280.21
491.17	281.56
491.54	283.07
491.90	284.61
492.26	286.26
492.63	288.02
492.99	289.78
493.36	291.68
493.72	293.71
494.08	295.80
494.45	298.09
494.81	300.43
495.17	302.88
495.54	305.46
495.90	308.15
496.26	310.93
496.63	313.87
496.99	317.01
497.35	320.23
497.72	323.63
498.08	327.16
498.44	330.83
498.80	334.80
499.17	338.85
499.53	343.02
499.89	347.39
500.26	351.86
500.62	356.56
500.98	361.55
501.34	366.58
501.71	371.94
502.07	377.37
502.43	382.98
502.79	388.77
503.16	394.86
503.52	401.10
503.88	407.52
504.24	414.18
504.60	421.08
504.97	428.21
505.33	435.58
505.69	443.33
506.05	451.12
506.41	458.95
506.78	467.11
507.14	475.56
507.50	484.32
507.86	493.36
508.22	502.51
508.59	511.69
508.95	521.33
509.31	531.17
509.67	541.30
510.03	551.66
510.39	562.21
510.75	573.07
511.12	584.03
511.48	595.34
511.84	606.84
512.20	618.34
512.56	630.26
512.92	642.49
513.28	654.86
513.64	667.29
514.00	680.06
514.37	692.98
514.73	706.06
515.09	719.07
515.45	732.30
515.81	745.95
516.17	759.90
516.53	774.08
516.89	788.21
517.25	802.38
517.61	816.77
517.97	831.25
518.33	845.66
518.69	860.40
519.05	875.35
519.41	890.50
519.77	906.04
520.13	921.62
520.49	936.89
520.85	952.21
521.21	968.03
521.57	984.30
521.93	1000.01
522.29	1016.38
522.65	1032.57
523.01	1048.82
523.37	1064.84
523.73	1081.02
524.09	1097.05
524.45	1113.37
524.81	1129.93
525.17	1146.66
525.53	1163.52
525.89	1180.35
526.25	1197.28
526.61	1213.69
526.97	1230.31
527.33	1246.71
527.68	1263.13
528.04	1279.65
528.40	1296.19
528.76	1313.14
529.12	1329.59
529.48	1346.57
529.84	1362.45
530.20	1379.01
530.56	1395.96
530.91	1413.37
531.27	1430.07
531.63	1446.50
531.99	1463.02
532.35	1478.86
532.71	1494.72
533.07	1510.98
533.42	1526.84
533.78	1542.79
534.14	1558.98
534.50	1574.42
534.86	1590.22
535.21	1605.47
535.57	1621.25
535.93	1636.80
536.29	1651.44
536.65	1666.47
537.00	1681.14
537.36	1696.49
537.72	1711.11
538.08	1725.47
538.44	1739.13
538.79	1752.93
539.15	1766.48
539.51	1780.18
539.87	1794.54
540.22	1808.27
540.58	1821.83
540.94	1835.11
541.29	1847.87
541.65	1860.40
542.01	1873.40
542.37	1885.72
542.72	1897.97
543.08	1909.75
543.44	1922.10
543.79	1933.40
544.15	1944.23
544.51	1955.73
544.87	1966.66
545.22	1977.35
545.58	1987.60
545.94	1997.37
546.29	2007.22
546.65	2017.00
547.01	2026.18
547.36	2034.78
547.72	2043.20
548.07	2051.18
548.43	2059.28
548.79	2067.35
549.14	2075.10
549.50	2082.47
549.86	2090.09
550.21	2097.46
550.57	2104.61
550.92	2111.10
551.28	2118.10
551.64	2125.23
551.99	2131.64
552.35	2137.80
552.70	2143.84
553.06	2149.66
553.41	2155.94
553.77	2161.95
554.13	2168.07
554.48	2174.21
554.84	2179.81
555.19	2184.93
555.55	2189.89
555.90	2194.36
556.26	2199.15
556.61	2203.72
556.97	2207.97
557.32	2212.15
557.68	2216.23
558.03	2220.56
558.39	2224.22
558.74	2228.78
559.10	2232.68
559.45	2236.62
559.81	2240.78
560.16	2244.77
560.52	2248.18
560.87	2251.48
561.23	2254.18
561.58	2257.10
561.94	2259.57
562.29	2261.88
562.64	2264.73
563.00	2267.54
563.35	2271.07
563.71	2274.32
564.06	2277.69
564.42	2280.63
564.77	2283.10
565.12	2285.41
565.48	2287.33
565.83	2289.18
566.19	2290.57
566.54	2291.47
566.89	2292.52
567.25	2293.29
567.60	2294.50
567.96	2296.21
568.31	2297.18
568.66	2298.37
569.02	2298.97
569.37	2299.52
569.72	2300.35
570.08	2300.30
570.43	2300.31
570.78	2299.72
571.14	2298.27
571.49	2296.76
571.84	2296.54
572.20	2295.57
572.55	2294.64
572.90	2292.99
573.26	2291.63
573.61	2289.99
573.96	2288.28
574.31	2285.33
574.67	2282.41
575.02	2278.90
575.37	2275.57
575.72	2271.77
576.08	2268.35
576.43	2265.08
576.78	2261.35
577.13	2258.29
577.49	2255.45
577.84	2251.94
578.19	2248.25
578.54	2244.49
578.90	2240.42
579.25	2234.82
579.60	2229.91
579.95	2224.85
580.30	2220.03
580.66	2214.83
581.01	2209.99
581.36	2205.17
581.71	2200.99
582.06	2196.51
582.42	2192.07
582.77	2186.89
583.12	2182.42
583.47	2177.78
583.82	2172.95
584.17	2167.73
584.53	2162.34
584.88	2156.68
585.23	2150.87
585.58	2145.52
585.93	2140.07
586.28	2135.40
586.63	2130.37
586.98	2125.39
587.34	2120.74
587.69	2115.86
588.04	2110.76
588.39	2105.19
588.74	2098.81
589.09	2092.64
589.44	2085.77
589.79	2079.79
590.14	2074.06
590.49	2067.58
590.84	2061.20
591.19	2055.04
591.54	2048.61
591.89	2041.18
592.25	2034.50
592.60	2027.41
592.95	2019.87
593.30	2012.58
593.65	2004.79
594.00	1997.82
594.35	1990.55
594.70	1982.56
595.05	1975.42
595.40	1968.30
595.75	1960.68
596.10	1954.34
596.45	1947.64
596.80	1941.67
597.15	1935.13
597.50	1928.22
597.85	1921.75
598.19	1915.15
598.54	1908.16
598.89	1901.53
599.24	1895.75
599.59	1889.04
599.94	1882.92
600.29	1876.56
600.64	1870.08
600.99	1862.80
601.34	1855.99
601.69	1848.96
602.04	1842.22
602.39	1834.88
602.74	1827.95
603.08	1821.27
603.43	1814.69
603.78	1807.44
604.13	1800.23
604.48	1792.82
604.83	1785.85
605.18	1778.93
605.53	1771.04
605.87	1763.05
606.22	1755.83
606.57	1747.90
606.92	1740.66
607.27	1733.48
607.62	1726.54
607.96	1719.26
608.31	1712.66
608.66	1705.10
609.01	1697.49
609.36	1689.81
609.70	1681.69
610.05	1673.55
610.40	1665.82
610.75	1657.44
611.10	1649.76
611.44	1641.33
611.79	1633.37
612.14	1624.71
612.49	1615.53
612.83	1607.17
613.18	1598.98
613.53	1590.76
613.88	1582.11
614.22	1573.71
614.57	1565.08
614.92	1557.12
615.27	1549.54
615.61	1541.12
615.96	1533.03
616.31	1525.57
616.65	1518.21
617.00	1510.72
617.35	1503.14
617.70	1494.86
618.04	1486.41
618.39	1478.15
618.74	1470.45
619.08	1462.21
619.43	1454.64
619.78	1447.64
620.12	1440.40
620.47	1432.87
620.82	1424.81
621.16	1417.47
621.51	1410.00
621.85	1402.35
622.20	1393.82
622.55	1385.46
622.89	1377.70
623.24	1370.05
623.59	1362.48
623.93	1354.91
624.28	1347.75
624.62	1340.20
624.97	1332.96
625.32	1326.23
625.66	1319.20
626.01	1312.14
626.35	1304.65
626.70	1296.94
627.04	1289.27
627.39	1281.45
627.73	1274.07
628.08	1267.17
628.43	1259.81
628.77	1252.28
629.12	1244.79
629.46	1237.69
629.81	1230.23
630.15	1222.83
630.50	1215.42
630.84	1207.28
631.19	1199.36
631.53	1191.70
631.88	1184.08
632.22	1176.45
632.57	1169.01
632.91	1161.50
633.26	1154.03
633.60	1146.64
633.95	1139.44
634.29	1132.37
634.64	1125.71
634.98	1118.29
635.32	1111.06
635.67	1104.42
636.01	1097.78
636.36	1090.83
636.70	1084.13
637.05	1077.55
637.39	1071.21
637.73	1064.66
638.08	1058.76
638.42	1052.72
638.77	1046.32
639.11	1039.74
639.45	1033.35
639.80	1026.61
640.14	1020.14
640.49	1013.59
640.83	1007.26
641.17	1001.00
641.52	994.68
641.86	988.18
642.20	982.35
642.55	976.08
642.89	969.61
643.23	963.09
643.58	957.35
643.92	951.10
644.26	945.05
644.61	938.94
644.95	932.90
645.29	926.24
645.64	919.47
645.98	913.14
646.32	907.35
646.66	901.22
647.01	895.48
647.35	889.73
647.69	883.79
648.04	878.23
648.38	872.44
648.72	866.51
649.06	860.44
649.41	854.58
649.75	848.61
650.09	842.62
650.43	836.79
650.78	830.63
651.12	824.68
651.46	818.95
651.80	813.29
652.14	807.89
652.49	802.57
652.83	797.46
653.17	791.71
653.51	785.92
653.85	780.59
654.20	774.96
654.54	768.94
654.88	763.21
655.22	757.34
655.56	751.65
655.90	746.09
656.25	740.84
656.59	735.40
656.93	730.36
657.27	725.28
657.61	719.84
657.95	714.79
658.29	709.70
658.64	704.49
658.98	699.12
659.32	693.64
659.66	688.46
660.00	683.06
660.34	678.11
660.68	673.20
661.02	668.12
661.36	663.41
661.70	658.91
662.05	654.57
662.39	650.22
662.73	645.78
663.07	641.38
663.41	636.95
663.75	632.45
664.09	627.81
664.43	623.43
664.77	619.37
665.11	615.13
665.45	611.04
665.79	606.90
666.13	602.74
666.47	598.62
666.81	594.41
667.15	590.31
667.49	586.43
667.83	582.59
668.17	578.70
668.51	574.60
668.85	570.60
669.19	566.75
669.53	562.95
669.87	559.03
670.21	555.32
670.55	551.71
670.89	548.27
671.23	544.84
671.57	541.26
671.91	537.70
672.25	534.17
672.58	530.68
672.92	527.25
673.26	524.09
673.60	520.96
673.94	517.80
674.28	514.89
674.62	511.94
674.96	508.88
675.30	505.93
675.64	502.98
675.97	500.18
676.31	497.34
676.65	494.39
676.99	491.66
677.33	488.77
677.67	485.90
678.01	482.91
678.34	479.91
678.68	477.11
679.02	474.27
679.36	471.47
679.70	468.74
680.04	465.99
680.37	463.14
680.71	460.33
681.05	457.72
681.39	454.99
681.73	452.32
682.06	449.78
682.40	447.25
682.74	444.72
683.08	442.13
683.42	439.50
683.75	436.98
684.09	434.45
684.43	431.94
684.77	429.48
685.10	427.09
685.44	424.73
685.78	422.39
686.12	420.16
686.45	417.88
686.79	415.56
687.13	413.35
687.46	411.16
687.80	409.00
688.14	406.80
688.48	404.76
688.81	402.51
689.15	400.33
689.49	398.15
689.82	396.12
690.16	394.07
690.50	392.12
690.83	390.20
691.17	388.21
691.51	386.35
691.84	384.52
692.18	382.59
692.52	380.64
692.85	378.70
693.19	376.81
693.52	374.93
693.86	373.06
694.20	371.29
694.53	369.50
694.87	367.64
695.21	365.90
695.54	364.04
695.88	362.32
696.21	360.65
696.55	358.99
696.88	357.27
697.22	355.63
697.56	353.99
697.89	352.32
698.23	350.73
698.56	349.12
698.90	347.52
699.23	345.88
699.57	344.35
699.90	342.84
700.24	341.34
700.58	339.87
700.91	338.45
701.25	337.00
701.58	335.66
701.92	334.33
702.25	332.91
702.59	331.57
702.92	330.25
703.26	328.94
703.59	327.64
703.93	326.48
704.26	325.21
704.60	323.91
704.93	322.65
705.26	321.39
705.60	320.22
705.93	318.99
706.27	317.92
706.60	316.86
706.94	315.77
707.27	314.55
707.61	313.45
707.94	312.38
708.27	311.27
708.61	310.14
708.94	309.11
709.28	308.14
709.61	307.21
709.94	306.23
710.28	305.14
710.61	304.16
710.95	303.08
711.28	302.19
711.61	301.26
711.95	300.31
712.28	299.34
712.61	298.38
712.95	297.49
713.28	296.62
713.61	295.70
713.95	294.81
714.28	293.99
714.61	293.12
714.95	292.30
715.28	291.43
715.61	290.58
715.95	289.71
716.28	288.83
716.61	287.93
716.95	287.13
717.28	286.37
717.61	285.60
717.94	284.84
718.28	283.98
718.61	283.26
718.94	282.56
719.27	281.93
719.61	281.28
719.94	280.64
720.27	279.90
720.60	279.23
720.94	278.58
721.27	277.98
721.60	277.39
721.93	276.76
722.27	276.24
722.60	275.69
722.93	275.12
723.26	274.58
723.59	274.02
723.93	273.45
724.26	272.91
724.59	272.36
724.92	271.86
725.25	271.38
725.59	270.80
725.92	270.30
726.25	269.76
726.58	269.24
726.91	268.74
727.24	268.28
727.57	267.80
727.91	267.29
728.24	266.80
728.57	266.33
728.90	265.89
729.23	265.36
729.56	264.92
729.89	264.44
730.22	263.96
730.55	263.50
730.89	263.06
731.22	262.63
731.55	262.17
731.88	261.74
732.21	261.31
732.54	260.91
732.87	260.46
733.20	260.07
733.53	259.69
733.86	259.30
734.19	258.91
734.52	258.57
734.85	258.28
735.18	257.88
735.51	257.53
735.84	257.17
736.17	256.88
736.50	256.50
736.83	256.28
737.16	255.95
737.49	255.67
737.82	255.32
738.15	255.02
738.48	254.73
738.81	254.40
739.14	254.08
739.47	253.76
739.80	253.48
740.13	253.20
740.46	252.91
740.79	252.59
741.12	252.31
741.45	251.98
741.78	251.60
742.11	251.34
742.44	250.98
742.77	250.72
743.10	250.36
743.43	250.06
743.75	249.69
744.08	249.56
744.41	249.24
744.74	249.00
745.07	248.70
745.40	248.43
745.73	248.20
746.06	247.94
746.39	247.69
746.71	247.43
747.04	247.12
747.37	246.80
747.70	246.55
748.03	246.29
748.36	246.07
748.68	245.87
749.01	245.61
749.34	245.41
749.67	245.15
750.00	244.94
750.33	244.77
750.65	244.55
750.98	244.24
751.31	244.02
751.64	243.81
751.97	243.59
752.29	243.39
752.62	243.09
752.95	242.87
753.28	242.67
753.60	242.44
753.93	242.28
754.26	242.10
754.59	241.88
754.91	241.65
755.24	241.44
755.57	241.20
755.90	241.00
756.22	240.77
756.55	240.55
756.88	240.37
757.20	240.13
757.53	239.89
757.86	239.65
758.19	239.47
758.51	239.27
758.84	239.08
759.17	238.89
759.49	238.75
759.82	238.60
760.15	238.44
760.47	238.30
760.80	238.11
761.13	237.98
761.45	237.79
761.78	237.62
762.11	237.49
762.43	237.36
762.76	237.21
763.08	237.09
763.41	236.96
763.74	236.84
764.06	236.72
764.39	236.62
764.71	236.51
765.04	236.40
765.37	236.27
765.69	236.15
766.02	236.04
766.34	235.91
766.67	235.77
767.00	235.67
767.32	235.60
767.65	235.55
767.97	235.40
768.30	235.32
768.62	235.25
768.95	235.09
769.27	234.96
769.60	234.87
769.92	234.76
770.25	234.62
770.57	234.46
770.90	234.34
771.22	234.23
771.55	234.12
771.87	234.02
772.20	233.94
772.52	233.95
772.85	233.97
773.17	233.87
773.50	233.79
773.82	233.70
774.15	233.56
774.47	233.42
774.80	233.36
775.12	233.28
775.45	233.20
775.77	233.12
776.09	233.05
776.42	232.97
776.74	232.93
777.07	232.87
777.39	232.85
777.72	232.78
778.04	232.72
778.36	232.65
778.69	232.59
779.01	232.50
779.33	232.37
779.66	232.20
779.98	232.14
780.31	232.05
780.63	231.99
780.95	231.95
781.28	231.88
781.60	231.81
781.92	231.77
782.25	231.69
782.57	231.65
782.89	231.61
783.22	231.55
783.54	231.46
783.86	231.42
784.19	231.32
784.51	231.31
784.83	231.26
785.16	231.21
785.48	231.16
785.80	231.13
786.12	231.08
786.45	231.02
786.77	230.99
787.09	230.94
787.42	230.90
787.74	230.87
788.06	230.83
788.38	230.77
788.71	230.70
789.03	230.69
789.35	230.66
789.67	230.60
789.99	230.58
790.32	230.54
790.64	230.51
790.96	230.56
791.28	230.49
791.61	230.43
791.93	230.39
792.25	230.35
792.57	230.37
792.89	230.28
793.21	230.26
793.54	230.23
793.86	230.20
794.18	230.18
794.50	230.11
794.82	230.06
795.14	230.03
795.47	230.01
795.79	229.98
796.11	229.90
796.43	229.89
796.75	229.83
797.07	229.79
797.39	229.73
797.71	229.62
798.04	229.58
798.36	229.55
798.68	229.52
799.00	229.48
799.32	229.37
799.64	229.35
799.96	229.33
800.28	229.30
800.60	229.22
800.92	229.17
801.24	229.15
801.56	229.14
801.89	229.06
802.21	229.05
802.53	228.99
802.85	229.01
803.17	229.03
803.49	229.01
803.81	228.99
804.13	228.98
804.45	228.91
804.77	228.88
805.09	228.82
805.41	228.77
805.73	228.73
806.05	228.69
806.37	228.65
806.69	228.60
807.01	228.54
807.33	228.53
807.65	228.45
807.97	228.45
808.28	228.37
808.60	228.36
808.92	228.31
809.24	228.31
809.56	228.22
809.88	228.13
810.20	228.08
810.52	228.04
810.84	227.96
811.16	227.95
811.48	227.91
811.80	227.95
812.12	227.91
812.43	227.92
812.75	227.92
813.07	227.88
813.39	227.86
813.71	227.82
814.03	227.83
814.35	227.85
814.67	227.81
814.98	227.80
815.30	227.80
815.62	227.75
815.94	227.66
816.26	227.69
816.58	227.65
816.89	227.63
817.21	227.61
817.53	227.63
817.85	227.62
818.17	227.61
818.48	227.53
818.80	227.54
819.12	227.50
819.44	227.44
819.76	227.43
820.07	227.42
820.39	227.43
820.71	227.39
821.03	227.39
821.34	227.35
821.66	227.35
821.98	227.35
822.30	227.31
822.61	227.39
822.93	227.35
823.25	227.35
823.57	227.33
823.88	227.35
824.20	227.33
824.52	227.30
824.83	227.32
825.15	227.33
825.47	227.29
825.79	227.28
826.10	227.26
826.42	227.25
826.74	227.24
827.05	227.19
827.37	227.20
827.69	227.14
828.00	227.15
828.32	227.14
828.64	227.10
828.95	227.20
829.27	227.18
829.58	227.15
829.90	227.21
830.22	227.24
830.53	227.19
830.85	227.19
831.17	227.20
831.48	227.17
831.80	227.18
832.11	227.18
832.43	227.16
832.75	227.18
833.06	227.22
833.38	227.20
833.69	227.21
834.01	227.21
834.32	227.27
834.64	227.25
834.96	227.26
835.27	227.25
835.59	227.17
835.90	227.17
836.22	227.16
836.53	227.07
836.85	227.05
837.16	227.14
837.48	227.14
837.79	227.15
838.11	227.13
838.42	227.11
838.74	227.15
839.05	227.18
839.37	227.16
839.68	227.12
840.00	227.09
840.31	227.12
840.63	227.10
840.94	227.04
841.26	227.02
841.57	227.01
841.88	227.02
842.20	227.01
842.51	226.96
842.83	226.99
843.14	227.11
843.46	227.07
843.77	226.99
844.08	226.97
844.40	226.95
844.71	226.92
845.03	226.90
845.34	226.87
845.65	226.81
845.97	226.84
846.28	226.82
846.60	226.85
846.91	226.81
847.22	226.79
847.54	226.80
847.85	226.80
848.16	226.78
848.48	226.77
848.79	226.81
849.10	226.82
849.42	226.82
849.73	226.70
850.04	226.71
850.36	226.67
850.67	226.67
850.98	226.67
851.30	226.71
851.61	226.71
851.92	226.68
852.23	226.72
852.55	226.69
852.86	226.69
853.17	226.67
853.49	226.68
853.80	226.70
854.11	226.70
854.42	226.72
854.74	226.72
855.05	226.72
855.36	226.68
855.67	226.69
855.99	226.64
856.30	226.77
856.61	226.75
856.92	226.79
857.23	226.78
857.55	226.77
857.86	226.76
858.17	226.76
858.48	226.76
858.79	226.71
859.11	226.73
859.42	226.73
859.73	226.73
860.04	226.73
860.35	226.75
860.66	226.70
860.98	226.72
861.29	226.72
861.60	226.71
861.91	226.72
862.22	226.67
862.53	226.68
862.84	226.56
863.16	226.58
863.47	226.57
863.78	226.56
864.09	226.57
864.40	226.57
864.71	226.60
865.02	226.62
865.33	226.63
865.64	226.62
865.95	226.62
866.27	226.69
866.58	226.68
866.89	226.66
867.20	226.69
867.51	226.62
867.82	226.59
868.13	226.58
868.44	226.56
868.75	226.59
869.06	226.62
869.37	226.61
869.68	226.59
869.99	226.61
870.30	226.63
870.61	226.62
870.92	226.61
871.23	226.61
871.54	226.63
871.85	226.66
872.16	226.70
872.47	226.68
872.78	226.63
873.09	226.67
873.40	226.66
873.71	226.67
874.02	226.71
874.33	226.73
874.64	226.76
874.95	226.78
875.26	226.73
875.56	226.72
875.87	226.71
876.18	226.71
876.49	226.79
876.80	226.78
877.11	226.75
877.42	226.79
877.73	226.74
878.04	226.70
878.35	226.67
878.66	226.66
878.96	226.64
879.27	226.60
879.58	226.57
879.89	226.55
880.20	226.57
880.51	226.57
880.82	226.58
881.12	226.56
881.43	226.53
881.74	226.52
882.05	226.51
882.36	226.54
882.67	226.51
882.97	226.40
883.28	226.37
883.59	226.36
883.90	226.36
884.21	226.38
884.51	226.34
884.82	226.32
885.13	226.28
885.44	226.26
885.74	226.26
886.05	226.25
886.36	226.21
886.67	226.15
886.98	226.20
887.28	226.15
887.59	226.15
887.90	226.15
888.20	226.15
888.51	226.14
888.82	226.08
889.13	226.10
889.43	226.15
889.74	226.13
890.05	226.10
890.35	226.05
890.66	226.02
890.97	226.04
891.28	226.01
891.58	226.03
891.89	226.01
892.20	226.00
892.50	225.93
892.81	225.93
893.12	225.95
893.42	225.87
893.73	225.87
894.04	225.88
894.34	225.87
894.65	225.86
894.95	225.85
895.26	225.88
895.57	225.94
895.87	225.84
896.18	225.86
896.48	225.90
896.79	225.91
897.10	225.93
897.40	225.94
897.71	225.98
898.01	225.92
898.32	225.94
898.63	225.97
898.93	226.01
899.24	226.04
899.54	225.99
899.85	226.01
900.15	226.01
900.46	226.02
900.76	226.05
901.07	226.08
901.38	226.06
901.68	226.08
901.99	226.04
902.29	226.09
902.60	226.09
902.90	226.08
903.21	226.08
903.51	226.08
903.82	226.09
904.12	226.11
904.43	226.15
904.73	226.17
905.03	226.14
905.34	226.25
905.64	226.24
905.95	226.29
906.25	226.27
906.56	226.28
906.86	226.28
907.17	226.29
907.47	226.31
907.77	226.32
908.08	226.32
908.38	226.30
908.69	226.32
908.99	226.37
909.30	226.41
909.60	226.42
909.90	226.44
910.21	226.43
910.51	226.42
910.81	226.44
911.12	226.47
911.42	226.47
911.73	226.39
912.03	226.38
912.33	226.38
912.64	226.39
912.94	226.38
913.24	226.36
913.55	226.29
913.85	226.28
914.15	226.31
914.46	226.27
914.76	226.28
915.06	226.27
915.37	226.23
915.67	226.19
915.97	226.19
916.27	226.15
916.58	226.14
916.88	226.13
917.18	226.14
917.49	226.18
917.79	226.18
918.09	226.19
918.39	226.22
918.70	226.25
919.00	226.24
919.30	226.30
919.60	226.27
919.91	226.29
920.21	226.30
920.51	226.28
920.81	226.27
921.12	226.27
921.42	226.23
921.72	226.21
922.02	226.20
922.32	226.23
922.63	226.22
922.93	226.24
923.23	226.22
923.53	226.18
923.83	226.10
924.13	226.09
924.44	226.07
924.74	226.08
925.04	226.05
925.34	226.07
925.64	226.02
925.94	226.01
926.24	226.06
926.55	226.03
926.85	226.00
927.15	226.01
927.45	225.99
927.75	226.02
928.05	226.02
928.35	226.01
928.65	225.96
928.95	225.95
929.26	225.91
929.56	225.96
929.86	225.94
930.16	225.92
930.46	225.94
930.76	225.92
931.06	225.84
931.36	225.83
931.66	225.82
931.96	225.84
932.26	225.84
932.56	225.81
932.86	225.82
933.16	225.82
933.46	225.81
933.76	225.81
934.06	225.82
934.36	225.86
934.66	225.88
934.96	225.87
935.26	225.90
935.56	225.95
935.86	225.92
936.16	225.93
936.46	225.94
936.76	225.98
937.06	226.01
937.36	226.06
937.66	226.08
937.96	226.06
938.26	226.03
938.56	226.06
938.86	226.07
939.16	226.14
939.46	226.18
939.76	226.20
940.06	226.19
940.35	226.18
940.65	226.12
940.95	226.15
941.25	226.17
941.55	226.17
941.85	226.15
942.15	226.18
942.45	226.20
942.75	226.19
943.04	226.16
943.34	226.15
943.64	226.12
943.94	226.12
944.24	226.16
944.54	226.17
944.84	226.19
945.13	226.16
945.43	226.11
945.73	226.10
946.03	226.10
946.33	226.13
946.62	226.13
946.92	226.14
947.22	226.11
947.52	226.10
947.82	226.10
948.11	226.09
948.41	226.10
948.71	226.09
949.01	226.10
949.31	226.12
949.60	226.10
949.90	226.13
950.20	226.12
950.50	226.11
950.79	226.10
951.09	226.08
951.39	226.08
951.69	226.08
951.98	226.09
952.28	226.13
952.58	226.10
952.87	226.11
953.17	226.16
953.47	226.18
953.76	226.19
954.06	226.18
954.36	226.16
954.66	226.15
954.95	226.17
955.25	226.18
955.55	226.15
955.84	226.13
956.14	226.14
956.44	226.14
956.73	226.13
957.03	226.12
957.32	226.08
957.62	226.06
957.92	226.06
958.21	226.04
958.51	226.09
958.81	226.09
959.10	226.05
959.40	226.04
959.69	226.03
959.99	226.00
960.29	226.00
960.58	225.99
960.88	225.99
961.17	225.97
961.47	225.95
961.76	225.92
962.06	225.94
962.36	225.91
962.65	225.89
962.95	225.89
963.24	225.90
963.54	225.94
963.83	225.97
964.13	225.97
964.42	225.91
964.72	225.81
965.01	225.83
965.31	225.87
965.60	225.82
965.90	225.84
966.19	225.82
966.49	225.81
966.78	225.81
967.08	225.79
967.37	225.80
967.67	225.77
967.96	225.85
968.26	225.84
968.55	225.82
968.85	225.87
969.14	225.84
969.43	225.83
969.73	225.81
970.02	225.79
970.32	225.80
970.61	225.82
970.91	225.80
971.20	225.80
971.49	225.79
971.79	225.80
972.08	225.76
972.38	225.80
972.67	225.80
972.96	225.82
973.26	225.81
973.55	225.85
973.85	225.88
974.14	225.87
974.43	225.89
974.73	225.93
975.02	225.89
975.31	225.92
975.61	225.95
975.90	225.96
976.19	225.96
976.49	225.95
976.78	225.95
977.07	225.97
977.37	225.99
977.66	225.99
977.95	225.98
978.24	225.99
978.54	226.00
978.83	226.00
979.12	226.03
979.42	226.03
979.71	226.01
980.00	226.02
980.29	225.99
980.59	226.01
980.88	226.04
981.17	226.06
981.46	226.04
981.76	226.05
982.05	226.10
982.34	226.08
982.63	226.10
982.93	226.12
983.22	226.13
983.51	226.12
983.80	226.12
984.09	226.17
984.39	226.18
984.68	226.17
984.97	226.17
985.26	226.13
985.55	226.14
985.85	226.11
986.14	226.09
986.43	226.12
986.72	226.07
987.01	226.00
987.30	225.99
987.59	226.01
987.89	225.98
988.18	225.94
988.47	225.94
988.76	225.88
989.05	225.85
989.34	225.87
989.63	225.86
989.92	225.85
990.22	225.80
990.51	225.79
990.80	225.79
991.09	225.83
991.38	225.81
991.67	225.79
991.96	225.76
992.25	225.77
992.54	225.74
992.83	225.74
993.12	225.73
993.41	225.73
993.70	225.77
993.99	225.80
994.28	225.82
994.58	225.79
994.87	225.79
995.16	225.80
995.45	225.76
995.74	225.73
996.03	225.76
996.32	225.80
996.61	225.82
996.90	225.80
997.19	225.77
997.48	225.78
997.77	225.79
998.06	225.83
998.34	225.80
998.63	225.81
998.92	225.81
999.21	225.86
999.50	225.87
999.79	225.81
1000.08	225.79
1000.37	225.76
1000.66	225.78
1000.95	225.81
1001.24	225.77
1001.53	225.79
1001.82	225.75
1002.11	225.72
1002.40	225.73
1002.68	225.77
1002.97	225.82
1003.26	225.82
1003.55	225.85
1003.84	225.82
1004.13	225.86
1004.42	225.91
1004.71	225.91
1004.99	225.91
1005.28	225.91
1005.57	225.90
1005.86	225.91
1006.15	225.91
1006.44	225.93
1006.72	225.95
1007.01	225.97
1007.30	226.00
1007.59	226.00
1007.88	226.05
1008.17	226.05
1008.45	226.02
1008.74	225.98
1009.03	225.97
1009.32	225.96
1009.60	225.93
1009.89	225.96
1010.18	225.92
1010.47	225.88
1010.76	225.89
1011.04	225.87
1011.33	225.89
1011.62	225.92
1011.91	225.93
1012.19	225.95
1012.48	225.93
1012.77	225.92
1013.05	226.00
1013.34	225.98
1013.63	225.98
1013.92	225.99
1014.20	226.00
1014.49	226.00
1014.78	226.00
1015.06	225.98
1015.35	226.00
1015.64	226.04
1015.92	226.03
1016.21	226.05
1016.50	226.07
1016.78	226.08
1017.07	226.14
1017.36	226.11
1017.64	226.09
1017.93	226.08
1018.22	226.07
1018.50	226.11
1018.79	226.15
1019.08	226.07
1019.36	226.10
1019.65	226.11
1019.93	226.13
1020.22	226.17
1020.51	226.18
1020.79	226.17
1021.08	226.18
1021.36	226.24
1021.65	226.57
1021.94	225.77
1022.22	226.23
1022.51	225.84
1022.79	226.48
1023.08	226.60
1023.36	226.54
1023.65	225.89
>>>>>End Processed Spectral Data<<<<<
