SpectraSuite Data File
++++++++++++++++++++++++++++++++++++
Date: Fri Feb 01 16:02:44 EST 2013
User: group
Dark Spectrum Present: No
Reference Spectrum Present: No
Number of Sampled Component Spectra: 1
Spectrometers: USB2E7196
Integration Time (usec): 35000 (USB2E7196)
Spectra Averaged: 100 (USB2E7196)
Boxcar Smoothing: 10 (USB2E7196)
Correct for Electrical Dark: No (USB2E7196)
Strobe/Lamp Enabled: No (USB2E7196)
Correct for Detector Non-linearity: No (USB2E7196)
Correct for Stray Light: No (USB2E7196)
Number of Pixels in Processed Spectrum: 2048
>>>>>Begin Processed Spectral Data<<<<<
339.09	0.00
339.48	214.58
339.86	217.16
340.24	217.80
340.63	219.02
341.01	222.21
341.39	221.81
341.78	223.80
342.16	224.14
342.54	225.09
342.93	213.21
343.31	223.95
343.69	224.51
344.07	224.91
344.46	225.32
344.84	225.69
345.22	225.89
345.60	226.10
345.99	226.24
346.37	226.37
346.75	226.44
347.13	226.49
347.52	226.56
347.90	226.61
348.28	226.64
348.66	226.69
349.05	226.73
349.43	226.75
349.81	226.75
350.19	226.80
350.57	226.85
350.96	226.91
351.34	227.04
351.72	227.10
352.10	227.20
352.48	227.26
352.87	227.31
353.25	227.37
353.63	227.44
354.01	227.51
354.39	227.58
354.77	227.66
355.15	227.76
355.54	227.83
355.92	227.87
356.30	227.93
356.68	228.04
357.06	228.12
357.44	228.17
357.82	228.25
358.20	228.33
358.58	228.39
358.97	228.45
359.35	228.50
359.73	228.57
360.11	228.67
360.49	228.75
360.87	228.80
361.25	228.90
361.63	229.00
362.01	229.04
362.39	229.09
362.77	229.11
363.15	229.12
363.53	229.14
363.91	229.18
364.29	229.21
364.67	229.13
365.05	229.15
365.43	229.20
365.81	229.22
366.19	229.26
366.57	229.31
366.95	229.32
367.33	229.31
367.71	229.30
368.09	229.28
368.47	229.25
368.85	229.24
369.23	229.22
369.61	229.15
369.99	229.16
370.37	229.14
370.75	229.19
371.13	229.12
371.51	229.06
371.89	228.99
372.27	228.96
372.65	228.95
373.03	228.86
373.41	228.79
373.78	228.73
374.16	228.63
374.54	228.55
374.92	228.48
375.30	228.44
375.68	228.39
376.06	228.35
376.44	228.27
376.82	228.18
377.19	228.12
377.57	228.07
377.95	227.96
378.33	227.88
378.71	227.77
379.09	227.74
379.47	227.71
379.84	227.69
380.22	227.62
380.60	227.52
380.98	227.44
381.36	227.38
381.73	227.31
382.11	227.29
382.49	227.23
382.87	227.14
383.25	227.07
383.62	227.09
384.00	226.99
384.38	226.94
384.76	226.95
385.13	226.90
385.51	226.86
385.89	226.83
386.27	226.81
386.64	226.77
387.02	226.71
387.40	226.64
387.78	226.57
388.15	226.53
388.53	226.51
388.91	226.51
389.29	226.48
389.66	226.48
390.04	226.38
390.42	226.35
390.79	226.33
391.17	226.28
391.55	226.14
391.92	226.12
392.30	226.13
392.68	226.09
393.05	226.08
393.43	226.05
393.81	226.06
394.18	226.03
394.56	226.03
394.94	226.07
395.31	226.05
395.69	226.13
396.06	226.17
396.44	226.18
396.82	226.19
397.19	226.27
397.57	226.30
397.95	226.40
398.32	226.44
398.70	226.52
399.07	226.63
399.45	226.72
399.82	226.77
400.20	226.81
400.58	226.87
400.95	226.93
401.33	227.01
401.70	227.13
402.08	227.24
402.45	227.36
402.83	227.50
403.20	227.64
403.58	227.71
403.95	227.84
404.33	227.99
404.71	228.13
405.08	228.31
405.46	228.44
405.83	228.57
406.21	228.71
406.58	228.88
406.96	229.01
407.33	229.19
407.70	229.40
408.08	229.67
408.45	229.92
408.83	230.17
409.20	230.43
409.58	230.59
409.95	230.86
410.33	231.10
410.70	231.31
411.08	231.64
411.45	232.00
411.82	232.30
412.20	232.66
412.57	233.08
412.95	233.37
413.32	233.78
413.69	234.20
414.07	234.62
414.44	235.10
414.82	235.57
415.19	236.11
415.56	236.66
415.94	237.21
416.31	237.85
416.68	238.46
417.06	239.17
417.43	239.89
417.81	240.65
418.18	241.42
418.55	242.25
418.93	243.10
419.30	243.96
419.67	244.90
420.04	245.84
420.42	246.84
420.79	248.02
421.16	249.19
421.54	250.41
421.91	251.66
422.28	252.88
422.66	254.22
423.03	255.56
423.40	256.89
423.77	258.31
424.15	259.72
424.52	261.21
424.89	262.83
425.26	264.37
425.64	265.82
426.01	267.40
426.38	269.08
426.75	270.75
427.13	272.47
427.50	274.28
427.87	276.16
428.24	277.98
428.61	279.72
428.99	281.61
429.36	283.69
429.73	285.74
430.10	287.80
430.47	289.84
430.85	291.93
431.22	294.19
431.59	296.56
431.96	298.79
432.33	301.24
432.70	303.63
433.08	306.44
433.45	309.07
433.82	311.65
434.19	314.53
434.56	317.36
434.93	320.02
435.30	322.61
435.68	325.51
436.05	328.39
436.42	331.20
436.79	333.70
437.16	336.40
437.53	339.19
437.90	342.00
438.27	344.79
438.64	347.60
439.01	350.17
439.38	352.40
439.75	354.58
440.13	357.10
440.50	359.37
440.87	361.19
441.24	363.15
441.61	365.34
441.98	366.79
442.35	368.57
442.72	370.43
443.09	372.27
443.46	373.27
443.83	373.82
444.20	374.27
444.57	375.12
444.94	375.37
445.31	375.73
445.68	376.00
446.05	376.02
446.42	375.61
446.79	375.21
447.16	374.72
447.53	374.40
447.90	373.21
448.27	372.02
448.64	370.44
449.01	369.28
449.37	367.26
449.74	365.42
450.11	363.15
450.48	360.63
450.85	358.07
451.22	355.88
451.59	353.85
451.96	351.88
452.33	349.29
452.70	346.90
453.07	344.09
453.43	341.24
453.80	338.51
454.17	335.86
454.54	333.30
454.91	330.59
455.28	327.90
455.65	325.41
456.02	323.04
456.38	320.92
456.75	318.24
457.12	316.02
457.49	313.80
457.86	311.63
458.23	309.77
458.59	307.73
458.96	305.66
459.33	303.84
459.70	302.04
460.07	300.52
460.43	298.85
460.80	297.25
461.17	295.77
461.54	294.25
461.91	292.81
462.27	291.39
462.64	290.12
463.01	288.80
463.38	287.53
463.74	286.12
464.11	284.96
464.48	283.95
464.85	282.83
465.21	281.98
465.58	281.09
465.95	280.02
466.32	279.12
466.68	278.22
467.05	277.31
467.42	276.44
467.78	275.50
468.15	274.63
468.52	273.98
468.88	273.15
469.25	272.39
469.62	271.84
469.98	271.18
470.35	270.62
470.72	269.99
471.08	269.35
471.45	268.83
471.82	268.29
472.18	267.69
472.55	267.29
472.92	266.76
473.28	266.28
473.65	265.86
474.02	265.44
474.38	265.10
474.75	264.78
475.11	264.46
475.48	264.22
475.85	264.00
476.21	263.72
476.58	263.54
476.94	263.40
477.31	263.24
477.67	263.11
478.04	262.97
478.41	262.95
478.77	263.00
479.14	262.95
479.50	262.97
479.87	263.04
480.23	263.12
480.60	263.17
480.96	263.28
481.33	263.48
481.69	263.67
482.06	263.86
482.42	264.07
482.79	264.34
483.15	264.66
483.52	265.05
483.88	265.42
484.25	265.86
484.61	266.28
484.98	266.70
485.34	267.23
485.71	267.83
486.07	268.43
486.44	268.95
486.80	269.67
487.17	270.36
487.53	271.17
487.90	272.03
488.26	272.97
488.62	273.97
488.99	274.92
489.35	275.96
489.72	277.09
490.08	278.29
490.44	279.50
490.81	280.83
491.17	282.17
491.54	283.68
491.90	285.17
492.26	286.81
492.63	288.51
492.99	290.27
493.36	292.16
493.72	294.20
494.08	296.35
494.45	298.58
494.81	300.94
495.17	303.41
495.54	305.99
495.90	308.68
496.26	311.51
496.63	314.44
496.99	317.55
497.35	320.81
497.72	324.19
498.08	327.74
498.44	331.42
498.80	335.39
499.17	339.47
499.53	343.65
499.89	348.03
500.26	352.54
500.62	357.28
500.98	362.26
501.34	367.33
501.71	372.65
502.07	378.13
502.43	383.76
502.79	389.59
503.16	395.66
503.52	401.95
503.88	408.39
504.24	415.14
504.60	422.05
504.97	429.18
505.33	436.52
505.69	444.22
506.05	452.00
506.41	459.86
506.78	467.98
507.14	476.51
507.50	485.28
507.86	494.32
508.22	503.49
508.59	512.68
508.95	522.25
509.31	532.09
509.67	542.23
510.03	552.52
510.39	563.06
510.75	573.84
511.12	584.67
511.48	595.93
511.84	607.33
512.20	618.82
512.56	630.78
512.92	643.02
513.28	655.35
513.64	667.85
514.00	680.60
514.37	693.55
514.73	706.52
515.09	719.47
515.45	732.78
515.81	746.31
516.17	760.39
516.53	774.53
516.89	788.64
517.25	802.81
517.61	817.20
517.97	831.63
518.33	846.02
518.69	860.90
519.05	875.80
519.41	890.92
519.77	906.43
520.13	921.88
520.49	937.23
520.85	952.66
521.21	968.33
521.57	984.52
521.93	1000.25
522.29	1016.62
522.65	1032.86
523.01	1049.17
523.37	1065.25
523.73	1081.31
524.09	1097.33
524.45	1113.67
524.81	1130.28
525.17	1147.16
525.53	1164.20
525.89	1181.14
526.25	1197.95
526.61	1214.36
526.97	1231.21
527.33	1247.63
527.68	1264.19
528.04	1280.61
528.40	1297.10
528.76	1314.07
529.12	1330.61
529.48	1347.52
529.84	1363.51
530.20	1380.11
530.56	1397.02
530.91	1414.37
531.27	1431.14
531.63	1447.47
531.99	1464.00
532.35	1479.71
532.71	1495.52
533.07	1511.68
533.42	1527.47
533.78	1543.42
534.14	1559.67
534.50	1574.84
534.86	1590.74
535.21	1605.79
535.57	1621.69
535.93	1637.22
536.29	1652.02
536.65	1666.97
537.00	1681.77
537.36	1697.08
537.72	1711.54
538.08	1725.88
538.44	1739.64
538.79	1753.44
539.15	1767.26
539.51	1780.87
539.87	1795.39
540.22	1809.03
540.58	1822.61
540.94	1835.88
541.29	1848.77
541.65	1861.34
542.01	1874.59
542.37	1886.77
542.72	1899.17
543.08	1910.91
543.44	1923.30
543.79	1934.42
544.15	1945.39
544.51	1956.89
544.87	1967.85
545.22	1978.74
545.58	1988.88
545.94	1998.69
546.29	2008.48
546.65	2018.23
547.01	2027.58
547.36	2036.27
547.72	2044.74
548.07	2052.48
548.43	2060.73
548.79	2068.81
549.14	2076.33
549.50	2083.70
549.86	2091.49
550.21	2098.94
550.57	2105.96
550.92	2112.38
551.28	2119.44
551.64	2126.56
551.99	2133.01
552.35	2139.06
552.70	2145.10
553.06	2151.02
553.41	2157.32
553.77	2163.31
554.13	2169.43
554.48	2175.60
554.84	2180.96
555.19	2186.25
555.55	2191.59
555.90	2195.92
556.26	2200.63
556.61	2205.49
556.97	2209.75
557.32	2213.93
557.68	2217.90
558.03	2222.40
558.39	2226.19
558.74	2230.99
559.10	2234.90
559.45	2238.51
559.81	2242.96
560.16	2246.89
560.52	2250.26
560.87	2253.61
561.23	2256.42
561.58	2259.30
561.94	2261.77
562.29	2264.22
562.64	2266.80
563.00	2269.39
563.35	2273.07
563.71	2276.24
564.06	2279.44
564.42	2282.25
564.77	2284.67
565.12	2286.92
565.48	2288.77
565.83	2290.68
566.19	2291.78
566.54	2292.62
566.89	2293.82
567.25	2294.24
567.60	2295.41
567.96	2297.09
568.31	2298.00
568.66	2299.07
569.02	2299.72
569.37	2299.97
569.72	2300.82
570.08	2301.06
570.43	2301.21
570.78	2300.59
571.14	2299.02
571.49	2297.67
571.84	2297.50
572.20	2296.26
572.55	2295.42
572.90	2293.99
573.26	2292.54
573.61	2290.99
573.96	2289.23
574.31	2286.31
574.67	2283.41
575.02	2279.84
575.37	2276.36
575.72	2272.58
576.08	2269.19
576.43	2266.01
576.78	2262.37
577.13	2259.22
577.49	2256.18
577.84	2252.45
578.19	2248.73
578.54	2245.25
578.90	2240.93
579.25	2235.24
579.60	2230.45
579.95	2225.37
580.30	2220.32
580.66	2215.22
581.01	2210.41
581.36	2205.51
581.71	2201.35
582.06	2196.88
582.42	2192.49
582.77	2187.39
583.12	2182.84
583.47	2178.08
583.82	2172.99
584.17	2167.84
584.53	2162.31
584.88	2156.67
585.23	2151.03
585.58	2145.59
585.93	2140.12
586.28	2135.44
586.63	2130.41
586.98	2125.38
587.34	2120.63
587.69	2115.73
588.04	2110.50
588.39	2104.75
588.74	2098.42
589.09	2092.18
589.44	2085.43
589.79	2079.52
590.14	2073.87
590.49	2067.36
590.84	2061.20
591.19	2055.12
591.54	2048.68
591.89	2041.38
592.25	2034.59
592.60	2027.31
592.95	2019.75
593.30	2012.22
593.65	2004.68
594.00	1997.78
594.35	1990.52
594.70	1982.58
595.05	1975.29
595.40	1967.98
595.75	1960.51
596.10	1954.20
596.45	1947.49
596.80	1941.38
597.15	1934.68
597.50	1927.54
597.85	1921.17
598.19	1914.25
598.54	1907.11
598.89	1900.47
599.24	1894.51
599.59	1887.70
599.94	1881.64
600.29	1875.29
600.64	1868.94
600.99	1861.47
601.34	1854.47
601.69	1847.51
602.04	1840.63
602.39	1833.21
602.74	1826.38
603.08	1819.59
603.43	1812.94
603.78	1805.70
604.13	1798.34
604.48	1790.97
604.83	1784.12
605.18	1776.92
605.53	1769.03
605.87	1761.10
606.22	1753.87
606.57	1746.00
606.92	1738.93
607.27	1731.79
607.62	1724.91
607.96	1717.56
608.31	1710.90
608.66	1703.47
609.01	1695.94
609.36	1688.29
609.70	1680.39
610.05	1672.29
610.40	1664.48
610.75	1656.20
611.10	1648.53
611.44	1640.22
611.79	1632.12
612.14	1623.45
612.49	1614.39
612.83	1606.06
613.18	1597.97
613.53	1589.83
613.88	1581.21
614.22	1572.79
614.57	1564.14
614.92	1556.06
615.27	1548.47
615.61	1540.20
615.96	1532.06
616.31	1524.43
616.65	1517.17
617.00	1509.57
617.35	1502.07
617.70	1493.81
618.04	1485.20
618.39	1476.92
618.74	1469.29
619.08	1461.15
619.43	1453.60
619.78	1446.66
620.12	1439.39
620.47	1431.83
620.82	1423.80
621.16	1416.50
621.51	1408.91
621.85	1401.25
622.20	1392.69
622.55	1384.36
622.89	1376.49
623.24	1368.93
623.59	1361.44
623.93	1353.87
624.28	1346.71
624.62	1339.10
624.97	1332.04
625.32	1325.36
625.66	1318.43
626.01	1311.25
626.35	1303.82
626.70	1296.00
627.04	1288.23
627.39	1280.65
627.73	1273.31
628.08	1266.28
628.43	1258.94
628.77	1251.54
629.12	1244.04
629.46	1236.94
629.81	1229.57
630.15	1222.28
630.50	1214.80
630.84	1206.57
631.19	1198.65
631.53	1191.13
631.88	1183.61
632.22	1175.90
632.57	1168.46
632.91	1160.89
633.26	1153.54
633.60	1146.09
633.95	1139.05
634.29	1132.14
634.64	1125.41
634.98	1117.90
635.32	1110.77
635.67	1104.17
636.01	1097.48
636.36	1090.66
636.70	1084.07
637.05	1077.45
637.39	1071.07
637.73	1064.49
638.08	1058.66
638.42	1052.69
638.77	1046.25
639.11	1039.53
639.45	1033.15
639.80	1026.59
640.14	1020.15
640.49	1013.59
640.83	1007.29
641.17	1001.01
641.52	994.55
641.86	987.98
642.20	982.17
642.55	975.81
642.89	969.25
643.23	962.78
643.58	956.95
643.92	950.78
644.26	944.64
644.61	938.53
644.95	932.53
645.29	925.95
645.64	919.16
645.98	912.87
646.32	907.10
646.66	900.98
647.01	895.12
647.35	889.39
647.69	883.49
648.04	877.98
648.38	872.26
648.72	866.27
649.06	860.28
649.41	854.40
649.75	848.44
650.09	842.57
650.43	836.77
650.78	830.65
651.12	824.61
651.46	818.94
651.80	813.23
652.14	807.86
652.49	802.42
652.83	797.22
653.17	791.38
653.51	785.60
653.85	780.30
654.20	774.68
654.54	768.61
654.88	762.85
655.22	756.95
655.56	751.13
655.90	745.69
656.25	740.37
656.59	734.98
656.93	729.84
657.27	724.62
657.61	719.24
657.95	714.15
658.29	709.09
658.64	703.87
658.98	698.54
659.32	693.00
659.66	687.88
660.00	682.58
660.34	677.73
660.68	672.82
661.02	667.72
661.36	662.95
661.70	658.49
662.05	654.19
662.39	649.90
662.73	645.46
663.07	641.10
663.41	636.63
663.75	632.11
664.09	627.59
664.43	623.22
664.77	619.06
665.11	614.80
665.45	610.68
665.79	606.61
666.13	602.51
666.47	598.49
666.81	594.25
667.15	590.10
667.49	586.17
667.83	582.35
668.17	578.46
668.51	574.40
668.85	570.39
669.19	566.56
669.53	562.63
669.87	558.74
670.21	555.05
670.55	551.50
670.89	548.13
671.23	544.75
671.57	541.23
671.91	537.71
672.25	534.19
672.58	530.74
672.92	527.32
673.26	524.17
673.60	521.02
673.94	517.93
674.28	515.05
674.62	512.12
674.96	509.08
675.30	506.12
675.64	503.24
675.97	500.44
676.31	497.58
676.65	494.73
676.99	492.12
677.33	489.27
677.67	486.49
678.01	483.46
678.34	480.45
678.68	477.58
679.02	474.75
679.36	472.03
679.70	469.36
680.04	466.59
680.37	463.67
680.71	460.90
681.05	458.32
681.39	455.61
681.73	452.96
682.06	450.39
682.40	447.85
682.74	445.37
683.08	442.85
683.42	440.22
683.75	437.68
684.09	435.09
684.43	432.60
684.77	430.07
685.10	427.68
685.44	425.36
685.78	423.03
686.12	420.72
686.45	418.36
686.79	415.97
687.13	413.78
687.46	411.62
687.80	409.43
688.14	407.22
688.48	405.20
688.81	402.93
689.15	400.78
689.49	398.67
689.82	396.56
690.16	394.49
690.50	392.57
690.83	390.62
691.17	388.61
691.51	386.71
691.84	384.86
692.18	382.92
692.52	380.95
692.85	379.04
693.19	377.20
693.52	375.37
693.86	373.57
694.20	371.75
694.53	369.94
694.87	368.10
695.21	366.28
695.54	364.44
695.88	362.68
696.21	360.95
696.55	359.21
696.88	357.49
697.22	355.79
697.56	354.20
697.89	352.53
698.23	350.93
698.56	349.30
698.90	347.73
699.23	346.12
699.57	344.56
699.90	343.05
700.24	341.56
700.58	340.03
700.91	338.55
701.25	337.13
701.58	335.80
701.92	334.44
702.25	333.09
702.59	331.72
702.92	330.41
703.26	329.08
703.59	327.82
703.93	326.65
704.26	325.43
704.60	324.07
704.93	322.83
705.26	321.62
705.60	320.47
705.93	319.31
706.27	318.30
706.60	317.27
706.94	316.21
707.27	315.03
707.61	313.97
707.94	312.91
708.27	311.82
708.61	310.70
708.94	309.71
709.28	308.73
709.61	307.75
709.94	306.83
710.28	305.83
710.61	304.91
710.95	303.81
711.28	302.95
711.61	302.03
711.95	301.10
712.28	300.14
712.61	299.19
712.95	298.25
713.28	297.36
713.61	296.46
713.95	295.54
714.28	294.73
714.61	293.88
714.95	293.02
715.28	292.16
715.61	291.23
715.95	290.34
716.28	289.45
716.61	288.62
716.95	287.82
717.28	287.05
717.61	286.21
717.94	285.46
718.28	284.60
718.61	283.83
718.94	283.11
719.27	282.43
719.61	281.75
719.94	281.06
720.27	280.30
720.60	279.58
720.94	278.97
721.27	278.35
721.60	277.74
721.93	277.15
722.27	276.58
722.60	276.08
722.93	275.53
723.26	275.02
723.59	274.45
723.93	273.87
724.26	273.39
724.59	272.86
724.92	272.37
725.25	271.89
725.59	271.39
725.92	270.93
726.25	270.45
726.58	269.95
726.91	269.47
727.24	269.03
727.57	268.62
727.91	268.10
728.24	267.67
728.57	267.21
728.90	266.74
729.23	266.28
729.56	265.84
729.89	265.36
730.22	264.86
730.55	264.39
730.89	263.93
731.22	263.45
731.55	263.02
731.88	262.61
732.21	262.16
732.54	261.76
732.87	261.30
733.20	260.87
733.53	260.52
733.86	260.15
734.19	259.74
734.52	259.35
734.85	259.03
735.18	258.57
735.51	258.20
735.84	257.84
736.17	257.48
736.50	257.09
736.83	256.87
737.16	256.56
737.49	256.27
737.82	255.96
738.15	255.63
738.48	255.27
738.81	254.94
739.14	254.68
739.47	254.38
739.80	254.10
740.13	253.81
740.46	253.44
740.79	253.12
741.12	252.84
741.45	252.52
741.78	252.17
742.11	251.98
742.44	251.63
742.77	251.37
743.10	251.04
743.43	250.77
743.75	250.37
744.08	250.22
744.41	249.89
744.74	249.62
745.07	249.37
745.40	249.14
745.73	248.92
746.06	248.57
746.39	248.26
746.71	247.99
747.04	247.72
747.37	247.47
747.70	247.22
748.03	246.94
748.36	246.71
748.68	246.48
749.01	246.16
749.34	245.95
749.67	245.71
750.00	245.49
750.33	245.31
750.65	245.10
750.98	244.75
751.31	244.55
751.64	244.35
751.97	244.17
752.29	243.92
752.62	243.66
752.95	243.49
753.28	243.28
753.60	243.05
753.93	242.89
754.26	242.72
754.59	242.50
754.91	242.30
755.24	242.10
755.57	241.89
755.90	241.71
756.22	241.51
756.55	241.30
756.88	241.11
757.20	240.85
757.53	240.64
757.86	240.46
758.19	240.30
758.51	240.12
758.84	239.90
759.17	239.75
759.49	239.59
759.82	239.43
760.15	239.28
760.47	239.13
760.80	238.91
761.13	238.76
761.45	238.65
761.78	238.50
762.11	238.32
762.43	238.20
762.76	238.05
763.08	237.93
763.41	237.81
763.74	237.70
764.06	237.54
764.39	237.41
764.71	237.25
765.04	237.11
765.37	236.98
765.69	236.83
766.02	236.66
766.34	236.54
766.67	236.41
767.00	236.32
767.32	236.24
767.65	236.19
767.97	236.08
768.30	235.92
768.62	235.84
768.95	235.72
769.27	235.58
769.60	235.47
769.92	235.31
770.25	235.20
770.57	235.08
770.90	235.03
771.22	234.98
771.55	234.89
771.87	234.81
772.20	234.69
772.52	234.70
772.85	234.78
773.17	234.71
773.50	234.64
773.82	234.53
774.15	234.42
774.47	234.28
774.80	234.17
775.12	234.10
775.45	234.00
775.77	233.97
776.09	233.89
776.42	233.84
776.74	233.81
777.07	233.73
777.39	233.69
777.72	233.62
778.04	233.53
778.36	233.50
778.69	233.46
779.01	233.42
779.33	233.27
779.66	233.07
779.98	233.00
780.31	232.92
780.63	232.91
780.95	232.86
781.28	232.80
781.60	232.76
781.92	232.71
782.25	232.64
782.57	232.58
782.89	232.52
783.22	232.46
783.54	232.43
783.86	232.39
784.19	232.33
784.51	232.30
784.83	232.24
785.16	232.18
785.48	232.13
785.80	232.04
786.12	232.01
786.45	231.95
786.77	231.89
787.09	231.82
787.42	231.74
787.74	231.68
788.06	231.64
788.38	231.54
788.71	231.48
789.03	231.46
789.35	231.41
789.67	231.39
789.99	231.35
790.32	231.25
790.64	231.20
790.96	231.22
791.28	231.09
791.61	231.01
791.93	230.95
792.25	230.85
792.57	230.90
792.89	230.82
793.21	230.78
793.54	230.71
793.86	230.66
794.18	230.60
794.50	230.52
794.82	230.46
795.14	230.46
795.47	230.44
795.79	230.38
796.11	230.30
796.43	230.23
796.75	230.17
797.07	230.16
797.39	230.10
797.71	229.98
798.04	229.94
798.36	229.95
798.68	229.90
799.00	229.91
799.32	229.78
799.64	229.76
799.96	229.72
800.28	229.69
800.60	229.65
800.92	229.64
801.24	229.61
801.56	229.59
801.89	229.53
802.21	229.50
802.53	229.41
802.85	229.39
803.17	229.40
803.49	229.36
803.81	229.31
804.13	229.27
804.45	229.22
804.77	229.23
805.09	229.18
805.41	229.15
805.73	229.08
806.05	229.06
806.37	229.05
806.69	229.00
807.01	228.98
807.33	228.96
807.65	228.85
807.97	228.86
808.28	228.82
808.60	228.79
808.92	228.71
809.24	228.81
809.56	228.79
809.88	228.73
810.20	228.73
810.52	228.75
810.84	228.74
811.16	228.72
811.48	228.68
811.80	228.68
812.12	228.66
812.43	228.66
812.75	228.64
813.07	228.61
813.39	228.62
813.71	228.61
814.03	228.56
814.35	228.58
814.67	228.53
814.98	228.51
815.30	228.50
815.62	228.49
815.94	228.39
816.26	228.44
816.58	228.41
816.89	228.42
817.21	228.38
817.53	228.35
817.85	228.35
818.17	228.33
818.48	228.28
818.80	228.28
819.12	228.27
819.44	228.22
819.76	228.19
820.07	228.20
820.39	228.19
820.71	228.17
821.03	228.17
821.34	228.16
821.66	228.18
821.98	228.20
822.30	228.19
822.61	228.24
822.93	228.16
823.25	228.16
823.57	228.13
823.88	228.14
824.20	228.13
824.52	228.15
824.83	228.11
825.15	228.08
825.47	228.09
825.79	228.09
826.10	228.11
826.42	228.12
826.74	228.08
827.05	228.06
827.37	228.05
827.69	228.03
828.00	228.02
828.32	228.03
828.64	228.00
828.95	228.03
829.27	228.01
829.58	227.99
829.90	228.01
830.22	228.02
830.53	227.97
830.85	227.95
831.17	227.91
831.48	227.96
831.80	227.99
832.11	227.97
832.43	227.93
832.75	227.90
833.06	227.93
833.38	227.92
833.69	227.89
834.01	227.90
834.32	227.89
834.64	227.89
834.96	227.88
835.27	227.86
835.59	227.85
835.90	227.78
836.22	227.80
836.53	227.75
836.85	227.71
837.16	227.78
837.48	227.76
837.79	227.77
838.11	227.76
838.42	227.75
838.74	227.75
839.05	227.73
839.37	227.72
839.68	227.64
840.00	227.61
840.31	227.66
840.63	227.65
840.94	227.65
841.26	227.62
841.57	227.59
841.88	227.60
842.20	227.57
842.51	227.57
842.83	227.55
843.14	227.67
843.46	227.66
843.77	227.62
844.08	227.59
844.40	227.53
844.71	227.50
845.03	227.46
845.34	227.44
845.65	227.44
845.97	227.44
846.28	227.45
846.60	227.47
846.91	227.42
847.22	227.43
847.54	227.41
847.85	227.41
848.16	227.42
848.48	227.38
848.79	227.40
849.10	227.41
849.42	227.37
849.73	227.25
850.04	227.25
850.36	227.22
850.67	227.29
850.98	227.32
851.30	227.32
851.61	227.33
851.92	227.32
852.23	227.35
852.55	227.33
852.86	227.33
853.17	227.30
853.49	227.31
853.80	227.32
854.11	227.34
854.42	227.38
854.74	227.35
855.05	227.33
855.36	227.27
855.67	227.29
855.99	227.33
856.30	227.45
856.61	227.43
856.92	227.43
857.23	227.43
857.55	227.42
857.86	227.41
858.17	227.41
858.48	227.42
858.79	227.40
859.11	227.42
859.42	227.42
859.73	227.45
860.04	227.48
860.35	227.45
860.66	227.43
860.98	227.42
861.29	227.46
861.60	227.48
861.91	227.56
862.22	227.53
862.53	227.49
862.84	227.37
863.16	227.43
863.47	227.40
863.78	227.36
864.09	227.35
864.40	227.41
864.71	227.41
865.02	227.45
865.33	227.44
865.64	227.43
865.95	227.47
866.27	227.55
866.58	227.50
866.89	227.55
867.20	227.54
867.51	227.53
867.82	227.51
868.13	227.52
868.44	227.47
868.75	227.50
869.06	227.51
869.37	227.53
869.68	227.49
869.99	227.51
870.30	227.52
870.61	227.53
870.92	227.47
871.23	227.44
871.54	227.41
871.85	227.43
872.16	227.43
872.47	227.39
872.78	227.32
873.09	227.34
873.40	227.32
873.71	227.31
874.02	227.30
874.33	227.30
874.64	227.28
874.95	227.27
875.26	227.19
875.56	227.21
875.87	227.20
876.18	227.19
876.49	227.29
876.80	227.26
877.11	227.24
877.42	227.26
877.73	227.26
878.04	227.26
878.35	227.24
878.66	227.25
878.96	227.20
879.27	227.18
879.58	227.13
879.89	227.08
880.20	227.10
880.51	227.11
880.82	227.08
881.12	227.08
881.43	227.05
881.74	227.08
882.05	227.05
882.36	227.02
882.67	227.03
882.97	226.90
883.28	226.89
883.59	226.87
883.90	226.85
884.21	226.87
884.51	226.83
884.82	226.81
885.13	226.78
885.44	226.80
885.74	226.77
886.05	226.80
886.36	226.81
886.67	226.80
886.98	226.81
887.28	226.82
887.59	226.81
887.90	226.82
888.20	226.80
888.51	226.78
888.82	226.79
889.13	226.80
889.43	226.89
889.74	226.89
890.05	226.89
890.35	226.89
890.66	226.89
890.97	226.89
891.28	226.91
891.58	226.91
891.89	226.90
892.20	226.91
892.50	226.90
892.81	226.93
893.12	226.93
893.42	226.88
893.73	226.91
894.04	226.91
894.34	226.93
894.65	226.94
894.95	226.96
895.26	226.98
895.57	227.02
895.87	226.95
896.18	226.97
896.48	227.00
896.79	227.01
897.10	227.03
897.40	227.01
897.71	227.00
898.01	227.03
898.32	227.06
898.63	227.08
898.93	227.07
899.24	227.04
899.54	227.02
899.85	227.02
900.15	227.00
900.46	227.01
900.76	227.02
901.07	227.00
901.38	227.00
901.68	227.00
901.99	226.97
902.29	226.96
902.60	226.97
902.90	226.94
903.21	226.92
903.51	226.92
903.82	226.97
904.12	226.97
904.43	226.97
904.73	226.95
905.03	226.94
905.34	227.06
905.64	227.10
905.95	227.09
906.25	227.12
906.56	227.12
906.86	227.14
907.17	227.13
907.47	227.16
907.77	227.14
908.08	227.12
908.38	227.12
908.69	227.12
908.99	227.11
909.30	227.16
909.60	227.17
909.90	227.14
910.21	227.10
910.51	227.06
910.81	227.05
911.12	227.07
911.42	227.07
911.73	226.94
912.03	226.92
912.33	226.96
912.64	226.91
912.94	226.89
913.24	226.86
913.55	226.86
913.85	226.83
914.15	226.87
914.46	226.86
914.76	226.83
915.06	226.84
915.37	226.85
915.67	226.81
915.97	226.79
916.27	226.79
916.58	226.80
916.88	226.80
917.18	226.80
917.49	226.83
917.79	226.82
918.09	226.83
918.39	226.85
918.70	226.84
919.00	226.83
919.30	226.88
919.60	226.86
919.91	226.84
920.21	226.86
920.51	226.81
920.81	226.80
921.12	226.83
921.42	226.79
921.72	226.78
922.02	226.80
922.32	226.82
922.63	226.83
922.93	226.88
923.23	226.94
923.53	226.90
923.83	226.87
924.13	226.88
924.44	226.90
924.74	226.92
925.04	226.94
925.34	226.96
925.64	226.92
925.94	226.94
926.24	226.98
926.55	226.98
926.85	227.00
927.15	226.99
927.45	226.96
927.75	227.02
928.05	227.00
928.35	226.99
928.65	227.01
928.95	227.01
929.26	226.95
929.56	226.95
929.86	226.98
930.16	226.95
930.46	226.94
930.76	226.91
931.06	226.86
931.36	226.85
931.66	226.87
931.96	226.90
932.26	226.92
932.56	226.88
932.86	226.89
933.16	226.89
933.46	226.92
933.76	226.95
934.06	226.96
934.36	227.00
934.66	227.01
934.96	226.97
935.26	226.98
935.56	227.03
935.86	226.98
936.16	226.97
936.46	226.97
936.76	226.97
937.06	227.00
937.36	227.02
937.66	226.99
937.96	226.98
938.26	226.96
938.56	226.96
938.86	226.96
939.16	226.94
939.46	226.95
939.76	226.91
940.06	226.89
940.35	226.86
940.65	226.79
940.95	226.77
941.25	226.76
941.55	226.75
941.85	226.73
942.15	226.74
942.45	226.74
942.75	226.72
943.04	226.69
943.34	226.68
943.64	226.66
943.94	226.65
944.24	226.67
944.54	226.66
944.84	226.64
945.13	226.62
945.43	226.60
945.73	226.61
946.03	226.60
946.33	226.56
946.62	226.54
946.92	226.53
947.22	226.52
947.52	226.51
947.82	226.52
948.11	226.51
948.41	226.48
948.71	226.44
949.01	226.46
949.31	226.46
949.60	226.45
949.90	226.42
950.20	226.41
950.50	226.38
950.79	226.36
951.09	226.35
951.39	226.35
951.69	226.36
951.98	226.38
952.28	226.41
952.58	226.42
952.87	226.42
953.17	226.46
953.47	226.44
953.76	226.48
954.06	226.45
954.36	226.45
954.66	226.46
954.95	226.51
955.25	226.49
955.55	226.50
955.84	226.48
956.14	226.52
956.44	226.54
956.73	226.51
957.03	226.51
957.32	226.54
957.62	226.52
957.92	226.53
958.21	226.50
958.51	226.60
958.81	226.61
959.10	226.64
959.40	226.67
959.69	226.68
959.99	226.67
960.29	226.67
960.58	226.64
960.88	226.68
961.17	226.64
961.47	226.67
961.76	226.67
962.06	226.69
962.36	226.66
962.65	226.66
962.95	226.68
963.24	226.67
963.54	226.65
963.83	226.68
964.13	226.68
964.42	226.66
964.72	226.58
965.01	226.59
965.31	226.56
965.60	226.53
965.90	226.60
966.19	226.60
966.49	226.61
966.78	226.61
967.08	226.58
967.37	226.60
967.67	226.58
967.96	226.58
968.26	226.57
968.55	226.59
968.85	226.61
969.14	226.63
969.43	226.60
969.73	226.59
970.02	226.56
970.32	226.55
970.61	226.55
970.91	226.53
971.20	226.51
971.49	226.50
971.79	226.52
972.08	226.45
972.38	226.43
972.67	226.43
972.96	226.45
973.26	226.46
973.55	226.52
973.85	226.51
974.14	226.51
974.43	226.56
974.73	226.55
975.02	226.50
975.31	226.52
975.61	226.54
975.90	226.57
976.19	226.58
976.49	226.57
976.78	226.57
977.07	226.56
977.37	226.56
977.66	226.57
977.95	226.55
978.24	226.57
978.54	226.57
978.83	226.58
979.12	226.59
979.42	226.57
979.71	226.52
980.00	226.50
980.29	226.51
980.59	226.47
980.88	226.50
981.17	226.51
981.46	226.51
981.76	226.46
982.05	226.48
982.34	226.50
982.63	226.53
982.93	226.53
983.22	226.57
983.51	226.58
983.80	226.59
984.09	226.60
984.39	226.59
984.68	226.61
984.97	226.61
985.26	226.59
985.55	226.60
985.85	226.59
986.14	226.63
986.43	226.65
986.72	226.63
987.01	226.59
987.30	226.62
987.59	226.59
987.89	226.66
988.18	226.64
988.47	226.62
988.76	226.61
989.05	226.61
989.34	226.59
989.63	226.62
989.92	226.62
990.22	226.64
990.51	226.63
990.80	226.60
991.09	226.58
991.38	226.58
991.67	226.58
991.96	226.60
992.25	226.62
992.54	226.61
992.83	226.64
993.12	226.64
993.41	226.63
993.70	226.66
993.99	226.70
994.28	226.70
994.58	226.71
994.87	226.72
995.16	226.75
995.45	226.75
995.74	226.73
996.03	226.73
996.32	226.71
996.61	226.72
996.90	226.75
997.19	226.77
997.48	226.76
997.77	226.76
998.06	226.74
998.34	226.69
998.63	226.70
998.92	226.67
999.21	226.68
999.50	226.71
999.79	226.73
1000.08	226.67
1000.37	226.68
1000.66	226.67
1000.95	226.68
1001.24	226.68
1001.53	226.74
1001.82	226.71
1002.11	226.68
1002.40	226.70
1002.68	226.72
1002.97	226.76
1003.26	226.78
1003.55	226.78
1003.84	226.78
1004.13	226.83
1004.42	226.85
1004.71	226.87
1004.99	226.84
1005.28	226.85
1005.57	226.80
1005.86	226.75
1006.15	226.76
1006.44	226.73
1006.72	226.75
1007.01	226.76
1007.30	226.73
1007.59	226.66
1007.88	226.64
1008.17	226.66
1008.45	226.61
1008.74	226.61
1009.03	226.59
1009.32	226.55
1009.60	226.54
1009.89	226.52
1010.18	226.47
1010.47	226.44
1010.76	226.41
1011.04	226.43
1011.33	226.44
1011.62	226.48
1011.91	226.51
1012.19	226.52
1012.48	226.55
1012.77	226.52
1013.05	226.56
1013.34	226.56
1013.63	226.58
1013.92	226.59
1014.20	226.59
1014.49	226.58
1014.78	226.56
1015.06	226.52
1015.35	226.54
1015.64	226.59
1015.92	226.63
1016.21	226.67
1016.50	226.68
1016.78	226.68
1017.07	226.68
1017.36	226.69
1017.64	226.66
1017.93	226.68
1018.22	226.65
1018.50	226.61
1018.79	226.64
1019.08	226.57
1019.36	226.59
1019.65	226.58
1019.93	226.62
1020.22	226.67
1020.51	226.76
1020.79	226.74
1021.08	226.26
1021.36	226.28
1021.65	226.65
1021.94	226.46
1022.22	226.70
1022.51	226.42
1022.79	227.36
1023.08	227.47
1023.36	227.84
1023.65	226.24
>>>>>End Processed Spectral Data<<<<<
