SpectraSuite Data File
++++++++++++++++++++++++++++++++++++
Date: Fri Feb 01 17:51:39 EST 2013
User: group
Dark Spectrum Present: No
Reference Spectrum Present: No
Number of Sampled Component Spectra: 1
Spectrometers: USB2E7196
Integration Time (usec): 35000 (USB2E7196)
Spectra Averaged: 100 (USB2E7196)
Boxcar Smoothing: 10 (USB2E7196)
Correct for Electrical Dark: No (USB2E7196)
Strobe/Lamp Enabled: No (USB2E7196)
Correct for Detector Non-linearity: No (USB2E7196)
Correct for Stray Light: No (USB2E7196)
Number of Pixels in Processed Spectrum: 2048
>>>>>Begin Processed Spectral Data<<<<<
339.09	0.00
339.48	212.65
339.86	213.48
340.24	215.67
340.63	216.85
341.01	219.49
341.39	219.89
341.78	220.31
342.16	221.83
342.54	222.28
342.93	211.05
343.31	221.70
343.69	222.25
344.07	222.76
344.46	223.18
344.84	223.58
345.22	223.82
345.60	224.07
345.99	224.28
346.37	224.46
346.75	224.56
347.13	224.65
347.52	224.70
347.90	224.81
348.28	224.81
348.66	224.83
349.05	224.85
349.43	224.90
349.81	224.94
350.19	224.99
350.57	225.00
350.96	225.08
351.34	225.20
351.72	225.27
352.10	225.36
352.48	225.39
352.87	225.42
353.25	225.49
353.63	225.55
354.01	225.64
354.39	225.68
354.77	225.79
355.15	225.88
355.54	225.94
355.92	225.98
356.30	226.04
356.68	226.20
357.06	226.29
357.44	226.35
357.82	226.40
358.20	226.46
358.58	226.53
358.97	226.59
359.35	226.68
359.73	226.79
360.11	226.84
360.49	226.95
360.87	227.01
361.25	227.07
361.63	227.15
362.01	227.19
362.39	227.22
362.77	227.24
363.15	227.28
363.53	227.33
363.91	227.36
364.29	227.41
364.67	227.34
365.05	227.34
365.43	227.37
365.81	227.39
366.19	227.43
366.57	227.47
366.95	227.46
367.33	227.42
367.71	227.40
368.09	227.42
368.47	227.38
368.85	227.38
369.23	227.39
369.61	227.31
369.99	227.33
370.37	227.33
370.75	227.37
371.13	227.29
371.51	227.26
371.89	227.24
372.27	227.19
372.65	227.15
373.03	227.08
373.41	227.01
373.78	226.96
374.16	226.88
374.54	226.80
374.92	226.74
375.30	226.65
375.68	226.55
376.06	226.48
376.44	226.47
376.82	226.39
377.19	226.32
377.57	226.28
377.95	226.17
378.33	226.13
378.71	226.02
379.09	225.94
379.47	225.86
379.84	225.79
380.22	225.71
380.60	225.62
380.98	225.57
381.36	225.52
381.73	225.44
382.11	225.39
382.49	225.35
382.87	225.29
383.25	225.26
383.62	225.34
384.00	225.30
384.38	225.24
384.76	225.22
385.13	225.20
385.51	225.15
385.89	225.09
386.27	225.01
386.64	224.94
387.02	224.93
387.40	224.89
387.78	224.81
388.15	224.81
388.53	224.74
388.91	224.72
389.29	224.69
389.66	224.69
390.04	224.65
390.42	224.63
390.79	224.63
391.17	224.64
391.55	224.53
391.92	224.49
392.30	224.48
392.68	224.41
393.05	224.40
393.43	224.37
393.81	224.39
394.18	224.38
394.56	224.41
394.94	224.45
395.31	224.47
395.69	224.51
396.06	224.53
396.44	224.58
396.82	224.62
397.19	224.71
397.57	224.73
397.95	224.76
398.32	224.78
398.70	224.81
399.07	224.87
399.45	224.92
399.82	224.98
400.20	225.00
400.58	225.10
400.95	225.13
401.33	225.24
401.70	225.39
402.08	225.50
402.45	225.60
402.83	225.73
403.20	225.79
403.58	225.91
403.95	226.02
404.33	226.20
404.71	226.35
405.08	226.50
405.46	226.66
405.83	226.83
406.21	227.02
406.58	227.24
406.96	227.41
407.33	227.63
407.70	227.84
408.08	228.16
408.45	228.46
408.83	228.75
409.20	229.02
409.58	229.22
409.95	229.56
410.33	229.91
410.70	230.19
411.08	230.57
411.45	230.98
411.82	231.41
412.20	231.81
412.57	232.32
412.95	232.74
413.32	233.25
413.69	233.78
414.07	234.33
414.44	234.92
414.82	235.51
415.19	236.23
415.56	236.98
415.94	237.70
416.31	238.48
416.68	239.30
417.06	240.24
417.43	241.14
417.81	242.13
418.18	243.13
418.55	244.22
418.93	245.41
419.30	246.57
419.67	247.81
420.04	249.08
420.42	250.41
420.79	251.93
421.16	253.46
421.54	255.01
421.91	256.62
422.28	258.27
422.66	260.10
423.03	261.79
423.40	263.51
423.77	265.39
424.15	267.27
424.52	269.22
424.89	271.29
425.26	273.35
425.64	275.26
426.01	277.34
426.38	279.51
426.75	281.69
427.13	283.97
427.50	286.33
427.87	288.81
428.24	291.25
428.61	293.57
428.99	296.09
429.36	298.89
429.73	301.60
430.10	304.27
430.47	306.93
430.85	309.70
431.22	312.64
431.59	315.78
431.96	318.72
432.33	321.99
432.70	325.17
433.08	328.87
433.45	332.34
433.82	335.82
434.19	339.66
434.56	343.38
434.93	346.88
435.30	350.29
435.68	354.10
436.05	357.81
436.42	361.53
436.79	364.90
437.16	368.45
437.53	372.20
437.90	375.91
438.27	379.57
438.64	383.33
439.01	386.77
439.38	389.67
439.75	392.55
440.13	395.88
440.50	398.94
440.87	401.41
441.24	404.00
441.61	406.84
441.98	408.82
442.35	411.18
442.72	413.68
443.09	416.13
443.46	417.43
443.83	418.22
444.20	418.86
444.57	420.05
444.94	420.46
445.31	420.89
445.68	421.36
446.05	421.48
446.42	420.99
446.79	420.44
447.16	419.91
447.53	419.54
447.90	417.98
448.27	416.48
448.64	414.37
449.01	412.86
449.37	410.26
449.74	407.83
450.11	404.83
450.48	401.57
450.85	398.22
451.22	395.44
451.59	392.79
451.96	390.26
452.33	386.76
452.70	383.63
453.07	379.92
453.43	376.07
453.80	372.37
454.17	368.83
454.54	365.48
454.91	361.92
455.28	358.39
455.65	355.12
456.02	351.84
456.38	348.97
456.75	345.47
457.12	342.47
457.49	339.43
457.86	336.59
458.23	334.10
458.59	331.39
458.96	328.59
459.33	326.14
459.70	323.62
460.07	321.61
460.43	319.33
460.80	317.14
461.17	315.24
461.54	313.27
461.91	311.37
462.27	309.43
462.64	307.73
463.01	305.92
463.38	304.17
463.74	302.39
464.11	300.89
464.48	299.55
464.85	298.09
465.21	296.91
465.58	295.68
465.95	294.24
466.32	293.04
466.68	291.86
467.05	290.64
467.42	289.47
467.78	288.22
468.15	287.04
468.52	286.18
468.88	285.06
469.25	284.00
469.62	283.16
469.98	282.26
470.35	281.39
470.72	280.53
471.08	279.66
471.45	278.97
471.82	278.19
472.18	277.35
472.55	276.73
472.92	276.02
473.28	275.42
473.65	274.80
474.02	274.19
474.38	273.70
474.75	273.22
475.11	272.72
475.48	272.35
475.85	271.98
476.21	271.63
476.58	271.34
476.94	271.12
477.31	270.86
477.67	270.63
478.04	270.44
478.41	270.31
478.77	270.27
479.14	270.07
479.50	270.02
479.87	270.03
480.23	270.06
480.60	270.09
480.96	270.13
481.33	270.27
481.69	270.41
482.06	270.55
482.42	270.71
482.79	270.93
483.15	271.19
483.52	271.57
483.88	271.87
484.25	272.23
484.61	272.63
484.98	273.10
485.34	273.58
485.71	274.18
486.07	274.76
486.44	275.33
486.80	276.08
487.17	276.84
487.53	277.69
487.90	278.57
488.26	279.54
488.62	280.52
488.99	281.50
489.35	282.56
489.72	283.72
490.08	284.98
490.44	286.31
490.81	287.72
491.17	289.15
491.54	290.70
491.90	292.34
492.26	294.06
492.63	295.81
492.99	297.73
493.36	299.72
493.72	301.90
494.08	304.11
494.45	306.41
494.81	308.92
495.17	311.42
495.54	314.12
495.90	316.95
496.26	319.93
496.63	323.11
496.99	326.42
497.35	329.83
497.72	333.40
498.08	337.05
498.44	340.91
498.80	345.05
499.17	349.33
499.53	353.71
499.89	358.36
500.26	363.12
500.62	368.00
500.98	373.23
501.34	378.59
501.71	384.25
502.07	390.03
502.43	395.93
502.79	402.11
503.16	408.51
503.52	415.15
503.88	421.90
504.24	428.92
504.60	436.14
504.97	443.65
505.33	451.35
505.69	459.60
506.05	467.87
506.41	476.23
506.78	484.88
507.14	493.81
507.50	502.98
507.86	512.56
508.22	522.34
508.59	532.06
508.95	542.14
509.31	552.49
509.67	563.19
510.03	574.14
510.39	585.38
510.75	596.87
511.12	608.44
511.48	620.40
511.84	632.47
512.20	644.71
512.56	657.42
512.92	670.38
513.28	683.51
513.64	696.78
514.00	710.27
514.37	724.08
514.73	738.05
515.09	752.03
515.45	766.21
515.81	780.67
516.17	795.61
516.53	810.82
516.89	826.12
517.25	841.32
517.61	856.76
517.97	872.22
518.33	887.71
518.69	903.56
519.05	919.60
519.41	936.08
519.77	952.82
520.13	969.51
520.49	986.14
520.85	1002.72
521.21	1019.63
521.57	1037.16
521.93	1054.16
522.29	1071.81
522.65	1089.43
523.01	1106.93
523.37	1124.49
523.73	1141.99
524.09	1159.42
524.45	1177.13
524.81	1195.20
525.17	1213.41
525.53	1231.85
525.89	1250.27
526.25	1268.76
526.61	1286.77
526.97	1305.06
527.33	1323.13
527.68	1341.34
528.04	1359.51
528.40	1377.75
528.76	1396.66
529.12	1415.03
529.48	1433.74
529.84	1451.49
530.20	1469.77
530.56	1488.67
530.91	1507.92
531.27	1526.64
531.63	1544.87
531.99	1563.30
532.35	1581.17
532.71	1599.04
533.07	1617.15
533.42	1634.87
533.78	1652.79
534.14	1671.06
534.50	1688.16
534.86	1705.99
535.21	1723.10
535.57	1740.93
535.93	1758.36
536.29	1774.91
536.65	1791.93
537.00	1808.44
537.36	1825.78
537.72	1842.26
538.08	1858.57
538.44	1874.24
538.79	1890.19
539.15	1905.82
539.51	1921.46
539.87	1937.73
540.22	1953.32
540.58	1969.16
540.94	1984.45
541.29	1999.21
541.65	2013.85
542.01	2029.19
542.37	2043.61
542.72	2058.10
543.08	2071.96
543.44	2086.60
543.79	2099.88
544.15	2112.76
544.51	2126.51
544.87	2139.38
545.22	2152.26
545.58	2164.59
545.94	2176.29
546.29	2188.06
546.65	2200.10
547.01	2211.40
547.36	2222.09
547.72	2232.63
548.07	2242.41
548.43	2252.40
548.79	2262.38
549.14	2271.88
549.50	2280.97
549.86	2290.38
550.21	2299.39
550.57	2308.35
550.92	2316.51
551.28	2325.45
551.64	2334.42
551.99	2342.65
552.35	2350.71
552.70	2358.68
553.06	2366.29
553.41	2374.43
553.77	2382.13
554.13	2389.84
554.48	2397.71
554.84	2405.15
555.19	2411.99
555.55	2418.86
555.90	2425.00
556.26	2431.47
556.61	2437.54
556.97	2443.62
557.32	2449.28
557.68	2455.04
558.03	2460.65
558.39	2465.77
558.74	2472.03
559.10	2477.36
559.45	2482.60
559.81	2488.03
560.16	2493.21
560.52	2497.85
560.87	2502.62
561.23	2506.47
561.58	2510.54
561.94	2514.36
562.29	2517.61
562.64	2521.71
563.00	2525.34
563.35	2530.23
563.71	2534.70
564.06	2539.25
564.42	2543.18
564.77	2546.96
565.12	2550.51
565.48	2553.76
565.83	2556.79
566.19	2559.12
566.54	2560.76
566.89	2562.76
567.25	2564.54
567.60	2566.73
567.96	2569.55
568.31	2571.21
568.66	2573.37
569.02	2574.84
569.37	2575.75
569.72	2577.49
570.08	2578.41
570.43	2579.09
570.78	2579.15
571.14	2578.08
571.49	2577.15
571.84	2577.43
572.20	2576.82
572.55	2576.22
572.90	2574.98
573.26	2574.12
573.61	2572.69
573.96	2571.62
574.31	2569.03
574.67	2566.30
575.02	2562.99
575.37	2559.61
575.72	2556.03
576.08	2552.70
576.43	2549.41
576.78	2546.01
577.13	2542.93
577.49	2539.68
577.84	2536.51
578.19	2532.70
578.54	2529.17
578.90	2525.09
579.25	2519.31
579.60	2514.25
579.95	2508.98
580.30	2503.75
580.66	2498.22
581.01	2492.95
581.36	2487.63
581.71	2483.34
582.06	2478.74
582.42	2473.91
582.77	2468.43
583.12	2463.52
583.47	2458.57
583.82	2453.43
584.17	2447.86
584.53	2442.07
584.88	2436.17
585.23	2429.94
585.58	2423.99
585.93	2417.96
586.28	2412.68
586.63	2407.17
586.98	2401.58
587.34	2396.41
587.69	2391.15
588.04	2385.53
588.39	2379.41
588.74	2372.28
589.09	2365.34
589.44	2357.82
589.79	2351.10
590.14	2344.75
590.49	2337.47
590.84	2330.53
591.19	2323.92
591.54	2316.73
591.89	2308.75
592.25	2301.18
592.60	2293.10
592.95	2284.74
593.30	2276.67
593.65	2268.12
594.00	2260.19
594.35	2252.09
594.70	2243.07
595.05	2235.03
595.40	2226.96
595.75	2218.47
596.10	2211.66
596.45	2204.15
596.80	2197.18
597.15	2189.89
597.50	2182.03
597.85	2174.75
598.19	2167.16
598.54	2159.34
598.89	2151.69
599.24	2144.83
599.59	2137.43
599.94	2130.33
600.29	2123.23
600.64	2115.72
600.99	2107.40
601.34	2099.78
601.69	2091.81
602.04	2084.08
602.39	2075.70
602.74	2067.73
603.08	2060.09
603.43	2052.22
603.78	2043.87
604.13	2035.69
604.48	2027.36
604.83	2019.41
605.18	2011.62
605.53	2002.50
605.87	1993.05
606.22	1984.78
606.57	1975.58
606.92	1966.73
607.27	1958.45
607.62	1950.36
607.96	1942.04
608.31	1934.43
608.66	1925.59
609.01	1916.86
609.36	1908.09
609.70	1898.83
610.05	1889.67
610.40	1880.77
610.75	1871.26
611.10	1862.36
611.44	1852.47
611.79	1843.16
612.14	1833.25
612.49	1822.55
612.83	1812.74
613.18	1803.29
613.53	1793.88
613.88	1783.88
614.22	1774.44
614.57	1764.42
614.92	1755.21
615.27	1746.37
615.61	1736.83
615.96	1727.58
616.31	1718.75
616.65	1710.17
617.00	1701.50
617.35	1692.51
617.70	1682.89
618.04	1672.93
618.39	1663.38
618.74	1654.60
619.08	1644.90
619.43	1636.04
619.78	1627.96
620.12	1619.70
620.47	1610.99
620.82	1601.49
621.16	1592.87
621.51	1583.93
621.85	1575.13
622.20	1565.26
622.55	1555.49
622.89	1546.29
623.24	1537.31
623.59	1528.60
623.93	1519.80
624.28	1511.26
624.62	1502.52
624.97	1494.12
625.32	1486.26
625.66	1478.19
626.01	1470.00
626.35	1461.54
626.70	1452.40
627.04	1443.39
627.39	1434.32
627.73	1425.70
628.08	1417.63
628.43	1409.31
628.77	1400.89
629.12	1392.13
629.46	1383.69
629.81	1374.99
630.15	1366.45
630.50	1357.88
630.84	1348.51
631.19	1339.27
631.53	1330.39
631.88	1321.56
632.22	1312.77
632.57	1304.20
632.91	1295.32
633.26	1286.55
633.60	1277.91
633.95	1269.67
634.29	1261.45
634.64	1253.61
634.98	1245.13
635.32	1236.88
635.67	1229.06
636.01	1221.41
636.36	1213.53
636.70	1206.04
637.05	1198.47
637.39	1191.08
637.73	1183.57
638.08	1176.73
638.42	1169.90
638.77	1162.65
639.11	1155.21
639.45	1147.80
639.80	1140.22
640.14	1132.87
640.49	1125.39
640.83	1118.05
641.17	1111.02
641.52	1103.70
641.86	1096.27
642.20	1089.48
642.55	1082.15
642.89	1074.86
643.23	1067.23
643.58	1060.65
643.92	1053.48
644.26	1046.63
644.61	1039.55
644.95	1032.71
645.29	1025.15
645.64	1017.36
645.98	1009.96
646.32	1002.99
646.66	996.13
647.01	989.49
647.35	982.89
647.69	976.13
648.04	969.84
648.38	963.15
648.72	956.47
649.06	949.67
649.41	942.93
649.75	936.16
650.09	929.32
650.43	922.72
650.78	915.51
651.12	908.69
651.46	902.14
651.80	895.77
652.14	889.42
652.49	883.32
652.83	877.44
653.17	871.07
653.51	864.66
653.85	858.42
654.20	852.03
654.54	845.18
654.88	838.54
655.22	831.74
655.56	825.20
655.90	818.87
656.25	812.83
656.59	806.67
656.93	800.86
657.27	795.01
657.61	788.78
657.95	783.05
658.29	777.31
658.64	771.25
658.98	765.10
659.32	758.95
659.66	752.99
660.00	746.99
660.34	741.27
660.68	735.64
661.02	729.91
661.36	724.40
661.70	719.31
662.05	714.44
662.39	709.60
662.73	704.48
663.07	699.47
663.41	694.39
663.75	689.30
664.09	684.07
664.43	678.97
664.77	674.30
665.11	669.40
665.45	664.62
665.79	660.02
666.13	655.35
666.47	650.69
666.81	645.92
667.15	641.18
667.49	636.74
667.83	632.32
668.17	627.90
668.51	623.31
668.85	618.65
669.19	614.24
669.53	609.81
669.87	605.41
670.21	601.17
670.55	596.99
670.89	593.05
671.23	589.14
671.57	585.12
671.91	581.05
672.25	577.07
672.58	573.07
672.92	569.07
673.26	565.46
673.60	561.85
673.94	558.36
674.28	555.03
674.62	551.66
674.96	548.16
675.30	544.79
675.64	541.44
675.97	538.28
676.31	535.01
676.65	531.65
676.99	528.55
677.33	525.29
677.67	522.05
678.01	518.71
678.34	515.36
678.68	512.13
679.02	508.92
679.36	505.73
679.70	502.63
680.04	499.55
680.37	496.28
680.71	493.08
681.05	490.00
681.39	486.87
681.73	483.85
682.06	480.96
682.40	478.08
682.74	475.19
683.08	472.29
683.42	469.32
683.75	466.45
684.09	463.55
684.43	460.73
684.77	457.95
685.10	455.12
685.44	452.40
685.78	449.74
686.12	447.17
686.45	444.56
686.79	441.93
687.13	439.38
687.46	436.89
687.80	434.45
688.14	431.92
688.48	429.53
688.81	426.91
689.15	424.45
689.49	421.94
689.82	419.54
690.16	417.11
690.50	414.89
690.83	412.70
691.17	410.35
691.51	408.14
691.84	405.97
692.18	403.80
692.52	401.56
692.85	399.34
693.19	397.19
693.52	395.11
693.86	392.98
694.20	390.93
694.53	388.85
694.87	386.68
695.21	384.59
695.54	382.48
695.88	380.53
696.21	378.54
696.55	376.65
696.88	374.71
697.22	372.81
697.56	370.92
697.89	369.05
698.23	367.29
698.56	365.45
698.90	363.68
699.23	361.83
699.57	360.06
699.90	358.27
700.24	356.47
700.58	354.70
700.91	353.05
701.25	351.38
701.58	349.80
701.92	348.25
702.25	346.70
702.59	345.20
702.92	343.66
703.26	342.21
703.59	340.71
703.93	339.35
704.26	337.93
704.60	336.44
704.93	334.95
705.26	333.54
705.60	332.17
705.93	330.83
706.27	329.63
706.60	328.42
706.94	327.19
707.27	325.90
707.61	324.64
707.94	323.43
708.27	322.19
708.61	320.94
708.94	319.78
709.28	318.66
709.61	317.54
709.94	316.43
710.28	315.26
710.61	314.12
710.95	312.85
711.28	311.79
711.61	310.73
711.95	309.67
712.28	308.55
712.61	307.43
712.95	306.34
713.28	305.30
713.61	304.26
713.95	303.27
714.28	302.33
714.61	301.35
714.95	300.37
715.28	299.40
715.61	298.43
715.95	297.46
716.28	296.48
716.61	295.53
716.95	294.58
717.28	293.70
717.61	292.81
717.94	292.02
718.28	291.09
718.61	290.23
718.94	289.43
719.27	288.69
719.61	287.96
719.94	287.18
720.27	286.35
720.60	285.56
720.94	284.80
721.27	284.13
721.60	283.48
721.93	282.76
722.27	282.12
722.60	281.44
722.93	280.78
723.26	280.19
723.59	279.54
723.93	278.91
724.26	278.29
724.59	277.64
724.92	277.00
725.25	276.42
725.59	275.81
725.92	275.21
726.25	274.60
726.58	274.01
726.91	273.45
727.24	272.93
727.57	272.40
727.91	271.84
728.24	271.27
728.57	270.70
728.90	270.21
729.23	269.62
729.56	269.13
729.89	268.57
730.22	267.98
730.55	267.42
730.89	266.95
731.22	266.42
731.55	265.93
731.88	265.42
732.21	264.90
732.54	264.40
732.87	263.96
733.20	263.49
733.53	263.05
733.86	262.60
734.19	262.12
734.52	261.69
734.85	261.31
735.18	260.85
735.51	260.42
735.84	259.95
736.17	259.55
736.50	259.11
736.83	258.83
737.16	258.45
737.49	258.09
737.82	257.67
738.15	257.29
738.48	256.93
738.81	256.57
739.14	256.26
739.47	255.93
739.80	255.55
740.13	255.24
740.46	254.84
740.79	254.46
741.12	254.15
741.45	253.77
741.78	253.39
742.11	253.08
742.44	252.74
742.77	252.44
743.10	252.09
743.43	251.80
743.75	251.36
744.08	251.18
744.41	250.85
744.74	250.55
745.07	250.25
745.40	249.98
745.73	249.72
746.06	249.41
746.39	249.10
746.71	248.79
747.04	248.44
747.37	248.18
747.70	247.93
748.03	247.62
748.36	247.40
748.68	247.13
749.01	246.87
749.34	246.60
749.67	246.35
750.00	246.13
750.33	245.89
750.65	245.68
750.98	245.32
751.31	245.09
751.64	244.85
751.97	244.65
752.29	244.41
752.62	244.12
752.95	243.87
753.28	243.64
753.60	243.40
753.93	243.21
754.26	243.01
754.59	242.74
754.91	242.51
755.24	242.23
755.57	241.99
755.90	241.76
756.22	241.57
756.55	241.36
756.88	241.09
757.20	240.86
757.53	240.64
757.86	240.45
758.19	240.28
758.51	240.07
758.84	239.84
759.17	239.62
759.49	239.45
759.82	239.29
760.15	239.10
760.47	238.97
760.80	238.75
761.13	238.57
761.45	238.39
761.78	238.23
762.11	238.09
762.43	237.94
762.76	237.78
763.08	237.64
763.41	237.45
763.74	237.29
764.06	237.09
764.39	236.91
764.71	236.75
765.04	236.54
765.37	236.38
765.69	236.25
766.02	236.09
766.34	235.97
766.67	235.79
767.00	235.69
767.32	235.60
767.65	235.55
767.97	235.38
768.30	235.31
768.62	235.20
768.95	235.04
769.27	234.89
769.60	234.74
769.92	234.58
770.25	234.49
770.57	234.37
770.90	234.27
771.22	234.15
771.55	234.04
771.87	233.96
772.20	233.82
772.52	233.76
772.85	233.81
773.17	233.67
773.50	233.56
773.82	233.41
774.15	233.25
774.47	233.06
774.80	232.96
775.12	232.82
775.45	232.73
775.77	232.63
776.09	232.57
776.42	232.51
776.74	232.47
777.07	232.34
777.39	232.27
777.72	232.18
778.04	232.11
778.36	232.02
778.69	231.95
779.01	231.92
779.33	231.76
779.66	231.54
779.98	231.46
780.31	231.41
780.63	231.38
780.95	231.35
781.28	231.31
781.60	231.25
781.92	231.21
782.25	231.10
782.57	231.06
782.89	231.01
783.22	230.91
783.54	230.83
783.86	230.78
784.19	230.73
784.51	230.69
784.83	230.60
785.16	230.53
785.48	230.46
785.80	230.38
786.12	230.33
786.45	230.27
786.77	230.24
787.09	230.20
787.42	230.09
787.74	230.03
788.06	229.97
788.38	229.92
788.71	229.86
789.03	229.83
789.35	229.79
789.67	229.70
789.99	229.68
790.32	229.64
790.64	229.61
790.96	229.62
791.28	229.55
791.61	229.54
791.93	229.56
792.25	229.54
792.57	229.61
792.89	229.54
793.21	229.52
793.54	229.47
793.86	229.41
794.18	229.44
794.50	229.39
794.82	229.35
795.14	229.34
795.47	229.31
795.79	229.28
796.11	229.23
796.43	229.18
796.75	229.12
797.07	229.03
797.39	228.99
797.71	228.89
798.04	228.87
798.36	228.80
798.68	228.73
799.00	228.68
799.32	228.54
799.64	228.56
799.96	228.52
800.28	228.47
800.60	228.45
800.92	228.39
801.24	228.34
801.56	228.31
801.89	228.27
802.21	228.23
802.53	228.19
802.85	228.15
803.17	228.21
803.49	228.17
803.81	228.17
804.13	228.11
804.45	228.06
804.77	228.05
805.09	228.05
805.41	227.98
805.73	227.94
806.05	227.89
806.37	227.85
806.69	227.79
807.01	227.79
807.33	227.73
807.65	227.65
807.97	227.66
808.28	227.61
808.60	227.55
808.92	227.51
809.24	227.52
809.56	227.49
809.88	227.38
810.20	227.37
810.52	227.36
810.84	227.32
811.16	227.28
811.48	227.22
811.80	227.23
812.12	227.18
812.43	227.15
812.75	227.13
813.07	227.13
813.39	227.10
813.71	227.03
814.03	226.98
814.35	226.96
814.67	226.86
814.98	226.83
815.30	226.81
815.62	226.77
815.94	226.70
816.26	226.72
816.58	226.68
816.89	226.65
817.21	226.63
817.53	226.59
817.85	226.59
818.17	226.55
818.48	226.47
818.80	226.47
819.12	226.45
819.44	226.43
819.76	226.36
820.07	226.38
820.39	226.38
820.71	226.38
821.03	226.36
821.34	226.36
821.66	226.33
821.98	226.31
822.30	226.31
822.61	226.35
822.93	226.31
823.25	226.31
823.57	226.27
823.88	226.24
824.20	226.26
824.52	226.26
824.83	226.24
825.15	226.22
825.47	226.21
825.79	226.20
826.10	226.17
826.42	226.18
826.74	226.15
827.05	226.13
827.37	226.11
827.69	226.09
828.00	226.12
828.32	226.10
828.64	226.07
828.95	226.13
829.27	226.10
829.58	226.08
829.90	226.11
830.22	226.10
830.53	226.11
830.85	226.07
831.17	226.06
831.48	226.08
831.80	226.07
832.11	226.09
832.43	226.09
832.75	226.09
833.06	226.12
833.38	226.10
833.69	226.08
834.01	226.08
834.32	226.10
834.64	226.06
834.96	226.08
835.27	226.06
835.59	226.00
835.90	225.96
836.22	225.94
836.53	225.89
836.85	225.89
837.16	225.97
837.48	225.95
837.79	225.98
838.11	225.95
838.42	225.96
838.74	225.94
839.05	225.94
839.37	225.96
839.68	225.87
840.00	225.87
840.31	225.90
840.63	225.85
840.94	225.84
841.26	225.82
841.57	225.79
841.88	225.82
842.20	225.79
842.51	225.76
842.83	225.74
843.14	225.79
843.46	225.78
843.77	225.68
844.08	225.65
844.40	225.58
844.71	225.55
845.03	225.50
845.34	225.46
845.65	225.41
845.97	225.41
846.28	225.41
846.60	225.39
846.91	225.36
847.22	225.36
847.54	225.37
847.85	225.35
848.16	225.36
848.48	225.31
848.79	225.36
849.10	225.37
849.42	225.40
849.73	225.34
850.04	225.31
850.36	225.29
850.67	225.32
850.98	225.35
851.30	225.37
851.61	225.37
851.92	225.38
852.23	225.44
852.55	225.42
852.86	225.41
853.17	225.42
853.49	225.42
853.80	225.45
854.11	225.43
854.42	225.48
854.74	225.44
855.05	225.47
855.36	225.41
855.67	225.39
855.99	225.38
856.30	225.46
856.61	225.45
856.92	225.42
857.23	225.44
857.55	225.40
857.86	225.38
858.17	225.38
858.48	225.34
858.79	225.31
859.11	225.32
859.42	225.33
859.73	225.33
860.04	225.27
860.35	225.22
860.66	225.21
860.98	225.20
861.29	225.22
861.60	225.21
861.91	225.21
862.22	225.23
862.53	225.19
862.84	225.09
863.16	225.14
863.47	225.14
863.78	225.11
864.09	225.12
864.40	225.14
864.71	225.16
865.02	225.18
865.33	225.16
865.64	225.14
865.95	225.13
866.27	225.19
866.58	225.22
866.89	225.25
867.20	225.23
867.51	225.19
867.82	225.19
868.13	225.19
868.44	225.19
868.75	225.17
869.06	225.21
869.37	225.21
869.68	225.17
869.99	225.20
870.30	225.21
870.61	225.22
870.92	225.20
871.23	225.19
871.54	225.19
871.85	225.25
872.16	225.24
872.47	225.23
872.78	225.14
873.09	225.18
873.40	225.18
873.71	225.18
874.02	225.19
874.33	225.17
874.64	225.18
874.95	225.20
875.26	225.20
875.56	225.19
875.87	225.22
876.18	225.21
876.49	225.28
876.80	225.27
877.11	225.26
877.42	225.28
877.73	225.27
878.04	225.29
878.35	225.25
878.66	225.27
878.96	225.27
879.27	225.31
879.58	225.30
879.89	225.28
880.20	225.28
880.51	225.28
880.82	225.28
881.12	225.26
881.43	225.23
881.74	225.22
882.05	225.22
882.36	225.19
882.67	225.18
882.97	225.08
883.28	225.09
883.59	225.11
883.90	225.09
884.21	225.10
884.51	225.09
884.82	225.07
885.13	225.08
885.44	225.09
885.74	225.07
886.05	225.06
886.36	225.07
886.67	225.05
886.98	225.08
887.28	225.11
887.59	225.11
887.90	225.10
888.20	225.10
888.51	225.08
888.82	225.05
889.13	225.07
889.43	225.14
889.74	225.11
890.05	225.09
890.35	225.08
890.66	225.06
890.97	225.02
891.28	225.01
891.58	224.98
891.89	224.96
892.20	224.92
892.50	224.91
892.81	224.91
893.12	224.92
893.42	224.88
893.73	224.86
894.04	224.87
894.34	224.87
894.65	224.86
894.95	224.85
895.26	224.89
895.57	224.90
895.87	224.80
896.18	224.81
896.48	224.81
896.79	224.80
897.10	224.80
897.40	224.83
897.71	224.83
898.01	224.84
898.32	224.86
898.63	224.87
898.93	224.88
899.24	224.88
899.54	224.87
899.85	224.86
900.15	224.85
900.46	224.84
900.76	224.85
901.07	224.86
901.38	224.86
901.68	224.87
901.99	224.87
902.29	224.87
902.60	224.85
902.90	224.84
903.21	224.84
903.51	224.86
903.82	224.86
904.12	224.90
904.43	224.91
904.73	224.90
905.03	224.88
905.34	224.96
905.64	224.97
905.95	224.96
906.25	224.97
906.56	224.96
906.86	224.96
907.17	224.97
907.47	224.98
907.77	224.97
908.08	224.96
908.38	224.96
908.69	225.00
908.99	225.07
909.30	225.08
909.60	225.08
909.90	225.09
910.21	225.09
910.51	225.04
910.81	225.07
911.12	225.08
911.42	225.10
911.73	225.00
912.03	224.99
912.33	225.02
912.64	225.03
912.94	225.03
913.24	225.01
913.55	225.00
913.85	224.97
914.15	225.00
914.46	225.00
914.76	224.96
915.06	224.94
915.37	224.90
915.67	224.90
915.97	224.90
916.27	224.88
916.58	224.87
916.88	224.91
917.18	224.85
917.49	224.94
917.79	224.91
918.09	224.91
918.39	224.94
918.70	224.94
919.00	224.94
919.30	224.98
919.60	224.99
919.91	224.94
920.21	224.93
920.51	224.93
920.81	224.92
921.12	224.94
921.42	224.90
921.72	224.86
922.02	224.86
922.32	224.87
922.63	224.87
922.93	224.90
923.23	224.90
923.53	224.90
923.83	224.81
924.13	224.82
924.44	224.81
924.74	224.81
925.04	224.81
925.34	224.78
925.64	224.74
925.94	224.72
926.24	224.78
926.55	224.79
926.85	224.77
927.15	224.78
927.45	224.77
927.75	224.80
928.05	224.83
928.35	224.80
928.65	224.81
928.95	224.79
929.26	224.77
929.56	224.79
929.86	224.81
930.16	224.81
930.46	224.81
930.76	224.82
931.06	224.79
931.36	224.77
931.66	224.78
931.96	224.82
932.26	224.81
932.56	224.79
932.86	224.83
933.16	224.83
933.46	224.80
933.76	224.78
934.06	224.79
934.36	224.85
934.66	224.88
934.96	224.85
935.26	224.85
935.56	224.88
935.86	224.85
936.16	224.84
936.46	224.82
936.76	224.83
937.06	224.81
937.36	224.81
937.66	224.84
937.96	224.87
938.26	224.86
938.56	224.87
938.86	224.88
939.16	224.89
939.46	224.87
939.76	224.85
940.06	224.85
940.35	224.83
940.65	224.72
940.95	224.71
941.25	224.72
941.55	224.71
941.85	224.65
942.15	224.66
942.45	224.66
942.75	224.66
943.04	224.65
943.34	224.67
943.64	224.65
943.94	224.60
944.24	224.55
944.54	224.53
944.84	224.55
945.13	224.52
945.43	224.48
945.73	224.46
946.03	224.49
946.33	224.48
946.62	224.47
946.92	224.48
947.22	224.48
947.52	224.45
947.82	224.48
948.11	224.50
948.41	224.43
948.71	224.43
949.01	224.42
949.31	224.41
949.60	224.40
949.90	224.42
950.20	224.40
950.50	224.42
950.79	224.43
951.09	224.40
951.39	224.43
951.69	224.41
951.98	224.46
952.28	224.45
952.58	224.46
952.87	224.46
953.17	224.47
953.47	224.47
953.76	224.46
954.06	224.42
954.36	224.36
954.66	224.38
954.95	224.40
955.25	224.40
955.55	224.39
955.84	224.38
956.14	224.38
956.44	224.38
956.73	224.36
957.03	224.32
957.32	224.31
957.62	224.28
957.92	224.29
958.21	224.28
958.51	224.39
958.81	224.39
959.10	224.39
959.40	224.42
959.69	224.42
959.99	224.45
960.29	224.48
960.58	224.48
960.88	224.51
961.17	224.48
961.47	224.47
961.76	224.44
962.06	224.45
962.36	224.42
962.65	224.42
962.95	224.46
963.24	224.47
963.54	224.48
963.83	224.44
964.13	224.40
964.42	224.36
964.72	224.28
965.01	224.27
965.31	224.27
965.60	224.22
965.90	224.30
966.19	224.29
966.49	224.28
966.78	224.28
967.08	224.25
967.37	224.26
967.67	224.25
967.96	224.30
968.26	224.28
968.55	224.31
968.85	224.35
969.14	224.33
969.43	224.32
969.73	224.32
970.02	224.35
970.32	224.39
970.61	224.38
970.91	224.33
971.20	224.36
971.49	224.36
971.79	224.38
972.08	224.32
972.38	224.30
972.67	224.29
972.96	224.33
973.26	224.32
973.55	224.35
973.85	224.38
974.14	224.40
974.43	224.40
974.73	224.40
975.02	224.35
975.31	224.35
975.61	224.37
975.90	224.37
976.19	224.37
976.49	224.40
976.78	224.41
977.07	224.43
977.37	224.44
977.66	224.45
977.95	224.42
978.24	224.43
978.54	224.46
978.83	224.50
979.12	224.50
979.42	224.52
979.71	224.51
980.00	224.50
980.29	224.47
980.59	224.50
980.88	224.54
981.17	224.61
981.46	224.62
981.76	224.66
982.05	224.68
982.34	224.71
982.63	224.71
982.93	224.72
983.22	224.76
983.51	224.75
983.80	224.80
984.09	224.86
984.39	224.84
984.68	224.84
984.97	224.83
985.26	224.83
985.55	224.85
985.85	224.83
986.14	224.86
986.43	224.87
986.72	224.86
987.01	224.85
987.30	224.84
987.59	224.82
987.89	224.80
988.18	224.79
988.47	224.79
988.76	224.80
989.05	224.80
989.34	224.79
989.63	224.81
989.92	224.76
990.22	224.73
990.51	224.71
990.80	224.69
991.09	224.70
991.38	224.74
991.67	224.72
991.96	224.74
992.25	224.70
992.54	224.67
992.83	224.65
993.12	224.61
993.41	224.59
993.70	224.62
993.99	224.63
994.28	224.62
994.58	224.58
994.87	224.55
995.16	224.54
995.45	224.52
995.74	224.48
996.03	224.52
996.32	224.54
996.61	224.57
996.90	224.55
997.19	224.54
997.48	224.52
997.77	224.50
998.06	224.49
998.34	224.46
998.63	224.48
998.92	224.48
999.21	224.48
999.50	224.47
999.79	224.47
1000.08	224.44
1000.37	224.43
1000.66	224.45
1000.95	224.46
1001.24	224.44
1001.53	224.43
1001.82	224.42
1002.11	224.35
1002.40	224.36
1002.68	224.38
1002.97	224.46
1003.26	224.42
1003.55	224.37
1003.84	224.37
1004.13	224.42
1004.42	224.44
1004.71	224.42
1004.99	224.41
1005.28	224.43
1005.57	224.44
1005.86	224.41
1006.15	224.39
1006.44	224.37
1006.72	224.41
1007.01	224.39
1007.30	224.40
1007.59	224.38
1007.88	224.40
1008.17	224.44
1008.45	224.41
1008.74	224.37
1009.03	224.36
1009.32	224.37
1009.60	224.40
1009.89	224.42
1010.18	224.36
1010.47	224.40
1010.76	224.42
1011.04	224.42
1011.33	224.47
1011.62	224.47
1011.91	224.50
1012.19	224.52
1012.48	224.57
1012.77	224.54
1013.05	224.62
1013.34	224.65
1013.63	224.68
1013.92	224.71
1014.20	224.72
1014.49	224.72
1014.78	224.74
1015.06	224.67
1015.35	224.73
1015.64	224.76
1015.92	224.76
1016.21	224.77
1016.50	224.74
1016.78	224.76
1017.07	224.76
1017.36	224.72
1017.64	224.71
1017.93	224.70
1018.22	224.71
1018.50	224.70
1018.79	224.71
1019.08	224.66
1019.36	224.65
1019.65	224.65
1019.93	224.63
1020.22	224.61
1020.51	224.68
1020.79	224.67
1021.08	224.89
1021.36	224.68
1021.65	224.55
1021.94	224.63
1022.22	224.92
1022.51	224.26
1022.79	224.78
1023.08	224.29
1023.36	225.85
1023.65	224.62
>>>>>End Processed Spectral Data<<<<<
