SpectraSuite Data File
++++++++++++++++++++++++++++++++++++
Date: Fri Feb 01 15:59:14 EST 2013
User: group
Dark Spectrum Present: No
Reference Spectrum Present: No
Number of Sampled Component Spectra: 1
Spectrometers: USB2E7196
Integration Time (usec): 35000 (USB2E7196)
Spectra Averaged: 100 (USB2E7196)
Boxcar Smoothing: 10 (USB2E7196)
Correct for Electrical Dark: No (USB2E7196)
Strobe/Lamp Enabled: No (USB2E7196)
Correct for Detector Non-linearity: No (USB2E7196)
Correct for Stray Light: No (USB2E7196)
Number of Pixels in Processed Spectrum: 2048
>>>>>Begin Processed Spectral Data<<<<<
339.09	0.00
339.48	215.04
339.86	216.25
340.24	217.80
340.63	219.56
341.01	221.68
341.39	221.82
341.78	223.23
342.16	224.00
342.54	224.27
342.93	213.06
343.31	223.83
343.69	224.33
344.07	224.76
344.46	225.16
344.84	225.49
345.22	225.70
345.60	225.93
345.99	226.08
346.37	226.19
346.75	226.31
347.13	226.33
347.52	226.37
347.90	226.44
348.28	226.46
348.66	226.48
349.05	226.49
349.43	226.52
349.81	226.56
350.19	226.58
350.57	226.64
350.96	226.70
351.34	226.77
351.72	226.86
352.10	226.98
352.48	227.05
352.87	227.12
353.25	227.19
353.63	227.26
354.01	227.34
354.39	227.44
354.77	227.51
355.15	227.64
355.54	227.71
355.92	227.78
356.30	227.86
356.68	228.00
357.06	228.07
357.44	228.12
357.82	228.19
358.20	228.30
358.58	228.36
358.97	228.42
359.35	228.51
359.73	228.61
360.11	228.65
360.49	228.73
360.87	228.76
361.25	228.80
361.63	228.89
362.01	228.94
362.39	228.99
362.77	229.04
363.15	229.10
363.53	229.16
363.91	229.19
364.29	229.24
364.67	229.16
365.05	229.19
365.43	229.24
365.81	229.28
366.19	229.33
366.57	229.38
366.95	229.39
367.33	229.38
367.71	229.37
368.09	229.41
368.47	229.43
368.85	229.43
369.23	229.44
369.61	229.39
369.99	229.41
370.37	229.41
370.75	229.46
371.13	229.40
371.51	229.36
371.89	229.33
372.27	229.26
372.65	229.25
373.03	229.23
373.41	229.15
373.78	229.07
374.16	228.92
374.54	228.87
374.92	228.78
375.30	228.70
375.68	228.61
376.06	228.54
376.44	228.44
376.82	228.39
377.19	228.33
377.57	228.28
377.95	228.19
378.33	228.08
378.71	227.93
379.09	227.87
379.47	227.82
379.84	227.75
380.22	227.71
380.60	227.64
380.98	227.55
381.36	227.49
381.73	227.41
382.11	227.38
382.49	227.30
382.87	227.23
383.25	227.16
383.62	227.21
384.00	227.15
384.38	227.07
384.76	227.03
385.13	227.01
385.51	226.93
385.89	226.84
386.27	226.79
386.64	226.75
387.02	226.68
387.40	226.61
387.78	226.58
388.15	226.51
388.53	226.43
388.91	226.39
389.29	226.37
389.66	226.35
390.04	226.30
390.42	226.29
390.79	226.26
391.17	226.26
391.55	226.14
391.92	226.11
392.30	226.15
392.68	226.14
393.05	226.13
393.43	226.12
393.81	226.14
394.18	226.15
394.56	226.18
394.94	226.21
395.31	226.21
395.69	226.22
396.06	226.27
396.44	226.30
396.82	226.30
397.19	226.38
397.57	226.40
397.95	226.45
398.32	226.49
398.70	226.56
399.07	226.61
399.45	226.66
399.82	226.68
400.20	226.71
400.58	226.81
400.95	226.85
401.33	226.98
401.70	227.13
402.08	227.21
402.45	227.29
402.83	227.40
403.20	227.51
403.58	227.60
403.95	227.73
404.33	227.90
404.71	228.09
405.08	228.27
405.46	228.43
405.83	228.61
406.21	228.75
406.58	228.90
406.96	229.06
407.33	229.26
407.70	229.50
408.08	229.78
408.45	229.98
408.83	230.24
409.20	230.42
409.58	230.63
409.95	230.89
410.33	231.16
410.70	231.43
411.08	231.75
411.45	232.07
411.82	232.39
412.20	232.73
412.57	233.13
412.95	233.40
413.32	233.80
413.69	234.19
414.07	234.65
414.44	235.12
414.82	235.63
415.19	236.15
415.56	236.67
415.94	237.17
416.31	237.81
416.68	238.41
417.06	239.12
417.43	239.77
417.81	240.54
418.18	241.35
418.55	242.15
418.93	243.01
419.30	243.90
419.67	244.83
420.04	245.74
420.42	246.69
420.79	247.91
421.16	249.04
421.54	250.20
421.91	251.38
422.28	252.64
422.66	253.95
423.03	255.30
423.40	256.63
423.77	258.06
424.15	259.45
424.52	260.98
424.89	262.62
425.26	264.17
425.64	265.62
426.01	267.15
426.38	268.83
426.75	270.49
427.13	272.23
427.50	274.03
427.87	275.96
428.24	277.84
428.61	279.56
428.99	281.52
429.36	283.63
429.73	285.68
430.10	287.72
430.47	289.76
430.85	291.86
431.22	294.11
431.59	296.51
431.96	298.74
432.33	301.20
432.70	303.56
433.08	306.38
433.45	309.02
433.82	311.62
434.19	314.51
434.56	317.36
434.93	319.97
435.30	322.59
435.68	325.44
436.05	328.28
436.42	331.08
436.79	333.60
437.16	336.27
437.53	339.08
437.90	341.88
438.27	344.65
438.64	347.47
439.01	350.04
439.38	352.23
439.75	354.41
440.13	356.90
440.50	359.25
440.87	361.05
441.24	362.99
441.61	365.14
441.98	366.60
442.35	368.36
442.72	370.22
443.09	372.04
443.46	373.04
443.83	373.59
444.20	374.07
444.57	374.88
444.94	375.17
445.31	375.58
445.68	375.95
446.05	375.99
446.42	375.59
446.79	375.15
447.16	374.69
447.53	374.37
447.90	373.21
448.27	372.02
448.64	370.49
449.01	369.33
449.37	367.38
449.74	365.50
450.11	363.25
450.48	360.78
450.85	358.25
451.22	356.11
451.59	354.11
451.96	352.24
452.33	349.69
452.70	347.35
453.07	344.54
453.43	341.63
453.80	338.88
454.17	336.24
454.54	333.72
454.91	331.02
455.28	328.34
455.65	325.86
456.02	323.43
456.38	321.27
456.75	318.61
457.12	316.38
457.49	314.12
457.86	311.98
458.23	310.13
458.59	308.08
458.96	305.99
459.33	304.15
459.70	302.25
460.07	300.66
460.43	298.96
460.80	297.31
461.17	295.87
461.54	294.38
461.91	292.95
462.27	291.54
462.64	290.32
463.01	289.00
463.38	287.70
463.74	286.32
464.11	285.19
464.48	284.21
464.85	283.08
465.21	282.25
465.58	281.30
465.95	280.19
466.32	279.30
466.68	278.42
467.05	277.54
467.42	276.63
467.78	275.73
468.15	274.85
468.52	274.18
468.88	273.32
469.25	272.56
469.62	271.95
469.98	271.24
470.35	270.60
470.72	269.96
471.08	269.29
471.45	268.76
471.82	268.16
472.18	267.54
472.55	267.14
472.92	266.59
473.28	266.18
473.65	265.77
474.02	265.34
474.38	264.96
474.75	264.61
475.11	264.29
475.48	264.04
475.85	263.80
476.21	263.54
476.58	263.37
476.94	263.22
477.31	263.06
477.67	262.95
478.04	262.87
478.41	262.83
478.77	262.91
479.14	262.84
479.50	262.88
479.87	262.98
480.23	263.05
480.60	263.15
480.96	263.21
481.33	263.40
481.69	263.60
482.06	263.80
482.42	264.01
482.79	264.28
483.15	264.62
483.52	265.02
483.88	265.38
484.25	265.81
484.61	266.25
484.98	266.72
485.34	267.24
485.71	267.80
486.07	268.42
486.44	268.98
486.80	269.69
487.17	270.43
487.53	271.23
487.90	272.11
488.26	273.07
488.62	274.09
488.99	275.08
489.35	276.11
489.72	277.25
490.08	278.48
490.44	279.69
490.81	281.02
491.17	282.37
491.54	283.87
491.90	285.34
492.26	287.00
492.63	288.72
492.99	290.54
493.36	292.43
493.72	294.47
494.08	296.59
494.45	298.83
494.81	301.20
495.17	303.65
495.54	306.20
495.90	308.86
496.26	311.68
496.63	314.65
496.99	317.72
497.35	321.01
497.72	324.43
498.08	327.98
498.44	331.69
498.80	335.61
499.17	339.70
499.53	343.85
499.89	348.24
500.26	352.71
500.62	357.43
500.98	362.42
501.34	367.50
501.71	372.88
502.07	378.34
502.43	383.93
502.79	389.74
503.16	395.83
503.52	402.12
503.88	408.52
504.24	415.18
504.60	422.16
504.97	429.26
505.33	436.59
505.69	444.26
506.05	452.03
506.41	459.91
506.78	468.05
507.14	476.54
507.50	485.20
507.86	494.30
508.22	503.37
508.59	512.52
508.95	522.13
509.31	531.90
509.67	542.02
510.03	552.37
510.39	562.87
510.75	573.67
511.12	584.55
511.48	595.87
511.84	607.39
512.20	618.90
512.56	630.89
512.92	643.10
513.28	655.48
513.64	667.95
514.00	680.69
514.37	693.56
514.73	706.63
515.09	719.74
515.45	733.04
515.81	746.64
516.17	760.67
516.53	774.78
516.89	788.95
517.25	803.05
517.61	817.38
517.97	831.92
518.33	846.31
518.69	861.16
519.05	876.03
519.41	891.15
519.77	906.68
520.13	922.06
520.49	937.38
520.85	952.84
521.21	968.54
521.57	984.71
521.93	1000.48
522.29	1016.83
522.65	1032.99
523.01	1049.14
523.37	1065.19
523.73	1081.33
524.09	1097.30
524.45	1113.54
524.81	1130.26
525.17	1147.09
525.53	1163.83
525.89	1180.72
526.25	1197.44
526.61	1213.94
526.97	1230.61
527.33	1247.04
527.68	1263.57
528.04	1279.95
528.40	1296.44
528.76	1313.41
529.12	1330.08
529.48	1346.83
529.84	1362.78
530.20	1379.43
530.56	1396.44
530.91	1413.89
531.27	1430.61
531.63	1447.18
531.99	1463.75
532.35	1479.57
532.71	1495.46
533.07	1511.78
533.42	1527.58
533.78	1543.71
534.14	1559.88
534.50	1575.28
534.86	1591.16
535.21	1606.30
535.57	1622.20
535.93	1637.81
536.29	1652.59
536.65	1667.55
537.00	1682.32
537.36	1697.55
537.72	1712.03
538.08	1726.33
538.44	1739.97
538.79	1753.81
539.15	1767.44
539.51	1781.06
539.87	1795.37
540.22	1809.08
540.58	1822.72
540.94	1835.97
541.29	1848.67
541.65	1861.31
542.01	1874.43
542.37	1886.66
542.72	1899.15
543.08	1910.90
543.44	1923.11
543.79	1934.26
544.15	1945.18
544.51	1956.95
544.87	1968.01
545.22	1978.65
545.58	1988.79
545.94	1998.42
546.29	2008.22
546.65	2018.10
547.01	2027.37
547.36	2036.09
547.72	2044.52
548.07	2052.32
548.43	2060.52
548.79	2068.62
549.14	2076.16
549.50	2083.45
549.86	2091.14
550.21	2098.40
550.57	2105.56
550.92	2112.10
551.28	2119.24
551.64	2126.18
551.99	2132.52
552.35	2138.51
552.70	2144.73
553.06	2150.84
553.41	2157.34
553.77	2163.29
554.13	2169.29
554.48	2175.38
554.84	2180.82
555.19	2186.16
555.55	2191.44
555.90	2195.91
556.26	2200.82
556.61	2205.47
556.97	2209.61
557.32	2213.63
557.68	2217.85
558.03	2222.15
558.39	2225.81
558.74	2230.39
559.10	2234.46
559.45	2238.22
559.81	2242.57
560.16	2246.51
560.52	2249.63
560.87	2253.01
561.23	2255.85
561.58	2258.91
561.94	2261.34
562.29	2263.61
562.64	2266.19
563.00	2268.66
563.35	2272.21
563.71	2275.15
564.06	2278.50
564.42	2281.32
564.77	2283.77
565.12	2285.92
565.48	2287.83
565.83	2289.73
566.19	2291.16
566.54	2291.96
566.89	2292.97
567.25	2293.52
567.60	2294.80
567.96	2296.43
568.31	2297.41
568.66	2298.52
569.02	2298.92
569.37	2299.35
569.72	2300.34
570.08	2300.49
570.43	2300.64
570.78	2299.98
571.14	2298.49
571.49	2297.02
571.84	2296.91
572.20	2295.97
572.55	2294.92
572.90	2293.47
573.26	2292.12
573.61	2290.27
573.96	2288.57
574.31	2285.73
574.67	2282.65
575.02	2279.07
575.37	2275.78
575.72	2271.99
576.08	2268.66
576.43	2265.38
576.78	2261.70
577.13	2258.54
577.49	2255.47
577.84	2252.01
578.19	2248.35
578.54	2244.79
578.90	2240.59
579.25	2235.01
579.60	2229.81
579.95	2224.91
580.30	2219.81
580.66	2214.65
581.01	2210.01
581.36	2205.18
581.71	2200.98
582.06	2196.72
582.42	2192.22
582.77	2187.02
583.12	2182.47
583.47	2177.67
583.82	2172.57
584.17	2167.37
584.53	2162.07
584.88	2156.50
585.23	2150.66
585.58	2145.14
585.93	2139.74
586.28	2135.11
586.63	2130.07
586.98	2125.29
587.34	2120.53
587.69	2115.71
588.04	2110.33
588.39	2104.46
588.74	2097.89
589.09	2091.80
589.44	2085.01
589.79	2078.92
590.14	2073.44
590.49	2066.87
590.84	2060.45
591.19	2054.49
591.54	2048.21
591.89	2040.73
592.25	2033.84
592.60	2026.69
592.95	2019.15
593.30	2011.71
593.65	2004.08
594.00	1996.98
594.35	1989.57
594.70	1981.59
595.05	1974.36
595.40	1967.30
595.75	1959.81
596.10	1953.44
596.45	1946.55
596.80	1940.35
597.15	1933.76
597.50	1926.51
597.85	1920.02
598.19	1913.48
598.54	1906.25
598.89	1899.46
599.24	1893.56
599.59	1886.87
599.94	1880.60
600.29	1874.33
600.64	1867.95
600.99	1860.47
601.34	1853.68
601.69	1846.88
602.04	1839.96
602.39	1832.57
602.74	1825.69
603.08	1818.91
603.43	1812.30
603.78	1805.00
604.13	1797.91
604.48	1790.65
604.83	1783.79
605.18	1776.64
605.53	1768.61
605.87	1760.77
606.22	1753.59
606.57	1745.63
606.92	1738.37
607.27	1731.25
607.62	1724.34
607.96	1716.90
608.31	1710.32
608.66	1702.76
609.01	1695.05
609.36	1687.49
609.70	1679.46
610.05	1671.37
610.40	1663.61
610.75	1655.30
611.10	1647.69
611.44	1639.16
611.79	1631.10
612.14	1622.51
612.49	1613.56
612.83	1605.15
613.18	1597.06
613.53	1588.88
613.88	1580.23
614.22	1571.88
614.57	1563.30
614.92	1555.20
615.27	1547.58
615.61	1539.21
615.96	1531.19
616.31	1523.65
616.65	1516.38
617.00	1508.93
617.35	1501.27
617.70	1492.95
618.04	1484.44
618.39	1476.36
618.74	1468.74
619.08	1460.45
619.43	1452.88
619.78	1445.89
620.12	1438.77
620.47	1431.23
620.82	1423.12
621.16	1415.85
621.51	1408.32
621.85	1400.62
622.20	1392.12
622.55	1383.81
622.89	1376.00
623.24	1368.30
623.59	1360.90
623.93	1353.28
624.28	1346.02
624.62	1338.43
624.97	1331.34
625.32	1324.69
625.66	1317.60
626.01	1310.43
626.35	1303.03
626.70	1295.23
627.04	1287.45
627.39	1279.71
627.73	1272.31
628.08	1265.40
628.43	1258.11
628.77	1250.69
629.12	1243.16
629.46	1236.03
629.81	1228.61
630.15	1221.35
630.50	1214.03
630.84	1205.91
631.19	1198.07
631.53	1190.46
631.88	1182.91
632.22	1175.31
632.57	1167.95
632.91	1160.43
633.26	1153.03
633.60	1145.65
633.95	1138.59
634.29	1131.67
634.64	1124.99
634.98	1117.54
635.32	1110.38
635.67	1103.66
636.01	1097.05
636.36	1090.28
636.70	1083.74
637.05	1077.15
637.39	1070.76
637.73	1064.11
638.08	1058.22
638.42	1052.12
638.77	1045.81
639.11	1039.22
639.45	1032.84
639.80	1026.11
640.14	1019.75
640.49	1013.20
640.83	1006.90
641.17	1000.62
641.52	994.20
641.86	987.71
642.20	981.94
642.55	975.62
642.89	969.19
643.23	962.69
643.58	956.91
643.92	950.76
644.26	944.72
644.61	938.68
644.95	932.70
645.29	926.00
645.64	919.25
645.98	912.77
646.32	907.00
646.66	900.96
647.01	895.21
647.35	889.41
647.69	883.60
648.04	878.01
648.38	872.20
648.72	866.15
649.06	860.11
649.41	854.24
649.75	848.36
650.09	842.39
650.43	836.54
650.78	830.40
651.12	824.42
651.46	818.72
651.80	812.92
652.14	807.54
652.49	802.19
652.83	797.06
653.17	791.43
653.51	785.73
653.85	780.27
654.20	774.61
654.54	768.54
654.88	762.75
655.22	756.98
655.56	751.35
655.90	745.90
656.25	740.61
656.59	735.21
656.93	730.06
657.27	724.94
657.61	719.51
657.95	714.35
658.29	709.33
658.64	704.11
658.98	698.76
659.32	693.30
659.66	688.07
660.00	682.73
660.34	677.71
660.68	672.73
661.02	667.73
661.36	663.02
661.70	658.57
662.05	654.23
662.39	649.77
662.73	645.33
663.07	641.01
663.41	636.53
663.75	632.05
664.09	627.51
664.43	623.12
664.77	619.01
665.11	614.81
665.45	610.62
665.79	606.51
666.13	602.39
666.47	598.27
666.81	594.14
667.15	590.09
667.49	586.28
667.83	582.53
668.17	578.65
668.51	574.52
668.85	570.51
669.19	566.75
669.53	562.97
669.87	559.08
670.21	555.39
670.55	551.82
670.89	548.44
671.23	544.98
671.57	541.42
671.91	537.91
672.25	534.42
672.58	530.89
672.92	527.48
673.26	524.28
673.60	521.14
673.94	518.07
674.28	515.11
674.62	512.16
674.96	509.02
675.30	506.00
675.64	503.19
675.97	500.38
676.31	497.47
676.65	494.58
676.99	491.86
677.33	488.97
677.67	486.15
678.01	483.06
678.34	480.11
678.68	477.26
679.02	474.43
679.36	471.69
679.70	469.01
680.04	466.27
680.37	463.44
680.71	460.65
681.05	458.04
681.39	455.35
681.73	452.70
682.06	450.17
682.40	447.67
682.74	445.11
683.08	442.59
683.42	440.04
683.75	437.52
684.09	434.95
684.43	432.47
684.77	429.98
685.10	427.65
685.44	425.33
685.78	423.13
686.12	420.85
686.45	418.54
686.79	416.22
687.13	414.04
687.46	411.88
687.80	409.76
688.14	407.54
688.48	405.49
688.81	403.22
689.15	401.09
689.49	398.97
689.82	396.87
690.16	394.83
690.50	392.89
690.83	390.92
691.17	389.00
691.51	387.15
691.84	385.29
692.18	383.38
692.52	381.40
692.85	379.42
693.19	377.58
693.52	375.77
693.86	373.95
694.20	372.13
694.53	370.35
694.87	368.52
695.21	366.70
695.54	364.88
695.88	363.15
696.21	361.37
696.55	359.63
696.88	357.96
697.22	356.27
697.56	354.57
697.89	352.88
698.23	351.23
698.56	349.59
698.90	348.02
699.23	346.33
699.57	344.76
699.90	343.21
700.24	341.62
700.58	340.07
700.91	338.57
701.25	337.11
701.58	335.72
701.92	334.35
702.25	332.94
702.59	331.51
702.92	330.18
703.26	328.90
703.59	327.65
703.93	326.44
704.26	325.18
704.60	323.88
704.93	322.63
705.26	321.41
705.60	320.18
705.93	319.01
706.27	318.00
706.60	316.96
706.94	315.86
707.27	314.75
707.61	313.69
707.94	312.68
708.27	311.61
708.61	310.55
708.94	309.54
709.28	308.59
709.61	307.70
709.94	306.78
710.28	305.81
710.61	304.82
710.95	303.77
711.28	302.86
711.61	301.89
711.95	301.01
712.28	300.05
712.61	299.07
712.95	298.15
713.28	297.27
713.61	296.37
713.95	295.49
714.28	294.64
714.61	293.78
714.95	292.95
715.28	292.11
715.61	291.20
715.95	290.35
716.28	289.53
716.61	288.69
716.95	287.84
717.28	287.08
717.61	286.30
717.94	285.57
718.28	284.76
718.61	284.07
718.94	283.34
719.27	282.70
719.61	282.08
719.94	281.38
720.27	280.64
720.60	279.98
720.94	279.34
721.27	278.79
721.60	278.20
721.93	277.53
722.27	276.98
722.60	276.47
722.93	275.88
723.26	275.34
723.59	274.77
723.93	274.26
724.26	273.73
724.59	273.18
724.92	272.65
725.25	272.15
725.59	271.64
725.92	271.15
726.25	270.66
726.58	270.16
726.91	269.70
727.24	269.24
727.57	268.79
727.91	268.24
728.24	267.74
728.57	267.25
728.90	266.86
729.23	266.33
729.56	265.90
729.89	265.46
730.22	264.96
730.55	264.51
730.89	264.05
731.22	263.57
731.55	263.14
731.88	262.69
732.21	262.29
732.54	261.83
732.87	261.41
733.20	260.98
733.53	260.61
733.86	260.24
734.19	259.83
734.52	259.43
734.85	259.17
735.18	258.75
735.51	258.36
735.84	257.98
736.17	257.64
736.50	257.21
736.83	256.95
737.16	256.58
737.49	256.22
737.82	255.83
738.15	255.50
738.48	255.18
738.81	254.86
739.14	254.50
739.47	254.18
739.80	253.85
740.13	253.55
740.46	253.22
740.79	252.88
741.12	252.54
741.45	252.21
741.78	251.84
742.11	251.57
742.44	251.27
742.77	250.95
743.10	250.66
743.43	250.39
743.75	250.01
744.08	249.89
744.41	249.61
744.74	249.34
745.07	249.04
745.40	248.78
745.73	248.53
746.06	248.28
746.39	248.02
746.71	247.77
747.04	247.52
747.37	247.21
747.70	246.95
748.03	246.75
748.36	246.55
748.68	246.32
749.01	246.07
749.34	245.82
749.67	245.62
750.00	245.39
750.33	245.23
750.65	245.03
750.98	244.64
751.31	244.43
751.64	244.23
751.97	244.09
752.29	243.86
752.62	243.60
752.95	243.37
753.28	243.18
753.60	242.96
753.93	242.76
754.26	242.59
754.59	242.36
754.91	242.14
755.24	241.92
755.57	241.74
755.90	241.56
756.22	241.39
756.55	241.19
756.88	241.00
757.20	240.76
757.53	240.54
757.86	240.39
758.19	240.25
758.51	240.07
758.84	239.82
759.17	239.65
759.49	239.49
759.82	239.38
760.15	239.22
760.47	239.01
760.80	238.81
761.13	238.66
761.45	238.54
761.78	238.42
762.11	238.29
762.43	238.14
762.76	238.00
763.08	237.90
763.41	237.76
763.74	237.62
764.06	237.48
764.39	237.33
764.71	237.22
765.04	237.09
765.37	236.97
765.69	236.90
766.02	236.76
766.34	236.65
766.67	236.49
767.00	236.41
767.32	236.39
767.65	236.34
767.97	236.23
768.30	236.11
768.62	235.97
768.95	235.82
769.27	235.69
769.60	235.60
769.92	235.45
770.25	235.31
770.57	235.20
770.90	235.11
771.22	235.02
771.55	234.91
771.87	234.81
772.20	234.69
772.52	234.67
772.85	234.70
773.17	234.64
773.50	234.53
773.82	234.41
774.15	234.29
774.47	234.15
774.80	234.04
775.12	233.97
775.45	233.89
775.77	233.84
776.09	233.78
776.42	233.67
776.74	233.63
777.07	233.57
777.39	233.51
777.72	233.40
778.04	233.36
778.36	233.28
778.69	233.20
779.01	233.14
779.33	232.98
779.66	232.83
779.98	232.76
780.31	232.71
780.63	232.69
780.95	232.62
781.28	232.59
781.60	232.52
781.92	232.48
782.25	232.41
782.57	232.34
782.89	232.31
783.22	232.26
783.54	232.19
783.86	232.15
784.19	232.05
784.51	232.05
784.83	231.97
785.16	231.95
785.48	231.90
785.80	231.85
786.12	231.83
786.45	231.75
786.77	231.67
787.09	231.63
787.42	231.54
787.74	231.51
788.06	231.48
788.38	231.43
788.71	231.38
789.03	231.34
789.35	231.30
789.67	231.22
789.99	231.21
790.32	231.15
790.64	231.14
790.96	231.20
791.28	231.11
791.61	231.07
791.93	231.04
792.25	231.02
792.57	231.06
792.89	230.99
793.21	230.96
793.54	230.93
793.86	230.88
794.18	230.83
794.50	230.78
794.82	230.71
795.14	230.71
795.47	230.70
795.79	230.65
796.11	230.62
796.43	230.59
796.75	230.55
797.07	230.50
797.39	230.44
797.71	230.31
798.04	230.31
798.36	230.27
798.68	230.17
799.00	230.11
799.32	230.02
799.64	230.01
799.96	229.95
800.28	229.95
800.60	229.93
800.92	229.90
801.24	229.87
801.56	229.86
801.89	229.81
802.21	229.78
802.53	229.76
802.85	229.78
803.17	229.81
803.49	229.76
803.81	229.74
804.13	229.71
804.45	229.70
804.77	229.68
805.09	229.68
805.41	229.67
805.73	229.67
806.05	229.66
806.37	229.64
806.69	229.63
807.01	229.59
807.33	229.55
807.65	229.52
807.97	229.54
808.28	229.49
808.60	229.49
808.92	229.42
809.24	229.45
809.56	229.35
809.88	229.27
810.20	229.27
810.52	229.29
810.84	229.27
811.16	229.24
811.48	229.20
811.80	229.20
812.12	229.15
812.43	229.12
812.75	229.09
813.07	229.06
813.39	229.01
813.71	228.99
814.03	228.98
814.35	228.94
814.67	228.86
814.98	228.84
815.30	228.80
815.62	228.81
815.94	228.73
816.26	228.76
816.58	228.73
816.89	228.72
817.21	228.66
817.53	228.65
817.85	228.62
818.17	228.60
818.48	228.51
818.80	228.55
819.12	228.51
819.44	228.47
819.76	228.44
820.07	228.44
820.39	228.39
820.71	228.38
821.03	228.36
821.34	228.35
821.66	228.37
821.98	228.36
822.30	228.31
822.61	228.38
822.93	228.31
823.25	228.30
823.57	228.31
823.88	228.32
824.20	228.30
824.52	228.32
824.83	228.32
825.15	228.35
825.47	228.34
825.79	228.35
826.10	228.32
826.42	228.31
826.74	228.30
827.05	228.31
827.37	228.29
827.69	228.28
828.00	228.31
828.32	228.26
828.64	228.23
828.95	228.26
829.27	228.22
829.58	228.21
829.90	228.20
830.22	228.18
830.53	228.12
830.85	228.09
831.17	228.01
831.48	228.02
831.80	227.98
832.11	227.95
832.43	227.93
832.75	227.92
833.06	227.95
833.38	227.92
833.69	227.90
834.01	227.91
834.32	227.91
834.64	227.88
834.96	227.90
835.27	227.91
835.59	227.91
835.90	227.87
836.22	227.84
836.53	227.83
836.85	227.80
837.16	227.89
837.48	227.91
837.79	227.97
838.11	227.90
838.42	227.91
838.74	227.91
839.05	227.87
839.37	227.91
839.68	227.84
840.00	227.82
840.31	227.86
840.63	227.82
840.94	227.80
841.26	227.76
841.57	227.76
841.88	227.75
842.20	227.72
842.51	227.70
842.83	227.70
843.14	227.79
843.46	227.78
843.77	227.70
844.08	227.69
844.40	227.63
844.71	227.67
845.03	227.66
845.34	227.65
845.65	227.65
845.97	227.61
846.28	227.65
846.60	227.67
846.91	227.62
847.22	227.64
847.54	227.66
847.85	227.64
848.16	227.64
848.48	227.61
848.79	227.62
849.10	227.60
849.42	227.62
849.73	227.52
850.04	227.53
850.36	227.51
850.67	227.53
850.98	227.52
851.30	227.49
851.61	227.47
851.92	227.48
852.23	227.52
852.55	227.51
852.86	227.53
853.17	227.54
853.49	227.53
853.80	227.53
854.11	227.54
854.42	227.57
854.74	227.53
855.05	227.51
855.36	227.47
855.67	227.46
855.99	227.41
856.30	227.51
856.61	227.48
856.92	227.47
857.23	227.43
857.55	227.43
857.86	227.42
858.17	227.47
858.48	227.41
858.79	227.38
859.11	227.40
859.42	227.32
859.73	227.28
860.04	227.28
860.35	227.26
860.66	227.21
860.98	227.20
861.29	227.18
861.60	227.17
861.91	227.18
862.22	227.20
862.53	227.20
862.84	227.08
863.16	227.09
863.47	227.07
863.78	227.05
864.09	227.07
864.40	227.11
864.71	227.06
865.02	227.10
865.33	227.08
865.64	227.04
865.95	227.07
866.27	227.15
866.58	227.11
866.89	227.12
867.20	227.10
867.51	227.09
867.82	227.12
868.13	227.17
868.44	227.16
868.75	227.15
869.06	227.16
869.37	227.16
869.68	227.10
869.99	227.11
870.30	227.13
870.61	227.11
870.92	227.10
871.23	227.10
871.54	227.09
871.85	227.11
872.16	227.13
872.47	227.11
872.78	227.05
873.09	227.04
873.40	227.02
873.71	227.05
874.02	227.03
874.33	227.01
874.64	226.97
874.95	227.00
875.26	226.98
875.56	226.96
875.87	226.96
876.18	226.97
876.49	227.07
876.80	227.09
877.11	227.06
877.42	227.06
877.73	227.07
878.04	227.06
878.35	227.06
878.66	227.06
878.96	227.05
879.27	227.07
879.58	227.12
879.89	227.12
880.20	227.13
880.51	227.12
880.82	227.13
881.12	227.12
881.43	227.08
881.74	227.08
882.05	227.07
882.36	227.09
882.67	227.09
882.97	226.97
883.28	226.92
883.59	226.94
883.90	226.94
884.21	226.93
884.51	226.93
884.82	226.93
885.13	226.91
885.44	226.89
885.74	226.85
886.05	226.79
886.36	226.79
886.67	226.77
886.98	226.81
887.28	226.82
887.59	226.85
887.90	226.86
888.20	226.84
888.51	226.85
888.82	226.83
889.13	226.83
889.43	226.92
889.74	226.91
890.05	226.92
890.35	226.91
890.66	226.91
890.97	226.89
891.28	226.89
891.58	226.93
891.89	226.92
892.20	226.95
892.50	226.94
892.81	226.93
893.12	226.94
893.42	226.91
893.73	226.91
894.04	226.88
894.34	226.87
894.65	226.86
894.95	226.83
895.26	226.83
895.57	226.89
895.87	226.80
896.18	226.84
896.48	226.84
896.79	226.84
897.10	226.82
897.40	226.79
897.71	226.75
898.01	226.72
898.32	226.72
898.63	226.68
898.93	226.73
899.24	226.73
899.54	226.72
899.85	226.71
900.15	226.72
900.46	226.72
900.76	226.75
901.07	226.76
901.38	226.78
901.68	226.81
901.99	226.75
902.29	226.77
902.60	226.72
902.90	226.68
903.21	226.64
903.51	226.66
903.82	226.68
904.12	226.69
904.43	226.71
904.73	226.72
905.03	226.75
905.34	226.83
905.64	226.85
905.95	226.82
906.25	226.85
906.56	226.83
906.86	226.85
907.17	226.81
907.47	226.81
907.77	226.83
908.08	226.82
908.38	226.86
908.69	226.87
908.99	226.92
909.30	226.94
909.60	226.99
909.90	227.01
910.21	227.02
910.51	227.01
910.81	227.02
911.12	227.04
911.42	227.04
911.73	226.92
912.03	226.92
912.33	226.95
912.64	226.93
912.94	226.90
913.24	226.92
913.55	226.92
913.85	226.93
914.15	226.92
914.46	226.89
914.76	226.83
915.06	226.81
915.37	226.79
915.67	226.79
915.97	226.76
916.27	226.73
916.58	226.72
916.88	226.73
917.18	226.72
917.49	226.79
917.79	226.77
918.09	226.80
918.39	226.80
918.70	226.81
919.00	226.82
919.30	226.90
919.60	226.88
919.91	226.88
920.21	226.84
920.51	226.83
920.81	226.83
921.12	226.89
921.42	226.90
921.72	226.91
922.02	226.93
922.32	226.97
922.63	226.96
922.93	227.02
923.23	227.02
923.53	227.01
923.83	226.95
924.13	226.97
924.44	226.97
924.74	227.00
925.04	227.01
925.34	226.98
925.64	226.94
925.94	226.94
926.24	227.00
926.55	227.06
926.85	227.08
927.15	227.07
927.45	227.07
927.75	227.07
928.05	227.05
928.35	227.04
928.65	227.02
928.95	227.01
929.26	226.99
929.56	227.01
929.86	227.00
930.16	226.98
930.46	226.98
930.76	226.95
931.06	226.91
931.36	226.88
931.66	226.91
931.96	226.89
932.26	226.90
932.56	226.85
932.86	226.82
933.16	226.80
933.46	226.81
933.76	226.79
934.06	226.82
934.36	226.91
934.66	226.89
934.96	226.88
935.26	226.90
935.56	226.94
935.86	226.90
936.16	226.90
936.46	226.92
936.76	226.90
937.06	226.92
937.36	226.92
937.66	226.94
937.96	226.93
938.26	226.95
938.56	226.94
938.86	226.95
939.16	227.00
939.46	227.02
939.76	227.03
940.06	227.03
940.35	226.99
940.65	226.93
940.95	226.94
941.25	226.91
941.55	226.90
941.85	226.87
942.15	226.89
942.45	226.94
942.75	226.88
943.04	226.91
943.34	226.94
943.64	226.95
943.94	226.93
944.24	226.93
944.54	226.93
944.84	226.91
945.13	226.88
945.43	226.85
945.73	226.85
946.03	226.85
946.33	226.83
946.62	226.85
946.92	226.81
947.22	226.84
947.52	226.87
947.82	226.89
948.11	226.88
948.41	226.87
948.71	226.84
949.01	226.88
949.31	226.86
949.60	226.84
949.90	226.85
950.20	226.84
950.50	226.84
950.79	226.84
951.09	226.89
951.39	226.88
951.69	226.89
951.98	226.95
952.28	226.95
952.58	226.96
952.87	226.94
953.17	226.95
953.47	226.94
953.76	226.93
954.06	226.90
954.36	226.87
954.66	226.88
954.95	226.89
955.25	226.90
955.55	226.89
955.84	226.88
956.14	226.86
956.44	226.84
956.73	226.83
957.03	226.80
957.32	226.76
957.62	226.75
957.92	226.73
958.21	226.69
958.51	226.77
958.81	226.76
959.10	226.78
959.40	226.81
959.69	226.77
959.99	226.79
960.29	226.78
960.58	226.76
960.88	226.79
961.17	226.75
961.47	226.73
961.76	226.72
962.06	226.72
962.36	226.69
962.65	226.70
962.95	226.69
963.24	226.67
963.54	226.71
963.83	226.74
964.13	226.73
964.42	226.71
964.72	226.63
965.01	226.62
965.31	226.60
965.60	226.57
965.90	226.64
966.19	226.62
966.49	226.61
966.78	226.62
967.08	226.59
967.37	226.60
967.67	226.59
967.96	226.62
968.26	226.62
968.55	226.65
968.85	226.67
969.14	226.67
969.43	226.67
969.73	226.64
970.02	226.62
970.32	226.64
970.61	226.62
970.91	226.62
971.20	226.63
971.49	226.60
971.79	226.59
972.08	226.49
972.38	226.46
972.67	226.50
972.96	226.51
973.26	226.49
973.55	226.53
973.85	226.52
974.14	226.52
974.43	226.49
974.73	226.47
975.02	226.44
975.31	226.44
975.61	226.44
975.90	226.42
976.19	226.40
976.49	226.40
976.78	226.41
977.07	226.41
977.37	226.42
977.66	226.44
977.95	226.45
978.24	226.47
978.54	226.52
978.83	226.51
979.12	226.48
979.42	226.55
979.71	226.53
980.00	226.53
980.29	226.54
980.59	226.53
980.88	226.56
981.17	226.55
981.46	226.55
981.76	226.56
982.05	226.57
982.34	226.59
982.63	226.58
982.93	226.60
983.22	226.63
983.51	226.66
983.80	226.67
984.09	226.69
984.39	226.68
984.68	226.68
984.97	226.70
985.26	226.73
985.55	226.69
985.85	226.67
986.14	226.73
986.43	226.73
986.72	226.71
987.01	226.69
987.30	226.71
987.59	226.72
987.89	226.74
988.18	226.74
988.47	226.75
988.76	226.75
989.05	226.75
989.34	226.74
989.63	226.73
989.92	226.71
990.22	226.71
990.51	226.71
990.80	226.68
991.09	226.68
991.38	226.66
991.67	226.64
991.96	226.63
992.25	226.62
992.54	226.59
992.83	226.60
993.12	226.58
993.41	226.62
993.70	226.66
993.99	226.66
994.28	226.67
994.58	226.68
994.87	226.68
995.16	226.68
995.45	226.65
995.74	226.61
996.03	226.67
996.32	226.68
996.61	226.68
996.90	226.68
997.19	226.67
997.48	226.68
997.77	226.66
998.06	226.66
998.34	226.66
998.63	226.67
998.92	226.69
999.21	226.72
999.50	226.70
999.79	226.63
1000.08	226.61
1000.37	226.59
1000.66	226.58
1000.95	226.61
1001.24	226.59
1001.53	226.56
1001.82	226.57
1002.11	226.51
1002.40	226.49
1002.68	226.51
1002.97	226.60
1003.26	226.59
1003.55	226.61
1003.84	226.61
1004.13	226.63
1004.42	226.60
1004.71	226.58
1004.99	226.60
1005.28	226.60
1005.57	226.60
1005.86	226.62
1006.15	226.62
1006.44	226.61
1006.72	226.65
1007.01	226.61
1007.30	226.64
1007.59	226.66
1007.88	226.67
1008.17	226.67
1008.45	226.67
1008.74	226.67
1009.03	226.63
1009.32	226.63
1009.60	226.61
1009.89	226.60
1010.18	226.59
1010.47	226.58
1010.76	226.58
1011.04	226.58
1011.33	226.60
1011.62	226.61
1011.91	226.63
1012.19	226.64
1012.48	226.65
1012.77	226.63
1013.05	226.66
1013.34	226.64
1013.63	226.65
1013.92	226.66
1014.20	226.64
1014.49	226.65
1014.78	226.62
1015.06	226.61
1015.35	226.64
1015.64	226.67
1015.92	226.75
1016.21	226.76
1016.50	226.77
1016.78	226.78
1017.07	226.79
1017.36	226.76
1017.64	226.76
1017.93	226.79
1018.22	226.77
1018.50	226.77
1018.79	226.77
1019.08	226.73
1019.36	226.76
1019.65	226.73
1019.93	226.78
1020.22	226.84
1020.51	226.86
1020.79	226.89
1021.08	226.27
1021.36	226.66
1021.65	226.65
1021.94	226.46
1022.22	226.95
1022.51	226.29
1022.79	227.57
1023.08	227.48
1023.36	227.49
1023.65	226.53
>>>>>End Processed Spectral Data<<<<<
