SpectraSuite Data File
++++++++++++++++++++++++++++++++++++
Date: Fri Feb 01 15:28:02 EST 2013
User: group
Dark Spectrum Present: No
Reference Spectrum Present: No
Number of Sampled Component Spectra: 1
Spectrometers: USB2E7196
Integration Time (usec): 35000 (USB2E7196)
Spectra Averaged: 100 (USB2E7196)
Boxcar Smoothing: 10 (USB2E7196)
Correct for Electrical Dark: No (USB2E7196)
Strobe/Lamp Enabled: No (USB2E7196)
Correct for Detector Non-linearity: No (USB2E7196)
Correct for Stray Light: No (USB2E7196)
Number of Pixels in Processed Spectrum: 2048
>>>>>Begin Processed Spectral Data<<<<<
339.09	0.00
339.48	214.66
339.86	216.05
340.24	217.87
340.63	219.23
341.01	222.22
341.39	221.45
341.78	223.60
342.16	224.64
342.54	224.78
342.93	213.27
343.31	224.06
343.69	224.62
344.07	225.11
344.46	225.53
344.84	225.92
345.22	226.14
345.60	226.40
345.99	226.57
346.37	226.69
346.75	226.81
347.13	226.88
347.52	226.92
347.90	227.02
348.28	227.03
348.66	227.07
349.05	227.05
349.43	227.08
349.81	227.07
350.19	227.12
350.57	227.17
350.96	227.27
351.34	227.36
351.72	227.45
352.10	227.55
352.48	227.63
352.87	227.67
353.25	227.78
353.63	227.85
354.01	227.92
354.39	228.00
354.77	228.08
355.15	228.22
355.54	228.29
355.92	228.34
356.30	228.45
356.68	228.57
357.06	228.65
357.44	228.71
357.82	228.79
358.20	228.87
358.58	228.93
358.97	229.01
359.35	229.10
359.73	229.18
360.11	229.24
360.49	229.29
360.87	229.35
361.25	229.41
361.63	229.47
362.01	229.55
362.39	229.58
362.77	229.61
363.15	229.64
363.53	229.67
363.91	229.70
364.29	229.72
364.67	229.69
365.05	229.69
365.43	229.71
365.81	229.74
366.19	229.78
366.57	229.81
366.95	229.77
367.33	229.73
367.71	229.70
368.09	229.68
368.47	229.69
368.85	229.66
369.23	229.62
369.61	229.58
369.99	229.55
370.37	229.54
370.75	229.53
371.13	229.45
371.51	229.39
371.89	229.36
372.27	229.33
372.65	229.28
373.03	229.27
373.41	229.21
373.78	229.15
374.16	229.04
374.54	228.95
374.92	228.90
375.30	228.83
375.68	228.75
376.06	228.68
376.44	228.56
376.82	228.50
377.19	228.40
377.57	228.32
377.95	228.22
378.33	228.12
378.71	227.99
379.09	227.94
379.47	227.88
379.84	227.80
380.22	227.73
380.60	227.65
380.98	227.57
381.36	227.51
381.73	227.41
382.11	227.37
382.49	227.31
382.87	227.24
383.25	227.21
383.62	227.26
384.00	227.18
384.38	227.13
384.76	227.04
385.13	227.02
385.51	226.95
385.89	226.89
386.27	226.81
386.64	226.78
387.02	226.69
387.40	226.61
387.78	226.55
388.15	226.48
388.53	226.42
388.91	226.37
389.29	226.33
389.66	226.34
390.04	226.30
390.42	226.26
390.79	226.22
391.17	226.17
391.55	226.06
391.92	226.04
392.30	226.06
392.68	226.08
393.05	226.10
393.43	226.12
393.81	226.12
394.18	226.15
394.56	226.18
394.94	226.23
395.31	226.28
395.69	226.32
396.06	226.37
396.44	226.40
396.82	226.44
397.19	226.52
397.57	226.55
397.95	226.63
398.32	226.67
398.70	226.76
399.07	226.83
399.45	226.88
399.82	226.96
400.20	227.01
400.58	227.09
400.95	227.15
401.33	227.24
401.70	227.42
402.08	227.52
402.45	227.60
402.83	227.73
403.20	227.83
403.58	227.98
403.95	228.11
404.33	228.23
404.71	228.37
405.08	228.53
405.46	228.68
405.83	228.84
406.21	229.01
406.58	229.15
406.96	229.34
407.33	229.53
407.70	229.75
408.08	230.05
408.45	230.25
408.83	230.53
409.20	230.77
409.58	230.95
409.95	231.21
410.33	231.54
410.70	231.79
411.08	232.11
411.45	232.42
411.82	232.74
412.20	233.13
412.57	233.53
412.95	233.87
413.32	234.27
413.69	234.68
414.07	235.13
414.44	235.61
414.82	236.08
415.19	236.63
415.56	237.16
415.94	237.70
416.31	238.37
416.68	238.97
417.06	239.68
417.43	240.37
417.81	241.12
418.18	241.87
418.55	242.73
418.93	243.57
419.30	244.42
419.67	245.39
420.04	246.32
420.42	247.32
420.79	248.45
421.16	249.61
421.54	250.81
421.91	252.03
422.28	253.28
422.66	254.61
423.03	255.94
423.40	257.27
423.77	258.68
424.15	260.10
424.52	261.59
424.89	263.19
425.26	264.74
425.64	266.22
426.01	267.82
426.38	269.46
426.75	271.15
427.13	272.89
427.50	274.66
427.87	276.56
428.24	278.43
428.61	280.19
428.99	282.13
429.36	284.22
429.73	286.24
430.10	288.29
430.47	290.33
430.85	292.43
431.22	294.69
431.59	297.04
431.96	299.28
432.33	301.76
432.70	304.16
433.08	307.00
433.45	309.63
433.82	312.24
434.19	315.14
434.56	317.97
434.93	320.62
435.30	323.22
435.68	326.09
436.05	328.94
436.42	331.74
436.79	334.28
437.16	337.02
437.53	339.91
437.90	342.72
438.27	345.53
438.64	348.35
439.01	350.99
439.38	353.28
439.75	355.41
440.13	357.87
440.50	360.21
440.87	362.02
441.24	363.97
441.61	366.14
441.98	367.62
442.35	369.45
442.72	371.32
443.09	373.17
443.46	374.21
443.83	374.78
444.20	375.28
444.57	376.12
444.94	376.33
445.31	376.65
445.68	376.98
446.05	377.02
446.42	376.66
446.79	376.18
447.16	375.70
447.53	375.45
447.90	374.28
448.27	373.09
448.64	371.52
449.01	370.38
449.37	368.38
449.74	366.46
450.11	364.16
450.48	361.67
450.85	359.10
451.22	356.95
451.59	354.92
451.96	352.96
452.33	350.31
452.70	347.95
453.07	345.05
453.43	342.16
453.80	339.37
454.17	336.63
454.54	334.08
454.91	331.36
455.28	328.62
455.65	326.15
456.02	323.69
456.38	321.54
456.75	318.84
457.12	316.58
457.49	314.37
457.86	312.23
458.23	310.37
458.59	308.31
458.96	306.19
459.33	304.35
459.70	302.51
460.07	301.02
460.43	299.31
460.80	297.73
461.17	296.32
461.54	294.82
461.91	293.43
462.27	292.01
462.64	290.73
463.01	289.40
463.38	288.12
463.74	286.78
464.11	285.59
464.48	284.60
464.85	283.53
465.21	282.66
465.58	281.74
465.95	280.64
466.32	279.75
466.68	278.83
467.05	277.91
467.42	277.02
467.78	276.07
468.15	275.19
468.52	274.49
468.88	273.61
469.25	272.86
469.62	272.25
469.98	271.54
470.35	270.94
470.72	270.33
471.08	269.62
471.45	269.08
471.82	268.55
472.18	267.92
472.55	267.44
472.92	266.90
473.28	266.40
473.65	265.95
474.02	265.48
474.38	265.11
474.75	264.77
475.11	264.41
475.48	264.13
475.85	263.90
476.21	263.68
476.58	263.50
476.94	263.31
477.31	263.14
477.67	263.02
478.04	262.89
478.41	262.81
478.77	262.87
479.14	262.79
479.50	262.80
479.87	262.89
480.23	262.98
480.60	263.10
480.96	263.23
481.33	263.44
481.69	263.68
482.06	263.88
482.42	264.09
482.79	264.31
483.15	264.65
483.52	265.06
483.88	265.39
484.25	265.78
484.61	266.22
484.98	266.68
485.34	267.22
485.71	267.80
486.07	268.40
486.44	268.98
486.80	269.69
487.17	270.43
487.53	271.22
487.90	272.05
488.26	272.93
488.62	273.88
488.99	274.89
489.35	275.92
489.72	277.04
490.08	278.24
490.44	279.53
490.81	280.84
491.17	282.18
491.54	283.67
491.90	285.21
492.26	286.87
492.63	288.59
492.99	290.35
493.36	292.25
493.72	294.28
494.08	296.40
494.45	298.64
494.81	301.02
495.17	303.45
495.54	306.04
495.90	308.75
496.26	311.57
496.63	314.48
496.99	317.58
497.35	320.84
497.72	324.24
498.08	327.73
498.44	331.42
498.80	335.31
499.17	339.33
499.53	343.48
499.89	347.83
500.26	352.29
500.62	356.99
500.98	361.96
501.34	367.08
501.71	372.33
502.07	377.81
502.43	383.39
502.79	389.17
503.16	395.28
503.52	401.51
503.88	407.94
504.24	414.60
504.60	421.51
504.97	428.63
505.33	435.96
505.69	443.71
506.05	451.49
506.41	459.37
506.78	467.58
507.14	476.02
507.50	484.77
507.86	493.80
508.22	503.03
508.59	512.21
508.95	521.83
509.31	531.69
509.67	541.73
510.03	551.95
510.39	562.55
510.75	573.33
511.12	584.33
511.48	595.66
511.84	607.15
512.20	618.66
512.56	630.63
512.92	642.79
513.28	655.01
513.64	667.52
514.00	680.25
514.37	693.08
514.73	706.14
515.09	719.16
515.45	732.54
515.81	746.13
516.17	760.24
516.53	774.36
516.89	788.53
517.25	802.74
517.61	817.24
517.97	831.81
518.33	846.29
518.69	861.04
519.05	875.98
519.41	891.22
519.77	906.81
520.13	922.31
520.49	937.82
520.85	953.39
521.21	969.11
521.57	985.37
521.93	1001.29
522.29	1017.79
522.65	1034.00
523.01	1050.21
523.37	1066.36
523.73	1082.51
524.09	1098.61
524.45	1114.96
524.81	1131.68
525.17	1148.61
525.53	1165.54
525.89	1182.41
526.25	1199.29
526.61	1215.83
526.97	1232.60
527.33	1249.14
527.68	1265.80
528.04	1282.30
528.40	1298.96
528.76	1316.13
529.12	1332.74
529.48	1349.64
529.84	1365.69
530.20	1382.50
530.56	1399.62
530.91	1417.02
531.27	1433.78
531.63	1450.31
531.99	1467.05
532.35	1483.00
532.71	1498.85
533.07	1515.13
533.42	1531.04
533.78	1547.13
534.14	1563.42
534.50	1578.74
534.86	1594.69
535.21	1609.87
535.57	1625.86
535.93	1641.37
536.29	1656.24
536.65	1671.41
537.00	1686.40
537.36	1701.88
537.72	1716.42
538.08	1730.86
538.44	1744.62
538.79	1758.62
539.15	1772.41
539.51	1786.16
539.87	1800.63
540.22	1814.47
540.58	1828.35
540.94	1841.83
541.29	1854.85
541.65	1867.67
542.01	1880.93
542.37	1893.22
542.72	1905.70
543.08	1917.41
543.44	1929.97
543.79	1941.29
544.15	1952.42
544.51	1963.85
544.87	1974.82
545.22	1985.71
545.58	1995.82
545.94	2005.77
546.29	2015.76
546.65	2025.59
547.01	2034.79
547.36	2043.67
547.72	2052.18
548.07	2059.90
548.43	2068.22
548.79	2076.25
549.14	2083.72
549.50	2091.24
549.86	2099.02
550.21	2106.26
550.57	2113.52
550.92	2120.17
551.28	2127.28
551.64	2134.31
551.99	2140.87
552.35	2147.09
552.70	2153.30
553.06	2159.31
553.41	2165.53
553.77	2171.56
554.13	2177.66
554.48	2183.89
554.84	2189.10
555.19	2194.49
555.55	2199.66
555.90	2204.09
556.26	2208.93
556.61	2213.75
556.97	2217.84
557.32	2221.98
557.68	2226.30
558.03	2230.62
558.39	2234.34
558.74	2238.99
559.10	2242.81
559.45	2246.63
559.81	2250.90
560.16	2254.65
560.52	2258.02
560.87	2261.61
561.23	2264.19
561.58	2267.25
561.94	2269.77
562.29	2272.35
562.64	2274.94
563.00	2277.60
563.35	2281.10
563.71	2284.17
564.06	2287.27
564.42	2290.15
564.77	2292.60
565.12	2294.88
565.48	2296.71
565.83	2298.31
566.19	2299.38
566.54	2300.36
566.89	2301.35
567.25	2301.71
567.60	2303.05
567.96	2304.62
568.31	2305.44
568.66	2306.53
569.02	2306.95
569.37	2307.13
569.72	2307.75
570.08	2307.86
570.43	2307.85
570.78	2307.12
571.14	2305.61
571.49	2304.14
571.84	2303.71
572.20	2302.51
572.55	2301.39
572.90	2299.94
573.26	2298.56
573.61	2296.92
573.96	2294.98
574.31	2291.97
574.67	2289.02
575.02	2285.27
575.37	2281.86
575.72	2277.93
576.08	2274.51
576.43	2271.17
576.78	2267.55
577.13	2264.45
577.49	2261.25
577.84	2257.66
578.19	2253.79
578.54	2250.00
578.90	2245.67
579.25	2240.13
579.60	2235.06
579.95	2229.94
580.30	2224.87
580.66	2219.58
581.01	2214.47
581.36	2209.51
581.71	2205.24
582.06	2200.67
582.42	2196.11
582.77	2190.86
583.12	2186.13
583.47	2181.26
583.82	2175.95
584.17	2170.54
584.53	2164.88
584.88	2159.21
585.23	2153.31
585.58	2147.94
585.93	2142.60
586.28	2137.89
586.63	2132.74
586.98	2127.63
587.34	2122.92
587.69	2117.92
588.04	2112.68
588.39	2106.90
588.74	2100.39
589.09	2094.10
589.44	2087.33
589.79	2081.40
590.14	2075.58
590.49	2068.85
590.84	2062.48
591.19	2056.62
591.54	2050.18
591.89	2042.64
592.25	2035.70
592.60	2028.52
592.95	2020.73
593.30	2013.18
593.65	2005.45
594.00	1998.39
594.35	1991.10
594.70	1982.90
595.05	1975.50
595.40	1968.15
595.75	1960.73
596.10	1954.44
596.45	1947.67
596.80	1941.36
597.15	1934.44
597.50	1927.32
597.85	1920.94
598.19	1914.13
598.54	1906.93
598.89	1900.29
599.24	1894.59
599.59	1887.89
599.94	1881.67
600.29	1875.42
600.64	1868.84
600.99	1861.41
601.34	1854.53
601.69	1847.57
602.04	1840.66
602.39	1833.30
602.74	1826.43
603.08	1819.72
603.43	1812.94
603.78	1805.61
604.13	1798.34
604.48	1791.12
604.83	1784.26
605.18	1777.25
605.53	1769.31
605.87	1761.25
606.22	1753.79
606.57	1745.63
606.92	1738.36
607.27	1731.06
607.62	1724.05
607.96	1716.63
608.31	1709.89
608.66	1702.16
609.01	1694.52
609.36	1686.88
609.70	1678.81
610.05	1670.60
610.40	1662.78
610.75	1654.50
611.10	1646.81
611.44	1638.48
611.79	1630.50
612.14	1621.83
612.49	1612.58
612.83	1604.09
613.18	1596.05
613.53	1588.15
613.88	1579.67
614.22	1571.45
614.57	1562.81
614.92	1554.67
615.27	1547.21
615.61	1538.92
615.96	1531.09
616.31	1523.53
616.65	1516.29
617.00	1508.81
617.35	1501.21
617.70	1492.72
618.04	1484.20
618.39	1475.90
618.74	1468.32
619.08	1459.97
619.43	1452.31
619.78	1445.41
620.12	1438.31
620.47	1430.75
620.82	1422.47
621.16	1415.11
621.51	1407.38
621.85	1399.84
622.20	1391.33
622.55	1382.92
622.89	1375.12
623.24	1367.40
623.59	1360.00
623.93	1352.44
624.28	1345.20
624.62	1337.70
624.97	1330.67
625.32	1323.83
625.66	1316.90
626.01	1309.60
626.35	1302.09
626.70	1294.40
627.04	1286.64
627.39	1278.87
627.73	1271.37
628.08	1264.50
628.43	1257.01
628.77	1249.63
629.12	1242.00
629.46	1234.81
629.81	1227.45
630.15	1220.15
630.50	1212.67
630.84	1204.43
631.19	1196.51
631.53	1188.94
631.88	1181.34
632.22	1173.73
632.57	1166.45
632.91	1158.96
633.26	1151.62
633.60	1144.30
633.95	1137.19
634.29	1130.21
634.64	1123.59
634.98	1116.30
635.32	1109.15
635.67	1102.76
636.01	1096.13
636.36	1089.43
636.70	1082.97
637.05	1076.37
637.39	1070.00
637.73	1063.54
638.08	1057.70
638.42	1051.56
638.77	1045.08
639.11	1038.51
639.45	1032.10
639.80	1025.42
640.14	1018.88
640.49	1012.30
640.83	1006.04
641.17	999.82
641.52	993.57
641.86	987.08
642.20	981.15
642.55	974.86
642.89	968.27
643.23	961.75
643.58	955.94
643.92	949.79
644.26	943.74
644.61	937.70
644.95	931.71
645.29	925.07
645.64	918.38
645.98	912.10
646.32	906.20
646.66	900.25
647.01	894.43
647.35	888.76
647.69	882.96
648.04	877.44
648.38	871.65
648.72	865.51
649.06	859.44
649.41	853.63
649.75	847.66
650.09	841.76
650.43	835.95
650.78	829.72
651.12	823.73
651.46	817.97
651.80	812.13
652.14	806.69
652.49	801.33
652.83	796.20
653.17	790.46
653.51	784.80
653.85	779.38
654.20	773.75
654.54	767.81
654.88	762.07
655.22	756.16
655.56	750.53
655.90	745.12
656.25	739.86
656.59	734.45
656.93	729.37
657.27	724.14
657.61	718.75
657.95	713.71
658.29	708.65
658.64	703.44
658.98	698.20
659.32	692.75
659.66	687.53
660.00	682.16
660.34	677.27
660.68	672.35
661.02	667.26
661.36	662.53
661.70	658.00
662.05	653.62
662.39	649.27
662.73	644.77
663.07	640.41
663.41	635.98
663.75	631.53
664.09	626.95
664.43	622.60
664.77	618.45
665.11	614.21
665.45	610.08
665.79	605.97
666.13	601.84
666.47	597.71
666.81	593.61
667.15	589.54
667.49	585.68
667.83	581.84
668.17	577.96
668.51	573.96
668.85	569.94
669.19	566.13
669.53	562.31
669.87	558.41
670.21	554.74
670.55	551.07
670.89	547.62
671.23	544.11
671.57	540.62
671.91	537.14
672.25	533.66
672.58	530.19
672.92	526.87
673.26	523.77
673.60	520.61
673.94	517.44
674.28	514.54
674.62	511.54
674.96	508.47
675.30	505.53
675.64	502.58
675.97	499.81
676.31	496.90
676.65	493.95
676.99	491.27
677.33	488.43
677.67	485.66
678.01	482.64
678.34	479.77
678.68	476.92
679.02	474.02
679.36	471.27
679.70	468.48
680.04	465.69
680.37	462.77
680.71	460.06
681.05	457.47
681.39	454.74
681.73	452.12
682.06	449.57
682.40	447.05
682.74	444.56
683.08	442.06
683.42	439.51
683.75	437.06
684.09	434.54
684.43	432.10
684.77	429.63
685.10	427.32
685.44	425.02
685.78	422.71
686.12	420.50
686.45	418.17
686.79	415.89
687.13	413.72
687.46	411.53
687.80	409.35
688.14	407.14
688.48	405.10
688.81	402.87
689.15	400.74
689.49	398.58
689.82	396.47
690.16	394.35
690.50	392.38
690.83	390.46
691.17	388.52
691.51	386.62
691.84	384.76
692.18	382.81
692.52	380.79
692.85	378.87
693.19	377.04
693.52	375.27
693.86	373.52
694.20	371.68
694.53	369.94
694.87	368.10
695.21	366.30
695.54	364.50
695.88	362.80
696.21	361.06
696.55	359.41
696.88	357.74
697.22	356.09
697.56	354.46
697.89	352.74
698.23	351.11
698.56	349.44
698.90	347.82
699.23	346.18
699.57	344.65
699.90	343.15
700.24	341.56
700.58	340.03
700.91	338.46
701.25	337.04
701.58	335.61
701.92	334.26
702.25	332.90
702.59	331.56
702.92	330.23
703.26	328.95
703.59	327.66
703.93	326.46
704.26	325.24
704.60	323.97
704.93	322.69
705.26	321.47
705.60	320.37
705.93	319.24
706.27	318.20
706.60	317.13
706.94	316.02
707.27	314.93
707.61	313.92
707.94	312.96
708.27	311.86
708.61	310.83
708.94	309.84
709.28	308.89
709.61	307.87
709.94	306.93
710.28	305.91
710.61	304.94
710.95	303.88
711.28	302.93
711.61	301.96
711.95	301.04
712.28	300.03
712.61	299.06
712.95	298.12
713.28	297.24
713.61	296.34
713.95	295.43
714.28	294.56
714.61	293.60
714.95	292.72
715.28	291.87
715.61	290.94
715.95	290.09
716.28	289.24
716.61	288.46
716.95	287.62
717.28	286.92
717.61	286.16
717.94	285.42
718.28	284.64
718.61	283.93
718.94	283.24
719.27	282.63
719.61	281.95
719.94	281.29
720.27	280.56
720.60	279.91
720.94	279.29
721.27	278.70
721.60	278.16
721.93	277.56
722.27	277.03
722.60	276.52
722.93	275.91
723.26	275.37
723.59	274.78
723.93	274.25
724.26	273.68
724.59	273.11
724.92	272.59
725.25	272.09
725.59	271.58
725.92	271.12
726.25	270.59
726.58	270.09
726.91	269.58
727.24	269.13
727.57	268.66
727.91	268.14
728.24	267.68
728.57	267.19
728.90	266.73
729.23	266.21
729.56	265.78
729.89	265.30
730.22	264.82
730.55	264.37
730.89	263.91
731.22	263.46
731.55	263.00
731.88	262.58
732.21	262.17
732.54	261.76
732.87	261.29
733.20	260.91
733.53	260.51
733.86	260.16
734.19	259.77
734.52	259.38
734.85	259.11
735.18	258.73
735.51	258.33
735.84	257.97
736.17	257.64
736.50	257.24
736.83	257.03
737.16	256.67
737.49	256.30
737.82	255.97
738.15	255.61
738.48	255.26
738.81	254.94
739.14	254.60
739.47	254.28
739.80	254.00
740.13	253.68
740.46	253.33
740.79	253.00
741.12	252.66
741.45	252.34
741.78	251.98
742.11	251.64
742.44	251.32
742.77	251.02
743.10	250.72
743.43	250.38
743.75	250.01
744.08	249.88
744.41	249.63
744.74	249.35
745.07	249.09
745.40	248.86
745.73	248.63
746.06	248.34
746.39	248.09
746.71	247.78
747.04	247.50
747.37	247.28
747.70	247.02
748.03	246.79
748.36	246.58
748.68	246.34
749.01	246.13
749.34	245.95
749.67	245.73
750.00	245.55
750.33	245.43
750.65	245.20
750.98	244.87
751.31	244.67
751.64	244.47
751.97	244.30
752.29	244.09
752.62	243.84
752.95	243.67
753.28	243.43
753.60	243.23
753.93	243.07
754.26	242.90
754.59	242.67
754.91	242.47
755.24	242.28
755.57	242.10
755.90	241.92
756.22	241.72
756.55	241.55
756.88	241.33
757.20	241.14
757.53	240.99
757.86	240.82
758.19	240.70
758.51	240.54
758.84	240.33
759.17	240.15
759.49	240.01
759.82	239.91
760.15	239.78
760.47	239.64
760.80	239.48
761.13	239.33
761.45	239.19
761.78	239.05
762.11	238.91
762.43	238.77
762.76	238.62
763.08	238.46
763.41	238.33
763.74	238.20
764.06	238.04
764.39	237.87
764.71	237.72
765.04	237.53
765.37	237.42
765.69	237.30
766.02	237.21
766.34	237.06
766.67	236.87
767.00	236.75
767.32	236.69
767.65	236.62
767.97	236.46
768.30	236.34
768.62	236.22
768.95	236.07
769.27	235.95
769.60	235.85
769.92	235.71
770.25	235.60
770.57	235.46
770.90	235.35
771.22	235.26
771.55	235.17
771.87	235.07
772.20	234.96
772.52	234.94
772.85	234.93
773.17	234.86
773.50	234.76
773.82	234.66
774.15	234.54
774.47	234.38
774.80	234.30
775.12	234.23
775.45	234.16
775.77	234.09
776.09	234.01
776.42	233.94
776.74	233.92
777.07	233.83
777.39	233.76
777.72	233.68
778.04	233.56
778.36	233.49
778.69	233.40
779.01	233.30
779.33	233.13
779.66	232.97
779.98	232.89
780.31	232.82
780.63	232.81
780.95	232.74
781.28	232.70
781.60	232.64
781.92	232.56
782.25	232.49
782.57	232.43
782.89	232.35
783.22	232.29
783.54	232.20
783.86	232.15
784.19	232.07
784.51	232.06
784.83	232.03
785.16	231.96
785.48	231.92
785.80	231.89
786.12	231.87
786.45	231.84
786.77	231.81
787.09	231.77
787.42	231.67
787.74	231.64
788.06	231.60
788.38	231.58
788.71	231.56
789.03	231.52
789.35	231.51
789.67	231.47
789.99	231.43
790.32	231.43
790.64	231.41
790.96	231.44
791.28	231.37
791.61	231.32
791.93	231.32
792.25	231.29
792.57	231.29
792.89	231.26
793.21	231.19
793.54	231.12
793.86	231.07
794.18	231.03
794.50	230.98
794.82	230.94
795.14	230.90
795.47	230.86
795.79	230.87
796.11	230.83
796.43	230.77
796.75	230.75
797.07	230.71
797.39	230.68
797.71	230.61
798.04	230.60
798.36	230.59
798.68	230.54
799.00	230.50
799.32	230.46
799.64	230.42
799.96	230.40
800.28	230.36
800.60	230.33
800.92	230.33
801.24	230.27
801.56	230.25
801.89	230.21
802.21	230.19
802.53	230.15
802.85	230.10
803.17	230.14
803.49	230.06
803.81	230.03
804.13	229.95
804.45	229.93
804.77	229.88
805.09	229.80
805.41	229.79
805.73	229.77
806.05	229.71
806.37	229.71
806.69	229.65
807.01	229.65
807.33	229.66
807.65	229.58
807.97	229.63
808.28	229.58
808.60	229.56
808.92	229.53
809.24	229.53
809.56	229.52
809.88	229.43
810.20	229.46
810.52	229.44
810.84	229.42
811.16	229.39
811.48	229.37
811.80	229.40
812.12	229.35
812.43	229.36
812.75	229.35
813.07	229.30
813.39	229.31
813.71	229.27
814.03	229.22
814.35	229.23
814.67	229.18
814.98	229.16
815.30	229.13
815.62	229.10
815.94	229.02
816.26	229.00
816.58	229.01
816.89	228.98
817.21	228.90
817.53	228.90
817.85	228.84
818.17	228.83
818.48	228.76
818.80	228.79
819.12	228.72
819.44	228.68
819.76	228.64
820.07	228.62
820.39	228.63
820.71	228.60
821.03	228.59
821.34	228.58
821.66	228.58
821.98	228.58
822.30	228.57
822.61	228.60
822.93	228.54
823.25	228.51
823.57	228.50
823.88	228.54
824.20	228.54
824.52	228.58
824.83	228.53
825.15	228.52
825.47	228.49
825.79	228.54
826.10	228.55
826.42	228.53
826.74	228.54
827.05	228.52
827.37	228.53
827.69	228.50
828.00	228.47
828.32	228.48
828.64	228.43
828.95	228.45
829.27	228.44
829.58	228.48
829.90	228.50
830.22	228.50
830.53	228.48
830.85	228.46
831.17	228.46
831.48	228.46
831.80	228.48
832.11	228.47
832.43	228.43
832.75	228.41
833.06	228.49
833.38	228.45
833.69	228.41
834.01	228.40
834.32	228.43
834.64	228.41
834.96	228.40
835.27	228.42
835.59	228.40
835.90	228.35
836.22	228.33
836.53	228.30
836.85	228.29
837.16	228.37
837.48	228.36
837.79	228.40
838.11	228.40
838.42	228.38
838.74	228.39
839.05	228.37
839.37	228.34
839.68	228.26
840.00	228.25
840.31	228.29
840.63	228.28
840.94	228.24
841.26	228.23
841.57	228.21
841.88	228.24
842.20	228.21
842.51	228.17
842.83	228.12
843.14	228.22
843.46	228.18
843.77	228.13
844.08	228.12
844.40	228.03
844.71	228.03
845.03	228.01
845.34	227.97
845.65	227.96
845.97	227.95
846.28	227.93
846.60	227.94
846.91	227.92
847.22	227.90
847.54	227.89
847.85	227.87
848.16	227.85
848.48	227.78
848.79	227.81
849.10	227.84
849.42	227.85
849.73	227.72
850.04	227.69
850.36	227.63
850.67	227.63
850.98	227.64
851.30	227.58
851.61	227.59
851.92	227.55
852.23	227.58
852.55	227.56
852.86	227.55
853.17	227.56
853.49	227.52
853.80	227.52
854.11	227.51
854.42	227.52
854.74	227.46
855.05	227.46
855.36	227.38
855.67	227.39
855.99	227.39
856.30	227.49
856.61	227.47
856.92	227.48
857.23	227.48
857.55	227.48
857.86	227.50
858.17	227.52
858.48	227.52
858.79	227.50
859.11	227.52
859.42	227.55
859.73	227.54
860.04	227.57
860.35	227.55
860.66	227.52
860.98	227.53
861.29	227.58
861.60	227.60
861.91	227.66
862.22	227.63
862.53	227.62
862.84	227.55
863.16	227.63
863.47	227.60
863.78	227.59
864.09	227.61
864.40	227.62
864.71	227.59
865.02	227.61
865.33	227.61
865.64	227.60
865.95	227.61
866.27	227.64
866.58	227.64
866.89	227.66
867.20	227.67
867.51	227.64
867.82	227.66
868.13	227.69
868.44	227.69
868.75	227.75
869.06	227.75
869.37	227.73
869.68	227.70
869.99	227.73
870.30	227.75
870.61	227.74
870.92	227.73
871.23	227.74
871.54	227.76
871.85	227.78
872.16	227.82
872.47	227.82
872.78	227.79
873.09	227.81
873.40	227.82
873.71	227.84
874.02	227.87
874.33	227.85
874.64	227.83
874.95	227.80
875.26	227.76
875.56	227.75
875.87	227.75
876.18	227.73
876.49	227.84
876.80	227.82
877.11	227.79
877.42	227.76
877.73	227.76
878.04	227.73
878.35	227.72
878.66	227.70
878.96	227.66
879.27	227.67
879.58	227.64
879.89	227.62
880.20	227.62
880.51	227.59
880.82	227.56
881.12	227.54
881.43	227.51
881.74	227.47
882.05	227.48
882.36	227.49
882.67	227.47
882.97	227.33
883.28	227.29
883.59	227.31
883.90	227.30
884.21	227.32
884.51	227.30
884.82	227.26
885.13	227.24
885.44	227.22
885.74	227.17
886.05	227.13
886.36	227.10
886.67	227.09
886.98	227.10
887.28	227.07
887.59	227.03
887.90	227.02
888.20	227.02
888.51	227.01
888.82	226.94
889.13	226.96
889.43	227.01
889.74	227.01
890.05	227.00
890.35	227.01
890.66	226.94
890.97	226.91
891.28	226.88
891.58	226.86
891.89	226.84
892.20	226.80
892.50	226.79
892.81	226.78
893.12	226.75
893.42	226.72
893.73	226.74
894.04	226.76
894.34	226.76
894.65	226.75
894.95	226.74
895.26	226.77
895.57	226.79
895.87	226.72
896.18	226.75
896.48	226.77
896.79	226.74
897.10	226.79
897.40	226.84
897.71	226.87
898.01	226.89
898.32	226.93
898.63	226.94
898.93	226.98
899.24	227.00
899.54	227.01
899.85	226.99
900.15	227.00
900.46	227.00
900.76	227.02
901.07	227.04
901.38	227.03
901.68	227.05
901.99	227.02
902.29	227.02
902.60	227.04
902.90	227.05
903.21	227.07
903.51	227.08
903.82	227.10
904.12	227.12
904.43	227.12
904.73	227.09
905.03	227.14
905.34	227.25
905.64	227.24
905.95	227.26
906.25	227.30
906.56	227.32
906.86	227.34
907.17	227.36
907.47	227.34
907.77	227.37
908.08	227.35
908.38	227.39
908.69	227.38
908.99	227.37
909.30	227.37
909.60	227.37
909.90	227.35
910.21	227.35
910.51	227.29
910.81	227.31
911.12	227.35
911.42	227.35
911.73	227.23
912.03	227.23
912.33	227.26
912.64	227.26
912.94	227.26
913.24	227.26
913.55	227.26
913.85	227.28
914.15	227.28
914.46	227.24
914.76	227.20
915.06	227.23
915.37	227.24
915.67	227.20
915.97	227.22
916.27	227.19
916.58	227.17
916.88	227.22
917.18	227.17
917.49	227.21
917.79	227.20
918.09	227.23
918.39	227.24
918.70	227.22
919.00	227.21
919.30	227.26
919.60	227.22
919.91	227.20
920.21	227.21
920.51	227.19
920.81	227.23
921.12	227.23
921.42	227.16
921.72	227.15
922.02	227.15
922.32	227.12
922.63	227.12
922.93	227.17
923.23	227.13
923.53	227.13
923.83	227.06
924.13	227.06
924.44	227.06
924.74	227.07
925.04	227.08
925.34	227.06
925.64	226.98
925.94	226.97
926.24	227.01
926.55	226.99
926.85	226.98
927.15	226.97
927.45	227.00
927.75	227.03
928.05	227.02
928.35	227.01
928.65	227.05
928.95	227.02
929.26	226.96
929.56	227.00
929.86	227.00
930.16	226.97
930.46	226.94
930.76	226.93
931.06	226.91
931.36	226.88
931.66	226.90
931.96	226.93
932.26	226.94
932.56	226.92
932.86	226.93
933.16	226.94
933.46	226.91
933.76	226.90
934.06	226.92
934.36	226.95
934.66	226.96
934.96	226.96
935.26	226.98
935.56	226.99
935.86	226.96
936.16	226.99
936.46	226.98
936.76	227.03
937.06	227.01
937.36	227.00
937.66	227.00
937.96	227.01
938.26	226.99
938.56	227.00
938.86	226.97
939.16	227.02
939.46	227.03
939.76	227.09
940.06	227.09
940.35	227.10
940.65	227.07
940.95	227.08
941.25	227.02
941.55	227.03
941.85	227.07
942.15	227.10
942.45	227.11
942.75	227.14
943.04	227.12
943.34	227.14
943.64	227.16
943.94	227.17
944.24	227.18
944.54	227.20
944.84	227.19
945.13	227.19
945.43	227.18
945.73	227.20
946.03	227.19
946.33	227.20
946.62	227.20
946.92	227.22
947.22	227.22
947.52	227.26
947.82	227.29
948.11	227.28
948.41	227.24
948.71	227.21
949.01	227.26
949.31	227.29
949.60	227.29
949.90	227.28
950.20	227.30
950.50	227.28
950.79	227.25
951.09	227.29
951.39	227.30
951.69	227.28
951.98	227.27
952.28	227.29
952.58	227.28
952.87	227.24
953.17	227.23
953.47	227.23
953.76	227.23
954.06	227.21
954.36	227.20
954.66	227.23
954.95	227.30
955.25	227.25
955.55	227.23
955.84	227.23
956.14	227.25
956.44	227.24
956.73	227.23
957.03	227.23
957.32	227.22
957.62	227.21
957.92	227.23
958.21	227.23
958.51	227.32
958.81	227.31
959.10	227.32
959.40	227.34
959.69	227.33
959.99	227.34
960.29	227.35
960.58	227.31
960.88	227.30
961.17	227.26
961.47	227.27
961.76	227.28
962.06	227.26
962.36	227.24
962.65	227.21
962.95	227.21
963.24	227.21
963.54	227.19
963.83	227.19
964.13	227.13
964.42	227.11
964.72	227.02
965.01	227.01
965.31	227.00
965.60	226.98
965.90	227.03
966.19	227.01
966.49	227.01
966.78	227.03
967.08	227.01
967.37	227.00
967.67	226.96
967.96	226.97
968.26	226.97
968.55	226.96
968.85	226.96
969.14	226.96
969.43	226.95
969.73	226.95
970.02	226.90
970.32	226.90
970.61	226.91
970.91	226.85
971.20	226.84
971.49	226.81
971.79	226.81
972.08	226.74
972.38	226.74
972.67	226.67
972.96	226.67
973.26	226.64
973.55	226.66
973.85	226.66
974.14	226.60
974.43	226.58
974.73	226.57
975.02	226.55
975.31	226.54
975.61	226.54
975.90	226.51
976.19	226.53
976.49	226.58
976.78	226.56
977.07	226.59
977.37	226.58
977.66	226.60
977.95	226.58
978.24	226.56
978.54	226.58
978.83	226.61
979.12	226.64
979.42	226.67
979.71	226.67
980.00	226.68
980.29	226.72
980.59	226.73
980.88	226.77
981.17	226.78
981.46	226.81
981.76	226.83
982.05	226.89
982.34	226.92
982.63	226.91
982.93	226.92
983.22	226.96
983.51	226.97
983.80	227.01
984.09	227.04
984.39	227.04
984.68	227.03
984.97	227.04
985.26	227.04
985.55	227.03
985.85	227.00
986.14	227.03
986.43	227.04
986.72	227.06
987.01	227.02
987.30	227.04
987.59	227.01
987.89	226.98
988.18	226.92
988.47	226.92
988.76	226.91
989.05	226.88
989.34	226.85
989.63	226.84
989.92	226.86
990.22	226.84
990.51	226.83
990.80	226.83
991.09	226.83
991.38	226.85
991.67	226.84
991.96	226.82
992.25	226.77
992.54	226.74
992.83	226.73
993.12	226.73
993.41	226.76
993.70	226.83
993.99	226.87
994.28	226.92
994.58	226.94
994.87	226.91
995.16	226.92
995.45	226.88
995.74	226.88
996.03	226.86
996.32	226.84
996.61	226.87
996.90	226.86
997.19	226.89
997.48	226.86
997.77	226.84
998.06	226.88
998.34	226.88
998.63	226.87
998.92	226.85
999.21	226.86
999.50	226.81
999.79	226.74
1000.08	226.71
1000.37	226.68
1000.66	226.62
1000.95	226.65
1001.24	226.64
1001.53	226.69
1001.82	226.66
1002.11	226.65
1002.40	226.67
1002.68	226.68
1002.97	226.75
1003.26	226.70
1003.55	226.71
1003.84	226.74
1004.13	226.76
1004.42	226.77
1004.71	226.79
1004.99	226.80
1005.28	226.80
1005.57	226.80
1005.86	226.81
1006.15	226.81
1006.44	226.79
1006.72	226.80
1007.01	226.81
1007.30	226.82
1007.59	226.83
1007.88	226.83
1008.17	226.80
1008.45	226.78
1008.74	226.74
1009.03	226.68
1009.32	226.68
1009.60	226.64
1009.89	226.62
1010.18	226.57
1010.47	226.57
1010.76	226.57
1011.04	226.55
1011.33	226.57
1011.62	226.56
1011.91	226.58
1012.19	226.57
1012.48	226.59
1012.77	226.62
1013.05	226.64
1013.34	226.64
1013.63	226.63
1013.92	226.63
1014.20	226.62
1014.49	226.64
1014.78	226.66
1015.06	226.64
1015.35	226.66
1015.64	226.70
1015.92	226.71
1016.21	226.74
1016.50	226.74
1016.78	226.75
1017.07	226.78
1017.36	226.77
1017.64	226.79
1017.93	226.81
1018.22	226.83
1018.50	226.86
1018.79	226.84
1019.08	226.79
1019.36	226.83
1019.65	226.79
1019.93	226.85
1020.22	226.89
1020.51	226.96
1020.79	226.96
1021.08	226.96
1021.36	227.02
1021.65	226.76
1021.94	226.54
1022.22	227.47
1022.51	226.08
1022.79	227.51
1023.08	227.25
1023.36	227.98
1023.65	226.80
>>>>>End Processed Spectral Data<<<<<
