SpectraSuite Data File
++++++++++++++++++++++++++++++++++++
Date: Fri Feb 01 16:35:01 EST 2013
User: group
Dark Spectrum Present: No
Reference Spectrum Present: No
Number of Sampled Component Spectra: 1
Spectrometers: USB2E7196
Integration Time (usec): 35000 (USB2E7196)
Spectra Averaged: 100 (USB2E7196)
Boxcar Smoothing: 10 (USB2E7196)
Correct for Electrical Dark: No (USB2E7196)
Strobe/Lamp Enabled: No (USB2E7196)
Correct for Detector Non-linearity: No (USB2E7196)
Correct for Stray Light: No (USB2E7196)
Number of Pixels in Processed Spectrum: 2048
>>>>>Begin Processed Spectral Data<<<<<
339.09	0.00
339.48	213.65
339.86	215.66
340.24	216.99
340.63	217.96
341.01	220.92
341.39	220.22
341.78	222.34
342.16	223.44
342.54	223.66
342.93	212.26
343.31	222.98
343.69	223.52
344.07	223.98
344.46	224.37
344.84	224.75
345.22	224.99
345.60	225.26
345.99	225.43
346.37	225.57
346.75	225.66
347.13	225.74
347.52	225.82
347.90	225.86
348.28	225.88
348.66	225.94
349.05	225.96
349.43	225.96
349.81	226.02
350.19	226.05
350.57	226.06
350.96	226.13
351.34	226.24
351.72	226.32
352.10	226.40
352.48	226.48
352.87	226.53
353.25	226.55
353.63	226.60
354.01	226.67
354.39	226.72
354.77	226.82
355.15	226.90
355.54	226.92
355.92	226.97
356.30	227.06
356.68	227.20
357.06	227.23
357.44	227.26
357.82	227.31
358.20	227.39
358.58	227.46
358.97	227.53
359.35	227.58
359.73	227.69
360.11	227.76
360.49	227.83
360.87	227.86
361.25	227.92
361.63	228.01
362.01	228.07
362.39	228.11
362.77	228.12
363.15	228.13
363.53	228.17
363.91	228.18
364.29	228.17
364.67	228.06
365.05	228.09
365.43	228.16
365.81	228.18
366.19	228.22
366.57	228.28
366.95	228.25
367.33	228.20
367.71	228.16
368.09	228.10
368.47	228.08
368.85	228.08
369.23	228.12
369.61	228.05
369.99	228.03
370.37	228.01
370.75	228.01
371.13	227.96
371.51	227.87
371.89	227.83
372.27	227.82
372.65	227.79
373.03	227.75
373.41	227.68
373.78	227.63
374.16	227.54
374.54	227.43
374.92	227.37
375.30	227.32
375.68	227.27
376.06	227.28
376.44	227.24
376.82	227.19
377.19	227.14
377.57	227.07
377.95	226.97
378.33	226.89
378.71	226.79
379.09	226.77
379.47	226.74
379.84	226.69
380.22	226.60
380.60	226.55
380.98	226.48
381.36	226.45
381.73	226.38
382.11	226.31
382.49	226.29
382.87	226.25
383.25	226.18
383.62	226.24
384.00	226.13
384.38	226.07
384.76	226.03
385.13	226.00
385.51	226.00
385.89	225.95
386.27	225.92
386.64	225.92
387.02	225.85
387.40	225.79
387.78	225.75
388.15	225.76
388.53	225.72
388.91	225.69
389.29	225.59
389.66	225.58
390.04	225.56
390.42	225.52
390.79	225.51
391.17	225.47
391.55	225.34
391.92	225.35
392.30	225.35
392.68	225.28
393.05	225.25
393.43	225.23
393.81	225.22
394.18	225.21
394.56	225.18
394.94	225.20
395.31	225.22
395.69	225.30
396.06	225.31
396.44	225.35
396.82	225.38
397.19	225.51
397.57	225.53
397.95	225.59
398.32	225.61
398.70	225.64
399.07	225.74
399.45	225.78
399.82	225.84
400.20	225.87
400.58	225.93
400.95	225.98
401.33	226.07
401.70	226.22
402.08	226.32
402.45	226.43
402.83	226.51
403.20	226.62
403.58	226.67
403.95	226.80
404.33	226.91
404.71	227.00
405.08	227.16
405.46	227.32
405.83	227.45
406.21	227.60
406.58	227.79
406.96	227.93
407.33	228.12
407.70	228.32
408.08	228.62
408.45	228.88
408.83	229.09
409.20	229.30
409.58	229.48
409.95	229.72
410.33	229.99
410.70	230.29
411.08	230.60
411.45	230.88
411.82	231.18
412.20	231.54
412.57	231.99
412.95	232.27
413.32	232.67
413.69	233.10
414.07	233.55
414.44	234.01
414.82	234.51
415.19	235.05
415.56	235.58
415.94	236.11
416.31	236.71
416.68	237.33
417.06	238.04
417.43	238.73
417.81	239.51
418.18	240.28
418.55	241.09
418.93	241.95
419.30	242.88
419.67	243.81
420.04	244.73
420.42	245.70
420.79	246.86
421.16	248.00
421.54	249.20
421.91	250.41
422.28	251.66
422.66	252.98
423.03	254.27
423.40	255.63
423.77	257.03
424.15	258.47
424.52	259.98
424.89	261.60
425.26	263.12
425.64	264.54
426.01	266.14
426.38	267.79
426.75	269.46
427.13	271.20
427.50	273.05
427.87	274.96
428.24	276.81
428.61	278.56
428.99	280.48
429.36	282.53
429.73	284.56
430.10	286.55
430.47	288.58
430.85	290.70
431.22	292.91
431.59	295.27
431.96	297.44
432.33	299.89
432.70	302.24
433.08	305.03
433.45	307.66
433.82	310.25
434.19	313.11
434.56	315.93
434.93	318.55
435.30	321.15
435.68	324.03
436.05	326.82
436.42	329.62
436.79	332.12
437.16	334.85
437.53	337.69
437.90	340.49
438.27	343.22
438.64	346.00
439.01	348.58
439.38	350.77
439.75	353.00
440.13	355.52
440.50	357.86
440.87	359.69
441.24	361.63
441.61	363.75
441.98	365.27
442.35	367.06
442.72	368.91
443.09	370.68
443.46	371.63
443.83	372.26
444.20	372.75
444.57	373.59
444.94	373.85
445.31	374.18
445.68	374.53
446.05	374.62
446.42	374.27
446.79	373.81
447.16	373.38
447.53	373.06
447.90	371.87
448.27	370.73
448.64	369.18
449.01	368.06
449.37	366.13
449.74	364.17
450.11	361.94
450.48	359.45
450.85	356.90
451.22	354.77
451.59	352.77
451.96	350.79
452.33	348.21
452.70	345.87
453.07	343.05
453.43	340.15
453.80	337.41
454.17	334.75
454.54	332.26
454.91	329.60
455.28	326.95
455.65	324.47
456.02	322.02
456.38	319.88
456.75	317.19
457.12	314.97
457.49	312.80
457.86	310.62
458.23	308.78
458.59	306.75
458.96	304.68
459.33	302.81
459.70	301.00
460.07	299.49
460.43	297.81
460.80	296.22
461.17	294.80
461.54	293.32
461.91	291.90
462.27	290.43
462.64	289.18
463.01	287.83
463.38	286.57
463.74	285.22
464.11	284.07
464.48	283.08
464.85	281.97
465.21	281.12
465.58	280.20
465.95	279.10
466.32	278.29
466.68	277.38
467.05	276.48
467.42	275.58
467.78	274.70
468.15	273.80
468.52	273.13
468.88	272.31
469.25	271.54
469.62	270.93
469.98	270.29
470.35	269.68
470.72	269.07
471.08	268.44
471.45	267.97
471.82	267.41
472.18	266.82
472.55	266.38
472.92	265.86
473.28	265.42
473.65	264.97
474.02	264.47
474.38	264.15
474.75	263.83
475.11	263.45
475.48	263.19
475.85	262.96
476.21	262.75
476.58	262.54
476.94	262.38
477.31	262.22
477.67	262.06
478.04	261.96
478.41	261.94
478.77	261.95
479.14	261.83
479.50	261.86
479.87	261.95
480.23	262.02
480.60	262.08
480.96	262.18
481.33	262.38
481.69	262.60
482.06	262.79
482.42	263.03
482.79	263.34
483.15	263.65
483.52	264.04
483.88	264.38
484.25	264.78
484.61	265.20
484.98	265.63
485.34	266.21
485.71	266.74
486.07	267.31
486.44	267.87
486.80	268.59
487.17	269.35
487.53	270.15
487.90	271.02
488.26	271.97
488.62	272.96
488.99	273.96
489.35	274.98
489.72	276.11
490.08	277.33
490.44	278.58
490.81	279.87
491.17	281.25
491.54	282.75
491.90	284.28
492.26	285.93
492.63	287.68
492.99	289.48
493.36	291.40
493.72	293.45
494.08	295.57
494.45	297.84
494.81	300.18
495.17	302.62
495.54	305.25
495.90	307.94
496.26	310.75
496.63	313.73
496.99	316.89
497.35	320.17
497.72	323.62
498.08	327.14
498.44	330.88
498.80	334.83
499.17	338.87
499.53	343.06
499.89	347.44
500.26	351.95
500.62	356.60
500.98	361.58
501.34	366.70
501.71	372.09
502.07	377.51
502.43	383.16
502.79	388.98
503.16	395.01
503.52	401.31
503.88	407.75
504.24	414.35
504.60	421.25
504.97	428.34
505.33	435.59
505.69	443.28
506.05	451.07
506.41	458.93
506.78	467.04
507.14	475.54
507.50	484.32
507.86	493.41
508.22	502.65
508.59	511.88
508.95	521.41
509.31	531.15
509.67	541.33
510.03	551.61
510.39	562.17
510.75	572.90
511.12	583.82
511.48	595.11
511.84	606.60
512.20	618.04
512.56	629.97
512.92	642.19
513.28	654.57
513.64	667.01
514.00	679.69
514.37	692.70
514.73	705.74
515.09	718.67
515.45	731.93
515.81	745.45
516.17	759.42
516.53	773.53
516.89	787.71
517.25	801.73
517.61	816.06
517.97	830.47
518.33	844.94
518.69	859.67
519.05	874.56
519.41	889.72
519.77	905.24
520.13	920.64
520.49	935.99
520.85	951.25
521.21	966.87
521.57	983.06
521.93	998.71
522.29	1014.93
522.65	1031.16
523.01	1047.31
523.37	1063.28
523.73	1079.27
524.09	1095.32
524.45	1111.50
524.81	1128.17
525.17	1144.92
525.53	1161.68
525.89	1178.53
526.25	1195.33
526.61	1211.83
526.97	1228.50
527.33	1244.87
527.68	1261.49
528.04	1277.84
528.40	1294.31
528.76	1311.25
529.12	1327.71
529.48	1344.47
529.84	1360.45
530.20	1377.05
530.56	1393.86
530.91	1411.19
531.27	1427.93
531.63	1444.19
531.99	1460.68
532.35	1476.66
532.71	1492.44
533.07	1508.58
533.42	1524.28
533.78	1540.16
534.14	1556.16
534.50	1571.30
534.86	1587.07
535.21	1602.06
535.57	1617.82
535.93	1633.25
536.29	1647.95
536.65	1662.85
537.00	1677.36
537.36	1692.46
537.72	1706.73
538.08	1720.94
538.44	1734.49
538.79	1748.16
539.15	1761.56
539.51	1775.04
539.87	1788.94
540.22	1802.42
540.58	1815.90
540.94	1828.90
541.29	1841.47
541.65	1853.92
542.01	1866.94
542.37	1879.21
542.72	1891.40
543.08	1903.04
543.44	1915.33
543.79	1926.39
544.15	1937.29
544.51	1948.91
544.87	1959.79
545.22	1970.61
545.58	1980.79
545.94	1990.43
546.29	2000.35
546.65	2010.30
547.01	2019.66
547.36	2028.51
547.72	2037.09
548.07	2045.19
548.43	2053.36
548.79	2061.39
549.14	2069.05
549.50	2076.30
549.86	2083.78
550.21	2091.20
550.57	2098.38
550.92	2105.00
551.28	2112.14
551.64	2119.14
551.99	2125.53
552.35	2131.83
552.70	2137.87
553.06	2143.93
553.41	2150.50
553.77	2156.34
554.13	2162.36
554.48	2168.31
554.84	2173.72
555.19	2178.91
555.55	2184.10
555.90	2188.79
556.26	2193.85
556.61	2198.55
556.97	2203.01
557.32	2207.31
557.68	2211.33
558.03	2215.51
558.39	2219.05
558.74	2223.61
559.10	2227.68
559.45	2231.35
559.81	2235.46
560.16	2239.32
560.52	2242.56
560.87	2245.83
561.23	2248.49
561.58	2251.38
561.94	2254.08
562.29	2256.33
562.64	2259.18
563.00	2261.61
563.35	2264.98
563.71	2268.01
564.06	2271.15
564.42	2274.08
564.77	2276.60
565.12	2279.02
565.48	2281.04
565.83	2283.19
566.19	2284.61
566.54	2285.33
566.89	2286.63
567.25	2287.43
567.60	2288.78
567.96	2290.49
568.31	2291.36
568.66	2292.71
569.02	2293.57
569.37	2293.93
569.72	2295.08
570.08	2295.30
570.43	2295.33
570.78	2294.90
571.14	2293.30
571.49	2292.02
571.84	2291.54
572.20	2290.41
572.55	2289.35
572.90	2287.76
573.26	2286.27
573.61	2284.41
573.96	2283.04
574.31	2280.24
574.67	2277.23
575.02	2273.74
575.37	2270.32
575.72	2266.74
576.08	2263.15
576.43	2259.63
576.78	2256.01
577.13	2252.63
577.49	2249.26
577.84	2246.10
578.19	2242.31
578.54	2238.99
578.90	2234.78
579.25	2229.53
579.60	2224.68
579.95	2219.69
580.30	2214.69
580.66	2209.58
581.01	2204.89
581.36	2199.84
581.71	2195.66
582.06	2191.39
582.42	2186.92
582.77	2181.82
583.12	2177.37
583.47	2173.03
583.82	2168.35
584.17	2163.15
584.53	2157.85
584.88	2152.55
585.23	2146.81
585.58	2141.52
585.93	2135.97
586.28	2131.29
586.63	2126.18
586.98	2121.08
587.34	2116.44
587.69	2111.63
588.04	2106.58
588.39	2100.85
588.74	2094.48
589.09	2088.35
589.44	2081.61
589.79	2075.51
590.14	2069.80
590.49	2063.15
590.84	2056.71
591.19	2050.57
591.54	2044.20
591.89	2037.11
592.25	2030.46
592.60	2023.21
592.95	2015.60
593.30	2008.49
593.65	2000.90
594.00	1993.83
594.35	1986.72
594.70	1978.66
595.05	1971.76
595.40	1964.44
595.75	1957.15
596.10	1951.02
596.45	1944.43
596.80	1938.40
597.15	1931.93
597.50	1925.21
597.85	1918.81
598.19	1912.26
598.54	1905.35
598.89	1898.85
599.24	1892.79
599.59	1886.14
599.94	1879.93
600.29	1873.69
600.64	1866.92
600.99	1859.68
601.34	1852.96
601.69	1845.95
602.04	1839.33
602.39	1831.96
602.74	1825.26
603.08	1818.59
603.43	1811.81
603.78	1804.56
604.13	1797.20
604.48	1790.01
604.83	1783.11
605.18	1776.37
605.53	1768.46
605.87	1760.39
606.22	1753.02
606.57	1745.00
606.92	1737.44
607.27	1730.33
607.62	1723.41
607.96	1716.28
608.31	1709.68
608.66	1702.13
609.01	1694.70
609.36	1687.14
609.70	1679.06
610.05	1670.87
610.40	1663.16
610.75	1654.90
611.10	1647.07
611.44	1638.57
611.79	1630.56
612.14	1621.86
612.49	1612.55
612.83	1604.14
613.18	1596.15
613.53	1588.12
613.88	1579.76
614.22	1571.68
614.57	1563.05
614.92	1555.08
615.27	1547.71
615.61	1539.43
615.96	1531.40
616.31	1523.69
616.65	1516.30
617.00	1508.86
617.35	1501.30
617.70	1493.05
618.04	1484.59
618.39	1476.39
618.74	1469.05
619.08	1460.84
619.43	1453.23
619.78	1446.30
620.12	1439.15
620.47	1431.55
620.82	1423.39
621.16	1415.83
621.51	1408.25
621.85	1400.65
622.20	1392.19
622.55	1383.69
622.89	1375.77
623.24	1368.13
623.59	1360.75
623.93	1353.20
624.28	1345.98
624.62	1338.48
624.97	1331.33
625.32	1324.44
625.66	1317.41
626.01	1310.16
626.35	1302.83
626.70	1295.08
627.04	1287.43
627.39	1279.59
627.73	1272.14
628.08	1265.30
628.43	1258.19
628.77	1250.79
629.12	1243.23
629.46	1236.07
629.81	1228.57
630.15	1221.33
630.50	1213.98
630.84	1205.93
631.19	1197.94
631.53	1190.36
631.88	1182.63
632.22	1174.97
632.57	1167.75
632.91	1160.30
633.26	1152.90
633.60	1145.35
633.95	1138.08
634.29	1130.92
634.64	1124.22
634.98	1116.94
635.32	1109.74
635.67	1102.95
636.01	1096.32
636.36	1089.49
636.70	1082.93
637.05	1076.44
637.39	1070.00
637.73	1063.48
638.08	1057.46
638.42	1051.54
638.77	1045.07
639.11	1038.66
639.45	1032.23
639.80	1025.55
640.14	1019.14
640.49	1012.56
640.83	1006.15
641.17	1000.16
641.52	993.93
641.86	987.46
642.20	981.63
642.55	975.25
642.89	968.88
643.23	962.18
643.58	956.52
643.92	950.26
644.26	944.19
644.61	938.12
644.95	932.12
645.29	925.55
645.64	918.83
645.98	912.50
646.32	906.57
646.66	900.54
647.01	894.74
647.35	889.02
647.69	883.10
648.04	877.62
648.38	871.82
648.72	865.87
649.06	859.87
649.41	853.90
649.75	847.97
650.09	842.04
650.43	836.37
650.78	830.18
651.12	824.29
651.46	818.59
651.80	812.99
652.14	807.58
652.49	802.14
652.83	796.83
653.17	791.23
653.51	785.58
653.85	780.19
654.20	774.58
654.54	768.60
654.88	762.91
655.22	756.99
655.56	751.17
655.90	745.68
656.25	740.42
656.59	735.06
656.93	730.04
657.27	724.91
657.61	719.51
657.95	714.46
658.29	709.28
658.64	704.00
658.98	698.53
659.32	693.00
659.66	687.93
660.00	682.73
660.34	677.70
660.68	672.77
661.02	667.74
661.36	662.99
661.70	658.44
662.05	654.10
662.39	649.88
662.73	645.45
663.07	641.07
663.41	636.61
663.75	632.22
664.09	627.60
664.43	623.13
664.77	619.01
665.11	614.75
665.45	610.66
665.79	606.64
666.13	602.54
666.47	598.47
666.81	594.28
667.15	590.16
667.49	586.29
667.83	582.38
668.17	578.42
668.51	574.39
668.85	570.37
669.19	566.53
669.53	562.65
669.87	558.84
670.21	555.06
670.55	551.38
670.89	547.87
671.23	544.41
671.57	540.85
671.91	537.33
672.25	533.73
672.58	530.28
672.92	526.84
673.26	523.67
673.60	520.50
673.94	517.39
674.28	514.40
674.62	511.43
674.96	508.33
675.30	505.44
675.64	502.51
675.97	499.73
676.31	496.84
676.65	493.89
676.99	491.12
677.33	488.27
677.67	485.50
678.01	482.44
678.34	479.47
678.68	476.68
679.02	473.87
679.36	471.15
679.70	468.38
680.04	465.62
680.37	462.71
680.71	459.88
681.05	457.26
681.39	454.57
681.73	451.87
682.06	449.36
682.40	446.75
682.74	444.18
683.08	441.62
683.42	438.96
683.75	436.44
684.09	433.89
684.43	431.50
684.77	428.98
685.10	426.62
685.44	424.28
685.78	421.96
686.12	419.63
686.45	417.36
686.79	415.03
687.13	412.81
687.46	410.67
687.80	408.53
688.14	406.30
688.48	404.26
688.81	402.06
689.15	399.92
689.49	397.81
689.82	395.71
690.16	393.62
690.50	391.73
690.83	389.79
691.17	387.74
691.51	385.79
691.84	384.01
692.18	382.10
692.52	380.16
692.85	378.17
693.19	376.32
693.52	374.42
693.86	372.62
694.20	370.85
694.53	369.10
694.87	367.28
695.21	365.45
695.54	363.63
695.88	361.87
696.21	360.13
696.55	358.44
696.88	356.73
697.22	355.04
697.56	353.38
697.89	351.76
698.23	350.24
698.56	348.63
698.90	347.04
699.23	345.40
699.57	343.87
699.90	342.33
700.24	340.78
700.58	339.27
700.91	337.77
701.25	336.30
701.58	334.89
701.92	333.53
702.25	332.18
702.59	330.80
702.92	329.47
703.26	328.17
703.59	326.90
703.93	325.76
704.26	324.55
704.60	323.27
704.93	321.95
705.26	320.69
705.60	319.49
705.93	318.30
706.27	317.26
706.60	316.17
706.94	315.09
707.27	313.99
707.61	312.94
707.94	311.91
708.27	310.81
708.61	309.70
708.94	308.70
709.28	307.72
709.61	306.80
709.94	305.86
710.28	304.86
710.61	303.90
710.95	302.82
711.28	301.87
711.61	300.92
711.95	300.05
712.28	299.12
712.61	298.18
712.95	297.29
713.28	296.34
713.61	295.45
713.95	294.56
714.28	293.72
714.61	292.84
714.95	292.00
715.28	291.22
715.61	290.35
715.95	289.45
716.28	288.61
716.61	287.75
716.95	286.92
717.28	286.15
717.61	285.35
717.94	284.61
718.28	283.82
718.61	283.09
718.94	282.38
719.27	281.69
719.61	281.02
719.94	280.37
720.27	279.71
720.60	279.05
720.94	278.46
721.27	277.89
721.60	277.31
721.93	276.73
722.27	276.14
722.60	275.61
722.93	275.10
723.26	274.54
723.59	273.99
723.93	273.46
724.26	272.93
724.59	272.34
724.92	271.78
725.25	271.31
725.59	270.79
725.92	270.29
726.25	269.78
726.58	269.28
726.91	268.74
727.24	268.29
727.57	267.83
727.91	267.28
728.24	266.78
728.57	266.30
728.90	265.81
729.23	265.32
729.56	264.88
729.89	264.36
730.22	263.89
730.55	263.41
730.89	262.93
731.22	262.46
731.55	262.05
731.88	261.61
732.21	261.15
732.54	260.73
732.87	260.26
733.20	259.85
733.53	259.43
733.86	259.05
734.19	258.66
734.52	258.25
734.85	257.93
735.18	257.52
735.51	257.14
735.84	256.76
736.17	256.41
736.50	256.02
736.83	255.83
737.16	255.50
737.49	255.19
737.82	254.85
738.15	254.51
738.48	254.19
738.81	253.88
739.14	253.57
739.47	253.28
739.80	252.97
740.13	252.63
740.46	252.32
740.79	251.99
741.12	251.70
741.45	251.40
741.78	251.09
742.11	250.80
742.44	250.51
742.77	250.22
743.10	249.89
743.43	249.57
743.75	249.15
744.08	249.00
744.41	248.71
744.74	248.46
745.07	248.16
745.40	247.89
745.73	247.67
746.06	247.37
746.39	247.05
746.71	246.80
747.04	246.57
747.37	246.34
747.70	246.09
748.03	245.83
748.36	245.59
748.68	245.34
749.01	245.06
749.34	244.85
749.67	244.62
750.00	244.44
750.33	244.28
750.65	244.06
750.98	243.74
751.31	243.51
751.64	243.31
751.97	243.16
752.29	242.94
752.62	242.65
752.95	242.48
753.28	242.30
753.60	242.10
753.93	241.93
754.26	241.72
754.59	241.48
754.91	241.27
755.24	241.06
755.57	240.87
755.90	240.73
756.22	240.50
756.55	240.30
756.88	240.11
757.20	239.91
757.53	239.73
757.86	239.54
758.19	239.39
758.51	239.20
758.84	238.99
759.17	238.81
759.49	238.68
759.82	238.58
760.15	238.42
760.47	238.27
760.80	238.13
761.13	238.01
761.45	237.90
761.78	237.77
762.11	237.66
762.43	237.55
762.76	237.39
763.08	237.29
763.41	237.18
763.74	237.04
764.06	236.91
764.39	236.77
764.71	236.66
765.04	236.54
765.37	236.41
765.69	236.29
766.02	236.19
766.34	236.05
766.67	235.90
767.00	235.82
767.32	235.75
767.65	235.69
767.97	235.58
768.30	235.48
768.62	235.33
768.95	235.21
769.27	235.10
769.60	234.98
769.92	234.88
770.25	234.76
770.57	234.66
770.90	234.54
771.22	234.46
771.55	234.34
771.87	234.23
772.20	234.13
772.52	234.11
772.85	234.10
773.17	234.03
773.50	233.92
773.82	233.78
774.15	233.67
774.47	233.54
774.80	233.40
775.12	233.33
775.45	233.27
775.77	233.21
776.09	233.12
776.42	233.06
776.74	232.99
777.07	232.88
777.39	232.81
777.72	232.74
778.04	232.68
778.36	232.62
778.69	232.57
779.01	232.52
779.33	232.37
779.66	232.22
779.98	232.16
780.31	232.12
780.63	232.11
780.95	232.05
781.28	231.96
781.60	231.88
781.92	231.82
782.25	231.77
782.57	231.68
782.89	231.59
783.22	231.51
783.54	231.43
783.86	231.40
784.19	231.31
784.51	231.27
784.83	231.21
785.16	231.14
785.48	231.08
785.80	231.03
786.12	231.00
786.45	230.93
786.77	230.85
787.09	230.81
787.42	230.70
787.74	230.65
788.06	230.62
788.38	230.58
788.71	230.50
789.03	230.48
789.35	230.46
789.67	230.43
789.99	230.36
790.32	230.33
790.64	230.30
790.96	230.31
791.28	230.25
791.61	230.19
791.93	230.16
792.25	230.09
792.57	230.11
792.89	230.05
793.21	230.00
793.54	229.96
793.86	229.87
794.18	229.88
794.50	229.80
794.82	229.73
795.14	229.73
795.47	229.73
795.79	229.67
796.11	229.60
796.43	229.54
796.75	229.51
797.07	229.45
797.39	229.40
797.71	229.31
798.04	229.24
798.36	229.22
798.68	229.18
799.00	229.18
799.32	229.08
799.64	229.06
799.96	229.03
800.28	229.01
800.60	229.00
800.92	228.92
801.24	228.90
801.56	228.90
801.89	228.86
802.21	228.81
802.53	228.76
802.85	228.76
803.17	228.78
803.49	228.73
803.81	228.72
804.13	228.69
804.45	228.62
804.77	228.61
805.09	228.53
805.41	228.47
805.73	228.42
806.05	228.38
806.37	228.36
806.69	228.35
807.01	228.28
807.33	228.24
807.65	228.21
807.97	228.20
808.28	228.14
808.60	228.12
808.92	228.07
809.24	228.09
809.56	228.05
809.88	227.97
810.20	227.96
810.52	227.93
810.84	227.90
811.16	227.88
811.48	227.85
811.80	227.85
812.12	227.85
812.43	227.84
812.75	227.79
813.07	227.74
813.39	227.74
813.71	227.74
814.03	227.70
814.35	227.68
814.67	227.65
814.98	227.61
815.30	227.57
815.62	227.50
815.94	227.42
816.26	227.43
816.58	227.42
816.89	227.42
817.21	227.38
817.53	227.36
817.85	227.35
818.17	227.32
818.48	227.32
818.80	227.34
819.12	227.31
819.44	227.31
819.76	227.26
820.07	227.23
820.39	227.22
820.71	227.20
821.03	227.21
821.34	227.18
821.66	227.18
821.98	227.17
822.30	227.18
822.61	227.22
822.93	227.18
823.25	227.17
823.57	227.12
823.88	227.15
824.20	227.13
824.52	227.14
824.83	227.14
825.15	227.11
825.47	227.07
825.79	227.05
826.10	227.04
826.42	227.06
826.74	227.06
827.05	227.03
827.37	227.03
827.69	227.01
828.00	226.99
828.32	226.98
828.64	226.95
828.95	227.02
829.27	226.99
829.58	226.98
829.90	227.01
830.22	227.00
830.53	226.97
830.85	226.98
831.17	226.97
831.48	226.96
831.80	226.95
832.11	226.97
832.43	226.99
832.75	226.95
833.06	227.00
833.38	226.99
833.69	226.98
834.01	226.99
834.32	227.02
834.64	227.03
834.96	227.01
835.27	227.03
835.59	227.00
835.90	226.98
836.22	227.00
836.53	226.97
836.85	226.97
837.16	227.04
837.48	227.05
837.79	227.09
838.11	227.10
838.42	227.11
838.74	227.11
839.05	227.09
839.37	227.10
839.68	227.05
840.00	226.99
840.31	227.01
840.63	227.00
840.94	226.95
841.26	226.94
841.57	226.95
841.88	226.93
842.20	226.94
842.51	226.89
842.83	226.88
843.14	226.94
843.46	226.95
843.77	226.90
844.08	226.88
844.40	226.80
844.71	226.78
845.03	226.77
845.34	226.74
845.65	226.73
845.97	226.76
846.28	226.76
846.60	226.78
846.91	226.75
847.22	226.74
847.54	226.79
847.85	226.77
848.16	226.76
848.48	226.76
848.79	226.76
849.10	226.80
849.42	226.80
849.73	226.70
850.04	226.70
850.36	226.66
850.67	226.71
850.98	226.71
851.30	226.71
851.61	226.71
851.92	226.69
852.23	226.69
852.55	226.69
852.86	226.68
853.17	226.71
853.49	226.74
853.80	226.76
854.11	226.70
854.42	226.73
854.74	226.71
855.05	226.71
855.36	226.62
855.67	226.60
855.99	226.57
856.30	226.71
856.61	226.70
856.92	226.70
857.23	226.66
857.55	226.67
857.86	226.66
858.17	226.65
858.48	226.66
858.79	226.63
859.11	226.63
859.42	226.63
859.73	226.63
860.04	226.59
860.35	226.56
860.66	226.55
860.98	226.53
861.29	226.56
861.60	226.54
861.91	226.59
862.22	226.57
862.53	226.57
862.84	226.43
863.16	226.43
863.47	226.39
863.78	226.39
864.09	226.41
864.40	226.40
864.71	226.41
865.02	226.38
865.33	226.39
865.64	226.36
865.95	226.31
866.27	226.36
866.58	226.38
866.89	226.39
867.20	226.39
867.51	226.34
867.82	226.32
868.13	226.39
868.44	226.35
868.75	226.36
869.06	226.33
869.37	226.34
869.68	226.30
869.99	226.33
870.30	226.36
870.61	226.33
870.92	226.34
871.23	226.32
871.54	226.35
871.85	226.36
872.16	226.36
872.47	226.36
872.78	226.27
873.09	226.29
873.40	226.26
873.71	226.27
874.02	226.29
874.33	226.28
874.64	226.21
874.95	226.27
875.26	226.24
875.56	226.28
875.87	226.27
876.18	226.28
876.49	226.37
876.80	226.34
877.11	226.35
877.42	226.32
877.73	226.33
878.04	226.30
878.35	226.31
878.66	226.30
878.96	226.31
879.27	226.31
879.58	226.31
879.89	226.31
880.20	226.34
880.51	226.36
880.82	226.34
881.12	226.38
881.43	226.30
881.74	226.31
882.05	226.29
882.36	226.34
882.67	226.33
882.97	226.21
883.28	226.21
883.59	226.21
883.90	226.25
884.21	226.28
884.51	226.30
884.82	226.25
885.13	226.27
885.44	226.25
885.74	226.26
886.05	226.26
886.36	226.28
886.67	226.23
886.98	226.27
887.28	226.31
887.59	226.28
887.90	226.32
888.20	226.31
888.51	226.32
888.82	226.28
889.13	226.31
889.43	226.41
889.74	226.41
890.05	226.43
890.35	226.41
890.66	226.39
890.97	226.37
891.28	226.38
891.58	226.41
891.89	226.45
892.20	226.45
892.50	226.43
892.81	226.41
893.12	226.41
893.42	226.34
893.73	226.31
894.04	226.35
894.34	226.37
894.65	226.38
894.95	226.39
895.26	226.41
895.57	226.46
895.87	226.38
896.18	226.38
896.48	226.37
896.79	226.36
897.10	226.36
897.40	226.37
897.71	226.36
898.01	226.33
898.32	226.31
898.63	226.29
898.93	226.30
899.24	226.29
899.54	226.29
899.85	226.33
900.15	226.35
900.46	226.32
900.76	226.32
901.07	226.30
901.38	226.28
901.68	226.28
901.99	226.20
902.29	226.19
902.60	226.17
902.90	226.15
903.21	226.14
903.51	226.15
903.82	226.16
904.12	226.19
904.43	226.19
904.73	226.17
905.03	226.16
905.34	226.24
905.64	226.23
905.95	226.24
906.25	226.22
906.56	226.19
906.86	226.18
907.17	226.18
907.47	226.19
907.77	226.20
908.08	226.18
908.38	226.19
908.69	226.19
908.99	226.19
909.30	226.15
909.60	226.16
909.90	226.13
910.21	226.11
910.51	226.07
910.81	226.05
911.12	226.07
911.42	226.08
911.73	226.01
912.03	226.02
912.33	225.99
912.64	226.02
912.94	226.00
913.24	225.98
913.55	225.95
913.85	225.95
914.15	225.93
914.46	225.91
914.76	225.86
915.06	225.87
915.37	225.89
915.67	225.92
915.97	225.90
916.27	225.91
916.58	225.93
916.88	225.91
917.18	225.91
917.49	225.99
917.79	225.98
918.09	225.98
918.39	226.02
918.70	226.03
919.00	226.02
919.30	226.07
919.60	226.07
919.91	226.05
920.21	226.04
920.51	226.07
920.81	226.07
921.12	226.13
921.42	226.10
921.72	226.09
922.02	226.10
922.32	226.13
922.63	226.12
922.93	226.15
923.23	226.18
923.53	226.16
923.83	226.09
924.13	226.12
924.44	226.12
924.74	226.16
925.04	226.20
925.34	226.18
925.64	226.14
925.94	226.17
926.24	226.23
926.55	226.21
926.85	226.20
927.15	226.20
927.45	226.21
927.75	226.18
928.05	226.18
928.35	226.15
928.65	226.16
928.95	226.15
929.26	226.14
929.56	226.16
929.86	226.18
930.16	226.14
930.46	226.11
930.76	226.11
931.06	226.05
931.36	226.02
931.66	226.03
931.96	226.04
932.26	226.03
932.56	225.99
932.86	226.02
933.16	226.00
933.46	226.00
933.76	225.96
934.06	226.01
934.36	226.04
934.66	226.02
934.96	226.02
935.26	226.06
935.56	226.05
935.86	226.03
936.16	226.01
936.46	226.03
936.76	226.03
937.06	226.01
937.36	226.02
937.66	226.04
937.96	226.05
938.26	226.02
938.56	226.01
938.86	226.02
939.16	226.02
939.46	226.04
939.76	226.03
940.06	226.01
940.35	225.97
940.65	225.92
940.95	225.96
941.25	225.93
941.55	225.88
941.85	225.88
942.15	225.92
942.45	225.91
942.75	225.91
943.04	225.92
943.34	225.92
943.64	225.90
943.94	225.86
944.24	225.85
944.54	225.87
944.84	225.86
945.13	225.86
945.43	225.84
945.73	225.84
946.03	225.85
946.33	225.86
946.62	225.88
946.92	225.84
947.22	225.83
947.52	225.85
947.82	225.88
948.11	225.82
948.41	225.73
948.71	225.73
949.01	225.73
949.31	225.72
949.60	225.72
949.90	225.69
950.20	225.64
950.50	225.62
950.79	225.62
951.09	225.61
951.39	225.58
951.69	225.57
951.98	225.56
952.28	225.56
952.58	225.56
952.87	225.56
953.17	225.58
953.47	225.56
953.76	225.53
954.06	225.50
954.36	225.54
954.66	225.60
954.95	225.61
955.25	225.62
955.55	225.62
955.84	225.61
956.14	225.63
956.44	225.66
956.73	225.65
957.03	225.65
957.32	225.65
957.62	225.68
957.92	225.68
958.21	225.69
958.51	225.79
958.81	225.77
959.10	225.80
959.40	225.84
959.69	225.83
959.99	225.89
960.29	225.88
960.58	225.87
960.88	225.88
961.17	225.88
961.47	225.88
961.76	225.86
962.06	225.87
962.36	225.89
962.65	225.90
962.95	225.90
963.24	225.87
963.54	225.91
963.83	225.90
964.13	225.93
964.42	225.90
964.72	225.85
965.01	225.89
965.31	225.86
965.60	225.82
965.90	225.90
966.19	225.84
966.49	225.87
966.78	225.88
967.08	225.87
967.37	225.85
967.67	225.84
967.96	225.85
968.26	225.87
968.55	225.86
968.85	225.88
969.14	225.91
969.43	225.94
969.73	225.89
970.02	225.87
970.32	225.86
970.61	225.87
970.91	225.83
971.20	225.80
971.49	225.79
971.79	225.84
972.08	225.77
972.38	225.81
972.67	225.81
972.96	225.86
973.26	225.82
973.55	225.87
973.85	225.87
974.14	225.87
974.43	225.87
974.73	225.87
975.02	225.85
975.31	225.84
975.61	225.83
975.90	225.84
976.19	225.87
976.49	225.85
976.78	225.86
977.07	225.85
977.37	225.85
977.66	225.88
977.95	225.83
978.24	225.84
978.54	225.82
978.83	225.81
979.12	225.78
979.42	225.80
979.71	225.76
980.00	225.74
980.29	225.77
980.59	225.73
980.88	225.73
981.17	225.74
981.46	225.73
981.76	225.69
982.05	225.71
982.34	225.71
982.63	225.69
982.93	225.70
983.22	225.73
983.51	225.75
983.80	225.74
984.09	225.76
984.39	225.77
984.68	225.78
984.97	225.78
985.26	225.76
985.55	225.77
985.85	225.76
986.14	225.82
986.43	225.81
986.72	225.80
987.01	225.77
987.30	225.76
987.59	225.77
987.89	225.78
988.18	225.78
988.47	225.75
988.76	225.77
989.05	225.75
989.34	225.72
989.63	225.76
989.92	225.74
990.22	225.74
990.51	225.72
990.80	225.69
991.09	225.69
991.38	225.72
991.67	225.69
991.96	225.69
992.25	225.67
992.54	225.66
992.83	225.70
993.12	225.68
993.41	225.69
993.70	225.73
993.99	225.76
994.28	225.77
994.58	225.82
994.87	225.83
995.16	225.86
995.45	225.86
995.74	225.83
996.03	225.87
996.32	225.85
996.61	225.88
996.90	225.89
997.19	225.89
997.48	225.87
997.77	225.86
998.06	225.86
998.34	225.85
998.63	225.84
998.92	225.82
999.21	225.87
999.50	225.86
999.79	225.80
1000.08	225.81
1000.37	225.78
1000.66	225.76
1000.95	225.78
1001.24	225.76
1001.53	225.77
1001.82	225.74
1002.11	225.72
1002.40	225.72
1002.68	225.73
1002.97	225.80
1003.26	225.77
1003.55	225.77
1003.84	225.80
1004.13	225.84
1004.42	225.83
1004.71	225.82
1004.99	225.81
1005.28	225.79
1005.57	225.77
1005.86	225.78
1006.15	225.75
1006.44	225.75
1006.72	225.75
1007.01	225.68
1007.30	225.67
1007.59	225.66
1007.88	225.68
1008.17	225.70
1008.45	225.71
1008.74	225.67
1009.03	225.63
1009.32	225.65
1009.60	225.63
1009.89	225.59
1010.18	225.55
1010.47	225.56
1010.76	225.56
1011.04	225.58
1011.33	225.61
1011.62	225.61
1011.91	225.60
1012.19	225.63
1012.48	225.61
1012.77	225.62
1013.05	225.70
1013.34	225.70
1013.63	225.65
1013.92	225.65
1014.20	225.61
1014.49	225.58
1014.78	225.60
1015.06	225.57
1015.35	225.57
1015.64	225.59
1015.92	225.63
1016.21	225.65
1016.50	225.65
1016.78	225.69
1017.07	225.68
1017.36	225.65
1017.64	225.64
1017.93	225.68
1018.22	225.67
1018.50	225.68
1018.79	225.69
1019.08	225.64
1019.36	225.64
1019.65	225.70
1019.93	225.69
1020.22	225.72
1020.51	225.77
1020.79	225.77
1021.08	225.80
1021.36	225.52
1021.65	226.01
1021.94	225.50
1022.22	225.45
1022.51	225.94
1022.79	225.74
1023.08	225.68
1023.36	226.72
1023.65	225.66
>>>>>End Processed Spectral Data<<<<<
